time,compression0,compression1,compression2,compression3,magn_x,magn_y,magn_z,gyro_x,gyro_y,gyro_z,accel_x,accel_y,accel_z
0.004,310,673,661,310,-3.0,34.0,38.0,-14.526366233825684,2.563476324081421,2.13623046875,-0.85009765625,0.431884765625,0.038818359375
0.006,309,673,664,309,-3.0,34.0,38.0,-2.50244140625,-0.1220703050494194,1.7700194120407104,-0.84326171875,0.461669921875,0.023681640625
0.013,309,673,665,310,-4.0,36.0,32.0,5.859374523162842,-2.868652105331421,1.2817381620407104,-0.8505859375,0.4849853515625,-0.0093994140625
0.028,311,673,664,311,-4.0,36.0,32.0,8.544921875,-4.33349609375,0.4882812201976776,-0.86962890625,0.476806640625,-0.0697021484375
0.035,311,673,666,311,-4.0,36.0,32.0,6.408690929412842,-4.39453125,-0.1220703050494194,-0.86962890625,0.476806640625,-0.0697021484375
0.052,310,671,662,311,-4.0,36.0,32.0,2.0751953125,-3.662109136581421,-0.3662109076976776,-0.8702392578125,0.45458984375,-0.0567626953125
0.099,309,673,664,309,-4.0,36.0,32.0,-1.2817381620407104,-2.685546636581421,-0.30517578125,-0.8675537109375,0.4019775390625,0.0233154296875
0.109,309,673,666,309,-4.0,36.0,32.0,-2.25830078125,-1.8920897245407104,-0.1831054538488388,-0.8675537109375,0.4019775390625,0.0233154296875
0.109,309,652,666,309,-4.0,36.0,32.0,-1.5869139432907104,-1.7700194120407104,0.0610351525247097,-0.861572265625,0.3917236328125,0.0460205078125
0.109,309,682,666,309,-4.0,36.0,32.0,0.0610351525247097,-2.25830078125,0.2441406100988388,-0.83837890625,0.428466796875,0.0098876953125
0.109,308,683,661,309,-4.0,36.0,32.0,2.685546636581421,-3.295898199081421,0.0,-0.83837890625,0.428466796875,0.0098876953125
0.109,309,683,664,309,-4.0,36.0,32.0,5.0048828125,-4.57763671875,-0.4272460639476776,-0.84033203125,0.4537353515625,-0.0277099609375
0.120,309,691,665,309,-1.0,32.0,33.0,4.8828125,-5.859374523162842,-0.54931640625,-0.85302734375,0.46923828125,-0.087646484375
0.124,311,696,667,309,-1.0,32.0,33.0,1.2817381620407104,-7.202147960662842,-0.3662109076976776,-0.85302734375,0.46923828125,-0.087646484375
0.136,309,698,666,309,-1.0,32.0,33.0,-4.638671875,-8.85009765625,-0.1220703050494194,-0.8369140625,0.4527587890625,-0.0799560546875
0.146,310,713,666,310,-1.0,32.0,33.0,-10.986327171325684,-10.375975608825684,0.1220703050494194,-0.800048828125,0.406982421875,-0.0087890625
0.167,309,715,667,310,-1.0,32.0,33.0,-16.2353515625,-11.596678733825684,0.30517578125,-0.800048828125,0.406982421875,-0.0087890625
0.167,309,718,661,310,-1.0,32.0,33.0,-19.53125,-12.634276390075684,0.1831054538488388,-0.7935791015625,0.396728515625,0.00439453125
0.179,309,734,643,309,-1.0,32.0,33.0,-22.277830123901367,-14.221190452575684,-0.3662109076976776,-0.7103271484375,0.3822021484375,-0.111328125
0.191,310,746,656,310,-1.0,32.0,33.0,-28.442380905151367,-17.02880859375,-1.6479490995407104,-0.7103271484375,0.3822021484375,-0.111328125
0.195,310,774,628,311,-1.0,32.0,33.0,-42.236324310302734,-20.751951217651367,-3.784179449081421,-0.5635986328125,0.3104248046875,-0.2069091796875
0.208,311,861,666,310,0.0,34.0,33.0,-61.828609466552734,-23.071287155151367,-7.263183116912842,-0.0997314453125,0.018310546875,-0.2342529296875
0.216,310,939,706,311,0.0,34.0,33.0,-78.125,-21.972654342651367,-12.512206077575684,-0.0997314453125,0.018310546875,-0.2342529296875
0.230,311,1031,779,310,0.0,34.0,33.0,-89.72167205810547,-21.301267623901367,-20.812986373901367,0.1705322265625,-0.1063232421875,-0.2119140625
0.236,309,1156,932,311,0.0,34.0,33.0,-89.90477752685547,-25.756834030151367,-31.005857467651367,0.4320068359375,-0.1527099609375,-0.000244140625
0.245,311,1246,1024,311,0.0,34.0,33.0,-60.302730560302734,-33.14208984375,-39.12353515625,0.4320068359375,-0.1527099609375,-0.000244140625
0.252,311,1341,1139,311,0.0,34.0,33.0,-5.554198741912842,-39.6728515625,-45.532222747802734,0.118896484375,0.2491455078125,0.14208984375
0.282,311,1478,1295,311,0.0,34.0,33.0,30.944822311401367,-46.997066497802734,-52.795406341552734,-1.0284423828125,1.431884765625,0.28759765625
0.282,311,1519,1413,312,0.0,34.0,33.0,3.417968511581421,-54.748531341552734,-59.570308685302734,-1.0284423828125,1.431884765625,0.28759765625
0.284,311,1574,1574,313,0.0,34.0,33.0,-77.63671875,-58.959957122802734,-64.14794921875,-1.45703125,1.7869873046875,0.2119140625
0.296,311,1632,2035,312,0.0,34.0,33.0,-159.0576171875,-62.194820404052734,-66.89453125,-2.282470703125,1.202880859375,0.5787353515625
0.304,311,1648,2108,312,7.0,30.0,30.0,-207.27537536621094,-64.3310546875,-70.25146484375,-2.282470703125,1.202880859375,0.5787353515625
0.312,311,1600,2116,312,7.0,30.0,30.0,-212.28025817871094,-54.809566497802734,-73.8525390625,-2.6715087890625,0.3782958984375,0.59423828125
0.326,310,1568,2106,313,7.0,30.0,30.0,-173.09568786621094,-29.479978561401367,-71.77734375,-2.24462890625,-1.0787353515625,0.462890625
0.340,311,1574,2102,313,7.0,30.0,30.0,-99.42626190185547,-1.3427733182907104,-64.697265625,-2.24462890625,-1.0787353515625,0.462890625
0.342,311,1555,2035,311,7.0,30.0,30.0,-9.09423828125,10.498045921325684,-54.077144622802734,-1.7816162109375,-0.8514404296875,0.6544189453125
0.356,310,1509,1750,312,7.0,30.0,30.0,56.396480560302734,3.479003667831421,-33.63037109375,-1.9605712890625,0.8494873046875,0.146240234375
0.386,311,1464,1641,312,7.0,30.0,30.0,70.80078125,-3.906249761581421,-7.934569835662842,-1.9605712890625,0.8494873046875,0.146240234375
0.388,311,1413,1529,311,7.0,30.0,30.0,58.471675872802734,-2.868652105331421,11.047362327575684,-1.902099609375,0.83642578125,0.06298828125
0.390,311,1316,1313,312,7.0,30.0,30.0,48.767086029052734,0.2441406100988388,19.71435546875,-1.214111328125,0.50830078125,0.2137451171875
0.399,311,1236,1178,312,7.0,30.0,30.0,49.682613372802734,3.173827886581421,21.911619186401367,-1.214111328125,0.50830078125,0.2137451171875
0.402,310,1142,1018,312,4.0,31.0,33.0,51.696773529052734,6.591796398162842,21.301267623901367,-0.87548828125,0.6136474609375,0.310302734375
0.416,311,963,861,311,4.0,31.0,33.0,44.860836029052734,10.375975608825684,18.98193359375,-0.4500732421875,0.4027099609375,0.3193359375
0.424,311,796,779,311,4.0,31.0,33.0,34.423828125,13.122557640075684,15.319823265075684,-0.4500732421875,0.4027099609375,0.3193359375
0.433,310,754,722,311,4.0,31.0,33.0,31.860349655151367,14.831542015075684,9.46044921875,-0.3076171875,-0.02001953125,0.281494140625
0.453,309,661,624,311,4.0,31.0,33.0,43.273921966552734,18.12744140625,1.2817381620407104,-0.2279052734375,-0.473876953125,0.25244140625
0.455,310,604,545,311,4.0,31.0,33.0,68.9697265625,20.141599655151367,-4.33349609375,-0.215087890625,-0.6561279296875,0.149658203125
0.463,309,561,570,310,4.0,31.0,33.0,100.76903533935547,19.775390625,-2.624511480331421,-0.2559814453125,-0.5101318359375,-0.02294921875
0.486,309,519,556,311,4.0,31.0,33.0,122.74169158935547,16.54052734375,6.958007335662842,-0.2952880859375,-0.1484375,-0.0887451171875
0.487,310,496,552,309,4.0,31.0,33.0,122.31444549560547,8.30078125,22.338865280151367,-0.3311767578125,0.250732421875,-0.041748046875
0.495,309,490,545,311,4.0,31.0,33.0,99.60936737060547,1.03759765625,36.43798828125,-0.42626953125,0.5054931640625,0.0067138671875
0.506,309,504,540,309,2.0,29.0,36.0,68.78662109375,-0.1831054538488388,43.334957122802734,-0.56103515625,0.578369140625,0.03466796875
0.514,311,503,542,309,2.0,29.0,36.0,45.166011810302734,1.9531248807907104,43.701168060302734,-0.64892578125,0.5352783203125,0.0555419921875
0.522,310,529,545,309,2.0,29.0,36.0,35.09521484375,4.45556640625,40.405269622802734,-0.6624755859375,0.447265625,0.054443359375
0.536,309,576,552,309,2.0,29.0,36.0,37.90283203125,6.591796398162842,35.400390625,-0.6658935546875,0.401611328125,0.0126953125
0.544,307,593,555,310,2.0,29.0,36.0,47.668453216552734,7.385253429412842,29.541013717651367,-0.6868896484375,0.45166015625,-0.0142822265625
0.552,309,616,559,309,2.0,29.0,36.0,55.236812591552734,5.676269054412842,22.338865280151367,-0.701904296875,0.539306640625,0.006103515625
0.566,311,654,572,309,2.0,29.0,36.0,53.283687591552734,2.3193359375,12.939452171325684,-0.715576171875,0.584228515625,0.0284423828125
0.591,309,674,587,308,2.0,29.0,36.0,41.503902435302734,-1.8310545682907104,2.13623046875,-0.7376708984375,0.5865478515625,0.005859375
0.593,308,696,587,309,2.0,29.0,36.0,23.559568405151367,-6.164550304412842,-8.60595703125,-0.7515869140625,0.5631103515625,-0.0594482421875
0.601,309,758,645,309,1.0,33.0,34.0,3.417968511581421,-9.8876953125,-17.27294921875,-0.7293701171875,0.5006103515625,-0.1158447265625
0.605,310,803,689,310,1.0,33.0,34.0,-16.7236328125,-12.878417015075684,-22.277830123901367,-0.619873046875,0.383544921875,-0.1400146484375
0.612,309,861,736,311,1.0,33.0,34.0,-33.75244140625,-14.953612327575684,-25.329587936401367,-0.400146484375,0.2203369140625,-0.20263671875
0.626,310,975,848,311,1.0,33.0,34.0,-46.874996185302734,-16.78466796875,-32.53173828125,-0.1578369140625,0.0279541015625,-0.3681640625
0.634,311,1074,980,311,1.0,33.0,34.0,-59.448238372802734,-20.812986373901367,-45.043941497802734,0.0225830078125,-0.152587890625,-0.56396484375
0.645,310,1194,1133,311,1.0,33.0,34.0,-70.25146484375,-26.672361373901367,-53.649898529052734,0.117919921875,-0.216796875,-0.654052734375
0.656,311,1391,1460,312,1.0,33.0,34.0,-74.52392578125,-31.738279342651367,-52.429195404052734,0.00146484375,-0.00048828125,-0.4688720703125
0.664,311,1476,1643,318,1.0,33.0,34.0,-83.80126190185547,-39.0625,-47.058101654052734,-0.2689208984375,0.227783203125,0.091796875
0.701,311,1552,1782,312,1.0,33.0,34.0,-108.33739471435547,-46.997066497802734,-42.297359466552734,-0.5032958984375,0.1417236328125,0.77392578125
0.702,311,1656,2034,312,1.0,33.0,34.0,-127.07518768310547,-48.339839935302734,-36.43798828125,-0.725830078125,0.046142578125,1.1480712890625
0.706,311,1703,2167,313,5.0,30.0,37.0,-122.74169158935547,-45.227046966552734,-28.930662155151367,-1.03564453125,0.4130859375,1.076416015625
0.707,296,1748,2200,311,5.0,30.0,37.0,-107.11669158935547,-41.931148529052734,-21.850584030151367,-1.466064453125,0.89404296875,0.87548828125
0.711,311,1805,2306,314,5.0,30.0,37.0,-95.88622283935547,-35.2783203125,-19.47021484375,-1.9625244140625,0.9161376953125,0.7474365234375
0.725,311,1833,2362,313,5.0,30.0,37.0,-88.68407440185547,-20.446775436401367,-18.6767578125,-2.550048828125,0.8212890625,0.619140625
0.733,311,1763,2296,313,5.0,30.0,37.0,-76.84326171875,-2.624511480331421,-12.329100608825684,-2.943359375,0.7059326171875,0.365966796875
0.741,311,1747,2284,314,5.0,30.0,37.0,-57.434078216552734,14.038084983825684,-5.554198741912842,-2.51318359375,-0.0137939453125,0.1162109375
0.755,311,1735,2225,313,5.0,30.0,37.0,-11.413573265075684,22.766111373901367,-3.967284917831421,-1.69970703125,-0.4573974609375,0.16796875
0.763,311,1721,2153,314,5.0,30.0,37.0,48.278804779052734,13.122557640075684,-2.0751953125,-1.447265625,0.1944580078125,0.2325439453125
0.808,311,1697,2058,312,5.0,30.0,37.0,63.720699310302734,0.9765624403953552,3.601073980331421,-1.6864013671875,0.903564453125,0.133056640625
0.815,311,1625,1891,313,5.0,30.0,37.0,32.04345703125,3.662109136581421,7.629394054412842,-1.874267578125,0.967529296875,0.2039794921875
0.816,311,1567,1765,313,6.0,30.0,36.0,2.01416015625,11.962889671325684,6.347655773162842,-1.7662353515625,0.615234375,0.4774169921875
0.823,311,1523,1628,312,6.0,30.0,36.0,1.6479490995407104,15.869139671325684,2.746581792831421,-1.497802734375,0.2628173828125,0.6282958984375
0.824,311,1413,1424,312,6.0,30.0,36.0,28.198240280151367,16.9677734375,1.7089842557907104,-1.257080078125,0.185791015625,0.5506591796875
0.835,311,1334,1260,313,6.0,30.0,36.0,62.622066497802734,18.49365234375,5.493163585662842,-1.0882568359375,0.376953125,0.422607421875
0.835,295,1242,1078,312,6.0,30.0,36.0,82.33641815185547,22.216794967651367,11.108397483825684,-0.949462890625,0.49609375,0.3233642578125
0.845,310,1050,901,312,6.0,30.0,36.0,83.00780487060547,27.893064498901367,14.953612327575684,-0.7950439453125,0.3770751953125,0.237060546875
0.853,307,968,787,309,6.0,30.0,36.0,77.2705078125,31.066892623901367,17.2119140625,-0.6156005859375,0.1083984375,0.1650390625
0.861,311,882,700,311,6.0,30.0,36.0,75.68359375,29.541013717651367,17.76123046875,-0.4390869140625,-0.275634765625,0.124755859375
0.915,310,765,582,310,6.0,30.0,36.0,85.26610565185547,25.390623092651367,16.845703125,-0.3006591796875,-0.5626220703125,0.06982421875
0.918,309,696,530,311,6.0,30.0,36.0,104.24803924560547,21.240232467651367,17.51708984375,-0.2220458984375,-0.5303955078125,-0.06005859375
0.918,310,592,517,309,0.0,31.0,34.0,119.93407440185547,18.49365234375,19.59228515625,-0.1844482421875,-0.3038330078125,-0.180908203125
0.924,308,591,512,310,0.0,31.0,34.0,122.80272674560547,16.05224609375,23.498533248901367,-0.1456298828125,0.0147705078125,-0.1724853515625
0.924,310,603,521,311,0.0,31.0,34.0,112.79296112060547,13.122557640075684,33.203125,-0.14208984375,0.3341064453125,-0.1065673828125
0.925,309,625,523,307,0.0,31.0,34.0,92.77342987060547,14.892577171325684,45.410152435302734,-0.2220458984375,0.5389404296875,-0.0908203125
0.935,309,687,533,310,0.0,31.0,34.0,67.3828125,20.751951217651367,51.818843841552734,-0.3411865234375,0.654541015625,-0.0950927734375
0.943,309,712,533,309,0.0,31.0,34.0,39.12353515625,23.010251998901367,48.156734466552734,-0.4827880859375,0.646728515625,-0.0543212890625
0.951,309,736,535,310,0.0,31.0,34.0,14.709471702575684,20.324705123901367,37.29248046875,-0.6109619140625,0.5118408203125,0.025390625
0.965,310,780,545,309,0.0,31.0,34.0,6.713866710662842,16.78466796875,27.709959030151367,-0.6920166015625,0.4000244140625,0.08837890625
0.974,309,805,549,311,0.0,31.0,34.0,15.197752952575684,14.099120140075684,22.827146530151367,-0.7474365234375,0.382568359375,0.126708984375
1.016,311,819,545,311,0.0,31.0,34.0,29.418943405151367,10.681151390075684,19.4091796875,-0.7630615234375,0.4637451171875,0.111328125
1.017,309,862,555,311,0.0,33.0,37.0,38.2080078125,3.540038824081421,11.474608421325684,-0.7679443359375,0.5966796875,0.046142578125
1.018,309,889,586,309,0.0,33.0,37.0,32.1044921875,-8.85009765625,-4.45556640625,-0.823486328125,0.6583251953125,-0.0130615234375
1.018,310,927,633,309,0.0,33.0,37.0,11.230467796325684,-22.644041061401367,-22.155759811401367,-0.8621826171875,0.586669921875,-0.02392578125
1.025,310,1008,746,310,0.0,33.0,37.0,-11.413573265075684,-31.494138717651367,-33.38623046875,-0.6771240234375,0.46337890625,-0.02783203125
1.033,311,1064,943,311,0.0,33.0,37.0,-30.029294967651367,-32.53173828125,-41.809078216552734,-0.3792724609375,0.341796875,-0.3095703125
1.045,311,1117,1114,311,0.0,33.0,37.0,-72.8759765625,-28.991697311401367,-54.748531341552734,-0.24755859375,0.0528564453125,-0.78369140625
1.055,311,1262,1355,312,0.0,33.0,37.0,-148.37646484375,-26.184080123901367,-59.143062591552734,-0.1322021484375,-0.33447265625,-0.9322509765625
1.063,311,1371,1511,312,0.0,33.0,37.0,-199.58494567871094,-23.193357467651367,-42.785640716552734,-0.042724609375,-0.3929443359375,-0.7032470703125
1.072,311,1469,1750,312,0.0,33.0,37.0,-191.95555114746094,-21.362302780151367,-23.193357467651367,-0.2071533203125,-0.1148681640625,-0.237060546875
1.101,310,1588,2023,313,6.0,30.0,31.0,-161.31590270996094,-30.700681686401367,-18.6767578125,-0.4359130859375,0.045654296875,0.402099609375
1.101,311,1640,2116,312,6.0,30.0,31.0,-138.671875,-49.011226654052734,-20.690916061401367,-0.5654296875,0.0931396484375,1.0001220703125
1.102,310,1702,2195,312,6.0,30.0,31.0,-119.62889862060547,-61.523433685302734,-14.465331077575684,-0.722900390625,0.3861083984375,1.32861328125
1.115,311,1788,2299,313,6.0,30.0,31.0,-104.12596893310547,-56.701656341552734,-5.432128429412842,-1.09423828125,0.8604736328125,1.2467041015625
1.129,311,1842,2337,314,6.0,30.0,31.0,-95.64208221435547,-35.94970703125,-7.019042491912842,-1.600830078125,1.0848388671875,1.0166015625
1.137,311,1900,2395,313,6.0,30.0,31.0,-88.37889862060547,-12.023924827575684,-17.39501953125,-2.1534423828125,0.834716796875,0.7645263671875
1.145,311,1880,2372,314,6.0,30.0,31.0,-67.7490234375,7.751464366912842,-24.597166061401367,-2.6766357421875,0.461669921875,0.4227294921875
1.161,311,1812,2303,314,6.0,30.0,31.0,-31.066892623901367,17.63916015625,-23.498533248901367,-2.705322265625,0.161376953125,0.052978515625
1.168,311,1821,2323,316,6.0,30.0,31.0,10.803221702575684,16.90673828125,-19.34814453125,-2.09375,-0.166748046875,-0.09130859375
1.175,311,1805,2258,314,6.0,30.0,31.0,53.527828216552734,7.324218273162842,-14.221190452575684,-1.625244140625,0.045166015625,0.0750732421875
1.207,310,1775,2171,314,5.0,30.0,36.0,67.32177734375,-5.737304210662842,-3.051757574081421,-1.731689453125,0.6600341796875,0.1495361328125
1.207,311,1730,2089,314,5.0,30.0,36.0,37.78076171875,-7.568358898162842,11.169432640075684,-1.9368896484375,0.8660888671875,0.1728515625
1.208,312,1656,1886,313,5.0,30.0,36.0,3.906249761581421,0.3662109076976776,19.4091796875,-1.885009765625,0.6624755859375,0.388671875
1.223,313,1608,1735,312,5.0,30.0,36.0,-3.784179449081421,5.493163585662842,20.629880905151367,-1.6051025390625,0.325439453125,0.6436767578125
1.223,311,1533,1562,312,5.0,30.0,36.0,-3.784179449081421,5.493163585662842,20.629880905151367,-1.325439453125,0.0855712890625,0.6968994140625
1.241,311,1398,1282,312,5.0,30.0,36.0,55.480953216552734,15.991209983825684,22.277830123901367,-1.114013671875,0.15283203125,0.608154296875
1.243,309,1289,1129,312,5.0,30.0,36.0,88.56200408935547,22.888181686401367,26.550291061401367,-0.8985595703125,0.4232177734375,0.4752197265625
1.251,310,1207,996,312,5.0,30.0,36.0,88.56200408935547,22.888181686401367,26.550291061401367,-0.667236328125,0.5604248046875,0.2801513671875
1.265,311,1043,854,311,5.0,30.0,36.0,95.33690643310547,24.414060592651367,23.620603561401367,-0.465087890625,0.46240234375,0.100341796875
1.273,310,944,749,311,5.0,30.0,36.0,88.31786346435547,20.141599655151367,13.183592796325684,-0.3206787109375,0.1380615234375,-0.002685546875
1.281,310,864,651,311,4.0,32.0,33.0,88.31786346435547,20.141599655151367,13.183592796325684,-0.2349853515625,-0.1993408203125,-0.0347900390625
1.307,311,679,547,310,4.0,32.0,33.0,96.25243377685547,15.686034202575684,-10.192870140075684,-0.23681640625,-0.2952880859375,-0.069091796875
1.308,309,593,519,309,4.0,32.0,33.0,101.44042205810547,12.451170921325684,-8.30078125,-0.241455078125,-0.1866455078125,-0.1190185546875
1.311,308,547,497,309,4.0,32.0,33.0,101.44042205810547,12.451170921325684,-8.30078125,-0.18994140625,-0.0184326171875,-0.095947265625
1.330,308,547,497,310,4.0,32.0,33.0,67.7490234375,1.220703125,16.66259765625,-0.195556640625,0.1312255859375,-0.04345703125
1.334,309,561,505,309,4.0,32.0,33.0,43.823238372802734,-0.8544921278953552,25.451658248901367,-0.2767333984375,0.253173828125,-0.0379638671875
1.341,309,609,507,310,4.0,32.0,33.0,43.823238372802734,-0.8544921278953552,25.451658248901367,-0.388916015625,0.3389892578125,-0.0589599609375
1.355,310,682,516,309,4.0,32.0,33.0,20.935056686401367,4.150390625,31.249998092651367,-0.51025390625,0.3927001953125,-0.05419921875
1.363,310,713,529,309,4.0,32.0,33.0,16.29638671875,4.2724609375,30.578611373901367,-0.5804443359375,0.4232177734375,-0.000732421875
1.371,310,751,536,309,4.0,32.0,33.0,16.29638671875,4.2724609375,30.578611373901367,-0.593505859375,0.411376953125,0.0496826171875
1.388,309,809,584,310,1.0,31.0,36.0,8.544921875,0.4882812201976776,23.254392623901367,-0.6048583984375,0.3951416015625,0.0640869140625
1.414,309,846,617,310,1.0,31.0,36.0,3.479003667831421,-2.01416015625,17.4560546875,-0.6104736328125,0.3946533203125,0.0430908203125
1.420,310,897,673,311,1.0,31.0,36.0,3.479003667831421,-2.01416015625,17.4560546875,-0.5841064453125,0.3807373046875,-0.0216064453125
1.422,295,998,756,311,1.0,31.0,36.0,-9.3994140625,-7.873534679412842,0.1831054538488388,-0.5450439453125,0.337158203125,-0.13134765625
1.424,311,1064,888,312,1.0,31.0,36.0,-18.310546875,-9.33837890625,-11.840819358825684,-0.5118408203125,0.2349853515625,-0.2572021484375
1.436,309,1142,968,311,1.0,31.0,36.0,-29.724119186401367,-10.314940452575684,-22.766111373901367,-0.433837890625,0.0885009765625,-0.349853515625
1.446,309,1300,1239,311,1.0,31.0,36.0,-37.17041015625,-10.437010765075684,-28.808591842651367,-0.308837890625,0.0250244140625,-0.3826904296875
1.455,311,1395,1404,312,1.0,31.0,36.0,-36.68212890625,-10.925292015075684,-31.005857467651367,-0.2615966796875,0.19921875,-0.30712890625
1.467,310,1483,1620,312,1.0,31.0,36.0,-36.68212890625,-10.925292015075684,-31.005857467651367,-0.3134765625,0.4111328125,-0.0704345703125
1.476,310,1619,1861,313,3.0,31.0,36.0,-62.194820404052734,-28.747556686401367,-37.04833984375,-0.3680419921875,0.38134765625,0.279296875
1.484,311,1687,1965,313,3.0,31.0,36.0,-83.43505096435547,-37.9638671875,-36.07177734375,-0.4306640625,0.2762451171875,0.68017578125
1.511,311,1738,2120,312,3.0,31.0,36.0,-83.43505096435547,-37.9638671875,-36.07177734375,-0.6995849609375,0.44140625,0.941650390625
1.512,311,1837,2325,312,3.0,31.0,36.0,-88.86717987060547,-34.97314453125,-25.146482467651367,-1.1773681640625,0.739013671875,0.9285888671875
1.515,312,1877,2381,314,3.0,31.0,36.0,-95.94725799560547,-24.597166061401367,-27.587888717651367,-1.7493896484375,0.79443359375,0.7589111328125
1.522,311,1913,2410,314,3.0,31.0,36.0,-95.94725799560547,-24.597166061401367,-27.587888717651367,-2.34033203125,0.6771240234375,0.49267578125
1.543,311,1891,2389,314,3.0,31.0,36.0,-92.65135955810547,1.5869139432907104,-32.40966796875,-2.796630859375,0.5987548828125,0.2242431640625
1.545,308,1834,2349,314,3.0,31.0,36.0,-70.1904296875,8.23974609375,-25.207517623901367,-2.68212890625,0.21484375,0.0933837890625
1.552,311,1834,2360,314,3.0,31.0,36.0,-70.1904296875,8.23974609375,-25.207517623901367,-1.960205078125,-0.2918701171875,0.21728515625
1.567,311,1810,2282,312,3.0,31.0,36.0,24.169919967651367,-2.807616949081421,-13.671874046325684,-1.5115966796875,0.0057373046875,0.37255859375
1.580,311,1782,2171,313,7.0,29.0,38.0,53.588863372802734,-12.939452171325684,-0.9765624403953552,-1.6331787109375,0.64794921875,0.2799072265625
1.583,311,1742,2080,314,7.0,29.0,38.0,53.588863372802734,-12.939452171325684,-0.9765624403953552,-1.8233642578125,0.7965087890625,0.2431640625
1.613,311,1659,1874,312,7.0,29.0,38.0,14.038084983825684,2.990722417831421,17.63916015625,-1.7445068359375,0.558349609375,0.458251953125
1.613,311,1608,1750,312,7.0,29.0,38.0,13.244627952575684,9.27734375,17.88330078125,-1.472900390625,0.259033203125,0.6453857421875
1.614,311,1551,1629,313,7.0,29.0,38.0,13.244627952575684,9.27734375,17.88330078125,-1.2547607421875,0.2147216796875,0.59912109375
1.626,311,1402,1353,313,7.0,29.0,38.0,65.36865234375,18.24951171875,21.484373092651367,-1.1290283203125,0.4395751953125,0.43115234375
1.634,311,1308,1151,312,7.0,29.0,38.0,81.90917205810547,23.376462936401367,24.658201217651367,-0.9715576171875,0.5931396484375,0.27783203125
1.649,311,1207,1010,312,7.0,29.0,38.0,81.90917205810547,23.376462936401367,24.658201217651367,-0.740478515625,0.4859619140625,0.1492919921875
1.656,311,1039,861,311,7.0,29.0,38.0,75.68359375,28.320310592651367,19.04296875,-0.5084228515625,0.2039794921875,0.057373046875
1.664,311,955,790,311,7.0,29.0,38.0,73.18115234375,25.451658248901367,12.268065452575684,-0.34033203125,-0.158447265625,0.0377197265625
1.672,309,886,691,311,3.0,29.0,34.0,73.18115234375,25.451658248901367,12.268065452575684,-0.2554931640625,-0.3834228515625,0.0302734375
1.707,309,763,598,310,3.0,29.0,34.0,78.55224609375,15.869139671325684,2.868652105331421,-0.25390625,-0.3094482421875,-0.0341796875
1.718,309,682,573,309,3.0,29.0,34.0,73.2421875,11.657713890075684,4.57763671875,-0.2802734375,-0.1036376953125,-0.080322265625
1.719,309,636,547,309,3.0,29.0,34.0,73.2421875,11.657713890075684,4.57763671875,-0.279052734375,0.098388671875,-0.0673828125
1.719,309,590,527,310,3.0,29.0,34.0,41.503902435302734,4.2724609375,18.310546875,-0.2833251953125,0.256103515625,-0.074462890625
1.725,309,607,531,309,3.0,29.0,34.0,27.770994186401367,4.2724609375,28.076169967651367,-0.3377685546875,0.3619384765625,-0.1195068359375
1.733,309,643,547,309,3.0,29.0,34.0,27.770994186401367,4.2724609375,28.076169967651367,-0.4285888671875,0.425537109375,-0.1339111328125
1.753,308,711,574,310,3.0,29.0,34.0,10.375975608825684,7.751464366912842,34.85107421875,-0.5367431640625,0.4537353515625,-0.085693359375
1.755,309,740,575,310,3.0,29.0,34.0,2.868652105331421,6.103515148162842,31.249998092651367,-0.6121826171875,0.4874267578125,-0.0023193359375
1.763,310,766,604,310,3.0,29.0,34.0,2.868652105331421,6.103515148162842,31.249998092651367,-0.62451171875,0.4808349609375,0.0577392578125
1.776,309,816,650,309,-1.0,31.0,32.0,-8.97216796875,-0.6103515625,16.05224609375,-0.6253662109375,0.447021484375,0.0670166015625
1.786,310,848,683,311,-1.0,31.0,32.0,-11.108397483825684,-2.44140625,6.042479991912842,-0.6334228515625,0.428955078125,0.0396728515625
1.793,310,886,711,310,-1.0,31.0,32.0,-11.108397483825684,-2.44140625,6.042479991912842,-0.6343994140625,0.4014892578125,-0.0111083984375
1.822,311,966,766,311,-1.0,31.0,32.0,-14.221190452575684,-1.8920897245407104,-7.690429210662842,-0.63330078125,0.34423828125,-0.07763671875
1.825,311,1018,891,311,-1.0,31.0,32.0,-19.47021484375,-1.4648436307907104,-10.803221702575684,-0.61474609375,0.2406005859375,-0.1395263671875
1.829,309,1076,985,296,-1.0,31.0,32.0,-19.47021484375,-1.4648436307907104,-10.803221702575684,-0.5369873046875,0.1048583984375,-0.198486328125
1.836,311,1239,1239,311,-1.0,31.0,32.0,-34.5458984375,-5.798339366912842,-19.59228515625,-0.417724609375,0.0509033203125,-0.2568359375
1.844,311,1315,1437,312,-1.0,31.0,32.0,-41.381832122802734,-9.33837890625,-27.160642623901367,-0.3072509765625,0.1873779296875,-0.246337890625
1.861,311,1402,1634,312,-1.0,31.0,32.0,-41.381832122802734,-9.33837890625,-27.160642623901367,-0.1595458984375,0.2449951171875,-0.1181640625
1.870,311,1573,1891,314,-1.0,31.0,32.0,-79.833984375,-23.132322311401367,-46.691890716552734,-0.0062255859375,0.0982666015625,0.1287841796875
1.875,311,1646,1981,313,3.0,27.0,33.0,-82.15331268310547,-27.648923873901367,-47.973628997802734,-0.0391845703125,-0.02392578125,0.4517822265625
1.882,311,1715,2076,314,3.0,27.0,33.0,-82.15331268310547,-27.648923873901367,-47.973628997802734,-0.3575439453125,0.08740234375,0.7559814453125
1.896,311,1834,2310,312,3.0,27.0,33.0,-43.823238372802734,-31.677244186401367,-33.63037109375,-0.890869140625,0.5477294921875,0.8662109375
1.929,311,1883,2372,313,3.0,27.0,33.0,-58.227535247802734,-30.517576217651367,-20.446775436401367,-1.4613037109375,0.85693359375,0.8033447265625
1.933,311,1931,2412,314,3.0,27.0,33.0,-58.227535247802734,-30.517576217651367,-20.446775436401367,-1.99658203125,0.7216796875,0.6861572265625
1.935,311,1974,2456,313,3.0,27.0,33.0,-102.23387908935547,0.6713866591453552,-12.207030296325684,-2.5533447265625,0.6668701171875,0.51171875
1.936,311,1941,2428,314,3.0,27.0,33.0,-88.19579315185547,18.5546875,-7.446288585662842,-2.9080810546875,0.7318115234375,0.27734375
1.942,311,1874,2351,314,3.0,27.0,33.0,-88.19579315185547,18.5546875,-7.446288585662842,-2.9080810546875,0.7318115234375,0.27734375
1.957,311,1878,2333,313,3.0,27.0,33.0,-20.385740280151367,24.475095748901367,-0.9155272841453552,-1.8193359375,-0.3779296875,0.0394287109375
1.967,311,1856,2249,314,3.0,27.0,33.0,-20.385740280151367,24.475095748901367,-0.9155272841453552,-1.54248046875,0.113525390625,0.111572265625
1.972,311,1831,2122,313,6.0,29.0,34.0,36.56005859375,7.324218273162842,3.601073980331421,-1.54248046875,0.113525390625,0.111572265625
1.986,311,1772,1949,314,6.0,29.0,34.0,41.503902435302734,-9.70458984375,18.5546875,-1.8201904296875,0.934814453125,0.2291259765625
1.995,311,1711,1860,313,6.0,29.0,34.0,41.503902435302734,-9.70458984375,18.5546875,-1.64306640625,0.681396484375,0.556396484375
2.022,311,1658,1745,313,6.0,29.0,34.0,20.202634811401367,-0.7934569716453552,16.9677734375,-1.64306640625,0.681396484375,0.556396484375
2.022,311,1537,1466,312,6.0,29.0,34.0,38.51318359375,12.512206077575684,6.530761241912842,-1.24755859375,0.3616943359375,0.60302734375
2.030,311,1444,1300,312,6.0,29.0,34.0,38.51318359375,12.512206077575684,6.530761241912842,-1.2039794921875,0.4813232421875,0.38525390625
2.039,310,1355,1153,312,6.0,29.0,34.0,59.753414154052734,19.4091796875,8.056640625,-1.2039794921875,0.4813232421875,0.38525390625
2.047,311,1173,969,311,6.0,29.0,34.0,67.138671875,25.756834030151367,14.953612327575684,-0.870361328125,0.37744140625,0.0517578125
2.055,311,1061,875,311,6.0,29.0,34.0,67.138671875,25.756834030151367,14.953612327575684,-0.5821533203125,0.1038818359375,0.0294189453125
2.063,309,978,827,311,6.0,29.0,34.0,66.40625,23.742673873901367,13.610838890075684,-0.5821533203125,0.1038818359375,0.0294189453125
2.076,309,827,664,309,2.0,30.0,38.0,72.57080078125,18.798828125,-0.4272460639476776,-0.1878662109375,-0.439697265625,0.12060546875
2.085,310,756,614,311,2.0,30.0,38.0,72.57080078125,18.798828125,-0.4272460639476776,-0.1619873046875,-0.40380859375,0.0567626953125
2.092,309,694,579,311,2.0,30.0,38.0,75.13427734375,17.63916015625,-4.7607421875,-0.1619873046875,-0.40380859375,0.0567626953125
2.126,309,559,547,309,2.0,30.0,38.0,67.68798828125,11.718749046325684,6.713866710662842,-0.2213134765625,-0.041748046875,-0.06787109375
2.126,309,531,542,309,2.0,30.0,38.0,67.68798828125,11.718749046325684,6.713866710662842,-0.2479248046875,0.20458984375,-0.0828857421875
2.127,309,529,542,310,2.0,30.0,38.0,59.692378997802734,6.347655773162842,20.629880905151367,-0.2479248046875,0.20458984375,-0.0828857421875
2.137,309,605,542,308,2.0,30.0,38.0,37.17041015625,3.479003667831421,37.841796875,-0.511474609375,0.4698486328125,-0.13525390625
2.146,310,656,545,310,2.0,30.0,38.0,37.17041015625,3.479003667831421,37.841796875,-0.6224365234375,0.48193359375,-0.114990234375
2.152,309,692,555,310,2.0,30.0,38.0,28.381345748901367,1.8310545682907104,36.31591796875,-0.6224365234375,0.48193359375,-0.114990234375
2.166,309,750,575,310,-1.0,33.0,34.0,25.207517623901367,-3.845214605331421,24.658201217651367,-0.6142578125,0.5574951171875,-0.0264892578125
2.180,310,784,593,309,-1.0,33.0,34.0,25.207517623901367,-3.845214605331421,24.658201217651367,-0.5758056640625,0.500732421875,0.027587890625
2.183,311,815,621,311,-1.0,33.0,34.0,20.263669967651367,-4.45556640625,19.59228515625,-0.5758056640625,0.500732421875,0.027587890625
2.196,310,882,659,310,-1.0,33.0,34.0,0.7934569716453552,-6.530761241912842,5.065917491912842,-0.5650634765625,0.421630859375,0.0682373046875
2.206,311,927,702,310,-1.0,33.0,34.0,0.7934569716453552,-6.530761241912842,5.065917491912842,-0.5792236328125,0.400634765625,-0.0283203125
2.228,310,981,749,307,-1.0,33.0,34.0,-13.183592796325684,-7.568358898162842,-2.868652105331421,-0.5792236328125,0.400634765625,-0.0283203125
2.228,310,1078,885,311,-1.0,33.0,34.0,-39.55078125,-11.352538108825684,-16.66259765625,-0.560791015625,0.169189453125,-0.291259765625
2.240,311,1139,977,311,-1.0,33.0,34.0,-39.55078125,-11.352538108825684,-16.66259765625,-0.4534912109375,0.0118408203125,-0.387939453125
2.243,311,1213,1098,311,-1.0,33.0,34.0,-45.593257904052734,-15.502928733825684,-22.705076217651367,-0.4534912109375,0.0118408203125,-0.387939453125
2.265,311,1369,1381,311,-1.0,33.0,34.0,-43.273921966552734,-18.85986328125,-28.747556686401367,-0.2320556640625,0.1800537109375,-0.431640625
2.270,298,1478,1613,311,2.0,31.0,39.0,-43.273921966552734,-18.85986328125,-28.747556686401367,-0.3125,0.3997802734375,-0.1182861328125
2.272,310,1552,1825,313,2.0,31.0,39.0,-47.973628997802734,-21.423337936401367,-33.8134765625,-0.3125,0.3997802734375,-0.1182861328125
2.288,311,1698,2012,312,2.0,31.0,39.0,-102.41698455810547,-38.39111328125,-44.311519622802734,-0.511962890625,0.096923828125,0.813720703125
2.295,311,1763,2178,314,2.0,31.0,39.0,-102.41698455810547,-38.39111328125,-44.311519622802734,-0.702880859375,0.1490478515625,1.0394287109375
2.302,311,1810,2287,314,2.0,31.0,39.0,-114.56298065185547,-41.687007904052734,-41.931148529052734,-0.702880859375,0.1490478515625,1.0394287109375
2.330,311,1891,2364,314,2.0,31.0,39.0,-100.83007049560547,-30.395505905151367,-22.399900436401367,-1.5205078125,0.641357421875,0.8369140625
2.330,312,1934,2410,314,2.0,31.0,39.0,-100.83007049560547,-30.395505905151367,-22.399900436401367,-2.2115478515625,0.593994140625,0.5789794921875
2.332,311,1967,2453,314,2.0,31.0,39.0,-85.26610565185547,-15.319823265075684,-17.76123046875,-2.2115478515625,0.593994140625,0.5789794921875
2.347,310,1883,2368,313,2.0,31.0,39.0,-42.053218841552734,6.286620616912842,-10.314940452575684,-2.722412109375,0.552001953125,0.0626220703125
2.354,309,1865,2367,314,2.0,31.0,39.0,-42.053218841552734,6.286620616912842,-10.314940452575684,-1.989990234375,-0.1771240234375,0.07763671875
2.368,311,1865,2362,314,5.0,29.0,32.0,-28.686521530151367,11.962889671325684,-9.3994140625,-1.989990234375,-0.1771240234375,0.07763671875
2.376,311,1844,2233,312,5.0,29.0,32.0,37.17041015625,2.746581792831421,5.126952648162842,-1.46435546875,0.324462890625,0.3060302734375
2.385,311,1818,2129,314,5.0,29.0,32.0,37.17041015625,2.746581792831421,5.126952648162842,-1.7239990234375,0.6639404296875,0.24072265625
2.393,311,1783,2020,314,5.0,29.0,32.0,34.3017578125,2.01416015625,17.7001953125,-1.7239990234375,0.6639404296875,0.24072265625
2.406,312,1695,1834,314,5.0,29.0,32.0,22.094724655151367,8.30078125,23.803709030151367,-1.550537109375,0.55517578125,0.577880859375
2.432,311,1629,1709,312,5.0,29.0,32.0,23.315427780151367,12.207030296325684,22.521970748901367,-1.3621826171875,0.4755859375,0.553955078125
2.433,311,1567,1574,314,5.0,29.0,32.0,36.31591796875,15.136717796325684,18.85986328125,-1.3621826171875,0.4755859375,0.553955078125
2.436,311,1431,1260,312,5.0,29.0,32.0,53.344722747802734,21.606443405151367,16.54052734375,-1.2225341796875,0.6234130859375,0.2899169921875
2.445,311,1335,1107,313,5.0,29.0,32.0,65.36865234375,28.442380905151367,16.54052734375,-1.2225341796875,0.6234130859375,0.2899169921875
2.453,310,1243,977,312,5.0,29.0,32.0,66.0400390625,31.188962936401367,16.7236328125,-1.0753173828125,0.5858154296875,0.2041015625
2.466,312,1050,827,311,3.0,30.0,35.0,61.828609466552734,29.602048873901367,15.563963890075684,-0.589599609375,0.1236572265625,0.0958251953125
2.481,309,963,722,312,3.0,30.0,35.0,62.866207122802734,24.963376998901367,12.939452171325684,-0.589599609375,0.1236572265625,0.0958251953125
2.482,297,844,640,307,3.0,30.0,35.0,68.359375,20.080564498901367,6.774901866912842,-0.3623046875,-0.1807861328125,0.106689453125
2.500,309,726,596,310,3.0,30.0,35.0,72.44873046875,17.63916015625,-0.1831054538488388,-0.1318359375,-0.377197265625,0.086181640625
2.505,309,640,559,309,3.0,30.0,35.0,71.044921875,17.63916015625,-2.50244140625,-0.1318359375,-0.377197265625,0.086181640625
2.514,310,562,547,310,3.0,30.0,35.0,65.36865234375,18.24951171875,0.30517578125,-0.1309814453125,-0.31640625,0.0030517578125
2.534,307,566,575,309,3.0,30.0,35.0,64.0869140625,17.39501953125,7.934569835662842,-0.18505859375,0.2158203125,-0.1898193359375
2.535,309,616,586,309,3.0,30.0,35.0,68.90869140625,13.549803733825684,19.04296875,-0.18505859375,0.2158203125,-0.1898193359375
2.543,309,692,600,307,3.0,30.0,35.0,68.7255859375,8.544921875,28.991697311401367,-0.326416015625,0.4329833984375,-0.2054443359375
2.556,309,788,603,310,2.0,31.0,39.0,57.922359466552734,4.8828125,33.63037109375,-0.5318603515625,0.492919921875,-0.1361083984375
2.565,309,830,603,309,2.0,31.0,39.0,44.189449310302734,2.38037109375,32.3486328125,-0.5318603515625,0.492919921875,-0.1361083984375
2.572,309,868,605,310,2.0,31.0,39.0,31.982419967651367,1.3427733182907104,28.503416061401367,-0.556884765625,0.5118408203125,-0.092529296875
2.593,311,938,629,309,2.0,31.0,39.0,17.822265625,1.15966796875,24.169919967651367,-0.5841064453125,0.4493408203125,-0.0096435546875
2.595,310,972,657,310,2.0,31.0,39.0,1.8920897245407104,-1.3427733182907104,18.85986328125,-0.5841064453125,0.4493408203125,-0.0096435546875
2.608,310,1022,710,310,2.0,31.0,39.0,-11.779784202575684,-6.835937023162842,11.657713890075684,-0.5941162109375,0.44873046875,0.0516357421875
2.640,311,1117,767,311,2.0,31.0,39.0,-20.751951217651367,-11.169432640075684,1.7089842557907104,-0.583251953125,0.3740234375,-0.049560546875
2.655,311,1169,819,310,2.0,31.0,39.0,-27.587888717651367,-11.657713890075684,-10.253905296325684,-0.583251953125,0.3740234375,-0.049560546875
2.660,310,1213,898,311,2.0,31.0,39.0,-38.57421875,-9.82666015625,-21.423337936401367,-0.5762939453125,0.24609375,-0.216796875
2.667,310,1330,1064,311,2.0,31.0,39.0,-56.152339935302734,-7.568358898162842,-26.733396530151367,-0.4371337890625,0.0023193359375,-0.3316650390625
2.670,311,1401,1173,311,1.0,31.0,36.0,-73.30322265625,-6.103515148162842,-24.780271530151367,-0.4371337890625,0.0023193359375,-0.3316650390625
2.672,311,1497,1359,312,1.0,31.0,36.0,-78.91845703125,-4.33349609375,-22.277830123901367,-0.3160400390625,-0.0308837890625,-0.2838134765625
2.677,311,1635,1714,313,1.0,31.0,36.0,-70.49560546875,-2.929687261581421,-24.230955123901367,-0.3931884765625,0.070068359375,0.203857421875
2.684,311,1709,1849,312,1.0,31.0,36.0,-61.706539154052734,-10.253905296325684,-28.320310592651367,-0.3931884765625,0.070068359375,0.203857421875
2.693,311,1774,1918,314,1.0,31.0,36.0,-65.24658203125,-26.367185592651367,-29.785154342651367,-0.428466796875,0.00732421875,0.57861328125
2.714,311,1889,2164,314,1.0,31.0,36.0,-74.27978515625,-36.2548828125,-25.756834030151367,-1.0654296875,0.7701416015625,0.7587890625
2.715,310,1959,2202,297,1.0,31.0,36.0,-83.61815643310547,-31.372068405151367,-17.578125,-1.0654296875,0.7701416015625,0.7587890625
2.741,311,2010,2301,313,1.0,31.0,36.0,-101.86766815185547,-18.73779296875,-12.145995140075684,-1.6387939453125,1.217529296875,0.6165771484375
2.741,311,2080,2376,312,1.0,31.0,36.0,-117.61473846435547,-6.408690929412842,-11.169432640075684,-2.87451171875,0.7601318359375,0.36474609375
2.752,310,2000,2306,312,1.0,31.0,36.0,-102.41698455810547,-0.3662109076976776,-10.375975608825684,-2.87451171875,0.7601318359375,0.36474609375
2.766,316,1973,2296,313,5.0,29.0,33.0,-61.157222747802734,-3.051757574081421,-10.742186546325684,-2.80224609375,0.317138671875,0.17236328125
2.770,311,1957,2279,313,5.0,29.0,33.0,-8.48388671875,-4.638671875,-14.404295921325684,-1.5303955078125,-0.0709228515625,0.19140625
2.781,311,1925,2207,314,5.0,29.0,33.0,46.752925872802734,-8.30078125,-15.808104515075684,-1.5303955078125,-0.0709228515625,0.19140625
2.787,311,1886,2108,314,5.0,29.0,33.0,65.4296875,-15.991209983825684,-8.7890625,-1.6068115234375,0.7254638671875,0.1138916015625
2.799,312,1806,1943,313,5.0,29.0,33.0,34.11865234375,-13.183592796325684,1.9531248807907104,-1.852294921875,0.7257080078125,0.36962890625
2.804,311,1748,1820,314,5.0,29.0,33.0,-4.150390625,-2.990722417831421,7.873534679412842,-1.852294921875,0.7257080078125,0.36962890625
2.846,311,1682,1695,313,5.0,29.0,33.0,-13.732909202575684,2.197265625,8.6669921875,-1.638916015625,0.3583984375,0.6661376953125
2.849,311,1549,1452,312,5.0,29.0,33.0,7.690429210662842,4.8828125,10.498045921325684,-1.275390625,0.309814453125,0.6136474609375
2.849,310,1458,1255,311,5.0,29.0,33.0,43.640132904052734,11.413573265075684,16.4794921875,-1.275390625,0.309814453125,0.6136474609375
2.854,311,1365,1091,312,5.0,29.0,33.0,73.1201171875,19.775390625,24.169919967651367,-1.1435546875,0.4383544921875,0.452392578125
2.856,311,1153,918,312,4.0,33.0,34.0,87.21923065185547,25.756834030151367,28.076169967651367,-0.6661376953125,0.2381591796875,0.1185302734375
2.864,310,1043,790,311,4.0,33.0,34.0,92.16307830810547,26.672361373901367,26.123044967651367,-0.6661376953125,0.2381591796875,0.1185302734375
2.872,311,916,669,311,4.0,33.0,34.0,91.79686737060547,23.620603561401367,18.310546875,-0.3580322265625,-0.0535888671875,0.082763671875
2.887,310,708,605,310,4.0,33.0,34.0,86.54784393310547,20.01953125,7.019042491912842,-0.1104736328125,-0.3502197265625,0.0667724609375
2.895,309,519,516,311,4.0,33.0,34.0,80.2001953125,16.41845703125,-2.746581792831421,-0.0054931640625,-0.4288330078125,-0.0574951171875
2.903,309,462,500,310,4.0,33.0,34.0,74.462890625,12.390135765075684,-6.347655773162842,-0.013916015625,-0.2579345703125,-0.248291015625
2.917,309,445,490,309,4.0,33.0,34.0,69.2138671875,7.446288585662842,-1.3427733182907104,-0.0877685546875,0.1766357421875,-0.3380126953125
2.945,309,464,497,309,4.0,33.0,34.0,53.833003997802734,-2.197265625,10.559081077575684,-0.190185546875,0.6627197265625,-0.19384765625
2.946,309,493,502,309,4.0,33.0,34.0,12.573241233825684,-15.624999046325684,23.010251998901367,-0.2286376953125,0.715087890625,0.0146484375
2.947,309,561,525,309,1.0,31.0,39.0,-34.423828125,-18.61572265625,26.611326217651367,-0.247314453125,0.3419189453125,0.038330078125
2.955,309,683,541,309,1.0,31.0,39.0,-46.386714935302734,-6.042479991912842,20.385740280151367,-0.3702392578125,0.095703125,-0.049072265625
2.962,311,758,562,309,1.0,31.0,39.0,-22.216794967651367,6.530761241912842,12.756346702575684,-0.54150390625,0.147216796875,-0.02978515625
2.976,309,868,600,309,1.0,31.0,39.0,5.0048828125,7.995604991912842,8.97216796875,-0.6392822265625,0.2625732421875,0.051025390625
2.984,309,932,614,309,1.0,31.0,39.0,14.038084983825684,2.685546636581421,9.58251953125,-0.6749267578125,0.34814453125,0.07373046875
2.992,309,981,636,311,1.0,31.0,39.0,8.60595703125,-2.807616949081421,12.390135765075684,-0.697998046875,0.460205078125,0.0721435546875
3.007,310,1053,683,311,1.0,31.0,39.0,-1.8310545682907104,-6.042479991912842,13.122557640075684,-0.7203369140625,0.531005859375,0.05712890625
3.014,310,1098,714,311,1.0,31.0,39.0,-11.901854515075684,-6.042479991912842,8.72802734375,-0.727294921875,0.4793701171875,0.025146484375
3.023,311,1139,740,311,1.0,31.0,39.0,-19.53125,-5.187987804412842,-0.30517578125,-0.7161865234375,0.3642578125,-0.0084228515625
3.051,311,1226,994,311,1.0,31.0,39.0,-26.977537155151367,-6.286620616912842,-12.023924827575684,-0.6878662109375,0.238037109375,-0.07666015625
3.052,311,1280,1140,311,2.0,29.0,38.0,-37.7197265625,-9.70458984375,-23.559568405151367,-0.6129150390625,0.0950927734375,-0.2030029296875
3.053,311,1341,1274,311,2.0,29.0,38.0,-48.339839935302734,-14.648436546325684,-31.311033248901367,-0.494384765625,0.0062255859375,-0.3487548828125
3.062,311,1404,1439,312,2.0,29.0,38.0,-52.001949310302734,-19.59228515625,-35.0341796875,-0.3583984375,0.0184326171875,-0.4578857421875
3.076,310,1494,1807,312,2.0,29.0,38.0,-45.776363372802734,-20.507810592651367,-36.62109375,-0.31640625,0.144287109375,-0.5018310546875
3.084,312,1546,1968,312,2.0,29.0,38.0,-37.78076171875,-18.98193359375,-36.4990234375,-0.455322265625,0.3675537109375,-0.26806640625
3.091,312,1617,2170,312,2.0,29.0,38.0,-50.598140716552734,-24.230955123901367,-36.376953125,-0.623046875,0.41943359375,0.2799072265625
3.105,311,1735,2359,314,2.0,29.0,38.0,-89.05028533935547,-35.7666015625,-35.82763671875,-0.7027587890625,0.23583984375,0.759765625
3.114,311,1803,2424,314,2.0,29.0,38.0,-121.82616424560547,-43.457027435302734,-30.944822311401367,-0.8182373046875,0.2191162109375,0.9232177734375
3.121,311,1874,2463,314,2.0,29.0,38.0,-125.97655487060547,-42.480464935302734,-24.902341842651367,-1.05517578125,0.320068359375,0.9068603515625
3.160,311,1973,2517,314,2.0,29.0,38.0,-103.14940643310547,-31.860349655151367,-22.705076217651367,-1.51513671875,0.4827880859375,0.83837890625
3.167,310,2015,2548,314,8.0,29.0,30.0,-63.781734466552734,-16.66259765625,-21.179197311401367,-2.072998046875,0.648681640625,0.79052734375
3.168,311,2024,2539,314,8.0,29.0,30.0,-29.846189498901367,-1.8310545682907104,-19.47021484375,-2.4320068359375,0.5926513671875,0.671142578125
3.168,311,1954,2424,313,8.0,29.0,30.0,-10.620116233825684,11.779784202575684,-17.7001953125,-2.3878173828125,0.337158203125,0.381591796875
3.173,311,1951,2414,314,8.0,29.0,30.0,7.324218273162842,21.484373092651367,-14.953612327575684,-1.8681640625,-0.119873046875,0.208740234375
3.182,312,1939,2360,314,8.0,29.0,30.0,33.5693359375,22.949216842651367,-9.94873046875,-1.498291015625,-0.095703125,0.2003173828125
3.196,311,1894,2217,313,8.0,29.0,30.0,51.025386810302734,14.465331077575684,1.4648436307907104,-1.6641845703125,0.472412109375,0.14794921875
3.203,311,1852,2107,312,8.0,29.0,30.0,44.372554779052734,6.835937023162842,14.526366233825684,-1.934814453125,0.7762451171875,0.1392822265625
3.212,312,1805,1953,314,8.0,29.0,30.0,29.968259811401367,6.652831554412842,21.118162155151367,-1.9417724609375,0.700439453125,0.3162841796875
3.225,311,1703,1723,313,8.0,29.0,30.0,23.559568405151367,9.27734375,22.094724655151367,-1.6947021484375,0.4693603515625,0.5208740234375
3.255,311,1642,1572,316,8.0,29.0,30.0,29.479978561401367,15.014647483825684,21.972654342651367,-1.4305419921875,0.322509765625,0.583740234375
3.258,311,1549,1417,312,4.0,29.0,36.0,45.166011810302734,23.681638717651367,24.047849655151367,-1.2633056640625,0.4154052734375,0.5263671875
3.259,311,1385,1129,311,4.0,29.0,36.0,58.105464935302734,30.761716842651367,27.465818405151367,-1.1231689453125,0.5302734375,0.3897705078125
3.270,311,1285,1034,311,4.0,29.0,36.0,61.218257904052734,34.24072265625,28.259275436401367,-0.928955078125,0.423828125,0.19775390625
3.271,311,1170,916,312,4.0,29.0,36.0,61.462398529052734,33.26416015625,24.902341842651367,-0.6719970703125,0.179931640625,0.0352783203125
3.285,311,1004,673,311,4.0,29.0,36.0,63.415523529052734,28.625486373901367,17.02880859375,-0.382080078125,-0.1689453125,-0.00146484375
3.293,310,923,619,311,4.0,29.0,36.0,65.5517578125,22.399900436401367,6.774901866912842,-0.12744140625,-0.4427490234375,0.0325927734375
3.301,309,830,598,311,4.0,29.0,36.0,67.626953125,15.991209983825684,-0.8544921278953552,-0.027587890625,-0.41455078125,-0.0362548828125
3.315,309,584,525,309,4.0,29.0,36.0,68.2373046875,11.474608421325684,-2.624511480331421,-0.0657958984375,-0.1844482421875,-0.2275390625
3.323,307,527,523,309,4.0,29.0,36.0,66.650390625,9.33837890625,1.9531248807907104,-0.1319580078125,0.11474609375,-0.3704833984375
3.359,310,532,514,310,4.0,29.0,36.0,59.448238372802734,7.812499523162842,12.817381858825684,-0.2364501953125,0.400634765625,-0.361572265625
3.360,294,566,529,310,2.0,31.0,33.0,39.97802734375,5.981444835662842,26.062009811401367,-0.3800048828125,0.563720703125,-0.246337890625
3.361,308,601,519,310,2.0,31.0,33.0,11.230467796325684,4.0283203125,34.36279296875,-0.481201171875,0.5223388671875,-0.076416015625
3.365,308,697,540,310,2.0,31.0,33.0,-12.451170921325684,1.7700194120407104,34.11865234375,-0.5242919921875,0.3570556640625,0.081298828125
3.382,310,818,578,310,2.0,31.0,33.0,-19.71435546875,-0.4882812201976776,27.832029342651367,-0.537353515625,0.2532958984375,0.1806640625
3.383,310,873,593,311,2.0,31.0,33.0,-13.671874046325684,-2.624511480331421,19.4091796875,-0.538818359375,0.2750244140625,0.219482421875
3.391,310,939,636,310,2.0,31.0,33.0,-5.676269054412842,-3.601073980331421,11.596678733825684,-0.5634765625,0.355224609375,0.2080078125
3.406,309,1021,673,311,2.0,31.0,33.0,-2.868652105331421,-3.479003667831421,5.615233898162842,-0.6072998046875,0.4359130859375,0.16943359375
3.413,309,1064,711,310,2.0,31.0,33.0,-6.103515148162842,-2.38037109375,2.13623046875,-0.64111328125,0.472412109375,0.106689453125
3.421,309,1104,715,311,2.0,31.0,33.0,-13.427733421325684,-0.1831054538488388,0.1831054538488388,-0.6641845703125,0.4300537109375,0.046875
3.464,311,1176,833,311,0.0,33.0,39.0,-21.484373092651367,0.8544921278953552,-2.44140625,-0.6708984375,0.3165283203125,0.007568359375
3.470,310,1232,982,311,0.0,33.0,39.0,-27.893064498901367,-1.15966796875,-7.507323741912842,-0.64990234375,0.1878662109375,-0.0733642578125
3.470,309,1292,1083,309,0.0,33.0,39.0,-32.65380859375,-6.103515148162842,-14.770506858825684,-0.568359375,0.0919189453125,-0.177734375
3.471,294,1404,1345,311,0.0,33.0,39.0,-36.62109375,-12.145995140075684,-21.545408248901367,-0.4085693359375,0.042724609375,-0.24853515625
3.474,311,1485,1521,312,0.0,33.0,39.0,-37.41455078125,-15.380858421325684,-26.733396530151367,-0.2259521484375,0.0316162109375,-0.312744140625
3.481,311,1560,1671,312,0.0,33.0,39.0,-33.02001953125,-12.756346702575684,-31.005857467651367,-0.1717529296875,0.1258544921875,-0.2783203125
3.495,311,1694,1987,312,0.0,33.0,39.0,-33.26416015625,-11.718749046325684,-33.14208984375,-0.25146484375,0.2498779296875,0.003173828125
3.504,311,1785,2197,312,0.0,33.0,39.0,-49.133296966552734,-20.141599655151367,-32.958984375,-0.3511962890625,0.219482421875,0.3896484375
3.511,311,1860,2352,313,0.0,33.0,39.0,-70.4345703125,-34.0576171875,-30.151365280151367,-0.5516357421875,0.325927734375,0.574462890625
3.526,311,1974,2505,314,0.0,33.0,39.0,-84.53368377685547,-44.799800872802734,-26.184080123901367,-0.974853515625,0.694580078125,0.5260009765625
3.534,312,2048,2561,314,10.0,31.0,36.0,-94.66551971435547,-45.166011810302734,-28.869626998901367,-1.5604248046875,0.9373779296875,0.513427734375
3.566,311,2126,2633,314,10.0,31.0,36.0,-102.47801971435547,-34.11865234375,-32.5927734375,-2.2476806640625,0.8660888671875,0.631591796875
3.567,311,2134,2621,314,10.0,31.0,36.0,-102.05077362060547,-19.10400390625,-28.503416061401367,-2.891357421875,0.7376708984375,0.74072265625
3.567,311,2039,2500,312,10.0,31.0,36.0,-88.07372283935547,-8.11767578125,-21.301267623901367,-2.91064453125,0.260986328125,0.61279296875
3.575,311,2037,2541,314,10.0,31.0,36.0,-45.410152435302734,3.723144292831421,-18.12744140625,-2.146484375,-0.59912109375,0.417724609375
3.586,311,2024,2504,314,10.0,31.0,36.0,26.489255905151367,11.779784202575684,-15.319823265075684,-1.5443115234375,-0.593505859375,0.313720703125
3.593,311,1997,2432,314,10.0,31.0,36.0,71.22802734375,8.6669921875,-2.807616949081421,-1.689697265625,0.3304443359375,0.10009765625
3.607,311,1968,2368,314,10.0,31.0,36.0,52.490230560302734,7.751464366912842,15.808104515075684,-2.0640869140625,0.982666015625,-0.0057373046875
3.615,311,1874,2210,313,10.0,31.0,36.0,8.9111328125,13.183592796325684,27.404783248901367,-2.09521484375,0.9359130859375,0.22265625
3.623,311,1812,2045,314,10.0,31.0,36.0,-11.474608421325684,15.380858421325684,27.404783248901367,-1.7403564453125,0.5294189453125,0.5313720703125
3.631,311,1750,1860,314,4.0,30.0,33.0,5.065917491912842,13.916014671325684,23.071287155151367,-1.3031005859375,0.2615966796875,0.647216796875
3.663,311,1620,1607,312,4.0,30.0,33.0,40.649410247802734,15.136717796325684,21.484373092651367,-1.0040283203125,0.3797607421875,0.59033203125
3.663,311,1523,1409,312,4.0,30.0,33.0,65.673828125,21.118162155151367,21.484373092651367,-0.854248046875,0.5997314453125,0.4390869140625
3.664,311,1416,1215,312,4.0,30.0,33.0,65.673828125,21.118162155151367,21.484373092651367,-0.7459716796875,0.57568359375,0.2801513671875
3.677,310,1201,985,311,4.0,30.0,33.0,61.462398529052734,34.36279296875,13.183592796325684,-0.60986328125,0.30126953125,0.1591796875
3.684,311,1074,815,311,4.0,30.0,33.0,56.396480560302734,33.99658203125,5.737304210662842,-0.4581298828125,-0.155029296875,0.0848388671875
3.692,311,968,713,311,4.0,30.0,33.0,56.396480560302734,33.99658203125,5.737304210662842,-0.314697265625,-0.5213623046875,0.0550537109375
3.705,309,746,619,311,4.0,30.0,33.0,71.47216796875,20.263669967651367,-3.540038824081421,-0.2442626953125,-0.546875,-0.01708984375
3.720,309,566,555,310,4.0,30.0,33.0,78.43017578125,14.221190452575684,-2.807616949081421,-0.238037109375,-0.3326416015625,-0.156494140625
3.721,310,494,515,311,4.0,30.0,33.0,78.43017578125,14.221190452575684,-2.807616949081421,-0.2113037109375,-0.0299072265625,-0.2606201171875
3.735,307,461,496,310,2.0,30.0,37.0,73.54736328125,6.103515148162842,7.324218273162842,-0.2208251953125,0.2999267578125,-0.27294921875
3.764,309,449,497,309,2.0,30.0,37.0,62.866207122802734,2.197265625,18.6767578125,-0.335205078125,0.5579833984375,-0.1922607421875
3.765,309,483,496,310,2.0,30.0,37.0,62.866207122802734,2.197265625,18.6767578125,-0.41455078125,0.5657958984375,-0.0201416015625
3.765,309,562,515,323,2.0,30.0,37.0,16.2353515625,-4.08935546875,31.982419967651367,-0.3875732421875,0.342529296875,0.1260986328125
3.779,310,644,556,309,2.0,30.0,37.0,7.995604991912842,-0.7324218153953552,25.390623092651367,-0.3668212890625,0.157958984375,0.1612548828125
3.781,312,772,589,310,2.0,30.0,37.0,7.995604991912842,-0.7324218153953552,25.390623092651367,-0.4097900390625,0.1669921875,0.135498046875
3.796,311,916,633,309,2.0,30.0,37.0,26.977537155151367,1.4038084745407104,12.695311546325684,-0.47216796875,0.2781982421875,0.0838623046875
3.804,310,992,673,309,2.0,30.0,37.0,24.230955123901367,-3.967284917831421,11.901854515075684,-0.5291748046875,0.3887939453125,0.0147705078125
3.811,310,1048,689,311,2.0,30.0,37.0,24.230955123901367,-3.967284917831421,11.901854515075684,-0.5799560546875,0.4803466796875,-0.0386962890625
3.825,311,1141,749,311,0.0,32.0,33.0,-6.835937023162842,-10.253905296325684,13.732909202575684,-0.5953369140625,0.51123046875,-0.05419921875
3.833,307,1214,875,311,0.0,32.0,33.0,-20.507810592651367,-9.70458984375,9.09423828125,-0.5626220703125,0.4423828125,-0.045654296875
3.841,311,1278,1081,311,0.0,32.0,33.0,-20.507810592651367,-9.70458984375,9.09423828125,-0.490966796875,0.2598876953125,-0.1121826171875
3.865,311,1417,1355,311,0.0,32.0,33.0,-37.7197265625,-9.21630859375,-22.583005905151367,-0.3853759765625,0.0146484375,-0.283447265625
3.866,311,1480,1485,311,0.0,32.0,33.0,-45.227046966552734,-12.634276390075684,-35.94970703125,-0.2452392578125,-0.1080322265625,-0.4466552734375
3.873,311,1562,1588,312,0.0,32.0,33.0,-45.227046966552734,-12.634276390075684,-35.94970703125,-0.10205078125,-0.02978515625,-0.552978515625
3.887,310,1694,1927,313,0.0,32.0,33.0,-37.90283203125,-17.822265625,-29.479978561401367,-0.1417236328125,0.239013671875,-0.490966796875
3.894,311,1757,2212,313,0.0,32.0,33.0,-35.400390625,-22.216794967651367,-28.137205123901367,-0.461181640625,0.6492919921875,-0.0828857421875
3.902,311,1834,2402,314,0.0,32.0,33.0,-35.400390625,-22.216794967651367,-28.137205123901367,-0.8021240234375,0.956787109375,0.4638671875
3.915,311,1966,2558,314,0.0,32.0,33.0,-138.00048828125,-61.157222747802734,-37.04833984375,-1.0799560546875,0.7646484375,0.8497314453125
3.924,311,2035,2625,314,4.0,29.0,40.0,-184.75340270996094,-63.903804779052734,-36.80419921875,-1.528564453125,0.280029296875,1.0013427734375
3.931,312,2120,2700,316,4.0,29.0,40.0,-184.75340270996094,-63.903804779052734,-36.80419921875,-2.150634765625,0.1749267578125,1.11669921875
3.946,311,2172,2695,314,4.0,29.0,40.0,-108.39842987060547,-27.587888717651367,-21.301267623901367,-2.7730712890625,0.6407470703125,1.166259765625
3.968,311,2089,2635,314,4.0,29.0,40.0,-63.781734466552734,-11.352538108825684,-15.136717796325684,-2.931640625,0.503662109375,0.7396240234375
3.968,312,2068,2645,314,4.0,29.0,40.0,-63.781734466552734,-11.352538108825684,-15.136717796325684,-2.22412109375,-0.516357421875,0.3109130859375
3.979,311,2039,2548,314,4.0,29.0,40.0,27.221677780151367,30.456541061401367,-11.596678733825684,-1.455078125,-0.7188720703125,0.2210693359375
3.990,311,2037,2500,315,4.0,29.0,40.0,65.91796875,27.160642623901367,-1.03759765625,-1.458740234375,0.093994140625,0.031005859375
3.992,311,1996,2414,314,4.0,29.0,40.0,65.91796875,27.160642623901367,-1.03759765625,-1.8782958984375,0.8507080078125,-0.12939453125
4.005,311,1920,2249,313,4.0,29.0,40.0,26.916501998901367,11.840819358825684,32.3486328125,-2.052490234375,1.03515625,0.068359375
4.013,311,1874,2113,314,4.0,29.0,40.0,5.676269054412842,6.530761241912842,32.89794921875,-1.8221435546875,0.786865234375,0.443603515625
4.021,311,1812,1946,314,4.0,28.0,36.0,5.676269054412842,6.530761241912842,32.89794921875,-1.4384765625,0.439453125,0.703369140625
4.035,311,1724,1675,312,4.0,28.0,36.0,43.945308685302734,11.291502952575684,13.366698265075684,-1.1273193359375,0.304443359375,0.760009765625
4.044,311,1630,1481,312,4.0,28.0,36.0,75.62255859375,19.6533203125,7.690429210662842,-0.9630126953125,0.4656982421875,0.608154296875
4.070,309,1535,1295,312,4.0,28.0,36.0,75.62255859375,19.6533203125,7.690429210662842,-0.8656005859375,0.6053466796875,0.31884765625
4.071,311,1328,1066,311,4.0,28.0,36.0,83.49608612060547,32.53173828125,9.27734375,-0.7528076171875,0.4971923828125,0.0457763671875
4.073,309,1234,968,311,4.0,28.0,36.0,70.068359375,32.89794921875,10.620116233825684,-0.594482421875,0.1629638671875,-0.06982421875
4.082,310,1139,823,311,4.0,28.0,36.0,70.068359375,32.89794921875,10.620116233825684,-0.4027099609375,-0.2772216796875,-0.0198974609375
4.097,311,966,708,311,4.0,28.0,36.0,57.434078216552734,23.315427780151367,2.807616949081421,-0.25927734375,-0.5423583984375,0.0321044921875
4.104,311,846,662,310,4.0,28.0,36.0,58.959957122802734,20.324705123901367,-1.0986328125,-0.2396240234375,-0.4755859375,-0.059326171875
4.111,309,773,639,310,4.0,28.0,36.0,58.959957122802734,20.324705123901367,-1.0986328125,-0.278076171875,-0.258544921875,-0.2432861328125
4.125,309,661,596,310,2.0,29.0,38.0,58.288570404052734,14.465331077575684,-0.4272460639476776,-0.292236328125,-0.0093994140625,-0.3515625
4.133,309,577,575,309,2.0,29.0,38.0,58.288570404052734,14.465331077575684,-0.4272460639476776,-0.31640625,0.2891845703125,-0.31982421875
4.141,309,556,564,310,2.0,29.0,38.0,57.006832122802734,8.97216796875,6.530761241912842,-0.31640625,0.2891845703125,-0.31982421875
4.178,308,652,584,310,2.0,29.0,38.0,26.245115280151367,1.4648436307907104,28.747556686401367,-0.43603515625,0.5245361328125,-0.0306396484375
4.179,310,737,603,311,2.0,29.0,38.0,26.245115280151367,1.4648436307907104,28.747556686401367,-0.4810791015625,0.410888671875,0.0992431640625
4.179,310,788,620,309,2.0,29.0,38.0,3.295898199081421,1.7700194120407104,32.65380859375,-0.4810791015625,0.410888671875,0.0992431640625
4.186,309,873,666,311,2.0,29.0,38.0,-11.169432640075684,1.6479490995407104,24.536130905151367,-0.5262451171875,0.31787109375,0.182861328125
4.194,309,928,689,311,2.0,29.0,38.0,-11.169432640075684,1.6479490995407104,24.536130905151367,-0.5494384765625,0.36083984375,0.158447265625
4.203,309,982,702,308,2.0,29.0,38.0,-8.60595703125,-1.4038084745407104,18.310546875,-0.5494384765625,0.36083984375,0.158447265625
4.215,310,1069,766,311,2.0,29.0,38.0,-6.774901866912842,-7.995604991912842,2.50244140625,-0.626708984375,0.529541015625,0.041259765625
4.224,310,1130,848,311,0.0,30.0,36.0,-6.774901866912842,-7.995604991912842,2.50244140625,-0.6455078125,0.5286865234375,-0.0166015625
4.236,310,1183,952,311,0.0,30.0,36.0,-11.047362327575684,-8.85009765625,-6.408690929412842,-0.6455078125,0.5286865234375,-0.0166015625
4.245,309,1287,1194,311,0.0,30.0,36.0,-26.428220748901367,-9.58251953125,-19.6533203125,-0.5284423828125,0.2193603515625,-0.1719970703125
4.283,311,1351,1351,312,0.0,30.0,36.0,-26.428220748901367,-9.58251953125,-19.6533203125,-0.3524169921875,0.008056640625,-0.27001953125
4.285,310,1444,1547,311,0.0,30.0,36.0,-31.005857467651367,-10.559081077575684,-26.367185592651367,-0.3524169921875,0.008056640625,-0.27001953125
4.286,295,1564,1900,312,0.0,30.0,36.0,-21.240232467651367,-19.1650390625,-40.0390625,-0.0985107421875,-0.0225830078125,-0.2352294921875
4.315,311,1643,2098,298,0.0,30.0,36.0,-21.240232467651367,-19.1650390625,-40.0390625,-0.185546875,0.1531982421875,0.007568359375
4.316,310,1722,2275,314,0.0,30.0,36.0,-17.02880859375,-30.090330123901367,-49.682613372802734,-0.185546875,0.1531982421875,0.007568359375
4.317,311,1837,2477,315,0.0,30.0,36.0,-41.259761810302734,-53.283687591552734,-61.340328216552734,-0.7415771484375,0.569580078125,0.5313720703125
4.317,312,1914,2532,314,0.0,30.0,36.0,-41.259761810302734,-53.283687591552734,-61.340328216552734,-1.143798828125,0.7689208984375,0.5933837890625
4.322,311,2002,2607,316,6.0,26.0,36.0,-73.1201171875,-52.307125091552734,-54.077144622802734,-1.143798828125,0.7689208984375,0.5933837890625
4.336,311,2096,2696,314,6.0,26.0,36.0,-125.06102752685547,-22.033689498901367,-36.376953125,-2.1748046875,0.267333984375,0.60400390625
4.343,311,2130,2725,314,6.0,26.0,36.0,-125.06102752685547,-22.033689498901367,-36.376953125,-2.5791015625,0.3096923828125,0.6463623046875
4.351,311,2117,2695,314,6.0,26.0,36.0,-103.08837127685547,-9.94873046875,-27.709959030151367,-2.5791015625,0.3096923828125,0.6463623046875
4.380,311,2018,2589,314,6.0,26.0,36.0,-36.0107421875,3.601073980331421,-14.892577171325684,-2.1116943359375,-0.047607421875,0.4505615234375
4.381,311,2023,2580,315,6.0,26.0,36.0,-36.0107421875,3.601073980331421,-14.892577171325684,-1.458984375,-0.431640625,0.54345703125
4.382,311,1969,2512,297,6.0,26.0,36.0,5.676269054412842,17.76123046875,-8.72802734375,-1.458984375,-0.431640625,0.54345703125
4.398,311,1987,2339,314,6.0,26.0,36.0,64.94140625,30.944822311401367,20.324705123901367,-1.70458984375,0.34326171875,0.3681640625
4.404,312,1944,2249,314,6.0,26.0,36.0,64.94140625,30.944822311401367,20.324705123901367,-1.949462890625,0.744384765625,0.1103515625
4.417,311,1894,2100,314,5.0,30.0,36.0,61.096187591552734,32.16552734375,36.62109375,-1.949462890625,0.744384765625,0.1103515625
4.426,311,1796,1875,314,5.0,30.0,36.0,39.36767578125,23.986814498901367,39.73388671875,-1.6485595703125,0.69091796875,0.0865478515625
4.434,311,1723,1763,313,5.0,30.0,36.0,39.36767578125,23.986814498901367,39.73388671875,-1.3741455078125,0.5625,0.200439453125
4.443,311,1643,1620,312,5.0,30.0,36.0,34.66796875,21.118162155151367,33.50830078125,-1.3741455078125,0.5625,0.200439453125
4.456,311,1503,1369,312,5.0,30.0,36.0,41.381832122802734,23.559568405151367,24.169919967651367,-0.9066162109375,0.3226318359375,0.325439453125
4.480,311,1411,1246,313,5.0,30.0,36.0,41.381832122802734,23.559568405151367,24.169919967651367,-0.695068359375,0.159912109375,0.2545166015625
4.480,310,1289,1159,312,5.0,30.0,36.0,47.607418060302734,25.695798873901367,20.080564498901367,-0.695068359375,0.159912109375,0.2545166015625
4.488,310,1104,982,312,5.0,30.0,36.0,59.509273529052734,20.324705123901367,5.981444835662842,-0.3475341796875,-0.1298828125,0.0579833984375
4.495,310,1010,861,311,5.0,30.0,36.0,59.509273529052734,20.324705123901367,5.981444835662842,-0.267822265625,-0.2806396484375,0.013671875
4.508,311,943,774,311,5.0,30.0,36.0,58.288570404052734,16.17431640625,-1.4648436307907104,-0.267822265625,-0.2806396484375,0.013671875
4.523,309,805,656,310,3.0,30.0,39.0,46.813961029052734,5.126952648162842,3.112792730331421,-0.3021240234375,-0.1429443359375,-0.172607421875
4.524,311,764,638,309,3.0,30.0,39.0,46.813961029052734,5.126952648162842,3.112792730331421,-0.30859375,0.01318359375,-0.2506103515625
4.532,309,728,605,310,3.0,30.0,39.0,47.607418060302734,0.54931640625,9.58251953125,-0.30859375,0.01318359375,-0.2506103515625
4.548,310,696,589,309,3.0,30.0,39.0,53.466793060302734,-3.234863042831421,26.794431686401367,-0.4127197265625,0.4337158203125,-0.1158447265625
4.554,309,725,600,311,3.0,30.0,39.0,53.466793060302734,-3.234863042831421,26.794431686401367,-0.506103515625,0.495849609375,-0.003173828125
4.583,310,780,616,311,3.0,30.0,39.0,39.1845703125,-3.479003667831421,35.82763671875,-0.506103515625,0.495849609375,-0.003173828125
4.584,310,858,632,311,3.0,30.0,39.0,3.845214605331421,-2.746581792831421,36.0107421875,-0.6009521484375,0.3701171875,0.1319580078125
4.585,311,869,643,310,3.0,30.0,39.0,3.845214605331421,-2.746581792831421,36.0107421875,-0.5943603515625,0.3541259765625,0.1451416015625
4.593,311,943,689,311,3.0,30.0,39.0,0.30517578125,-2.50244140625,27.832029342651367,-0.5943603515625,0.3541259765625,0.1451416015625
4.606,311,1014,718,311,3.0,30.0,39.0,-1.03759765625,-1.8920897245407104,9.6435546875,-0.561767578125,0.3751220703125,0.08544921875
4.621,310,1070,767,310,2.0,29.0,37.0,-1.03759765625,-1.8920897245407104,9.6435546875,-0.5513916015625,0.3779296875,0.033203125
4.630,310,1120,827,311,2.0,29.0,37.0,-7.995604991912842,-1.7089842557907104,3.112792730331421,-0.5513916015625,0.3779296875,0.033203125
4.636,311,1223,1125,311,2.0,29.0,37.0,-26.123044967651367,-4.08935546875,-14.892577171325684,-0.55029296875,0.305419921875,-0.1368408203125
4.645,311,1286,1248,311,2.0,29.0,37.0,-26.123044967651367,-4.08935546875,-14.892577171325684,-0.5302734375,0.2208251953125,-0.2669677734375
4.653,310,1348,1336,311,2.0,29.0,37.0,-34.48486328125,-7.141112804412842,-27.587888717651367,-0.5302734375,0.2208251953125,-0.2669677734375
4.686,310,1478,1503,312,2.0,29.0,37.0,-51.147457122802734,-12.145995140075684,-32.16552734375,-0.296142578125,0.10546875,-0.3577880859375
4.687,311,1555,1669,312,2.0,29.0,37.0,-51.147457122802734,-12.145995140075684,-32.16552734375,-0.2327880859375,0.121337890625,-0.325439453125
4.687,311,1630,1863,314,2.0,29.0,37.0,-49.743648529052734,-12.634276390075684,-25.207517623901367,-0.2327880859375,0.121337890625,-0.325439453125
4.697,311,1785,2156,313,2.0,29.0,37.0,-50.598140716552734,-27.221677780151367,-28.625486373901367,-0.4530029296875,0.2340087890625,0.4510498046875
4.704,311,1863,2316,315,2.0,29.0,37.0,-50.598140716552734,-27.221677780151367,-28.625486373901367,-0.5684814453125,0.1800537109375,0.8048095703125
4.713,311,1934,2421,314,4.0,30.0,37.0,-77.1484375,-38.51318359375,-33.69140625,-0.5684814453125,0.1800537109375,0.8048095703125
4.726,311,2049,2535,314,4.0,30.0,37.0,-110.90087127685547,-24.230955123901367,-27.221677780151367,-1.338134765625,0.6612548828125,0.5467529296875
4.742,311,2114,2599,316,4.0,30.0,37.0,-110.90087127685547,-24.230955123901367,-27.221677780151367,-2.0074462890625,0.7864990234375,0.3599853515625
4.742,311,2142,2612,294,4.0,30.0,37.0,-106.14012908935547,-14.160155296325684,-20.935056686401367,-2.0074462890625,0.7864990234375,0.3599853515625
4.756,312,2151,2640,314,4.0,30.0,37.0,-65.85693359375,-13.671874046325684,-17.578125,-2.726318359375,0.2406005859375,0.523681640625
4.767,312,2054,2559,311,4.0,30.0,37.0,-65.85693359375,-13.671874046325684,-17.578125,-2.353515625,-0.1673583984375,0.4332275390625
4.790,311,2058,2555,314,4.0,30.0,37.0,-38.14697265625,-8.056640625,-14.892577171325684,-2.353515625,-0.1673583984375,0.4332275390625
4.790,311,2047,2467,314,4.0,30.0,37.0,39.61181640625,10.375975608825684,2.01416015625,-1.409912109375,0.035888671875,0.3275146484375
4.798,311,2024,2370,314,4.0,30.0,37.0,39.61181640625,10.375975608825684,2.01416015625,-1.7193603515625,0.6934814453125,0.1829833984375
4.803,311,1996,2296,313,4.0,30.0,37.0,51.879878997802734,6.469726085662842,16.357421875,-1.7193603515625,0.6934814453125,0.1829833984375
4.816,311,1918,2072,314,4.0,29.0,36.0,21.423337936401367,11.169432640075684,27.160642623901367,-1.831298828125,0.6890869140625,0.3878173828125
4.825,311,1861,1939,313,4.0,29.0,36.0,21.423337936401367,11.169432640075684,27.160642623901367,-1.5166015625,0.3662109375,0.5333251953125
4.832,311,1798,1819,314,4.0,29.0,36.0,25.451658248901367,16.05224609375,20.996091842651367,-1.5166015625,0.3662109375,0.5333251953125
4.849,311,1675,1546,312,4.0,29.0,36.0,46.020503997802734,19.775390625,17.08984375,-1.1513671875,0.351318359375,0.3646240234375
4.855,310,1579,1355,312,4.0,29.0,36.0,71.10595703125,21.362302780151367,18.24951171875,-1.1513671875,0.351318359375,0.3646240234375
4.891,311,1486,1206,312,4.0,29.0,36.0,83.74022674560547,21.240232467651367,21.484373092651367,-1.0618896484375,0.4954833984375,0.181884765625
4.892,311,1292,1070,293,4.0,29.0,36.0,79.28466796875,20.935056686401367,23.132322311401367,-0.6968994140625,0.3115234375,-0.042724609375
4.892,311,1170,936,311,4.0,29.0,36.0,67.3828125,19.6533203125,20.935056686401367,-0.6968994140625,0.3115234375,-0.042724609375
4.893,302,1058,799,309,4.0,29.0,36.0,55.236812591552734,17.76123046875,13.244627952575684,-0.471923828125,-0.0020751953125,-0.01318359375
4.906,310,898,680,311,0.0,30.0,38.0,44.799800872802734,15.747069358825684,4.2724609375,-0.2333984375,-0.3587646484375,0.0452880859375
4.914,310,767,617,311,0.0,30.0,38.0,37.841796875,12.329100608825684,0.4272460639476776,-0.2333984375,-0.3587646484375,0.0452880859375
4.923,309,593,573,311,0.0,30.0,38.0,36.68212890625,8.85009765625,1.7089842557907104,-0.2593994140625,-0.2548828125,-0.091796875
4.936,309,473,529,309,0.0,30.0,38.0,41.992183685302734,7.202147960662842,5.737304210662842,-0.275634765625,0.1429443359375,-0.182861328125
4.949,310,465,533,309,0.0,30.0,38.0,50.720211029052734,6.042479991912842,14.160155296325684,-0.275634765625,0.1429443359375,-0.182861328125
4.959,308,465,542,311,0.0,30.0,38.0,54.260250091552734,4.33349609375,26.245115280151367,-0.3448486328125,0.3638916015625,-0.112060546875
4.966,309,506,512,309,0.0,30.0,38.0,46.386714935302734,2.685546636581421,35.58349609375,-0.4520263671875,0.4305419921875,0.060546875
5.001,309,563,548,311,0.0,30.0,38.0,31.066892623901367,2.0751953125,37.4755859375,-0.4520263671875,0.4305419921875,0.060546875
5.013,309,683,562,310,0.0,30.0,38.0,18.798828125,2.13623046875,33.203125,-0.481689453125,0.353271484375,0.1302490234375
5.022,308,827,588,310,0.0,30.0,38.0,14.831542015075684,1.4648436307907104,26.733396530151367,-0.5250244140625,0.353515625,0.1434326171875
5.024,309,882,627,309,0.0,31.0,39.0,15.014647483825684,-0.2441406100988388,20.01953125,-0.5250244140625,0.353515625,0.1434326171875
5.024,310,943,642,310,0.0,31.0,39.0,12.329100608825684,-2.685546636581421,13.549803733825684,-0.5631103515625,0.431396484375,0.09326171875
5.042,310,1035,698,310,0.0,31.0,39.0,3.234863042831421,-5.798339366912842,7.385253429412842,-0.58740234375,0.4967041015625,-0.0015869140625
5.045,309,1100,750,311,0.0,31.0,39.0,-11.474608421325684,-7.446288585662842,0.7934569716453552,-0.58740234375,0.4967041015625,-0.0015869140625
5.045,309,1186,900,311,0.0,31.0,39.0,-26.611326217651367,-6.958007335662842,-6.042479991912842,-0.5338134765625,0.42138671875,-0.0732421875
5.056,310,1309,1223,311,0.0,31.0,39.0,-38.0859375,-7.080077648162842,-14.099120140075684,-0.3436279296875,-0.031005859375,-0.2274169921875
5.064,311,1395,1403,312,0.0,31.0,39.0,-44.372554779052734,-9.82666015625,-25.329587936401367,-0.3436279296875,-0.031005859375,-0.2274169921875
5.112,311,1454,1574,313,0.0,31.0,39.0,-46.081539154052734,-13.427733421325684,-35.82763671875,-0.2392578125,-0.234619140625,-0.369873046875
5.115,311,1613,1764,312,0.0,31.0,39.0,-45.471187591552734,-15.747069358825684,-38.26904296875,-0.140625,0.1424560546875,-0.3955078125
5.116,311,1693,1929,313,0.0,31.0,39.0,-45.532222747802734,-14.099120140075684,-34.11865234375,-0.140625,0.1424560546875,-0.3955078125
5.122,311,1764,2155,314,4.0,30.0,41.0,-50.781246185302734,-9.82666015625,-30.456541061401367,-0.4110107421875,0.5406494140625,-0.1231689453125
5.124,311,1863,2428,314,4.0,30.0,41.0,-73.974609375,-16.11328125,-27.648923873901367,-1.181640625,1.1265869140625,0.651611328125
5.125,311,1957,2503,314,4.0,30.0,41.0,-121.82616424560547,-39.55078125,-23.437498092651367,-1.181640625,1.1265869140625,0.651611328125
5.132,311,2028,2565,313,4.0,30.0,41.0,-169.61668395996094,-61.096187591552734,-24.658201217651367,-1.401611328125,0.6236572265625,0.818603515625
5.147,312,2115,2659,315,4.0,30.0,41.0,-169.37254333496094,-55.541988372802734,-32.16552734375,-2.2119140625,0.136474609375,0.8448486328125
5.155,311,2153,2671,314,4.0,30.0,41.0,-113.89159393310547,-32.16552734375,-36.0107421875,-2.2119140625,0.136474609375,0.8448486328125
5.162,311,2129,2621,315,4.0,30.0,41.0,-57.373043060302734,-12.878417015075684,-36.31591796875,-2.3721923828125,0.4752197265625,0.7239990234375
5.197,311,2056,2559,314,4.0,30.0,41.0,-27.099607467651367,2.38037109375,-33.69140625,-1.8458251953125,-0.3721923828125,0.2086181640625
5.198,311,2063,2541,316,4.0,30.0,41.0,-0.3662109076976776,13.305663108825684,-27.099607467651367,-1.8458251953125,-0.3721923828125,0.2086181640625
5.198,311,2063,2494,314,4.0,30.0,41.0,39.9169921875,14.770506858825684,-18.5546875,-1.3355712890625,-0.5694580078125,0.264892578125
5.208,311,2026,2391,314,5.0,28.0,37.0,74.3408203125,9.58251953125,-4.2724609375,-1.7354736328125,0.6151123046875,0.1546630859375
5.214,312,2000,2341,314,5.0,28.0,37.0,76.35498046875,5.920409679412842,15.014647483825684,-1.7354736328125,0.6151123046875,0.1546630859375
5.222,312,1953,2275,314,5.0,28.0,37.0,52.368160247802734,6.652831554412842,29.968259811401367,-1.8155517578125,0.91015625,0.1585693359375
5.236,312,1864,2116,314,5.0,28.0,37.0,22.888181686401367,9.3994140625,35.2783203125,-1.4149169921875,0.559814453125,0.3792724609375
5.245,311,1819,1974,314,5.0,28.0,37.0,4.33349609375,13.549803733825684,32.5927734375,-1.4149169921875,0.559814453125,0.3792724609375
5.253,312,1750,1831,314,5.0,28.0,37.0,4.82177734375,18.61572265625,26.367185592651367,-1.256103515625,0.3702392578125,0.4061279296875
5.270,311,1632,1591,312,5.0,28.0,37.0,20.385740280151367,21.362302780151367,20.446775436401367,-1.070556640625,0.5443115234375,0.2222900390625
5.275,309,1537,1443,313,5.0,28.0,37.0,37.7197265625,21.850584030151367,14.526366233825684,-1.070556640625,0.5443115234375,0.2222900390625
5.307,311,1452,1262,312,5.0,28.0,37.0,48.156734466552734,22.583005905151367,7.507323741912842,-0.904541015625,0.4847412109375,0.11279296875
5.309,311,1265,1076,312,2.0,29.0,36.0,52.795406341552734,23.376462936401367,0.9765624403953552,-0.4881591796875,-0.0897216796875,0.1595458984375
5.309,311,1167,971,312,2.0,29.0,36.0,57.128902435302734,23.132322311401367,-2.929687261581421,-0.4881591796875,-0.0897216796875,0.1595458984375
5.313,311,1083,835,311,2.0,29.0,36.0,62.561031341552734,22.338865280151367,-2.929687261581421,-0.3748779296875,-0.3643798828125,0.2637939453125
5.327,311,981,693,311,2.0,29.0,36.0,65.0634765625,22.277830123901367,2.624511480331421,-0.3524169921875,-0.4580078125,0.296875
5.334,310,873,645,309,2.0,29.0,36.0,62.377925872802734,23.132322311401367,11.901854515075684,-0.4107666015625,-0.3629150390625,0.186767578125
5.343,309,801,610,311,2.0,29.0,36.0,57.250972747802734,22.644041061401367,20.01953125,-0.455078125,-0.1929931640625,0.015869140625
5.356,310,718,588,310,2.0,29.0,36.0,54.870601654052734,19.10400390625,25.268552780151367,-0.3974609375,-0.0218505859375,-0.1099853515625
5.365,309,682,589,309,2.0,29.0,36.0,58.288570404052734,15.014647483825684,29.907224655151367,-0.3218994140625,0.1966552734375,-0.1888427734375
5.376,309,691,596,310,2.0,29.0,36.0,61.462398529052734,12.817381858825684,36.2548828125,-0.3280029296875,0.444091796875,-0.22509765625
5.402,311,822,627,309,2.0,29.0,36.0,53.405757904052734,11.779784202575684,42.724605560302734,-0.385498046875,0.573486328125,-0.198974609375
5.411,309,875,632,311,-4.0,31.0,35.0,34.66796875,10.803221702575684,45.043941497802734,-0.453857421875,0.571044921875,-0.121826171875
5.448,310,918,636,309,-4.0,31.0,35.0,15.563963890075684,9.765625,41.931148529052734,-0.5018310546875,0.5211181640625,-0.0294189453125
5.448,310,1012,691,310,-4.0,31.0,35.0,3.479003667831421,8.30078125,33.87451171875,-0.5086669921875,0.445556640625,0.033203125
5.452,293,1070,715,309,-4.0,31.0,35.0,-2.990722417831421,5.0048828125,21.850584030151367,-0.52099609375,0.3826904296875,0.0277099609375
5.452,311,1125,763,310,-4.0,31.0,35.0,-9.33837890625,-2.25830078125,8.7890625,-0.5323486328125,0.380859375,-0.0140380859375
5.453,311,1239,877,310,-4.0,31.0,35.0,-18.61572265625,-12.512206077575684,-1.9531248807907104,-0.502197265625,0.3900146484375,-0.072509765625
5.454,311,1303,1078,311,-4.0,31.0,35.0,-29.541013717651367,-19.8974609375,-9.27734375,-0.4559326171875,0.33349609375,-0.171630859375
5.462,310,1372,1223,311,-4.0,31.0,35.0,-39.73388671875,-21.484373092651367,-15.563963890075684,-0.3963623046875,0.1884765625,-0.2733154296875
5.504,311,1486,1437,312,-4.0,31.0,35.0,-49.499507904052734,-18.85986328125,-23.376462936401367,-0.294189453125,0.0224609375,-0.350341796875
5.504,311,1566,1551,312,-4.0,31.0,35.0,-57.312007904052734,-13.549803733825684,-31.127927780151367,-0.163330078125,-0.06103515625,-0.43603515625
5.505,311,1635,1702,312,3.0,29.0,36.0,-55.725093841552734,-8.36181640625,-36.19384765625,-0.0478515625,0.04052734375,-0.4415283203125
5.507,310,1811,2128,300,3.0,29.0,36.0,-42.175289154052734,-8.60595703125,-38.75732421875,-0.139892578125,0.4140625,-0.1964111328125
5.514,311,1889,2359,314,3.0,29.0,36.0,-38.4521484375,-21.911619186401367,-43.273921966552734,-0.4488525390625,0.758056640625,0.402099609375
5.523,311,1960,2504,319,3.0,29.0,36.0,-72.20458984375,-46.081539154052734,-47.851558685302734,-0.8175048828125,0.9053955078125,0.9169921875
5.536,312,2116,2624,314,3.0,29.0,36.0,-130.0048828125,-60.302730560302734,-47.851558685302734,-1.2130126953125,0.7169189453125,1.00537109375
5.545,312,2172,2709,315,3.0,29.0,36.0,-161.62107849121094,-47.485347747802734,-43.884273529052734,-1.8211669921875,0.3001708984375,0.8468017578125
5.552,311,2233,2750,314,3.0,29.0,36.0,-143.37158203125,-20.690916061401367,-33.63037109375,-2.4656982421875,0.1468505859375,0.7418212890625
5.575,311,2197,2685,313,3.0,29.0,36.0,-102.29491424560547,-3.112792730331421,-21.484373092651367,-2.832763671875,0.27880859375,0.6492919921875
5.575,311,2142,2636,314,3.0,29.0,36.0,-63.903804779052734,4.57763671875,-12.390135765075684,-2.737548828125,0.0650634765625,0.2891845703125
5.610,311,2135,2636,314,3.0,29.0,36.0,-20.996091842651367,10.192870140075684,-7.019042491912842,-1.986083984375,-0.525390625,0.003173828125
5.610,310,2117,2516,314,5.0,29.0,33.0,30.273435592651367,7.202147960662842,-4.150390625,-1.292724609375,-0.461181640625,-0.0078125
5.616,311,2093,2468,314,5.0,29.0,33.0,61.401363372802734,-4.150390625,4.08935546875,-1.2698974609375,0.2122802734375,0.067138671875
5.619,311,2061,2403,312,5.0,29.0,33.0,56.152339935302734,-8.97216796875,16.78466796875,-1.547607421875,0.772705078125,0.2425537109375
5.622,311,2024,2317,314,5.0,29.0,33.0,34.60693359375,-3.356933355331421,25.268552780151367,-1.62890625,0.99658203125,0.46826171875
5.636,311,1944,2155,314,5.0,29.0,33.0,16.05224609375,6.713866710662842,25.756834030151367,-1.4801025390625,0.9271240234375,0.5665283203125
5.646,311,1894,2018,314,5.0,29.0,33.0,7.202147960662842,17.51708984375,21.667478561401367,-1.3270263671875,0.670654296875,0.5238037109375
5.652,314,1849,1892,314,5.0,29.0,33.0,8.544921875,26.611326217651367,17.578125,-1.2847900390625,0.356689453125,0.427490234375
5.666,311,1724,1595,312,5.0,29.0,33.0,19.1650390625,31.555173873901367,15.991209983825684,-1.319580078125,0.259521484375,0.3206787109375
5.674,312,1634,1375,314,5.0,29.0,33.0,33.38623046875,30.578611373901367,16.29638671875,-1.3487548828125,0.3665771484375,0.1708984375
5.681,312,1538,1204,313,5.0,29.0,33.0,42.785640716552734,26.062009811401367,16.90673828125,-1.27001953125,0.3975830078125,0.0145263671875
5.711,312,1367,1034,312,1.0,29.0,34.0,47.363277435302734,21.179197311401367,16.6015625,-1.0294189453125,0.2745361328125,-0.0450439453125
5.711,311,1231,932,314,1.0,29.0,34.0,52.429195404052734,16.845703125,13.916014671325684,-0.7105712890625,0.0767822265625,0.0225830078125
5.712,311,1112,773,312,1.0,29.0,34.0,57.067867279052734,14.221190452575684,9.09423828125,-0.4283447265625,-0.161376953125,0.1529541015625
5.725,311,935,676,311,1.0,29.0,34.0,58.166500091552734,14.465331077575684,6.164550304412842,-0.249755859375,-0.37939453125,0.228271484375
5.733,309,816,638,311,1.0,29.0,34.0,58.654781341552734,16.41845703125,7.934569835662842,-0.2303466796875,-0.417724609375,0.1463623046875
5.747,310,700,547,310,1.0,29.0,34.0,60.729976654052734,16.357421875,12.939452171325684,-0.3004150390625,-0.251708984375,-0.03564453125
5.755,310,536,477,309,1.0,29.0,34.0,61.035152435302734,12.817381858825684,18.73779296875,-0.3057861328125,-0.0113525390625,-0.1619873046875
5.763,308,516,493,309,1.0,29.0,34.0,57.128902435302734,7.446288585662842,25.024412155151367,-0.2408447265625,0.2152099609375,-0.168701171875
5.772,310,516,494,311,1.0,29.0,34.0,49.499507904052734,3.173827886581421,32.28759765625,-0.2149658203125,0.3973388671875,-0.102294921875
5.785,310,618,509,310,0.0,32.0,37.0,37.2314453125,2.44140625,38.39111328125,-0.26708984375,0.501708984375,-0.0269775390625
5.814,309,729,554,309,0.0,32.0,37.0,22.155759811401367,4.45556640625,41.015621185302734,-0.3619384765625,0.5362548828125,0.0267333984375
5.815,311,814,561,309,0.0,32.0,37.0,8.4228515625,7.019042491912842,39.36767578125,-0.4488525390625,0.513427734375,0.0390625
5.815,309,918,572,293,0.0,32.0,37.0,-1.9531248807907104,8.4228515625,32.3486328125,-0.4910888671875,0.4326171875,0.017578125
5.824,309,989,650,310,0.0,32.0,37.0,-8.72802734375,7.019042491912842,22.399900436401367,-0.51318359375,0.34814453125,-0.0054931640625
5.832,309,1045,694,311,0.0,32.0,37.0,-12.695311546325684,1.8920897245407104,13.488768577575684,-0.52587890625,0.3226318359375,-0.0050048828125
5.846,311,1134,758,310,0.0,32.0,37.0,-15.197752952575684,-5.0048828125,6.591796398162842,-0.504150390625,0.342041015625,-0.0052490234375
5.860,311,1213,877,311,0.0,32.0,37.0,-17.7001953125,-9.765625,0.8544921278953552,-0.4808349609375,0.368408203125,-0.05029296875
5.862,311,1287,1061,311,0.0,32.0,37.0,-22.827146530151367,-11.291502952575684,-6.713866710662842,-0.4591064453125,0.3192138671875,-0.1239013671875
5.876,310,1417,1282,312,0.0,32.0,37.0,-34.24072265625,-10.498045921325684,-17.88330078125,-0.377685546875,0.1324462890625,-0.2137451171875
5.884,311,1497,1416,312,2.0,30.0,38.0,-49.438472747802734,-7.934569835662842,-27.526853561401367,-0.2340087890625,-0.0281982421875,-0.2998046875
5.915,311,1588,1628,312,2.0,30.0,38.0,-58.715816497802734,-6.713866710662842,-30.334470748901367,-0.091064453125,-0.0501708984375,-0.3367919921875
5.916,310,1735,2005,312,2.0,30.0,38.0,-55.908199310302734,-11.657713890075684,-29.052732467651367,-0.1031494140625,0.0548095703125,-0.240478515625
5.916,311,1846,2192,313,2.0,30.0,38.0,-49.255367279052734,-27.893064498901367,-28.198240280151367,-0.3133544921875,0.2283935546875,0.0989990234375
5.924,311,1912,2339,314,2.0,30.0,38.0,-55.603023529052734,-51.696773529052734,-25.756834030151367,-0.638916015625,0.677978515625,0.501708984375
5.935,311,2043,2548,314,2.0,30.0,38.0,-85.81542205810547,-66.22314453125,-22.460935592651367,-1.0623779296875,1.27734375,0.7099609375
5.943,311,2133,2636,314,2.0,30.0,38.0,-134.21630859375,-58.532711029052734,-26.977537155151367,-1.5081787109375,1.0677490234375,0.898681640625
5.951,312,2224,2703,315,2.0,30.0,38.0,-164.18455505371094,-31.860349655151367,-33.69140625,-2.110107421875,0.4324951171875,1.028564453125
5.965,311,2258,2685,314,2.0,30.0,38.0,-145.751953125,-8.36181640625,-29.357908248901367,-2.8502197265625,0.5421142578125,0.8988037109375
5.974,311,2172,2647,314,2.0,30.0,38.0,-100.46385955810547,1.3427733182907104,-17.578125,-3.0560302734375,0.389892578125,0.451904296875
5.981,311,2167,2667,314,7.0,25.0,35.0,-41.687007904052734,12.756346702575684,-14.160155296325684,-2.3599853515625,-0.5826416015625,0.0303955078125
5.995,311,2134,2598,315,7.0,25.0,35.0,32.40966796875,16.9677734375,-18.06640625,-1.593017578125,-0.7784423828125,-0.096435546875
6.024,311,2122,2543,312,7.0,25.0,35.0,77.45361328125,3.906249761581421,-13.366698265075684,-1.4664306640625,0.037109375,-0.1326904296875
6.027,311,2093,2492,313,7.0,25.0,35.0,63.720699310302734,-4.5166015625,1.4038084745407104,-1.6483154296875,0.77490234375,0.041259765625
6.030,312,2039,2377,314,7.0,25.0,35.0,26.123044967651367,-0.4882812201976776,14.099120140075684,-1.633056640625,0.9373779296875,0.413818359375
6.034,310,1989,2284,313,7.0,25.0,35.0,5.615233898162842,5.493163585662842,18.310546875,-1.3485107421875,0.7557373046875,0.6868896484375
6.043,311,1934,2194,314,7.0,25.0,35.0,12.512206077575684,9.6435546875,17.333984375,-1.074951171875,0.614990234375,0.7022705078125
6.055,311,1844,1909,314,7.0,25.0,35.0,30.517576217651367,15.075682640075684,15.136717796325684,-0.9718017578125,0.529296875,0.5655517578125
6.063,311,1794,1734,314,7.0,25.0,35.0,43.273921966552734,23.315427780151367,13.305663108825684,-1.016357421875,0.499755859375,0.4176025390625
6.072,311,1716,1551,313,7.0,25.0,35.0,46.936031341552734,30.700681686401367,12.939452171325684,-1.11962890625,0.477783203125,0.27197265625
6.085,311,1561,1215,314,4.0,33.0,38.0,46.691890716552734,34.11865234375,13.183592796325684,-1.1612548828125,0.3468017578125,0.1328125
6.095,312,1472,1085,314,4.0,33.0,38.0,50.476070404052734,32.71484375,13.671874046325684,-1.0634765625,0.14208984375,0.0455322265625
6.129,311,1369,980,314,4.0,33.0,38.0,50.476070404052734,32.71484375,13.671874046325684,-0.8572998046875,-0.0799560546875,0.0504150390625
6.130,311,1206,803,312,4.0,33.0,38.0,78.55224609375,19.22607421875,11.413573265075684,-0.619873046875,-0.3043212890625,0.1026611328125
6.130,311,1117,722,311,4.0,33.0,38.0,93.32274627685547,12.512206077575684,7.263183116912842,-0.4217529296875,-0.420654296875,0.1131591796875
6.133,309,1062,687,311,4.0,33.0,38.0,93.32274627685547,12.512206077575684,7.263183116912842,-0.3099365234375,-0.314697265625,0.0660400390625
6.146,312,929,630,310,4.0,33.0,38.0,100.28075408935547,7.202147960662842,7.263183116912842,-0.28271484375,-0.0916748046875,-0.0330810546875
6.154,307,877,612,311,4.0,33.0,38.0,87.09716033935547,9.033203125,11.291502952575684,-0.258056640625,0.091552734375,-0.1500244140625
6.163,309,854,598,311,4.0,33.0,38.0,87.09716033935547,9.033203125,11.291502952575684,-0.235107421875,0.267578125,-0.217529296875
6.176,310,827,576,310,-1.0,33.0,41.0,62.499996185302734,14.953612327575684,22.827146530151367,-0.2991943359375,0.5089111328125,-0.2265625
6.184,309,847,589,309,-1.0,33.0,41.0,49.682613372802734,12.268065452575684,31.066892623901367,-0.412109375,0.6663818359375,-0.1771240234375
6.198,309,902,596,310,-1.0,33.0,41.0,49.682613372802734,12.268065452575684,31.066892623901367,-0.5047607421875,0.621337890625,-0.0863037109375
6.231,309,966,625,310,-1.0,33.0,41.0,1.5869139432907104,3.173827886581421,32.89794921875,-0.5706787109375,0.484375,-0.0108642578125
6.231,309,977,643,311,-1.0,33.0,41.0,-12.145995140075684,0.9765624403953552,25.329587936401367,-0.5928955078125,0.351806640625,0.025390625
6.231,309,1039,679,309,-1.0,33.0,41.0,-12.145995140075684,0.9765624403953552,25.329587936401367,-0.5941162109375,0.27294921875,0.016845703125
6.236,309,1104,722,310,-1.0,33.0,41.0,-18.1884765625,-5.0048828125,9.521484375,-0.5914306640625,0.2877197265625,-0.011474609375
6.244,309,1157,772,310,-1.0,33.0,41.0,-22.094724655151367,-9.765625,4.94384765625,-0.52490234375,0.3262939453125,-0.018310546875
6.252,311,1231,799,310,-1.0,33.0,41.0,-22.094724655151367,-9.765625,4.94384765625,-0.39892578125,0.2825927734375,-0.0242919921875
6.265,311,1365,1035,311,-1.0,33.0,41.0,-39.61181640625,-11.169432640075684,-7.385253429412842,-0.272705078125,0.1531982421875,-0.089111328125
6.274,311,1426,1173,312,3.0,32.0,41.0,-50.659175872802734,-9.46044921875,-17.822265625,-0.17236328125,0.032958984375,-0.2398681640625
6.282,311,1519,1315,313,3.0,32.0,41.0,-50.659175872802734,-9.46044921875,-17.822265625,-0.0450439453125,-0.0078125,-0.3782958984375
6.296,310,1697,1662,314,3.0,32.0,41.0,-66.34521484375,-11.535643577575684,-36.68212890625,0.106201171875,0.061767578125,-0.4244384765625
6.323,311,1775,1886,314,3.0,32.0,41.0,-67.138671875,-14.648436546325684,-40.161128997802734,0.0513916015625,0.3782958984375,-0.1905517578125
6.323,311,1863,2149,313,3.0,32.0,41.0,-67.138671875,-14.648436546325684,-40.161128997802734,-0.29541015625,0.697998046875,0.4005126953125
6.326,311,2021,2428,314,3.0,32.0,41.0,-109.37499237060547,-35.5224609375,-46.813961029052734,-0.7716064453125,0.8023681640625,0.910888671875
6.335,311,2108,2503,314,3.0,32.0,41.0,-152.587890625,-39.0625,-48.034664154052734,-1.2696533203125,0.6346435546875,1.0167236328125
6.342,311,2178,2580,316,3.0,32.0,41.0,-152.587890625,-39.0625,-48.034664154052734,-1.876220703125,0.4420166015625,0.7547607421875
6.355,311,2296,2689,315,3.0,32.0,41.0,-121.15477752685547,-12.084959983825684,-44.982906341552734,-2.4580078125,0.49560546875,0.44384765625
6.363,311,2325,2692,315,3.0,32.0,41.0,-64.94140625,-8.23974609375,-44.616695404052734,-2.8524169921875,0.5859375,0.2618408203125
6.372,311,2269,2624,315,7.0,30.0,33.0,-64.94140625,-8.23974609375,-44.616695404052734,-2.8726806640625,0.2177734375,0.090576171875
6.386,311,2203,2596,314,7.0,30.0,33.0,-5.065917491912842,-11.535643577575684,-29.235837936401367,-2.12939453125,-0.6776123046875,0.1568603515625
6.394,312,2175,2526,314,7.0,30.0,33.0,30.822751998901367,-4.8828125,-13.183592796325684,-1.2630615234375,-0.91845703125,0.4788818359375
6.402,311,2172,2469,314,7.0,30.0,33.0,30.822751998901367,-4.8828125,-13.183592796325684,-1.116943359375,-0.2008056640625,0.578125
6.426,311,2152,2345,313,7.0,30.0,33.0,67.9931640625,8.85009765625,34.66796875,-1.4388427734375,0.65087890625,0.4254150390625
6.427,311,2122,2266,314,7.0,30.0,33.0,50.781246185302734,19.287109375,47.973628997802734,-1.6436767578125,1.140380859375,0.293701171875
6.442,311,2078,2142,313,7.0,30.0,33.0,50.781246185302734,19.287109375,47.973628997802734,-1.5811767578125,1.1602783203125,0.2197265625
6.446,312,1969,1925,314,7.0,30.0,33.0,16.29638671875,28.381345748901367,34.3017578125,-1.457275390625,0.8739013671875,0.1650390625
6.454,312,1902,1819,315,7.0,30.0,33.0,17.39501953125,25.024412155151367,23.010251998901367,-1.390625,0.5023193359375,0.139404296875
6.462,312,1831,1649,318,7.0,30.0,33.0,17.39501953125,25.024412155151367,23.010251998901367,-1.3446044921875,0.2825927734375,0.1885986328125
6.476,312,1681,1404,319,5.0,31.0,36.0,37.59765625,17.39501953125,22.155759811401367,-1.275634765625,0.2127685546875,0.2586669921875
6.483,314,1588,1255,319,5.0,31.0,36.0,45.166011810302734,17.333984375,28.198240280151367,-1.161865234375,0.15625,0.2550048828125
6.492,314,1494,1143,322,5.0,31.0,36.0,45.166011810302734,17.333984375,28.198240280151367,-0.9857177734375,0.135009765625,0.2012939453125
6.536,313,1287,929,316,5.0,31.0,36.0,72.20458984375,13.183592796325684,25.573728561401367,-0.7711181640625,0.1513671875,0.1776123046875
6.537,312,1173,795,316,5.0,31.0,36.0,84.59471893310547,10.620116233825684,16.66259765625,-0.551025390625,0.0648193359375,0.2005615234375
6.539,312,1053,680,314,5.0,31.0,36.0,84.59471893310547,10.620116233825684,16.66259765625,-0.37060546875,-0.1151123046875,0.2452392578125
6.539,311,882,651,312,5.0,31.0,36.0,85.20507049560547,19.775390625,0.9155272841453552,-0.2763671875,-0.194091796875,0.2137451171875
6.551,312,761,588,311,5.0,31.0,36.0,81.05467987060547,23.132322311401367,-1.220703125,-0.2611083984375,-0.1400146484375,0.0556640625
6.552,311,552,516,295,5.0,31.0,36.0,81.05467987060547,23.132322311401367,-1.220703125,-0.222412109375,-0.0318603515625,-0.12255859375
6.566,308,519,556,309,5.0,31.0,36.0,71.044921875,16.29638671875,7.751464366912842,-0.1571044921875,0.1390380859375,-0.210205078125
6.574,307,518,582,310,0.0,29.0,37.0,71.044921875,16.29638671875,7.751464366912842,-0.187255859375,0.362548828125,-0.2149658203125
6.582,308,537,552,309,0.0,29.0,37.0,69.7021484375,7.507323741912842,18.61572265625,-0.187255859375,0.362548828125,-0.2149658203125
6.595,310,619,566,309,0.0,29.0,37.0,46.569820404052734,-6.347655773162842,32.1044921875,-0.479248046875,0.4620361328125,-0.13037109375
6.604,310,747,587,310,0.0,29.0,37.0,46.569820404052734,-6.347655773162842,32.1044921875,-0.4473876953125,0.3919677734375,-0.067138671875
6.630,309,858,605,309,0.0,29.0,37.0,30.639646530151367,-10.498045921325684,29.357908248901367,-0.4473876953125,0.3919677734375,-0.067138671875
6.631,309,996,593,309,0.0,29.0,37.0,19.95849609375,-2.38037109375,16.4794921875,-0.4794921875,0.4197998046875,0.0181884765625
6.634,308,1070,609,309,0.0,29.0,37.0,19.95849609375,-2.38037109375,16.4794921875,-0.489501953125,0.373779296875,0.0693359375
6.642,310,1130,687,309,0.0,29.0,37.0,6.225585460662842,-3.479003667831421,11.718749046325684,-0.489501953125,0.373779296875,0.0693359375
6.659,310,1243,738,309,0.0,29.0,37.0,-28.869626998901367,-12.145995140075684,3.295898199081421,-0.498046875,0.40234375,-0.0032958984375
6.663,311,1315,837,311,2.0,31.0,37.0,-28.869626998901367,-12.145995140075684,3.295898199081421,-0.455078125,0.3887939453125,-0.136962890625
6.673,311,1387,991,311,2.0,31.0,37.0,-43.640132904052734,-14.404295921325684,-7.751464366912842,-0.455078125,0.3887939453125,-0.136962890625
6.685,310,1537,1226,311,2.0,31.0,37.0,-81.29882049560547,-12.023924827575684,-35.58349609375,-0.2772216796875,-0.027099609375,-0.2349853515625
6.694,311,1620,1358,311,2.0,31.0,37.0,-81.29882049560547,-12.023924827575684,-35.58349609375,-0.209228515625,-0.1917724609375,-0.230712890625
6.701,311,1700,1458,312,2.0,31.0,37.0,-87.70751190185547,-5.493163585662842,-40.344234466552734,-0.209228515625,-0.1917724609375,-0.230712890625
6.734,311,1833,1763,313,2.0,31.0,37.0,-46.874996185302734,-2.563476324081421,-27.526853561401367,-0.2919921875,0.2242431640625,-0.2493896484375
6.734,310,1929,2024,313,2.0,31.0,37.0,-46.874996185302734,-2.563476324081421,-27.526853561401367,-0.514892578125,0.6956787109375,-0.081787109375
6.735,312,2000,2284,314,2.0,31.0,37.0,-38.818359375,-19.53125,-24.475095748901367,-0.514892578125,0.6956787109375,-0.081787109375
6.748,312,2135,2504,315,2.0,31.0,37.0,-138.00048828125,-67.2607421875,-27.221677780151367,-1.1842041015625,1.123779296875,0.5572509765625
6.767,312,2213,2608,318,2.0,31.0,37.0,-138.00048828125,-67.2607421875,-27.221677780151367,-1.656494140625,0.5643310546875,0.77587890625
6.767,312,2278,2689,318,7.0,31.0,37.0,-191.95555114746094,-64.02587890625,-27.954099655151367,-1.656494140625,0.5643310546875,0.77587890625
6.776,312,2340,2697,319,7.0,31.0,37.0,-128.84521484375,-26.367185592651367,-29.785154342651367,-2.7218017578125,0.2681884765625,1.0108642578125
6.783,312,2269,2647,319,7.0,31.0,37.0,-128.84521484375,-26.367185592651367,-29.785154342651367,-2.73974609375,0.061767578125,0.680419921875
6.792,312,2209,2624,318,7.0,31.0,37.0,-67.2607421875,-15.136717796325684,-28.747556686401367,-2.73974609375,0.061767578125,0.680419921875
6.806,311,2204,2576,314,7.0,31.0,37.0,44.494625091552734,10.192870140075684,-23.986814498901367,-1.4266357421875,-0.591796875,0.2010498046875
6.820,311,2200,2532,316,7.0,31.0,37.0,44.494625091552734,10.192870140075684,-23.986814498901367,-1.459716796875,0.1488037109375,0.149169921875
6.837,311,2168,2456,313,7.0,31.0,37.0,71.71630859375,8.9111328125,-11.840819358825684,-1.459716796875,0.1488037109375,0.149169921875
6.850,311,2093,2271,314,7.0,31.0,37.0,34.11865234375,9.09423828125,20.385740280151367,-1.8594970703125,0.9246826171875,0.1949462890625
6.856,311,2035,2142,312,7.0,31.0,37.0,34.11865234375,9.09423828125,20.385740280151367,-1.583251953125,0.656494140625,0.384521484375
6.866,312,1983,2012,298,7.0,31.0,37.0,26.855466842651367,5.981444835662842,24.658201217651367,-1.583251953125,0.656494140625,0.384521484375
6.875,311,1865,1755,315,3.0,29.0,34.0,55.847164154052734,7.324218273162842,23.864744186401367,-1.0491943359375,0.418212890625,0.5716552734375
6.877,312,1803,1607,316,3.0,29.0,34.0,55.847164154052734,7.324218273162842,23.864744186401367,-1.0347900390625,0.52392578125,0.4967041015625
6.882,312,1721,1458,316,3.0,29.0,34.0,61.035152435302734,19.47021484375,23.437498092651367,-1.0347900390625,0.52392578125,0.4967041015625
6.896,313,1562,1194,315,3.0,29.0,34.0,49.621578216552734,35.0341796875,18.61572265625,-0.9771728515625,0.4293212890625,0.087158203125
6.904,312,1452,1078,316,3.0,29.0,34.0,49.621578216552734,35.0341796875,18.61572265625,-0.811767578125,0.221923828125,-0.0244140625
6.912,312,1341,978,314,3.0,29.0,34.0,52.673336029052734,33.02001953125,13.122557640075684,-0.811767578125,0.221923828125,-0.0244140625
6.938,312,1160,771,314,3.0,29.0,34.0,70.49560546875,16.9677734375,1.9531248807907104,-0.390869140625,-0.39208984375,0.0360107421875
6.938,312,1074,710,312,3.0,29.0,34.0,70.49560546875,16.9677734375,1.9531248807907104,-0.2540283203125,-0.509521484375,0.043701171875
6.941,311,996,673,311,3.0,29.0,34.0,76.5380859375,10.253905296325684,2.44140625,-0.2540283203125,-0.509521484375,0.043701171875
6.955,311,869,612,311,3.0,29.0,34.0,82.58055877685547,6.286620616912842,15.563963890075684,-0.299072265625,-0.1529541015625,-0.1822509765625
6.964,311,841,603,309,1.0,31.0,40.0,82.58055877685547,6.286620616912842,15.563963890075684,-0.3095703125,0.16162109375,-0.2052001953125
6.973,309,819,603,309,1.0,31.0,40.0,78.0029296875,6.774901866912842,23.437498092651367,-0.3095703125,0.16162109375,-0.2052001953125
6.987,309,841,601,309,1.0,31.0,40.0,42.724605560302734,2.624511480331421,38.330078125,-0.37109375,0.5892333984375,0.0213623046875
6.994,310,884,616,309,1.0,31.0,40.0,42.724605560302734,2.624511480331421,38.330078125,-0.4593505859375,0.5509033203125,0.0728759765625
7.002,310,932,631,309,1.0,31.0,40.0,19.95849609375,2.197265625,40.527339935302734,-0.4593505859375,0.5509033203125,0.0728759765625
7.016,309,996,654,310,1.0,31.0,40.0,2.746581792831421,3.234863042831421,28.381345748901367,-0.5545654296875,0.5054931640625,0.0240478515625
7.028,309,1039,689,309,1.0,31.0,40.0,2.746581792831421,3.234863042831421,28.381345748901367,-0.5399169921875,0.5072021484375,0.024658203125
7.041,311,1083,696,311,1.0,31.0,40.0,3.540038824081421,1.4038084745407104,18.61572265625,-0.5399169921875,0.5072021484375,0.024658203125
7.046,309,1153,722,309,1.0,31.0,40.0,0.8544921278953552,-1.4648436307907104,9.765625,-0.5552978515625,0.491943359375,0.055419921875
7.054,309,1207,765,310,1.0,31.0,40.0,-7.019042491912842,-3.845214605331421,2.0751953125,-0.5552978515625,0.491943359375,0.055419921875
7.062,311,1266,792,311,0.0,31.0,36.0,-19.10400390625,-4.5166015625,-5.0048828125,-0.5787353515625,0.449462890625,0.025390625
7.079,311,1369,1024,311,0.0,31.0,36.0,-32.3486328125,-4.2724609375,-11.413573265075684,-0.59912109375,0.233642578125,-0.053466796875
7.084,311,1424,1153,311,0.0,31.0,36.0,-42.297359466552734,-4.638671875,-18.6767578125,-0.59912109375,0.233642578125,-0.053466796875
7.099,310,1485,1280,312,0.0,31.0,36.0,-46.325679779052734,-4.39453125,-27.099607467651367,-0.52880859375,0.0704345703125,-0.19970703125
7.105,311,1622,1513,314,0.0,31.0,36.0,-46.569820404052734,-2.868652105331421,-32.16552734375,-0.1802978515625,-0.0640869140625,-0.423095703125
7.113,311,1727,1709,312,0.0,31.0,36.0,-45.166011810302734,-3.479003667831421,-31.188962936401367,-0.1802978515625,-0.0640869140625,-0.423095703125
7.143,309,1785,1941,311,0.0,31.0,36.0,-42.114253997802734,-6.164550304412842,-28.198240280151367,-0.0548095703125,0.060791015625,-0.3380126953125
7.146,311,1944,2290,312,0.0,31.0,36.0,-45.104976654052734,-13.793944358825684,-28.442380905151367,-0.376220703125,0.685546875,0.5306396484375
7.156,311,2023,2394,313,0.0,31.0,36.0,-69.4580078125,-30.395505905151367,-34.24072265625,-0.376220703125,0.685546875,0.5306396484375
7.156,311,2095,2489,314,0.0,31.0,36.0,-107.11669158935547,-46.386714935302734,-42.419429779052734,-0.734619140625,0.8831787109375,0.7601318359375
7.165,312,2215,2635,313,3.0,33.0,34.0,-131.89697265625,-52.490230560302734,-49.743648529052734,-1.900390625,1.0179443359375,0.3397216796875
7.173,311,2277,2674,315,3.0,33.0,34.0,-130.92041015625,-50.659175872802734,-55.175777435302734,-1.900390625,1.0179443359375,0.3397216796875
7.186,311,2321,2716,314,3.0,33.0,34.0,-112.36571502685547,-49.011226654052734,-58.471675872802734,-2.4873046875,0.572998046875,0.3875732421875
7.195,312,2225,2653,314,3.0,33.0,34.0,-89.78270721435547,-46.264644622802734,-58.227535247802734,-2.6395263671875,-0.775146484375,0.6705322265625
7.204,312,2148,2632,315,3.0,33.0,34.0,-59.082027435302734,-33.203125,-47.363277435302734,-2.6395263671875,-0.775146484375,0.6705322265625
7.212,312,2167,2634,316,3.0,33.0,34.0,-18.85986328125,-10.803221702575684,-25.573728561401367,-1.9024658203125,-0.9639892578125,0.5474853515625
7.246,311,2147,2502,314,3.0,33.0,34.0,19.6533203125,9.27734375,-0.1831054538488388,-1.4654541015625,0.3780517578125,0.513916015625
7.246,312,2119,2415,316,3.0,33.0,34.0,37.29248046875,19.04296875,26.428220748901367,-1.4654541015625,0.3780517578125,0.513916015625
7.247,312,2089,2323,316,3.0,33.0,34.0,27.770994186401367,26.550291061401367,48.278804779052734,-1.8255615234375,0.8282470703125,0.4713134765625
7.258,311,2000,2082,314,2.0,26.0,37.0,18.73779296875,36.2548828125,55.419918060302734,-1.6099853515625,0.748779296875,0.4854736328125
7.264,311,1937,1897,315,2.0,26.0,37.0,31.249998092651367,40.954586029052734,47.607418060302734,-1.6099853515625,0.748779296875,0.4854736328125
7.272,312,1865,1723,315,2.0,26.0,37.0,58.227535247802734,40.771480560302734,33.14208984375,-1.295166015625,0.67138671875,0.4227294921875
7.294,312,1716,1430,314,2.0,26.0,37.0,84.53368377685547,39.85595703125,18.98193359375,-1.0035400390625,0.7462158203125,0.156982421875
7.295,312,1619,1263,316,2.0,26.0,37.0,95.82518768310547,38.63525390625,8.23974609375,-1.0035400390625,0.7462158203125,0.156982421875
7.303,312,1521,1117,316,2.0,26.0,37.0,90.57616424560547,36.9873046875,0.7934569716453552,-0.9124755859375,0.504150390625,0.0009765625
7.316,312,1300,929,314,2.0,26.0,37.0,83.43505096435547,32.16552734375,-4.94384765625,-0.6036376953125,-0.218505859375,0.008544921875
7.325,312,1160,794,314,2.0,26.0,37.0,84.53368377685547,22.155759811401367,-9.58251953125,-0.6036376953125,-0.218505859375,0.008544921875
7.361,311,1034,724,312,2.0,26.0,37.0,87.76854705810547,12.939452171325684,-11.657713890075684,-0.4505615234375,-0.395263671875,0.0576171875
7.365,312,819,630,295,2.0,26.0,37.0,83.67919158935547,9.3994140625,-9.33837890625,-0.310791015625,-0.267578125,-0.212646484375
7.374,309,793,613,310,2.0,31.0,37.0,71.83837890625,10.070799827575684,-4.39453125,-0.310791015625,-0.267578125,-0.212646484375
7.392,309,721,572,310,2.0,31.0,37.0,58.776851654052734,11.169432640075684,-0.1220703050494194,-0.266357421875,-0.10302734375,-0.347412109375
7.392,310,629,552,310,2.0,31.0,37.0,49.621578216552734,9.46044921875,3.479003667831421,-0.228759765625,0.3814697265625,-0.2012939453125
7.392,308,666,555,310,2.0,31.0,37.0,40.893550872802734,4.8828125,9.8876953125,-0.228759765625,0.3814697265625,-0.2012939453125
7.401,311,751,570,309,2.0,31.0,37.0,24.902341842651367,0.0,19.22607421875,-0.2781982421875,0.4815673828125,-0.0391845703125
7.407,309,871,619,310,2.0,31.0,37.0,4.150390625,-1.8920897245407104,26.306150436401367,-0.364990234375,0.3414306640625,0.17724609375
7.414,311,939,657,310,2.0,31.0,37.0,-10.803221702575684,-0.2441406100988388,28.625486373901367,-0.364990234375,0.3414306640625,0.17724609375
7.421,309,1007,682,311,2.0,31.0,37.0,-16.4794921875,2.0751953125,27.038572311401367,-0.3968505859375,0.30078125,0.2252197265625
7.452,311,1122,735,311,2.0,31.0,37.0,-16.90673828125,3.112792730331421,22.644041061401367,-0.466552734375,0.3072509765625,0.151123046875
7.453,311,1185,740,312,2.0,31.0,37.0,-15.808104515075684,2.685546636581421,16.78466796875,-0.466552734375,0.3072509765625,0.151123046875
7.453,311,1255,830,311,3.0,33.0,38.0,-15.930174827575684,0.9155272841453552,10.253905296325684,-0.4903564453125,0.3929443359375,0.0684814453125
7.465,307,1361,1078,311,3.0,33.0,38.0,-19.287109375,-1.8920897245407104,1.4648436307907104,-0.5179443359375,0.3026123046875,-0.102294921875
7.474,313,1422,1147,311,3.0,33.0,38.0,-23.132322311401367,-4.39453125,-9.46044921875,-0.5179443359375,0.3026123046875,-0.102294921875
7.482,310,1486,1243,312,3.0,33.0,38.0,-25.024412155151367,-5.798339366912842,-17.9443359375,-0.497314453125,0.2200927734375,-0.1868896484375
7.495,311,1611,1506,313,3.0,33.0,38.0,-29.418943405151367,-7.263183116912842,-21.240232467651367,-0.357177734375,0.1712646484375,-0.3046875
7.506,311,1697,1709,312,3.0,33.0,38.0,-37.841796875,-7.080077648162842,-22.644041061401367,-0.357177734375,0.1712646484375,-0.3046875
7.516,311,1794,1894,314,3.0,33.0,38.0,-49.926753997802734,-7.446288585662842,-24.353025436401367,-0.41552734375,0.313720703125,-0.292236328125
7.526,311,1925,2249,314,3.0,33.0,38.0,-72.998046875,-18.37158203125,-25.451658248901367,-0.547607421875,0.41357421875,-0.013427734375
7.558,312,2005,2392,314,3.0,33.0,38.0,-103.08837127685547,-35.46142578125,-25.695798873901367,-0.7191162109375,0.3079833984375,0.3277587890625
7.558,311,2076,2491,314,3.0,33.0,38.0,-115.96678924560547,-44.494625091552734,-26.733396530151367,-0.9549560546875,0.214111328125,0.561767578125
7.559,312,2186,2617,312,4.0,30.0,37.0,-103.94286346435547,-42.358394622802734,-28.869626998901367,-1.2459716796875,0.33740234375,0.66015625
7.568,311,2231,2677,314,4.0,30.0,37.0,-83.00780487060547,-32.958984375,-27.099607467651367,-1.710205078125,0.64111328125,0.6138916015625
7.572,311,2278,2715,314,4.0,30.0,37.0,-67.87109375,-22.338865280151367,-21.667478561401367,-2.210205078125,0.6842041015625,0.5579833984375
7.586,311,2235,2674,316,4.0,30.0,37.0,-60.302730560302734,-13.610838890075684,-18.06640625,-2.5263671875,0.4189453125,0.5020751953125
7.594,312,2162,2622,314,4.0,30.0,37.0,-46.203609466552734,-6.286620616912842,-16.05224609375,-2.49853515625,0.1492919921875,0.33203125
7.602,311,2172,2627,315,4.0,30.0,37.0,-18.12744140625,0.2441406100988388,-15.075682640075684,-1.91064453125,-0.1676025390625,0.210205078125
7.616,311,2172,2552,314,4.0,30.0,37.0,17.27294921875,3.173827886581421,-14.770506858825684,-1.3663330078125,-0.0985107421875,0.2283935546875
7.623,311,2147,2488,314,4.0,30.0,37.0,40.344234466552734,-0.3662109076976776,-8.85009765625,-1.447265625,0.4208984375,0.251953125
7.634,311,2119,2424,314,4.0,30.0,37.0,37.17041015625,-1.4648436307907104,2.25830078125,-1.744384765625,0.663818359375,0.30908203125
7.655,311,2026,2247,314,5.0,27.0,34.0,26.123044967651367,5.0048828125,10.437010765075684,-1.785888671875,0.549560546875,0.461181640625
7.667,312,1974,2105,314,5.0,27.0,34.0,26.000974655151367,11.901854515075684,14.953612327575684,-1.59228515625,0.4114990234375,0.5631103515625
7.670,312,1925,1954,314,5.0,27.0,34.0,35.70556640625,17.63916015625,19.8974609375,-1.3941650390625,0.35546875,0.526611328125
7.676,312,1803,1659,315,5.0,27.0,34.0,46.447750091552734,25.329587936401367,25.939939498901367,-1.2972412109375,0.4256591796875,0.4237060546875
7.685,311,1712,1486,316,5.0,27.0,34.0,51.513668060302734,31.982419967651367,30.456541061401367,-1.247802734375,0.5166015625,0.28271484375
7.693,307,1625,1339,316,5.0,27.0,34.0,52.062984466552734,35.09521484375,30.578611373901367,-1.141357421875,0.4754638671875,0.102294921875
7.706,313,1449,1159,314,5.0,27.0,34.0,56.579586029052734,34.423828125,25.451658248901367,-0.9105224609375,0.3021240234375,-0.0126953125
7.719,311,1338,1064,313,5.0,27.0,34.0,68.9697265625,29.174802780151367,15.502928733825684,-0.60107421875,0.023681640625,0.014404296875
7.722,311,1239,899,313,5.0,27.0,34.0,83.74022674560547,21.057126998901367,2.868652105331421,-0.32861328125,-0.26416015625,0.102783203125
7.736,310,1104,795,312,5.0,27.0,34.0,91.67479705810547,13.610838890075684,-5.920409679412842,-0.1549072265625,-0.3883056640625,0.140869140625
7.758,311,982,708,311,1.0,30.0,36.0,88.68407440185547,8.72802734375,-6.530761241912842,-0.1400146484375,-0.2738037109375,0.034912109375
7.758,309,900,666,311,1.0,30.0,36.0,76.96533203125,6.835937023162842,-1.7700194120407104,-0.2357177734375,-0.0528564453125,-0.1932373046875
7.766,310,830,612,310,1.0,30.0,36.0,60.302730560302734,6.713866710662842,4.33349609375,-0.2872314453125,0.15966796875,-0.347900390625
7.774,309,833,601,310,1.0,30.0,36.0,42.907711029052734,5.310058116912842,11.962889671325684,-0.3045654296875,0.3768310546875,-0.3408203125
7.781,309,865,610,309,1.0,30.0,36.0,24.291990280151367,1.8920897245407104,21.545408248901367,-0.3638916015625,0.5152587890625,-0.231689453125
7.796,310,954,650,310,1.0,30.0,36.0,3.173827886581421,-1.5258787870407104,28.442380905151367,-0.4400634765625,0.4833984375,-0.0850830078125
7.805,310,992,673,309,1.0,30.0,36.0,-12.634276390075684,-3.295898199081421,28.503416061401367,-0.5010986328125,0.3876953125,0.04443359375
7.812,311,1035,697,311,1.0,30.0,36.0,-15.502928733825684,-3.295898199081421,22.888181686401367,-0.535400390625,0.335693359375,0.1300048828125
7.827,310,1130,721,311,1.0,30.0,36.0,-8.97216796875,-3.479003667831421,15.136717796325684,-0.55078125,0.3309326171875,0.1624755859375
7.834,310,1185,747,311,1.0,30.0,36.0,-2.3193359375,-5.0048828125,8.60595703125,-0.5753173828125,0.3653564453125,0.154052734375
7.859,310,1236,770,311,1.0,30.0,37.0,-1.8310545682907104,-6.774901866912842,4.21142578125,-0.604248046875,0.42431640625,0.1153564453125
7.860,311,1338,875,311,1.0,30.0,37.0,-9.58251953125,-6.774901866912842,1.3427733182907104,-0.6380615234375,0.441650390625,0.06640625
7.864,311,1387,1007,311,1.0,30.0,37.0,-23.010251998901367,-5.249022960662842,-1.220703125,-0.66650390625,0.367431640625,0.010009765625
7.873,309,1442,1107,312,1.0,30.0,37.0,-35.21728515625,-4.08935546875,-3.967284917831421,-0.6470947265625,0.228271484375,-0.10107421875
7.888,310,1546,1232,311,1.0,30.0,37.0,-39.4287109375,-5.126952648162842,-6.958007335662842,-0.5439453125,0.0487060546875,-0.2642822265625
7.893,311,1620,1355,311,1.0,30.0,37.0,-33.203125,-9.82666015625,-10.253905296325684,-0.33251953125,-0.118408203125,-0.3912353515625
7.902,310,1674,1551,312,1.0,30.0,37.0,-19.10400390625,-17.333984375,-15.075682640075684,-0.1539306640625,-0.146240234375,-0.467041015625
7.915,311,1798,1929,312,1.0,30.0,37.0,-7.751464366912842,-25.939939498901367,-22.155759811401367,-0.2218017578125,0.11572265625,-0.3837890625
7.923,311,1878,2122,314,1.0,30.0,37.0,-20.751951217651367,-38.39111328125,-29.785154342651367,-0.380859375,0.3638916015625,0.0421142578125
7.932,311,1953,2290,314,1.0,30.0,37.0,-61.035152435302734,-50.842281341552734,-35.82763671875,-0.5106201171875,0.2666015625,0.52001953125
7.965,310,2060,2456,314,5.0,29.0,37.0,-96.80175018310547,-57.067867279052734,-32.958984375,-0.7098388671875,0.342529296875,0.68701171875
7.965,311,2120,2538,312,5.0,29.0,37.0,-110.04637908935547,-61.706539154052734,-20.202634811401367,-0.983154296875,0.67236328125,0.6153564453125
7.965,310,2162,2621,314,5.0,29.0,37.0,-106.14012908935547,-61.340328216552734,-10.925292015075684,-1.5052490234375,0.880126953125,0.46923828125
7.975,311,2273,2716,314,5.0,29.0,37.0,-90.63719940185547,-53.955074310302734,-13.977049827575684,-2.0687255859375,0.8404541015625,0.5517578125
7.984,311,2290,2725,315,5.0,29.0,37.0,-76.84326171875,-43.701168060302734,-23.925779342651367,-2.488525390625,0.698974609375,0.875732421875
7.992,311,2233,2677,315,5.0,29.0,37.0,-67.81005859375,-25.939939498901367,-28.991697311401367,-2.64306640625,0.364013671875,0.901611328125
8.005,311,2218,2647,314,5.0,29.0,37.0,-47.424312591552734,3.356933355331421,-29.235837936401367,-2.044677734375,-0.309326171875,0.6641845703125
8.014,309,2203,2582,314,5.0,29.0,37.0,-2.0751953125,30.944822311401367,-30.090330123901367,-1.2877197265625,-0.5133056640625,0.526123046875
8.022,311,2206,2532,314,5.0,29.0,37.0,44.616695404052734,41.564937591552734,-25.512693405151367,-1.21044921875,-0.0992431640625,0.3369140625
8.037,311,2170,2444,314,4.0,29.0,38.0,63.049312591552734,40.161128997802734,-13.000487327575684,-1.5731201171875,0.3619384765625,0.07861328125
8.069,311,2134,2376,314,4.0,29.0,38.0,58.288570404052734,32.16552734375,1.5258787870407104,-1.811279296875,0.683837890625,-0.0311279296875
8.070,311,2078,2282,314,4.0,29.0,38.0,41.809078216552734,19.59228515625,11.718749046325684,-1.73291015625,0.806396484375,0.0269775390625
8.072,311,1985,2116,313,4.0,29.0,38.0,23.315427780151367,10.314940452575684,14.770506858825684,-1.505615234375,0.70263671875,0.1812744140625
8.082,311,1931,1982,314,4.0,29.0,38.0,11.291502952575684,10.803221702575684,13.366698265075684,-1.2958984375,0.44287109375,0.37109375
8.083,294,1831,1811,292,4.0,29.0,38.0,7.995604991912842,20.141599655151367,11.840819358825684,-1.1756591796875,0.2979736328125,0.510498046875
8.092,312,1794,1636,314,4.0,29.0,38.0,11.779784202575684,29.968259811401367,12.084959983825684,-1.12451171875,0.33154296875,0.50634765625
8.105,311,1636,1369,314,4.0,29.0,38.0,19.47021484375,35.94970703125,12.512206077575684,-1.090087890625,0.33984375,0.3367919921875
8.114,311,1533,1249,314,4.0,29.0,38.0,31.066892623901367,38.818359375,11.657713890075684,-1.01904296875,0.266357421875,0.1170654296875
8.121,311,1445,1133,313,4.0,29.0,38.0,47.302242279052734,36.4990234375,9.58251953125,-0.861328125,0.145263671875,0.0196533203125
8.136,311,1239,943,313,2.0,30.0,32.0,64.208984375,29.357908248901367,5.981444835662842,-0.641845703125,-0.04296875,0.06396484375
8.144,312,1097,809,311,2.0,30.0,32.0,74.951171875,22.216794967651367,2.01416015625,-0.4381103515625,-0.2503662109375,0.13525390625
8.169,311,959,751,312,2.0,30.0,32.0,77.81982421875,19.34814453125,0.6713866591453552,-0.2967529296875,-0.338134765625,0.1507568359375
8.169,309,780,629,309,2.0,30.0,32.0,76.47705078125,20.751951217651367,1.7700194120407104,-0.2567138671875,-0.2728271484375,0.0787353515625
8.174,309,614,582,310,2.0,30.0,32.0,73.1201171875,22.705076217651367,4.2724609375,-0.282958984375,-0.06884765625,-0.046875
8.181,310,561,540,309,2.0,30.0,32.0,65.61279296875,20.996091842651367,9.09423828125,-0.2696533203125,0.190185546875,-0.138916015625
8.195,310,549,547,308,2.0,30.0,32.0,52.246089935302734,16.90673828125,16.357421875,-0.2506103515625,0.371337890625,-0.1689453125
8.204,310,612,558,310,2.0,30.0,32.0,34.97314453125,13.549803733825684,23.742673873901367,-0.296875,0.4329833984375,-0.1572265625
8.213,310,745,575,310,2.0,30.0,32.0,17.822265625,11.108397483825684,27.465818405151367,-0.3988037109375,0.4312744140625,-0.1341552734375
8.226,310,882,609,311,2.0,30.0,32.0,5.126952648162842,8.30078125,26.733396530151367,-0.5167236328125,0.4349365234375,-0.1160888671875
8.234,310,938,644,309,0.0,27.0,39.0,-1.4648436307907104,4.57763671875,22.705076217651367,-0.5809326171875,0.41943359375,-0.0831298828125
8.242,309,996,673,311,0.0,27.0,39.0,-4.2724609375,0.0,16.29638671875,-0.58740234375,0.3682861328125,-0.0247802734375
8.270,309,1101,726,310,0.0,27.0,39.0,-6.835937023162842,-4.7607421875,10.192870140075684,-0.5841064453125,0.3416748046875,0.0367431640625
8.271,310,1166,763,293,0.0,27.0,39.0,-12.390135765075684,-9.033203125,5.981444835662842,-0.576171875,0.3572998046875,0.066650390625
8.272,309,1189,794,311,0.0,27.0,39.0,-22.155759811401367,-11.474608421325684,2.197265625,-0.5609130859375,0.3675537109375,0.0546875
8.286,310,1328,1098,311,0.0,27.0,39.0,-33.8134765625,-11.840819358825684,-4.0283203125,-0.5206298828125,0.322021484375,0.0263671875
8.294,311,1398,1239,312,0.0,27.0,39.0,-44.311519622802734,-10.192870140075684,-13.916014671325684,-0.45361328125,0.1920166015625,-0.09814453125
8.302,310,1471,1387,312,0.0,27.0,39.0,-53.283687591552734,-7.080077648162842,-24.414060592651367,-0.37158203125,0.036865234375,-0.3125
8.316,311,1620,1669,312,0.0,27.0,39.0,-60.119625091552734,-8.544921875,-29.174802780151367,-0.2496337890625,-0.0458984375,-0.4376220703125
8.324,310,1730,1863,312,0.0,27.0,39.0,-58.837886810302734,-16.17431640625,-27.282712936401367,-0.212158203125,0.07275390625,-0.4027099609375
8.338,311,1825,2129,312,3.0,30.0,35.0,-51.940914154052734,-28.381345748901367,-26.184080123901367,-0.32470703125,0.311279296875,-0.1005859375
8.345,311,1981,2404,313,3.0,30.0,35.0,-58.532711029052734,-45.043941497802734,-29.846189498901367,-0.513916015625,0.417236328125,0.3416748046875
8.376,311,2049,2486,314,3.0,30.0,35.0,-84.28954315185547,-58.044429779052734,-33.0810546875,-0.7568359375,0.3446044921875,0.59521484375
8.384,311,2128,2565,314,3.0,30.0,35.0,-107.17772674560547,-59.875484466552734,-31.433103561401367,-1.0777587890625,0.1842041015625,0.665283203125
8.385,311,2235,2691,314,3.0,30.0,35.0,-102.72216033935547,-52.490230560302734,-26.184080123901367,-1.6033935546875,0.32568359375,0.6263427734375
8.386,312,2229,2735,314,3.0,30.0,35.0,-76.66015625,-45.227046966552734,-22.583005905151367,-2.1302490234375,0.672607421875,0.6168212890625
8.392,310,2319,2763,314,3.0,30.0,35.0,-53.100582122802734,-40.222164154052734,-24.902341842651367,-2.4598388671875,0.663818359375,0.6446533203125
8.406,311,2253,2710,314,3.0,30.0,35.0,-35.0341796875,-30.456541061401367,-28.259275436401367,-2.6011962890625,0.39697265625,0.5506591796875
8.414,311,2180,2677,314,3.0,30.0,35.0,-15.991209983825684,-15.380858421325684,-27.404783248901367,-2.2012939453125,-0.0511474609375,0.37158203125
8.422,311,2200,2689,314,3.0,30.0,35.0,7.751464366912842,0.9155272841453552,-23.132322311401367,-1.4312744140625,-0.4224853515625,0.3358154296875
8.435,312,2202,2626,314,7.0,26.0,34.0,33.69140625,10.559081077575684,-13.061522483825684,-1.1494140625,-0.1993408203125,0.441650390625
8.451,312,2172,2566,314,7.0,26.0,34.0,42.907711029052734,13.427733421325684,4.33349609375,-1.4727783203125,0.32275390625,0.432373046875
8.452,311,2145,2514,314,7.0,26.0,34.0,33.87451171875,17.822265625,21.911619186401367,-1.8033447265625,0.640380859375,0.348388671875
8.476,311,2060,2357,314,7.0,26.0,34.0,24.597166061401367,21.972654342651367,31.372068405151367,-1.818603515625,0.7005615234375,0.3380126953125
8.477,311,2005,2235,314,7.0,26.0,34.0,21.484373092651367,22.583005905151367,32.65380859375,-1.6239013671875,0.562255859375,0.36962890625
8.485,311,1954,2089,314,7.0,26.0,34.0,25.024412155151367,23.559568405151367,30.822751998901367,-1.4222412109375,0.3624267578125,0.37841796875
8.496,312,1846,1794,312,7.0,26.0,34.0,35.82763671875,26.428220748901367,29.418943405151367,-1.2808837890625,0.314697265625,0.3648681640625
8.504,311,1772,1640,313,7.0,26.0,34.0,47.912593841552734,28.320310592651367,27.832029342651367,-1.170654296875,0.377197265625,0.2872314453125
8.512,311,1683,1481,313,7.0,26.0,34.0,47.912593841552734,28.320310592651367,27.832029342651367,-1.04443359375,0.427734375,0.130859375
8.526,312,1514,1292,312,2.0,29.0,40.0,64.94140625,25.939939498901367,16.2353515625,-0.8671875,0.4254150390625,-0.0166015625
8.534,311,1409,1194,314,2.0,29.0,40.0,67.81005859375,21.545408248901367,6.225585460662842,-0.649658203125,0.30517578125,-0.0596923828125
8.542,311,1292,1091,312,2.0,29.0,40.0,67.81005859375,21.545408248901367,6.225585460662842,-0.44677734375,0.015380859375,0.002197265625
8.580,310,1071,889,312,2.0,29.0,40.0,55.053707122802734,10.559081077575684,-12.756346702575684,-0.3045654296875,-0.2784423828125,0.0865478515625
8.584,309,967,805,311,2.0,29.0,40.0,48.706050872802734,6.652831554412842,-13.122557640075684,-0.2425537109375,-0.3721923828125,0.1080322265625
8.584,309,868,693,310,2.0,29.0,40.0,48.706050872802734,6.652831554412842,-13.122557640075684,-0.254638671875,-0.3096923828125,0.0318603515625
8.586,311,724,642,311,2.0,29.0,40.0,49.133296966552734,0.9765624403953552,2.746581792831421,-0.269287109375,-0.1329345703125,-0.0819091796875
8.594,309,695,600,311,2.0,29.0,40.0,52.368160247802734,-1.03759765625,14.953612327575684,-0.2652587890625,0.1329345703125,-0.1181640625
8.602,309,705,586,309,2.0,29.0,40.0,52.368160247802734,-1.03759765625,14.953612327575684,-0.301025390625,0.3660888671875,-0.060302734375
8.616,310,820,619,309,2.0,29.0,40.0,34.66796875,-0.9155272841453552,35.15625,-0.378173828125,0.447265625,0.02099609375
8.624,309,888,640,311,0.0,27.0,37.0,16.845703125,2.990722417831421,37.65869140625,-0.4678955078125,0.4259033203125,0.0667724609375
8.632,309,935,669,310,0.0,27.0,37.0,16.845703125,2.990722417831421,37.65869140625,-0.541259765625,0.4034423828125,0.0618896484375
8.645,310,1029,711,311,0.0,27.0,37.0,3.540038824081421,7.141112804412842,29.113767623901367,-0.578369140625,0.3726806640625,0.0347900390625
8.654,309,1086,740,309,0.0,27.0,37.0,1.3427733182907104,4.0283203125,22.033689498901367,-0.60302734375,0.3438720703125,0.010986328125
8.688,310,1143,761,311,0.0,27.0,37.0,1.3427733182907104,4.0283203125,22.033689498901367,-0.6236572265625,0.3553466796875,0.022705078125
8.688,309,1251,875,312,0.0,27.0,37.0,-8.85009765625,-7.324218273162842,8.1787109375,-0.6319580078125,0.38037109375,0.069580078125
