time,compression0,compression1,compression2,compression3,magn_x,magn_y,magn_z,gyro_x,gyro_y,gyro_z,accel_x,accel_y,accel_z
0.009,309,854,590,309,2.0,34.0,32.0,2.38037109375,-1.0986328125,-0.3662109076976776,-0.8974609375,0.411865234375,0.0413818359375
0.052,309,849,591,309,2.0,34.0,32.0,0.1831054538488388,-0.54931640625,-0.1831054538488388,-0.8785400390625,0.3876953125,0.0655517578125
0.056,311,848,591,310,2.0,34.0,32.0,0.1831054538488388,-0.54931640625,0.0610351525247097,-0.8714599609375,0.385986328125,0.0699462890625
0.057,310,846,590,309,2.0,34.0,32.0,0.7324218153953552,-0.7934569716453552,0.2441406100988388,-0.86962890625,0.390625,0.066162109375
0.058,294,846,588,309,2.0,34.0,32.0,1.3427733182907104,-1.03759765625,0.30517578125,-0.8739013671875,0.400390625,0.0594482421875
0.066,308,846,589,310,2.0,34.0,32.0,2.01416015625,-1.220703125,0.2441406100988388,-0.883544921875,0.4122314453125,0.0501708984375
0.080,309,844,589,309,2.0,34.0,32.0,2.3193359375,-1.15966796875,0.0,-0.8922119140625,0.420654296875,0.0423583984375
0.094,309,842,589,309,2.0,34.0,32.0,2.13623046875,-1.15966796875,-0.1831054538488388,-0.8951416015625,0.422607421875,0.040283203125
0.108,309,840,589,309,2.0,34.0,32.0,1.6479490995407104,-1.2817381620407104,-0.4272460639476776,-0.89306640625,0.418212890625,0.041748046875
0.141,309,835,589,309,2.0,34.0,32.0,0.9765624403953552,-1.2817381620407104,-0.6103515625,-0.8873291015625,0.4100341796875,0.046630859375
0.162,310,835,589,309,2.0,34.0,32.0,0.2441406100988388,-1.220703125,-0.7324218153953552,-0.87841796875,0.4013671875,0.057373046875
0.164,309,837,589,309,2.0,34.0,32.0,0.0,-1.15966796875,-0.8544921278953552,-0.870849609375,0.3966064453125,0.0694580078125
0.164,309,837,589,309,2.0,34.0,32.0,0.3662109076976776,-0.9765624403953552,-1.0986328125,-0.867919921875,0.396484375,0.0755615234375
0.164,309,835,589,309,2.0,34.0,32.0,1.03759765625,-0.6103515625,-1.4038084745407104,-0.8709716796875,0.3995361328125,0.072265625
0.164,309,833,588,309,2.0,34.0,32.0,1.4648436307907104,-0.1831054538488388,-1.6479490995407104,-0.880126953125,0.403076171875,0.06005859375
0.180,309,833,588,309,2.0,33.0,37.0,1.5258787870407104,0.0,-1.7089842557907104,-0.891845703125,0.404296875,0.045166015625
0.180,308,833,587,311,2.0,33.0,37.0,1.3427733182907104,-0.1831054538488388,-1.5258787870407104,-0.900146484375,0.4044189453125,0.0369873046875
0.195,312,830,587,309,2.0,33.0,37.0,1.3427733182907104,-0.1831054538488388,-1.5258787870407104,-0.899658203125,0.403076171875,0.0406494140625
0.202,309,833,586,309,2.0,33.0,37.0,1.3427733182907104,-1.4648436307907104,-1.6479490995407104,-0.8914794921875,0.4036865234375,0.05126953125
0.237,309,830,587,309,2.0,33.0,37.0,1.5869139432907104,-2.0751953125,-2.01416015625,-0.87939453125,0.4075927734375,0.0599365234375
0.238,295,830,585,286,2.0,33.0,37.0,1.5869139432907104,-2.0751953125,-2.01416015625,-0.8681640625,0.406982421875,0.0626220703125
0.238,308,830,584,309,2.0,33.0,37.0,1.0986328125,-2.13623046875,-3.173827886581421,-0.86279296875,0.3990478515625,0.0595703125
0.249,297,832,588,309,2.0,33.0,37.0,0.4882812201976776,-1.8310545682907104,-3.540038824081421,-0.8631591796875,0.3875732421875,0.0565185546875
0.249,310,832,587,297,2.0,33.0,37.0,0.4882812201976776,-1.8310545682907104,-3.540038824081421,-0.865234375,0.3826904296875,0.055908203125
0.263,309,842,585,309,2.0,33.0,37.0,0.2441406100988388,-2.25830078125,-4.08935546875,-0.8631591796875,0.391357421875,0.0472412109375
0.269,309,845,585,309,2.0,34.0,38.0,-0.54931640625,-3.356933355331421,-5.0048828125,-0.8453369140625,0.4039306640625,0.0244140625
0.277,309,848,586,311,2.0,34.0,38.0,-0.54931640625,-3.356933355331421,-5.0048828125,-0.80126953125,0.405517578125,0.0001220703125
0.292,310,859,584,310,2.0,34.0,38.0,-8.7890625,-6.530761241912842,-9.033203125,-0.7296142578125,0.3896484375,-0.0062255859375
0.300,310,864,579,310,2.0,34.0,38.0,-16.2353515625,-8.30078125,-13.122557640075684,-0.6234130859375,0.35107421875,0.0042724609375
0.307,310,888,603,310,2.0,34.0,38.0,-16.2353515625,-8.30078125,-13.122557640075684,-0.481689453125,0.270263671875,0.0048828125
0.357,310,989,627,310,2.0,34.0,38.0,-37.65869140625,-10.192870140075684,-27.954099655151367,-0.330810546875,0.1771240234375,-0.0367431640625
0.358,298,1061,668,310,2.0,34.0,38.0,-51.635738372802734,-11.230467796325684,-33.8134765625,-0.255126953125,0.08056640625,-0.1044921875
0.358,309,1215,766,311,2.0,34.0,38.0,-51.635738372802734,-11.230467796325684,-33.8134765625,-0.13916015625,0.0289306640625,-0.176025390625
0.360,311,1411,1021,295,2.0,34.0,38.0,-64.75830078125,-12.451170921325684,-24.536130905151367,0.0211181640625,0.0828857421875,-0.261962890625
0.361,310,1527,1179,311,2.0,34.0,38.0,-64.8193359375,-11.962889671325684,-19.8974609375,-0.005126953125,0.1986083984375,-0.2774658203125
0.367,309,1636,1371,311,5.0,32.0,34.0,-64.8193359375,-11.962889671325684,-19.8974609375,-0.2779541015625,0.4398193359375,-0.129150390625
0.381,310,1775,1666,311,5.0,32.0,34.0,-90.51512908935547,-34.72900390625,-20.996091842651367,-0.7049560546875,0.6707763671875,0.1517333984375
0.389,311,1843,1791,312,5.0,32.0,34.0,-112.42675018310547,-52.978511810302734,-25.451658248901367,-1.142333984375,0.758056640625,0.41845703125
0.397,311,1899,1886,311,5.0,32.0,34.0,-112.42675018310547,-52.978511810302734,-25.451658248901367,-1.55517578125,0.969970703125,0.559814453125
0.410,311,1987,2001,312,5.0,32.0,34.0,-139.83154296875,-58.898921966552734,-30.151365280151367,-1.880615234375,1.159423828125,0.6343994140625
0.441,310,2015,2074,312,5.0,32.0,34.0,-141.11328125,-49.987789154052734,-27.343748092651367,-2.1697998046875,0.9822998046875,0.6719970703125
0.442,312,1996,2039,314,5.0,32.0,34.0,-141.11328125,-49.987789154052734,-27.343748092651367,-2.317138671875,0.3629150390625,0.6383056640625
0.442,311,1860,1773,312,5.0,32.0,34.0,-74.0966796875,-6.103515148162842,-23.254392623901367,-1.960693359375,-0.6103515625,0.58056640625
0.453,311,1860,1769,311,5.0,32.0,34.0,-0.4882812201976776,21.423337936401367,-26.672361373901367,-1.366943359375,-1.1298828125,0.6314697265625
0.457,311,1865,1750,312,5.0,32.0,34.0,-0.4882812201976776,21.423337936401367,-26.672361373901367,-1.1539306640625,-0.453369140625,0.6859130859375
0.470,311,1838,1531,312,7.0,30.0,34.0,110.77880096435547,33.203125,-12.451170921325684,-1.39111328125,0.7122802734375,0.455322265625
0.478,310,1796,1361,312,7.0,30.0,34.0,85.63231658935547,30.761716842651367,5.493163585662842,-1.7099609375,1.2177734375,0.0819091796875
0.489,310,1734,1228,312,7.0,30.0,34.0,85.63231658935547,30.761716842651367,5.493163585662842,-1.824951171875,1.0032958984375,-0.0675048828125
0.510,311,1590,1021,311,7.0,30.0,34.0,35.0341796875,34.36279296875,15.258788108825684,-1.714599609375,0.66064453125,-0.013427734375
0.511,295,1498,916,311,7.0,30.0,34.0,45.959468841552734,23.559568405151367,13.000487327575684,-1.49267578125,0.5440673828125,0.0108642578125
0.517,309,1348,788,311,7.0,30.0,34.0,45.959468841552734,23.559568405151367,13.000487327575684,-1.2386474609375,0.5400390625,-0.0264892578125
0.544,310,1156,726,312,7.0,30.0,34.0,64.75830078125,-1.220703125,12.023924827575684,-0.9598388671875,0.387451171875,-0.009765625
0.545,309,1064,694,311,7.0,30.0,34.0,63.537593841552734,-3.051757574081421,8.30078125,-0.662109375,0.011474609375,0.1234130859375
0.557,310,953,647,296,7.0,30.0,34.0,63.537593841552734,-3.051757574081421,8.30078125,-0.4259033203125,-0.35107421875,0.2769775390625
0.562,309,778,577,311,1.0,31.0,40.0,74.03564453125,19.287109375,-8.544921875,-0.3297119140625,-0.4561767578125,0.3092041015625
0.615,309,692,536,309,1.0,31.0,40.0,86.79198455810547,36.865234375,-15.014647483825684,-0.33935546875,-0.384765625,0.1654052734375
0.671,308,569,504,309,1.0,31.0,40.0,86.79198455810547,36.865234375,-15.014647483825684,-0.38037109375,-0.1561279296875,-0.0159912109375
0.695,309,496,480,310,1.0,31.0,40.0,91.55272674560547,41.320796966552734,-4.638671875,-0.38818359375,0.1920166015625,-0.08740234375
0.699,309,473,480,309,1.0,31.0,40.0,73.91357421875,18.85986328125,9.8876953125,-0.3997802734375,0.45703125,-0.1142578125
0.700,309,451,475,309,1.0,31.0,40.0,73.91357421875,18.85986328125,9.8876953125,-0.4544677734375,0.55517578125,-0.13623046875
0.703,307,465,488,309,1.0,31.0,40.0,32.77587890625,-17.08984375,28.076169967651367,-0.501220703125,0.5443115234375,-0.136474609375
0.706,309,487,494,309,1.0,31.0,40.0,26.184080123901367,-17.822265625,28.930662155151367,-0.5455322265625,0.5164794921875,-0.126220703125
0.715,309,508,497,309,1.0,31.0,40.0,26.184080123901367,-17.822265625,28.930662155151367,-0.6024169921875,0.5198974609375,-0.0953369140625
0.715,309,548,494,310,1.0,31.0,40.0,33.63037109375,-5.126952648162842,19.47021484375,-0.6513671875,0.5274658203125,-0.0108642578125
0.716,311,579,494,309,3.0,34.0,33.0,33.63037109375,-5.126952648162842,19.47021484375,-0.664794921875,0.4669189453125,0.110595703125
0.722,310,596,480,295,3.0,34.0,33.0,29.968259811401367,-4.7607421875,13.488768577575684,-0.664794921875,0.4669189453125,0.110595703125
0.723,309,687,518,309,3.0,34.0,33.0,9.6435546875,-9.46044921875,1.15966796875,-0.6734619140625,0.2940673828125,0.23681640625
0.731,309,718,517,309,3.0,34.0,33.0,9.6435546875,-9.46044921875,1.15966796875,-0.70556640625,0.3251953125,0.2010498046875
0.734,294,755,523,309,3.0,34.0,33.0,2.197265625,-9.521484375,-5.737304210662842,-0.70556640625,0.3251953125,0.2010498046875
0.735,308,871,566,309,3.0,34.0,33.0,-10.559081077575684,-7.568358898162842,-18.4326171875,-0.6839599609375,0.4503173828125,0.0029296875
0.736,309,928,590,309,3.0,34.0,33.0,-20.385740280151367,-7.202147960662842,-22.705076217651367,-0.546875,0.36328125,-0.0972900390625
0.753,309,1024,685,311,3.0,34.0,33.0,-20.385740280151367,-7.202147960662842,-22.705076217651367,-0.3245849609375,0.1851806640625,-0.222412109375
0.762,307,1094,735,309,3.0,34.0,33.0,-33.50830078125,-7.629394054412842,-25.085447311401367,-0.3245849609375,0.1851806640625,-0.222412109375
0.764,310,1369,1011,311,3.0,34.0,33.0,-66.83349609375,-14.831542015075684,-28.869626998901367,0.053466796875,-0.1463623046875,-0.6044921875
0.771,295,1546,1209,311,5.0,31.0,35.0,-84.22850799560547,-25.390623092651367,-31.372068405151367,0.0130615234375,-0.1131591796875,-0.562744140625
0.771,311,1646,1437,311,5.0,31.0,35.0,-84.22850799560547,-25.390623092651367,-31.372068405151367,-0.1815185546875,-0.0821533203125,-0.146728515625
0.782,311,1812,1779,311,5.0,31.0,35.0,-120.91063690185547,-55.236812591552734,-26.611326217651367,-0.47705078125,-0.197998046875,0.4093017578125
0.789,309,1892,1886,313,5.0,31.0,35.0,-124.20653533935547,-59.020992279052734,-11.535643577575684,-0.8355712890625,-0.163818359375,0.8162841796875
0.798,311,1948,2023,312,5.0,31.0,35.0,-124.20653533935547,-59.020992279052734,-11.535643577575684,-1.2314453125,0.46533203125,0.8785400390625
0.811,311,2035,2168,312,5.0,31.0,35.0,-115.90575408935547,-48.828121185302734,24.414060592651367,-1.62646484375,1.30126953125,0.7216796875
0.826,311,2076,2233,312,5.0,31.0,35.0,-125.79344940185547,-40.771480560302734,23.376462936401367,-2.022216796875,1.185791015625,0.584716796875
0.857,311,2106,2275,312,5.0,31.0,35.0,-125.79344940185547,-40.771480560302734,23.376462936401367,-2.4215087890625,0.5789794921875,0.5894775390625
0.858,311,2053,2203,312,5.0,31.0,35.0,-79.58984375,-1.220703125,-7.141112804412842,-2.62158203125,0.558837890625,0.5458984375
0.860,311,2026,2142,312,5.0,31.0,35.0,-36.43798828125,7.141112804412842,-13.366698265075684,-2.278076171875,0.3565673828125,0.343017578125
0.861,311,1985,2158,300,6.0,34.0,33.0,-36.43798828125,7.141112804412842,-13.366698265075684,-1.7281494140625,0.0697021484375,0.3836669921875
0.871,311,1994,2007,312,6.0,34.0,33.0,56.396480560302734,8.36181640625,-19.34814453125,-1.5675048828125,0.468994140625,0.532958984375
0.879,311,1954,1902,312,6.0,34.0,33.0,74.70703125,2.685546636581421,-16.29638671875,-1.700927734375,0.849365234375,0.46875
0.888,310,1899,1812,311,6.0,34.0,33.0,74.70703125,2.685546636581421,-16.29638671875,-1.8131103515625,0.7779541015625,0.3768310546875
0.902,311,1781,1593,312,6.0,34.0,33.0,44.372554779052734,20.935056686401367,-7.141112804412842,-1.7298583984375,0.5377197265625,0.338134765625
0.914,310,1694,1398,312,6.0,34.0,33.0,44.372554779052734,20.935056686401367,-7.141112804412842,-1.5064697265625,0.411376953125,0.2646484375
0.917,311,1607,1188,312,6.0,34.0,33.0,34.3017578125,23.071287155151367,0.4882812201976776,-1.5064697265625,0.411376953125,0.2646484375
0.979,311,1422,963,311,6.0,34.0,33.0,40.0390625,12.512206077575684,14.831542015075684,-1.0838623046875,0.330810546875,0.064453125
0.987,310,1294,846,311,6.0,34.0,33.0,40.0390625,12.512206077575684,14.831542015075684,-0.852294921875,0.2205810546875,0.0667724609375
0.995,309,1185,740,311,6.0,34.0,33.0,52.429195404052734,9.27734375,10.620116233825684,-0.852294921875,0.2205810546875,0.0667724609375
1.005,307,995,639,310,2.0,32.0,34.0,78.4912109375,15.197752952575684,-8.30078125,-0.4161376953125,-0.1492919921875,0.167724609375
1.008,310,900,610,310,2.0,32.0,34.0,78.4912109375,15.197752952575684,-8.30078125,-0.2843017578125,-0.3980712890625,0.1885986328125
1.010,309,788,545,310,2.0,32.0,34.0,87.34130096435547,25.573728561401367,-14.587401390075684,-0.2843017578125,-0.3980712890625,0.1885986328125
1.013,309,616,488,311,2.0,32.0,34.0,97.96141815185547,29.113767623901367,-9.82666015625,-0.1734619140625,-0.2584228515625,0.0225830078125
1.016,309,558,493,309,2.0,32.0,34.0,97.96141815185547,29.113767623901367,-9.82666015625,-0.1468505859375,0.046142578125,0.0076904296875
1.017,307,530,487,295,2.0,32.0,34.0,90.02684783935547,19.287109375,-3.234863042831421,-0.1468505859375,0.046142578125,0.0076904296875
1.017,309,553,472,309,2.0,32.0,34.0,73.42529296875,5.676269054412842,3.601073980331421,-0.175537109375,0.302001953125,0.0238037109375
1.035,309,620,493,311,2.0,32.0,34.0,38.75732421875,-2.990722417831421,15.075682640075684,-0.3526611328125,0.5037841796875,-0.0953369140625
1.081,309,667,504,309,2.0,32.0,34.0,38.75732421875,-2.990722417831421,15.075682640075684,-0.474853515625,0.4908447265625,-0.14453125
1.081,309,708,509,310,2.0,32.0,34.0,22.583005905151367,3.051757574081421,19.10400390625,-0.474853515625,0.4908447265625,-0.14453125
1.082,309,782,525,309,2.0,33.0,38.0,1.4648436307907104,8.11767578125,20.751951217651367,-0.623779296875,0.3297119140625,-0.0936279296875
1.082,309,837,525,309,2.0,33.0,38.0,1.4648436307907104,8.11767578125,20.751951217651367,-0.6605224609375,0.330078125,-0.017822265625
1.083,307,883,532,310,2.0,33.0,38.0,-2.0751953125,1.15966796875,17.76123046875,-0.6605224609375,0.330078125,-0.017822265625
1.113,309,969,596,310,2.0,33.0,38.0,-4.7607421875,-16.357421875,3.112792730331421,-0.7178955078125,0.4788818359375,0.1473388671875
1.115,310,1012,644,309,2.0,33.0,38.0,-4.7607421875,-16.357421875,3.112792730331421,-0.7437744140625,0.453125,0.1097412109375
1.133,310,1064,675,311,2.0,33.0,38.0,-6.652831554412842,-15.686034202575684,-6.896972179412842,-0.7437744140625,0.453125,0.1097412109375
1.171,311,1207,822,311,2.0,33.0,38.0,-13.671874046325684,-3.051757574081421,-20.263669967651367,-0.6741943359375,0.327392578125,-0.142578125
1.180,310,1316,963,311,2.0,33.0,38.0,-13.671874046325684,-3.051757574081421,-20.263669967651367,-0.58935546875,0.271728515625,-0.267578125
1.180,311,1440,1191,297,2.0,33.0,38.0,-25.939939498901367,-3.601073980331421,-25.329587936401367,-0.58935546875,0.271728515625,-0.267578125
1.180,311,1625,1591,311,6.0,31.0,36.0,-90.08788299560547,-28.381345748901367,-42.175289154052734,-0.160888671875,-0.00537109375,-0.3165283203125
1.182,310,1743,1808,311,6.0,31.0,36.0,-90.08788299560547,-28.381345748901367,-42.175289154052734,0.0572509765625,-0.1422119140625,-0.1646728515625
1.184,311,1846,1953,312,6.0,31.0,36.0,-121.94823455810547,-41.076656341552734,-46.142574310302734,0.0572509765625,-0.1422119140625,-0.1646728515625
1.184,311,1957,2230,311,6.0,31.0,36.0,-116.33300018310547,-42.053218841552734,-25.451658248901367,-0.3787841796875,-0.275146484375,0.6141357421875
1.191,311,2014,2334,314,6.0,31.0,36.0,-116.33300018310547,-42.053218841552734,-25.451658248901367,-0.89111328125,-0.248291015625,0.9058837890625
1.200,310,2068,2364,314,6.0,31.0,36.0,-99.30419158935547,-38.330078125,-8.97216796875,-0.89111328125,-0.248291015625,0.9058837890625
1.207,311,2113,2388,313,6.0,31.0,36.0,-91.49169158935547,-36.9873046875,7.934569835662842,-1.306884765625,-0.050048828125,0.9320068359375
1.220,311,2183,2430,313,6.0,31.0,36.0,-81.60399627685547,-28.564451217651367,24.414060592651367,-2.3404541015625,1.2906494140625,0.5628662109375
1.228,309,2213,2440,312,6.0,31.0,36.0,-64.208984375,-14.465331077575684,33.69140625,-2.3404541015625,1.2906494140625,0.5628662109375
1.284,311,2155,2364,312,6.0,31.0,36.0,-56.457515716552734,-1.2817381620407104,28.198240280151367,-2.61767578125,1.3062744140625,0.4901123046875
1.285,295,2089,2293,312,6.0,30.0,34.0,-52.734371185302734,11.169432640075684,15.930174827575684,-1.973388671875,-0.150634765625,0.22607421875
1.285,311,2068,2263,314,6.0,30.0,34.0,-24.841306686401367,19.10400390625,7.263183116912842,-1.973388671875,-0.150634765625,0.22607421875
1.286,311,2045,2180,312,6.0,30.0,34.0,34.912109375,14.099120140075684,3.601073980331421,-1.5062255859375,-0.101806640625,0.4100341796875
1.287,311,1981,2008,312,6.0,30.0,34.0,83.98436737060547,-0.1831054538488388,4.94384765625,-1.8045654296875,0.9072265625,0.3248291015625
1.289,311,1918,1900,312,6.0,30.0,34.0,84.22850799560547,-2.868652105331421,7.507323741912842,-1.8045654296875,0.9072265625,0.3248291015625
1.296,311,1861,1773,312,6.0,30.0,34.0,57.128902435302734,8.97216796875,7.629394054412842,-1.863525390625,0.7437744140625,0.3397216796875
1.310,311,1723,1457,312,6.0,30.0,34.0,33.99658203125,20.935056686401367,6.286620616912842,-1.4921875,0.4683837890625,0.3013916015625
1.319,311,1613,1248,312,6.0,30.0,34.0,28.015134811401367,25.695798873901367,6.530761241912842,-1.4921875,0.4683837890625,0.3013916015625
1.333,311,1499,1071,312,6.0,30.0,34.0,37.2314453125,21.362302780151367,10.070799827575684,-1.316162109375,0.57080078125,0.1630859375
1.360,311,1300,837,311,6.0,30.0,34.0,48.034664154052734,12.023924827575684,13.244627952575684,-0.8074951171875,0.372314453125,0.0550537109375
1.364,310,1178,734,310,4.0,32.0,34.0,54.504390716552734,6.591796398162842,11.352538108825684,-0.8074951171875,0.372314453125,0.0550537109375
1.366,309,1073,657,311,4.0,32.0,34.0,61.584468841552734,8.60595703125,4.39453125,-0.495849609375,0.0433349609375,0.1519775390625
1.376,310,898,584,311,4.0,32.0,34.0,74.462890625,16.845703125,-5.065917491912842,-0.07177734375,-0.6287841796875,0.3590087890625
1.392,310,814,531,310,4.0,32.0,34.0,93.68895721435547,27.954099655151367,-11.840819358825684,-0.07177734375,-0.6287841796875,0.3590087890625
1.392,309,708,483,311,4.0,32.0,34.0,110.65673065185547,36.07177734375,-11.352538108825684,-0.08203125,-0.5511474609375,0.2470703125
1.401,309,599,481,311,4.0,32.0,34.0,113.76952362060547,37.41455078125,-4.8828125,-0.169677734375,0.0386962890625,-0.032470703125
1.408,312,585,497,309,4.0,32.0,34.0,99.91454315185547,31.005857467651367,4.94384765625,-0.169677734375,0.0386962890625,-0.032470703125
1.418,310,603,519,309,4.0,32.0,34.0,76.2939453125,20.263669967651367,14.648436546325684,-0.202880859375,0.27001953125,-0.096435546875
1.430,310,668,525,309,4.0,32.0,34.0,53.283687591552734,12.023924827575684,21.728513717651367,-0.4305419921875,0.50146484375,-0.250244140625
1.438,310,698,531,308,4.0,32.0,34.0,35.15625,7.629394054412842,26.916501998901367,-0.4305419921875,0.50146484375,-0.250244140625
1.464,309,734,536,310,1.0,30.0,33.0,21.301267623901367,3.906249761581421,30.090330123901367,-0.543212890625,0.5693359375,-0.2437744140625
1.465,309,780,555,309,1.0,30.0,33.0,11.474608421325684,0.1220703050494194,29.357908248901367,-0.6427001953125,0.500732421875,-0.0728759765625
1.479,310,823,546,311,1.0,30.0,33.0,5.920409679412842,-4.21142578125,25.024412155151367,-0.6427001953125,0.500732421875,-0.0728759765625
1.479,311,883,575,311,1.0,30.0,33.0,4.33349609375,-9.6435546875,17.4560546875,-0.6661376953125,0.47607421875,0.01318359375
1.490,309,966,627,311,1.0,30.0,33.0,4.0283203125,-14.892577171325684,7.629394054412842,-0.654541015625,0.4154052734375,0.1422119140625
1.502,311,1025,652,310,1.0,30.0,33.0,2.50244140625,-16.54052734375,-2.746581792831421,-0.654541015625,0.4154052734375,0.1422119140625
1.506,309,1085,695,311,1.0,30.0,33.0,-0.6713866591453552,-12.084959983825684,-12.573241233825684,-0.6531982421875,0.30029296875,0.02783203125
1.521,311,1201,802,311,1.0,30.0,33.0,-6.469726085662842,-5.0048828125,-20.690916061401367,-0.5791015625,0.2279052734375,-0.364501953125
1.528,311,1306,982,311,1.0,30.0,33.0,-18.310546875,-2.563476324081421,-25.390623092651367,-0.5791015625,0.2279052734375,-0.364501953125
1.540,311,1444,1202,312,1.0,30.0,33.0,-38.63525390625,-8.1787109375,-27.648923873901367,-0.445556640625,0.2958984375,-0.3709716796875
1.617,311,1632,1541,311,5.0,28.0,32.0,-65.00244140625,-19.22607421875,-31.616209030151367,-0.2144775390625,0.1583251953125,-0.1099853515625
1.618,311,1739,1834,312,5.0,28.0,32.0,-95.64208221435547,-31.616209030151367,-37.353515625,-0.2144775390625,0.1583251953125,-0.1099853515625
1.619,294,1845,2047,312,5.0,28.0,32.0,-120.78856658935547,-43.273921966552734,-38.4521484375,-0.2103271484375,0.0006103515625,0.1383056640625
1.619,311,1971,2290,312,5.0,28.0,32.0,-125.73241424560547,-51.879878997802734,-35.400390625,-0.7337646484375,-0.23583984375,0.623779296875
1.619,311,2023,2372,312,5.0,28.0,32.0,-111.51122283935547,-52.307125091552734,-34.3017578125,-0.7337646484375,-0.23583984375,0.623779296875
1.621,311,2074,2407,314,5.0,28.0,32.0,-91.12548065185547,-45.104976654052734,-31.005857467651367,-1.0948486328125,-0.1162109375,0.8131103515625
1.622,311,2161,2469,312,5.0,28.0,32.0,-73.91357421875,-34.85107421875,-17.08984375,-2.051513671875,0.9879150390625,0.7476806640625
1.622,297,2210,2490,311,5.0,28.0,32.0,-57.800289154052734,-22.155759811401367,1.6479490995407104,-2.051513671875,0.9879150390625,0.7476806640625
1.634,311,2215,2469,313,5.0,28.0,32.0,-46.752925872802734,-9.21630859375,9.46044921875,-2.4932861328125,0.9537353515625,0.662841796875
1.644,311,2096,2284,312,8.0,29.0,39.0,-37.65869140625,3.967284917831421,5.493163585662842,-2.1395263671875,-0.0531005859375,0.239990234375
1.671,311,2096,2287,314,8.0,29.0,39.0,-11.657713890075684,16.4794921875,1.6479490995407104,-2.1395263671875,-0.0531005859375,0.239990234375
1.672,311,2078,2233,313,8.0,29.0,39.0,36.1328125,21.484373092651367,3.234863042831421,-1.5582275390625,-0.008544921875,0.3035888671875
1.672,311,2024,2113,314,8.0,29.0,39.0,75.13427734375,15.075682640075684,8.60595703125,-1.7938232421875,1.0748291015625,0.1275634765625
1.687,311,1980,2072,311,8.0,29.0,39.0,70.49560546875,9.27734375,11.413573265075684,-1.7938232421875,1.0748291015625,0.1275634765625
1.688,311,1920,1996,312,8.0,29.0,39.0,41.198726654052734,12.573241233825684,7.507323741912842,-1.928466796875,0.776611328125,0.1505126953125
1.711,309,1794,1778,312,8.0,29.0,39.0,22.827146530151367,15.380858421325684,2.807616949081421,-1.5323486328125,0.3226318359375,0.3255615234375
1.715,311,1697,1619,312,8.0,29.0,39.0,22.766111373901367,13.305663108825684,3.967284917831421,-1.5323486328125,0.3226318359375,0.3255615234375
1.718,311,1588,1415,312,8.0,29.0,39.0,33.75244140625,9.1552734375,10.803221702575684,-1.31591796875,0.4766845703125,0.27783203125
1.733,311,1395,1078,312,8.0,29.0,39.0,41.381832122802734,6.774901866912842,16.41845703125,-0.911376953125,0.4366455078125,0.15869140625
1.743,311,1267,955,312,5.0,28.0,37.0,39.97802734375,9.27734375,15.197752952575684,-0.911376953125,0.4366455078125,0.15869140625
1.748,311,1155,835,311,5.0,28.0,37.0,37.04833984375,14.892577171325684,8.9111328125,-0.6529541015625,0.1669921875,0.1414794921875
1.771,310,1009,671,311,5.0,28.0,37.0,39.48974609375,20.385740280151367,-0.3662109076976776,-0.20654296875,-0.5235595703125,0.1395263671875
1.771,311,922,629,311,5.0,28.0,37.0,49.316402435302734,25.085447311401367,-9.3994140625,-0.20654296875,-0.5235595703125,0.1395263671875
1.782,310,809,582,311,5.0,28.0,37.0,64.697265625,28.259275436401367,-13.244627952575684,-0.1016845703125,-0.569580078125,0.0936279296875
1.793,309,650,519,310,5.0,28.0,37.0,78.9794921875,28.137205123901367,-11.352538108825684,-0.020263671875,-0.0897216796875,-0.000244140625
1.799,309,645,518,309,5.0,28.0,37.0,81.42089080810547,22.460935592651367,-3.723144292831421,-0.020263671875,-0.0897216796875,-0.000244140625
1.811,309,684,527,309,5.0,28.0,37.0,69.39697265625,12.145995140075684,8.60595703125,-0.046142578125,0.1754150390625,0.004150390625
1.822,309,766,533,309,5.0,28.0,37.0,51.574703216552734,3.845214605331421,20.935056686401367,-0.34423828125,0.5069580078125,-0.0439453125
1.833,314,808,542,311,5.0,28.0,37.0,34.3017578125,2.197265625,30.700681686401367,-0.34423828125,0.5069580078125,-0.0439453125
1.841,309,847,545,311,2.0,33.0,34.0,19.775390625,5.249022960662842,36.865234375,-0.5245361328125,0.5576171875,-0.0701904296875
1.899,310,928,557,310,2.0,33.0,34.0,9.33837890625,7.995604991912842,39.0625,-0.6754150390625,0.4620361328125,-0.0155029296875
1.900,309,964,574,310,2.0,33.0,34.0,4.08935546875,6.103515148162842,37.29248046875,-0.6754150390625,0.4620361328125,-0.0155029296875
1.904,311,1017,610,311,2.0,33.0,34.0,5.249022960662842,-1.03759765625,30.761716842651367,-0.6824951171875,0.4495849609375,0.050537109375
1.905,310,1104,673,311,2.0,33.0,34.0,10.803221702575684,-10.437010765075684,19.6533203125,-0.662109375,0.4644775390625,0.10302734375
1.906,308,1170,718,309,2.0,33.0,34.0,15.563963890075684,-16.2353515625,6.469726085662842,-0.606689453125,0.467041015625,0.070068359375
1.906,309,1236,833,294,2.0,33.0,34.0,14.709471702575684,-13.732909202575684,-6.225585460662842,-0.518798828125,0.419921875,-0.1011962890625
1.922,309,1395,1043,310,2.0,33.0,34.0,3.967284917831421,-5.737304210662842,-18.5546875,-0.38623046875,0.2882080078125,-0.330322265625
1.923,310,1506,1209,311,2.0,33.0,34.0,-16.845703125,-1.15966796875,-28.320310592651367,-0.2274169921875,0.138916015625,-0.4866943359375
1.939,311,1632,1362,311,2.0,33.0,34.0,-41.015621185302734,-5.432128429412842,-31.799314498901367,-0.127197265625,0.1251220703125,-0.4718017578125
1.943,309,1837,1823,311,5.0,30.0,36.0,-61.828609466552734,-19.1650390625,-33.14208984375,-0.148193359375,0.242431640625,-0.2489013671875
1.953,311,1934,2093,312,5.0,30.0,36.0,-83.25194549560547,-38.57421875,-39.4287109375,-0.2877197265625,0.2952880859375,0.0970458984375
1.978,311,2021,2247,312,5.0,30.0,36.0,-107.91014862060547,-55.541988372802734,-47.729488372802734,-0.509033203125,0.2021484375,0.410888671875
1.980,311,2089,2395,312,5.0,30.0,36.0,-126.09862518310547,-61.401363372802734,-51.330562591552734,-0.8321533203125,0.066162109375,0.6112060546875
1.981,310,2195,2450,312,5.0,30.0,36.0,-133.72802734375,-52.368160247802734,-46.264644622802734,-1.2669677734375,0.075439453125,0.71630859375
1.990,311,2233,2505,314,5.0,30.0,36.0,-134.82666015625,-34.24072265625,-31.738279342651367,-1.78271484375,0.337890625,0.6787109375
2.001,311,2301,2586,313,5.0,30.0,36.0,-119.81200408935547,-17.08984375,-15.197752952575684,-2.2769775390625,0.3568115234375,0.6395263671875
2.013,310,2269,2514,313,5.0,30.0,36.0,-80.99364471435547,-5.493163585662842,-5.981444835662842,-2.5576171875,0.1925048828125,0.713623046875
2.017,310,2132,2326,314,5.0,30.0,36.0,-28.564451217651367,-0.4272460639476776,-1.220703125,-2.52392578125,0.2796630859375,0.631591796875
2.031,310,2122,2299,312,4.0,30.0,33.0,20.751951217651367,4.7607421875,3.723144292831421,-1.991943359375,0.001708984375,0.4967041015625
2.041,311,2093,2225,312,4.0,30.0,33.0,68.4814453125,13.977049827575684,9.09423828125,-1.4735107421875,-0.0169677734375,0.582275390625
2.048,311,2072,2119,313,4.0,30.0,33.0,101.19628143310547,18.5546875,19.1650390625,-1.6014404296875,0.711181640625,0.4898681640625
2.094,311,1981,2024,312,4.0,30.0,33.0,89.17235565185547,22.949216842651367,28.076169967651367,-2.0299072265625,1.17431640625,0.07080078125
2.098,310,1860,1941,312,4.0,30.0,33.0,53.588863372802734,28.869626998901367,26.855466842651367,-2.2484130859375,1.0968017578125,-0.170166015625
2.098,297,1811,1803,312,4.0,30.0,33.0,31.433103561401367,23.132322311401367,18.5546875,-2.0379638671875,0.73828125,-0.0693359375
2.102,311,1627,1384,300,4.0,30.0,33.0,32.2265625,7.629394054412842,13.488768577575684,-1.58642578125,0.490478515625,0.139404296875
2.102,311,1503,1141,312,4.0,30.0,33.0,47.851558685302734,-3.723144292831421,15.258788108825684,-1.1614990234375,0.388671875,0.277587890625
2.108,311,1371,943,311,4.0,30.0,33.0,62.561031341552734,-2.13623046875,18.9208984375,-0.8101806640625,0.2587890625,0.339599609375
2.122,310,1191,713,311,4.0,30.0,33.0,68.05419921875,9.521484375,21.118162155151367,-0.513671875,0.07861328125,0.338623046875
2.130,311,1115,656,311,4.0,30.0,39.0,67.81005859375,22.460935592651367,19.287109375,-0.2581787109375,-0.24267578125,0.2723388671875
2.138,309,1078,645,311,4.0,30.0,39.0,69.88525390625,31.616209030151367,11.901854515075684,-0.0518798828125,-0.5623779296875,0.1632080078125
2.151,309,962,589,309,4.0,30.0,39.0,78.857421875,35.82763671875,3.540038824081421,0.00048828125,-0.6390380859375,0.0594482421875
2.188,309,906,552,310,4.0,30.0,39.0,95.39794158935547,35.70556640625,0.1831054538488388,-0.06005859375,-0.4573974609375,-0.026123046875
2.193,309,882,557,296,4.0,30.0,39.0,108.82567596435547,34.7900390625,6.591796398162842,-0.0753173828125,-0.117431640625,-0.091064453125
2.193,309,923,585,309,4.0,30.0,39.0,99.54833221435547,35.2783203125,21.606443405151367,-0.0738525390625,0.1812744140625,-0.0968017578125
2.194,295,935,599,295,4.0,30.0,39.0,71.59423828125,35.7666015625,38.14697265625,-0.138916015625,0.3587646484375,-0.0003662109375
2.199,309,992,605,310,4.0,30.0,39.0,47.546382904052734,33.99658203125,49.438472747802734,-0.3001708984375,0.5174560546875,0.102294921875
2.207,310,1017,609,309,4.0,30.0,39.0,34.5458984375,29.418943405151367,49.926753997802734,-0.477294921875,0.6671142578125,0.0692138671875
2.221,310,1037,600,309,4.0,30.0,39.0,22.399900436401367,19.59228515625,37.78076171875,-0.66162109375,0.7528076171875,0.0068359375
2.292,310,1070,633,309,1.0,31.0,36.0,3.051757574081421,-8.72802734375,2.746581792831421,-0.906005859375,0.7298583984375,0.024169921875
2.300,309,1100,657,309,1.0,31.0,36.0,12.268065452575684,-15.380858421325684,-10.986327171325684,-0.8623046875,0.67236328125,-0.00537109375
2.301,309,1117,657,310,1.0,31.0,36.0,21.850584030151367,-19.10400390625,-22.827146530151367,-0.7757568359375,0.4830322265625,0.01220703125
2.303,308,1147,692,310,1.0,31.0,36.0,27.893064498901367,-21.179197311401367,-30.761716842651367,-0.63134765625,0.333740234375,-0.0093994140625
2.308,311,1206,756,310,1.0,31.0,36.0,24.963376998901367,-22.949216842651367,-38.57421875,-0.5743408203125,0.2647705078125,-0.18408203125
2.320,309,1262,819,311,1.0,31.0,36.0,-6.469726085662842,-28.137205123901367,-47.668453216552734,-0.69775390625,0.1507568359375,-0.3992919921875
2.321,309,1318,907,311,1.0,31.0,36.0,-67.138671875,-35.82763671875,-48.583980560302734,-0.77978515625,0.016845703125,-0.4610595703125
2.322,310,1452,1131,311,1.0,31.0,36.0,-127.44139862060547,-38.39111328125,-37.65869140625,-0.66162109375,-0.05224609375,-0.38818359375
2.332,310,1553,1266,311,1.0,31.0,36.0,-164.24559020996094,-31.494138717651367,-22.583005905151367,-0.4312744140625,-0.0594482421875,-0.371337890625
2.332,311,1666,1473,312,5.0,32.0,35.0,-178.28367614746094,-20.01953125,-10.742186546325684,-0.319091796875,0.053955078125,-0.3739013671875
2.343,311,1843,1994,312,5.0,32.0,35.0,-180.35887145996094,-15.808104515075684,-4.33349609375,-0.3861083984375,0.2442626953125,-0.147216796875
2.351,312,1894,2206,312,5.0,32.0,35.0,-185.79100036621094,-25.268552780151367,-2.197265625,-0.38427734375,0.215576171875,0.2469482421875
2.357,311,1955,2324,312,5.0,32.0,35.0,-196.04490661621094,-37.841796875,-2.868652105331421,-0.2718505859375,-0.0301513671875,0.601806640625
2.387,311,2061,2417,312,5.0,32.0,35.0,-187.13377380371094,-42.480464935302734,-5.126952648162842,-0.288330078125,-0.09326171875,0.8817138671875
2.387,311,2130,2461,312,5.0,32.0,35.0,-150.81787109375,-40.0390625,-6.286620616912842,-0.6575927734375,0.2900390625,1.0260009765625
2.388,311,2178,2492,312,5.0,32.0,35.0,-104.24803924560547,-33.3251953125,-4.82177734375,-1.40966796875,0.8953857421875,0.96044921875
2.406,312,2269,2551,313,5.0,32.0,35.0,-69.03076171875,-22.155759811401367,-5.065917491912842,-2.1854248046875,1.07958984375,0.8148193359375
2.409,311,2277,2507,313,5.0,32.0,35.0,-57.434078216552734,-6.103515148162842,-7.324218273162842,-2.6767578125,0.59912109375,0.623291015625
2.417,311,2186,2367,313,5.0,32.0,35.0,-46.874996185302734,12.084959983825684,-6.591796398162842,-2.7640380859375,-0.0224609375,0.3048095703125
2.431,311,2147,2303,312,7.0,29.0,37.0,-11.291502952575684,23.925779342651367,-3.173827886581421,-2.2376708984375,-0.5543212890625,0.12646484375
2.439,310,2129,2231,313,7.0,29.0,37.0,47.424312591552734,22.399900436401367,2.25830078125,-1.6177978515625,-0.37060546875,0.2728271484375
2.449,309,2107,2117,312,7.0,29.0,37.0,96.00829315185547,9.3994140625,12.512206077575684,-1.523681640625,0.54296875,0.3990478515625
2.460,311,2028,1875,312,7.0,29.0,37.0,99.73143768310547,2.44140625,24.047849655151367,-1.7076416015625,1.018798828125,0.404296875
2.520,311,1974,1743,312,7.0,29.0,37.0,77.20947265625,10.131834983825684,30.029294967651367,-1.8082275390625,0.871826171875,0.4415283203125
2.521,293,1894,1535,312,7.0,29.0,37.0,64.63623046875,18.61572265625,31.433103561401367,-1.7109375,0.56884765625,0.422607421875
2.522,311,1730,1239,297,7.0,29.0,37.0,70.00732421875,18.6767578125,32.470703125,-1.492919921875,0.482177734375,0.3150634765625
2.522,310,1620,1098,312,7.0,29.0,37.0,79.833984375,13.549803733825684,34.912109375,-1.271728515625,0.611328125,0.1517333984375
2.522,310,1506,982,311,7.0,29.0,37.0,78.0029296875,9.8876953125,34.11865234375,-1.050537109375,0.6856689453125,-0.0107421875
2.522,309,1315,799,311,4.0,32.0,31.0,62.133785247802734,10.803221702575684,26.184080123901367,-0.7913818359375,0.5592041015625,-0.0970458984375
2.529,310,1206,754,311,4.0,32.0,31.0,42.419429779052734,14.770506858825684,12.573241233825684,-0.525390625,0.19873046875,-0.0853271484375
2.537,307,1117,683,311,4.0,32.0,31.0,32.28759765625,19.6533203125,-3.173827886581421,-0.2828369140625,-0.3397216796875,0.0186767578125
2.556,309,999,636,311,4.0,32.0,31.0,42.602535247802734,23.437498092651367,-13.610838890075684,-0.153076171875,-0.69921875,0.1282958984375
2.559,309,875,582,309,4.0,32.0,31.0,70.068359375,22.766111373901367,-13.183592796325684,-0.1513671875,-0.6541748046875,0.1353759765625
2.567,310,761,563,309,4.0,32.0,31.0,93.74999237060547,16.78466796875,-5.615233898162842,-0.1351318359375,-0.3682861328125,0.061767578125
2.592,309,739,566,311,4.0,32.0,31.0,95.52001190185547,8.97216796875,5.493163585662842,-0.0823974609375,-0.041259765625,0.019287109375
2.592,309,766,591,309,4.0,32.0,31.0,77.81982421875,2.624511480331421,18.6767578125,-0.1170654296875,0.2728271484375,0.0328369140625
2.602,309,809,597,311,4.0,32.0,31.0,53.100582122802734,0.0,30.761716842651367,-0.2548828125,0.5565185546875,0.03955078125
2.610,310,869,601,309,4.0,32.0,31.0,28.259275436401367,1.3427733182907104,37.04833984375,-0.3944091796875,0.699951171875,-0.0009765625
2.619,309,909,604,309,2.0,31.0,30.0,7.812499523162842,4.33349609375,35.58349609375,-0.4852294921875,0.66845703125,-0.052978515625
2.629,309,939,612,309,2.0,31.0,30.0,7.812499523162842,4.33349609375,35.58349609375,-0.5380859375,0.543701171875,-0.037353515625
2.642,309,1017,633,311,2.0,31.0,30.0,-4.45556640625,0.9765624403953552,22.216794967651367,-0.57373046875,0.4298095703125,0.0330810546875
2.650,309,1059,657,311,2.0,31.0,30.0,1.8310545682907104,-5.493163585662842,13.366698265075684,-0.6080322265625,0.4051513671875,0.1004638671875
2.664,311,1104,693,309,2.0,31.0,30.0,1.8310545682907104,-5.493163585662842,13.366698265075684,-0.645751953125,0.432373046875,0.120849609375
2.692,309,1216,751,311,2.0,31.0,30.0,12.329100608825684,-14.892577171325684,-5.249022960662842,-0.69287109375,0.439208984375,0.0380859375
2.693,310,1285,810,311,2.0,31.0,30.0,5.798339366912842,-15.197752952575684,-14.587401390075684,-0.734375,0.4287109375,-0.1251220703125
2.694,296,1343,922,311,2.0,31.0,30.0,5.798339366912842,-15.197752952575684,-14.587401390075684,-0.7418212890625,0.3990478515625,-0.2830810546875
2.708,310,1456,1078,312,2.0,31.0,30.0,-30.212400436401367,-16.90673828125,-28.991697311401367,-0.68505859375,0.333251953125,-0.3619384765625
2.709,310,1561,1209,311,2.0,31.0,30.0,-48.339839935302734,-17.88330078125,-31.738279342651367,-0.5157470703125,0.2255859375,-0.375
2.717,311,1682,1348,311,5.0,30.0,35.0,-48.339839935302734,-17.88330078125,-31.738279342651367,-0.335693359375,0.197998046875,-0.34326171875
2.731,311,1877,1617,312,5.0,30.0,35.0,-70.73974609375,-22.277830123901367,-39.12353515625,-0.23828125,0.254150390625,-0.186279296875
2.741,312,1971,1837,314,5.0,30.0,35.0,-86.36473846435547,-33.63037109375,-48.828121185302734,-0.1636962890625,0.216796875,0.155029296875
2.754,311,2052,2087,312,5.0,30.0,35.0,-86.36473846435547,-33.63037109375,-48.828121185302734,-0.2110595703125,0.1561279296875,0.5867919921875
2.771,311,2155,2337,312,5.0,30.0,35.0,-112.73192596435547,-57.189937591552734,-47.363277435302734,-0.5714111328125,0.2481689453125,0.904541015625
2.771,313,2210,2375,312,5.0,30.0,35.0,-113.34227752685547,-52.429195404052734,-35.5224609375,-1.1260986328125,0.24951171875,1.0223388671875
2.799,311,2278,2432,314,5.0,30.0,35.0,-113.34227752685547,-52.429195404052734,-35.5224609375,-1.6845703125,0.12060546875,0.8739013671875
2.799,311,2349,2527,313,5.0,30.0,35.0,-69.64111328125,-2.13623046875,-14.831542015075684,-2.2286376953125,-0.0413818359375,0.740478515625
2.807,296,2321,2445,311,5.0,30.0,35.0,-26.428220748901367,18.61572265625,-6.469726085662842,-2.708984375,0.3526611328125,0.61181640625
2.808,311,2209,2174,312,5.0,30.0,35.0,0.3662109076976776,23.620603561401367,-0.4272460639476776,-2.6732177734375,0.781494140625,0.1968994140625
2.822,311,2210,2225,311,7.0,30.0,35.0,13.183592796325684,25.268552780151367,-1.3427733182907104,-2.013671875,0.3292236328125,0.06787109375
2.830,311,2195,2151,312,7.0,30.0,35.0,38.9404296875,22.644041061401367,-3.051757574081421,-1.5699462890625,0.2808837890625,0.2620849609375
2.838,311,2160,2024,312,7.0,30.0,35.0,57.067867279052734,11.047362327575684,2.685546636581421,-1.7008056640625,0.770751953125,0.1810302734375
2.854,311,2078,1894,313,7.0,30.0,35.0,45.471187591552734,4.08935546875,9.46044921875,-1.939208984375,0.85888671875,0.02880859375
2.860,311,2012,1757,313,7.0,30.0,35.0,28.564451217651367,0.9155272841453552,11.657713890075684,-1.880615234375,0.614013671875,0.1676025390625
2.901,311,1954,1632,312,7.0,30.0,35.0,28.564451217651367,0.9155272841453552,11.657713890075684,-1.53515625,0.3685302734375,0.4228515625
2.903,311,1817,1386,295,7.0,30.0,35.0,31.249998092651367,-7.202147960662842,13.854979515075684,-1.190673828125,0.38037109375,0.5303955078125
2.903,311,1712,1249,301,7.0,30.0,35.0,40.710445404052734,-1.220703125,15.808104515075684,-0.995361328125,0.52783203125,0.4495849609375
2.903,311,1593,1160,311,7.0,30.0,35.0,40.710445404052734,-1.220703125,15.808104515075684,-0.8541259765625,0.4862060546875,0.313720703125
2.914,311,1369,923,294,2.0,32.0,39.0,32.470703125,18.798828125,10.681151390075684,-0.6986083984375,0.2540283203125,0.205078125
2.920,311,1302,843,311,2.0,32.0,39.0,27.893064498901367,24.353025436401367,8.30078125,-0.56298828125,-0.05908203125,0.12890625
2.928,310,1209,771,311,2.0,32.0,39.0,27.893064498901367,24.353025436401367,8.30078125,-0.456787109375,-0.3612060546875,0.0836181640625
2.941,310,1086,683,310,2.0,32.0,39.0,44.677730560302734,22.705076217651367,5.676269054412842,-0.3616943359375,-0.5177001953125,0.0225830078125
2.950,310,1018,643,310,2.0,32.0,39.0,59.143062591552734,21.606443405151367,8.4228515625,-0.312744140625,-0.4478759765625,-0.0404052734375
2.958,309,935,607,311,2.0,32.0,39.0,59.143062591552734,21.606443405151367,8.4228515625,-0.302734375,-0.259521484375,-0.065185546875
2.971,311,793,555,310,2.0,32.0,39.0,71.1669921875,14.648436546325684,14.221190452575684,-0.244873046875,-0.0360107421875,-0.0513916015625
3.004,309,793,577,311,2.0,32.0,39.0,63.781734466552734,8.23974609375,17.63916015625,-0.27490234375,0.4638671875,0.0147705078125
3.004,310,855,591,309,2.0,32.0,39.0,33.50830078125,3.662109136581421,32.28759765625,-0.40087890625,0.583984375,0.037109375
3.011,309,878,593,309,2.0,30.0,40.0,16.7236328125,4.08935546875,35.2783203125,-0.508056640625,0.55908203125,0.03759765625
3.018,309,899,603,309,2.0,30.0,40.0,16.7236328125,4.08935546875,35.2783203125,-0.566650390625,0.47900390625,0.016845703125
3.031,310,972,636,310,2.0,30.0,40.0,2.0751953125,0.6103515625,27.954099655151367,-0.586181640625,0.4483642578125,0.022705078125
3.040,310,1009,652,311,2.0,30.0,40.0,5.920409679412842,-5.249022960662842,20.446775436401367,-0.601318359375,0.486328125,0.0543212890625
3.048,311,1043,673,311,2.0,30.0,40.0,5.920409679412842,-5.249022960662842,20.446775436401367,-0.6097412109375,0.5428466796875,0.0767822265625
3.062,311,1117,738,310,2.0,30.0,40.0,8.4228515625,-13.000487327575684,0.2441406100988388,-0.6104736328125,0.5439453125,0.0726318359375
3.070,310,1186,815,311,2.0,30.0,40.0,-1.4648436307907104,-10.803221702575684,-7.995604991912842,-0.6209716796875,0.4388427734375,0.00341796875
3.079,309,1262,968,310,2.0,30.0,40.0,-1.4648436307907104,-10.803221702575684,-7.995604991912842,-0.640625,0.2650146484375,-0.1346435546875
3.108,311,1386,1104,311,2.0,30.0,40.0,-28.686521530151367,-5.798339366912842,-21.850584030151367,-0.638916015625,0.123046875,-0.2799072265625
3.110,310,1428,1179,309,2.0,30.0,40.0,-35.33935546875,-10.375975608825684,-25.817869186401367,-0.5787353515625,0.0875244140625,-0.367919921875
3.110,309,1565,1353,312,1.0,30.0,37.0,-35.33935546875,-10.375975608825684,-25.817869186401367,-0.450439453125,0.1881103515625,-0.398193359375
3.122,311,1778,1620,312,1.0,30.0,37.0,-43.151851654052734,-26.306150436401367,-29.052732467651367,-0.3284912109375,0.3980712890625,-0.35302734375
3.130,311,1865,1822,312,1.0,30.0,37.0,-66.10107421875,-36.80419921875,-35.94970703125,-0.244384765625,0.497802734375,-0.15185546875
3.138,311,1970,2028,312,1.0,30.0,37.0,-66.10107421875,-36.80419921875,-35.94970703125,-0.21142578125,0.320068359375,0.2431640625
3.151,311,2105,2284,313,1.0,30.0,37.0,-128.60107421875,-54.687496185302734,-49.194332122802734,-0.36669921875,0.0426025390625,0.763916015625
3.160,311,2168,2339,314,1.0,30.0,37.0,-125.73241424560547,-52.612300872802734,-47.973628997802734,-0.76611328125,-0.0826416015625,1.1812744140625
3.169,311,2235,2375,313,1.0,30.0,37.0,-125.73241424560547,-52.612300872802734,-47.973628997802734,-1.351318359375,0.0548095703125,1.1925048828125
3.217,311,2303,2471,312,1.0,30.0,37.0,-60.119625091552734,-22.521970748901367,-24.841306686401367,-1.958984375,0.1591796875,0.938720703125
3.217,311,2333,2518,314,1.0,30.0,37.0,-22.216794967651367,-2.807616949081421,-10.925292015075684,-2.3265380859375,0.1600341796875,0.6641845703125
3.217,311,2337,2505,312,1.0,30.0,37.0,-22.216794967651367,-2.807616949081421,-10.925292015075684,-2.4691162109375,0.48583984375,0.2879638671875
3.217,311,2166,2291,311,6.0,26.0,32.0,2.807616949081421,16.29638671875,13.977049827575684,-2.2718505859375,0.591796875,-0.027587890625
3.222,312,2204,2284,314,6.0,26.0,32.0,5.493163585662842,16.41845703125,18.6767578125,-1.6495361328125,0.138671875,0.0313720703125
3.230,311,2192,2257,312,6.0,26.0,32.0,5.493163585662842,16.41845703125,18.6767578125,-1.251220703125,0.25830078125,0.271728515625
3.258,311,2158,2093,312,6.0,26.0,32.0,41.748043060302734,0.4882812201976776,20.324705123901367,-1.43505859375,0.8741455078125,0.2850341796875
3.259,311,2128,2035,298,6.0,26.0,32.0,33.75244140625,-1.3427733182907104,14.770506858825684,-1.75537109375,0.9813232421875,0.2264404296875
3.259,311,2076,1918,297,6.0,26.0,32.0,33.75244140625,-1.3427733182907104,14.770506858825684,-1.7874755859375,0.6888427734375,0.3712158203125
3.267,311,2024,1750,313,6.0,26.0,32.0,17.02880859375,3.417968511581421,4.69970703125,-1.7874755859375,0.6888427734375,0.3712158203125
3.281,311,1902,1527,311,6.0,26.0,32.0,25.146482467651367,4.08935546875,-2.0751953125,-1.30419921875,0.32421875,0.603515625
3.323,311,1809,1393,311,6.0,26.0,32.0,25.146482467651367,4.08935546875,-2.0751953125,-1.1451416015625,0.4051513671875,0.5245361328125
3.323,311,1715,1274,311,6.0,26.0,32.0,43.151851654052734,7.141112804412842,2.624511480331421,-1.1451416015625,0.4051513671875,0.5245361328125
3.324,311,1537,1057,311,4.0,29.0,34.0,56.335445404052734,20.874021530151367,8.7890625,-0.959716796875,0.3125,0.2772216796875
3.324,295,1440,922,311,4.0,29.0,34.0,56.335445404052734,20.874021530151367,8.7890625,-0.8045654296875,0.1353759765625,0.14306640625
3.327,311,1355,869,311,4.0,29.0,34.0,57.678218841552734,25.695798873901367,7.080077648162842,-0.8045654296875,0.1353759765625,0.14306640625
3.341,310,1207,771,311,4.0,29.0,34.0,66.10107421875,24.780271530151367,0.30517578125,-0.452392578125,-0.196533203125,-0.0328369140625
3.366,309,1131,710,310,4.0,29.0,34.0,66.10107421875,24.780271530151367,0.30517578125,-0.32861328125,-0.2650146484375,-0.0986328125
3.379,311,1064,685,311,4.0,29.0,34.0,66.89453125,21.911619186401367,-1.3427733182907104,-0.32861328125,-0.2650146484375,-0.0986328125
3.379,295,927,616,298,4.0,29.0,34.0,57.434078216552734,16.78466796875,0.6713866591453552,-0.3057861328125,-0.1082763671875,-0.087890625
3.462,309,815,553,310,4.0,29.0,34.0,57.434078216552734,16.78466796875,0.6713866591453552,-0.333251953125,-0.00537109375,-0.0830078125
3.462,309,793,559,293,4.0,29.0,34.0,50.720211029052734,14.343260765075684,-0.1220703050494194,-0.333251953125,-0.00537109375,-0.0830078125
3.472,309,809,556,311,3.0,31.0,38.0,37.17041015625,10.925292015075684,9.521484375,-0.479248046875,0.394287109375,-0.037353515625
3.483,310,819,563,308,3.0,31.0,38.0,37.17041015625,10.925292015075684,9.521484375,-0.572509765625,0.5079345703125,0.03125
3.496,310,848,585,310,3.0,31.0,38.0,25.817869186401367,5.981444835662842,18.98193359375,-0.572509765625,0.5079345703125,0.03125
3.521,293,868,601,309,3.0,31.0,38.0,3.540038824081421,-2.50244140625,24.230955123901367,-0.633056640625,0.421142578125,0.1492919921875
3.535,309,922,607,310,3.0,31.0,38.0,3.540038824081421,-2.50244140625,24.230955123901367,-0.638916015625,0.40625,0.157958984375
3.546,310,953,640,309,3.0,31.0,38.0,0.6713866591453552,-3.295898199081421,20.507810592651367,-0.638916015625,0.40625,0.157958984375
3.547,309,1014,664,309,3.0,31.0,38.0,-1.8310545682907104,-2.50244140625,9.27734375,-0.625732421875,0.3709716796875,0.070556640625
3.547,309,1037,680,311,3.0,31.0,38.0,-1.8310545682907104,-2.50244140625,9.27734375,-0.63037109375,0.3536376953125,0.0086669921875
3.549,310,1064,694,309,3.0,31.0,38.0,-5.249022960662842,-2.868652105331421,4.7607421875,-0.63037109375,0.3536376953125,0.0086669921875
3.549,309,1173,775,311,3.0,31.0,38.0,-14.465331077575684,-6.774901866912842,-1.0986328125,-0.6112060546875,0.2664794921875,-0.0958251953125
3.550,310,1263,875,311,2.0,30.0,36.0,-14.465331077575684,-6.774901866912842,-1.0986328125,-0.533447265625,0.19384765625,-0.18408203125
3.550,311,1362,1022,311,2.0,30.0,36.0,-17.63916015625,-9.1552734375,-6.042479991912842,-0.533447265625,0.19384765625,-0.18408203125
3.550,311,1566,1331,311,2.0,30.0,36.0,-26.672361373901367,-15.808104515075684,-19.83642578125,-0.293212890625,0.24658203125,-0.3297119140625
3.551,311,1689,1498,312,2.0,30.0,36.0,-45.959468841552734,-23.620603561401367,-27.160642623901367,-0.1697998046875,0.3001708984375,-0.1995849609375
3.552,311,1805,1648,311,2.0,30.0,36.0,-45.959468841552734,-23.620603561401367,-27.160642623901367,-0.094482421875,0.189208984375,0.031982421875
3.552,295,1862,1785,312,2.0,30.0,36.0,-77.45361328125,-32.2265625,-34.3017578125,-0.094482421875,0.189208984375,0.031982421875
3.560,311,2039,2149,311,2.0,30.0,36.0,-106.50634002685547,-42.724605560302734,-36.0107421875,-0.5302734375,-0.0216064453125,0.63720703125
3.570,311,2105,2281,312,2.0,30.0,36.0,-106.50634002685547,-42.724605560302734,-36.0107421875,-0.9388427734375,-0.0108642578125,0.9007568359375
3.579,311,2170,2334,313,2.0,30.0,36.0,-93.56688690185547,-42.663570404052734,-31.677244186401367,-0.9388427734375,-0.0108642578125,0.9007568359375
3.603,311,2259,2389,312,2.0,30.0,36.0,-76.96533203125,-35.58349609375,-23.254392623901367,-1.8204345703125,0.69384765625,0.781494140625
3.621,314,2308,2440,298,5.0,28.0,37.0,-62.805171966552734,-20.874021530151367,-10.253905296325684,-1.8204345703125,0.69384765625,0.781494140625
3.629,311,2330,2461,313,5.0,28.0,37.0,-49.011226654052734,-1.5869139432907104,-1.4038084745407104,-2.268798828125,0.6839599609375,0.537353515625
3.632,311,2249,2261,312,5.0,28.0,37.0,-34.72900390625,13.427733421325684,-2.13623046875,-2.3023681640625,0.61083984375,0.0150146484375
3.634,310,2148,2155,298,5.0,28.0,37.0,-20.080564498901367,15.747069358825684,-3.601073980331421,-2.3023681640625,0.61083984375,0.0150146484375
3.642,311,2203,2215,312,5.0,28.0,37.0,-2.44140625,8.60595703125,-3.784179449081421,-1.77294921875,0.2200927734375,-0.018798828125
3.651,310,2172,2116,312,5.0,28.0,37.0,26.733396530151367,0.4272460639476776,-4.39453125,-1.2196044921875,0.3291015625,0.55810546875
3.658,311,2151,2039,312,5.0,28.0,37.0,56.884761810302734,-5.981444835662842,-0.3662109076976776,-1.2196044921875,0.3291015625,0.55810546875
3.666,311,2120,1985,312,5.0,28.0,37.0,57.800289154052734,-2.197265625,6.530761241912842,-1.4901123046875,0.6973876953125,0.4810791015625
3.683,311,2035,1786,313,5.0,28.0,37.0,32.77587890625,12.268065452575684,10.803221702575684,-1.619384765625,0.5845947265625,0.379150390625
3.689,311,1981,1658,312,5.0,28.0,37.0,9.58251953125,23.254392623901367,12.084959983825684,-1.619384765625,0.5845947265625,0.379150390625
3.716,311,1914,1540,312,8.0,27.0,39.0,2.807616949081421,24.353025436401367,13.366698265075684,-1.4854736328125,0.4434814453125,0.357421875
3.717,312,1765,1330,312,8.0,27.0,39.0,11.901854515075684,19.95849609375,16.6015625,-1.3226318359375,0.41943359375,0.2152099609375
3.719,311,1658,1191,312,8.0,27.0,39.0,26.123044967651367,15.441893577575684,19.83642578125,-1.3226318359375,0.41943359375,0.2152099609375
3.730,309,1552,1064,311,8.0,27.0,39.0,38.39111328125,13.061522483825684,19.10400390625,-1.182861328125,0.35205078125,0.1763916015625
3.744,311,1371,861,311,8.0,27.0,39.0,49.255367279052734,13.549803733825684,14.770506858825684,-0.73583984375,0.0692138671875,0.18603515625
3.756,310,1280,799,311,8.0,27.0,39.0,59.692378997802734,16.17431640625,9.70458984375,-0.73583984375,0.0692138671875,0.18603515625
3.757,310,1139,720,293,8.0,27.0,39.0,68.7255859375,18.6767578125,5.798339366912842,-0.539306640625,-0.1561279296875,0.191162109375
3.771,308,1011,640,311,8.0,27.0,39.0,74.52392578125,20.01953125,4.2724609375,-0.2921142578125,-0.32568359375,0.1121826171875
3.780,309,906,609,310,8.0,27.0,39.0,76.0498046875,20.080564498901367,5.737304210662842,-0.2921142578125,-0.32568359375,0.1121826171875
3.787,309,780,563,310,8.0,27.0,39.0,73.42529296875,18.61572265625,7.568358898162842,-0.2197265625,-0.2415771484375,0.0279541015625
3.801,311,729,557,309,0.0,29.0,36.0,69.76318359375,16.2353515625,7.568358898162842,-0.1328125,0.1728515625,-0.167236328125
3.818,309,726,554,310,0.0,29.0,36.0,66.40625,12.512206077575684,9.6435546875,-0.1328125,0.1728515625,-0.167236328125
3.819,310,750,573,309,0.0,29.0,36.0,60.180660247802734,7.690429210662842,15.014647483825684,-0.2701416015625,0.4322509765625,-0.1923828125
3.839,309,818,586,309,0.0,29.0,36.0,48.583980560302734,2.868652105331421,20.507810592651367,-0.544921875,0.6143798828125,-0.1044921875
3.840,308,846,592,309,0.0,29.0,36.0,34.5458984375,-1.5869139432907104,24.353025436401367,-0.544921875,0.6143798828125,-0.1044921875
3.847,309,882,596,309,0.0,29.0,36.0,22.094724655151367,-4.94384765625,25.268552780151367,-0.5946044921875,0.5980224609375,-0.0267333984375
3.861,310,939,620,309,0.0,29.0,36.0,10.803221702575684,-6.530761241912842,22.460935592651367,-0.615234375,0.38427734375,0.066650390625
3.868,309,968,640,311,0.0,29.0,36.0,1.2817381620407104,-7.263183116912842,16.845703125,-0.615234375,0.38427734375,0.066650390625
3.877,309,1010,650,310,0.0,29.0,36.0,-5.981444835662842,-8.36181640625,10.375975608825684,-0.65771484375,0.3414306640625,0.0831298828125
3.890,310,1083,695,309,2.0,31.0,35.0,-12.084959983825684,-9.8876953125,4.2724609375,-0.69873046875,0.2406005859375,0.101806640625
3.923,310,1129,737,310,2.0,31.0,35.0,-17.27294921875,-8.7890625,-1.15966796875,-0.69873046875,0.2406005859375,0.101806640625
3.923,309,1195,830,311,2.0,31.0,35.0,-21.423337936401367,-5.432128429412842,-6.042479991912842,-0.7073974609375,0.2174072265625,0.0218505859375
3.924,310,1309,1018,311,2.0,31.0,35.0,-26.733396530151367,-4.57763671875,-10.131834983825684,-0.624755859375,0.25830078125,-0.2166748046875
3.929,310,1388,1141,311,2.0,31.0,35.0,-35.888671875,-7.568358898162842,-13.122557640075684,-0.624755859375,0.25830078125,-0.2166748046875
3.947,311,1497,1281,312,2.0,31.0,35.0,-47.485347747802734,-11.718749046325684,-14.892577171325684,-0.5328369140625,0.249267578125,-0.325927734375
3.953,311,1669,1513,311,2.0,31.0,35.0,-58.471675872802734,-15.991209983825684,-15.075682640075684,-0.440673828125,0.329833984375,-0.152587890625
3.966,311,1790,1655,312,2.0,31.0,35.0,-72.998046875,-22.521970748901367,-15.319823265075684,-0.440673828125,0.329833984375,-0.152587890625
3.987,312,1865,1735,297,2.0,31.0,35.0,-94.29930877685547,-29.235837936401367,-18.85986328125,-0.3475341796875,0.20751953125,0.1815185546875
3.995,311,2005,2068,312,2.0,31.0,35.0,-110.90087127685547,-30.944822311401367,-25.390623092651367,-0.32373046875,-0.0516357421875,0.8214111328125
4.054,299,2039,2178,312,2.0,29.0,31.0,-108.33739471435547,-27.587888717651367,-30.090330123901367,-0.32373046875,-0.0516357421875,0.8214111328125
4.054,310,2151,2238,313,2.0,29.0,31.0,-88.50096893310547,-24.963376998901367,-28.198240280151367,-0.5450439453125,0.3077392578125,0.931396484375
4.054,310,2247,2354,311,2.0,29.0,31.0,-65.673828125,-23.193357467651367,-21.972654342651367,-1.6441650390625,0.4649658203125,0.6439208984375
4.054,311,2296,2408,315,2.0,29.0,31.0,-42.724605560302734,-14.709471702575684,-20.690916061401367,-2.140380859375,0.2156982421875,0.5670166015625
4.054,311,2349,2382,312,2.0,29.0,31.0,-17.7001953125,-0.30517578125,-24.841306686401367,-2.140380859375,0.2156982421875,0.5670166015625
4.054,295,2322,2337,312,2.0,29.0,31.0,-3.295898199081421,9.21630859375,-21.240232467651367,-2.572265625,0.83447265625,0.3272705078125
4.055,311,2252,2207,313,2.0,29.0,31.0,-8.36181640625,13.061522483825684,-11.840819358825684,-1.9976806640625,-0.2662353515625,0.037841796875
4.059,311,2217,2152,314,2.0,29.0,31.0,-5.981444835662842,19.6533203125,-10.681151390075684,-1.9976806640625,-0.2662353515625,0.037841796875
4.067,309,2210,2079,312,2.0,29.0,31.0,34.423828125,17.63916015625,-10.131834983825684,-1.3145751953125,-0.5167236328125,0.29931640625
4.082,311,2183,2009,313,2.0,29.0,31.0,78.79638671875,3.723144292831421,1.2817381620407104,-1.521240234375,0.952880859375,0.113525390625
4.096,311,2156,1959,314,6.0,30.0,37.0,78.67431640625,-2.563476324081421,15.869139671325684,-1.521240234375,0.952880859375,0.113525390625
4.128,299,2118,1865,312,6.0,30.0,37.0,38.26904296875,1.9531248807907104,21.301267623901367,-1.72119140625,1.0706787109375,0.107177734375
4.138,309,2020,1742,311,6.0,30.0,37.0,-6.530761241912842,6.408690929412842,16.29638671875,-1.4908447265625,0.5196533203125,0.452880859375
4.139,311,1949,1635,312,6.0,30.0,37.0,-25.878904342651367,6.958007335662842,9.033203125,-1.4908447265625,0.5196533203125,0.452880859375
4.140,311,1877,1516,314,6.0,30.0,37.0,-18.12744140625,7.202147960662842,5.493163585662842,-1.33447265625,0.3792724609375,0.5206298828125
4.142,311,1701,1305,312,6.0,30.0,37.0,1.03759765625,9.033203125,6.591796398162842,-1.128173828125,0.430419921875,0.330322265625
4.154,310,1588,1170,311,6.0,30.0,37.0,18.37158203125,11.352538108825684,8.60595703125,-1.128173828125,0.430419921875,0.330322265625
4.158,311,1464,1021,311,6.0,30.0,37.0,31.921384811401367,13.977049827575684,7.507323741912842,-0.9803466796875,0.31591796875,0.2325439453125
4.172,309,1300,848,310,6.0,30.0,37.0,45.104976654052734,17.08984375,3.479003667831421,-0.5809326171875,-0.093017578125,0.1416015625
4.180,311,1201,751,311,6.0,30.0,37.0,58.227535247802734,20.751951217651367,-0.4882812201976776,-0.5809326171875,-0.093017578125,0.1416015625
4.188,310,1112,679,311,3.0,30.0,34.0,69.9462890625,24.230955123901367,-2.44140625,-0.4205322265625,-0.313232421875,0.148681640625
4.206,309,977,630,310,3.0,30.0,34.0,79.65087890625,27.832029342651367,-1.3427733182907104,-0.2540283203125,-0.3629150390625,0.1092529296875
4.211,310,868,603,311,3.0,30.0,34.0,85.08300018310547,30.273435592651367,2.25830078125,-0.2540283203125,-0.3629150390625,0.1092529296875
4.230,310,780,587,311,3.0,30.0,34.0,85.57128143310547,29.235837936401367,5.065917491912842,-0.2471923828125,-0.218994140625,0.071044921875
4.232,310,702,596,309,3.0,30.0,34.0,83.61815643310547,24.902341842651367,6.652831554412842,-0.296142578125,0.2252197265625,-0.087890625
4.240,309,710,607,309,3.0,30.0,34.0,79.833984375,18.24951171875,10.253905296325684,-0.296142578125,0.2252197265625,-0.087890625
4.249,309,734,617,309,3.0,30.0,34.0,72.20458984375,10.864256858825684,16.78466796875,-0.3729248046875,0.3824462890625,-0.1204833984375
4.261,309,796,617,309,3.0,30.0,34.0,60.852046966552734,4.82177734375,24.108884811401367,-0.570068359375,0.4605712890625,-0.1219482421875
4.270,307,822,617,309,3.0,30.0,34.0,50.109859466552734,-0.7324218153953552,28.869626998901367,-0.570068359375,0.4605712890625,-0.1219482421875
4.278,310,844,616,309,3.0,30.0,34.0,41.870113372802734,-5.432128429412842,28.930662155151367,-0.6138916015625,0.5404052734375,-0.124755859375
4.291,307,918,638,309,0.0,31.0,39.0,30.517576217651367,-7.934569835662842,24.780271530151367,-0.63232421875,0.585693359375,-0.1168212890625
4.300,311,955,644,310,0.0,31.0,39.0,12.573241233825684,-10.131834983825684,17.63916015625,-0.62939453125,0.54443359375,-0.0814208984375
4.308,309,994,638,309,0.0,31.0,39.0,-8.85009765625,-12.695311546325684,10.009765625,-0.60546875,0.447998046875,-0.050537109375
4.334,311,1074,684,311,0.0,31.0,39.0,-27.954099655151367,-14.770506858825684,3.845214605331421,-0.5797119140625,0.358154296875,-0.02880859375
4.334,309,1139,739,311,0.0,31.0,39.0,-40.161128997802734,-16.29638671875,-2.746581792831421,-0.5350341796875,0.2734375,-0.03564453125
4.341,310,1228,846,310,0.0,31.0,39.0,-44.982906341552734,-16.29638671875,-11.718749046325684,-0.4674072265625,0.201416015625,-0.135498046875
4.352,309,1416,1096,311,0.0,31.0,39.0,-48.156734466552734,-14.770506858825684,-20.324705123901367,-0.39453125,0.199951171875,-0.30126953125
4.367,311,1548,1260,311,0.0,31.0,39.0,-57.006832122802734,-13.977049827575684,-25.390623092651367,-0.3096923828125,0.2525634765625,-0.4342041015625
4.368,311,1659,1416,312,0.0,31.0,39.0,-72.81494140625,-15.930174827575684,-28.991697311401367,-0.271484375,0.3095703125,-0.3956298828125
4.383,311,1858,1721,311,5.0,30.0,37.0,-92.95653533935547,-24.169919967651367,-34.3017578125,-0.3131103515625,0.255126953125,-0.0972900390625
4.393,311,1951,1907,312,5.0,30.0,37.0,-111.51122283935547,-37.841796875,-38.818359375,-0.3865966796875,0.0626220703125,0.352294921875
4.407,311,2028,2096,312,5.0,30.0,37.0,-116.88231658935547,-49.133296966552734,-39.1845703125,-0.5399169921875,-0.0994873046875,0.71875
4.438,311,2160,2235,313,5.0,30.0,37.0,-106.32323455810547,-51.208492279052734,-36.0107421875,-0.78173828125,-0.0123291015625,0.906982421875
4.450,311,2212,2301,312,5.0,30.0,37.0,-90.94237518310547,-44.555660247802734,-29.357908248901367,-1.1011962890625,0.2955322265625,0.9398193359375
4.451,311,2266,2361,312,5.0,30.0,37.0,-72.509765625,-29.479978561401367,-19.95849609375,-1.578125,0.4063720703125,0.8880615234375
4.451,311,2337,2424,313,5.0,30.0,37.0,-43.579097747802734,-8.48388671875,-13.916014671325684,-2.0155029296875,0.211669921875,0.8699951171875
4.455,311,2334,2379,312,5.0,30.0,37.0,-12.084959983825684,7.812499523162842,-10.009765625,-2.3096923828125,0.4278564453125,0.65576171875
4.458,312,2244,2178,314,5.0,30.0,37.0,5.737304210662842,12.878417015075684,-3.112792730331421,-2.50830078125,0.8824462890625,0.150634765625
4.473,311,2225,2147,312,5.0,30.0,37.0,6.408690929412842,15.136717796325684,0.0,-2.2080078125,0.4554443359375,-0.1328125
4.484,311,2209,2076,312,5.0,28.0,36.0,13.305663108825684,18.06640625,-1.03759765625,-1.633544921875,-0.0396728515625,0.0782470703125
4.489,311,2186,1949,314,5.0,28.0,36.0,32.470703125,12.756346702575684,3.112792730331421,-1.470458984375,0.303466796875,0.302978515625
4.503,311,2128,1808,312,5.0,28.0,36.0,37.53662109375,6.225585460662842,10.742186546325684,-1.652587890625,0.7115478515625,0.265625
4.515,311,2065,1723,314,5.0,28.0,36.0,28.137205123901367,7.873534679412842,13.854979515075684,-1.783935546875,0.7242431640625,0.2763671875
4.536,311,2002,1616,312,5.0,28.0,36.0,22.338865280151367,11.169432640075684,11.779784202575684,-1.6683349609375,0.508056640625,0.434326171875
4.544,311,1883,1413,311,5.0,28.0,36.0,28.076169967651367,11.901854515075684,9.94873046875,-1.4111328125,0.349365234375,0.5654296875
4.553,310,1798,1290,312,5.0,28.0,36.0,43.823238372802734,13.244627952575684,11.108397483825684,-1.206298828125,0.430908203125,0.561279296875
4.553,311,1687,1213,312,5.0,28.0,36.0,58.044429779052734,17.27294921875,12.756346702575684,-1.1182861328125,0.582763671875,0.4007568359375
4.562,311,1486,1022,312,5.0,28.0,36.0,61.523433685302734,22.705076217651367,10.986327171325684,-1.031494140625,0.5413818359375,0.1806640625
4.570,310,1382,927,311,5.0,28.0,36.0,58.105464935302734,27.038572311401367,6.896972179412842,-0.8699951171875,0.3306884765625,0.0347900390625
4.579,311,1289,868,311,5.0,27.0,36.0,53.894039154052734,28.198240280151367,4.69970703125,-0.6856689453125,0.0601806640625,-0.01318359375
4.593,311,1114,748,310,5.0,27.0,36.0,49.682613372802734,26.000974655151367,4.150390625,-0.5318603515625,-0.2137451171875,-0.0203857421875
4.600,310,1037,702,311,5.0,27.0,36.0,46.447750091552734,22.583005905151367,3.662109136581421,-0.4041748046875,-0.404296875,-0.056640625
4.608,310,957,691,310,5.0,27.0,36.0,45.837398529052734,20.812986373901367,3.356933355331421,-0.3076171875,-0.4195556640625,-0.0853271484375
4.637,310,827,643,309,5.0,27.0,36.0,47.058101654052734,20.080564498901367,2.990722417831421,-0.259521484375,-0.3128662109375,-0.097412109375
4.677,309,788,630,309,5.0,27.0,36.0,48.461910247802734,18.310546875,2.25830078125,-0.2294921875,-0.1348876953125,-0.1243896484375
4.677,310,787,617,309,5.0,27.0,36.0,46.874996185302734,13.061522483825684,4.33349609375,-0.2293701171875,0.12451171875,-0.0946044921875
4.678,310,816,614,310,5.0,27.0,36.0,37.04833984375,4.33349609375,12.145995140075684,-0.2967529296875,0.3697509765625,-0.0059814453125
4.687,309,842,616,309,5.0,27.0,36.0,18.798828125,-2.25830078125,23.681638717651367,-0.407470703125,0.5020751953125,0.069091796875
4.687,309,859,584,307,5.0,27.0,36.0,0.4272460639476776,-2.50244140625,33.50830078125,-0.521240234375,0.527587890625,0.101318359375
4.687,309,907,631,311,2.0,31.0,37.0,-9.8876953125,1.2817381620407104,38.02490234375,-0.604248046875,0.501708984375,0.10595703125
4.690,309,932,631,310,2.0,31.0,37.0,-11.840819358825684,3.723144292831421,37.41455078125,-0.64404296875,0.4598388671875,0.1187744140625
4.698,308,955,644,310,2.0,31.0,37.0,-8.6669921875,1.7089842557907104,32.2265625,-0.66259765625,0.419677734375,0.121826171875
4.712,310,999,661,309,2.0,31.0,37.0,-2.38037109375,-2.868652105331421,22.644041061401367,-0.6868896484375,0.4130859375,0.09130859375
4.722,309,1034,669,309,2.0,31.0,37.0,3.234863042831421,-6.835937023162842,11.413573265075684,-0.72802734375,0.4495849609375,0.0623779296875
4.727,309,1066,671,309,2.0,31.0,37.0,3.479003667831421,-9.33837890625,2.746581792831421,-0.7735595703125,0.4638671875,0.0455322265625
4.741,309,1139,696,311,2.0,31.0,37.0,-1.5869139432907104,-10.070799827575684,-1.5258787870407104,-0.79541015625,0.3944091796875,0.0040283203125
4.754,309,1184,718,311,2.0,31.0,37.0,-8.23974609375,-9.765625,-2.13623046875,-0.7562255859375,0.2747802734375,-0.0750732421875
4.761,310,1255,779,309,2.0,31.0,37.0,-15.808104515075684,-10.314940452575684,-1.3427733182907104,-0.6380615234375,0.1802978515625,-0.1630859375
4.771,310,1440,1035,311,1.0,31.0,40.0,-26.550291061401367,-12.573241233825684,-3.173827886581421,-0.4432373046875,0.1270751953125,-0.2420654296875
4.797,309,1557,1206,311,1.0,31.0,40.0,-40.954586029052734,-15.930174827575684,-11.596678733825684,-0.2183837890625,0.1112060546875,-0.2833251953125
4.798,311,1675,1317,311,1.0,31.0,40.0,-59.143062591552734,-20.629880905151367,-25.390623092651367,-0.00048828125,0.0584716796875,-0.1968994140625
4.803,311,1883,1527,312,1.0,31.0,40.0,-78.43017578125,-26.367185592651367,-35.0341796875,0.1712646484375,-0.0849609375,0.087646484375
4.811,311,1971,1643,312,1.0,31.0,40.0,-84.35057830810547,-30.700681686401367,-33.99658203125,0.0986328125,-0.1964111328125,0.448486328125
4.818,311,2045,1829,312,1.0,31.0,40.0,-70.61767578125,-32.89794921875,-26.794431686401367,-0.2867431640625,-0.0877685546875,0.6690673828125
4.845,311,2174,2023,312,1.0,31.0,40.0,-61.584468841552734,-33.203125,-19.10400390625,-0.757080078125,0.307861328125,0.66259765625
4.845,311,2247,2155,312,1.0,31.0,40.0,-76.72119140625,-27.526853561401367,-12.145995140075684,-1.238037109375,0.70654296875,0.4752197265625
4.855,311,2328,2328,313,1.0,31.0,40.0,-92.65135955810547,-12.512206077575684,-7.873534679412842,-1.90087890625,1.0877685546875,0.3348388671875
4.862,311,2410,2417,312,1.0,31.0,40.0,-89.11132049560547,-3.967284917831421,-9.94873046875,-2.69677734375,1.560302734375,0.4588623046875
4.870,311,2370,2356,314,4.0,32.0,35.0,-87.89061737060547,-12.207030296325684,-14.343260765075684,-3.18408203125,1.388671875,0.4111328125
4.881,311,2333,2316,312,4.0,32.0,35.0,-86.05956268310547,-10.681151390075684,-19.71435546875,-2.7333984375,-0.095947265625,0.240966796875
4.898,311,2309,2209,313,4.0,32.0,35.0,-32.958984375,4.2724609375,-25.268552780151367,-1.5850830078125,-1.235595703125,0.4591064453125
4.900,311,2273,2080,313,4.0,32.0,35.0,57.067867279052734,5.554198741912842,-22.155759811401367,-0.8857421875,-0.676025390625,0.568603515625
4.908,311,2263,1996,312,4.0,32.0,35.0,109.25292205810547,2.50244140625,-10.742186546325684,-1.041259765625,0.3060302734375,0.2828369140625
4.922,311,2238,1946,312,4.0,32.0,35.0,100.52489471435547,10.314940452575684,2.807616949081421,-1.4921875,0.933837890625,0.0545654296875
4.961,311,2206,1908,313,4.0,32.0,35.0,55.175777435302734,17.15087890625,13.488768577575684,-1.7236328125,1.21142578125,0.0577392578125
4.966,311,2156,1837,312,4.0,32.0,35.0,6.042479991912842,16.66259765625,14.343260765075684,-1.70361328125,1.034912109375,0.1495361328125
4.966,311,2047,1723,312,4.0,32.0,35.0,-18.5546875,12.329100608825684,6.652831554412842,-1.5941162109375,0.6156005859375,0.2576904296875
4.967,311,1973,1620,312,4.0,32.0,35.0,-13.916014671325684,7.507323741912842,0.1831054538488388,-1.4609375,0.2926025390625,0.37939453125
4.970,311,1888,1494,312,3.0,29.0,37.0,3.784179449081421,6.286620616912842,0.9765624403953552,-1.31494140625,0.2542724609375,0.4869384765625
4.983,311,1727,1234,311,3.0,29.0,37.0,19.22607421875,10.131834983825684,7.080077648162842,-1.1951904296875,0.334228515625,0.4775390625
4.996,311,1613,1096,312,3.0,29.0,37.0,30.395505905151367,17.27294921875,12.756346702575684,-1.0694580078125,0.282470703125,0.3770751953125
4.998,311,1485,992,311,3.0,29.0,37.0,43.640132904052734,23.254392623901367,15.319823265075684,-0.8826904296875,0.10986328125,0.3106689453125
5.012,309,1300,828,312,3.0,29.0,37.0,61.218257904052734,25.573728561401367,15.441893577575684,-0.67236328125,-0.06640625,0.296142578125
5.020,307,1185,745,311,3.0,29.0,37.0,79.2236328125,26.184080123901367,13.549803733825684,-0.5106201171875,-0.1893310546875,0.2745361328125
5.047,310,1093,696,311,3.0,29.0,37.0,90.75926971435547,27.954099655151367,10.864256858825684,-0.4007568359375,-0.2261962890625,0.165771484375
5.047,309,968,671,311,3.0,29.0,37.0,90.82030487060547,31.249998092651367,8.97216796875,-0.3179931640625,-0.178955078125,0.01708984375
5.051,310,787,617,310,3.0,29.0,37.0,82.45848846435547,31.799314498901367,6.835937023162842,-0.2564697265625,-0.125244140625,-0.082275390625
5.061,309,683,605,310,3.0,29.0,37.0,74.8291015625,27.282712936401367,2.3193359375,-0.21435546875,-0.0408935546875,-0.1502685546875
5.067,309,632,600,310,-4.0,31.0,39.0,74.8291015625,27.282712936401367,2.3193359375,-0.206787109375,0.1470947265625,-0.205810546875
5.080,309,651,616,310,-4.0,31.0,39.0,68.115234375,14.404295921325684,1.220703125,-0.2608642578125,0.3673095703125,-0.2486572265625
5.089,309,689,632,309,-4.0,31.0,39.0,55.419918060302734,10.803221702575684,10.742186546325684,-0.3638916015625,0.5008544921875,-0.2386474609375
5.097,309,725,633,309,-4.0,31.0,39.0,55.419918060302734,10.803221702575684,10.742186546325684,-0.47412109375,0.5089111328125,-0.15283203125
5.115,309,788,619,309,-4.0,31.0,39.0,14.404295921325684,3.723144292831421,29.479978561401367,-0.5631103515625,0.4302978515625,-0.0362548828125
5.119,309,818,607,309,-4.0,31.0,39.0,-0.7324218153953552,-0.9765624403953552,31.555173873901367,-0.597412109375,0.3277587890625,0.0491943359375
5.127,310,858,614,310,-4.0,31.0,39.0,-0.7324218153953552,-0.9765624403953552,31.555173873901367,-0.6103515625,0.291259765625,0.067626953125
5.149,309,932,630,309,-4.0,31.0,39.0,-6.591796398162842,-7.507323741912842,19.04296875,-0.647216796875,0.3643798828125,0.05712890625
5.150,310,966,643,310,-4.0,31.0,39.0,-10.131834983825684,-8.6669921875,10.925292015075684,-0.6611328125,0.4315185546875,0.0506591796875
5.162,309,1031,656,310,-4.0,31.0,39.0,-10.131834983825684,-8.6669921875,10.925292015075684,-0.6444091796875,0.3997802734375,0.0289306640625
5.170,310,1117,697,311,1.0,30.0,37.0,-32.53173828125,-6.408690929412842,2.624511480331421,-0.600341796875,0.2913818359375,-0.0162353515625
5.179,310,1204,749,310,1.0,30.0,37.0,-40.161128997802734,-5.065917491912842,-1.0986328125,-0.51220703125,0.159912109375,-0.1383056640625
5.187,308,1300,838,311,1.0,30.0,37.0,-40.161128997802734,-5.065917491912842,-1.0986328125,-0.3953857421875,0.070068359375,-0.32080078125
5.200,311,1499,1097,311,1.0,30.0,37.0,-53.466793060302734,-10.681151390075684,-10.681151390075684,-0.2470703125,0.0694580078125,-0.4765625
5.209,308,1613,1243,311,1.0,30.0,37.0,-65.00244140625,-17.822265625,-16.78466796875,-0.12060546875,0.171142578125,-0.480224609375
5.226,311,1750,1386,312,1.0,30.0,37.0,-65.00244140625,-17.822265625,-16.78466796875,-0.1063232421875,0.286865234375,-0.2078857421875
5.254,311,1934,1681,312,1.0,30.0,37.0,-94.97069549560547,-35.82763671875,-34.24072265625,-0.251953125,0.3170166015625,0.243408203125
5.254,311,2008,1886,312,1.0,30.0,37.0,-110.10741424560547,-45.349117279052734,-38.75732421875,-0.5301513671875,0.2357177734375,0.6419677734375
5.255,311,2076,2045,313,1.0,30.0,37.0,-110.10741424560547,-45.349117279052734,-38.75732421875,-0.9183349609375,0.3231201171875,0.88671875
5.267,311,2207,2213,312,6.0,27.0,39.0,-110.16844940185547,-50.109859466552734,-33.935546875,-1.347412109375,0.2635498046875,1.0172119140625
5.269,311,2263,2312,313,6.0,27.0,39.0,-85.69335174560547,-32.77587890625,-26.855466842651367,-1.8935546875,0.2530517578125,1.043212890625
5.277,311,2321,2382,313,6.0,27.0,39.0,-85.69335174560547,-32.77587890625,-26.855466842651367,-2.5675048828125,0.8062744140625,0.9290771484375
5.291,311,2261,2134,313,6.0,27.0,39.0,-29.418943405151367,6.896972179412842,-1.0986328125,-2.957275390625,1.015625,0.4791259765625
5.299,312,2238,2089,313,6.0,27.0,39.0,-27.465818405151367,22.094724655151367,3.173827886581421,-2.5303955078125,0.114501953125,0.02490234375
5.307,311,2203,2065,312,6.0,27.0,39.0,-27.465818405151367,22.094724655151367,3.173827886581421,-1.7020263671875,-0.5279541015625,0.05029296875
5.333,311,2179,1929,312,6.0,27.0,39.0,53.344722747802734,18.310546875,3.173827886581421,-1.3779296875,0.111572265625,0.1099853515625
5.344,311,2158,1838,313,6.0,27.0,39.0,68.90869140625,2.50244140625,10.009765625,-1.58642578125,0.944580078125,0.00244140625
5.357,311,2113,1791,312,6.0,27.0,39.0,68.90869140625,2.50244140625,10.009765625,-1.851806640625,1.156494140625,0.0654296875
5.357,311,2012,1635,312,6.0,27.0,39.0,9.1552734375,5.065917491912842,11.352538108825684,-1.8251953125,0.80126953125,0.3162841796875
5.359,310,1937,1485,312,5.0,31.0,31.0,-3.479003667831421,8.72802734375,6.591796398162842,-1.5577392578125,0.3929443359375,0.5509033203125
5.370,311,1863,1345,311,5.0,31.0,31.0,-3.479003667831421,8.72802734375,6.591796398162842,-1.279296875,0.2410888671875,0.6439208984375
5.380,311,1703,1160,311,5.0,31.0,31.0,39.36767578125,12.817381858825684,10.620116233825684,-1.124267578125,0.32958984375,0.566650390625
5.390,311,1590,1057,311,5.0,31.0,31.0,60.363765716552734,15.563963890075684,13.854979515075684,-1.0213623046875,0.4378662109375,0.383056640625
5.398,309,1478,942,311,5.0,31.0,31.0,60.363765716552734,15.563963890075684,13.854979515075684,-0.869873046875,0.4283447265625,0.1910400390625
5.416,310,1281,814,311,5.0,31.0,31.0,71.2890625,28.198240280151367,4.5166015625,-0.68359375,0.2911376953125,0.058837890625
5.422,307,1156,740,310,5.0,31.0,31.0,66.40625,32.77587890625,-1.8920897245407104,-0.49560546875,-0.00927734375,0.0224609375
5.433,309,1059,698,311,5.0,31.0,31.0,66.40625,32.77587890625,-1.8920897245407104,-0.315185546875,-0.362548828125,0.01123046875
5.449,309,918,667,311,5.0,31.0,31.0,53.405757904052734,30.761716842651367,-1.5258787870407104,-0.1939697265625,-0.5413818359375,-0.0289306640625
5.459,309,846,614,309,5.0,31.0,31.0,54.992671966552734,25.817869186401367,2.624511480331421,-0.1544189453125,-0.4923095703125,-0.0977783203125
5.459,310,784,612,311,0.0,31.0,41.0,54.992671966552734,25.817869186401367,2.624511480331421,-0.1527099609375,-0.2535400390625,-0.16162109375
5.483,309,749,627,309,0.0,31.0,41.0,60.607906341552734,12.329100608825684,3.173827886581421,-0.191162109375,0.1053466796875,-0.17041015625
5.490,309,758,625,309,0.0,31.0,41.0,49.682613372802734,6.591796398162842,8.6669921875,-0.3067626953125,0.4327392578125,-0.1494140625
5.490,293,782,629,311,0.0,31.0,41.0,49.682613372802734,6.591796398162842,8.6669921875,-0.466552734375,0.6123046875,-0.108642578125
5.500,309,830,631,310,0.0,31.0,41.0,5.065917491912842,3.417968511581421,27.526853561401367,-0.5963134765625,0.616943359375,-0.036865234375
5.509,309,849,645,310,0.0,31.0,41.0,-9.94873046875,4.82177734375,31.616209030151367,-0.6578369140625,0.5128173828125,0.0330810546875
5.579,309,875,666,310,0.0,31.0,41.0,-9.94873046875,4.82177734375,31.616209030151367,-0.6622314453125,0.393310546875,0.0819091796875
5.581,311,929,676,310,0.0,31.0,41.0,-10.559081077575684,5.737304210662842,26.489255905151367,-0.654052734375,0.34228515625,0.1234130859375
5.581,310,966,691,309,0.0,31.0,41.0,-3.906249761581421,2.44140625,18.98193359375,-0.652587890625,0.3831787109375,0.1416015625
5.581,309,976,708,309,0.0,31.0,41.0,-3.906249761581421,2.44140625,18.98193359375,-0.652587890625,0.3831787109375,0.1416015625
5.581,310,1074,722,311,1.0,29.0,38.0,-9.1552734375,-3.051757574081421,3.173827886581421,-0.6796875,0.4901123046875,0.0252685546875
5.581,311,1125,738,309,1.0,29.0,38.0,-9.1552734375,-3.051757574081421,3.173827886581421,-0.6885986328125,0.4449462890625,-0.050048828125
5.581,310,1173,777,310,1.0,29.0,38.0,-19.71435546875,-4.638671875,-3.540038824081421,-0.6885986328125,0.4449462890625,-0.050048828125
5.591,310,1303,840,311,1.0,29.0,38.0,-34.3017578125,-9.21630859375,-11.901854515075684,-0.569091796875,0.2249755859375,-0.2646484375
5.600,310,1401,972,311,1.0,29.0,38.0,-34.3017578125,-9.21630859375,-11.901854515075684,-0.4100341796875,0.14208984375,-0.345947265625
5.607,311,1527,1133,312,1.0,29.0,38.0,-38.14697265625,-12.023924827575684,-12.756346702575684,-0.4100341796875,0.14208984375,-0.345947265625
5.626,311,1724,1382,311,1.0,29.0,38.0,-65.3076171875,-21.179197311401367,-23.071287155151367,-0.0350341796875,0.068115234375,-0.2152099609375
5.629,311,1850,1555,312,1.0,29.0,38.0,-65.3076171875,-21.179197311401367,-23.071287155151367,0.0867919921875,-0.088623046875,0.0994873046875
5.663,309,1943,1671,312,1.0,29.0,38.0,-92.46825408935547,-32.71484375,-34.60693359375,0.0867919921875,-0.088623046875,0.0994873046875
5.663,311,2073,2000,298,1.0,29.0,38.0,-91.61376190185547,-52.673336029052734,-34.912109375,-0.651123046875,-0.028564453125,0.6192626953125
5.663,297,2082,2155,312,4.0,29.0,35.0,-91.61376190185547,-52.673336029052734,-34.912109375,-1.2557373046875,0.239013671875,0.7337646484375
5.670,312,2194,2202,312,4.0,29.0,35.0,-74.3408203125,-53.100582122802734,-23.376462936401367,-1.2557373046875,0.239013671875,0.7337646484375
5.681,311,2259,2321,312,4.0,29.0,35.0,-75.37841796875,-23.864744186401367,10.986327171325684,-2.175537109375,0.4307861328125,0.68408203125
5.689,311,2287,2364,313,4.0,29.0,35.0,-75.37841796875,-23.864744186401367,10.986327171325684,-2.4295654296875,0.7969970703125,0.5714111328125
5.697,311,2303,2377,312,4.0,29.0,35.0,-58.715816497802734,-8.1787109375,25.390623092651367,-2.4295654296875,0.7969970703125,0.5714111328125
5.710,311,2204,2200,312,4.0,29.0,35.0,-30.334470748901367,3.784179449081421,16.7236328125,-2.1510009765625,0.6767578125,0.1453857421875
5.719,311,2210,2186,312,4.0,29.0,35.0,-30.334470748901367,3.784179449081421,16.7236328125,-1.612548828125,0.2467041015625,0.2467041015625
5.728,311,2200,2113,313,4.0,29.0,35.0,-6.591796398162842,8.1787109375,4.5166015625,-1.612548828125,0.2467041015625,0.2467041015625
5.740,311,2161,1907,312,4.0,29.0,35.0,46.752925872802734,4.21142578125,-3.906249761581421,-1.65380859375,0.7451171875,0.4437255859375
5.764,311,2114,1822,313,4.0,29.0,35.0,46.752925872802734,4.21142578125,-3.906249761581421,-1.8033447265625,0.7166748046875,0.4390869140625
5.765,311,2065,1711,297,4.0,31.0,38.0,43.212886810302734,10.070799827575684,-2.3193359375,-1.8033447265625,0.7166748046875,0.4390869140625
5.788,311,1963,1545,312,4.0,31.0,38.0,38.818359375,20.874021530151367,3.784179449081421,-1.4842529296875,0.3802490234375,0.441650390625
5.788,298,1886,1404,311,4.0,31.0,38.0,38.818359375,20.874021530151367,3.784179449081421,-1.3214111328125,0.4534912109375,0.2930908203125
5.788,295,1745,1279,312,4.0,31.0,38.0,48.034664154052734,19.53125,8.1787109375,-1.3214111328125,0.4534912109375,0.2930908203125
5.803,311,1580,1096,311,4.0,31.0,38.0,59.692378997802734,15.197752952575684,9.1552734375,-1.1151123046875,0.586181640625,0.044189453125
5.809,311,1456,978,312,4.0,31.0,38.0,59.692378997802734,15.197752952575684,9.1552734375,-0.89208984375,0.39111328125,0.0260009765625
5.817,310,1333,861,311,4.0,31.0,38.0,58.532711029052734,15.502928733825684,3.784179449081421,-0.89208984375,0.39111328125,0.0260009765625
5.832,309,1153,741,311,4.0,31.0,38.0,62.561031341552734,17.9443359375,-5.676269054412842,-0.3779296875,-0.3328857421875,0.14892578125
5.839,311,1061,711,311,4.0,31.0,38.0,62.561031341552734,17.9443359375,-5.676269054412842,-0.21142578125,-0.57861328125,0.178466796875
5.869,309,992,683,311,4.0,31.0,38.0,67.87109375,19.83642578125,-5.310058116912842,-0.21142578125,-0.57861328125,0.178466796875
5.869,309,871,625,311,3.0,29.0,39.0,73.974609375,18.24951171875,6.958007335662842,-0.1934814453125,-0.3026123046875,0.025390625
5.869,310,794,593,295,3.0,29.0,39.0,73.974609375,18.24951171875,6.958007335662842,-0.207275390625,-0.0072021484375,-0.0931396484375
5.880,307,763,625,310,3.0,29.0,39.0,69.76318359375,13.732909202575684,9.3994140625,-0.207275390625,-0.0072021484375,-0.0931396484375
5.895,311,793,640,310,3.0,29.0,39.0,42.358394622802734,4.21142578125,17.27294921875,-0.317138671875,0.5411376953125,-0.1953125
5.899,309,823,647,309,3.0,29.0,39.0,42.358394622802734,4.21142578125,17.27294921875,-0.4317626953125,0.61865234375,-0.1778564453125
5.907,309,859,645,310,3.0,29.0,39.0,18.61572265625,1.6479490995407104,25.207517623901367,-0.4317626953125,0.61865234375,-0.1778564453125
5.920,310,922,640,309,3.0,29.0,39.0,-15.258788108825684,0.7934569716453552,33.935546875,-0.55029296875,0.465087890625,-0.070556640625
5.929,309,951,665,310,3.0,29.0,39.0,-15.258788108825684,0.7934569716453552,33.935546875,-0.5406494140625,0.3636474609375,-0.01318359375
5.938,311,992,679,309,3.0,29.0,39.0,-19.775390625,-1.03759765625,33.203125,-0.5406494140625,0.3636474609375,-0.01318359375
5.974,309,1057,696,308,1.0,32.0,40.0,-14.099120140075684,-9.27734375,20.446775436401367,-0.5745849609375,0.4136962890625,0.07373046875
5.976,294,1064,706,310,1.0,32.0,40.0,-14.099120140075684,-9.27734375,20.446775436401367,-0.64111328125,0.498779296875,0.0692138671875
5.976,310,1142,764,311,1.0,32.0,40.0,-13.549803733825684,-11.901854515075684,10.986327171325684,-0.64111328125,0.498779296875,0.0692138671875
5.981,311,1251,858,311,1.0,32.0,40.0,-30.578611373901367,-8.48388671875,-11.718749046325684,-0.69775390625,0.369140625,-0.0770263671875
5.989,310,1344,964,311,1.0,32.0,40.0,-30.578611373901367,-8.48388671875,-11.718749046325684,-0.6905517578125,0.286376953125,-0.1981201171875
5.997,310,1444,1099,311,1.0,32.0,40.0,-42.236324310302734,-5.065917491912842,-18.6767578125,-0.6905517578125,0.286376953125,-0.1981201171875
6.011,311,1604,1276,311,1.0,32.0,40.0,-54.809566497802734,-7.995604991912842,-19.1650390625,-0.4461669921875,0.080322265625,-0.0831298828125
6.019,311,1703,1439,313,1.0,32.0,40.0,-70.80078125,-20.080564498901367,-18.49365234375,-0.213134765625,-0.14501953125,0.0863037109375
6.027,311,1800,1562,314,1.0,32.0,40.0,-85.38817596435547,-33.0810546875,-20.202634811401367,-0.213134765625,-0.14501953125,0.0863037109375
6.041,311,1961,1837,312,1.0,32.0,40.0,-87.28026580810547,-38.63525390625,-23.071287155151367,-0.211181640625,-0.0726318359375,0.5052490234375
6.088,311,2041,2000,312,3.0,28.0,35.0,-77.5146484375,-36.0107421875,-25.695798873901367,-0.211181640625,-0.0726318359375,0.5052490234375
6.089,311,2061,2119,312,3.0,28.0,35.0,-68.115234375,-27.526853561401367,-25.939939498901367,-0.5146484375,0.2393798828125,0.6278076171875
6.089,311,2214,2235,314,3.0,28.0,35.0,-67.7490234375,-18.1884765625,-22.277830123901367,-1.429443359375,0.7259521484375,0.5325927734375
6.089,311,2267,2290,298,3.0,28.0,35.0,-74.27978515625,-13.366698265075684,-17.333984375,-1.429443359375,0.7259521484375,0.5325927734375
6.093,312,2261,2290,312,3.0,28.0,35.0,-67.3828125,-9.765625,-13.549803733825684,-2.019775390625,0.6817626953125,0.42333984375
6.103,311,2325,2317,314,3.0,28.0,35.0,-39.9169921875,-7.019042491912842,-11.596678733825684,-2.4932861328125,0.589599609375,0.3260498046875
6.112,311,2273,2197,313,3.0,28.0,35.0,-17.88330078125,-4.45556640625,-10.314940452575684,-2.4932861328125,0.589599609375,0.3260498046875
6.122,311,2238,2132,313,3.0,28.0,35.0,-9.8876953125,2.13623046875,-6.774901866912842,-2.1552734375,0.3671875,0.126953125
6.131,311,2235,2093,312,3.0,28.0,35.0,0.6103515625,8.11767578125,-1.8310545682907104,-1.165771484375,0.0775146484375,0.4061279296875
6.140,311,2222,2023,312,3.0,28.0,35.0,19.53125,7.629394054412842,4.45556640625,-1.165771484375,0.0775146484375,0.4061279296875
6.189,311,2207,1954,312,5.0,28.0,35.0,31.494138717651367,4.69970703125,11.718749046325684,-1.36962890625,0.6171875,0.4273681640625
6.189,311,2122,1819,312,5.0,28.0,35.0,25.512693405151367,9.033203125,14.343260765075684,-1.80810546875,0.873291015625,0.3277587890625
6.189,311,2063,1700,312,5.0,28.0,35.0,15.075682640075684,17.578125,10.009765625,-1.80810546875,0.873291015625,0.3277587890625
6.189,311,2005,1537,298,5.0,28.0,35.0,12.145995140075684,20.935056686401367,3.356933355331421,-1.684814453125,0.6673583984375,0.3431396484375
6.191,311,1852,1362,312,5.0,28.0,35.0,20.996091842651367,17.9443359375,-0.0610351525247097,-1.2911376953125,0.39892578125,0.31982421875
6.199,311,1734,1253,312,5.0,28.0,35.0,38.6962890625,12.817381858825684,2.01416015625,-1.2911376953125,0.39892578125,0.31982421875
6.207,311,1625,1141,314,5.0,28.0,35.0,53.344722747802734,9.1552734375,6.958007335662842,-1.162353515625,0.4097900390625,0.2906494140625
6.221,312,1441,939,312,5.0,28.0,35.0,59.326168060302734,9.09423828125,9.46044921875,-0.78955078125,0.1856689453125,0.187744140625
6.234,311,1334,861,314,5.0,28.0,35.0,63.110347747802734,12.207030296325684,7.873534679412842,-0.78955078125,0.1856689453125,0.187744140625
6.237,311,1222,780,312,5.0,28.0,35.0,68.17626953125,15.869139671325684,3.051757574081421,-0.58642578125,0.0277099609375,0.1533203125
6.251,310,1074,692,311,4.0,29.0,36.0,70.6787109375,18.798828125,-2.807616949081421,-0.318115234375,-0.3155517578125,0.01904296875
6.279,310,992,666,310,4.0,29.0,36.0,68.78662109375,20.996091842651367,-6.164550304412842,-0.318115234375,-0.3155517578125,0.01904296875
6.279,294,883,616,309,4.0,29.0,36.0,65.4296875,20.812986373901367,-4.150390625,-0.2760009765625,-0.3531494140625,-0.055419921875
6.281,309,796,606,310,4.0,29.0,36.0,62.622066497802734,16.6015625,0.54931640625,-0.2332763671875,-0.0845947265625,-0.160888671875
6.292,310,777,627,310,4.0,29.0,36.0,60.485836029052734,10.253905296325684,4.08935546875,-0.2332763671875,-0.0845947265625,-0.160888671875
6.297,311,790,632,309,4.0,29.0,36.0,56.335445404052734,3.784179449081421,8.4228515625,-0.2467041015625,0.201904296875,-0.1456298828125
6.311,310,844,636,309,4.0,29.0,36.0,44.067378997802734,-1.220703125,16.17431640625,-0.401123046875,0.61474609375,-0.04541015625
6.319,309,882,631,309,4.0,29.0,36.0,21.606443405151367,-2.868652105331421,25.146482467651367,-0.401123046875,0.61474609375,-0.04541015625
6.327,309,916,632,309,4.0,29.0,36.0,-3.051757574081421,-1.5869139432907104,31.005857467651367,-0.4649658203125,0.5909423828125,-0.01025390625
6.346,310,990,667,310,0.0,30.0,36.0,-19.53125,0.54931640625,31.738279342651367,-0.4674072265625,0.3424072265625,0.0045166015625
6.349,310,1025,687,309,0.0,30.0,36.0,-24.902341842651367,1.2817381620407104,27.404783248901367,-0.4674072265625,0.3424072265625,0.0045166015625
6.380,309,1073,693,311,0.0,30.0,36.0,-21.911619186401367,-1.3427733182907104,19.95849609375,-0.4720458984375,0.3170166015625,-0.0198974609375
6.380,309,1167,769,311,0.0,30.0,36.0,-17.02880859375,-6.652831554412842,10.803221702575684,-0.535400390625,0.45947265625,-0.0892333984375
6.380,309,1246,846,311,0.0,30.0,36.0,-17.15087890625,-12.023924827575684,0.3662109076976776,-0.535400390625,0.45947265625,-0.0892333984375
6.397,310,1357,982,311,0.0,30.0,36.0,-24.108884811401367,-14.892577171325684,-11.169432640075684,-0.5421142578125,0.436279296875,-0.137939453125
6.401,310,1540,1276,312,0.0,30.0,36.0,-34.7900390625,-13.916014671325684,-20.507810592651367,-0.506591796875,0.4046630859375,-0.10498046875
6.409,311,1646,1429,312,0.0,30.0,36.0,-49.011226654052734,-14.526366233825684,-26.794431686401367,-0.506591796875,0.4046630859375,-0.10498046875
6.417,311,1763,1619,312,0.0,30.0,36.0,-70.73974609375,-20.202634811401367,-35.58349609375,-0.3602294921875,0.2279052734375,0.015380859375
6.431,310,1941,1878,312,0.0,30.0,36.0,-92.65135955810547,-25.817869186401367,-45.715328216552734,-0.262939453125,-0.151611328125,0.2738037109375
6.441,311,2012,2032,313,6.0,30.0,37.0,-98.81591033935547,-29.785154342651367,-49.011226654052734,-0.262939453125,-0.151611328125,0.2738037109375
6.447,310,2082,2217,313,6.0,30.0,37.0,-84.96092987060547,-31.860349655151367,-44.494625091552734,-0.456787109375,-0.248046875,0.5491943359375
6.509,311,2186,2323,312,6.0,30.0,37.0,-63.537593841552734,-28.747556686401367,-35.5224609375,-1.011962890625,-0.1279296875,0.9063720703125
6.517,312,2207,2340,311,6.0,30.0,37.0,-48.461910247802734,-22.705076217651367,-21.972654342651367,-1.011962890625,-0.1279296875,0.9063720703125
6.517,312,2298,2389,314,6.0,30.0,37.0,-33.8134765625,-11.962889671325684,-3.662109136581421,-1.468505859375,0.3187255859375,0.6695556640625
6.521,311,2382,2467,312,6.0,30.0,37.0,-12.573241233825684,-2.0751953125,11.779784202575684,-2.6744384765625,1.62646484375,0.1444091796875
6.527,295,2352,2395,312,6.0,30.0,37.0,-5.737304210662842,-1.7700194120407104,11.779784202575684,-2.6744384765625,1.62646484375,0.1444091796875
6.532,311,2263,2273,312,6.0,30.0,37.0,-21.911619186401367,-3.540038824081421,-1.3427733182907104,-2.8140869140625,1.198486328125,0.0233154296875
6.541,311,2275,2269,312,6.0,30.0,37.0,-31.555173873901367,4.08935546875,-14.465331077575684,-2.184814453125,-0.078125,0.1363525390625
6.549,310,2273,2178,311,6.0,30.0,37.0,-4.69970703125,12.023924827575684,-15.624999046325684,-1.456298828125,-0.5478515625,0.453857421875
6.560,311,2254,2054,312,5.0,29.0,38.0,33.3251953125,9.1552734375,-2.197265625,-1.33203125,0.114990234375,0.471435546875
6.584,311,2186,1929,312,5.0,29.0,38.0,44.250484466552734,7.019042491912842,12.695311546325684,-1.558837890625,0.7847900390625,0.3277587890625
6.584,311,2135,1849,312,5.0,29.0,38.0,33.69140625,12.145995140075684,16.66259765625,-1.7052001953125,0.976806640625,0.3184814453125
6.586,311,2074,1750,312,5.0,29.0,38.0,20.507810592651367,18.85986328125,9.033203125,-1.6412353515625,0.8759765625,0.3701171875
6.591,311,1954,1531,313,5.0,29.0,38.0,16.845703125,20.568845748901367,-2.13623046875,-1.458740234375,0.7060546875,0.3509521484375
6.609,311,1852,1403,312,5.0,29.0,38.0,24.291990280151367,16.7236328125,-8.97216796875,-1.287109375,0.58447265625,0.2908935546875
6.611,312,1730,1278,312,5.0,29.0,38.0,35.94970703125,11.779784202575684,-8.60595703125,-1.1810302734375,0.49462890625,0.242919921875
6.611,297,1519,1083,314,5.0,29.0,38.0,44.189449310302734,10.375975608825684,-4.21142578125,-1.0665283203125,0.299072265625,0.2017822265625
6.619,311,1417,957,314,5.0,29.0,38.0,48.950191497802734,13.854979515075684,0.54931640625,-0.8726806640625,0.041259765625,0.1787109375
6.627,312,1320,879,316,5.0,29.0,38.0,54.748531341552734,18.61572265625,4.150390625,-0.62646484375,-0.21728515625,0.2110595703125
6.641,311,1170,772,311,4.0,29.0,34.0,62.744136810302734,21.545408248901367,5.371093273162842,-0.40087890625,-0.4033203125,0.25146484375
6.649,310,1086,741,310,4.0,29.0,34.0,70.25146484375,23.559568405151367,5.737304210662842,-0.261962890625,-0.439208984375,0.17041015625
6.657,310,1034,703,311,4.0,29.0,34.0,72.44873046875,25.451658248901367,8.4228515625,-0.20556640625,-0.3343505859375,0.0125732421875
6.696,310,949,657,310,4.0,29.0,34.0,66.95556640625,24.536130905151367,13.000487327575684,-0.1932373046875,-0.1671142578125,-0.10693359375
6.698,310,923,659,309,4.0,29.0,34.0,57.556148529052734,18.798828125,15.258788108825684,-0.2041015625,0.005859375,-0.182861328125
6.698,311,928,664,310,4.0,29.0,34.0,49.438472747802734,10.681151390075684,14.343260765075684,-0.261474609375,0.2080078125,-0.2296142578125
6.701,310,955,683,309,4.0,29.0,34.0,41.076656341552734,3.295898199081421,14.831542015075684,-0.373046875,0.4395751953125,-0.212646484375
6.709,311,971,685,310,4.0,29.0,34.0,26.428220748901367,-1.2817381620407104,19.8974609375,-0.49609375,0.61962890625,-0.14111328125
6.717,309,989,694,310,4.0,29.0,34.0,6.042479991912842,-1.7089842557907104,26.733396530151367,-0.58642578125,0.642578125,-0.0740966796875
6.731,309,1029,708,310,0.0,32.0,37.0,-11.840819358825684,0.7934569716453552,30.029294967651367,-0.6156005859375,0.5218505859375,-0.0308837890625
6.739,311,1062,714,311,0.0,32.0,37.0,-19.775390625,2.44140625,28.015134811401367,-0.6102294921875,0.4014892578125,0.022705078125
6.747,310,1088,721,311,0.0,32.0,37.0,-18.12744140625,0.54931640625,22.033689498901367,-0.6136474609375,0.3631591796875,0.0936279296875
6.761,310,1142,772,311,0.0,32.0,37.0,-14.099120140075684,-3.173827886581421,13.610838890075684,-0.6324462890625,0.3616943359375,0.1136474609375
6.805,311,1196,819,310,0.0,32.0,37.0,-14.404295921325684,-4.7607421875,5.187987804412842,-0.656005859375,0.35595703125,0.0594482421875
6.806,310,1268,884,311,0.0,32.0,37.0,-21.057126998901367,-3.540038824081421,-1.7700194120407104,-0.6201171875,0.3179931640625,-0.02099609375
6.807,311,1453,1143,311,0.0,32.0,37.0,-31.738279342651367,-0.6103515625,-8.056640625,-0.5174560546875,0.240478515625,-0.12841796875
6.807,311,1561,1303,312,0.0,32.0,37.0,-43.334957122802734,1.3427733182907104,-14.709471702575684,-0.4140625,0.203369140625,-0.2562255859375
6.808,311,1635,1437,312,0.0,32.0,37.0,-57.128902435302734,-4.5166015625,-23.315427780151367,-0.2564697265625,0.1478271484375,-0.283447265625
6.822,311,1865,1695,311,0.0,32.0,37.0,-71.77734375,-18.12744140625,-33.447265625,-0.0574951171875,0.0223388671875,-0.1038818359375
6.830,311,1954,1798,314,2.0,31.0,37.0,-77.392578125,-30.517576217651367,-39.00146484375,0.0186767578125,-0.036376953125,0.239990234375
6.847,311,2035,1902,312,2.0,31.0,37.0,-72.08251953125,-34.66796875,-36.4990234375,-0.1422119140625,-0.0428466796875,0.582763671875
6.855,311,2143,2235,313,2.0,31.0,37.0,-63.659664154052734,-30.029294967651367,-29.846189498901367,-0.52392578125,-0.025634765625,0.764404296875
6.864,311,2222,2321,314,2.0,31.0,37.0,-57.678218841552734,-23.071287155151367,-24.719236373901367,-1.016845703125,0.185546875,0.6890869140625
6.892,311,2238,2374,314,2.0,31.0,37.0,-57.556148529052734,-20.568845748901367,-23.559568405151367,-1.518310546875,0.660888671875,0.4271240234375
6.892,311,2351,2453,314,2.0,31.0,37.0,-57.739253997802734,-18.6767578125,-24.536130905151367,-2.1181640625,1.2449951171875,0.18310546875
6.909,311,2364,2456,314,2.0,31.0,37.0,-52.673336029052734,-12.573241233825684,-29.602048873901367,-2.676025390625,1.358642578125,0.1759033203125
6.911,311,2302,2330,314,2.0,31.0,37.0,-50.720211029052734,-4.39453125,-39.306640625,-2.8277587890625,0.77099609375,0.2550048828125
6.914,311,2261,2272,313,2.0,31.0,37.0,-43.151851654052734,2.868652105331421,-43.701168060302734,-2.316650390625,-0.1982421875,0.2569580078125
6.928,311,2252,2220,313,2.0,31.0,37.0,-6.469726085662842,4.5166015625,-34.7900390625,-1.53125,-0.703125,0.406494140625
6.928,312,2231,2104,300,6.0,28.0,34.0,42.663570404052734,-1.7700194120407104,-12.756346702575684,-1.2769775390625,-0.2213134765625,0.545166015625
6.941,310,2207,2007,313,6.0,28.0,34.0,60.546871185302734,-4.08935546875,13.427733421325684,-1.52001953125,0.4146728515625,0.4739990234375
6.952,311,2135,1858,313,6.0,28.0,34.0,47.668453216552734,6.713866710662842,31.738279342651367,-1.7471923828125,0.7039794921875,0.396728515625
6.964,311,2024,1750,297,6.0,28.0,34.0,29.907224655151367,21.240232467651367,39.1845703125,-1.7303466796875,0.74169921875,0.3692626953125
6.969,311,1996,1656,312,6.0,28.0,34.0,19.04296875,30.578611373901367,38.87939453125,-1.556884765625,0.6285400390625,0.2767333984375
6.995,311,1844,1430,312,6.0,28.0,34.0,21.789548873901367,31.005857467651367,35.21728515625,-1.3660888671875,0.575439453125,0.1688232421875
6.996,311,1729,1282,311,6.0,28.0,34.0,35.2783203125,22.888181686401367,31.066892623901367,-1.2137451171875,0.5626220703125,0.13134765625
7.004,311,1605,1145,311,6.0,28.0,34.0,47.668453216552734,14.770506858825684,26.000974655151367,-1.06005859375,0.470703125,0.1298828125
7.011,311,1430,988,312,6.0,28.0,34.0,55.053707122802734,13.793944358825684,19.4091796875,-0.8685302734375,0.3311767578125,0.141845703125
7.031,311,1330,909,311,6.0,28.0,34.0,60.974117279052734,17.88330078125,11.962889671325684,-0.6617431640625,0.1453857421875,0.1800537109375
7.031,311,1232,856,311,5.0,29.0,33.0,65.3076171875,21.606443405151367,4.5166015625,-0.4820556640625,-0.08837890625,0.2093505859375
7.041,309,1048,750,310,5.0,29.0,33.0,65.61279296875,23.620603561401367,-0.4272460639476776,-0.3560791015625,-0.2896728515625,0.1650390625
7.050,309,966,712,309,5.0,29.0,33.0,62.988277435302734,23.742673873901367,-0.4882812201976776,-0.287353515625,-0.3538818359375,0.084228515625
7.057,309,868,666,310,5.0,29.0,33.0,61.096187591552734,20.629880905151367,2.624511480331421,-0.2652587890625,-0.3115234375,0.0001220703125
7.071,309,751,644,309,5.0,29.0,33.0,61.950679779052734,15.869139671325684,4.8828125,-0.2529296875,-0.184814453125,-0.1063232421875
7.105,309,737,640,310,5.0,29.0,33.0,62.438961029052734,11.108397483825684,7.446288585662842,-0.2412109375,0.0419921875,-0.2025146484375
7.108,309,750,642,311,5.0,29.0,33.0,55.541988372802734,5.798339366912842,14.160155296325684,-0.27197265625,0.29541015625,-0.2470703125
7.108,309,815,654,310,5.0,29.0,33.0,37.65869140625,0.7934569716453552,24.230955123901367,-0.359375,0.4852294921875,-0.2158203125
7.109,310,848,644,311,5.0,29.0,33.0,13.305663108825684,-2.38037109375,32.89794921875,-0.4658203125,0.5792236328125,-0.1279296875
7.118,310,873,683,309,5.0,29.0,33.0,-8.85009765625,-2.746581792831421,36.19384765625,-0.538818359375,0.58154296875,-0.033935546875
7.142,310,953,721,311,0.0,31.0,32.0,-22.094724655151367,-0.6713866591453552,32.470703125,-0.578125,0.517333984375,0.031005859375
7.142,309,982,726,311,0.0,31.0,32.0,-24.719236373901367,1.03759765625,22.766111373901367,-0.6044921875,0.447265625,0.056396484375
7.148,310,1029,741,311,0.0,31.0,32.0,-21.484373092651367,-0.0610351525247097,11.352538108825684,-0.610595703125,0.423828125,0.032958984375
7.161,311,1142,835,311,0.0,31.0,32.0,-20.751951217651367,-3.173827886581421,2.197265625,-0.5955810546875,0.423828125,-0.0120849609375
7.170,310,1213,927,311,0.0,31.0,32.0,-25.512693405151367,-5.737304210662842,-5.065917491912842,-0.5677490234375,0.364013671875,-0.076904296875
7.199,309,1315,1005,311,0.0,31.0,32.0,-33.63037109375,-6.469726085662842,-11.596678733825684,-0.5047607421875,0.249267578125,-0.171142578125
7.199,311,1492,1255,311,0.0,31.0,32.0,-41.687007904052734,-6.713866710662842,-16.2353515625,-0.4149169921875,0.188232421875,-0.24560546875
7.200,311,1605,1348,311,0.0,31.0,32.0,-49.255367279052734,-10.314940452575684,-20.141599655151367,-0.3333740234375,0.2205810546875,-0.2388916015625
7.214,311,1725,1557,312,0.0,31.0,32.0,-61.645503997802734,-19.34814453125,-28.076169967651367,-0.222412109375,0.179931640625,-0.0587158203125
7.225,311,1920,1750,312,5.0,29.0,37.0,-76.0498046875,-30.517576217651367,-39.0625,-0.1431884765625,0.0379638671875,0.2791748046875
7.249,311,2005,1860,314,5.0,29.0,37.0,-78.125,-37.353515625,-44.799800872802734,-0.2591552734375,0.0303955078125,0.5791015625
7.256,311,2080,2007,326,5.0,29.0,37.0,-66.46728515625,-35.7666015625,-43.029781341552734,-0.5518798828125,0.0933837890625,0.7088623046875
7.262,311,2143,2266,311,5.0,29.0,37.0,-54.016109466552734,-26.428220748901367,-37.9638671875,-0.955810546875,0.2003173828125,0.6309814453125
7.262,301,2257,2306,314,5.0,29.0,37.0,-51.208492279052734,-16.6015625,-31.127927780151367,-1.359375,0.252685546875,0.482177734375
7.269,311,2310,2364,313,5.0,29.0,37.0,-54.321285247802734,-9.033203125,-21.423337936401367,-1.82861328125,0.3238525390625,0.2791748046875
7.277,311,2341,2408,313,5.0,29.0,37.0,-47.607418060302734,-2.624511480331421,-7.080077648162842,-2.3837890625,0.6724853515625,0.145263671875
7.301,311,2328,2354,314,5.0,29.0,37.0,-37.353515625,-1.2817381620407104,4.21142578125,-2.679443359375,0.8436279296875,0.198974609375
7.314,310,2245,2226,314,5.0,29.0,37.0,-34.24072265625,-1.3427733182907104,6.408690929412842,-2.45654296875,0.4913330078125,0.220458984375
7.315,310,2249,2222,312,5.0,29.0,37.0,-20.202634811401367,1.5258787870407104,5.065917491912842,-1.744873046875,-0.06787109375,0.2962646484375
7.322,311,2246,2114,313,1.0,33.0,39.0,15.991209983825684,0.2441406100988388,4.82177734375,-1.1695556640625,-0.0172119140625,0.432861328125
7.330,311,2233,2041,314,1.0,33.0,39.0,46.936031341552734,-4.08935546875,6.835937023162842,-1.1885986328125,0.5833740234375,0.3760986328125
7.364,311,2214,2000,313,1.0,33.0,39.0,46.264644622802734,0.4272460639476776,7.751464366912842,-1.47265625,0.9014892578125,0.21630859375
7.367,310,2151,1875,297,1.0,33.0,39.0,27.587888717651367,11.108397483825684,4.39453125,-1.599609375,0.85888671875,0.19970703125
7.370,311,2107,1791,313,1.0,33.0,39.0,12.207030296325684,16.2353515625,-1.4038084745407104,-1.5118408203125,0.655029296875,0.267578125
7.374,311,2058,1669,311,1.0,33.0,39.0,8.4228515625,15.441893577575684,-5.187987804412842,-1.3734130859375,0.4114990234375,0.2926025390625
7.429,310,1985,1592,312,1.0,33.0,39.0,16.05224609375,13.244627952575684,-4.08935546875,-1.281494140625,0.2950439453125,0.2940673828125
7.430,311,1850,1388,312,1.0,33.0,39.0,26.489255905151367,12.084959983825684,1.15966796875,-1.2352294921875,0.2808837890625,0.284912109375
7.431,311,1755,1287,313,1.0,33.0,39.0,34.1796875,14.099120140075684,6.408690929412842,-1.1639404296875,0.236572265625,0.26123046875
7.431,309,1635,1192,311,1.0,33.0,39.0,42.968746185302734,18.4326171875,9.27734375,-1.025390625,0.165283203125,0.2342529296875
7.434,311,1467,1018,311,4.0,30.0,34.0,54.992671966552734,21.362302780151367,10.925292015075684,-0.8529052734375,0.1094970703125,0.2159423828125
7.436,311,1373,944,311,4.0,30.0,34.0,65.3076171875,21.423337936401367,12.390135765075684,-0.689208984375,0.069091796875,0.219970703125
7.437,309,1280,886,298,4.0,30.0,34.0,67.44384765625,21.484373092651367,13.610838890075684,-0.5634765625,0.003173828125,0.1875
7.455,311,1115,809,310,4.0,30.0,34.0,59.936519622802734,24.414060592651367,13.977049827575684,-0.459716796875,-0.1038818359375,0.09423828125
7.459,311,1034,774,310,4.0,30.0,34.0,49.865718841552734,27.282712936401367,13.854979515075684,-0.3712158203125,-0.1806640625,0.01953125
7.473,310,963,721,311,4.0,30.0,34.0,45.410152435302734,24.658201217651367,12.207030296325684,-0.3203125,-0.1923828125,-0.052978515625
7.481,308,861,679,310,4.0,30.0,34.0,48.645015716552734,17.39501953125,8.72802734375,-0.287353515625,-0.1168212890625,-0.1722412109375
7.504,309,845,675,310,4.0,30.0,34.0,54.504390716552734,9.46044921875,7.446288585662842,-0.281005859375,0.09423828125,-0.2735595703125
7.505,310,854,671,309,4.0,30.0,34.0,54.504390716552734,9.46044921875,7.446288585662842,-0.3426513671875,0.3896484375,-0.2894287109375
7.511,309,918,675,309,4.0,30.0,34.0,39.61181640625,-1.4038084745407104,19.47021484375,-0.439208984375,0.613037109375,-0.2161865234375
7.519,309,943,675,310,0.0,31.0,35.0,15.197752952575684,-3.540038824081421,25.207517623901367,-0.5185546875,0.6654052734375,-0.11181640625
7.527,310,968,696,311,0.0,31.0,35.0,15.197752952575684,-3.540038824081421,25.207517623901367,-0.5501708984375,0.580810546875,-0.0321044921875
7.541,311,1034,729,311,0.0,31.0,35.0,-23.803709030151367,-3.601073980331421,22.277830123901367,-0.5394287109375,0.43603515625,0.0093994140625
7.549,309,1073,749,311,0.0,31.0,35.0,-29.663084030151367,-3.295898199081421,15.441893577575684,-0.529296875,0.3319091796875,0.0125732421875
7.562,310,1143,781,311,0.0,31.0,35.0,-29.663084030151367,-3.295898199081421,15.441893577575684,-0.5301513671875,0.291259765625,-0.0113525390625
7.572,311,1282,939,311,0.0,31.0,35.0,-33.3251953125,-7.019042491912842,2.13623046875,-0.506591796875,0.2462158203125,-0.0595703125
7.585,310,1371,999,311,0.0,31.0,35.0,-35.7666015625,-8.23974609375,-3.967284917831421,-0.4530029296875,0.17041015625,-0.16748046875
7.608,311,1473,1130,311,0.0,31.0,35.0,-35.7666015625,-8.23974609375,-3.967284917831421,-0.38671875,0.1260986328125,-0.2745361328125
7.608,309,1658,1335,312,0.0,31.0,35.0,-48.706050872802734,-9.3994140625,-10.803221702575684,-0.3076171875,0.191650390625,-0.2445068359375
7.609,309,1730,1456,311,0.0,31.0,35.0,-61.706539154052734,-16.6015625,-16.41845703125,-0.19921875,0.218505859375,-0.0047607421875
7.622,311,1892,1630,312,4.0,33.0,37.0,-77.1484375,-26.000974655151367,-25.878904342651367,-0.0948486328125,0.0501708984375,0.3729248046875
7.634,311,2049,1837,312,4.0,33.0,37.0,-81.29882049560547,-32.2265625,-32.04345703125,-0.1702880859375,-0.0411376953125,0.658935546875
7.645,311,2113,1994,313,4.0,33.0,37.0,-68.9697265625,-32.89794921875,-30.334470748901367,-0.5015869140625,0.11572265625,0.7122802734375
7.648,311,2175,2180,312,4.0,33.0,37.0,-56.335445404052734,-27.832029342651367,-24.536130905151367,-1.0196533203125,0.498291015625,0.5477294921875
7.668,311,2282,2299,312,4.0,33.0,37.0,-57.617183685302734,-19.83642578125,-19.4091796875,-1.53662109375,0.7369384765625,0.3853759765625
7.671,311,2303,2345,312,4.0,33.0,37.0,-67.9931640625,-10.375975608825684,-17.15087890625,-2.013427734375,0.5577392578125,0.2744140625
7.678,311,2366,2394,312,4.0,33.0,37.0,-62.927242279052734,0.0610351525247097,-13.305663108825684,-2.486328125,0.486328125,0.1932373046875
7.711,311,2352,2362,312,4.0,33.0,37.0,-40.344234466552734,2.868652105331421,-8.30078125,-2.6802978515625,0.5343017578125,0.200927734375
7.712,311,2263,2235,295,4.0,33.0,37.0,-21.606443405151367,-0.3662109076976776,-5.859374523162842,-2.355224609375,0.2611083984375,0.1864013671875
7.712,311,2268,2235,313,4.0,33.0,37.0,-2.563476324081421,-0.7324218153953552,-2.807616949081421,-1.641357421875,-0.110595703125,0.2911376953125
7.723,310,2254,2141,314,2.0,30.0,39.0,29.052732467651367,-2.3193359375,2.0751953125,-1.182373046875,0.1412353515625,0.4560546875
7.730,309,2238,2047,313,2.0,30.0,39.0,52.185054779052734,-3.540038824081421,7.446288585662842,-1.3223876953125,0.80322265625,0.390625
7.748,311,2210,1981,318,2.0,30.0,39.0,45.227046966552734,4.82177734375,9.58251953125,-1.6396484375,1.0419921875,0.2415771484375
7.754,311,2145,1834,311,2.0,30.0,39.0,24.108884811401367,16.17431640625,6.713866710662842,-1.7218017578125,0.8453369140625,0.2432861328125
7.763,311,2089,1745,312,2.0,30.0,39.0,11.596678733825684,20.202634811401367,2.44140625,-1.5860595703125,0.538818359375,0.326171875
7.776,311,2023,1649,312,2.0,30.0,39.0,11.596678733825684,20.202634811401367,2.44140625,-1.43359375,0.3648681640625,0.3631591796875
7.817,310,1874,1454,312,2.0,30.0,39.0,22.338865280151367,19.34814453125,4.5166015625,-1.3431396484375,0.3468017578125,0.300048828125
7.828,311,1765,1308,314,2.0,30.0,39.0,30.883787155151367,20.385740280151367,9.3994140625,-1.24755859375,0.322998046875,0.1856689453125
7.828,311,1640,1225,312,2.0,30.0,39.0,30.883787155151367,20.385740280151367,9.3994140625,-1.0723876953125,0.2210693359375,0.12451171875
7.829,310,1449,1029,313,2.0,30.0,36.0,55.053707122802734,21.728513717651367,11.108397483825684,-0.8599853515625,0.084716796875,0.125732421875
7.829,311,1344,939,311,2.0,30.0,36.0,69.091796875,20.080564498901367,9.82666015625,-0.6629638671875,-0.0577392578125,0.15771484375
7.831,310,1236,849,311,2.0,30.0,36.0,69.091796875,20.080564498901367,9.82666015625,-0.4866943359375,-0.1876220703125,0.144287109375
7.842,310,1074,749,311,2.0,30.0,36.0,73.54736328125,20.324705123901367,9.27734375,-0.3267822265625,-0.2730712890625,0.0758056640625
7.852,306,996,711,311,2.0,30.0,36.0,67.32177734375,23.559568405151367,11.047362327575684,-0.1986083984375,-0.2869873046875,0.0206298828125
7.858,309,906,671,310,2.0,30.0,36.0,67.32177734375,23.559568405151367,11.047362327575684,-0.1292724609375,-0.196044921875,-0.06201171875
7.873,309,803,650,309,2.0,30.0,36.0,61.828609466552734,19.04296875,10.803221702575684,-0.1102294921875,0.0087890625,-0.158935546875
7.889,309,799,658,309,2.0,30.0,36.0,56.335445404052734,12.695311546325684,13.427733421325684,-0.15380859375,0.287109375,-0.1993408203125
7.889,309,833,668,309,2.0,30.0,36.0,56.335445404052734,12.695311546325684,13.427733421325684,-0.2869873046875,0.549560546875,-0.1915283203125
7.915,310,901,667,309,2.0,30.0,36.0,15.014647483825684,4.2724609375,32.3486328125,-0.455322265625,0.67919921875,-0.146484375
7.915,310,927,684,310,2.0,33.0,40.0,-9.33837890625,2.563476324081421,38.63525390625,-0.5592041015625,0.6190185546875,-0.0947265625
7.926,311,957,687,311,2.0,33.0,40.0,-9.33837890625,2.563476324081421,38.63525390625,-0.584716796875,0.4453125,-0.048583984375
7.932,310,1020,702,310,2.0,33.0,40.0,-23.864744186401367,-0.4882812201976776,28.442380905151367,-0.5921630859375,0.325927734375,-0.0050048828125
7.940,309,1051,713,309,2.0,33.0,40.0,-18.00537109375,-4.08935546875,19.04296875,-0.6055908203125,0.3612060546875,0.0172119140625
7.948,310,1112,725,310,2.0,33.0,40.0,-18.00537109375,-4.08935546875,19.04296875,-0.61474609375,0.463134765625,0.011962890625
7.962,310,1226,816,311,2.0,33.0,40.0,-22.277830123901367,-10.131834983825684,3.356933355331421,-0.6156005859375,0.4736328125,-0.03271484375
7.970,309,1306,912,311,2.0,33.0,40.0,-35.58349609375,-8.30078125,-5.615233898162842,-0.59130859375,0.35302734375,-0.1246337890625
7.978,311,1398,1022,311,2.0,33.0,40.0,-35.58349609375,-8.30078125,-5.615233898162842,-0.537841796875,0.19580078125,-0.2308349609375
7.994,310,1566,1260,311,2.0,33.0,40.0,-63.964839935302734,-3.601073980331421,-15.014647483825684,-0.514892578125,0.1541748046875,-0.2957763671875
8.017,310,1656,1411,312,2.0,33.0,40.0,-73.05908203125,-11.108397483825684,-16.6015625,-0.490966796875,0.1817626953125,-0.18359375
8.019,310,1756,1605,311,2.0,30.0,37.0,-73.05908203125,-11.108397483825684,-16.6015625,-0.38134765625,0.097900390625,0.115478515625
8.036,311,1941,1891,312,2.0,30.0,37.0,-86.54784393310547,-33.5693359375,-30.273435592651367,-0.28271484375,-0.0419921875,0.4189453125
8.036,297,1985,1960,312,2.0,30.0,37.0,-82.64159393310547,-34.11865234375,-33.447265625,-0.3165283203125,-0.021240234375,0.6099853515625
8.038,310,2089,2160,312,2.0,30.0,37.0,-82.64159393310547,-34.11865234375,-33.447265625,-0.52880859375,0.239013671875,0.63720703125
8.052,311,2207,2364,312,2.0,30.0,37.0,-59.204097747802734,-19.83642578125,-27.160642623901367,-0.9337158203125,0.5966796875,0.533935546875
8.060,311,2267,2392,316,2.0,30.0,37.0,-58.776851654052734,-13.122557640075684,-26.184080123901367,-1.4281005859375,0.7210693359375,0.403076171875
8.068,311,2323,2432,314,2.0,30.0,37.0,-58.776851654052734,-13.122557640075684,-26.184080123901367,-1.9835205078125,0.6456298828125,0.2694091796875
8.082,311,2376,2469,313,2.0,30.0,37.0,-38.4521484375,1.4648436307907104,-28.015134811401367,-2.4599609375,0.646240234375,0.2440185546875
8.094,311,2343,2418,314,2.0,30.0,37.0,-15.991209983825684,4.39453125,-24.841306686401367,-2.5733642578125,0.5369873046875,0.2677001953125
8.120,311,2267,2323,313,2.0,30.0,37.0,-15.991209983825684,4.39453125,-24.841306686401367,-2.159912109375,0.0582275390625,0.206787109375
8.120,311,2266,2312,295,4.0,29.0,35.0,10.375975608825684,10.375975608825684,-12.084959983825684,-1.552490234375,-0.2708740234375,0.2481689453125
8.121,311,2259,2231,312,4.0,29.0,35.0,36.68212890625,6.286620616912842,-2.807616949081421,-1.3330078125,0.1358642578125,0.302001953125
8.132,311,2240,2127,312,4.0,29.0,35.0,36.68212890625,6.286620616912842,-2.807616949081421,-1.490478515625,0.7418212890625,0.196044921875
8.152,311,2183,1985,312,4.0,29.0,35.0,31.127927780151367,2.563476324081421,17.27294921875,-1.6676025390625,0.944580078125,0.108642578125
8.156,311,2126,1878,312,4.0,29.0,35.0,16.66259765625,8.11767578125,16.66259765625,-1.6328125,0.817626953125,0.1556396484375
8.162,312,2078,1773,313,4.0,29.0,35.0,16.66259765625,8.11767578125,16.66259765625,-1.435791015625,0.601806640625,0.27294921875
8.175,311,1955,1574,312,4.0,29.0,35.0,17.333984375,8.11767578125,7.568358898162842,-1.2550048828125,0.475830078125,0.3746337890625
8.182,312,1850,1439,316,4.0,29.0,35.0,27.648923873901367,9.21630859375,8.48388671875,-1.177001953125,0.37841796875,0.399658203125
8.190,312,1750,1294,316,4.0,29.0,35.0,27.648923873901367,9.21630859375,8.48388671875,-1.148193359375,0.2467041015625,0.330078125
8.236,313,1538,1085,316,4.0,31.0,33.0,49.560543060302734,14.709471702575684,13.183592796325684,-1.080810546875,0.1602783203125,0.2225341796875
8.241,312,1428,964,314,4.0,31.0,33.0,63.842769622802734,15.319823265075684,13.427733421325684,-0.9451904296875,0.095458984375,0.158203125
8.249,312,1334,882,312,4.0,31.0,33.0,63.842769622802734,15.319823265075684,13.427733421325684,-0.7445068359375,-0.0360107421875,0.1236572265625
8.252,310,1133,736,310,4.0,31.0,33.0,79.40673828125,17.63916015625,8.056640625,-0.4989013671875,-0.208740234375,0.0560302734375
8.253,311,1007,694,309,4.0,31.0,33.0,79.40673828125,17.63916015625,8.056640625,-0.2764892578125,-0.2904052734375,0.0093994140625
8.253,310,936,640,310,4.0,31.0,33.0,78.18603515625,20.080564498901367,6.958007335662842,-0.2764892578125,-0.2904052734375,0.0093994140625
8.262,310,759,616,311,4.0,31.0,33.0,73.974609375,15.502928733825684,7.507323741912842,-0.085693359375,-0.151611328125,-0.086181640625
8.270,309,693,640,310,4.0,31.0,33.0,73.974609375,15.502928733825684,7.507323741912842,-0.1092529296875,0.073486328125,-0.178466796875
8.279,307,702,643,309,4.0,31.0,33.0,71.96044921875,12.756346702575684,8.72802734375,-0.1092529296875,0.073486328125,-0.178466796875
8.292,309,767,652,309,4.0,31.0,33.0,46.752925872802734,4.2724609375,28.015134811401367,-0.386474609375,0.5325927734375,-0.238525390625
8.325,311,801,652,309,0.0,32.0,38.0,46.752925872802734,4.2724609375,28.015134811401367,-0.503173828125,0.5987548828125,-0.1536865234375
8.326,310,823,627,311,0.0,32.0,38.0,22.033689498901367,-0.7324218153953552,38.02490234375,-0.503173828125,0.5987548828125,-0.1536865234375
8.326,310,899,629,309,0.0,32.0,38.0,-20.690916061401367,-3.845214605331421,38.9404296875,-0.54052734375,0.4295654296875,-0.0146484375
8.334,308,938,630,310,0.0,32.0,38.0,-20.690916061401367,-3.845214605331421,38.9404296875,-0.533935546875,0.361328125,-0.0079345703125
8.339,309,982,657,309,0.0,32.0,38.0,-30.883787155151367,-2.197265625,29.907224655151367,-0.533935546875,0.361328125,-0.0079345703125
8.352,309,1083,718,311,0.0,32.0,38.0,-38.39111328125,-5.065917491912842,7.202147960662842,-0.50341796875,0.4556884765625,-0.02197265625
8.360,309,1155,788,311,0.0,32.0,38.0,-38.39111328125,-5.065917491912842,7.202147960662842,-0.485107421875,0.4412841796875,-0.087890625
8.377,311,1234,886,312,0.0,32.0,38.0,-42.602535247802734,-6.408690929412842,-3.601073980331421,-0.485107421875,0.4412841796875,-0.087890625
8.383,310,1397,1104,311,0.0,32.0,38.0,-58.471675872802734,-6.042479991912842,-21.972654342651367,-0.459228515625,0.1728515625,-0.237548828125
8.391,311,1506,1260,313,0.0,32.0,38.0,-58.471675872802734,-6.042479991912842,-21.972654342651367,-0.4498291015625,0.16259765625,-0.1778564453125
8.399,311,1582,1447,312,0.0,31.0,36.0,-64.697265625,-8.60595703125,-23.498533248901367,-0.4498291015625,0.16259765625,-0.1778564453125
8.428,311,1819,1785,312,0.0,31.0,36.0,-91.85790252685547,-32.53173828125,-32.28759765625,-0.1962890625,0.044189453125,0.2113037109375
8.429,310,1927,1937,313,0.0,31.0,36.0,-91.85790252685547,-32.53173828125,-32.28759765625,-0.1248779296875,-0.0244140625,0.396484375
8.443,311,2023,2048,313,0.0,31.0,36.0,-96.00829315185547,-39.85595703125,-41.503902435302734,-0.1248779296875,-0.0244140625,0.396484375
8.446,311,2155,2372,313,0.0,31.0,36.0,-55.419918060302734,-28.259275436401367,-45.349117279052734,-0.769287109375,0.37158203125,0.681640625
8.454,311,2230,2424,314,0.0,31.0,36.0,-55.419918060302734,-28.259275436401367,-45.349117279052734,-1.31005859375,0.46923828125,0.61181640625
8.466,312,2301,2440,314,0.0,31.0,36.0,-53.710933685302734,-16.54052734375,-37.4755859375,-1.31005859375,0.46923828125,0.61181640625
8.472,311,2381,2529,313,0.0,31.0,36.0,-60.852046966552734,-0.4272460639476776,-10.742186546325684,-2.595458984375,0.6903076171875,0.142822265625
8.486,311,2389,2526,313,0.0,31.0,36.0,-60.852046966552734,-0.4272460639476776,-10.742186546325684,-2.9229736328125,0.9390869140625,0.142822265625
8.501,297,2310,2414,314,0.0,31.0,36.0,-47.729488372802734,-6.713866710662842,0.4272460639476776,-2.9229736328125,0.9390869140625,0.142822265625
8.504,311,2280,2361,299,5.0,31.0,33.0,-23.803709030151367,-4.69970703125,-7.080077648162842,-1.80126953125,-0.142578125,0.3114013671875
8.512,312,2266,2362,314,5.0,31.0,33.0,-23.803709030151367,-4.69970703125,-7.080077648162842,-1.256103515625,-0.0982666015625,0.532470703125
8.542,311,2240,2247,313,5.0,31.0,33.0,20.385740280151367,1.2817381620407104,-13.244627952575684,-1.256103515625,-0.0982666015625,0.532470703125
8.542,311,2220,2104,297,5.0,31.0,33.0,57.128902435302734,2.25830078125,-10.620116233825684,-1.2840576171875,0.478759765625,0.467529296875
8.542,311,2147,1949,311,5.0,31.0,33.0,60.607906341552734,8.30078125,-0.6713866591453552,-1.6588134765625,0.7586669921875,0.216064453125
8.549,310,2096,1865,313,5.0,31.0,33.0,45.104976654052734,15.258788108825684,8.7890625,-1.6588134765625,0.7586669921875,0.216064453125
8.560,311,2035,1744,312,5.0,31.0,33.0,29.846189498901367,15.869139671325684,13.671874046325684,-1.590087890625,0.5809326171875,0.2684326171875
8.574,311,1888,1512,311,5.0,31.0,33.0,24.536130905151367,13.793944358825684,16.4794921875,-1.3760986328125,0.4456787109375,0.2861328125
8.583,312,1791,1365,315,5.0,31.0,33.0,29.724119186401367,13.488768577575684,20.141599655151367,-1.3760986328125,0.4456787109375,0.2861328125
8.588,312,1669,1246,314,5.0,31.0,33.0,38.330078125,14.282225608825684,24.353025436401367,-1.279541015625,0.4384765625,0.211181640625
8.601,311,1457,1062,316,1.0,33.0,33.0,46.813961029052734,16.17431640625,26.489255905151367,-0.78271484375,0.150390625,0.10400390625
8.645,312,1355,969,315,1.0,33.0,33.0,57.922359466552734,18.98193359375,25.085447311401367,-0.78271484375,0.150390625,0.10400390625
8.646,312,1280,899,316,1.0,33.0,33.0,70.80078125,20.935056686401367,19.95849609375,-0.47900390625,-0.09423828125,0.162353515625
8.646,311,1115,770,312,1.0,33.0,33.0,82.09227752685547,21.362302780151367,12.756346702575684,-0.204345703125,-0.25830078125,0.1373291015625
8.646,297,1064,740,311,1.0,33.0,33.0,88.50096893310547,22.399900436401367,6.896972179412842,-0.204345703125,-0.25830078125,0.1373291015625
8.647,309,1008,718,311,1.0,33.0,33.0,84.96092987060547,24.597166061401367,5.737304210662842,-0.2122802734375,-0.1282958984375,0.0321044921875
8.661,309,939,666,311,1.0,33.0,33.0,70.80078125,25.024412155151367,7.385253429412842,-0.228759765625,0.074462890625,-0.1400146484375
8.669,309,916,664,309,1.0,33.0,33.0,52.978511810302734,22.583005905151367,8.85009765625,-0.228759765625,0.074462890625,-0.1400146484375
8.677,309,918,669,310,1.0,33.0,33.0,38.75732421875,18.24951171875,11.596678733825684,-0.2607421875,0.1893310546875,-0.2052001953125
8.691,309,944,666,310,1.0,31.0,33.0,29.052732467651367,12.695311546325684,18.06640625,-0.5970458984375,0.5491943359375,-0.2001953125
8.702,310,963,668,310,1.0,31.0,33.0,17.88330078125,7.019042491912842,27.038572311401367,-0.5970458984375,0.5491943359375,-0.2001953125
8.711,309,967,671,309,1.0,31.0,33.0,3.662109136581421,2.563476324081421,33.50830078125,-0.737548828125,0.6011962890625,-0.117919921875
8.746,310,992,683,310,1.0,31.0,33.0,-8.1787109375,0.3662109076976776,34.60693359375,-0.747314453125,0.4208984375,0.056396484375
8.747,309,1010,683,310,1.0,31.0,33.0,-12.573241233825684,0.1831054538488388,30.944822311401367,-0.747314453125,0.4208984375,0.056396484375
8.748,309,1021,675,309,1.0,31.0,33.0,-9.58251953125,0.3662109076976776,25.512693405151367,-0.712646484375,0.3670654296875,0.1275634765625
8.752,310,1069,698,309,1.0,31.0,33.0,-3.662109136581421,0.1831054538488388,20.202634811401367,-0.7220458984375,0.4371337890625,0.1319580078125
8.759,311,1091,706,311,1.0,31.0,33.0,-0.7324218153953552,0.2441406100988388,15.258788108825684,-0.7220458984375,0.4371337890625,0.1319580078125
8.767,311,1125,723,311,1.0,31.0,33.0,-4.7607421875,1.8310545682907104,10.498045921325684,-0.729736328125,0.4189453125,0.0753173828125
