time,compression0,compression1,compression2,compression3,magn_x,magn_y,magn_z,gyro_x,gyro_y,gyro_z,accel_x,accel_y,accel_z
0.013,309,593,715,310,0.0,40.0,24.0,0.6713866591453552,-0.7934569716453552,-1.8920897245407104,-0.8394775390625,0.4945068359375,-0.0650634765625
0.013,309,591,712,295,0.0,40.0,24.0,0.9765624403953552,-1.15966796875,-2.01416015625,-0.8404541015625,0.4959716796875,-0.0631103515625
0.018,309,589,713,309,0.0,40.0,24.0,1.2817381620407104,-1.5258787870407104,-2.3193359375,-0.84130859375,0.4964599609375,-0.0615234375
0.032,309,584,711,311,-1.0,38.0,29.0,1.4648436307907104,-1.5869139432907104,-2.50244140625,-0.842529296875,0.497314453125,-0.0626220703125
0.040,310,583,711,311,-1.0,38.0,29.0,1.3427733182907104,-1.3427733182907104,-2.563476324081421,-0.842529296875,0.4986572265625,-0.063720703125
0.048,309,576,711,310,-1.0,38.0,29.0,1.15966796875,-1.03759765625,-2.563476324081421,-0.8406982421875,0.4967041015625,-0.0626220703125
0.062,309,577,710,310,-1.0,38.0,29.0,1.15966796875,-0.7934569716453552,-2.685546636581421,-0.8385009765625,0.49169921875,-0.0618896484375
0.077,309,575,713,310,-1.0,38.0,29.0,1.2817381620407104,-0.7324218153953552,-2.746581792831421,-0.8363037109375,0.4884033203125,-0.0623779296875
0.079,309,570,713,310,-1.0,38.0,29.0,1.15966796875,-0.7324218153953552,-2.746581792831421,-0.8343505859375,0.486328125,-0.0618896484375
0.092,309,573,711,308,-1.0,38.0,29.0,1.0986328125,-0.9155272841453552,-2.746581792831421,-0.8338623046875,0.4853515625,-0.061767578125
0.120,309,572,711,309,-1.0,38.0,29.0,1.15966796875,-1.15966796875,-2.685546636581421,-0.8355712890625,0.4873046875,-0.0621337890625
0.120,293,575,712,309,-1.0,38.0,29.0,1.220703125,-1.3427733182907104,-2.685546636581421,-0.8377685546875,0.488525390625,-0.0599365234375
0.127,309,575,712,310,-1.0,38.0,29.0,1.220703125,-1.4648436307907104,-2.685546636581421,-0.8387451171875,0.4871826171875,-0.058349609375
0.130,309,575,711,310,-1.0,39.0,26.0,1.220703125,-1.2817381620407104,-2.685546636581421,-0.8402099609375,0.4852294921875,-0.05908203125
0.138,309,576,711,309,-1.0,39.0,26.0,1.15966796875,-1.0986328125,-2.50244140625,-0.8419189453125,0.48388671875,-0.05908203125
0.161,309,578,711,309,-1.0,39.0,26.0,1.220703125,-0.9155272841453552,-2.197265625,-0.8414306640625,0.482666015625,-0.0596923828125
0.161,310,556,711,310,-1.0,39.0,26.0,1.3427733182907104,-0.8544921278953552,-1.9531248807907104,-0.8394775390625,0.4822998046875,-0.06103515625
0.169,309,579,711,309,-1.0,39.0,26.0,1.5258787870407104,-1.15966796875,-1.7089842557907104,-0.8397216796875,0.486083984375,-0.0615234375
0.182,309,586,712,309,-1.0,39.0,26.0,1.7089842557907104,-1.5869139432907104,-1.7089842557907104,-0.8426513671875,0.491943359375,-0.0631103515625
0.191,309,583,710,309,-1.0,39.0,26.0,1.8920897245407104,-1.9531248807907104,-1.8920897245407104,-0.8475341796875,0.49609375,-0.0648193359375
0.214,309,578,710,310,-1.0,39.0,26.0,2.13623046875,-2.3193359375,-2.25830078125,-0.8524169921875,0.5010986328125,-0.0662841796875
0.214,309,576,706,310,-1.0,39.0,26.0,2.624511480331421,-2.746581792831421,-2.746581792831421,-0.8553466796875,0.507080078125,-0.0670166015625
0.220,309,575,702,309,-1.0,39.0,26.0,3.662109136581421,-3.234863042831421,-3.540038824081421,-0.857666015625,0.5107421875,-0.0675048828125
0.229,309,572,697,309,0.0,38.0,27.0,4.8828125,-3.784179449081421,-4.638671875,-0.8614501953125,0.51220703125,-0.069091796875
0.242,309,570,697,309,0.0,38.0,27.0,5.981444835662842,-4.21142578125,-5.920409679412842,-0.86572265625,0.509521484375,-0.072509765625
0.250,309,558,694,309,0.0,38.0,27.0,7.141112804412842,-4.638671875,-7.141112804412842,-0.8681640625,0.5006103515625,-0.075439453125
0.258,310,562,693,310,0.0,38.0,27.0,8.23974609375,-5.187987804412842,-7.934569835662842,-0.867919921875,0.4908447265625,-0.0760498046875
0.273,310,542,687,310,0.0,38.0,27.0,8.97216796875,-5.676269054412842,-8.1787109375,-0.864990234375,0.484375,-0.0728759765625
0.280,309,527,685,308,0.0,38.0,27.0,9.3994140625,-5.859374523162842,-8.1787109375,-0.8607177734375,0.4794921875,-0.066650390625
0.290,311,510,683,310,0.0,38.0,27.0,9.765625,-5.737304210662842,-8.11767578125,-0.85546875,0.4771728515625,-0.0609130859375
0.316,311,506,675,309,0.0,38.0,27.0,10.314940452575684,-5.676269054412842,-8.1787109375,-0.849853515625,0.4761962890625,-0.056640625
0.317,309,506,671,309,0.0,38.0,27.0,11.413573265075684,-5.737304210662842,-8.6669921875,-0.846435546875,0.47509765625,-0.0576171875
0.319,309,501,673,309,0.0,38.0,27.0,13.000487327575684,-6.164550304412842,-9.58251953125,-0.844970703125,0.4788818359375,-0.065185546875
0.333,309,505,667,309,0.0,37.0,26.0,14.648436546325684,-6.896972179412842,-10.864256858825684,-0.84375,0.485107421875,-0.0721435546875
0.342,309,503,669,309,0.0,37.0,26.0,15.808104515075684,-7.690429210662842,-12.329100608825684,-0.8447265625,0.4849853515625,-0.0728759765625
0.349,310,504,668,309,0.0,37.0,26.0,16.357421875,-8.1787109375,-13.732909202575684,-0.8489990234375,0.477783203125,-0.0684814453125
0.362,309,506,673,309,0.0,37.0,26.0,16.6015625,-8.23974609375,-14.953612327575684,-0.853271484375,0.4677734375,-0.0625
0.371,309,497,679,309,0.0,37.0,26.0,17.08984375,-8.1787109375,-16.05224609375,-0.852783203125,0.4595947265625,-0.059814453125
0.378,310,497,675,309,0.0,37.0,26.0,17.7001953125,-8.36181640625,-16.845703125,-0.8497314453125,0.453369140625,-0.059814453125
0.394,309,493,679,309,0.0,37.0,26.0,18.1884765625,-9.033203125,-17.333984375,-0.84716796875,0.44677734375,-0.058837890625
0.420,309,497,683,309,0.0,37.0,26.0,18.6767578125,-9.94873046875,-17.7001953125,-0.847412109375,0.4454345703125,-0.0614013671875
0.420,309,497,683,309,0.0,37.0,26.0,18.6767578125,-9.94873046875,-17.7001953125,-0.8529052734375,0.4561767578125,-0.069091796875
0.422,310,490,685,308,0.0,37.0,26.0,20.01953125,-11.718749046325684,-18.12744140625,-0.8614501953125,0.4693603515625,-0.07421875
0.433,309,487,684,309,-2.0,36.0,32.0,20.141599655151367,-12.023924827575684,-18.4326171875,-0.87060546875,0.47119140625,-0.076171875
0.438,309,481,684,310,-2.0,36.0,32.0,20.141599655151367,-12.023924827575684,-18.4326171875,-0.8779296875,0.4580078125,-0.0745849609375
0.454,309,488,679,309,-2.0,36.0,32.0,18.73779296875,-11.413573265075684,-19.10400390625,-0.8812255859375,0.43408203125,-0.0699462890625
0.460,309,487,679,310,-2.0,36.0,32.0,18.4326171875,-11.352538108825684,-19.47021484375,-0.8839111328125,0.41455078125,-0.0687255859375
0.470,309,483,673,309,-2.0,36.0,32.0,18.4326171875,-11.352538108825684,-19.47021484375,-0.8853759765625,0.4112548828125,-0.0701904296875
0.483,309,467,657,308,-2.0,36.0,32.0,19.4091796875,-11.840819358825684,-20.568845748901367,-0.882568359375,0.416015625,-0.07177734375
0.491,309,469,656,311,-2.0,36.0,32.0,19.47021484375,-11.779784202575684,-21.362302780151367,-0.876220703125,0.4208984375,-0.0731201171875
0.528,309,475,656,312,-2.0,36.0,32.0,19.47021484375,-11.779784202575684,-21.362302780151367,-0.8677978515625,0.427490234375,-0.070556640625
0.529,309,473,644,309,-2.0,36.0,32.0,17.578125,-10.681151390075684,-21.911619186401367,-0.8621826171875,0.4315185546875,-0.06103515625
0.529,309,472,638,308,-2.0,36.0,32.0,16.05224609375,-10.131834983825684,-21.728513717651367,-0.8619384765625,0.4287109375,-0.048828125
0.530,311,467,640,309,-1.0,35.0,28.0,16.05224609375,-10.131834983825684,-21.728513717651367,-0.8638916015625,0.4200439453125,-0.039306640625
0.542,309,472,643,309,-1.0,35.0,28.0,14.526366233825684,-10.009765625,-20.996091842651367,-0.86669921875,0.412109375,-0.036865234375
0.550,309,473,644,309,-1.0,35.0,28.0,15.075682640075684,-10.559081077575684,-20.629880905151367,-0.8709716796875,0.4119873046875,-0.0438232421875
0.558,310,466,645,309,-1.0,35.0,28.0,15.075682640075684,-10.559081077575684,-20.629880905151367,-0.875244140625,0.4169921875,-0.0537109375
0.572,309,466,644,309,-1.0,35.0,28.0,15.563963890075684,-10.803221702575684,-20.202634811401367,-0.87890625,0.4239501953125,-0.055419921875
0.585,310,465,639,309,-1.0,35.0,28.0,13.244627952575684,-9.8876953125,-19.95849609375,-0.8819580078125,0.4290771484375,-0.0504150390625
0.594,309,464,643,309,-1.0,35.0,28.0,13.244627952575684,-9.8876953125,-19.95849609375,-0.882080078125,0.42138671875,-0.048095703125
0.629,309,472,647,310,-1.0,35.0,28.0,6.286620616912842,-7.446288585662842,-19.04296875,-0.8778076171875,0.3994140625,-0.0506591796875
0.630,312,477,625,309,-1.0,35.0,28.0,4.08935546875,-7.385253429412842,-17.9443359375,-0.8709716796875,0.3780517578125,-0.0555419921875
0.631,326,487,651,309,-1.0,35.0,28.0,4.08935546875,-7.385253429412842,-17.9443359375,-0.8656005859375,0.3641357421875,-0.0582275390625
0.633,311,479,652,309,0.0,36.0,30.0,3.173827886581421,-9.46044921875,-15.197752952575684,-0.8641357421875,0.3548583984375,-0.0560302734375
0.640,325,497,652,309,0.0,36.0,30.0,3.051757574081421,-10.375975608825684,-14.465331077575684,-0.866943359375,0.35546875,-0.0482177734375
0.648,323,505,659,309,0.0,36.0,30.0,3.051757574081421,-10.375975608825684,-14.465331077575684,-0.872802734375,0.3609619140625,-0.036865234375
0.662,315,500,673,310,0.0,36.0,30.0,1.4038084745407104,-9.94873046875,-14.099120140075684,-0.877197265625,0.3558349609375,-0.02978515625
0.670,309,493,682,309,0.0,36.0,30.0,0.6713866591453552,-9.09423828125,-13.793944358825684,-0.8758544921875,0.3424072265625,-0.0323486328125
0.681,309,500,683,310,0.0,36.0,30.0,0.6713866591453552,-9.09423828125,-13.793944358825684,-0.8675537109375,0.3333740234375,-0.0362548828125
0.692,308,517,694,310,0.0,36.0,30.0,0.7324218153953552,-9.09423828125,-12.084959983825684,-0.858154296875,0.3294677734375,-0.0355224609375
0.700,309,533,706,309,0.0,36.0,30.0,0.7934569716453552,-9.765625,-11.291502952575684,-0.8575439453125,0.3330078125,-0.0372314453125
0.730,309,533,722,310,0.0,36.0,30.0,0.7934569716453552,-9.765625,-11.291502952575684,-0.8624267578125,0.3472900390625,-0.041748046875
0.730,308,561,741,309,1.0,37.0,31.0,0.2441406100988388,-10.803221702575684,-10.192870140075684,-0.859375,0.3577880859375,-0.0430908203125
0.745,309,575,739,309,1.0,37.0,31.0,-0.54931640625,-10.681151390075684,-9.8876953125,-0.8468017578125,0.3551025390625,-0.0413818359375
0.748,295,591,770,309,1.0,37.0,31.0,-0.54931640625,-10.681151390075684,-9.8876953125,-0.8343505859375,0.343017578125,-0.032470703125
0.751,307,596,793,309,1.0,37.0,31.0,-2.13623046875,-9.94873046875,-9.82666015625,-0.8343505859375,0.343017578125,-0.032470703125
0.762,310,657,833,293,1.0,37.0,31.0,-7.873534679412842,-7.080077648162842,-8.97216796875,-0.8358154296875,0.31298828125,-0.0123291015625
0.770,310,683,858,310,1.0,37.0,31.0,-11.169432640075684,-5.126952648162842,-7.446288585662842,-0.8419189453125,0.314208984375,-0.00732421875
0.781,310,721,904,309,1.0,37.0,31.0,-11.169432640075684,-5.126952648162842,-7.446288585662842,-0.8387451171875,0.316162109375,-0.013427734375
0.797,309,774,943,310,1.0,37.0,31.0,-16.66259765625,-3.601073980331421,-3.417968511581421,-0.8211669921875,0.3114013671875,-0.0233154296875
0.811,311,799,978,309,1.0,37.0,31.0,-16.845703125,-5.493163585662842,-1.8310545682907104,-0.794677734375,0.2935791015625,-0.04833984375
0.827,309,824,1014,310,1.0,37.0,31.0,-16.845703125,-5.493163585662842,-1.8310545682907104,-0.77685546875,0.2916259765625,-0.09375
0.832,309,904,1062,311,1.0,37.0,34.0,-11.535643577575684,-13.366698265075684,1.8310545682907104,-0.766845703125,0.3349609375,-0.09619140625
0.847,287,943,1067,296,1.0,37.0,34.0,-15.014647483825684,-16.6015625,3.662109136581421,-0.76708984375,0.3538818359375,-0.0302734375
0.847,309,996,1159,297,1.0,37.0,34.0,-15.014647483825684,-16.6015625,3.662109136581421,-0.8170166015625,0.326904296875,0.0361328125
0.852,310,1083,1222,310,1.0,37.0,34.0,-29.174802780151367,-13.793944358825684,5.065917491912842,-0.841064453125,0.307861328125,0.0697021484375
0.860,310,1143,1246,311,1.0,37.0,34.0,-34.423828125,-12.329100608825684,6.591796398162842,-0.8016357421875,0.25732421875,0.0723876953125
0.870,309,1220,1287,311,1.0,37.0,34.0,-34.423828125,-12.329100608825684,6.591796398162842,-0.7672119140625,0.1851806640625,0.0174560546875
0.882,310,1315,1369,311,1.0,37.0,34.0,-23.437498092651367,-14.404295921325684,10.742186546325684,-0.7515869140625,0.1658935546875,-0.0736083984375
0.909,311,1357,1416,309,1.0,37.0,34.0,-11.230467796325684,-20.263669967651367,14.343260765075684,-0.77734375,0.2476806640625,-0.09375
0.909,311,1397,1471,311,1.0,37.0,34.0,-11.230467796325684,-20.263669967651367,14.343260765075684,-0.796142578125,0.353271484375,-0.00830078125
0.940,311,1477,1565,311,1.0,37.0,34.0,-12.207030296325684,-32.40966796875,13.305663108825684,-0.8055419921875,0.421630859375,0.095947265625
0.947,311,1516,1616,311,3.0,37.0,31.0,-12.207030296325684,-32.40966796875,13.305663108825684,-0.837890625,0.482177734375,0.1324462890625
0.947,311,1567,1632,311,3.0,37.0,31.0,-18.06640625,-27.893064498901367,8.36181640625,-0.837890625,0.482177734375,0.1324462890625
0.947,309,1648,1782,311,3.0,37.0,31.0,-24.658201217651367,-12.695311546325684,0.9765624403953552,-0.8604736328125,0.42578125,0.0897216796875
0.950,311,1694,1846,311,3.0,37.0,31.0,-24.658201217651367,-12.695311546325684,0.9765624403953552,-0.9075927734375,0.3720703125,0.091796875
0.959,311,1734,1900,312,3.0,37.0,31.0,-23.132322311401367,-11.962889671325684,-1.03759765625,-0.9075927734375,0.3720703125,0.091796875
0.972,312,1846,1983,312,3.0,37.0,31.0,-12.268065452575684,-18.85986328125,-0.6713866591453552,-1.014892578125,0.46826171875,0.1422119140625
0.980,311,1772,2035,312,3.0,37.0,31.0,-12.268065452575684,-18.85986328125,-0.6713866591453552,-1.01025390625,0.525390625,0.2080078125
0.991,311,1791,2061,312,3.0,37.0,31.0,-7.873534679412842,-21.118162155151367,0.4272460639476776,-1.01025390625,0.525390625,0.2080078125
1.002,311,1825,2108,312,3.0,37.0,31.0,-2.13623046875,-13.793944358825684,-2.0751953125,-1.0811767578125,0.5865478515625,0.12646484375
1.010,311,1889,2160,312,3.0,37.0,31.0,-2.13623046875,-13.793944358825684,-2.0751953125,-1.195556640625,0.5880126953125,-0.0152587890625
1.039,311,1878,2202,312,3.0,33.0,35.0,-1.7700194120407104,-6.958007335662842,-2.624511480331421,-1.195556640625,0.5880126953125,-0.0152587890625
1.039,311,1900,2222,312,3.0,33.0,35.0,-13.244627952575684,-0.6103515625,-2.624511480331421,-1.4901123046875,0.279052734375,-0.1610107421875
1.040,311,1907,2145,297,3.0,33.0,35.0,-13.244627952575684,-0.6103515625,-2.624511480331421,-1.3779296875,0.16015625,-0.0628662109375
1.049,310,1909,2162,312,3.0,33.0,35.0,-19.95849609375,3.295898199081421,0.2441406100988388,-1.3779296875,0.16015625,-0.0628662109375
1.062,311,1909,2119,311,3.0,33.0,35.0,-13.061522483825684,7.507323741912842,12.268065452575684,-0.9024658203125,0.443115234375,0.182861328125
1.070,311,1899,2130,312,3.0,33.0,35.0,-13.061522483825684,7.507323741912842,12.268065452575684,-0.9564208984375,0.6680908203125,0.1370849609375
1.079,310,1888,2119,311,3.0,33.0,35.0,-3.173827886581421,11.169432640075684,11.352538108825684,-0.9564208984375,0.6680908203125,0.1370849609375
1.092,310,1846,2091,312,3.0,33.0,35.0,-8.85009765625,19.34814453125,-3.173827886581421,-1.4046630859375,0.6630859375,0.060546875
1.100,309,1817,2063,312,3.0,33.0,35.0,-8.85009765625,19.34814453125,-3.173827886581421,-1.395751953125,0.465576171875,0.129150390625
1.111,311,1785,2012,312,3.0,33.0,35.0,-15.869139671325684,20.507810592651367,-6.286620616912842,-1.395751953125,0.465576171875,0.129150390625
1.146,311,1715,1931,311,3.0,35.0,29.0,-7.873534679412842,22.827146530151367,1.5258787870407104,-1.1546630859375,0.355224609375,0.15283203125
1.146,311,1682,1873,311,3.0,35.0,29.0,-7.873534679412842,22.827146530151367,1.5258787870407104,-1.0916748046875,0.3992919921875,0.073486328125
1.154,311,1635,1807,312,3.0,35.0,29.0,-0.2441406100988388,25.939939498901367,7.934569835662842,-1.0916748046875,0.3992919921875,0.073486328125
1.154,310,1535,1697,311,3.0,35.0,29.0,0.0610351525247097,36.865234375,14.099120140075684,-1.06494140625,0.4202880859375,-0.0948486328125
1.160,311,1485,1585,308,3.0,35.0,29.0,0.0610351525247097,36.865234375,14.099120140075684,-1.0159912109375,0.4510498046875,-0.1112060546875
1.168,310,1444,1504,311,3.0,35.0,29.0,-5.432128429412842,41.870113372802734,15.197752952575684,-1.0159912109375,0.4510498046875,-0.1112060546875
1.182,310,1331,1335,310,3.0,35.0,29.0,-11.718749046325684,47.607418060302734,12.084959983825684,-0.82080078125,0.3985595703125,-0.0750732421875
1.191,310,1278,1266,309,3.0,35.0,29.0,-11.718749046325684,47.607418060302734,12.084959983825684,-0.760986328125,0.3057861328125,-0.0478515625
1.199,309,1222,1206,311,3.0,35.0,29.0,-11.535643577575684,47.241207122802734,8.544921875,-0.760986328125,0.3057861328125,-0.0478515625
1.213,309,1050,1104,311,3.0,38.0,28.0,-7.507323741912842,42.175289154052734,1.9531248807907104,-0.7275390625,0.1422119140625,0.0101318359375
1.255,309,952,1043,309,3.0,38.0,28.0,-7.507323741912842,42.175289154052734,1.9531248807907104,-0.7266845703125,0.12451171875,0.002197265625
1.258,307,888,994,310,3.0,38.0,28.0,-3.540038824081421,40.283199310302734,0.1831054538488388,-0.7266845703125,0.12451171875,0.002197265625
1.260,512,782,899,310,3.0,38.0,28.0,6.652831554412842,35.15625,1.5258787870407104,-0.7237548828125,0.1619873046875,-0.05419921875
1.261,309,750,855,310,3.0,38.0,28.0,6.652831554412842,35.15625,1.5258787870407104,-0.6785888671875,0.2305908203125,-0.087646484375
1.262,310,691,822,307,3.0,38.0,28.0,11.169432640075684,30.334470748901367,5.126952648162842,-0.6785888671875,0.2305908203125,-0.087646484375
1.282,309,654,794,309,3.0,38.0,28.0,13.488768577575684,24.597166061401367,12.207030296325684,-0.58447265625,0.3458251953125,-0.0875244140625
1.282,309,661,774,309,3.0,38.0,28.0,10.498045921325684,16.845703125,18.6767578125,-0.5355224609375,0.4462890625,0.1048583984375
1.289,309,666,775,310,3.0,38.0,28.0,2.868652105331421,8.36181640625,18.73779296875,-0.5355224609375,0.4462890625,0.1048583984375
1.298,308,682,781,310,3.0,38.0,28.0,-3.173827886581421,3.479003667831421,13.488768577575684,-0.5966796875,0.4205322265625,0.1512451171875
1.311,309,734,810,309,2.0,36.0,32.0,-2.746581792831421,3.601073980331421,8.30078125,-0.6849365234375,0.416748046875,0.010009765625
1.320,309,766,823,310,2.0,36.0,32.0,1.4038084745407104,5.187987804412842,6.225585460662842,-0.6849365234375,0.416748046875,0.010009765625
1.347,309,803,846,310,2.0,36.0,32.0,5.065917491912842,4.57763671875,5.981444835662842,-0.743896484375,0.3917236328125,-0.054931640625
1.386,309,854,859,309,2.0,36.0,32.0,7.995604991912842,2.25830078125,6.469726085662842,-0.758544921875,0.3135986328125,-0.146240234375
1.828,309,927,873,311,2.0,36.0,32.0,6.347655773162842,-7.019042491912842,8.544921875,-0.774169921875,0.3526611328125,-0.120849609375
1.830,295,996,922,310,2.0,36.0,32.0,2.746581792831421,-11.413573265075684,8.23974609375,-0.8304443359375,0.42822265625,-0.03662109375
1.830,309,1035,939,310,2.0,36.0,32.0,-2.0751953125,-12.084959983825684,6.958007335662842,-0.8265380859375,0.3955078125,-0.025390625
1.830,309,1091,968,309,2.0,36.0,32.0,-7.568358898162842,-10.253905296325684,5.981444835662842,-0.8265380859375,0.3955078125,-0.025390625
1.830,310,1169,994,311,2.0,36.0,32.0,-12.573241233825684,-8.9111328125,5.981444835662842,-0.7481689453125,0.2744140625,-0.01220703125
1.830,311,1232,1003,310,2.0,37.0,25.0,-15.563963890075684,-9.21630859375,6.347655773162842,-0.7481689453125,0.2744140625,-0.01220703125
1.831,310,1268,1035,311,2.0,37.0,25.0,-14.648436546325684,-10.375975608825684,6.347655773162842,-0.6968994140625,0.244873046875,-0.0572509765625
1.831,310,1355,1085,311,2.0,37.0,25.0,-10.375975608825684,-13.366698265075684,5.371093273162842,-0.703857421875,0.356201171875,-0.0732421875
1.831,308,1391,1157,311,2.0,37.0,25.0,-6.896972179412842,-18.6767578125,2.746581792831421,-0.703857421875,0.356201171875,-0.0732421875
1.832,311,1428,1198,308,2.0,37.0,25.0,-7.080077648162842,-23.864744186401367,-1.3427733182907104,-0.6787109375,0.358154296875,-0.0352783203125
1.832,309,1471,1365,311,2.0,37.0,25.0,-8.4228515625,-26.977537155151367,-4.69970703125,-0.5177001953125,0.24609375,0.0166015625
1.832,311,1560,1473,296,2.0,37.0,25.0,-7.507323741912842,-29.785154342651367,-5.615233898162842,-0.5177001953125,0.24609375,0.0166015625
1.832,310,1588,1574,311,2.0,37.0,25.0,-2.44140625,-34.7900390625,-6.896972179412842,-0.4664306640625,0.273681640625,0.04052734375
1.832,311,1655,1745,311,2.0,37.0,25.0,4.94384765625,-39.9169921875,-12.756346702575684,-0.7366943359375,0.4078369140625,-0.0184326171875
1.832,295,1684,1828,311,2.0,37.0,25.0,7.751464366912842,-41.870113372802734,-20.690916061401367,-0.7366943359375,0.4078369140625,-0.0184326171875
1.832,309,1735,1918,312,3.0,37.0,29.0,4.0283203125,-40.527339935302734,-23.925779342651367,-0.9998779296875,0.5,-0.0498046875
1.832,311,1778,2010,311,3.0,37.0,29.0,-7.690429210662842,-36.2548828125,-7.934569835662842,-1.2620849609375,0.8310546875,0.2110595703125
1.832,309,1798,2056,314,3.0,37.0,29.0,-7.690429210662842,-36.2548828125,-7.934569835662842,-1.2347412109375,0.7977294921875,0.3538818359375
1.832,310,1824,2104,312,3.0,37.0,29.0,-12.207030296325684,-31.494138717651367,-0.8544921278953552,-1.2347412109375,0.7977294921875,0.3538818359375
1.833,309,1819,2148,311,3.0,37.0,29.0,-13.854979515075684,-23.742673873901367,-1.6479490995407104,-1.1807861328125,0.6358642578125,0.4124755859375
1.833,312,1886,2212,312,3.0,37.0,29.0,-10.131834983825684,-16.05224609375,-7.141112804412842,-1.3231201171875,0.55810546875,0.1690673828125
1.833,311,1899,2207,311,3.0,37.0,29.0,1.8310545682907104,-11.352538108825684,-13.122557640075684,-1.3231201171875,0.55810546875,0.1690673828125
1.833,310,1900,2175,312,3.0,37.0,29.0,13.793944358825684,-7.934569835662842,-17.51708984375,-1.51416015625,0.52197265625,-0.099609375
1.834,309,1914,2203,312,3.0,37.0,29.0,17.578125,-2.25830078125,-18.61572265625,-1.333740234375,0.15478515625,-0.379638671875
1.834,311,1905,2215,312,5.0,35.0,31.0,17.88330078125,5.187987804412842,-15.319823265075684,-1.333740234375,0.15478515625,-0.379638671875
1.834,311,1891,2213,312,5.0,35.0,31.0,12.329100608825684,7.202147960662842,-7.751464366912842,-1.3265380859375,0.371337890625,-0.232177734375
1.834,311,1863,2200,312,5.0,35.0,31.0,-1.6479490995407104,2.746581792831421,0.1220703050494194,-1.3463134765625,0.6220703125,0.1845703125
1.834,311,1838,2174,313,5.0,35.0,31.0,-9.8876953125,0.1831054538488388,2.746581792831421,-1.3463134765625,0.6220703125,0.1845703125
1.834,310,1755,2142,312,5.0,35.0,31.0,-5.737304210662842,2.807616949081421,0.1831054538488388,-1.196044921875,0.4537353515625,0.2103271484375
1.834,309,1729,2045,312,5.0,35.0,31.0,3.479003667831421,8.4228515625,-1.9531248807907104,-1.0224609375,0.4552001953125,0.0775146484375
1.834,310,1686,1990,312,5.0,35.0,31.0,8.544921875,14.892577171325684,-0.4882812201976776,-1.0224609375,0.4552001953125,0.0775146484375
1.834,309,1643,1920,312,5.0,35.0,31.0,6.042479991912842,21.667478561401367,2.563476324081421,-1.0306396484375,0.5570068359375,0.0230712890625
1.834,311,1604,1848,311,5.0,35.0,31.0,0.1831054538488388,29.052732467651367,3.784179449081421,-1.0494384765625,0.5614013671875,-0.0166015625
1.835,310,1512,1709,311,5.0,35.0,31.0,-4.33349609375,36.0107421875,3.356933355331421,-1.03369140625,0.494140625,-0.05029296875
1.835,311,1447,1610,311,2.0,36.0,30.0,-6.958007335662842,39.48974609375,3.295898199081421,-0.9718017578125,0.45458984375,-0.0645751953125
1.835,310,1385,1516,311,2.0,36.0,30.0,-7.324218273162842,37.9638671875,2.929687261581421,-0.890380859375,0.445556640625,-0.0491943359375
1.835,310,1248,1367,311,2.0,36.0,30.0,-5.554198741912842,34.423828125,-0.2441406100988388,-0.8297119140625,0.4019775390625,-0.023193359375
1.835,310,1173,1268,311,2.0,36.0,30.0,-4.57763671875,33.50830078125,-5.676269054412842,-0.7840576171875,0.3116455078125,0.0076904296875
1.835,309,1088,1166,311,2.0,36.0,30.0,-4.5166015625,36.1328125,-10.437010765075684,-0.73486328125,0.192626953125,0.0428466796875
1.835,309,916,1062,311,2.0,36.0,30.0,-2.38037109375,39.36767578125,-11.779784202575684,-0.71240234375,0.1082763671875,0.05126953125
1.835,309,884,1005,311,2.0,36.0,30.0,3.601073980331421,40.344234466552734,-9.58251953125,-0.7012939453125,0.08740234375,0.0389404296875
1.835,311,819,955,310,2.0,36.0,30.0,11.047362327575684,37.78076171875,-7.507323741912842,-0.678955078125,0.0931396484375,0.0313720703125
1.835,309,693,882,308,2.0,36.0,30.0,16.41845703125,32.5927734375,-7.385253429412842,-0.6744384765625,0.1400146484375,-0.0164794921875
1.835,309,652,848,310,2.0,36.0,30.0,19.71435546875,27.282712936401367,-5.798339366912842,-0.649169921875,0.2506103515625,-0.0853271484375
1.836,309,617,830,310,-1.0,39.0,33.0,20.141599655151367,20.935056686401367,-1.5258787870407104,-0.597900390625,0.378173828125,-0.0791015625
1.836,310,593,793,309,-1.0,39.0,33.0,15.441893577575684,12.207030296325684,1.03759765625,-0.601318359375,0.43994140625,0.010986328125
1.836,309,576,782,310,-1.0,39.0,33.0,8.056640625,3.784179449081421,-0.7934569716453552,-0.6715087890625,0.4293212890625,0.0948486328125
1.836,310,562,759,309,-1.0,39.0,33.0,4.21142578125,-0.3662109076976776,-3.784179449081421,-0.730712890625,0.4053955078125,0.098876953125
1.858,309,552,739,309,-1.0,39.0,33.0,6.408690929412842,0.30517578125,-4.8828125,-0.7413330078125,0.3843994140625,0.020263671875
1.858,293,562,739,309,-1.0,39.0,33.0,12.756346702575684,3.662109136581421,-4.638671875,-0.7459716796875,0.3553466796875,-0.099853515625
1.858,309,577,750,310,-1.0,39.0,33.0,18.12744140625,6.469726085662842,-4.2724609375,-0.7745361328125,0.3231201171875,-0.186767578125
1.872,309,609,774,308,-1.0,39.0,33.0,17.4560546875,6.164550304412842,-3.845214605331421,-0.82080078125,0.312255859375,-0.2086181640625
1.887,309,640,787,309,-1.0,39.0,33.0,11.047362327575684,2.624511480331421,-2.685546636581421,-0.8577880859375,0.3255615234375,-0.1741943359375
1.887,311,650,792,307,-1.0,39.0,33.0,3.051757574081421,-2.0751953125,-0.9155272841453552,-0.84814453125,0.3114013671875,-0.1153564453125
1.901,310,702,827,310,3.0,35.0,32.0,-2.868652105331421,-5.554198741912842,1.220703125,-0.79931640625,0.270263671875,-0.0816650390625
1.912,310,751,846,309,3.0,35.0,32.0,-5.249022960662842,-7.324218273162842,3.845214605331421,-0.75048828125,0.252685546875,-0.07275390625
1.921,309,780,861,311,3.0,35.0,32.0,-5.615233898162842,-8.544921875,6.286620616912842,-0.7332763671875,0.2689208984375,-0.0616455078125
1.931,310,855,916,310,3.0,35.0,32.0,-6.713866710662842,-9.46044921875,7.934569835662842,-0.742431640625,0.2987060546875,-0.0509033203125
1.955,309,923,951,309,3.0,35.0,32.0,-8.7890625,-9.521484375,8.9111328125,-0.7333984375,0.3135986328125,-0.059326171875
1.956,307,966,1025,311,3.0,35.0,32.0,-10.681151390075684,-9.1552734375,9.70458984375,-0.695068359375,0.306884765625,-0.0916748046875
1.962,310,1098,1195,310,3.0,35.0,32.0,-11.779784202575684,-10.437010765075684,9.8876953125,-0.666015625,0.2958984375,-0.1224365234375
1.970,311,1142,1267,295,3.0,35.0,32.0,-11.962889671325684,-15.624999046325684,8.6669921875,-0.644775390625,0.300048828125,-0.094482421875
1.977,309,1239,1371,312,3.0,35.0,32.0,-12.878417015075684,-24.536130905151367,6.408690929412842,-0.59326171875,0.2891845703125,0.0020751953125
1.993,310,1348,1521,312,3.0,35.0,32.0,-14.831542015075684,-33.69140625,3.784179449081421,-0.533935546875,0.2451171875,0.0906982421875
1.999,309,1416,1607,311,4.0,37.0,26.0,-12.756346702575684,-38.51318359375,1.2817381620407104,-0.5166015625,0.2298583984375,0.1187744140625
2.007,310,1478,1673,312,4.0,37.0,26.0,-5.737304210662842,-38.57421875,-0.30517578125,-0.5882568359375,0.2984619140625,0.0977783203125
2.023,310,1580,1837,311,4.0,37.0,26.0,0.0,-36.56005859375,-0.7324218153953552,-0.7110595703125,0.3785400390625,0.0567626953125
2.035,309,1658,1912,312,4.0,37.0,26.0,2.197265625,-35.15625,-0.4272460639476776,-0.7879638671875,0.380859375,0.0496826171875
2.037,310,1700,1983,311,4.0,37.0,26.0,4.45556640625,-35.888671875,-0.6713866591453552,-0.8258056640625,0.302734375,0.1064453125
2.059,310,1778,2082,311,4.0,37.0,26.0,8.7890625,-37.9638671875,-1.0986328125,-0.9031982421875,0.2247314453125,0.16259765625
2.060,296,1779,2147,312,4.0,37.0,26.0,15.197752952575684,-38.87939453125,1.3427733182907104,-1.039794921875,0.2723388671875,0.1793212890625
2.077,309,1904,2194,313,4.0,37.0,26.0,21.423337936401367,-37.53662109375,7.812499523162842,-1.279296875,0.7529296875,0.0570068359375
2.081,309,1913,2210,313,4.0,37.0,26.0,24.230955123901367,-33.02001953125,14.526366233825684,-1.279296875,0.7529296875,0.0570068359375
2.089,311,1953,2225,312,4.0,37.0,26.0,21.972654342651367,-24.841306686401367,17.88330078125,-1.334228515625,0.94970703125,-0.1239013671875
2.098,311,1989,2238,312,4.0,38.0,28.0,14.038084983825684,-15.869139671325684,15.197752952575684,-1.299560546875,0.8663330078125,-0.2164306640625
2.114,311,2015,2271,311,4.0,38.0,28.0,1.4038084745407104,-10.620116233825684,6.225585460662842,-1.2518310546875,0.614990234375,-0.1448974609375
2.120,311,2024,2275,313,4.0,38.0,28.0,-10.192870140075684,-9.3994140625,-2.3193359375,-1.28125,0.435302734375,-0.0250244140625
2.129,311,2037,2284,311,4.0,38.0,28.0,-13.854979515075684,-7.873534679412842,-4.82177734375,-1.3670654296875,0.3841552734375,0.0169677734375
2.160,310,2023,2254,312,4.0,38.0,28.0,-11.230467796325684,-3.601073980331421,-2.868652105331421,-1.35009765625,0.385986328125,0.0172119140625
2.161,309,2018,2266,312,4.0,38.0,28.0,-6.347655773162842,1.8310545682907104,-0.4272460639476776,-1.13330078125,0.400634765625,0.0218505859375
2.161,308,2008,2272,314,4.0,38.0,28.0,-0.9765624403953552,5.0048828125,0.0610351525247097,-0.980712890625,0.5391845703125,0.0108642578125
2.173,311,1987,2259,312,4.0,38.0,28.0,0.6103515625,5.187987804412842,-3.723144292831421,-1.1383056640625,0.7442626953125,-0.00244140625
2.179,311,1959,2249,312,4.0,38.0,28.0,-4.39453125,5.310058116912842,-10.070799827575684,-1.3873291015625,0.732421875,0.0328369140625
2.193,311,1909,2212,312,3.0,37.0,32.0,-11.413573265075684,7.080077648162842,-13.610838890075684,-1.4462890625,0.481201171875,0.1256103515625
2.206,310,1875,2180,312,3.0,37.0,32.0,-11.962889671325684,9.3994140625,-11.047362327575684,-1.3336181640625,0.23681640625,0.197021484375
2.209,311,1831,2142,311,3.0,37.0,32.0,-2.25830078125,12.145995140075684,-3.906249761581421,-1.18408203125,0.1776123046875,0.163330078125
2.224,311,1785,2039,312,3.0,37.0,32.0,9.82666015625,15.747069358825684,4.39453125,-1.069091796875,0.30810546875,0.0718994140625
2.231,311,1852,1981,312,3.0,37.0,32.0,13.549803733825684,19.6533203125,10.070799827575684,-0.9932861328125,0.4971923828125,-0.0013427734375
2.239,311,1838,1920,313,3.0,37.0,32.0,9.3994140625,23.803709030151367,10.375975608825684,-0.9554443359375,0.6234130859375,-0.056396484375
2.266,311,1781,1874,312,3.0,37.0,32.0,4.33349609375,27.648923873901367,5.310058116912842,-0.947021484375,0.64794921875,-0.10498046875
2.271,3176,3176,1721,311,3.0,37.0,32.0,0.0610351525247097,30.456541061401367,-1.2817381620407104,-0.9453125,0.606201171875,-0.12890625
2.271,311,1411,1628,312,3.0,37.0,32.0,-5.126952648162842,31.372068405151367,-5.371093273162842,-0.930908203125,0.5401611328125,-0.096435546875
2.279,310,1362,1537,311,3.0,37.0,32.0,-9.033203125,31.555173873901367,-6.896972179412842,-0.876708984375,0.426025390625,-0.05126953125
2.291,309,1228,1355,311,3.0,34.0,33.0,-8.72802734375,32.77587890625,-7.568358898162842,-0.7882080078125,0.283935546875,-0.05615234375
2.299,309,1146,1282,311,3.0,34.0,33.0,-5.981444835662842,33.8134765625,-7.873534679412842,-0.7161865234375,0.1763916015625,-0.0836181640625
2.312,309,1050,1192,311,3.0,34.0,33.0,-2.44140625,32.28759765625,-7.263183116912842,-0.6781005859375,0.134033203125,-0.0634765625
2.322,311,922,1085,311,3.0,34.0,33.0,1.8310545682907104,28.381345748901367,-6.408690929412842,-0.6488037109375,0.1280517578125,-0.0008544921875
2.330,307,842,1017,311,3.0,34.0,33.0,6.164550304412842,24.169919967651367,-6.164550304412842,-0.6414794921875,0.1173095703125,0.0352783203125
2.339,309,772,963,306,3.0,34.0,33.0,9.765625,20.568845748901367,-6.530761241912842,-0.6519775390625,0.1298828125,0.03125
2.374,311,680,922,311,3.0,34.0,33.0,11.962889671325684,16.7236328125,-5.737304210662842,-0.651123046875,0.2042236328125,0.014404296875
2.374,311,644,875,310,3.0,34.0,33.0,10.437010765075684,12.329100608825684,-2.685546636581421,-0.6439208984375,0.3126220703125,0.026611328125
2.374,312,652,875,309,3.0,34.0,33.0,4.8828125,8.11767578125,0.4882812201976776,-0.6605224609375,0.3809814453125,0.0596923828125
2.381,309,616,833,309,3.0,34.0,33.0,0.54931640625,5.676269054412842,1.2817381620407104,-0.6990966796875,0.38671875,0.04931640625
2.389,309,601,835,311,2.0,38.0,30.0,0.9765624403953552,4.8828125,0.6713866591453552,-0.7071533203125,0.3729248046875,-0.0252685546875
2.397,310,617,842,311,2.0,38.0,30.0,2.563476324081421,3.540038824081421,0.0,-0.699951171875,0.359130859375,-0.11767578125
2.411,309,630,871,309,2.0,38.0,30.0,2.685546636581421,-0.54931640625,-0.6713866591453552,-0.73876953125,0.3670654296875,-0.165771484375
2.419,309,645,889,310,2.0,38.0,30.0,2.25830078125,-6.835937023162842,-1.220703125,-0.8016357421875,0.4022216796875,-0.1644287109375
2.430,309,666,909,309,2.0,38.0,30.0,0.7324218153953552,-12.084959983825684,-1.7089842557907104,-0.8258056640625,0.4150390625,-0.12353515625
2.442,309,721,929,309,2.0,38.0,30.0,-3.540038824081421,-13.488768577575684,-2.685546636581421,-0.7984619140625,0.357177734375,-0.0428466796875
2.469,310,754,958,310,2.0,38.0,30.0,-8.36181640625,-11.230467796325684,-3.234863042831421,-0.758544921875,0.2579345703125,0.02392578125
2.469,315,780,992,296,2.0,38.0,30.0,-10.559081077575684,-7.690429210662842,-1.4038084745407104,-0.7486572265625,0.2174072265625,0.0147705078125
2.473,311,854,1085,311,2.0,38.0,30.0,-10.253905296325684,-5.981444835662842,2.685546636581421,-0.7677001953125,0.2667236328125,-0.0428466796875
2.482,310,888,1141,312,2.0,38.0,30.0,-10.253905296325684,-5.798339366912842,6.286620616912842,-0.793701171875,0.3187255859375,-0.09130859375
2.488,310,949,1209,311,3.0,33.0,28.0,-12.695311546325684,-5.859374523162842,8.30078125,-0.822509765625,0.3287353515625,-0.1121826171875
2.502,311,1043,1341,311,3.0,33.0,28.0,-17.39501953125,-7.202147960662842,9.94873046875,-0.8367919921875,0.3441162109375,-0.0712890625
2.510,311,1088,1387,311,3.0,33.0,28.0,-22.033689498901367,-10.864256858825684,11.108397483825684,-0.7974853515625,0.369873046875,0.030517578125
2.525,310,1131,1426,311,3.0,33.0,28.0,-24.475095748901367,-14.831542015075684,10.620116233825684,-0.706298828125,0.3509521484375,0.0950927734375
2.532,329,1198,1527,311,3.0,33.0,28.0,-20.996091842651367,-17.4560546875,7.873534679412842,-0.6241455078125,0.301025390625,0.060791015625
2.541,333,1236,1595,310,3.0,33.0,28.0,-9.82666015625,-20.568845748901367,3.845214605331421,-0.608154296875,0.303955078125,-0.010009765625
2.548,321,1300,1662,311,3.0,33.0,28.0,0.0,-26.367185592651367,0.6103515625,-0.6407470703125,0.3280029296875,-0.0396728515625
2.569,310,1395,1783,311,3.0,33.0,28.0,3.173827886581421,-33.02001953125,-1.7089842557907104,-0.640625,0.3125,-0.02099609375
2.570,295,1456,1838,311,3.0,33.0,28.0,5.371093273162842,-36.7431640625,-3.845214605331421,-0.604736328125,0.3004150390625,-0.0037841796875
2.579,311,1501,1909,311,3.0,33.0,28.0,8.97216796875,-37.2314453125,-5.554198741912842,-0.5882568359375,0.300537109375,-0.0086669921875
2.595,311,1573,2035,312,2.0,35.0,33.0,11.718749046325684,-37.78076171875,-7.141112804412842,-0.6103515625,0.2685546875,-0.0025634765625
2.600,311,1613,2100,314,2.0,35.0,33.0,14.038084983825684,-40.466304779052734,-8.9111328125,-0.6939697265625,0.23779296875,0.01318359375
2.608,310,1655,2178,312,2.0,35.0,33.0,19.10400390625,-45.715328216552734,-9.82666015625,-0.8480224609375,0.302001953125,0.049072265625
2.651,311,1725,2271,312,2.0,35.0,33.0,22.399900436401367,-52.001949310302734,-8.30078125,-1.0369873046875,0.5552978515625,0.1229248046875
2.652,311,1757,2311,312,2.0,35.0,33.0,16.357421875,-52.856441497802734,-5.371093273162842,-1.1551513671875,0.822998046875,0.2203369140625
2.652,311,1783,2339,311,2.0,35.0,33.0,7.019042491912842,-43.762203216552734,-5.371093273162842,-1.1876220703125,0.8463134765625,0.2645263671875
2.677,311,1824,2394,314,2.0,35.0,33.0,1.8920897245407104,-22.155759811401367,-12.084959983825684,-1.1903076171875,0.691650390625,0.2315673828125
2.677,311,1820,2415,312,2.0,35.0,33.0,7.629394054412842,-18.49365234375,-15.441893577575684,-1.341552734375,0.6063232421875,0.1280517578125
2.696,311,1831,2354,312,4.0,35.0,36.0,12.573241233825684,-17.63916015625,-17.9443359375,-1.5936279296875,0.4656982421875,0.0372314453125
2.697,311,1791,2316,314,4.0,35.0,36.0,11.718749046325684,-15.930174827575684,-17.822265625,-1.6778564453125,0.1954345703125,-0.014404296875
2.698,311,1843,2351,313,4.0,35.0,36.0,11.962889671325684,-7.141112804412842,-14.221190452575684,-1.508544921875,-0.0355224609375,-0.095458984375
2.712,311,1843,2290,312,4.0,35.0,36.0,9.6435546875,4.57763671875,-3.906249761581421,-1.42333984375,0.1336669921875,-0.09814453125
2.722,311,1837,2269,311,4.0,35.0,36.0,-1.7089842557907104,10.620116233825684,10.864256858825684,-1.4560546875,0.51708984375,0.05126953125
2.790,311,1819,2252,312,4.0,35.0,36.0,-8.85009765625,12.573241233825684,19.83642578125,-1.38916015625,0.64111328125,0.2181396484375
2.792,310,1779,2207,312,4.0,35.0,36.0,-1.220703125,13.916014671325684,18.1884765625,-1.224853515625,0.501220703125,0.321533203125
2.792,311,1739,2119,298,4.0,35.0,36.0,14.038084983825684,15.808104515075684,12.023924827575684,-1.073974609375,0.3685302734375,0.308349609375
2.792,297,1713,2117,312,4.0,35.0,36.0,24.902341842651367,19.59228515625,9.21630859375,-0.98974609375,0.397705078125,0.174072265625
2.792,311,1643,2012,312,4.0,35.0,36.0,24.475095748901367,25.878904342651367,10.314940452575684,-0.9580078125,0.52001953125,-0.0006103515625
2.793,311,1592,1945,312,4.0,36.0,35.0,15.747069358825684,33.26416015625,11.352538108825684,-0.934326171875,0.6126708984375,-0.138427734375
2.793,295,1562,1874,311,4.0,36.0,35.0,6.347655773162842,38.2080078125,9.6435546875,-0.902099609375,0.654052734375,-0.203125
2.802,307,1456,1730,312,4.0,36.0,35.0,-0.1831054538488388,38.14697265625,4.39453125,-0.87646484375,0.6112060546875,-0.1912841796875
2.810,311,1385,1655,312,4.0,36.0,35.0,-4.5166015625,34.85107421875,-2.868652105331421,-0.8668212890625,0.4849853515625,-0.1373291015625
2.820,309,1313,1585,312,4.0,36.0,35.0,-7.385253429412842,31.738279342651367,-8.4228515625,-0.8505859375,0.3619384765625,-0.058837890625
2.832,311,1147,1452,311,4.0,36.0,35.0,-7.995604991912842,30.334470748901367,-11.108397483825684,-0.8074951171875,0.28759765625,0.0343017578125
2.843,311,1047,1355,311,4.0,36.0,35.0,-6.103515148162842,30.822751998901367,-12.207030296325684,-0.765625,0.2413330078125,0.1080322265625
2.851,309,948,1287,311,4.0,36.0,35.0,-2.01416015625,32.5927734375,-12.573241233825684,-0.7413330078125,0.178955078125,0.1346435546875
2.880,309,809,1125,311,4.0,36.0,35.0,3.356933355331421,33.935546875,-11.901854515075684,-0.7337646484375,0.1083984375,0.1168212890625
2.880,309,715,1003,309,4.0,36.0,35.0,8.1787109375,32.470703125,-9.33837890625,-0.733154296875,0.113525390625,0.103515625
2.880,296,684,951,310,3.0,36.0,29.0,11.291502952575684,28.503416061401367,-5.554198741912842,-0.703369140625,0.1978759765625,0.07275390625
2.892,310,586,844,309,3.0,36.0,29.0,14.770506858825684,25.512693405151367,-2.807616949081421,-0.6697998046875,0.3028564453125,0.0009765625
2.900,310,525,782,310,3.0,36.0,29.0,19.10400390625,23.132322311401367,-1.8310545682907104,-0.6688232421875,0.371826171875,-0.043701171875
2.908,310,498,756,310,3.0,36.0,29.0,20.690916061401367,19.1650390625,-2.44140625,-0.6773681640625,0.37353515625,-0.037353515625
2.922,309,447,684,310,3.0,36.0,29.0,17.4560546875,13.488768577575684,-4.45556640625,-0.697265625,0.3497314453125,-0.001953125
2.932,309,439,659,309,3.0,36.0,29.0,11.779784202575684,8.23974609375,-6.408690929412842,-0.7071533203125,0.3316650390625,0.018310546875
2.938,309,437,659,309,3.0,36.0,29.0,11.779784202575684,8.23974609375,-6.408690929412842,-0.694091796875,0.33251953125,-0.034912109375
2.954,307,431,654,309,3.0,36.0,29.0,12.573241233825684,8.9111328125,-5.737304210662842,-0.7196044921875,0.3447265625,-0.144287109375
2.960,310,441,667,309,3.0,36.0,29.0,15.319823265075684,10.131834983825684,-4.82177734375,-0.79248046875,0.3441162109375,-0.228271484375
2.980,310,461,682,309,3.0,36.0,29.0,15.319823265075684,10.131834983825684,-4.82177734375,-0.852294921875,0.334716796875,-0.2303466796875
2.987,308,477,698,310,2.0,37.0,32.0,7.690429210662842,1.5869139432907104,-2.25830078125,-0.864501953125,0.3116455078125,-0.154052734375
2.990,308,487,712,309,2.0,37.0,32.0,1.4648436307907104,-2.807616949081421,-0.0610351525247097,-0.8533935546875,0.2703857421875,-0.0677490234375
2.999,310,506,728,310,2.0,37.0,32.0,1.4648436307907104,-2.807616949081421,-0.0610351525247097,-0.8372802734375,0.2545166015625,-0.0103759765625
3.012,309,545,777,310,2.0,37.0,32.0,-5.126952648162842,-4.0283203125,3.784179449081421,-0.798828125,0.2730712890625,0.0150146484375
3.020,309,563,816,309,2.0,37.0,32.0,-5.432128429412842,-2.746581792831421,5.0048828125,-0.743408203125,0.29833984375,-0.0079345703125
3.028,310,600,861,310,2.0,37.0,32.0,-5.432128429412842,-2.746581792831421,5.0048828125,-0.707275390625,0.326416015625,-0.04833984375
3.045,309,664,989,310,2.0,37.0,32.0,-4.57763671875,-1.9531248807907104,6.530761241912842,-0.704833984375,0.33349609375,-0.0726318359375
3.058,310,721,1039,311,2.0,37.0,32.0,-3.601073980331421,-3.479003667831421,7.141112804412842,-0.723388671875,0.3204345703125,-0.089599609375
3.060,311,747,1112,310,2.0,37.0,32.0,-3.601073980331421,-3.479003667831421,7.141112804412842,-0.7301025390625,0.314697265625,-0.09814453125
3.082,309,883,1278,311,2.0,35.0,31.0,-2.685546636581421,-8.85009765625,10.192870140075684,-0.7186279296875,0.3106689453125,-0.11474609375
3.082,309,948,1386,311,2.0,35.0,31.0,-3.723144292831421,-12.756346702575684,10.742186546325684,-0.720458984375,0.34765625,-0.1246337890625
3.089,311,995,1454,311,2.0,35.0,31.0,-3.723144292831421,-12.756346702575684,10.742186546325684,-0.689697265625,0.40185546875,-0.0596923828125
3.103,310,1097,1579,311,2.0,35.0,31.0,-14.892577171325684,-24.536130905151367,5.981444835662842,-0.613525390625,0.3563232421875,0.0435791015625
3.110,311,1178,1658,311,2.0,35.0,31.0,-21.667478561401367,-26.550291061401367,2.13623046875,-0.562744140625,0.2310791015625,0.099853515625
3.119,310,1264,1719,311,2.0,35.0,31.0,-21.667478561401367,-26.550291061401367,2.13623046875,-0.600830078125,0.1533203125,0.1043701171875
3.132,311,1382,1861,311,2.0,35.0,31.0,-15.686034202575684,-24.414060592651367,0.0610351525247097,-0.7216796875,0.1832275390625,0.0933837890625
3.140,311,1439,1937,312,2.0,35.0,31.0,-10.986327171325684,-24.780271530151367,1.6479490995407104,-0.833251953125,0.23486328125,0.080322265625
3.149,310,1494,2005,312,2.0,35.0,31.0,-10.986327171325684,-24.780271530151367,1.6479490995407104,-0.88671875,0.240478515625,0.0623779296875
3.185,311,1599,2120,311,2.0,35.0,31.0,0.7324218153953552,-26.977537155151367,6.958007335662842,-0.87890625,0.2437744140625,0.0797119140625
3.186,310,1607,2197,311,3.0,36.0,33.0,10.986327171325684,-30.334470748901367,9.765625,-0.8731689453125,0.2718505859375,0.1279296875
3.186,295,1669,2249,311,3.0,36.0,33.0,10.986327171325684,-30.334470748901367,9.765625,-0.935546875,0.3734130859375,0.13427734375
3.192,310,1778,2312,312,3.0,36.0,33.0,26.306150436401367,-35.33935546875,11.474608421325684,-1.063232421875,0.6138916015625,0.103271484375
3.201,311,1803,2340,312,3.0,36.0,33.0,29.663084030151367,-32.2265625,14.038084983825684,-1.1785888671875,0.88720703125,0.0947265625
3.208,311,1828,2360,312,3.0,36.0,33.0,29.663084030151367,-32.2265625,14.038084983825684,-1.2103271484375,0.947265625,0.0933837890625
3.222,310,1873,2367,312,3.0,36.0,33.0,20.690916061401367,-14.160155296325684,11.901854515075684,-1.20166015625,0.720703125,0.0562744140625
3.230,311,1888,2376,313,3.0,36.0,33.0,13.916014671325684,-5.859374523162842,7.385253429412842,-1.2301025390625,0.4234619140625,-0.05224609375
3.238,311,1910,2376,312,3.0,36.0,33.0,13.916014671325684,-5.859374523162842,7.385253429412842,-1.320068359375,0.32861328125,-0.178955078125
3.252,311,1927,2360,312,3.0,36.0,33.0,9.09423828125,0.8544921278953552,8.7890625,-1.4049072265625,0.4327392578125,-0.2152099609375
3.303,311,1929,2334,314,3.0,36.0,33.0,5.187987804412842,0.0,10.375975608825684,-1.351318359375,0.5322265625,-0.1571044921875
3.305,311,1913,2316,312,-2.0,37.0,34.0,5.187987804412842,0.0,10.375975608825684,-1.123779296875,0.5384521484375,-0.07763671875
3.305,310,1865,2296,314,-2.0,37.0,34.0,3.845214605331421,-3.356933355331421,1.0986328125,-0.96484375,0.576416015625,-0.0302734375
3.305,311,1898,2339,312,-2.0,37.0,34.0,1.5258787870407104,-2.990722417831421,-5.554198741912842,-1.09375,0.680419921875,-0.0020751953125
3.305,295,1886,2328,312,-2.0,37.0,34.0,1.5258787870407104,-2.990722417831421,-5.554198741912842,-1.3428955078125,0.6773681640625,0.0430908203125
3.312,311,1838,2303,312,-2.0,37.0,34.0,-14.526366233825684,4.94384765625,-11.047362327575684,-1.4327392578125,0.5089111328125,0.1298828125
3.320,310,1808,2278,312,-2.0,37.0,34.0,-15.624999046325684,9.21630859375,-7.568358898162842,-1.3260498046875,0.302734375,0.2012939453125
3.328,310,1781,2246,313,-2.0,37.0,34.0,-15.624999046325684,9.21630859375,-7.568358898162842,-1.15234375,0.2242431640625,0.1824951171875
3.342,311,1730,2160,312,-2.0,37.0,34.0,-1.5258787870407104,20.263669967651367,5.065917491912842,-1.0260009765625,0.3175048828125,0.0916748046875
3.350,311,1686,2114,312,-2.0,37.0,34.0,1.4038084745407104,26.062009811401367,9.521484375,-0.9744873046875,0.48046875,-0.01416015625
3.358,311,1643,2037,312,-2.0,37.0,34.0,1.4038084745407104,26.062009811401367,9.521484375,-0.95263671875,0.59130859375,-0.10302734375
3.394,311,1580,1939,311,2.0,35.0,28.0,0.4882812201976776,29.846189498901367,3.967284917831421,-0.9378662109375,0.61865234375,-0.1446533203125
3.395,311,1526,1870,313,2.0,35.0,28.0,-2.624511480331421,29.174802780151367,-0.6713866591453552,-0.948974609375,0.5909423828125,-0.1217041015625
3.395,310,1469,1788,312,2.0,35.0,28.0,-2.624511480331421,29.174802780151367,-0.6713866591453552,-0.9593505859375,0.5196533203125,-0.0675048828125
3.402,311,1361,1628,311,2.0,35.0,28.0,-13.305663108825684,31.860349655151367,-3.540038824081421,-0.909912109375,0.41552734375,-0.0201416015625
3.410,310,1276,1526,312,2.0,35.0,28.0,-13.854979515075684,35.70556640625,-3.112792730331421,-0.8153076171875,0.337158203125,0.0162353515625
3.418,309,1185,1385,312,2.0,35.0,28.0,-13.854979515075684,35.70556640625,-3.112792730331421,-0.8153076171875,0.337158203125,0.0162353515625
3.432,311,1022,1232,311,2.0,35.0,28.0,-6.652831554412842,40.344234466552734,-3.967284917831421,-0.7125244140625,0.2646484375,0.0391845703125
3.440,311,913,1104,311,2.0,35.0,28.0,-6.652831554412842,40.344234466552734,-3.967284917831421,-0.6942138671875,0.2158203125,0.0438232421875
3.448,309,808,1012,310,2.0,35.0,28.0,-3.540038824081421,40.10009765625,-5.493163585662842,-0.6942138671875,0.2158203125,0.0438232421875
3.462,310,671,882,311,2.0,35.0,28.0,0.6103515625,32.89794921875,-6.286620616912842,-0.6177978515625,0.1781005859375,0.050048828125
3.470,309,625,814,310,1.0,36.0,28.0,0.6103515625,32.89794921875,-6.286620616912842,-0.6082763671875,0.2081298828125,0.0458984375
3.499,309,561,745,309,1.0,36.0,28.0,3.601073980331421,26.428220748901367,-5.432128429412842,-0.6082763671875,0.2081298828125,0.0458984375
3.499,341,519,656,311,1.0,36.0,28.0,15.380858421325684,17.822265625,-4.33349609375,-0.6558837890625,0.26513671875,-0.0538330078125
3.500,309,483,633,309,1.0,36.0,28.0,15.380858421325684,17.822265625,-4.33349609375,-0.667236328125,0.335693359375,-0.110107421875
3.508,309,493,631,309,1.0,36.0,28.0,20.568845748901367,17.88330078125,-0.30517578125,-0.667236328125,0.335693359375,-0.110107421875
3.522,309,500,643,310,1.0,36.0,28.0,17.76123046875,13.610838890075684,4.2724609375,-0.7158203125,0.450439453125,-0.10498046875
3.531,309,509,651,311,1.0,36.0,28.0,17.76123046875,13.610838890075684,4.2724609375,-0.746337890625,0.44091796875,-0.114990234375
3.538,309,527,651,309,1.0,36.0,28.0,13.916014671325684,10.253905296325684,1.4038084745407104,-0.746337890625,0.44091796875,-0.114990234375
3.552,309,555,698,310,1.0,36.0,28.0,6.164550304412842,6.042479991912842,-6.774901866912842,-0.8045654296875,0.3642578125,-0.16455078125
3.560,310,589,738,310,1.0,36.0,28.0,6.164550304412842,6.042479991912842,-6.774901866912842,-0.8089599609375,0.318115234375,-0.1544189453125
3.570,309,628,759,309,1.0,37.0,29.0,1.6479490995407104,3.601073980331421,-7.995604991912842,-0.8089599609375,0.318115234375,-0.1544189453125
3.597,310,665,809,310,1.0,37.0,29.0,-8.72802734375,0.54931640625,-2.13623046875,-0.79052734375,0.2646484375,-0.101318359375
3.597,310,708,854,310,1.0,37.0,29.0,-8.72802734375,0.54931640625,-2.13623046875,-0.7716064453125,0.274169921875,-0.07080078125
3.599,309,758,913,311,1.0,37.0,29.0,-14.465331077575684,0.2441406100988388,2.685546636581421,-0.7716064453125,0.274169921875,-0.07080078125
3.614,309,842,1050,310,1.0,37.0,29.0,-19.1650390625,-2.624511480331421,8.1787109375,-0.7894287109375,0.3343505859375,-0.114013671875
3.621,309,875,1129,311,1.0,37.0,29.0,-19.1650390625,-2.624511480331421,8.1787109375,-0.7889404296875,0.37353515625,-0.1474609375
3.628,309,935,1194,311,1.0,37.0,29.0,-17.578125,-6.835937023162842,8.6669921875,-0.7889404296875,0.37353515625,-0.1474609375
3.642,309,1048,1305,311,1.0,37.0,29.0,-19.47021484375,-13.549803733825684,7.446288585662842,-0.745849609375,0.3271484375,-0.1021728515625
3.650,309,1103,1355,312,1.0,37.0,29.0,-19.47021484375,-13.549803733825684,7.446288585662842,-0.7418212890625,0.3167724609375,-0.0531005859375
3.660,310,1151,1417,311,1.0,37.0,29.0,-24.108884811401367,-14.770506858825684,9.033203125,-0.7418212890625,0.3167724609375,-0.0531005859375
3.672,310,1284,1552,311,3.0,36.0,30.0,-28.259275436401367,-18.4326171875,10.986327171325684,-0.688232421875,0.322265625,0.030029296875
3.703,311,1348,1613,311,3.0,36.0,30.0,-28.259275436401367,-18.4326171875,10.986327171325684,-0.6661376953125,0.3165283203125,0.0357666015625
3.703,309,1397,1673,297,3.0,36.0,30.0,-23.742673873901367,-23.071287155151367,7.629394054412842,-0.6661376953125,0.3165283203125,0.0357666015625
3.703,310,1512,1774,311,3.0,36.0,30.0,-10.864256858825684,-32.71484375,2.13623046875,-0.6524658203125,0.291259765625,-0.0225830078125
3.710,310,1575,1858,312,3.0,36.0,30.0,-10.864256858825684,-32.71484375,2.13623046875,-0.7171630859375,0.315673828125,-0.0035400390625
3.722,311,1613,1944,312,3.0,36.0,30.0,-3.540038824081421,-34.97314453125,1.8310545682907104,-0.7171630859375,0.315673828125,-0.0035400390625
3.732,311,1697,2065,312,3.0,36.0,30.0,-4.45556640625,-29.663084030151367,3.234863042831421,-0.8045654296875,0.2635498046875,0.06396484375
3.740,310,1750,2142,312,3.0,36.0,30.0,-4.45556640625,-29.663084030151367,3.234863042831421,-0.8695068359375,0.3201904296875,0.0458984375
3.748,311,1791,2209,312,3.0,36.0,30.0,-5.065917491912842,-26.306150436401367,5.859374523162842,-0.8695068359375,0.3201904296875,0.0458984375
3.762,311,1850,2280,312,4.0,37.0,31.0,6.164550304412842,-29.479978561401367,8.30078125,-0.9822998046875,0.64990234375,-0.013671875
3.773,311,1886,2325,314,4.0,37.0,31.0,6.164550304412842,-29.479978561401367,8.30078125,-1.02490234375,0.7716064453125,-0.0189208984375
3.778,309,1914,2364,312,4.0,37.0,31.0,15.624999046325684,-32.3486328125,3.845214605331421,-1.02490234375,0.7716064453125,-0.0189208984375
3.806,311,1957,2415,313,4.0,37.0,31.0,13.366698265075684,-29.846189498901367,-8.60595703125,-1.19580078125,0.7071533203125,0.048095703125
3.807,311,1925,2391,314,4.0,37.0,31.0,13.366698265075684,-29.846189498901367,-8.60595703125,-1.2705078125,0.555419921875,0.0401611328125
3.808,311,1981,2461,314,4.0,37.0,31.0,4.5166015625,-25.573728561401367,-11.047362327575684,-1.2705078125,0.555419921875,0.0401611328125
3.822,311,1996,2502,312,4.0,37.0,31.0,-0.1831054538488388,-18.310546875,-7.019042491912842,-1.36279296875,0.6007080078125,-0.123291015625
3.833,311,1994,2501,314,4.0,37.0,31.0,-0.1831054538488388,-18.310546875,-7.019042491912842,-1.356689453125,0.6387939453125,-0.08837890625
3.838,311,1985,2493,312,4.0,37.0,31.0,0.0610351525247097,-17.2119140625,-7.629394054412842,-1.356689453125,0.6387939453125,-0.08837890625
3.852,312,1968,2504,312,4.0,37.0,31.0,-2.990722417831421,-9.94873046875,-18.12744140625,-1.124267578125,0.404296875,0.0694580078125
3.860,311,1966,2507,313,4.0,35.0,30.0,-2.990722417831421,-9.94873046875,-18.12744140625,-1.251220703125,0.4532470703125,0.0745849609375
3.868,311,1943,2493,314,4.0,35.0,30.0,-5.676269054412842,-4.33349609375,-19.22607421875,-1.251220703125,0.4532470703125,0.0745849609375
3.892,311,1905,2474,312,4.0,35.0,30.0,-15.624999046325684,7.263183116912842,-10.314940452575684,-1.349365234375,0.427490234375,0.1214599609375
3.900,311,1888,2461,313,4.0,35.0,30.0,-15.624999046325684,7.263183116912842,-10.314940452575684,-1.214599609375,0.31494140625,0.1710205078125
3.901,311,1858,2430,314,4.0,35.0,30.0,-14.953612327575684,10.986327171325684,-5.249022960662842,-1.214599609375,0.31494140625,0.1710205078125
3.912,311,1796,2345,313,4.0,35.0,30.0,-8.85009765625,13.916014671325684,-0.4882812201976776,-1.0625,0.4293212890625,0.031982421875
3.920,311,1755,2287,314,4.0,35.0,30.0,-0.54931640625,18.24951171875,4.08935546875,-1.0625,0.4293212890625,0.031982421875
3.928,312,1700,2220,314,4.0,35.0,30.0,3.601073980331421,22.766111373901367,6.652831554412842,-1.039306640625,0.534423828125,-0.058349609375
3.946,311,1619,2093,312,4.0,35.0,30.0,2.50244140625,26.000974655151367,5.737304210662842,-0.96435546875,0.4686279296875,-0.061767578125
3.950,311,1572,2014,311,4.0,35.0,30.0,1.4038084745407104,27.832029342651367,2.807616949081421,-0.96435546875,0.4686279296875,-0.061767578125
3.958,311,1514,1929,311,4.0,38.0,29.0,1.7700194120407104,28.015134811401367,0.4882812201976776,-0.9171142578125,0.4300537109375,-0.0289306640625
3.972,311,1388,1778,312,4.0,38.0,29.0,1.0986328125,28.137205123901367,-0.7324218153953552,-0.849853515625,0.429443359375,-0.0076904296875
3.982,310,1305,1686,311,4.0,38.0,29.0,-1.3427733182907104,29.785154342651367,-1.8920897245407104,-0.849853515625,0.429443359375,-0.0076904296875
4.003,309,1206,1593,311,4.0,38.0,29.0,-3.479003667831421,32.28759765625,-3.479003667831421,-0.82861328125,0.4097900390625,-0.0101318359375
4.003,311,1010,1411,311,4.0,38.0,29.0,-3.234863042831421,33.935546875,-5.554198741912842,-0.7587890625,0.3011474609375,0.0068359375
4.018,309,922,1292,310,4.0,38.0,29.0,-1.5869139432907104,33.99658203125,-7.141112804412842,-0.7587890625,0.3011474609375,0.0068359375
4.019,297,816,1173,311,4.0,38.0,29.0,0.9765624403953552,32.958984375,-7.568358898162842,-0.6962890625,0.2054443359375,0.03515625
4.032,309,726,1018,309,4.0,38.0,29.0,5.249022960662842,31.127927780151367,-6.530761241912842,-0.58740234375,0.1748046875,0.09423828125
4.040,310,659,927,313,4.0,38.0,29.0,10.864256858825684,27.648923873901367,-4.57763671875,-0.58740234375,0.1748046875,0.09423828125
4.048,309,609,882,310,4.0,38.0,29.0,16.845703125,22.583005905151367,-4.45556640625,-0.6080322265625,0.271728515625,0.073486328125
4.062,310,552,794,310,0.0,36.0,26.0,20.751951217651367,16.9677734375,-6.896972179412842,-0.6915283203125,0.346923828125,-0.0052490234375
4.070,309,532,756,309,0.0,36.0,26.0,20.568845748901367,12.207030296325684,-9.70458984375,-0.6915283203125,0.346923828125,-0.0052490234375
4.082,309,523,741,310,0.0,36.0,26.0,18.12744140625,9.27734375,-10.009765625,-0.6614990234375,0.3258056640625,-0.0531005859375
4.107,309,549,758,310,0.0,36.0,26.0,17.333984375,8.056640625,-7.446288585662842,-0.6397705078125,0.3385009765625,-0.1512451171875
4.108,309,558,780,309,0.0,36.0,26.0,19.53125,7.934569835662842,-5.126952648162842,-0.6397705078125,0.3385009765625,-0.1512451171875
4.109,309,582,815,309,0.0,36.0,26.0,20.812986373901367,6.896972179412842,-5.0048828125,-0.717529296875,0.36083984375,-0.16796875
4.122,310,645,873,309,0.0,36.0,26.0,17.63916015625,4.21142578125,-6.042479991912842,-0.8038330078125,0.32080078125,-0.1097412109375
4.130,309,689,943,309,0.0,36.0,26.0,11.535643577575684,0.9765624403953552,-6.530761241912842,-0.8038330078125,0.32080078125,-0.1097412109375
4.138,309,744,1009,311,0.0,36.0,26.0,5.187987804412842,-1.03759765625,-5.126952648162842,-0.7578125,0.25244140625,-0.0821533203125
4.156,309,847,1141,311,3.0,37.0,28.0,-0.54931640625,-1.4038084745407104,-0.9765624403953552,-0.703857421875,0.1905517578125,-0.1060791015625
4.163,309,909,1213,310,3.0,37.0,28.0,-5.493163585662842,-1.5258787870407104,4.94384765625,-0.703857421875,0.1905517578125,-0.1060791015625
4.171,311,966,1278,311,3.0,37.0,28.0,-9.82666015625,-3.417968511581421,10.803221702575684,-0.7215576171875,0.2454833984375,-0.1331787109375
4.182,310,1087,1382,311,3.0,37.0,28.0,-14.526366233825684,-6.958007335662842,14.953612327575684,-0.6929931640625,0.3531494140625,-0.1240234375
4.208,311,1182,1447,312,3.0,37.0,28.0,-18.310546875,-10.192870140075684,16.41845703125,-0.6929931640625,0.3531494140625,-0.1240234375
4.208,294,1201,1523,310,3.0,37.0,28.0,-19.8974609375,-12.573241233825684,14.831542015075684,-0.671875,0.3785400390625,-0.08203125
4.212,311,1334,1656,311,3.0,37.0,28.0,-22.888181686401367,-14.892577171325684,10.620116233825684,-0.615478515625,0.3094482421875,0.01171875
4.220,311,1409,1739,312,3.0,37.0,28.0,-29.235837936401367,-18.00537109375,5.615233898162842,-0.615478515625,0.3094482421875,0.01171875
4.235,310,1466,1833,311,3.0,37.0,28.0,-32.3486328125,-21.423337936401367,2.01416015625,-0.625244140625,0.2784423828125,0.0211181640625
4.242,310,3176,1957,311,3.0,37.0,28.0,-30.029294967651367,-23.498533248901367,0.54931640625,-0.73779296875,0.22119140625,0.0203857421875
4.250,311,1819,2024,312,1.0,38.0,31.0,-27.160642623901367,-24.719236373901367,1.7089842557907104,-0.73779296875,0.22119140625,0.0203857421875
4.258,311,1894,2105,312,1.0,38.0,31.0,-25.390623092651367,-26.550291061401367,5.859374523162842,-0.7796630859375,0.1708984375,0.05078125
4.272,311,1996,2207,312,1.0,38.0,31.0,-20.324705123901367,-29.663084030151367,11.108397483825684,-0.82958984375,0.2144775390625,0.19677734375
4.286,310,2020,2275,312,1.0,38.0,31.0,-7.873534679412842,-33.203125,13.366698265075684,-0.82958984375,0.2144775390625,0.19677734375
4.290,310,2060,2325,312,1.0,38.0,31.0,8.1787109375,-34.0576171875,11.657713890075684,-0.915771484375,0.32373046875,0.19873046875
4.310,311,2113,2381,312,1.0,38.0,31.0,20.263669967651367,-32.16552734375,9.82666015625,-1.0797119140625,0.58837890625,0.1214599609375
4.311,311,2147,2412,297,1.0,38.0,31.0,26.428220748901367,-30.822751998901367,11.596678733825684,-1.0797119140625,0.58837890625,0.1214599609375
4.318,311,2194,2428,314,1.0,38.0,31.0,29.174802780151367,-31.982419967651367,16.66259765625,-1.0877685546875,0.7525634765625,0.1187744140625
4.339,311,2225,2463,313,1.0,38.0,31.0,31.555173873901367,-32.77587890625,19.34814453125,-1.2679443359375,0.93115234375,-0.2069091796875
4.340,309,2263,2486,313,1.0,38.0,31.0,35.58349609375,-27.343748092651367,15.014647483825684,-1.2679443359375,0.93115234375,-0.2069091796875
4.352,310,2252,2507,313,1.0,36.0,27.0,32.3486328125,-17.7001953125,5.920409679412842,-1.35205078125,0.8624267578125,-0.336669921875
4.364,310,2306,2555,312,1.0,36.0,27.0,12.573241233825684,-10.620116233825684,-3.540038824081421,-1.3775634765625,0.4774169921875,-0.0810546875
4.371,311,2317,2568,314,1.0,36.0,27.0,-10.314940452575684,-8.23974609375,-11.840819358825684,-1.3775634765625,0.4774169921875,-0.0810546875
4.378,311,2260,2565,312,1.0,36.0,27.0,-16.2353515625,-7.873534679412842,-18.73779296875,-1.345947265625,0.3797607421875,-0.0150146484375
4.413,311,2238,2576,314,1.0,36.0,27.0,-7.568358898162842,-7.812499523162842,-21.484373092651367,-1.0318603515625,0.4859619140625,0.009521484375
4.413,311,2226,2576,311,1.0,36.0,27.0,1.03759765625,-8.60595703125,-20.751951217651367,-1.0318603515625,0.4859619140625,0.009521484375
4.414,311,2209,2567,312,1.0,36.0,27.0,1.03759765625,-8.056640625,-20.080564498901367,-1.181396484375,0.6749267578125,0.0203857421875
4.422,311,2172,2549,312,1.0,36.0,27.0,-7.568358898162842,-3.906249761581421,-20.080564498901367,-1.389892578125,0.693359375,0.052978515625
4.430,311,2129,2538,312,1.0,36.0,27.0,-15.563963890075684,1.5869139432907104,-19.34814453125,-1.39404296875,0.4764404296875,0.1231689453125
4.442,311,2091,2511,313,1.0,36.0,27.0,-14.709471702575684,5.187987804412842,-16.05224609375,-1.253173828125,0.2567138671875,0.1944580078125
4.452,311,2034,2443,312,-1.0,34.0,31.0,-5.249022960662842,7.873534679412842,-9.82666015625,-1.1138916015625,0.1990966796875,0.200927734375
4.460,309,1989,2392,312,-1.0,34.0,31.0,5.371093273162842,11.962889671325684,-2.0751953125,-1.033203125,0.3018798828125,0.1307373046875
4.468,311,1900,2340,314,-1.0,34.0,31.0,9.27734375,17.63916015625,3.906249761581421,-0.9959716796875,0.4454345703125,0.0367431640625
4.482,311,1825,2247,313,-1.0,34.0,31.0,6.225585460662842,24.108884811401367,5.310058116912842,-0.975341796875,0.52197265625,-0.03662109375
4.490,311,1755,2178,311,-1.0,34.0,31.0,1.220703125,30.212400436401367,2.624511480331421,-0.958984375,0.5299072265625,-0.087890625
4.517,311,1697,2104,312,-1.0,34.0,31.0,-2.44140625,34.97314453125,-1.15966796875,-0.9266357421875,0.5089111328125,-0.114501953125
4.517,311,1630,2024,312,-1.0,34.0,31.0,-5.249022960662842,37.353515625,-4.150390625,-0.8760986328125,0.4610595703125,-0.090576171875
4.521,312,1492,1894,312,-1.0,34.0,31.0,-8.056640625,38.330078125,-6.164550304412842,-0.8331298828125,0.3729248046875,-0.0411376953125
4.529,309,1401,1810,312,-1.0,34.0,31.0,-9.70458984375,39.61181640625,-7.080077648162842,-0.8106689453125,0.2779541015625,0.0028076171875
4.537,310,1294,1725,314,-1.0,34.0,31.0,-9.8876953125,40.893550872802734,-7.080077648162842,-0.7918701171875,0.197509765625,0.0438232421875
4.551,310,1101,1584,311,2.0,35.0,31.0,-8.97216796875,41.137691497802734,-6.469726085662842,-0.77978515625,0.1412353515625,0.071044921875
4.560,309,1014,1504,311,2.0,35.0,31.0,-6.835937023162842,40.405269622802734,-4.8828125,-0.7744140625,0.1263427734375,0.0758056640625
4.567,309,923,1430,312,2.0,35.0,31.0,-3.540038824081421,38.818359375,-2.3193359375,-0.736328125,0.1353759765625,0.0595703125
4.581,309,822,1213,310,2.0,35.0,31.0,0.1831054538488388,36.1328125,0.7934569716453552,-0.6982421875,0.166015625,0.0142822265625
4.592,311,754,1127,311,2.0,35.0,31.0,5.981444835662842,32.77587890625,3.906249761581421,-0.6798095703125,0.23046875,-0.0482177734375
4.597,311,715,1062,311,2.0,35.0,31.0,14.587401390075684,28.808591842651367,6.713866710662842,-0.6373291015625,0.3416748046875,-0.0806884765625
4.624,309,682,994,311,2.0,35.0,31.0,20.263669967651367,22.888181686401367,8.30078125,-0.6031494140625,0.47998046875,-0.04052734375
4.624,309,665,916,307,2.0,35.0,31.0,17.51708984375,15.502928733825684,5.859374523162842,-0.6187744140625,0.544921875,0.0303955078125
4.627,312,640,901,309,2.0,35.0,31.0,10.803221702575684,10.864256858825684,-0.7934569716453552,-0.6575927734375,0.481689453125,0.0281982421875
4.641,310,636,884,311,2.0,38.0,31.0,9.33837890625,11.413573265075684,-7.324218273162842,-0.6878662109375,0.3770751953125,-0.0765380859375
4.656,310,650,897,309,2.0,38.0,31.0,13.916014671325684,13.427733421325684,-10.253905296325684,-0.7230224609375,0.3258056640625,-0.1998291015625
4.658,308,669,917,311,2.0,38.0,31.0,17.4560546875,11.779784202575684,-9.94873046875,-0.7786865234375,0.340576171875,-0.253662109375
4.671,309,711,976,309,2.0,38.0,31.0,15.441893577575684,6.103515148162842,-7.934569835662842,-0.8338623046875,0.3597412109375,-0.2327880859375
4.679,311,726,1010,310,2.0,38.0,31.0,8.4228515625,0.1220703050494194,-5.859374523162842,-0.86279296875,0.3233642578125,-0.1676025390625
4.687,309,766,1057,311,2.0,38.0,31.0,-0.0610351525247097,-2.990722417831421,-3.723144292831421,-0.845703125,0.253173828125,-0.0858154296875
4.721,310,828,1129,311,2.0,38.0,31.0,-6.347655773162842,-2.868652105331421,-0.30517578125,-0.804931640625,0.20458984375,-0.0382080078125
4.721,310,845,1182,295,2.0,38.0,31.0,-9.521484375,-1.7700194120407104,4.150390625,-0.775634765625,0.2183837890625,-0.050048828125
4.721,309,914,1239,311,2.0,38.0,31.0,-10.986327171325684,-2.3193359375,7.934569835662842,-0.7572021484375,0.2799072265625,-0.087890625
4.734,309,1005,1340,311,2.0,38.0,31.0,-11.779784202575684,-5.0048828125,9.521484375,-0.7509765625,0.335205078125,-0.1279296875
4.740,310,1043,1397,311,3.0,38.0,28.0,-12.390135765075684,-8.23974609375,9.58251953125,-0.7557373046875,0.3531494140625,-0.1705322265625
4.747,310,1117,1440,311,3.0,38.0,28.0,-13.732909202575684,-11.169432640075684,9.70458984375,-0.7635498046875,0.3369140625,-0.1944580078125
4.762,310,1239,1512,311,3.0,38.0,28.0,-16.845703125,-14.404295921325684,10.864256858825684,-0.7454833984375,0.319580078125,-0.169189453125
4.769,310,1320,1578,311,3.0,38.0,28.0,-21.118162155151367,-18.98193359375,12.023924827575684,-0.6873779296875,0.32470703125,-0.100830078125
4.777,309,1395,1658,311,3.0,38.0,28.0,-23.254392623901367,-24.353025436401367,10.070799827575684,-0.6153564453125,0.3359375,-0.018798828125
4.791,310,1504,1778,312,3.0,38.0,28.0,-22.644041061401367,-28.869626998901367,4.638671875,-0.5555419921875,0.332275390625,0.0396728515625
4.799,311,1590,1860,312,3.0,38.0,28.0,-21.484373092651367,-31.188962936401367,-1.2817381620407104,-0.5360107421875,0.305419921875,0.0501708984375
4.824,311,1700,1969,312,3.0,38.0,28.0,-18.6767578125,-31.738279342651367,-4.8828125,-0.5958251953125,0.2896728515625,0.051025390625
4.824,311,1782,2043,312,3.0,38.0,28.0,-16.90673828125,-31.372068405151367,-5.0048828125,-0.7161865234375,0.2799072265625,0.0606689453125
4.829,309,1847,2104,312,3.0,38.0,28.0,-19.71435546875,-29.846189498901367,-1.4648436307907104,-0.80419921875,0.2281494140625,0.058349609375
4.849,311,1965,2215,314,4.0,32.0,30.0,-20.568845748901367,-28.442380905151367,3.723144292831421,-0.8233642578125,0.1767578125,0.069580078125
4.852,310,1981,2268,312,4.0,32.0,30.0,-14.465331077575684,-29.724119186401367,7.934569835662842,-0.8297119140625,0.177978515625,0.123046875
4.859,310,2068,2334,312,4.0,32.0,30.0,-2.990722417831421,-33.38623046875,8.85009765625,-0.88330078125,0.2703857421875,0.1614990234375
4.875,310,2117,2417,311,4.0,32.0,30.0,10.192870140075684,-36.68212890625,6.774901866912842,-0.98779296875,0.45654296875,0.16650390625
4.881,311,2153,2456,312,4.0,32.0,30.0,20.874021530151367,-37.65869140625,3.967284917831421,-1.0853271484375,0.6422119140625,0.168212890625
4.890,309,2194,2479,312,4.0,32.0,30.0,26.367185592651367,-35.94970703125,2.197265625,-1.118896484375,0.765869140625,0.1326904296875
4.903,311,2247,2514,312,4.0,32.0,30.0,26.306150436401367,-32.53173828125,2.0751953125,-1.1168212890625,0.8038330078125,0.0186767578125
4.927,311,2277,2538,313,4.0,32.0,30.0,24.414060592651367,-28.015134811401367,1.15966796875,-1.1751708984375,0.798828125,-0.1573486328125
4.927,311,2266,2566,312,4.0,32.0,30.0,22.094724655151367,-22.338865280151367,-2.685546636581421,-1.265625,0.78857421875,-0.2720947265625
4.927,295,2291,2605,314,4.0,32.0,30.0,12.634276390075684,-17.51708984375,-9.70458984375,-1.3514404296875,0.655029296875,-0.24169921875
4.941,311,2372,2624,312,5.0,38.0,31.0,-4.150390625,-14.770506858825684,-18.5546875,-1.4593505859375,0.39111328125,-0.1400146484375
4.949,310,2403,2607,313,5.0,38.0,31.0,-14.648436546325684,-12.695311546325684,-23.132322311401367,-1.4696044921875,0.21728515625,-0.0469970703125
4.960,311,2352,2619,312,5.0,38.0,31.0,-13.549803733825684,-11.474608421325684,-17.76123046875,-1.25537109375,0.2073974609375,0.04541015625
4.974,311,2328,2627,314,5.0,38.0,31.0,-8.11767578125,-11.291502952575684,-7.629394054412842,-1.1146240234375,0.42431640625,0.1175537109375
4.980,311,2308,2613,314,5.0,38.0,31.0,-6.835937023162842,-9.21630859375,-1.4648436307907104,-1.2703857421875,0.7449951171875,0.14306640625
4.993,311,2263,2585,314,5.0,38.0,31.0,-8.85009765625,-2.868652105331421,-2.990722417831421,-1.409423828125,0.766845703125,0.1326904296875
5.001,311,2221,2565,313,5.0,38.0,31.0,-9.033203125,4.45556640625,-8.72802734375,-1.3360595703125,0.5020751953125,0.125732421875
5.030,309,2180,2539,313,5.0,38.0,31.0,-6.408690929412842,8.72802734375,-11.474608421325684,-1.1683349609375,0.2730712890625,0.1302490234375
5.030,309,2093,2493,312,5.0,38.0,31.0,-1.3427733182907104,11.108397483825684,-8.48388671875,-1.05029296875,0.2568359375,0.1036376953125
5.032,311,2060,2417,314,0.0,35.0,31.0,3.173827886581421,14.953612327575684,-2.685546636581421,-0.9915771484375,0.40185546875,0.05517578125
5.040,311,2015,2368,312,0.0,35.0,31.0,2.868652105331421,21.057126998901367,0.9765624403953552,-0.954833984375,0.5303955078125,0.0098876953125
5.048,311,1968,2308,312,0.0,35.0,31.0,-1.4038084745407104,27.893064498901367,0.0610351525247097,-0.9302978515625,0.5333251953125,-0.0269775390625
5.061,311,1837,2178,313,0.0,35.0,31.0,-4.82177734375,33.447265625,-3.234863042831421,-0.915771484375,0.48291015625,-0.063232421875
5.083,311,1772,2102,312,0.0,35.0,31.0,-6.408690929412842,36.1328125,-5.615233898162842,-0.90234375,0.4635009765625,-0.087646484375
5.083,311,1689,2024,312,0.0,35.0,31.0,-7.995604991912842,35.888671875,-6.652831554412842,-0.8883056640625,0.45068359375,-0.073974609375
5.091,311,1540,1892,312,0.0,35.0,31.0,-9.27734375,35.09521484375,-8.4228515625,-0.8804931640625,0.40234375,-0.040771484375
5.099,311,1445,1807,312,0.0,35.0,31.0,-9.1552734375,35.70556640625,-11.535643577575684,-0.875244140625,0.322265625,-0.0072021484375
5.108,311,1345,1730,312,0.0,35.0,31.0,-8.056640625,36.4990234375,-13.977049827575684,-0.864013671875,0.2196044921875,0.0352783203125
5.128,311,1126,1580,311,0.0,35.0,31.0,-5.981444835662842,35.5224609375,-13.793944358825684,-0.8602294921875,0.12890625,0.0732421875
5.130,307,992,1485,311,4.0,38.0,31.0,-1.7700194120407104,33.3251953125,-11.169432640075684,-0.8544921875,0.07958984375,0.0931396484375
5.139,309,899,1367,311,4.0,38.0,31.0,4.33349609375,30.334470748901367,-7.873534679412842,-0.810791015625,0.069091796875,0.092529296875
5.152,309,738,1138,311,4.0,38.0,31.0,9.70458984375,27.526853561401367,-4.5166015625,-0.765625,0.1138916015625,0.04736328125
5.160,311,673,998,311,4.0,38.0,31.0,15.563963890075684,26.489255905151367,-1.5258787870407104,-0.73779296875,0.2139892578125,-0.022216796875
5.168,309,616,901,311,4.0,38.0,31.0,23.681638717651367,26.184080123901367,0.4272460639476776,-0.6829833984375,0.340576171875,-0.0750732421875
5.194,310,527,793,310,4.0,38.0,31.0,27.343748092651367,22.705076217651367,0.8544921278953552,-0.6180419921875,0.458251953125,-0.0682373046875
5.194,309,488,710,310,4.0,38.0,31.0,20.568845748901367,15.014647483825684,-2.01416015625,-0.6134033203125,0.4964599609375,0.003662109375
5.198,309,461,656,309,4.0,38.0,31.0,10.009765625,8.4228515625,-7.934569835662842,-0.67041015625,0.4307861328125,0.0416259765625
5.220,310,428,630,309,4.0,38.0,31.0,8.72802734375,8.30078125,-12.390135765075684,-0.7242431640625,0.3565673828125,-0.0203857421875
5.232,309,431,612,309,4.0,38.0,31.0,16.9677734375,11.535643577575684,-12.268065452575684,-0.75,0.3397216796875,-0.112060546875
5.232,309,433,619,309,3.0,37.0,31.0,22.949216842651367,11.779784202575684,-10.131834983825684,-0.7703857421875,0.3453369140625,-0.1534423828125
5.242,308,446,619,310,3.0,37.0,31.0,21.972654342651367,7.812499523162842,-9.33837890625,-0.7799072265625,0.3206787109375,-0.1619873046875
5.250,309,451,620,309,3.0,37.0,31.0,17.2119140625,2.3193359375,-9.8876953125,-0.7646484375,0.253662109375,-0.16845703125
5.258,309,465,628,309,3.0,37.0,31.0,11.169432640075684,-2.685546636581421,-9.3994140625,-0.756103515625,0.19580078125,-0.1722412109375
5.272,308,497,668,309,3.0,37.0,31.0,5.310058116912842,-6.958007335662842,-6.652831554412842,-0.7728271484375,0.2073974609375,-0.1488037109375
5.280,309,527,708,310,3.0,37.0,31.0,1.0986328125,-10.253905296325684,-2.929687261581421,-0.8023681640625,0.26416015625,-0.0992431640625
5.302,309,558,724,309,3.0,37.0,31.0,-1.3427733182907104,-11.596678733825684,0.0,-0.810791015625,0.2908935546875,-0.0665283203125
5.302,307,609,816,307,3.0,37.0,31.0,-2.990722417831421,-10.925292015075684,2.38037109375,-0.7744140625,0.2623291015625,-0.0701904296875
5.310,309,698,935,310,3.0,37.0,31.0,-4.7607421875,-10.498045921325684,5.310058116912842,-0.732177734375,0.21484375,-0.085205078125
5.336,309,763,1034,311,3.0,37.0,31.0,-5.981444835662842,-12.756346702575684,9.27734375,-0.723876953125,0.19970703125,-0.0963134765625
5.336,310,886,1191,310,1.0,36.0,38.0,-6.347655773162842,-16.9677734375,14.160155296325684,-0.7320556640625,0.2421875,-0.1114501953125
5.341,310,944,1267,311,1.0,36.0,38.0,-7.629394054412842,-21.301267623901367,18.12744140625,-0.7135009765625,0.3251953125,-0.114501953125
5.348,311,1029,1363,310,1.0,36.0,38.0,-11.352538108825684,-23.681638717651367,18.4326171875,-0.69970703125,0.39892578125,-0.1107177734375
5.362,311,1139,1504,311,1.0,36.0,38.0,-16.41845703125,-23.376462936401367,14.404295921325684,-0.721435546875,0.434814453125,-0.1085205078125
5.371,310,1207,1607,311,1.0,36.0,38.0,-22.949216842651367,-23.376462936401367,8.544921875,-0.7108154296875,0.4276123046875,-0.06982421875
5.378,309,1280,1700,312,1.0,36.0,38.0,-31.799314498901367,-26.489255905151367,3.295898199081421,-0.6710205078125,0.3668212890625,-0.001220703125
5.392,310,1411,1863,311,1.0,36.0,38.0,-36.19384765625,-30.822751998901367,-0.8544921278953552,-0.6595458984375,0.2977294921875,0.0224609375
5.401,311,1483,1985,311,1.0,36.0,38.0,-29.846189498901367,-34.5458984375,-4.33349609375,-0.691650390625,0.2774658203125,-0.008056640625
5.413,311,1538,2096,312,1.0,36.0,38.0,-21.423337936401367,-37.7197265625,-6.774901866912842,-0.738037109375,0.261962890625,-0.0228271484375
5.439,310,1682,2238,312,1.0,36.0,38.0,-19.6533203125,-40.0390625,-7.202147960662842,-0.7674560546875,0.21435546875,0.0072021484375
5.439,309,1716,2306,311,1.0,36.0,26.0,-18.1884765625,-41.137691497802734,-4.94384765625,-0.8111572265625,0.2275390625,0.0758056640625
5.440,311,1828,2389,298,1.0,36.0,26.0,-11.962889671325684,-42.175289154052734,-1.220703125,-0.8831787109375,0.288330078125,0.1693115234375
5.447,311,1891,2463,313,1.0,36.0,26.0,-11.962889671325684,-42.175289154052734,-1.220703125,-0.974853515625,0.296630859375,0.2423095703125
5.461,311,1943,2554,312,1.0,36.0,26.0,0.1220703050494194,-43.334957122802734,5.126952648162842,-1.0458984375,0.3253173828125,0.2364501953125
5.469,310,1983,2600,312,1.0,36.0,26.0,8.544921875,-42.419429779052734,9.27734375,-1.075927734375,0.433837890625,0.17138671875
5.477,311,2014,2627,312,1.0,36.0,26.0,8.544921875,-42.419429779052734,9.27734375,-1.09765625,0.603515625,0.1236572265625
5.491,310,2093,2691,312,1.0,36.0,26.0,22.399900436401367,-35.46142578125,11.596678733825684,-1.1156005859375,0.71484375,0.13134765625
5.508,311,2151,2724,313,1.0,36.0,26.0,16.4794921875,-28.381345748901367,6.103515148162842,-1.167236328125,0.66650390625,0.1441650390625
5.508,311,2186,2763,312,1.0,36.0,26.0,16.4794921875,-28.381345748901367,6.103515148162842,-1.2825927734375,0.5245361328125,0.1192626953125
5.541,311,2209,2813,313,1.0,36.0,26.0,3.784179449081421,-12.695311546325684,-7.202147960662842,-1.4041748046875,0.355712890625,0.06396484375
5.541,310,2172,2800,313,2.0,35.0,35.0,5.187987804412842,-8.7890625,-6.286620616912842,-1.44384765625,0.26025390625,-0.0411376953125
5.541,311,2222,2825,313,2.0,35.0,35.0,5.187987804412842,-8.7890625,-6.286620616912842,-1.3509521484375,0.3153076171875,-0.12353515625
5.551,311,2213,2813,312,2.0,35.0,35.0,6.408690929412842,-6.530761241912842,8.23974609375,-1.14306640625,0.4443359375,-0.0938720703125
5.559,311,2195,2794,314,2.0,35.0,35.0,3.784179449081421,-5.249022960662842,8.60595703125,-0.9591064453125,0.5799560546875,-0.003173828125
5.574,311,2164,2794,314,2.0,35.0,35.0,-0.7324218153953552,-1.7700194120407104,0.30517578125,-0.9119873046875,0.6639404296875,0.0570068359375
5.581,311,2148,2795,314,2.0,35.0,35.0,-6.408690929412842,3.479003667831421,-12.756346702575684,-1.03125,0.6591796875,0.048095703125
5.611,309,2129,2789,314,2.0,35.0,35.0,-13.671874046325684,8.6669921875,-23.376462936401367,-1.253662109375,0.608642578125,0.0364990234375
5.613,311,2106,2775,314,2.0,35.0,35.0,-13.671874046325684,8.6669921875,-23.376462936401367,-1.3681640625,0.4698486328125,0.09375
5.644,311,2069,2747,314,2.0,35.0,35.0,-25.329587936401367,13.000487327575684,-22.888181686401367,-1.2943115234375,0.27587890625,0.179931640625
5.664,311,2041,2709,313,4.0,34.0,37.0,-18.06640625,13.183592796325684,-15.502928733825684,-1.1597900390625,0.2005615234375,0.21923828125
5.664,294,1996,2671,297,4.0,34.0,37.0,-18.06640625,13.183592796325684,-15.502928733825684,-1.0859375,0.29736328125,0.18798828125
5.665,311,1965,2581,312,4.0,34.0,37.0,2.990722417831421,18.85986328125,1.4648436307907104,-1.0755615234375,0.432861328125,0.120361328125
5.665,294,1891,2533,313,4.0,34.0,37.0,4.7607421875,25.756834030151367,3.845214605331421,-1.065185546875,0.4857177734375,0.06591796875
5.665,311,1886,2473,297,4.0,34.0,37.0,4.7607421875,25.756834030151367,3.845214605331421,-1.0223388671875,0.448486328125,0.0413818359375
5.678,313,1763,2340,313,4.0,34.0,37.0,0.0610351525247097,36.4990234375,-1.3427733182907104,-0.9715576171875,0.39111328125,0.030517578125
5.681,295,1686,2259,312,4.0,34.0,37.0,-1.7089842557907104,37.65869140625,-3.662109136581421,-0.9432373046875,0.3760986328125,0.0242919921875
5.687,311,1595,2155,312,4.0,34.0,37.0,-1.7089842557907104,37.65869140625,-3.662109136581421,-0.947265625,0.38671875,0.0020751953125
5.722,311,1428,1968,312,4.0,34.0,37.0,-2.38037109375,40.710445404052734,-5.615233898162842,-0.968017578125,0.3548583984375,-0.035888671875
5.722,310,1278,1865,313,4.0,34.0,37.0,-2.38037109375,40.710445404052734,-5.615233898162842,-0.9730224609375,0.2569580078125,-0.05322265625
5.722,311,1176,1757,297,4.0,34.0,37.0,-2.868652105331421,42.907711029052734,-6.042479991912842,-0.9730224609375,0.2569580078125,-0.05322265625
5.751,309,1005,1588,311,0.0,37.0,30.0,-1.03759765625,40.954586029052734,-5.737304210662842,-0.875244140625,0.06005859375,0.019287109375
5.751,310,877,1481,311,0.0,37.0,30.0,-1.03759765625,40.954586029052734,-5.737304210662842,-0.8077392578125,0.0286865234375,0.0750732421875
5.751,310,809,1346,311,0.0,37.0,30.0,2.624511480331421,36.9873046875,-3.967284917831421,-0.8077392578125,0.0286865234375,0.0750732421875
5.761,309,664,1100,311,0.0,37.0,30.0,15.808104515075684,32.3486328125,3.112792730331421,-0.666748046875,0.142578125,0.0400390625
5.771,309,591,943,311,0.0,37.0,30.0,15.808104515075684,32.3486328125,3.112792730331421,-0.593017578125,0.2669677734375,-0.025146484375
5.777,309,546,869,311,0.0,37.0,30.0,26.733396530151367,32.1044921875,6.286620616912842,-0.593017578125,0.2669677734375,-0.025146484375
5.791,309,500,786,309,0.0,37.0,30.0,30.395505905151367,22.155759811401367,8.9111328125,-0.5699462890625,0.5770263671875,-0.01806640625
5.801,309,493,718,311,0.0,37.0,30.0,30.395505905151367,22.155759811401367,8.9111328125,-0.6417236328125,0.5518798828125,0.0618896484375
5.807,309,465,683,308,0.0,37.0,30.0,18.1884765625,12.939452171325684,0.9765624403953552,-0.6417236328125,0.5518798828125,0.0618896484375
5.847,309,423,652,311,5.0,34.0,28.0,10.742186546325684,9.8876953125,-12.451170921325684,-0.7099609375,0.328369140625,-0.017333984375
5.847,293,402,642,311,5.0,34.0,28.0,10.742186546325684,9.8876953125,-12.451170921325684,-0.729736328125,0.2950439453125,-0.147705078125
5.847,307,421,650,309,5.0,34.0,28.0,23.132322311401367,14.648436546325684,-10.314940452575684,-0.729736328125,0.2950439453125,-0.147705078125
5.851,309,445,657,309,5.0,34.0,28.0,30.334470748901367,13.732909202575684,-5.737304210662842,-0.828369140625,0.2452392578125,-0.19580078125
5.861,310,461,661,309,5.0,34.0,28.0,30.334470748901367,13.732909202575684,-5.737304210662842,-0.83349609375,0.1976318359375,-0.149658203125
5.867,309,472,673,309,5.0,34.0,28.0,21.667478561401367,8.85009765625,-4.2724609375,-0.83349609375,0.1976318359375,-0.149658203125
5.881,310,504,694,309,5.0,34.0,28.0,7.507323741912842,-1.7089842557907104,1.5258787870407104,-0.808837890625,0.1959228515625,-0.091552734375
5.891,310,531,726,310,5.0,34.0,28.0,7.507323741912842,-1.7089842557907104,1.5258787870407104,-0.8199462890625,0.2469482421875,-0.089599609375
5.898,310,551,770,310,5.0,34.0,28.0,5.493163585662842,-5.187987804412842,4.5166015625,-0.8199462890625,0.2469482421875,-0.089599609375
5.911,310,613,900,311,5.0,34.0,28.0,0.9765624403953552,-4.69970703125,10.314940452575684,-0.772705078125,0.26953125,-0.115966796875
5.949,310,675,978,311,2.0,36.0,27.0,0.9765624403953552,-4.69970703125,10.314940452575684,-0.734130859375,0.2471923828125,-0.101318359375
5.949,295,755,1086,295,2.0,36.0,27.0,-4.8828125,-4.150390625,13.793944358825684,-0.734130859375,0.2471923828125,-0.101318359375
5.949,310,882,1248,311,2.0,36.0,27.0,-13.977049827575684,-7.995604991912842,22.216794967651367,-0.6986083984375,0.2789306640625,-0.099609375
5.950,296,968,1336,311,2.0,36.0,27.0,-13.977049827575684,-7.995604991912842,22.216794967651367,-0.6593017578125,0.3302001953125,-0.0771484375
5.958,310,1048,1411,311,2.0,36.0,27.0,-15.136717796325684,-12.817381858825684,24.414060592651367,-0.6593017578125,0.3302001953125,-0.0771484375
5.974,311,1191,1553,311,2.0,36.0,27.0,-9.3994140625,-24.841306686401367,17.4560546875,-0.6866455078125,0.372314453125,-0.0335693359375
5.980,310,1279,1675,311,2.0,36.0,27.0,-9.3994140625,-24.841306686401367,17.4560546875,-0.6854248046875,0.404052734375,0.0135498046875
5.988,310,1365,1756,312,2.0,36.0,27.0,-10.131834983825684,-29.418943405151367,12.878417015075684,-0.6854248046875,0.404052734375,0.0135498046875
6.002,311,1506,1892,311,2.0,36.0,27.0,-22.521970748901367,-27.770994186401367,5.0048828125,-0.6893310546875,0.2349853515625,0.0123291015625
6.010,311,1573,1987,312,2.0,36.0,27.0,-22.521970748901367,-27.770994186401367,5.0048828125,-0.701416015625,0.1533203125,-0.05517578125
6.018,311,1642,2080,314,1.0,38.0,33.0,-21.240232467651367,-23.681638717651367,5.859374523162842,-0.701416015625,0.1533203125,-0.05517578125
6.053,361,1605,2224,312,1.0,38.0,33.0,-9.09423828125,-31.005857467651367,14.282225608825684,-0.8240966796875,0.2652587890625,0.0081787109375
6.053,356,1681,2296,312,1.0,38.0,33.0,-9.09423828125,-31.005857467651367,14.282225608825684,-0.88134765625,0.3192138671875,0.128662109375
6.053,310,1886,2362,314,1.0,38.0,33.0,-2.01416015625,-38.9404296875,13.854979515075684,-0.88134765625,0.3192138671875,0.128662109375
6.062,311,1967,2473,314,1.0,38.0,33.0,10.925292015075684,-35.33935546875,9.21630859375,-1.0316162109375,0.385009765625,0.20361328125
6.070,311,2009,2519,313,1.0,38.0,33.0,10.925292015075684,-35.33935546875,9.21630859375,-1.119384765625,0.4881591796875,0.1158447265625
6.079,310,2045,2541,312,1.0,38.0,33.0,14.709471702575684,-28.747556686401367,11.169432640075684,-1.119384765625,0.4881591796875,0.1158447265625
6.092,311,2100,2579,314,1.0,38.0,33.0,20.324705123901367,-21.301267623901367,21.789548873901367,-1.257568359375,0.7943115234375,-0.1934814453125
6.100,310,2132,2607,314,1.0,38.0,33.0,20.324705123901367,-21.301267623901367,21.789548873901367,-1.258056640625,0.828857421875,-0.2672119140625
6.108,311,2148,2624,312,1.0,38.0,33.0,19.83642578125,-18.5546875,22.583005905151367,-1.258056640625,0.828857421875,-0.2672119140625
6.122,311,2172,2658,314,2.0,34.0,28.0,6.713866710662842,-17.39501953125,5.493163585662842,-1.148193359375,0.5906982421875,0.032958984375
6.131,311,2179,2669,312,2.0,34.0,28.0,6.713866710662842,-17.39501953125,5.493163585662842,-1.143798828125,0.4927978515625,0.1343994140625
6.159,311,2194,2683,314,2.0,34.0,28.0,-1.8310545682907104,-14.709471702575684,-3.601073980331421,-1.1937255859375,0.44677734375,0.1036376953125
6.160,310,2186,2679,312,2.0,34.0,28.0,-8.48388671875,-6.713866710662842,-8.544921875,-1.1937255859375,0.44677734375,0.1036376953125
6.161,311,2168,2677,312,2.0,34.0,28.0,-9.765625,6.958007335662842,-9.82666015625,-1.1070556640625,0.3365478515625,0.018798828125
6.170,311,2167,2689,314,2.0,34.0,28.0,-9.765625,6.958007335662842,-9.82666015625,-1.0450439453125,0.393310546875,-0.0191650390625
6.177,311,2156,2679,314,2.0,34.0,28.0,-5.615233898162842,8.4228515625,-8.9111328125,-1.0450439453125,0.393310546875,-0.0191650390625
6.191,311,2122,2665,312,2.0,34.0,28.0,-5.859374523162842,7.507323741912842,-7.934569835662842,-1.3048095703125,0.609375,0.040771484375
6.200,309,2091,2656,314,2.0,34.0,28.0,-9.765625,6.896972179412842,-8.36181640625,-1.3048095703125,0.609375,0.040771484375
6.213,311,2026,2612,312,2.0,37.0,26.0,-10.070799827575684,10.620116233825684,-8.4228515625,-1.21484375,0.4022216796875,0.148681640625
6.221,311,1991,2573,314,2.0,37.0,26.0,-10.070799827575684,10.620116233825684,-8.4228515625,-1.14013671875,0.4027099609375,0.1318359375
6.230,311,1971,2538,314,2.0,37.0,26.0,-6.896972179412842,13.488768577575684,-4.57763671875,-1.14013671875,0.4027099609375,0.1318359375
6.260,311,1927,2492,313,2.0,37.0,26.0,-4.0283203125,18.310546875,-0.9155272841453552,-1.10205078125,0.4569091796875,0.0679931640625
6.260,297,1820,2389,313,2.0,37.0,26.0,-3.234863042831421,25.573728561401367,0.1831054538488388,-1.0880126953125,0.553955078125,-0.069580078125
6.261,311,1772,2312,314,2.0,37.0,26.0,-4.21142578125,33.87451171875,-1.0986328125,-1.0880126953125,0.553955078125,-0.069580078125
6.268,311,1689,2222,309,2.0,37.0,26.0,-6.225585460662842,40.649410247802734,-3.295898199081421,-1.08154296875,0.5572509765625,-0.1090087890625
6.282,311,1524,2023,312,2.0,37.0,26.0,-9.1552734375,44.738765716552734,-5.554198741912842,-0.9710693359375,0.4290771484375,-0.1171875
6.289,310,1399,1913,312,2.0,37.0,26.0,-11.901854515075684,46.508785247802734,-7.629394054412842,-0.9710693359375,0.4290771484375,-0.1171875
6.298,311,1267,1803,312,2.0,37.0,26.0,-12.145995140075684,46.142574310302734,-8.7890625,-0.8951416015625,0.319580078125,-0.095458984375
6.312,311,1029,1589,311,4.0,37.0,29.0,-8.72802734375,43.579097747802734,-9.09423828125,-0.7711181640625,0.098388671875,0.032958984375
6.320,310,918,1477,313,4.0,37.0,29.0,-3.295898199081421,38.87939453125,-10.375975608825684,-0.7711181640625,0.098388671875,0.032958984375
6.333,310,787,1253,311,4.0,37.0,29.0,5.859374523162842,30.456541061401367,-11.047362327575684,-0.7083740234375,0.0333251953125,0.0467529296875
6.356,309,693,1104,311,4.0,37.0,29.0,5.859374523162842,30.456541061401367,-11.047362327575684,-0.69140625,0.099609375,0.009765625
6.365,311,612,935,310,4.0,37.0,29.0,9.09423828125,28.076169967651367,-6.958007335662842,-0.69140625,0.099609375,0.009765625
6.366,309,589,861,310,4.0,37.0,29.0,14.587401390075684,27.404783248901367,-1.5869139432907104,-0.64697265625,0.2008056640625,-0.034912109375
6.371,309,530,755,311,4.0,37.0,29.0,20.568845748901367,25.695798873901367,4.69970703125,-0.5072021484375,0.4970703125,0.0555419921875
6.379,309,506,711,310,4.0,37.0,29.0,18.37158203125,19.10400390625,9.09423828125,-0.5072021484375,0.4970703125,0.0555419921875
6.388,309,490,698,309,4.0,37.0,29.0,10.498045921325684,11.352538108825684,5.371093273162842,-0.5360107421875,0.4815673828125,0.110595703125
6.401,308,490,680,311,4.0,37.0,29.0,9.70458984375,9.3994140625,-3.845214605331421,-0.700439453125,0.3343505859375,-0.1400146484375
6.409,309,490,691,309,2.0,37.0,32.0,18.6767578125,12.207030296325684,-9.70458984375,-0.700439453125,0.3343505859375,-0.1400146484375
6.424,310,500,693,310,2.0,37.0,32.0,27.343748092651367,12.939452171325684,-9.27734375,-0.7642822265625,0.362060546875,-0.2547607421875
6.432,309,516,708,309,2.0,37.0,32.0,27.465818405151367,9.033203125,-5.798339366912842,-0.83251953125,0.3365478515625,-0.2008056640625
6.439,309,533,722,310,2.0,37.0,32.0,20.446775436401367,3.234863042831421,-3.417968511581421,-0.83251953125,0.3365478515625,-0.2008056640625
6.471,309,558,750,310,2.0,37.0,32.0,12.084959983825684,-1.220703125,-3.051757574081421,-0.8216552734375,0.242919921875,-0.1016845703125
6.472,309,594,801,311,2.0,37.0,32.0,5.798339366912842,-3.540038824081421,-2.38037109375,-0.7867431640625,0.194091796875,0.00146484375
6.472,310,614,834,310,2.0,37.0,32.0,3.173827886581421,-3.906249761581421,0.2441406100988388,-0.7867431640625,0.194091796875,0.00146484375
6.478,310,633,886,311,2.0,37.0,32.0,4.0283203125,-3.540038824081421,4.150390625,-0.77685546875,0.24267578125,-0.0621337890625
6.491,308,725,996,310,2.0,37.0,32.0,5.126952648162842,-4.5166015625,7.385253429412842,-0.813720703125,0.3380126953125,-0.1619873046875
6.499,309,766,1085,311,2.0,37.0,32.0,4.150390625,-7.446288585662842,8.9111328125,-0.813720703125,0.3380126953125,-0.1619873046875
6.507,309,819,1157,310,3.0,38.0,33.0,1.4038084745407104,-11.230467796325684,9.70458984375,-0.843505859375,0.35791015625,-0.171630859375
6.521,309,907,1268,310,3.0,38.0,33.0,-3.356933355331421,-14.221190452575684,10.681151390075684,-0.8302001953125,0.39990234375,-0.0882568359375
6.529,309,959,1344,312,3.0,38.0,33.0,-9.58251953125,-15.197752952575684,11.230467796325684,-0.8302001953125,0.39990234375,-0.0882568359375
6.539,310,1035,1396,311,3.0,38.0,33.0,-14.343260765075684,-14.404295921325684,10.009765625,-0.7908935546875,0.3916015625,-0.04052734375
6.563,310,1133,1527,311,3.0,38.0,33.0,-14.770506858825684,-12.756346702575684,7.202147960662842,-0.7972412109375,0.3839111328125,-0.10302734375
6.571,310,1178,1574,310,3.0,38.0,33.0,-13.000487327575684,-12.634276390075684,5.371093273162842,-0.7972412109375,0.3839111328125,-0.10302734375
6.573,311,1245,1683,312,3.0,38.0,33.0,-14.831542015075684,-16.2353515625,4.2724609375,-0.7467041015625,0.374267578125,-0.1119384765625
6.581,311,1369,1821,312,3.0,38.0,33.0,-20.080564498901367,-21.911619186401367,2.44140625,-0.73193359375,0.2066650390625,-0.03564453125
6.589,311,1437,1886,312,3.0,38.0,33.0,-22.338865280151367,-27.404783248901367,2.01416015625,-0.73193359375,0.2066650390625,-0.03564453125
6.603,311,1549,2024,313,2.0,38.0,26.0,-14.526366233825684,-32.89794921875,8.056640625,-0.7427978515625,0.1915283203125,0.076904296875
6.611,311,1628,2105,313,2.0,38.0,26.0,-14.526366233825684,-32.89794921875,8.056640625,-0.7471923828125,0.239013671875,0.115234375
6.619,311,1677,2180,312,2.0,38.0,26.0,-7.995604991912842,-31.066892623901367,10.620116233825684,-0.7471923828125,0.239013671875,0.115234375
6.633,311,1791,2308,312,2.0,38.0,26.0,-3.295898199081421,-26.184080123901367,9.521484375,-0.778076171875,0.2674560546875,0.1114501953125
6.641,311,1874,2362,313,2.0,38.0,26.0,-3.295898199081421,-26.184080123901367,9.521484375,-0.8515625,0.2760009765625,0.0289306640625
6.666,311,1909,2403,313,2.0,38.0,26.0,-4.5166015625,-25.512693405151367,9.6435546875,-0.8515625,0.2760009765625,0.0289306640625
6.666,311,1954,2440,312,2.0,38.0,26.0,0.2441406100988388,-26.367185592651367,14.221190452575684,-0.9552001953125,0.4140625,-0.0870361328125
6.681,311,2045,2503,312,2.0,38.0,26.0,11.047362327575684,-27.465818405151367,20.507810592651367,-1.005126953125,0.656005859375,-0.1239013671875
6.683,312,2037,2481,298,2.0,38.0,26.0,19.53125,-27.038572311401367,22.705076217651367,-1.005126953125,0.656005859375,-0.1239013671875
6.687,310,2091,2543,314,2.0,38.0,26.0,18.5546875,-25.085447311401367,18.98193359375,-1.0025634765625,0.585693359375,0.0164794921875
6.701,311,2142,2582,314,2.0,34.0,31.0,11.291502952575684,-22.338865280151367,12.817381858825684,-1.029052734375,0.5213623046875,0.1136474609375
6.709,311,2172,2605,314,2.0,34.0,31.0,4.08935546875,-18.6767578125,8.85009765625,-1.1182861328125,0.58544921875,0.046630859375
6.718,311,2180,2627,313,2.0,34.0,31.0,1.7700194120407104,-14.526366233825684,7.141112804412842,-1.22607421875,0.7034912109375,-0.107177734375
6.731,311,2206,2662,312,2.0,34.0,31.0,2.929687261581421,-11.108397483825684,4.33349609375,-1.28173828125,0.721435546875,-0.1719970703125
6.739,310,2202,2668,313,2.0,34.0,31.0,-0.54931640625,-9.8876953125,-0.4882812201976776,-1.2850341796875,0.5914306640625,-0.0894775390625
6.747,311,2186,2659,313,2.0,34.0,31.0,-8.48388671875,-9.8876953125,-4.21142578125,-1.26123046875,0.41064453125,0.044189453125
6.770,311,2155,2638,312,2.0,34.0,31.0,-9.765625,-8.85009765625,-4.39453125,-1.1480712890625,0.3292236328125,0.1005859375
6.771,311,2145,2648,312,2.0,34.0,31.0,-1.5869139432907104,-6.469726085662842,-3.112792730331421,-0.9775390625,0.3900146484375,0.03955078125
6.788,310,2145,2653,312,2.0,34.0,31.0,3.906249761581421,-3.967284917831421,-3.601073980331421,-0.9488525390625,0.533203125,-0.0655517578125
6.792,311,2113,2648,319,2.0,34.0,31.0,-1.15966796875,-1.5258787870407104,-6.042479991912842,-1.1239013671875,0.656982421875,-0.1021728515625
6.799,310,2087,2638,314,2.0,35.0,31.0,-12.329100608825684,0.9765624403953552,-8.36181640625,-1.320556640625,0.644775390625,-0.019287109375
6.816,312,2024,2608,312,2.0,35.0,31.0,-20.874021530151367,2.807616949081421,-8.60595703125,-1.246826171875,0.345458984375,0.2210693359375
6.821,311,1973,2567,314,2.0,35.0,31.0,-20.080564498901367,4.45556640625,-6.469726085662842,-1.246826171875,0.345458984375,0.2210693359375
6.829,310,1939,2526,313,2.0,35.0,31.0,-10.681151390075684,7.568358898162842,-2.807616949081421,-1.13232421875,0.34130859375,0.2003173828125
6.845,311,1844,2432,312,2.0,35.0,31.0,-1.03759765625,12.695311546325684,0.1220703050494194,-1.0762939453125,0.53515625,-0.0308837890625
6.876,311,1750,2381,312,2.0,35.0,31.0,2.990722417831421,19.53125,0.54931640625,-1.0762939453125,0.53515625,-0.0308837890625
6.876,311,1669,2312,298,2.0,35.0,31.0,2.13623046875,26.733396530151367,-1.2817381620407104,-1.061767578125,0.603271484375,-0.129150390625
6.877,311,1622,2215,312,2.0,35.0,31.0,-2.3193359375,31.677244186401367,-3.662109136581421,-1.040771484375,0.613525390625,-0.1649169921875
6.882,311,1474,1996,313,2.0,35.0,31.0,-8.60595703125,33.5693359375,-5.0048828125,-0.9542236328125,0.457275390625,-0.132080078125
6.898,310,1357,1852,312,2.0,35.0,31.0,-13.061522483825684,33.99658203125,-4.8828125,-0.9542236328125,0.457275390625,-0.132080078125
6.899,310,1243,1725,297,2.0,35.0,31.0,-13.366698265075684,34.0576171875,-3.784179449081421,-0.85546875,0.3580322265625,-0.1204833984375
6.913,310,992,1486,312,2.0,35.0,31.0,-11.108397483825684,33.26416015625,-2.25830078125,-0.726806640625,0.2772216796875,-0.02587890625
6.920,310,858,1330,311,2.0,35.0,31.0,-8.36181640625,31.738279342651367,-2.01416015625,-0.726806640625,0.2772216796875,-0.02587890625
6.928,309,749,1159,311,2.0,35.0,31.0,-4.94384765625,30.578611373901367,-4.82177734375,-0.687255859375,0.189208984375,0.0477294921875
6.942,310,603,916,309,2.0,35.0,31.0,-2.25830078125,29.907224655151367,-8.544921875,-0.657958984375,0.1148681640625,0.117431640625
6.950,309,547,823,311,2.0,35.0,31.0,-1.5258787870407104,29.174802780151367,-8.60595703125,-0.6298828125,0.1405029296875,0.150146484375
6.973,309,504,745,309,2.0,35.0,31.0,1.03759765625,27.770994186401367,-6.713866710662842,-0.619384765625,0.200927734375,0.145751953125
6.974,309,445,657,309,2.0,35.0,31.0,6.652831554412842,24.353025436401367,-6.713866710662842,-0.6439208984375,0.24072265625,0.137451171875
6.980,309,409,636,310,2.0,35.0,31.0,10.986327171325684,19.83642578125,-7.263183116912842,-0.674560546875,0.2935791015625,0.110107421875
6.988,309,410,643,310,2.0,35.0,31.0,14.038084983825684,17.27294921875,-4.94384765625,-0.65771484375,0.354248046875,0.04345703125
7.004,309,410,640,309,3.0,38.0,31.0,18.73779296875,18.24951171875,-0.2441406100988388,-0.623291015625,0.365966796875,-0.048828125
7.011,309,407,629,309,3.0,38.0,31.0,25.451658248901367,21.057126998901367,2.685546636581421,-0.666748046875,0.3280029296875,-0.124267578125
7.018,309,409,630,309,3.0,38.0,31.0,32.04345703125,22.399900436401367,1.15966796875,-0.757568359375,0.3182373046875,-0.144287109375
7.032,309,419,643,309,3.0,38.0,31.0,34.66796875,20.141599655151367,-2.38037109375,-0.800048828125,0.353515625,-0.134765625
7.040,308,423,636,310,3.0,38.0,31.0,29.296873092651367,14.831542015075684,-4.0283203125,-0.7974853515625,0.3785400390625,-0.1226806640625
7.049,309,433,643,309,3.0,38.0,31.0,18.06640625,9.3994140625,-3.173827886581421,-0.7896728515625,0.363525390625,-0.11474609375
7.075,309,465,673,309,3.0,38.0,31.0,8.6669921875,7.080077648162842,-0.8544921278953552,-0.7886962890625,0.3271484375,-0.1259765625
7.080,309,478,691,309,3.0,38.0,31.0,3.540038824081421,7.324218273162842,2.197265625,-0.7799072265625,0.298828125,-0.1512451171875
7.080,309,506,718,310,3.0,38.0,31.0,-0.8544921278953552,7.202147960662842,5.126952648162842,-0.7606201171875,0.2879638671875,-0.1702880859375
7.108,310,558,780,309,2.0,37.0,24.0,-6.530761241912842,4.94384765625,7.202147960662842,-0.751220703125,0.2965087890625,-0.167236328125
7.109,309,593,844,310,2.0,37.0,24.0,-12.145995140075684,1.0986328125,8.1787109375,-0.7633056640625,0.3223876953125,-0.1380615234375
7.109,310,620,888,311,2.0,37.0,24.0,-16.41845703125,-2.3193359375,8.7890625,-0.795166015625,0.3519287109375,-0.100830078125
7.122,311,739,1025,311,2.0,37.0,24.0,-19.59228515625,-3.784179449081421,10.070799827575684,-0.8314208984375,0.3681640625,-0.070068359375
7.130,309,799,1098,311,2.0,37.0,24.0,-21.850584030151367,-3.356933355331421,12.634276390075684,-0.8404541015625,0.3568115234375,-0.0472412109375
7.138,310,861,1178,311,2.0,37.0,24.0,-22.583005905151367,-2.25830078125,16.05224609375,-0.81103515625,0.3214111328125,-0.0487060546875
7.153,310,980,1317,312,2.0,37.0,24.0,-20.324705123901367,-2.563476324081421,18.85986328125,-0.766845703125,0.3001708984375,-0.0797119140625
7.179,310,1039,1385,311,2.0,37.0,24.0,-14.892577171325684,-5.920409679412842,19.04296875,-0.7420654296875,0.3380126953125,-0.1309814453125
7.179,297,1078,1472,313,2.0,37.0,24.0,-12.451170921325684,-12.268065452575684,16.17431640625,-0.7169189453125,0.4080810546875,-0.129150390625
7.179,310,1157,1628,311,2.0,37.0,24.0,-19.10400390625,-19.22607421875,11.047362327575684,-0.6942138671875,0.4217529296875,-0.038330078125
7.191,311,1276,1772,312,2.0,37.0,26.0,-29.602048873901367,-22.949216842651367,5.432128429412842,-0.714111328125,0.36767578125,0.0517578125
7.199,310,1351,1863,312,2.0,37.0,26.0,-35.400390625,-22.155759811401367,2.25830078125,-0.7469482421875,0.283935546875,0.06982421875
7.218,311,1486,2010,311,2.0,37.0,26.0,-31.494138717651367,-18.61572265625,3.295898199081421,-0.7537841796875,0.2091064453125,0.0057373046875
7.221,311,1555,2087,313,2.0,37.0,26.0,-17.63916015625,-17.08984375,7.263183116912842,-0.7591552734375,0.2294921875,-0.059814453125
7.229,311,1613,2167,312,2.0,37.0,26.0,-2.624511480331421,-20.935056686401367,10.070799827575684,-0.7623291015625,0.322265625,-0.0537109375
7.238,311,1669,2246,311,2.0,37.0,26.0,5.0048828125,-27.954099655151367,8.4228515625,-0.75048828125,0.3707275390625,-0.0172119140625
7.251,310,1769,2360,312,2.0,37.0,26.0,6.408690929412842,-34.0576171875,3.967284917831421,-0.7650146484375,0.3782958984375,0.02734375
7.259,311,1838,2424,312,2.0,37.0,26.0,6.530761241912842,-36.0107421875,1.220703125,-0.81787109375,0.35888671875,0.052734375
7.280,310,1899,2479,316,2.0,37.0,26.0,7.324218273162842,-32.71484375,2.868652105331421,-0.9012451171875,0.3485107421875,0.024169921875
7.281,311,1996,2565,313,2.0,37.0,26.0,8.11767578125,-27.709959030151367,8.85009765625,-0.9892578125,0.423828125,-0.0335693359375
7.290,311,2035,2599,314,2.0,36.0,26.0,9.8876953125,-24.536130905151367,16.11328125,-1.0472412109375,0.598388671875,-0.0755615234375
7.297,311,2074,2627,312,2.0,36.0,26.0,13.793944358825684,-24.047849655151367,18.37158203125,-1.0743408203125,0.787353515625,-0.05908203125
7.318,311,2160,2668,313,2.0,36.0,26.0,16.54052734375,-24.108884811401367,11.901854515075684,-1.108642578125,0.8775634765625,-0.019775390625
7.326,311,2180,2679,312,2.0,36.0,26.0,13.183592796325684,-21.545408248901367,0.7324218153953552,-1.166748046875,0.8511962890625,-0.0035400390625
7.327,311,2238,2700,313,2.0,36.0,26.0,3.784179449081421,-16.11328125,-8.1787109375,-1.2353515625,0.693603515625,-0.0025634765625
7.341,1498,2015,2710,312,2.0,36.0,26.0,-5.065917491912842,-10.559081077575684,-10.803221702575684,-1.307373046875,0.4580078125,-0.0123291015625
7.349,311,2012,2700,314,2.0,36.0,26.0,-6.530761241912842,-6.530761241912842,-5.920409679412842,-1.3477783203125,0.29541015625,-0.0220947265625
7.357,312,2005,2683,314,2.0,36.0,26.0,-0.9155272841453552,-3.723144292831421,3.723144292831421,-1.255859375,0.24853515625,-0.0186767578125
7.382,311,2005,2691,314,2.0,36.0,26.0,5.554198741912842,-1.2817381620407104,11.291502952575684,-1.0699462890625,0.3162841796875,-0.0406494140625
7.382,311,2002,2691,314,2.0,36.0,26.0,6.713866710662842,0.4882812201976776,13.183592796325684,-1.02783203125,0.5421142578125,-0.1055908203125
7.387,310,1985,2691,314,1.0,37.0,29.0,1.15966796875,1.0986328125,10.131834983825684,-1.176025390625,0.7679443359375,-0.1351318359375
7.401,311,1953,2662,314,1.0,37.0,29.0,-6.713866710662842,1.15966796875,4.21142578125,-1.3082275390625,0.7681884765625,-0.053955078125
7.409,311,1920,2636,314,1.0,37.0,29.0,-11.657713890075684,0.7934569716453552,-0.30517578125,-1.286865234375,0.582275390625,0.0911865234375
7.423,311,1865,2565,314,1.0,37.0,29.0,-8.85009765625,0.7324218153953552,-0.7324218153953552,-1.158935546875,0.4185791015625,0.1717529296875
7.439,311,1833,2516,313,1.0,37.0,29.0,0.0,2.3193359375,1.7700194120407104,-1.039794921875,0.395751953125,0.135009765625
7.440,311,1794,2471,298,1.0,37.0,29.0,7.385253429412842,6.408690929412842,4.2724609375,-0.9920654296875,0.4686279296875,0.043212890625
7.447,311,1742,2415,313,1.0,37.0,29.0,9.33837890625,12.756346702575684,4.39453125,-1.0013427734375,0.5465087890625,-0.047119140625
7.462,311,1666,2319,313,1.0,37.0,29.0,7.446288585662842,20.263669967651367,2.01416015625,-1.023681640625,0.5880126953125,-0.130859375
7.487,311,1613,2233,313,1.0,37.0,29.0,3.051757574081421,26.306150436401367,-0.7324218153953552,-1.0377197265625,0.605224609375,-0.1719970703125
7.487,293,1526,2129,312,1.0,37.0,29.0,-3.173827886581421,29.174802780151367,-2.01416015625,-1.0299072265625,0.5902099609375,-0.15673828125
7.491,311,1442,1939,312,0.0,40.0,28.0,-7.446288585662842,30.212400436401367,-2.13623046875,-0.969970703125,0.5140380859375,-0.1353759765625
7.499,311,1361,1830,313,0.0,40.0,28.0,-7.690429210662842,30.700681686401367,-2.38037109375,-0.8724365234375,0.413330078125,-0.12109375
7.507,311,1263,1724,313,0.0,40.0,28.0,-6.408690929412842,30.395505905151367,-3.173827886581421,-0.791015625,0.341064453125,-0.0831298828125
7.521,311,1048,1516,313,0.0,40.0,28.0,-5.432128429412842,29.418943405151367,-4.638671875,-0.746337890625,0.299072265625,-0.0164794921875
7.530,311,944,1395,312,0.0,40.0,28.0,-3.417968511581421,28.076169967651367,-7.141112804412842,-0.7127685546875,0.2545166015625,0.0457763671875
7.537,310,949,1253,311,0.0,40.0,28.0,-0.3662109076976776,27.038572311401367,-10.131834983825684,-0.688720703125,0.2001953125,0.081298828125
7.551,311,792,1022,311,0.0,40.0,28.0,1.7700194120407104,26.367185592651367,-11.169432640075684,-0.680419921875,0.188720703125,0.0950927734375
7.561,310,706,923,311,0.0,40.0,28.0,2.746581792831421,25.207517623901367,-8.9111328125,-0.652587890625,0.2462158203125,0.0797119140625
7.567,309,629,848,311,0.0,40.0,28.0,5.065917491912842,23.376462936401367,-6.042479991912842,-0.635498046875,0.3228759765625,0.0347900390625
7.586,309,562,755,309,1.0,37.0,24.0,8.4228515625,20.01953125,-5.310058116912842,-0.655029296875,0.364990234375,0.009765625
7.589,309,531,706,310,1.0,37.0,24.0,9.521484375,15.380858421325684,-6.286620616912842,-0.678466796875,0.369140625,0.0064697265625
7.597,310,512,671,309,1.0,37.0,24.0,8.30078125,11.230467796325684,-7.141112804412842,-0.678955078125,0.377197265625,-0.000732421875
7.611,309,477,658,310,1.0,37.0,24.0,7.873534679412842,9.33837890625,-7.202147960662842,-0.6580810546875,0.4039306640625,-0.02734375
7.619,309,469,665,309,1.0,37.0,24.0,11.535643577575684,10.253905296325684,-7.141112804412842,-0.6680908203125,0.441162109375,-0.0830078125
7.627,309,473,657,309,1.0,37.0,24.0,17.02880859375,11.901854515075684,-7.568358898162842,-0.7196044921875,0.474609375,-0.1312255859375
7.641,309,488,658,309,1.0,37.0,24.0,18.4326171875,11.596678733825684,-9.09423828125,-0.774169921875,0.4560546875,-0.156005859375
7.649,309,501,659,309,1.0,37.0,24.0,14.831542015075684,8.97216796875,-11.596678733825684,-0.7974853515625,0.38525390625,-0.154052734375
7.666,309,519,661,310,1.0,37.0,24.0,10.131834983825684,4.8828125,-13.244627952575684,-0.7879638671875,0.3055419921875,-0.14013671875
7.691,309,549,687,310,1.0,37.0,24.0,7.019042491912842,0.7324218153953552,-12.329100608825684,-0.7850341796875,0.2574462890625,-0.132080078125
7.693,294,572,691,309,1.0,37.0,28.0,4.7607421875,-2.44140625,-9.09423828125,-0.801513671875,0.267822265625,-0.111572265625
7.693,309,593,713,311,1.0,37.0,28.0,1.4038084745407104,-3.967284917831421,-5.126952648162842,-0.808837890625,0.30126953125,-0.0723876953125
7.708,311,652,767,309,1.0,37.0,28.0,-3.234863042831421,-3.601073980331421,-1.7089842557907104,-0.7969970703125,0.3076171875,-0.0411376953125
7.709,310,671,810,310,1.0,37.0,28.0,-7.446288585662842,-2.197265625,0.7934569716453552,-0.7786865234375,0.299560546875,-0.0316162109375
7.717,310,739,869,310,1.0,37.0,28.0,-9.3994140625,-1.15966796875,2.624511480331421,-0.7579345703125,0.2890625,-0.044189453125
7.731,311,835,996,310,1.0,37.0,28.0,-8.72802734375,-1.3427733182907104,5.065917491912842,-0.7413330078125,0.2789306640625,-0.0858154296875
7.745,311,927,1062,311,1.0,37.0,28.0,-7.629394054412842,-3.479003667831421,8.9111328125,-0.7281494140625,0.296875,-0.128662109375
7.747,311,992,1157,311,1.0,37.0,28.0,-7.629394054412842,-3.479003667831421,8.9111328125,-0.6910400390625,0.3370361328125,-0.1407470703125
7.761,311,1145,1308,311,1.0,37.0,28.0,-8.11767578125,-13.793944358825684,14.343260765075684,-0.6463623046875,0.376708984375,-0.135009765625
7.791,306,1216,1412,311,1.0,37.0,28.0,-10.314940452575684,-18.85986328125,11.596678733825684,-0.6248779296875,0.4088134765625,-0.1053466796875
7.791,310,1287,1516,311,4.0,37.0,29.0,-10.314940452575684,-18.85986328125,11.596678733825684,-0.6119384765625,0.39013671875,-0.0438232421875
7.792,310,1458,1709,311,4.0,37.0,29.0,-28.015134811401367,-22.705076217651367,1.5869139432907104,-0.6220703125,0.3045654296875,0.0167236328125
7.800,310,1537,1807,312,4.0,37.0,29.0,-35.94970703125,-22.338865280151367,-0.4882812201976776,-0.653076171875,0.2254638671875,0.045654296875
7.813,311,1666,1987,312,4.0,37.0,29.0,-33.99658203125,-22.705076217651367,-0.2441406100988388,-0.6746826171875,0.1971435546875,0.0216064453125
7.822,310,1743,2089,312,4.0,37.0,29.0,-21.911619186401367,-24.780271530151367,0.7934569716453552,-0.7164306640625,0.2373046875,-0.00927734375
7.829,310,1806,2186,312,4.0,37.0,29.0,-7.934569835662842,-28.564451217651367,1.15966796875,-0.788330078125,0.3375244140625,0.023193359375
7.837,311,1860,2261,314,4.0,37.0,29.0,-7.934569835662842,-28.564451217651367,1.15966796875,-0.84130859375,0.384765625,0.089599609375
7.851,310,1967,2381,312,4.0,37.0,29.0,-4.69970703125,-26.977537155151367,0.6103515625,-0.8885498046875,0.3642578125,0.1204833984375
7.859,311,2039,2437,312,4.0,37.0,29.0,-4.69970703125,-21.179197311401367,2.746581792831421,-0.9532470703125,0.425537109375,0.0679931640625
7.870,311,2074,2501,312,4.0,37.0,29.0,-4.69970703125,-21.179197311401367,2.746581792831421,-1.017333984375,0.61279296875,-0.0574951171875
7.897,311,2119,2576,312,2.0,38.0,25.0,11.901854515075684,-22.155759811401367,7.019042491912842,-1.06298828125,0.8333740234375,-0.139404296875
7.897,311,2151,2610,312,2.0,38.0,25.0,21.423337936401367,-28.442380905151367,0.4882812201976776,-1.1082763671875,0.945556640625,-0.1396484375
7.898,297,2130,2647,316,2.0,38.0,25.0,21.423337936401367,-28.442380905151367,0.4882812201976776,-1.187255859375,0.8673095703125,-0.11279296875
7.912,311,2207,2689,314,2.0,38.0,25.0,12.634276390075684,-26.489255905151367,-20.080564498901367,-1.2847900390625,0.6673583984375,-0.0513916015625
7.938,311,2119,2712,313,2.0,38.0,25.0,0.0,-20.629880905151367,-21.545408248901367,-1.3470458984375,0.47119140625,0.03271484375
7.942,311,2121,2729,315,2.0,38.0,25.0,-6.958007335662842,-14.709471702575684,-16.9677734375,-1.34765625,0.37255859375,0.068603515625
7.954,311,2119,2727,314,2.0,38.0,25.0,-5.0048828125,-8.9111328125,-11.474608421325684,-1.3330078125,0.3731689453125,0.0218505859375
7.975,311,2135,2728,313,2.0,38.0,25.0,1.0986328125,-5.126952648162842,-9.27734375,-1.24072265625,0.370361328125,-0.0479736328125
7.976,311,2129,2738,312,2.0,38.0,25.0,1.0986328125,-5.126952648162842,-9.27734375,-1.1048583984375,0.3966064453125,-0.1142578125
7.976,311,2102,2737,313,2.0,38.0,25.0,7.202147960662842,-3.845214605331421,-13.183592796325684,-1.1556396484375,0.5526123046875,-0.1373291015625
8.003,310,2080,2727,314,2.0,35.0,36.0,-2.25830078125,-3.112792730331421,-13.183592796325684,-1.3232421875,0.6500244140625,-0.06640625
8.004,311,2054,2712,314,2.0,35.0,36.0,-2.25830078125,-3.112792730331421,-13.183592796325684,-1.351806640625,0.526123046875,0.0567626953125
8.004,311,1994,2668,313,2.0,35.0,36.0,-13.244627952575684,1.8310545682907104,-7.873534679412842,-1.2421875,0.3377685546875,0.1541748046875
8.011,311,1954,2638,314,2.0,35.0,36.0,-8.36181640625,4.5166015625,-1.9531248807907104,-1.1343994140625,0.2747802734375,0.1688232421875
8.023,311,1907,2565,314,2.0,35.0,36.0,-1.6479490995407104,8.7890625,4.8828125,-1.078857421875,0.3697509765625,0.101318359375
8.033,311,1880,2507,312,2.0,35.0,36.0,3.234863042831421,14.526366233825684,9.1552734375,-1.0555419921875,0.52783203125,0.0137939453125
8.039,311,1820,2440,314,2.0,35.0,36.0,5.432128429412842,20.263669967651367,8.11767578125,-1.0355224609375,0.625732421875,-0.0462646484375
8.047,311,1755,2367,318,2.0,35.0,36.0,5.432128429412842,20.263669967651367,8.11767578125,-1.009033203125,0.632568359375,-0.0810546875
8.064,311,1642,2204,312,2.0,35.0,36.0,2.868652105331421,29.418943405151367,-2.685546636581421,-0.97705078125,0.584228515625,-0.0950927734375
8.098,311,1577,2100,313,2.0,35.0,36.0,-1.8310545682907104,32.04345703125,-5.615233898162842,-0.927978515625,0.5018310546875,-0.1064453125
8.098,311,1494,1997,313,4.0,37.0,29.0,-1.8310545682907104,32.04345703125,-5.615233898162842,-0.856201171875,0.4033203125,-0.1185302734375
8.099,3176,1391,1764,298,4.0,37.0,29.0,-4.45556640625,32.89794921875,-6.530761241912842,-0.7734375,0.3040771484375,-0.1116943359375
8.099,311,1228,1712,312,4.0,37.0,29.0,-1.8310545682907104,30.456541061401367,-7.324218273162842,-0.7044677734375,0.210205078125,-0.072021484375
8.114,309,1091,1603,310,4.0,37.0,29.0,-1.8310545682907104,30.456541061401367,-7.324218273162842,-0.673828125,0.148681640625,-0.0223388671875
8.121,311,939,1413,311,4.0,37.0,29.0,4.2724609375,24.353025436401367,-9.8876953125,-0.668701171875,0.1300048828125,0.0140380859375
8.130,309,861,1289,311,4.0,37.0,29.0,6.164550304412842,21.850584030151367,-10.131834983825684,-0.6812744140625,0.1380615234375,0.0438232421875
8.138,309,766,1195,311,4.0,37.0,29.0,6.164550304412842,21.850584030151367,-10.131834983825684,-0.7020263671875,0.1806640625,0.0552978515625
8.151,2145,3176,1035,311,4.0,37.0,29.0,9.33837890625,17.7001953125,-8.30078125,-0.6871337890625,0.25634765625,0.03955078125
8.159,312,596,968,310,4.0,37.0,29.0,14.343260765075684,16.4794921875,-7.934569835662842,-0.6412353515625,0.3411865234375,0.0340576171875
8.177,309,557,861,311,4.0,37.0,35.0,14.282225608825684,13.122557640075684,-7.690429210662842,-0.63525390625,0.397705078125,0.0517578125
8.181,309,545,827,310,4.0,37.0,35.0,9.521484375,8.85009765625,-7.995604991912842,-0.6839599609375,0.400634765625,0.0430908203125
8.207,309,540,794,309,4.0,37.0,35.0,8.23974609375,6.958007335662842,-8.97216796875,-0.7164306640625,0.3768310546875,-0.0323486328125
8.207,308,542,788,309,4.0,37.0,35.0,8.23974609375,6.958007335662842,-8.97216796875,-0.7164306640625,0.3641357421875,-0.12451171875
8.213,309,552,806,309,4.0,37.0,35.0,18.6767578125,6.347655773162842,-8.6669921875,-0.7313232421875,0.3743896484375,-0.1561279296875
8.220,309,570,829,309,4.0,37.0,35.0,20.202634811401367,2.807616949081421,-8.544921875,-0.76708984375,0.387939453125,-0.1365966796875
8.228,309,584,868,309,4.0,37.0,35.0,20.202634811401367,2.807616949081421,-8.544921875,-0.76708984375,0.387939453125,-0.1365966796875
8.243,309,614,953,311,4.0,37.0,35.0,14.099120140075684,-3.784179449081421,-9.765625,-0.7991943359375,0.2935791015625,-0.0836181640625
8.249,310,644,1012,310,4.0,37.0,35.0,14.099120140075684,-3.784179449081421,-9.765625,-0.7901611328125,0.2314453125,-0.073486328125
8.257,309,673,1057,310,4.0,37.0,35.0,8.6669921875,-4.638671875,-8.97216796875,-0.7901611328125,0.2314453125,-0.073486328125
8.279,309,756,1140,311,3.0,36.0,29.0,2.563476324081421,-6.408690929412842,-0.9765624403953552,-0.7725830078125,0.1990966796875,-0.1446533203125
8.280,310,796,1219,311,3.0,36.0,29.0,2.563476324081421,-6.408690929412842,-0.9765624403953552,-0.7796630859375,0.261962890625,-0.1531982421875
8.307,311,861,1292,311,3.0,36.0,29.0,-0.4272460639476776,-10.864256858825684,4.2724609375,-0.777587890625,0.332763671875,-0.127197265625
8.308,311,955,1428,311,3.0,36.0,29.0,-6.286620616912842,-20.385740280151367,8.6669921875,-0.7486572265625,0.36376953125,-0.07861328125
8.311,309,1012,1506,311,3.0,36.0,29.0,-10.498045921325684,-21.301267623901367,7.446288585662842,-0.6893310546875,0.3453369140625,-0.0096435546875
8.320,310,1074,1593,311,3.0,36.0,29.0,-10.498045921325684,-21.301267623901367,7.446288585662842,-0.6475830078125,0.3013916015625,0.020751953125
8.352,307,1182,1748,311,3.0,36.0,29.0,-12.817381858825684,-17.63916015625,4.8828125,-0.6827392578125,0.3060302734375,-0.011962890625
8.352,311,1248,1837,312,3.0,36.0,29.0,-12.390135765075684,-18.49365234375,5.065917491912842,-0.724365234375,0.3636474609375,-0.05029296875
8.352,311,1316,1939,312,3.0,36.0,29.0,-12.390135765075684,-18.49365234375,5.065917491912842,-0.7283935546875,0.35546875,-0.0792236328125
8.365,311,1424,2069,313,3.0,36.0,29.0,-20.080564498901367,-24.597166061401367,-1.220703125,-0.7335205078125,0.297607421875,-0.0823974609375
8.407,310,1499,2155,312,4.0,36.0,27.0,-19.8974609375,-25.634763717651367,-2.746581792831421,-0.74267578125,0.28173828125,-0.056396484375
8.408,297,1552,2230,311,4.0,36.0,27.0,-19.8974609375,-25.634763717651367,-2.746581792831421,-0.7783203125,0.30078125,-0.0052490234375
8.408,296,1662,2341,311,4.0,36.0,27.0,-13.671874046325684,-24.353025436401367,0.7324218153953552,-0.83349609375,0.306884765625,0.0726318359375
8.408,297,1727,2375,298,4.0,36.0,27.0,-16.41845703125,-22.521970748901367,3.601073980331421,-0.8848876953125,0.28662109375,0.1282958984375
8.408,299,1738,2435,311,4.0,36.0,27.0,-16.41845703125,-22.521970748901367,3.601073980331421,-0.943359375,0.268310546875,0.156005859375
8.422,330,1830,2541,312,4.0,36.0,27.0,-7.385253429412842,-23.864744186401367,8.60595703125,-1.011962890625,0.32177734375,0.1597900390625
8.430,344,1791,2590,312,4.0,36.0,27.0,5.798339366912842,-27.099607467651367,8.6669921875,-1.05615234375,0.453369140625,0.1256103515625
8.439,351,1809,2624,314,4.0,36.0,27.0,5.798339366912842,-27.099607467651367,8.6669921875,-1.106689453125,0.56396484375,0.069091796875
8.452,311,2021,2665,312,4.0,36.0,27.0,16.90673828125,-22.888181686401367,7.202147960662842,-1.1796875,0.6153564453125,-0.04345703125
8.466,311,2074,2683,312,4.0,36.0,27.0,14.892577171325684,-15.686034202575684,8.1787109375,-1.1995849609375,0.6099853515625,-0.1865234375
8.470,311,2134,2701,314,2.0,35.0,29.0,14.892577171325684,-15.686034202575684,8.1787109375,-1.1995849609375,0.6099853515625,-0.1865234375
8.512,310,2180,2727,313,2.0,35.0,29.0,-3.601073980331421,-6.713866710662842,8.11767578125,-1.095703125,0.5135498046875,-0.0992431640625
8.513,311,2197,2736,312,2.0,35.0,29.0,-3.601073980331421,-6.713866710662842,8.11767578125,-1.1033935546875,0.5704345703125,-0.0216064453125
8.513,311,2200,2748,313,2.0,35.0,29.0,-9.765625,-8.97216796875,4.5166015625,-1.1033935546875,0.5704345703125,-0.0216064453125
8.513,312,3176,2524,313,2.0,35.0,29.0,-4.638671875,-11.291502952575684,-8.7890625,-1.1298828125,0.6221923828125,-0.04931640625
8.523,310,2053,2744,314,2.0,35.0,29.0,-4.638671875,-11.291502952575684,-8.7890625,-1.1085205078125,0.4759521484375,-0.0037841796875
8.530,310,2048,2739,314,2.0,35.0,29.0,-7.751464366912842,-8.30078125,-15.380858421325684,-1.1085205078125,0.4759521484375,-0.0037841796875
8.542,310,2048,2739,312,2.0,35.0,29.0,-7.934569835662842,-2.197265625,-15.502928733825684,-1.014892578125,0.2193603515625,0.1072998046875
8.550,311,2045,2740,319,2.0,35.0,29.0,-7.934569835662842,-2.197265625,-15.502928733825684,-1.1009521484375,0.2877197265625,0.0643310546875
8.564,310,2034,2739,314,2.0,35.0,29.0,-2.13623046875,-0.6103515625,-10.742186546325684,-1.1009521484375,0.2877197265625,0.0643310546875
8.572,311,1997,2715,312,3.0,35.0,30.0,-3.967284917831421,2.990722417831421,0.30517578125,-1.2945556640625,0.4747314453125,0.0008544921875
8.581,311,1973,2692,314,3.0,35.0,30.0,-3.967284917831421,2.990722417831421,0.30517578125,-1.23974609375,0.455810546875,0.0457763671875
8.601,311,1949,2663,314,3.0,35.0,30.0,-6.225585460662842,4.94384765625,4.45556640625,-1.23974609375,0.455810546875,0.0457763671875
8.613,311,1863,2599,312,3.0,35.0,30.0,-3.845214605331421,11.413573265075684,8.48388671875,-1.114013671875,0.5208740234375,0.131103515625
8.613,311,1858,2544,312,3.0,35.0,30.0,-3.845214605331421,11.413573265075684,8.48388671875,-1.1156005859375,0.583740234375,0.1055908203125
8.621,311,1816,2491,313,3.0,35.0,30.0,-3.234863042831421,17.88330078125,7.263183116912842,-1.1156005859375,0.583740234375,0.1055908203125
8.632,311,1735,2376,312,3.0,35.0,30.0,-2.38037109375,33.5693359375,0.2441406100988388,-1.1055908203125,0.52490234375,-0.0389404296875
8.640,311,1681,2296,313,3.0,35.0,30.0,-2.38037109375,33.5693359375,0.2441406100988388,-1.0386962890625,0.4732666015625,-0.0723876953125
8.650,310,1620,2206,313,3.0,35.0,30.0,-0.7324218153953552,37.65869140625,-1.4038084745407104,-1.0386962890625,0.4732666015625,-0.0723876953125
8.662,309,1502,2015,312,5.0,36.0,28.0,0.0,36.92626953125,-0.0610351525247097,-0.861328125,0.398681640625,-0.0762939453125
8.679,307,1415,1904,312,5.0,36.0,28.0,0.0,36.92626953125,-0.0610351525247097,-0.8037109375,0.3441162109375,-0.0980224609375
8.679,310,1321,1785,298,5.0,36.0,28.0,-1.6479490995407104,36.7431640625,1.0986328125,-0.8037109375,0.3441162109375,-0.0980224609375
8.692,310,1139,1577,311,5.0,36.0,28.0,-3.295898199081421,35.82763671875,0.7324218153953552,-0.7476806640625,0.25244140625,-0.055908203125
8.716,311,1050,1467,311,5.0,36.0,28.0,-3.295898199081421,35.82763671875,0.7324218153953552,-0.7205810546875,0.1988525390625,-0.0062255859375
8.716,311,963,1341,311,5.0,36.0,28.0,-2.38037109375,33.5693359375,-1.7700194120407104,-0.7205810546875,0.1988525390625,-0.0062255859375
8.723,309,787,1127,310,5.0,36.0,28.0,2.3193359375,30.212400436401367,-5.187987804412842,-0.6953125,0.1153564453125,0.025390625
8.730,310,698,1025,311,5.0,36.0,28.0,2.3193359375,30.212400436401367,-5.187987804412842,-0.6707763671875,0.157958984375,0.0277099609375
8.738,310,654,928,309,5.0,36.0,28.0,6.652831554412842,28.137205123901367,-4.39453125,-0.6707763671875,0.157958984375,0.0277099609375
8.752,309,603,846,310,5.0,36.0,28.0,20.141599655151367,20.996091842651367,-2.746581792831421,-0.602783203125,0.37939453125,0.037353515625
