time,compression0,compression1,compression2,compression3,magn_x,magn_y,magn_z,gyro_x,gyro_y,gyro_z,accel_x,accel_y,accel_z
0.006,304,1593,482,846,-9.0,35.0,16.0,6.591796398162842,-7.385253429412842,-6.958007335662842,-0.8485107421875,0.4837646484375,-0.2755126953125
0.017,304,1582,458,790,-9.0,35.0,16.0,8.85009765625,-9.33837890625,-9.521484375,-0.8643798828125,0.4918212890625,-0.283203125
0.026,308,1574,490,838,-9.0,35.0,16.0,9.58251953125,-10.986327171325684,-12.084959983825684,-0.8643798828125,0.4918212890625,-0.283203125
0.034,305,1555,495,841,-9.0,35.0,16.0,8.23974609375,-11.535643577575684,-14.160155296325684,-0.8741455078125,0.45654296875,-0.2757568359375
0.056,304,1533,468,785,-9.0,35.0,16.0,5.676269054412842,-11.108397483825684,-15.197752952575684,-0.8955078125,0.390625,-0.2452392578125
0.057,304,1509,499,837,-9.0,35.0,16.0,3.173827886581421,-10.131834983825684,-15.197752952575684,-0.8955078125,0.390625,-0.2452392578125
0.063,304,1526,499,830,-9.0,35.0,16.0,1.220703125,-8.72802734375,-14.465331077575684,-0.8929443359375,0.3734130859375,-0.227294921875
0.079,306,1518,473,782,-9.0,35.0,16.0,-0.1220703050494194,-6.774901866912842,-13.244627952575684,-0.876708984375,0.3663330078125,-0.21533203125
0.086,304,1518,501,830,-4.0,34.0,9.0,-0.6713866591453552,-4.7607421875,-11.413573265075684,-0.876708984375,0.3663330078125,-0.21533203125
0.094,306,1518,499,832,-4.0,34.0,9.0,-0.4882812201976776,-3.356933355331421,-9.1552734375,-0.8740234375,0.376708984375,-0.2244873046875
0.115,302,1516,473,790,-4.0,34.0,9.0,0.0610351525247097,-2.868652105331421,-6.835937023162842,-0.874755859375,0.384521484375,-0.2386474609375
0.116,298,1521,497,660,-4.0,34.0,9.0,0.54931640625,-2.868652105331421,-4.7607421875,-0.87353515625,0.3846435546875,-0.248291015625
0.123,306,1504,509,837,-4.0,34.0,9.0,0.54931640625,-3.051757574081421,-2.807616949081421,-0.8702392578125,0.3818359375,-0.2481689453125
0.138,302,1504,679,619,-4.0,34.0,9.0,-0.0610351525247097,-3.173827886581421,-0.7934569716453552,-0.869384765625,0.3817138671875,-0.2445068359375
0.161,304,1494,509,837,-4.0,34.0,9.0,-1.0986328125,-3.295898199081421,1.15966796875,-0.869873046875,0.3829345703125,-0.241455078125
0.161,304,1494,508,837,-4.0,34.0,9.0,-2.44140625,-3.417968511581421,3.112792730331421,-0.8701171875,0.3834228515625,-0.237060546875
0.169,302,1503,517,830,-4.0,34.0,9.0,-3.417968511581421,-3.540038824081421,4.8828125,-0.869384765625,0.3895263671875,-0.2283935546875
0.186,304,1494,514,835,-4.0,34.0,9.0,-3.417968511581421,-3.662109136581421,6.530761241912842,-0.869384765625,0.3895263671875,-0.2283935546875
0.187,306,1504,504,820,-11.0,33.0,9.0,-2.563476324081421,-3.723144292831421,7.873534679412842,-0.869384765625,0.4005126953125,-0.228515625
0.199,304,1508,479,772,-11.0,33.0,9.0,-1.03759765625,-3.723144292831421,8.60595703125,-0.872314453125,0.4312744140625,-0.2349853515625
0.207,304,1499,501,827,-11.0,33.0,9.0,0.7934569716453552,-3.845214605331421,8.60595703125,-0.872314453125,0.4312744140625,-0.2349853515625
0.223,304,1476,497,842,-11.0,33.0,9.0,2.50244140625,-3.967284917831421,7.934569835662842,-0.8753662109375,0.4417724609375,-0.2406005859375
0.229,305,1471,509,832,-11.0,33.0,9.0,3.601073980331421,-3.967284917831421,6.835937023162842,-0.87890625,0.4423828125,-0.24267578125
0.239,305,1441,499,837,-11.0,33.0,9.0,3.784179449081421,-3.906249761581421,5.676269054412842,-0.8837890625,0.43603515625,-0.241943359375
0.267,306,1439,499,826,-11.0,33.0,9.0,3.173827886581421,-3.723144292831421,4.94384765625,-0.8870849609375,0.4278564453125,-0.2412109375
0.267,306,1413,479,766,-11.0,33.0,9.0,1.8920897245407104,-3.356933355331421,5.065917491912842,-0.8829345703125,0.4146728515625,-0.237060546875
0.268,302,1477,441,794,-11.0,33.0,9.0,0.4272460639476776,-2.685546636581421,5.920409679412842,-0.872802734375,0.3939208984375,-0.2315673828125
0.278,304,1343,501,840,-11.0,33.0,9.0,-0.7934569716453552,-1.7700194120407104,7.202147960662842,-0.8662109375,0.3802490234375,-0.2308349609375
0.284,301,1336,497,837,-8.0,34.0,13.0,-1.15966796875,-0.9155272841453552,8.85009765625,-0.865234375,0.3916015625,-0.236083984375
0.299,299,1283,481,782,-8.0,34.0,13.0,0.1220703050494194,-0.9155272841453552,10.192870140075684,-0.868408203125,0.423095703125,-0.2486572265625
0.307,299,1268,508,819,-8.0,34.0,13.0,2.38037109375,-1.6479490995407104,10.314940452575684,-0.8741455078125,0.454345703125,-0.262451171875
0.346,300,1258,506,816,-8.0,34.0,13.0,4.21142578125,-3.051757574081421,8.9111328125,-0.873046875,0.4737548828125,-0.265625
0.359,299,1225,485,765,-8.0,34.0,13.0,5.371093273162842,-4.7607421875,6.225585460662842,-0.86181640625,0.4814453125,-0.2547607421875
0.365,300,1229,514,799,-8.0,34.0,13.0,6.469726085662842,-6.347655773162842,2.685546636581421,-0.847412109375,0.4775390625,-0.2420654296875
0.369,299,1255,533,750,-8.0,34.0,13.0,7.080077648162842,-7.263183116912842,-0.7934569716453552,-0.8360595703125,0.4642333984375,-0.2366943359375
0.370,299,1237,497,725,-8.0,34.0,13.0,6.225585460662842,-7.507323741912842,-3.295898199081421,-0.8282470703125,0.447998046875,-0.23388671875
0.370,277,1278,481,753,-8.0,34.0,13.0,3.906249761581421,-7.507323741912842,-4.5166015625,-0.8233642578125,0.429443359375,-0.2279052734375
0.381,299,1217,514,803,-8.0,34.0,13.0,1.03759765625,-7.324218273162842,-4.57763671875,-0.822998046875,0.407470703125,-0.220458984375
0.388,299,1262,490,772,-9.0,33.0,9.0,-1.220703125,-7.202147960662842,-3.967284917831421,-0.831787109375,0.39013671875,-0.2181396484375
0.395,299,1276,509,829,-9.0,33.0,9.0,-2.929687261581421,-7.507323741912842,-2.807616949081421,-0.843505859375,0.386962890625,-0.2196044921875
0.404,300,1306,501,832,-9.0,33.0,9.0,-3.967284917831421,-8.30078125,-1.5869139432907104,-0.849853515625,0.3973388671875,-0.22119140625
0.417,298,1336,470,802,-9.0,33.0,9.0,-4.0283203125,-9.33837890625,-0.8544921278953552,-0.8446044921875,0.410400390625,-0.22314453125
0.435,296,1362,485,858,-9.0,33.0,9.0,-2.685546636581421,-10.314940452575684,-0.9155272841453552,-0.8316650390625,0.4119873046875,-0.226318359375
0.436,291,1592,442,854,-9.0,33.0,9.0,-0.54931640625,-11.657713890075684,-1.5258787870407104,-0.8314208984375,0.411865234375,-0.2325439453125
0.448,298,1432,458,815,-9.0,33.0,9.0,1.4038084745407104,-14.099120140075684,-1.8920897245407104,-0.84375,0.43017578125,-0.24169921875
0.457,292,1439,470,879,-9.0,33.0,9.0,3.112792730331421,-17.15087890625,-2.0751953125,-0.85693359375,0.454833984375,-0.2554931640625
0.468,300,1468,464,883,-9.0,33.0,9.0,3.295898199081421,-19.34814453125,-2.624511480331421,-0.8701171875,0.460693359375,-0.267333984375
0.482,298,1503,438,827,-8.0,33.0,17.0,0.54931640625,-19.95849609375,-3.051757574081421,-0.8851318359375,0.4447021484375,-0.2635498046875
0.486,300,1551,409,865,-8.0,33.0,17.0,-3.967284917831421,-19.47021484375,-2.685546636581421,-0.8919677734375,0.42626953125,-0.2393798828125
0.494,302,1503,456,887,-8.0,33.0,17.0,-7.690429210662842,-18.06640625,-1.5869139432907104,-0.8892822265625,0.4117431640625,-0.2103271484375
0.508,301,1529,415,840,-8.0,33.0,17.0,-10.009765625,-16.2353515625,0.1220703050494194,-0.887451171875,0.3902587890625,-0.18408203125
0.516,299,1533,442,897,-8.0,33.0,17.0,-11.535643577575684,-15.014647483825684,2.3193359375,-0.886962890625,0.3680419921875,-0.16015625
0.527,299,1541,441,904,-8.0,33.0,17.0,-10.986327171325684,-14.648436546325684,4.638671875,-0.8919677734375,0.36865234375,-0.150634765625
0.540,296,1572,416,853,-8.0,33.0,17.0,-6.835937023162842,-14.770506858825684,6.347655773162842,-0.905029296875,0.3963623046875,-0.1546630859375
0.548,300,1613,430,905,-8.0,33.0,17.0,0.6713866591453552,-15.075682640075684,7.019042491912842,-0.9151611328125,0.4248046875,-0.1590576171875
0.560,296,1600,430,912,-8.0,33.0,17.0,8.7890625,-15.380858421325684,7.080077648162842,-0.91748046875,0.4320068359375,-0.1644287109375
0.570,291,1592,402,872,-8.0,33.0,17.0,14.831542015075684,-15.380858421325684,7.202147960662842,-0.90869140625,0.4227294921875,-0.170166015625
0.576,296,1613,423,921,-9.0,33.0,18.0,18.6767578125,-15.319823265075684,7.385253429412842,-0.8861083984375,0.416748046875,-0.1690673828125
0.585,295,1623,424,918,-9.0,33.0,18.0,18.6767578125,-15.319823265075684,7.385253429412842,-0.8614501953125,0.433349609375,-0.1683349609375
0.598,293,1691,388,860,-9.0,33.0,18.0,24.658201217651367,-17.02880859375,4.5166015625,-0.83349609375,0.467529296875,-0.17578125
0.606,292,1666,416,933,-9.0,33.0,18.0,28.686521530151367,-19.287109375,0.30517578125,-0.8028564453125,0.491455078125,-0.19384765625
0.615,294,1732,409,910,-9.0,33.0,18.0,28.686521530151367,-19.287109375,0.30517578125,-0.7840576171875,0.494384765625,-0.2169189453125
0.629,292,1715,375,874,-9.0,33.0,18.0,30.700681686401367,-24.658201217651367,-10.131834983825684,-0.775390625,0.484375,-0.2342529296875
0.637,292,1727,391,944,-9.0,33.0,18.0,24.841306686401367,-27.221677780151367,-14.099120140075684,-0.7603759765625,0.45751953125,-0.2459716796875
0.646,295,1798,444,976,-9.0,33.0,18.0,24.841306686401367,-27.221677780151367,-14.099120140075684,-0.7305908203125,0.4124755859375,-0.24658203125
0.673,299,1912,382,883,-9.0,33.0,18.0,4.45556640625,-32.04345703125,-16.9677734375,-0.684814453125,0.37158203125,-0.231689453125
0.673,306,1978,411,966,-9.0,33.0,18.0,-0.4272460639476776,-35.5224609375,-15.930174827575684,-0.6009521484375,0.3519287109375,-0.1802978515625
0.674,311,2345,607,895,-9.0,30.0,16.0,-0.4272460639476776,-35.5224609375,-15.930174827575684,-0.456298828125,0.3470458984375,-0.0732421875
0.689,327,2124,454,1031,-9.0,30.0,16.0,5.249022960662842,-51.147457122802734,-20.141599655151367,-0.29736328125,0.348876953125,0.01123046875
0.696,345,2263,593,1109,-9.0,30.0,16.0,18.5546875,-63.110347747802734,-28.320310592651367,-0.2105712890625,0.3924560546875,0.01025390625
0.704,360,2337,693,1163,-9.0,30.0,16.0,18.5546875,-63.110347747802734,-28.320310592651367,-0.236083984375,0.5184326171875,-0.0103759765625
0.718,378,2481,750,1120,-9.0,30.0,16.0,28.259275436401367,-76.5380859375,-42.663570404052734,-0.3651123046875,0.6868896484375,-0.0079345703125
0.726,390,2517,910,1294,-9.0,30.0,16.0,10.437010765075684,-69.03076171875,-47.424312591552734,-0.5833740234375,0.7779541015625,-0.064208984375
0.734,401,2563,971,1330,-9.0,30.0,16.0,10.437010765075684,-69.03076171875,-47.424312591552734,-0.9661865234375,0.6983642578125,-0.305419921875
0.776,426,2567,986,1268,-9.0,30.0,16.0,-13.549803733825684,-37.841796875,-57.006832122802734,-1.4932861328125,0.4609375,-0.593994140625
0.777,433,2579,1123,919,-9.0,30.0,16.0,-24.047849655151367,-35.0341796875,-55.908199310302734,-1.8895263671875,0.09423828125,-0.523681640625
0.777,456,2669,1185,1424,-9.0,30.0,16.0,-24.047849655151367,-35.0341796875,-55.908199310302734,-1.947998046875,-0.2122802734375,-0.10693359375
0.778,466,2632,1257,1116,-7.0,29.0,15.0,-35.09521484375,-45.471187591552734,-37.59765625,-1.750244140625,-0.2071533203125,0.25732421875
0.787,464,2619,1264,1494,-7.0,29.0,15.0,-22.033689498901367,-41.320796966552734,-24.536130905151367,-1.5087890625,0.0601806640625,0.35498046875
0.794,462,2657,1231,1455,-7.0,29.0,15.0,-22.033689498901367,-41.320796966552734,-24.536130905151367,-1.5087890625,0.0601806640625,0.35498046875
0.807,464,2576,1157,1341,-7.0,29.0,15.0,2.624511480331421,-9.033203125,-8.72802734375,-1.1041259765625,0.4473876953125,0.0533447265625
0.816,442,2552,1236,1434,-7.0,29.0,15.0,2.624511480331421,-9.033203125,-8.72802734375,-0.91845703125,0.391845703125,0.0360107421875
0.824,441,2507,1216,1411,-7.0,29.0,15.0,4.7607421875,6.896972179412842,-6.896972179412842,-0.91845703125,0.391845703125,0.0360107421875
0.838,442,2472,1162,1274,-7.0,29.0,15.0,3.723144292831421,24.658201217651367,-10.192870140075684,-0.9815673828125,0.3958740234375,-0.015869140625
0.846,455,2493,1276,1365,-7.0,29.0,15.0,3.723144292831421,24.658201217651367,-10.192870140075684,-1.2315673828125,0.5086669921875,-0.1390380859375
0.877,447,2490,1262,1348,-7.0,29.0,15.0,3.906249761581421,27.770994186401367,-12.573241233825684,-1.2315673828125,0.5086669921875,-0.1390380859375
0.878,439,2428,1156,1188,-3.0,30.0,17.0,-17.63916015625,23.498533248901367,-6.286620616912842,-1.579833984375,0.6314697265625,-0.276611328125
0.878,433,2364,1183,1287,-3.0,30.0,17.0,-17.63916015625,23.498533248901367,-6.286620616912842,-1.45751953125,0.49462890625,-0.24755859375
0.884,439,2388,1034,1206,-3.0,30.0,17.0,-36.1328125,22.216794967651367,-2.0751953125,-1.45751953125,0.49462890625,-0.24755859375
0.897,414,2087,1014,1065,-3.0,30.0,17.0,-52.001949310302734,22.766111373901367,4.57763671875,-1.1519775390625,0.2745361328125,-0.1087646484375
0.906,410,1967,1050,1126,-3.0,30.0,17.0,-52.001949310302734,22.766111373901367,4.57763671875,-1.064453125,0.1866455078125,-0.0592041015625
0.914,405,1821,1005,1079,-3.0,30.0,17.0,-48.950191497802734,25.634763717651367,7.934569835662842,-1.064453125,0.1866455078125,-0.0592041015625
0.927,385,1557,883,894,-3.0,30.0,17.0,-28.503416061401367,36.07177734375,13.549803733825684,-0.93994140625,0.09423828125,-0.02392578125
0.937,363,1430,856,912,-3.0,30.0,17.0,-28.503416061401367,36.07177734375,13.549803733825684,-0.86474609375,0.06494140625,0.0350341796875
0.947,359,1306,820,840,-3.0,30.0,17.0,-14.404295921325684,40.527339935302734,15.197752952575684,-0.86474609375,0.06494140625,0.0350341796875
0.984,316,934,728,728,-5.0,32.0,21.0,2.746581792831421,34.1796875,6.286620616912842,-0.6995849609375,0.009521484375,-0.08984375
0.984,310,879,684,675,-5.0,32.0,21.0,16.41845703125,33.99658203125,-4.94384765625,-0.6995849609375,0.009521484375,-0.08984375
0.993,299,666,631,567,-5.0,32.0,21.0,57.250972747802734,31.860349655151367,-13.671874046325684,-0.785888671875,0.5203857421875,-0.3243408203125
0.996,289,601,617,548,-5.0,32.0,21.0,57.250972747802734,31.860349655151367,-13.671874046325684,-0.758056640625,0.678955078125,-0.3551025390625
1.004,283,531,603,536,-5.0,32.0,21.0,78.857421875,26.184080123901367,-7.202147960662842,-0.758056640625,0.678955078125,-0.3551025390625
1.017,277,500,576,514,-5.0,32.0,21.0,93.44481658935547,24.902341842651367,-3.051757574081421,-0.5030517578125,0.467529296875,-0.40673828125
1.025,279,485,582,526,-5.0,32.0,21.0,89.66063690185547,31.677244186401367,-5.798339366912842,-0.5030517578125,0.467529296875,-0.40673828125
1.038,274,479,582,532,-5.0,32.0,21.0,72.93701171875,43.823238372802734,-14.221190452575684,-0.509033203125,0.3013916015625,-0.4560546875
1.051,275,478,576,510,-5.0,32.0,21.0,53.283687591552734,49.499507904052734,-22.155759811401367,-0.6588134765625,0.178466796875,-0.2991943359375
1.058,275,481,587,526,-5.0,32.0,21.0,30.212400436401367,43.212886810302734,-21.667478561401367,-0.6588134765625,0.178466796875,-0.2991943359375
1.088,274,473,590,527,-5.0,33.0,15.0,9.09423828125,33.14208984375,-10.864256858825684,-0.5850830078125,0.134765625,-0.189208984375
1.089,277,445,607,525,-5.0,33.0,15.0,1.0986328125,27.404783248901367,3.479003667831421,-0.411865234375,-0.0341796875,-0.14404296875
1.090,277,475,614,532,-5.0,33.0,15.0,7.202147960662842,26.184080123901367,13.977049827575684,-0.411865234375,-0.0341796875,-0.14404296875
1.098,282,553,628,561,-5.0,33.0,15.0,18.00537109375,26.916501998901367,18.9208984375,-0.4239501953125,-0.0635986328125,-0.1146240234375
1.119,293,784,630,625,-5.0,33.0,15.0,25.512693405151367,25.756834030151367,20.751951217651367,-0.5849609375,0.1641845703125,0.2274169921875
1.153,295,951,651,731,-5.0,33.0,15.0,27.099607467651367,17.4560546875,22.949216842651367,-0.5849609375,0.1641845703125,0.2274169921875
1.153,300,1175,644,803,-5.0,33.0,15.0,15.808104515075684,-1.0986328125,28.991697311401367,-0.6060791015625,0.514892578125,0.4603271484375
1.153,312,1551,603,895,-5.0,33.0,15.0,-11.657713890075684,-23.925779342651367,34.60693359375,-0.283935546875,1.09033203125,0.443603515625
1.153,336,1779,748,740,-5.0,33.0,15.0,-29.235837936401367,-32.28759765625,25.146482467651367,-0.283935546875,1.09033203125,0.443603515625
1.156,330,2041,625,975,-5.0,33.0,15.0,-11.230467796325684,-19.47021484375,0.7324218153953552,-0.4036865234375,0.6923828125,0.0772705078125
1.188,328,2347,572,985,-11.0,29.0,16.0,26.733396530151367,-4.39453125,-16.29638671875,-0.5113525390625,0.072998046875,-0.309814453125
1.189,336,2467,720,879,-11.0,29.0,16.0,58.593746185302734,2.01416015625,-13.488768577575684,-0.5113525390625,0.072998046875,-0.309814453125
1.189,361,2622,794,1220,-11.0,29.0,16.0,54.931636810302734,0.6103515625,-3.295898199081421,-0.6566162109375,0.327392578125,-0.6944580078125
1.200,391,2851,996,1303,-11.0,29.0,16.0,8.23974609375,-10.864256858825684,-6.713866710662842,-1.4620361328125,0.6162109375,-0.9122314453125
1.209,413,2901,1043,1343,-11.0,29.0,16.0,-47.790523529052734,-28.869626998901367,-24.841306686401367,-1.4620361328125,0.6162109375,-0.9122314453125
1.214,433,2988,1092,1371,-11.0,29.0,16.0,-91.49169158935547,-44.982906341552734,-38.14697265625,-1.8216552734375,0.3865966796875,-0.6622314453125
1.227,442,2968,1057,1323,-11.0,29.0,16.0,-113.76952362060547,-50.598140716552734,-33.8134765625,-2.2440185546875,0.1014404296875,0.0006103515625
1.236,439,2948,1146,1470,-11.0,29.0,16.0,-109.37499237060547,-43.945308685302734,-18.4326171875,-2.2440185546875,0.1014404296875,0.0006103515625
1.246,437,2948,1107,1445,-11.0,29.0,16.0,-84.10643768310547,-29.785154342651367,-5.676269054412842,-2.1376953125,0.194091796875,0.1536865234375
1.259,423,2884,939,1271,-11.0,29.0,16.0,-43.579097747802734,-14.099120140075684,-2.0751953125,-1.6087646484375,0.1854248046875,0.294189453125
1.266,426,2951,1012,1373,-5.0,29.0,16.0,6.958007335662842,-2.807616949081421,-6.408690929412842,-0.996337890625,0.2945556640625,0.3800048828125
1.298,416,2859,1039,1369,-5.0,29.0,16.0,52.978511810302734,4.2724609375,-13.916014671325684,-0.821044921875,0.6865234375,0.1461181640625
1.298,424,2750,1018,1345,-5.0,29.0,16.0,75.439453125,12.268065452575684,-22.338865280151367,-1.1763916015625,1.0087890625,-0.39697265625
1.298,416,2665,1217,1253,-5.0,29.0,16.0,62.499996185302734,18.9208984375,-29.052732467651367,-1.658447265625,0.974609375,-0.8912353515625
1.304,423,2557,1076,1313,-5.0,29.0,16.0,21.789548873901367,17.15087890625,-32.28759765625,-1.81494140625,0.6307373046875,-0.9556884765625
1.318,423,2308,1022,1143,-5.0,29.0,16.0,-17.76123046875,7.507323741912842,-33.447265625,-1.65185546875,0.3336181640625,-0.66796875
1.326,426,2172,1081,1206,-5.0,29.0,16.0,-37.2314453125,-2.0751953125,-33.447265625,-1.381591796875,0.2733154296875,-0.3426513671875
1.334,428,2024,1085,1163,-5.0,29.0,16.0,-42.968746185302734,-5.493163585662842,-33.5693359375,-1.148681640625,0.2843017578125,-0.1197509765625
1.349,424,1757,992,987,-5.0,29.0,16.0,-45.532222747802734,-3.417968511581421,-34.72900390625,-0.99609375,0.221435546875,0.0372314453125
1.356,404,1555,998,962,-5.0,29.0,16.0,-46.813961029052734,1.4648436307907104,-36.31591796875,-0.89111328125,0.1226806640625,0.134033203125
1.376,391,1357,972,894,-3.0,31.0,14.0,-44.006343841552734,8.544921875,-37.7197265625,-0.79443359375,0.0355224609375,0.1490478515625
1.397,342,1101,778,733,-3.0,31.0,14.0,-35.94970703125,15.563963890075684,-38.9404296875,-0.68701171875,-0.054443359375,0.1573486328125
1.397,324,1014,721,725,-3.0,31.0,14.0,-27.709959030151367,18.00537109375,-40.405269622802734,-0.5928955078125,-0.137451171875,0.2198486328125
1.397,315,922,679,673,-3.0,31.0,14.0,-23.193357467651367,15.624999046325684,-41.748043060302734,-0.524658203125,-0.1669921875,0.26806640625
1.407,300,761,621,586,-3.0,31.0,14.0,-13.366698265075684,13.549803733825684,-39.61181640625,-0.4755859375,-0.0936279296875,0.1915283203125
1.416,292,721,618,592,-3.0,31.0,14.0,10.314940452575684,15.258788108825684,-29.907224655151367,-0.468994140625,0.11279296875,0.0015869140625
1.425,286,673,614,574,-3.0,31.0,14.0,33.8134765625,16.90673828125,-13.183592796325684,-0.500732421875,0.357421875,-0.1624755859375
1.437,279,619,584,532,-3.0,31.0,14.0,38.02490234375,15.747069358825684,4.45556640625,-0.5467529296875,0.5081787109375,-0.240966796875
1.447,280,639,604,561,-3.0,31.0,14.0,22.583005905151367,14.648436546325684,17.9443359375,-0.55712890625,0.5413818359375,-0.27978515625
1.455,286,707,585,567,-3.0,31.0,14.0,-3.234863042831421,13.488768577575684,26.123044967651367,-0.494140625,0.4312744140625,-0.2926025390625
1.468,289,840,590,594,-2.0,29.0,17.0,-29.174802780151367,9.70458984375,27.343748092651367,-0.4342041015625,0.1490478515625,-0.2923583984375
1.500,289,966,594,674,-2.0,29.0,17.0,-43.151851654052734,4.5166015625,21.118162155151367,-0.4580078125,-0.1478271484375,-0.3035888671875
1.500,291,1160,567,691,-2.0,29.0,17.0,-38.87939453125,0.3662109076976776,14.770506858825684,-0.5076904296875,-0.1929931640625,-0.298095703125
1.500,304,1422,598,794,-2.0,29.0,17.0,-24.963376998901367,-4.08935546875,17.15087890625,-0.5323486328125,0.01611328125,-0.2685546875
1.507,313,1574,631,845,-2.0,29.0,17.0,-16.11328125,-11.291502952575684,26.428220748901367,-0.5557861328125,0.2794189453125,-0.2408447265625
1.514,324,1800,599,883,-2.0,29.0,17.0,-13.488768577575684,-19.95849609375,35.15625,-0.5518798828125,0.4974365234375,-0.2108154296875
1.528,338,1960,667,922,-2.0,29.0,17.0,-10.070799827575684,-28.686521530151367,36.62109375,-0.5257568359375,0.5880126953125,-0.16455078125
1.538,347,2145,753,1074,-2.0,29.0,17.0,-6.164550304412842,-37.59765625,28.808591842651367,-0.4622802734375,0.5068359375,-0.1217041015625
1.544,371,2337,790,1143,-2.0,29.0,17.0,-5.187987804412842,-43.518062591552734,17.63916015625,-0.3399658203125,0.33349609375,-0.13525390625
1.557,402,2568,846,1157,-2.0,29.0,21.0,-5.554198741912842,-42.053218841552734,10.192870140075684,-0.398681640625,0.19580078125,-0.2752685546875
1.566,391,2832,888,1306,-2.0,29.0,21.0,-10.009765625,-37.353515625,8.23974609375,-0.7916259765625,0.1748046875,-0.413818359375
1.594,426,2788,1069,1374,-2.0,29.0,21.0,-27.221677780151367,-38.63525390625,5.249022960662842,-1.3121337890625,0.1256103515625,-0.3834228515625
1.595,446,2916,1175,1422,-2.0,29.0,21.0,-51.574703216552734,-43.640132904052734,-5.126952648162842,-1.6370849609375,-0.046630859375,-0.16162109375
1.596,456,3147,1292,1224,-2.0,29.0,21.0,-60.485836029052734,-47.607418060302734,-15.014647483825684,-1.6134033203125,-0.1219482421875,0.1591796875
1.606,455,2966,1266,1509,-2.0,29.0,21.0,-39.9169921875,-48.645015716552734,-13.488768577575684,-1.4595947265625,0.032958984375,0.2813720703125
1.618,455,3089,1251,1380,-2.0,29.0,21.0,0.6103515625,-42.480464935302734,-2.197265625,-1.442626953125,0.33251953125,0.169677734375
1.626,442,3080,1363,1523,-2.0,29.0,21.0,38.818359375,-30.761716842651367,8.7890625,-1.5870361328125,0.6929931640625,0.0
1.634,445,3086,1348,1521,-2.0,29.0,21.0,51.208492279052734,-17.7001953125,12.695311546325684,-1.748046875,0.8853759765625,-0.1539306640625
1.652,432,3042,1170,1385,-2.0,29.0,21.0,32.2265625,-5.981444835662842,10.375975608825684,-1.60400390625,0.64501953125,-0.17578125
1.656,431,3066,1253,1440,0.0,30.0,17.0,10.620116233825684,2.197265625,4.08935546875,-1.1751708984375,0.27392578125,-0.0565185546875
1.664,437,2981,1258,1463,0.0,30.0,17.0,11.352538108825684,4.45556640625,-3.173827886581421,-0.91015625,0.276123046875,0.027099609375
1.697,419,2974,1182,1287,0.0,30.0,17.0,24.841306686401367,3.356933355331421,-10.742186546325684,-1.03515625,0.5164794921875,-0.046142578125
1.697,427,2925,1265,1112,0.0,30.0,17.0,32.28759765625,4.2724609375,-18.12744140625,-1.4029541015625,0.6541748046875,-0.2720947265625
1.697,426,2853,1262,1409,0.0,30.0,17.0,24.536130905151367,5.737304210662842,-21.057126998901367,-1.660888671875,0.6004638671875,-0.464599609375
1.713,414,2648,1176,1213,0.0,30.0,17.0,4.8828125,3.723144292831421,-19.22607421875,-1.6436767578125,0.43701171875,-0.4508056640625
1.717,426,2683,1138,1231,0.0,30.0,17.0,-14.099120140075684,-1.0986328125,-17.08984375,-1.4803466796875,0.3438720703125,-0.2901611328125
1.724,431,2473,1219,1320,0.0,30.0,17.0,-14.099120140075684,-1.0986328125,-17.08984375,-1.311279296875,0.3616943359375,-0.1268310546875
1.738,423,2258,1112,1160,0.0,30.0,17.0,-31.188962936401367,-2.990722417831421,-17.333984375,-1.1705322265625,0.36572265625,-0.039794921875
1.746,411,2153,1162,1233,0.0,30.0,17.0,-32.53173828125,2.563476324081421,-16.845703125,-1.070556640625,0.2652587890625,0.0191650390625
1.755,406,2063,1120,1173,-4.0,29.0,20.0,-32.53173828125,2.563476324081421,-16.845703125,-1.021484375,0.113037109375,0.078857421875
1.768,382,1855,987,978,-4.0,29.0,20.0,-29.785154342651367,14.343260765075684,-13.366698265075684,-0.98095703125,-0.0152587890625,0.0888671875
1.776,376,1678,998,947,-4.0,29.0,20.0,-25.939939498901367,20.01953125,-7.019042491912842,-0.8929443359375,-0.1148681640625,0.0550537109375
1.799,369,1529,949,959,-4.0,29.0,20.0,-25.939939498901367,20.01953125,-7.019042491912842,-0.765380859375,-0.2056884765625,0.06884765625
1.799,327,1279,761,777,-4.0,29.0,20.0,-14.282225608825684,24.902341842651367,8.36181640625,-0.6541748046875,-0.268310546875,0.130859375
1.806,316,1157,750,774,-4.0,29.0,20.0,-12.145995140075684,23.925779342651367,10.803221702575684,-0.569580078125,-0.248291015625,0.1622314453125
1.824,308,1037,707,742,-4.0,29.0,20.0,-12.145995140075684,23.925779342651367,10.803221702575684,-0.510986328125,-0.1375732421875,0.1009521484375
1.828,294,894,684,673,-4.0,29.0,20.0,13.977049827575684,28.442380905151367,14.831542015075684,-0.50927734375,0.0421142578125,-0.056396484375
1.836,292,800,651,654,-4.0,29.0,20.0,40.954586029052734,34.11865234375,23.315427780151367,-0.5479736328125,0.2911376953125,-0.2086181640625
1.845,289,761,634,619,-4.0,29.0,20.0,40.954586029052734,34.11865234375,23.315427780151367,-0.5723876953125,0.521240234375,-0.2601318359375
1.862,286,754,601,588,-4.0,33.0,18.0,58.227535247802734,33.50830078125,48.034664154052734,-0.5546875,0.6036376953125,-0.226318359375
1.866,282,800,603,631,-4.0,33.0,18.0,43.212886810302734,30.883787155151367,51.879878997802734,-0.51123046875,0.5343017578125,-0.188720703125
1.887,290,854,607,657,-4.0,33.0,18.0,43.212886810302734,30.883787155151367,51.879878997802734,-0.475830078125,0.424072265625,-0.1927490234375
1.907,289,1065,586,706,-4.0,33.0,18.0,-0.9155272841453552,24.169919967651367,37.2314453125,-0.4725341796875,0.373779296875,-0.1929931640625
1.907,286,1225,562,750,-4.0,33.0,18.0,-22.949216842651367,15.502928733825684,28.991697311401367,-0.452880859375,0.3863525390625,-0.13037109375
1.907,289,1365,540,799,-4.0,33.0,18.0,-22.949216842651367,15.502928733825684,28.991697311401367,-0.41650390625,0.4090576171875,-0.0504150390625
1.923,294,1608,523,800,-4.0,33.0,18.0,-29.846189498901367,-2.44140625,15.258788108825684,-0.4176025390625,0.39404296875,-0.031982421875
1.926,302,1785,574,918,-4.0,33.0,18.0,-2.197265625,-9.765625,13.793944358825684,-0.4508056640625,0.357177734375,-0.0948486328125
1.934,307,1929,562,978,-4.0,33.0,18.0,-2.197265625,-9.765625,13.793944358825684,-0.4508056640625,0.357177734375,-0.0948486328125
1.948,315,2230,562,998,-3.0,34.0,23.0,60.791011810302734,-35.64453125,24.047849655151367,-0.4384765625,0.497314453125,-0.2349853515625
1.956,324,2384,625,1148,-3.0,34.0,23.0,60.791011810302734,-35.64453125,24.047849655151367,-0.351318359375,0.6173095703125,-0.2371826171875
1.964,332,2533,627,1199,-3.0,34.0,23.0,54.626461029052734,-48.889156341552734,23.559568405151367,-0.351318359375,0.6173095703125,-0.2371826171875
1.979,361,2715,765,1222,-3.0,34.0,23.0,13.671874046325684,-47.668453216552734,-4.5166015625,-0.6126708984375,0.406005859375,-0.346435546875
2.005,385,2801,987,1416,-3.0,34.0,23.0,13.671874046325684,-47.668453216552734,-4.5166015625,-1.1923828125,0.1773681640625,-0.4200439453125
2.006,401,2897,1058,1170,-3.0,34.0,23.0,-2.3193359375,-39.36767578125,-14.038084983825684,-1.1923828125,0.1773681640625,-0.4200439453125
2.008,415,3064,1188,1498,-3.0,34.0,23.0,-55.603023529052734,-44.982906341552734,-27.038572311401367,-1.6395263671875,-0.5245361328125,-0.045166015625
2.016,418,3095,1265,1557,-3.0,34.0,23.0,-55.603023529052734,-44.982906341552734,-27.038572311401367,-1.34716796875,-0.44677734375,0.27099609375
2.031,423,3147,1348,1557,-3.0,34.0,23.0,-56.213375091552734,-49.926753997802734,-24.658201217651367,-1.34716796875,-0.44677734375,0.27099609375
2.038,424,3147,1359,1574,-3.0,34.0,23.0,28.808591842651367,-38.75732421875,6.713866710662842,-1.2794189453125,0.7916259765625,0.1419677734375
2.046,430,3147,1417,1656,-5.0,28.0,24.0,28.808591842651367,-38.75732421875,6.713866710662842,-1.554931640625,1.1007080078125,-0.100341796875
2.054,433,3147,1437,1675,-5.0,28.0,24.0,44.067378997802734,-22.399900436401367,8.11767578125,-1.554931640625,1.1007080078125,-0.100341796875
2.068,428,3147,1306,1598,-5.0,28.0,24.0,-12.207030296325684,4.21142578125,-3.967284917831421,-1.7030029296875,0.5418701171875,-0.1475830078125
2.076,431,3135,1399,1635,-5.0,28.0,24.0,-12.207030296325684,4.21142578125,-3.967284917831421,-1.263916015625,0.203369140625,0.012451171875
2.084,432,3147,1401,1580,-5.0,28.0,24.0,-31.249998092651367,9.8876953125,-4.150390625,-1.263916015625,0.203369140625,0.012451171875
2.109,425,3042,1292,1447,-5.0,28.0,24.0,7.751464366912842,9.82666015625,-9.70458984375,-0.918212890625,0.645263671875,-0.0235595703125
2.110,428,3073,1411,1521,-5.0,28.0,24.0,7.751464366912842,9.82666015625,-9.70458984375,-1.2237548828125,0.77978515625,-0.256103515625
2.114,438,3028,1397,1529,-5.0,28.0,24.0,26.672361373901367,10.559081077575684,-27.221677780151367,-1.2237548828125,0.77978515625,-0.256103515625
2.127,438,2809,1316,1341,-5.0,28.0,24.0,9.33837890625,10.864256858825684,-47.180171966552734,-1.76123046875,0.5615234375,-0.4935302734375
2.137,455,2703,1429,1416,-5.0,28.0,24.0,9.33837890625,10.864256858825684,-47.180171966552734,-1.684814453125,0.4443359375,-0.336669921875
2.144,462,2621,1399,1382,-2.0,30.0,18.0,-13.916014671325684,6.347655773162842,-42.968746185302734,-1.684814453125,0.4443359375,-0.336669921875
2.158,454,2382,1289,1173,-2.0,30.0,18.0,-31.433103561401367,2.929687261581421,-39.55078125,-1.3477783203125,0.341552734375,-0.0137939453125
2.166,462,2226,1365,1268,-2.0,30.0,18.0,-42.968746185302734,4.39453125,-38.75732421875,-1.3477783203125,0.341552734375,-0.0137939453125
2.173,446,2115,1346,1217,-2.0,30.0,18.0,-51.330562591552734,11.413573265075684,-35.82763671875,-1.2303466796875,0.220458984375,0.00390625
2.217,408,1653,1216,1074,-2.0,30.0,18.0,-57.312007904052734,28.930662155151367,-15.197752952575684,-1.101318359375,-0.1307373046875,0.0906982421875
2.217,391,1441,1067,939,-2.0,30.0,18.0,-53.955074310302734,36.4990234375,-1.3427733182907104,-1.0303955078125,-0.2806396484375,0.0804443359375
2.218,336,1289,1031,777,-2.0,30.0,18.0,-41.564937591552734,44.128414154052734,13.000487327575684,-0.7188720703125,-0.4825439453125,0.1087646484375
2.226,322,1012,819,780,-2.0,30.0,18.0,-20.324705123901367,47.729488372802734,25.268552780151367,-0.7188720703125,-0.4825439453125,0.1087646484375
2.234,308,902,750,721,-2.0,30.0,18.0,0.0610351525247097,45.593257904052734,31.982419967651367,-0.5606689453125,-0.4713134765625,0.1875
2.248,294,691,651,593,-2.0,29.0,18.0,14.038084983825684,41.381832122802734,32.16552734375,-0.248779296875,-0.0653076171875,0.1458740234375
2.256,280,605,644,588,-2.0,29.0,18.0,27.038572311401367,37.7197265625,30.029294967651367,-0.248779296875,-0.0653076171875,0.1458740234375
2.264,281,579,631,561,-2.0,29.0,18.0,47.851558685302734,36.43798828125,31.249998092651367,-0.1253662109375,0.2186279296875,0.0123291015625
2.278,280,636,600,567,-2.0,29.0,18.0,76.7822265625,37.90283203125,36.80419921875,-0.2047119140625,0.414306640625,-0.2113037109375
2.287,289,711,620,620,-2.0,29.0,18.0,104.30907440185547,39.97802734375,37.109375,-0.2047119140625,0.414306640625,-0.2113037109375
2.312,292,790,642,654,-2.0,29.0,18.0,120.17821502685547,40.10009765625,28.259275436401367,-0.2147216796875,0.545654296875,-0.34619140625
2.312,300,1003,677,700,-2.0,29.0,18.0,107.66600799560547,33.26416015625,30.578611373901367,-0.4267578125,1.1092529296875,-0.2574462890625
2.316,305,1129,702,779,-2.0,29.0,18.0,67.81005859375,16.29638671875,40.0390625,-0.4267578125,1.1092529296875,-0.2574462890625
2.326,310,1258,740,820,-2.0,29.0,18.0,33.14208984375,-1.220703125,27.160642623901367,-0.4500732421875,0.889892578125,-0.1309814453125
2.338,324,1503,766,864,-2.0,29.0,18.0,17.39501953125,-7.446288585662842,-1.0986328125,-0.2666015625,0.5064697265625,-0.3143310546875
2.349,344,1669,860,1000,-5.0,31.0,18.0,4.39453125,-5.0048828125,-20.507810592651367,-0.2666015625,0.5064697265625,-0.3143310546875
2.354,359,1824,905,1078,-5.0,31.0,18.0,-23.254392623901367,-6.591796398162842,-24.230955123901367,-0.31103515625,0.4287109375,-0.5382080078125
2.368,375,2144,858,1050,-5.0,31.0,18.0,-63.964839935302734,-18.5546875,-16.54052734375,-0.446533203125,0.3973388671875,-0.4727783203125
2.376,382,2261,974,1211,-5.0,31.0,18.0,-92.89550018310547,-32.470703125,-6.774901866912842,-0.446533203125,0.3973388671875,-0.4727783203125
2.384,396,2340,1063,1289,-5.0,31.0,18.0,-89.72167205810547,-36.92626953125,-2.868652105331421,-0.615234375,0.3680419921875,-0.46142578125
2.415,388,2482,1129,1243,-5.0,31.0,18.0,-66.10107421875,-33.203125,-2.929687261581421,-1.120849609375,0.3924560546875,-0.4088134765625
2.415,398,2919,1100,1384,-5.0,31.0,18.0,-59.570308685302734,-34.72900390625,-2.807616949081421,-1.770751953125,0.3153076171875,-0.1268310546875
2.415,411,2665,1261,1463,-5.0,31.0,18.0,-87.03612518310547,-43.029781341552734,-10.864256858825684,-1.9915771484375,-0.17431640625,0.180419921875
2.428,426,2793,1225,1355,-5.0,31.0,18.0,-105.65184783935547,-44.677730560302734,-27.526853561401367,-1.7371826171875,-0.6270751953125,0.2935791015625
2.439,439,2813,1317,1521,-5.0,31.0,18.0,-67.2607421875,-37.353515625,-31.860349655151367,-1.4703369140625,-0.413818359375,0.2589111328125
2.444,439,2859,1313,1533,-4.0,30.0,16.0,4.94384765625,-28.930662155151367,-18.61572265625,-1.4110107421875,0.2216796875,0.1639404296875
2.457,440,2847,1186,1386,-4.0,30.0,16.0,53.771968841552734,-20.446775436401367,-5.493163585662842,-1.480224609375,0.706787109375,0.041259765625
2.466,441,2798,1264,1494,-4.0,30.0,16.0,62.011714935302734,-7.507323741912842,-2.746581792831421,-1.53369140625,0.86328125,-0.168212890625
2.474,455,2713,1248,1463,-4.0,30.0,16.0,47.302242279052734,7.385253429412842,-8.23974609375,-1.3785400390625,0.6807861328125,-0.2950439453125
2.487,439,2621,1201,1312,-4.0,30.0,16.0,32.5927734375,13.610838890075684,-20.263669967651367,-1.061279296875,0.4061279296875,-0.16845703125
2.517,442,2695,1159,1375,-4.0,30.0,16.0,28.869626998901367,10.559081077575684,-32.40966796875,-0.9757080078125,0.414306640625,-0.0396728515625
2.517,401,2691,1149,1283,-4.0,30.0,16.0,29.541013717651367,8.48388671875,-37.9638671875,-1.270263671875,0.5943603515625,-0.170654296875
2.518,439,2507,1439,1039,-4.0,30.0,16.0,25.085447311401367,10.742186546325684,-38.02490234375,-1.6143798828125,0.6290283203125,-0.4681396484375
2.530,442,2306,1303,1336,-4.0,30.0,16.0,13.000487327575684,11.169432640075684,-34.423828125,-1.6917724609375,0.45166015625,-0.61669921875
2.534,442,2203,1290,1258,-4.0,30.0,16.0,-0.8544921278953552,5.371093273162842,-29.296873092651367,-1.53955078125,0.28173828125,-0.49462890625
2.552,440,2012,1206,1116,-6.0,28.0,15.0,-11.901854515075684,-2.25830078125,-24.353025436401367,-1.310791015625,0.24609375,-0.2490234375
2.564,433,1914,1266,1184,-6.0,28.0,15.0,-20.141599655151367,-5.371093273162842,-21.545408248901367,-1.08984375,0.2237548828125,-0.024169921875
2.564,418,1826,1213,1078,-6.0,28.0,15.0,-24.841306686401367,-2.807616949081421,-22.033689498901367,-0.94091796875,0.1258544921875,0.117919921875
2.578,406,1608,1070,962,-6.0,28.0,15.0,-23.681638717651367,3.662109136581421,-22.277830123901367,-0.87353515625,0.0137939453125,0.139404296875
2.586,398,1547,1083,1004,-6.0,28.0,15.0,-14.221190452575684,11.230467796325684,-17.88330078125,-0.831298828125,-0.0706787109375,0.09716796875
2.594,383,1437,1056,963,-6.0,28.0,15.0,0.6103515625,15.991209983825684,-9.58251953125,-0.77490234375,-0.14404296875,0.109130859375
2.619,356,1303,879,816,-6.0,28.0,15.0,12.512206077575684,16.78466796875,-0.9155272841453552,-0.6927490234375,-0.1943359375,0.1690673828125
2.619,342,1268,816,832,-6.0,28.0,15.0,18.5546875,17.2119140625,6.164550304412842,-0.6285400390625,-0.1917724609375,0.1744384765625
2.624,327,1214,793,799,-6.0,28.0,15.0,23.620603561401367,18.98193359375,12.451170921325684,-0.58203125,-0.11279296875,0.122802734375
2.638,317,1129,698,725,-4.0,31.0,17.0,30.761716842651367,20.935056686401367,19.8974609375,-0.5267333984375,0.010986328125,0.0279541015625
2.646,315,1112,711,774,-4.0,31.0,17.0,38.330078125,25.024412155151367,29.235837936401367,-0.5126953125,0.1163330078125,-0.1351318359375
2.655,307,1104,693,761,-4.0,31.0,17.0,40.832515716552734,30.761716842651367,41.076656341552734,-0.537841796875,0.2064208984375,-0.2982177734375
2.685,304,1170,647,723,-4.0,31.0,17.0,32.470703125,33.14208984375,54.199214935302734,-0.53271484375,0.308837890625,-0.37353515625
2.685,316,1225,689,803,-4.0,31.0,17.0,14.221190452575684,30.334470748901367,64.94140625,-0.4957275390625,0.392578125,-0.357666015625
2.685,318,1316,689,816,-4.0,31.0,17.0,-6.164550304412842,23.986814498901367,70.98388671875,-0.487060546875,0.428955078125,-0.305419921875
2.698,323,1545,678,891,-4.0,31.0,17.0,-23.071287155151367,15.686034202575684,73.54736328125,-0.4713134765625,0.42431640625,-0.243408203125
2.722,324,1624,684,943,-4.0,31.0,17.0,-33.63037109375,7.324218273162842,72.1435546875,-0.4278564453125,0.380126953125,-0.195556640625
2.722,334,1837,673,998,-4.0,31.0,17.0,-37.841796875,-0.4272460639476776,65.97900390625,-0.3653564453125,0.3466796875,-0.1702880859375
2.728,336,2087,684,1018,-4.0,31.0,17.0,-34.11865234375,-9.09423828125,56.823726654052734,-0.32666015625,0.390380859375,-0.15673828125
2.736,351,2197,766,1183,-5.0,31.0,17.0,-19.775390625,-20.141599655151367,44.860836029052734,-0.3382568359375,0.482421875,-0.1983642578125
2.744,359,2328,797,1236,-5.0,31.0,17.0,-0.7324218153953552,-31.311033248901367,29.235837936401367,-0.326171875,0.539794921875,-0.3048095703125
2.758,360,2555,739,1213,-5.0,31.0,17.0,12.573241233825684,-38.2080078125,11.169432640075684,-0.352783203125,0.534423828125,-0.42822265625
2.766,385,2683,923,1393,-5.0,31.0,17.0,15.686034202575684,-39.85595703125,-4.21142578125,-0.5836181640625,0.5706787109375,-0.50048828125
2.782,389,2798,1056,1441,-5.0,31.0,17.0,10.925292015075684,-42.785640716552734,-13.732909202575684,-1.0089111328125,0.699462890625,-0.4014892578125
2.788,393,2918,1085,1377,-5.0,31.0,17.0,-7.141112804412842,-52.734371185302734,-24.536130905151367,-1.392578125,0.6522216796875,-0.1087646484375
2.796,398,2991,1250,1543,-5.0,31.0,17.0,-41.931148529052734,-62.561031341552734,-44.128414154052734,-1.4833984375,0.177978515625,0.2427978515625
2.824,402,3147,1209,1543,-5.0,31.0,17.0,-62.316890716552734,-62.316890716552734,-61.706539154052734,-1.356689453125,-0.3507080078125,0.4556884765625
2.824,360,3147,1289,1546,-5.0,31.0,17.0,-31.249998092651367,-53.955074310302734,-62.438961029052734,-1.2950439453125,-0.318115234375,0.3782958984375
2.826,375,3147,1310,1533,-5.0,31.0,17.0,33.99658203125,-45.043941497802734,-49.011226654052734,-1.3927001953125,0.260986328125,0.0831298828125
2.837,411,3147,1443,1624,-2.0,30.0,20.0,84.28954315185547,-37.4755859375,-37.109375,-1.583984375,0.81591796875,-0.22119140625
2.848,414,3147,1375,1478,-2.0,30.0,20.0,96.55760955810547,-30.883787155151367,-37.53662109375,-1.78857421875,0.9779052734375,-0.4029541015625
2.856,406,3072,1506,1464,-2.0,30.0,20.0,79.345703125,-26.977537155151367,-47.546382904052734,-1.784423828125,0.8367919921875,-0.4471435546875
2.864,404,3040,1555,1384,-2.0,30.0,20.0,79.345703125,-26.977537155151367,-47.546382904052734,-1.37353515625,0.544677734375,-0.283203125
2.890,391,2827,1455,1234,-2.0,30.0,20.0,39.1845703125,-25.878904342651367,-80.32225799560547,-0.939208984375,0.415283203125,-0.00341796875
2.890,411,2739,1550,1369,-2.0,30.0,20.0,31.005857467651367,-23.986814498901367,-93.07860565185547,-1.0125732421875,0.5194091796875,0.1002197265625
2.894,406,2633,1550,1372,-2.0,30.0,20.0,31.005857467651367,-23.986814498901367,-93.07860565185547,-1.4814453125,0.495361328125,-0.0576171875
2.926,403,2689,1398,1271,-2.0,30.0,20.0,-0.7324218153953552,-2.807616949081421,-83.86229705810547,-1.83642578125,0.240966796875,-0.245361328125
2.927,409,2460,1483,1261,-2.0,30.0,20.0,-25.085447311401367,7.019042491912842,-62.866207122802734,-1.826904296875,-0.071044921875,-0.205322265625
2.927,391,2364,1478,1278,-2.0,30.0,20.0,-25.085447311401367,7.019042491912842,-62.866207122802734,-1.607421875,-0.2518310546875,-0.0096435546875
2.942,377,2240,1331,1093,0.0,30.0,15.0,-68.17626953125,18.9208984375,-6.530761241912842,-1.3876953125,-0.253662109375,0.136962890625
2.946,377,2217,1328,1191,0.0,30.0,15.0,-77.69775390625,28.869626998901367,21.179197311401367,-1.2144775390625,-0.1583251953125,0.1778564453125
2.954,376,1999,1262,1178,0.0,30.0,15.0,-77.69775390625,28.869626998901367,21.179197311401367,-1.08203125,-0.0855712890625,0.1707763671875
2.968,354,1798,1051,986,0.0,30.0,15.0,-63.049312591552734,52.429195404052734,54.931636810302734,-1.014892578125,-0.054931640625,0.125
2.976,342,1584,1031,984,0.0,30.0,15.0,-42.724605560302734,61.096187591552734,59.631343841552734,-0.943603515625,-0.0118408203125,0.038330078125
2.992,324,1424,905,898,0.0,30.0,15.0,-42.724605560302734,61.096187591552734,59.631343841552734,-0.73681640625,0.0155029296875,0.0087890625
3.003,302,1214,763,782,0.0,30.0,15.0,0.6713866591453552,60.668941497802734,52.124019622802734,-0.4620361328125,-0.0364990234375,0.0933837890625
3.029,300,1148,710,738,0.0,30.0,15.0,11.108397483825684,50.170894622802734,32.04345703125,-0.272216796875,-0.082275390625,0.1884765625
3.029,275,1018,712,571,0.0,30.0,15.0,11.108397483825684,50.170894622802734,32.04345703125,-0.1904296875,0.0230712890625,0.1402587890625
3.030,291,874,669,620,-2.0,29.0,16.0,43.701168060302734,32.5927734375,-15.747069358825684,-0.2001953125,0.263427734375,-0.0338134765625
3.037,292,827,689,630,-2.0,29.0,16.0,83.55712127685547,29.602048873901367,-25.268552780151367,-0.2222900390625,0.5625,-0.199951171875
3.045,293,855,683,646,-2.0,29.0,16.0,83.55712127685547,29.602048873901367,-25.268552780151367,-0.2501220703125,0.8223876953125,-0.33984375
3.058,292,990,673,642,-2.0,29.0,16.0,125.30516815185547,26.855466842651367,-5.615233898162842,-0.4202880859375,0.871826171875,-0.5074462890625
3.066,294,1070,691,696,-2.0,29.0,16.0,99.67040252685547,22.583005905151367,-0.2441406100988388,-0.6158447265625,0.6468505859375,-0.6229248046875
3.074,296,1143,702,725,-2.0,29.0,16.0,99.67040252685547,22.583005905151367,-0.2441406100988388,-0.6158447265625,0.6468505859375,-0.6229248046875
3.097,300,1285,677,726,-2.0,29.0,16.0,6.286620616912842,-4.7607421875,-17.39501953125,-0.5528564453125,0.072998046875,-0.365234375
3.097,313,1422,682,794,-2.0,29.0,16.0,6.286620616912842,-4.7607421875,-17.39501953125,-0.568359375,0.0125732421875,-0.21630859375
3.106,316,1496,757,853,-2.0,29.0,16.0,-28.198240280151367,-15.258788108825684,-12.329100608825684,-0.568359375,0.0125732421875,-0.21630859375
3.132,334,1730,737,859,-2.0,29.0,16.0,-60.485836029052734,-23.376462936401367,24.597166061401367,-0.6241455078125,0.208740234375,-0.0452880859375
3.141,338,1925,767,994,-7.0,31.0,13.0,-60.485836029052734,-23.376462936401367,24.597166061401367,-0.5938720703125,0.145263671875,-0.0137939453125
3.142,351,2104,794,1056,-7.0,31.0,13.0,-63.293453216552734,-22.033689498901367,37.841796875,-0.5938720703125,0.145263671875,-0.0137939453125
3.156,371,2386,814,1054,-7.0,31.0,13.0,-37.53662109375,-11.352538108825684,49.560543060302734,-0.435302734375,-0.1724853515625,-0.1201171875
3.177,382,2552,976,1229,-7.0,31.0,13.0,-37.53662109375,-11.352538108825684,49.560543060302734,-0.5777587890625,-0.1075439453125,-0.3218994140625
3.178,385,2635,1050,1328,-7.0,31.0,13.0,-16.7236328125,-5.615233898162842,55.114742279052734,-0.5777587890625,-0.1075439453125,-0.3218994140625
3.178,416,2787,1029,1302,-7.0,31.0,13.0,-35.70556640625,-18.06640625,52.246089935302734,-1.1402587890625,0.15625,-0.1939697265625
3.188,424,2866,1173,1471,-7.0,31.0,13.0,-35.70556640625,-18.06640625,52.246089935302734,-1.15673828125,0.180419921875,0.0621337890625
3.195,445,3040,1214,1503,-7.0,31.0,13.0,-55.175777435302734,-29.174802780151367,37.78076171875,-1.15673828125,0.180419921875,0.0621337890625
3.209,466,3032,1206,1440,-7.0,31.0,13.0,-19.775390625,-37.78076171875,16.11328125,-1.2071533203125,0.612060546875,0.0518798828125
3.235,475,3076,1357,1569,-7.0,31.0,13.0,-19.775390625,-37.78076171875,16.11328125,-1.5400390625,0.8453369140625,-0.1533203125
3.235,484,3082,1393,1604,-1.0,29.0,15.0,9.46044921875,-32.470703125,6.286620616912842,-1.5400390625,0.8453369140625,-0.1533203125
3.237,484,3051,1331,1456,-1.0,29.0,15.0,8.36181640625,-15.319823265075684,-19.287109375,-2.107666015625,0.8409423828125,-0.4293212890625
3.247,495,2941,1393,1521,-1.0,29.0,15.0,8.36181640625,-15.319823265075684,-19.287109375,-1.9005126953125,0.5870361328125,-0.2928466796875
3.254,507,2890,1398,1468,-1.0,29.0,15.0,-7.507323741912842,-12.084959983825684,-25.146482467651367,-1.9005126953125,0.5870361328125,-0.2928466796875
3.267,496,2724,1326,1312,-1.0,29.0,15.0,24.108884811401367,-12.207030296325684,-45.166011810302734,-0.91015625,0.3084716796875,0.3228759765625
3.277,488,2679,1440,1437,-1.0,29.0,15.0,24.108884811401367,-12.207030296325684,-45.166011810302734,-1.1343994140625,0.6009521484375,0.149169921875
3.284,487,2673,1464,1411,-1.0,29.0,15.0,49.499507904052734,-5.432128429412842,-53.344722747802734,-1.1343994140625,0.6009521484375,0.149169921875
3.298,491,2445,1384,1231,-1.0,29.0,15.0,49.438472747802734,8.6669921875,-53.894039154052734,-1.9097900390625,0.447021484375,-0.62548828125
3.308,526,2356,1464,1313,-1.0,29.0,15.0,25.878904342651367,19.775390625,-45.959468841552734,-1.9097900390625,0.447021484375,-0.62548828125
3.314,514,2258,1481,1292,-1.0,29.0,15.0,-7.629394054412842,20.141599655151367,-33.0810546875,-1.7930908203125,0.2037353515625,-0.5177001953125
3.341,487,2063,1386,1093,-1.0,29.0,23.0,-36.865234375,16.357421875,-20.080564498901367,-1.2496337890625,0.115966796875,-0.0169677734375
3.341,473,1899,1450,1209,-1.0,29.0,23.0,-55.419918060302734,17.578125,-9.21630859375,-1.2496337890625,0.115966796875,-0.0169677734375
3.345,462,1719,1437,1146,-1.0,29.0,23.0,-62.499996185302734,25.146482467651367,0.30517578125,-1.047607421875,0.0380859375,0.079345703125
3.358,431,1492,1308,976,-1.0,29.0,23.0,-61.462398529052734,33.87451171875,9.033203125,-0.871337890625,-0.18896484375,0.098388671875
3.366,416,1323,1294,998,-1.0,29.0,23.0,-55.419918060302734,42.053218841552734,17.76123046875,-0.871337890625,-0.18896484375,0.098388671875
3.374,391,1173,1236,936,-1.0,29.0,23.0,-43.151851654052734,49.621578216552734,27.099607467651367,-0.7794189453125,-0.2099609375,0.04638671875
3.388,361,1000,986,773,-1.0,29.0,23.0,-27.648923873901367,51.940914154052734,33.63037109375,-0.520263671875,-0.240234375,0.0946044921875
3.397,342,922,912,766,-1.0,29.0,23.0,-17.333984375,47.973628997802734,33.63037109375,-0.520263671875,-0.240234375,0.0946044921875
3.405,330,859,855,735,-1.0,29.0,23.0,-11.657713890075684,42.480464935302734,28.381345748901367,-0.4146728515625,-0.142822265625,0.0845947265625
3.438,304,646,746,631,0.0,31.0,18.0,17.02880859375,31.738279342651367,20.629880905151367,-0.3133544921875,0.3653564453125,-0.0565185546875
3.438,307,644,753,631,0.0,31.0,18.0,38.63525390625,27.465818405151367,23.681638717651367,-0.30712890625,0.60546875,-0.122314453125
3.454,310,723,731,620,0.0,31.0,18.0,55.358882904052734,24.414060592651367,29.357908248901367,-0.388671875,0.6131591796875,-0.1832275390625
3.457,324,865,721,656,0.0,31.0,18.0,66.40625,23.498533248901367,33.50830078125,-0.388671875,0.6131591796875,-0.1832275390625
3.464,324,895,773,721,0.0,31.0,18.0,68.603515625,23.132322311401367,34.36279296875,-0.5517578125,0.4664306640625,-0.314697265625
3.478,328,1074,737,739,0.0,31.0,18.0,53.344722747802734,19.04296875,31.188962936401367,-0.54052734375,0.3004150390625,-0.3538818359375
3.486,338,1202,759,814,0.0,31.0,18.0,21.606443405151367,10.803221702575684,26.000974655151367,-0.54052734375,0.3004150390625,-0.3538818359375
3.494,344,1334,766,859,0.0,31.0,18.0,-10.803221702575684,2.563476324081421,23.803709030151367,-0.4488525390625,0.3145751953125,-0.2293701171875
3.508,348,1653,711,893,0.0,31.0,18.0,-28.747556686401367,-3.540038824081421,26.306150436401367,-0.407958984375,0.403076171875,-0.27978515625
3.540,360,1842,740,1011,-5.0,32.0,16.0,-31.616209030151367,-9.27734375,30.395505905151367,-0.407958984375,0.403076171875,-0.27978515625
3.541,371,2284,856,1078,-5.0,32.0,16.0,-26.428220748901367,-17.39501953125,31.494138717651367,-0.3994140625,0.4219970703125,-0.3836669921875
3.541,390,2295,757,1078,-5.0,32.0,16.0,-17.39501953125,-28.320310592651367,29.113767623901367,-0.33447265625,0.420166015625,-0.4169921875
3.546,414,2435,883,1225,-5.0,32.0,16.0,-6.530761241912842,-37.353515625,24.108884811401367,-0.2701416015625,0.3831787109375,-0.4405517578125
3.554,437,2469,1054,1306,-5.0,32.0,16.0,1.5258787870407104,-39.36767578125,16.05224609375,-0.4462890625,0.370849609375,-0.50634765625
3.568,431,2613,1160,1292,-5.0,32.0,16.0,-4.5166015625,-39.12353515625,7.934569835662842,-0.960205078125,0.5057373046875,-0.4571533203125
3.576,430,2668,1315,1445,-5.0,32.0,16.0,-35.888671875,-44.128414154052734,-1.0986328125,-1.5875244140625,0.5345458984375,-0.17578125
3.584,456,2769,1328,1476,-5.0,32.0,16.0,-80.68846893310547,-52.062984466552734,-16.845703125,-1.8309326171875,0.1976318359375,0.133544921875
3.598,505,2859,1276,1362,-5.0,32.0,16.0,-98.14452362060547,-53.466793060302734,-32.3486328125,-1.604736328125,-0.1636962890625,0.252685546875
3.607,532,2909,1417,1494,-5.0,32.0,16.0,-66.34521484375,-45.898433685302734,-35.09521484375,-1.4365234375,-0.1182861328125,0.2266845703125
3.614,497,3144,1331,1486,-4.0,31.0,15.0,-16.90673828125,-35.5224609375,-26.916501998901367,-1.5164794921875,0.2760009765625,0.2054443359375
3.643,529,2859,1328,1386,-4.0,31.0,15.0,13.977049827575684,-24.719236373901367,-20.812986373901367,-1.6400146484375,0.666748046875,0.1468505859375
3.643,514,2739,1521,1195,-4.0,31.0,15.0,25.512693405151367,-10.986327171325684,-20.751951217651367,-1.672119140625,0.861083984375,-0.066162109375
3.644,497,2681,1598,1043,-4.0,31.0,15.0,28.259275436401367,3.601073980331421,-23.681638717651367,-1.4530029296875,0.710693359375,-0.2010498046875
3.658,514,2517,1343,1283,-4.0,31.0,15.0,30.761716842651367,10.620116233825684,-32.04345703125,-1.0648193359375,0.434814453125,-0.0841064453125
3.666,516,2493,1441,1393,-4.0,31.0,15.0,36.1328125,10.192870140075684,-42.480464935302734,-0.959716796875,0.435791015625,0.028076171875
3.678,523,2447,1456,1386,-4.0,31.0,15.0,36.92626953125,12.329100608825684,-47.973628997802734,-1.2965087890625,0.5750732421875,-0.162841796875
3.688,513,2306,1395,1231,-4.0,31.0,15.0,26.367185592651367,20.080564498901367,-45.288082122802734,-1.69873046875,0.54833984375,-0.5462646484375
3.696,510,2180,1462,1323,-4.0,31.0,15.0,7.507323741912842,24.597166061401367,-33.75244140625,-1.79296875,0.34033203125,-0.700927734375
3.705,514,2093,1464,1278,-4.0,31.0,15.0,-11.047362327575684,19.95849609375,-18.61572265625,-1.6082763671875,0.1787109375,-0.49658203125
3.720,485,1830,1348,1122,-1.0,31.0,13.0,-24.780271530151367,13.122557640075684,-5.432128429412842,-1.3350830078125,0.1512451171875,-0.15869140625
3.747,473,1764,1355,1183,-1.0,31.0,13.0,-31.433103561401367,12.084959983825684,2.746581792831421,-1.09521484375,0.1182861328125,0.1103515625
3.747,472,1689,1289,1151,-1.0,31.0,13.0,-29.846189498901367,17.333984375,6.896972179412842,-0.9493408203125,0.0413818359375,0.2154541015625
3.748,445,1527,1078,936,-1.0,31.0,13.0,-20.568845748901367,26.184080123901367,11.474608421325684,-0.8756103515625,-0.02001953125,0.16064453125
3.759,411,1386,1094,998,-1.0,31.0,13.0,-6.164550304412842,34.912109375,17.7001953125,-0.7989501953125,-0.061767578125,0.0927734375
3.764,390,1320,1000,910,-1.0,31.0,13.0,6.408690929412842,38.14697265625,22.338865280151367,-0.6934814453125,-0.1033935546875,0.10546875
3.778,346,1117,827,780,-1.0,31.0,13.0,10.742186546325684,36.07177734375,22.399900436401367,-0.5787353515625,-0.14111328125,0.1417236328125
3.791,333,1078,830,792,-1.0,31.0,13.0,13.671874046325684,33.0810546875,17.08984375,-0.482421875,-0.092041015625,0.14697265625
3.794,318,1005,806,761,-1.0,31.0,13.0,26.123044967651367,29.235837936401367,8.85009765625,-0.435791015625,0.075439453125,0.0946044921875
3.808,302,846,726,640,-1.0,31.0,13.0,49.255367279052734,25.085447311401367,2.38037109375,-0.44189453125,0.2869873046875,-0.0401611328125
3.816,302,800,744,653,-3.0,32.0,17.0,74.64599609375,23.254392623901367,1.220703125,-0.4100341796875,0.48681640625,-0.19921875
3.824,299,799,739,469,-3.0,32.0,17.0,92.95653533935547,24.414060592651367,4.638671875,-0.34765625,0.6138916015625,-0.316162109375
3.847,300,856,739,648,-3.0,32.0,17.0,98.26659393310547,27.770994186401367,9.6435546875,-0.4267578125,0.617919921875,-0.4322509765625
3.848,305,912,766,711,-3.0,32.0,17.0,84.89989471435547,29.357908248901367,14.709471702575684,-0.6195068359375,0.5213623046875,-0.562255859375
3.854,304,996,748,726,-3.0,32.0,17.0,53.283687591552734,24.291990280151367,17.39501953125,-0.7532958984375,0.3829345703125,-0.6380615234375
3.868,306,1163,707,714,-3.0,32.0,17.0,11.901854515075684,12.329100608825684,18.4326171875,-0.7313232421875,0.2596435546875,-0.5831298828125
3.876,308,1267,739,785,-3.0,32.0,17.0,-27.282712936401367,-1.9531248807907104,21.606443405151367,-0.5931396484375,0.1473388671875,-0.4134521484375
3.885,316,1363,784,818,-3.0,32.0,17.0,-52.551265716552734,-14.282225608825684,28.137205123901367,-0.460205078125,0.071044921875,-0.2462158203125
3.905,338,1624,767,865,-3.0,32.0,17.0,-59.143062591552734,-23.742673873901367,37.04833984375,-0.361083984375,0.13818359375,-0.1728515625
3.909,364,1844,811,976,-5.0,32.0,14.0,-52.001949310302734,-32.3486328125,44.738765716552734,-0.3206787109375,0.3253173828125,-0.18505859375
3.916,375,1922,891,1056,-5.0,32.0,14.0,-37.353515625,-42.114253997802734,45.104976654052734,-0.3475341796875,0.5135498046875,-0.22265625
3.955,402,2296,912,1175,-5.0,32.0,14.0,-3.417968511581421,-51.635738372802734,18.9208984375,-0.3092041015625,0.5941162109375,-0.210693359375
3.956,431,2360,1055,1211,-5.0,32.0,14.0,9.58251953125,-42.541500091552734,0.9155272841453552,-0.466796875,0.5224609375,-0.2657470703125
3.961,441,2539,1253,1390,-5.0,32.0,14.0,12.939452171325684,-34.1796875,-8.7890625,-0.87744140625,0.5250244140625,-0.21728515625
3.967,456,2632,1280,1422,-5.0,32.0,14.0,-5.310058116912842,-39.6728515625,-14.221190452575684,-1.3028564453125,0.4273681640625,-0.0260009765625
3.975,464,2695,1313,1452,-5.0,32.0,14.0,-46.447750091552734,-50.231929779052734,-28.747556686401367,-1.506103515625,0.01318359375,0.0948486328125
3.989,481,2797,1254,1351,-5.0,32.0,14.0,-73.66943359375,-51.330562591552734,-44.738765716552734,-1.515625,-0.33837890625,0.114990234375
3.997,497,2824,1380,1497,-5.0,32.0,14.0,-51.269527435302734,-45.715328216552734,-44.555660247802734,-1.5396728515625,-0.1484375,0.061767578125
4.006,510,2886,1411,1492,-3.0,29.0,17.0,-4.0283203125,-40.161128997802734,-31.921384811401367,-1.6778564453125,0.4188232421875,-0.0523681640625
4.020,519,2872,1303,1345,-3.0,29.0,17.0,21.972654342651367,-33.447265625,-23.254392623901367,-1.8280029296875,0.8564453125,-0.1629638671875
4.028,525,2830,1382,1447,-3.0,29.0,17.0,21.545408248901367,-22.644041061401367,-25.390623092651367,-1.8460693359375,0.8824462890625,-0.2333984375
4.059,512,2708,1373,1422,-3.0,29.0,17.0,13.854979515075684,-12.145995140075684,-33.63037109375,-1.526611328125,0.5390625,-0.12255859375
4.061,462,2821,1321,1290,-3.0,29.0,17.0,17.51708984375,-7.873534679412842,-43.457027435302734,-1.0137939453125,0.2855224609375,0.1644287109375
4.063,497,2527,1401,1342,-3.0,29.0,17.0,34.36279296875,-4.94384765625,-51.513668060302734,-0.8092041015625,0.4171142578125,0.28125
4.066,484,2565,1289,1234,-3.0,29.0,17.0,45.654293060302734,5.0048828125,-57.983394622802734,-1.09912109375,0.5653076171875,0.0361328125
4.079,498,2372,1348,1206,-3.0,29.0,17.0,40.588375091552734,18.9208984375,-59.570308685302734,-1.5980224609375,0.4852294921875,-0.4110107421875
4.087,497,2343,1427,1312,-3.0,29.0,17.0,20.874021530151367,25.939939498901367,-48.339839935302734,-1.8402099609375,0.2763671875,-0.6964111328125
4.095,486,2228,1409,1283,-3.0,29.0,17.0,-7.080077648162842,22.155759811401367,-27.770994186401367,-1.7296142578125,0.09716796875,-0.616455078125
4.110,466,2053,1294,1103,-1.0,29.0,19.0,-36.80419921875,14.831542015075684,-6.347655773162842,-1.47509765625,0.0435791015625,-0.3052978515625
4.117,462,1983,1305,1191,-1.0,29.0,19.0,-61.401363372802734,13.000487327575684,12.878417015075684,-1.220947265625,0.0421142578125,-0.0064697265625
4.129,439,1941,1251,1198,-1.0,29.0,19.0,-61.401363372802734,13.000487327575684,12.878417015075684,-1.035888671875,-0.03955078125,0.1854248046875
4.161,411,1819,1126,1064,-1.0,29.0,19.0,-67.19970703125,30.822751998901367,44.372554779052734,-0.949462890625,-0.169677734375,0.2677001953125
4.161,398,1789,987,1081,-1.0,29.0,19.0,-50.659175872802734,43.090816497802734,58.471675872802734,-0.9327392578125,-0.2113037109375,0.2137451171875
4.162,374,1580,989,1054,-1.0,29.0,19.0,-50.659175872802734,43.090816497802734,58.471675872802734,-0.9000244140625,-0.1219482421875,0.1051025390625
4.171,346,1348,853,859,-1.0,29.0,19.0,-5.981444835662842,53.955074310302734,78.55224609375,-0.757568359375,-0.00146484375,0.0692138671875
4.177,332,1306,736,844,-1.0,29.0,19.0,10.131834983825684,47.302242279052734,72.20458984375,-0.55712890625,0.0458984375,0.0985107421875
4.185,321,1188,753,813,-1.0,29.0,19.0,10.131834983825684,47.302242279052734,72.20458984375,-0.4058837890625,0.1141357421875,0.1219482421875
4.199,301,1101,660,696,-1.0,29.0,19.0,43.884273529052734,29.235837936401367,25.756834030151367,-0.289794921875,0.2852783203125,0.080810546875
4.207,295,1053,666,711,-5.0,30.0,13.0,69.88525390625,23.620603561401367,1.4038084745407104,-0.27001953125,0.4677734375,-0.0780029296875
4.215,290,1003,632,675,-5.0,30.0,13.0,69.88525390625,23.620603561401367,1.4038084745407104,-0.3173828125,0.626220703125,-0.280517578125
4.229,289,1012,614,642,-5.0,30.0,13.0,118.34716033935547,28.747556686401367,-9.521484375,-0.3394775390625,0.7515869140625,-0.4447021484375
4.253,289,1067,628,697,-5.0,30.0,13.0,116.08885955810547,33.87451171875,-2.624511480331421,-0.464599609375,0.7674560546875,-0.6083984375
4.254,291,1126,614,722,-5.0,30.0,13.0,116.08885955810547,33.87451171875,-2.624511480331421,-0.7034912109375,0.6539306640625,-0.7532958984375
4.260,292,1220,625,746,-5.0,30.0,13.0,40.466304779052734,20.385740280151367,-0.9765624403953552,-0.81689453125,0.49658203125,-0.7479248046875
4.269,294,1290,630,777,-5.0,30.0,13.0,-10.498045921325684,-0.4882812201976776,-7.141112804412842,-0.703125,0.34521484375,-0.549072265625
4.275,304,1382,658,808,-5.0,30.0,13.0,-10.498045921325684,-0.4882812201976776,-7.141112804412842,-0.5511474609375,0.2021484375,-0.3134765625
4.289,318,1529,687,814,-5.0,30.0,13.0,-71.35009765625,-27.893064498901367,-6.591796398162842,-0.4852294921875,0.1412353515625,-0.1767578125
4.297,334,1627,753,932,-5.0,30.0,13.0,-81.11571502685547,-30.761716842651367,3.662109136581421,-0.474609375,0.1875,-0.1314697265625
4.305,346,1785,759,973,-5.0,30.0,16.0,-81.11571502685547,-30.761716842651367,3.662109136581421,-0.47412109375,0.2584228515625,-0.107666015625
4.319,356,2018,735,999,-5.0,30.0,16.0,-74.03564453125,-31.249998092651367,20.263669967651367,-0.4420166015625,0.2452392578125,-0.06591796875
4.327,363,2192,777,1129,-5.0,30.0,16.0,-59.509273529052734,-28.442380905151367,20.874021530151367,-0.40185546875,0.1181640625,-0.0565185546875
4.336,375,2324,808,1198,-5.0,30.0,16.0,-59.509273529052734,-28.442380905151367,20.874021530151367,-0.40185546875,0.1181640625,-0.0565185546875
4.362,404,2486,898,1217,-5.0,30.0,16.0,-10.314940452575684,-16.357421875,12.817381858825684,-0.6514892578125,0.185546875,-0.2178955078125
4.362,423,2776,1228,1463,-5.0,30.0,16.0,-10.314940452575684,-16.357421875,12.817381858825684,-0.999267578125,0.4307861328125,-0.1239013671875
4.365,430,2797,1010,1409,-5.0,30.0,16.0,-8.11767578125,-22.216794967651367,12.084959983825684,-0.999267578125,0.4307861328125,-0.1239013671875
4.380,425,2811,1079,1362,-5.0,30.0,16.0,-69.51904296875,-46.142574310302734,-0.54931640625,-1.11083984375,0.1676025390625,0.310791015625
4.387,418,2874,1191,1516,-5.0,30.0,16.0,-69.51904296875,-46.142574310302734,-0.54931640625,-1.0386962890625,0.0963134765625,0.1787109375
4.395,416,2902,1228,1546,-5.0,30.0,16.0,-63.293453216552734,-40.588375091552734,-10.314940452575684,-1.0386962890625,0.0963134765625,0.1787109375
4.409,416,2944,1183,1445,-2.0,30.0,16.0,11.474608421325684,-21.301267623901367,-12.695311546325684,-1.5498046875,0.592041015625,-0.3663330078125
4.418,424,2959,1306,1582,-2.0,30.0,16.0,11.474608421325684,-21.301267623901367,-12.695311546325684,-1.8326416015625,0.8006591796875,-0.4771728515625
4.426,442,2963,1313,1569,-2.0,30.0,16.0,25.207517623901367,-20.751951217651367,-14.221190452575684,-1.8326416015625,0.8006591796875,-0.4771728515625
4.439,458,2880,1211,1386,-2.0,30.0,16.0,7.385253429412842,-22.460935592651367,-24.414060592651367,-1.7923583984375,0.634033203125,-0.357421875
4.493,463,2759,1283,1474,-2.0,30.0,16.0,7.385253429412842,-22.460935592651367,-24.414060592651367,-1.3216552734375,0.3558349609375,-0.025634765625
4.495,473,2683,1526,1134,-2.0,30.0,16.0,5.859374523162842,-25.024412155151367,-34.7900390625,-1.3216552734375,0.3558349609375,-0.025634765625
4.495,418,2944,1323,1255,-2.0,30.0,16.0,44.433589935302734,-21.728513717651367,-57.739253997802734,-0.9288330078125,0.5753173828125,0.25927734375
4.496,470,2677,1261,1357,-2.0,30.0,16.0,44.433589935302734,-21.728513717651367,-57.739253997802734,-1.3489990234375,0.6693115234375,-0.0941162109375
4.496,473,2456,1411,1387,-2.0,30.0,16.0,45.959468841552734,-5.187987804412842,-64.697265625,-1.3489990234375,0.6693115234375,-0.0941162109375
4.499,485,2381,1395,1312,-3.0,28.0,20.0,4.82177734375,19.53125,-52.429195404052734,-1.796875,0.2899169921875,-0.6309814453125
4.507,494,2261,1434,1294,-3.0,28.0,20.0,4.82177734375,19.53125,-52.429195404052734,-1.5853271484375,0.146728515625,-0.4276123046875
4.516,498,2165,1409,1258,-3.0,28.0,20.0,-21.362302780151367,14.282225608825684,-36.43798828125,-1.5853271484375,0.146728515625,-0.4276123046875
4.530,458,1929,1336,1101,-3.0,28.0,20.0,-55.419918060302734,7.568358898162842,-6.591796398162842,-1.0860595703125,0.060791015625,0.08984375
4.540,442,1838,1372,1182,-3.0,28.0,20.0,-55.419918060302734,7.568358898162842,-6.591796398162842,-0.972412109375,-0.0894775390625,0.2205810546875
4.564,442,1769,1331,1149,-3.0,28.0,20.0,-52.368160247802734,14.160155296325684,4.21142578125,-0.972412109375,-0.0894775390625,0.2205810546875
4.564,418,1531,1214,995,-3.0,28.0,20.0,-37.109375,23.071287155151367,15.014647483825684,-0.894287109375,-0.209716796875,0.12744140625
4.567,406,1413,1182,999,-3.0,28.0,20.0,-17.7001953125,32.04345703125,29.052732467651367,-0.894287109375,-0.209716796875,0.12744140625
4.588,375,1283,1101,942,-3.0,28.0,20.0,-0.9155272841453552,36.9873046875,43.701168060302734,-0.802734375,-0.14453125,0.0831298828125
4.589,347,1123,885,794,-3.0,28.0,20.0,8.1787109375,35.888671875,52.734371185302734,-0.5240478515625,-0.1876220703125,0.112548828125
4.597,328,1064,830,806,-6.0,31.0,15.0,13.244627952575684,33.69140625,52.673336029052734,-0.5240478515625,-0.1876220703125,0.112548828125
4.605,317,1029,759,767,-6.0,31.0,15.0,22.033689498901367,32.1044921875,46.508785247802734,-0.3970947265625,-0.13525390625,0.119140625
4.619,300,974,673,679,-6.0,31.0,15.0,37.53662109375,30.151365280151367,40.222164154052734,-0.2220458984375,0.335205078125,-0.0947265625
4.627,299,998,673,713,-6.0,31.0,15.0,60.058589935302734,30.212400436401367,38.2080078125,-0.2220458984375,0.335205078125,-0.0947265625
4.635,298,1034,658,728,-6.0,31.0,15.0,83.86229705810547,30.700681686401367,41.076656341552734,-0.1844482421875,0.6336669921875,-0.2493896484375
4.665,300,1173,631,725,-6.0,31.0,15.0,98.32762908935547,28.991697311401367,44.860836029052734,-0.503173828125,0.8670654296875,-0.5103759765625
4.666,302,1250,653,647,-6.0,31.0,15.0,93.07860565185547,24.353025436401367,45.532222747802734,-0.503173828125,0.8670654296875,-0.5103759765625
4.667,302,1330,645,867,-6.0,31.0,15.0,65.3076171875,15.991209983825684,39.85595703125,-0.6419677734375,0.7457275390625,-0.5872802734375
4.680,318,1488,628,894,-6.0,31.0,15.0,26.733396530151367,5.798339366912842,27.404783248901367,-0.4927978515625,0.3914794921875,-0.4161376953125
4.700,334,1629,679,999,-6.0,31.0,15.0,-8.11767578125,-5.065917491912842,15.075682640075684,-0.4927978515625,0.3914794921875,-0.4161376953125
4.701,348,1773,725,1065,-4.0,31.0,14.0,-33.99658203125,-16.7236328125,9.3994140625,-0.387939453125,0.3231201171875,-0.3564453125
4.709,375,2014,774,1105,-4.0,31.0,14.0,-51.818843841552734,-29.968259811401367,10.070799827575684,-0.37744140625,0.425537109375,-0.310302734375
4.717,385,2156,799,1243,-4.0,31.0,14.0,-61.645503997802734,-44.494625091552734,12.573241233825684,-0.37744140625,0.425537109375,-0.310302734375
4.726,383,2322,785,1287,-4.0,31.0,14.0,-58.471675872802734,-56.152339935302734,10.253905296325684,-0.36376953125,0.4320068359375,-0.2412109375
4.739,401,2541,912,1231,-4.0,31.0,14.0,-39.97802734375,-58.227535247802734,1.220703125,-0.7252197265625,0.294189453125,-0.31201171875
4.747,411,2613,1133,1441,-4.0,31.0,14.0,-17.9443359375,-50.231929779052734,-6.713866710662842,-0.7252197265625,0.294189453125,-0.31201171875
4.770,409,2708,1189,1487,-4.0,31.0,14.0,-12.695311546325684,-45.532222747802734,-8.9111328125,-1.2294921875,0.3336181640625,-0.2314453125
4.771,438,2858,1167,1380,-4.0,31.0,14.0,-37.53662109375,-52.978511810302734,-16.29638671875,-1.46435546875,-0.2335205078125,0.2464599609375
4.778,468,2930,1292,1529,-4.0,31.0,14.0,-67.68798828125,-65.97900390625,-33.99658203125,-1.46435546875,-0.2335205078125,0.2464599609375
4.785,479,2981,1357,1541,-4.0,31.0,14.0,-50.048824310302734,-76.66015625,-44.189449310302734,-1.177490234375,-0.3072509765625,0.3468017578125
4.806,485,3047,1336,1433,-2.0,30.0,18.0,17.76123046875,-81.48192596435547,-35.0341796875,-1.1298828125,0.1732177734375,0.232421875
4.807,481,3147,1666,1635,-2.0,30.0,18.0,76.171875,-76.66015625,-20.812986373901367,-1.3487548828125,0.7620849609375,0.0667724609375
4.815,482,3065,1476,1569,-2.0,30.0,18.0,85.75438690185547,-60.485836029052734,-17.9443359375,-1.6641845703125,1.0460205078125,-0.07958984375
4.829,465,2996,1411,1323,-2.0,30.0,18.0,60.485836029052734,-39.00146484375,-24.414060592651367,-1.8614501953125,0.980224609375,-0.1910400390625
4.837,473,2891,1494,1428,-2.0,30.0,18.0,31.005857467651367,-22.521970748901367,-34.11865234375,-1.6136474609375,0.57080078125,-0.1182861328125
4.848,457,2832,1503,1399,-2.0,30.0,18.0,19.95849609375,-14.709471702575684,-45.654293060302734,-1.082763671875,0.1551513671875,0.10888671875
4.870,445,2748,1437,1265,-2.0,30.0,18.0,27.343748092651367,-10.742186546325684,-50.292964935302734,-0.8597412109375,0.147216796875,0.2344970703125
4.870,462,2854,1878,1201,-2.0,30.0,18.0,32.2265625,-3.540038824081421,-43.579097747802734,-1.13720703125,0.37646484375,0.104736328125
4.875,456,2700,1523,1365,-2.0,30.0,18.0,23.437498092651367,8.30078125,-32.65380859375,-1.5968017578125,0.50390625,-0.2064208984375
4.889,442,2530,1413,1206,-4.0,31.0,10.0,3.295898199081421,18.37158203125,-21.545408248901367,-1.817626953125,0.43212890625,-0.455322265625
4.906,470,2372,1447,1381,-4.0,31.0,10.0,-21.789548873901367,19.8974609375,-9.521484375,-1.7191162109375,0.2701416015625,-0.4573974609375
4.906,464,2370,1377,1268,-4.0,31.0,10.0,-45.349117279052734,13.732909202575684,4.21142578125,-1.4765625,0.1624755859375,-0.2650146484375
4.919,455,2087,1353,1175,-4.0,31.0,10.0,-63.110347747802734,8.36181640625,19.04296875,-1.2327880859375,0.13720703125,-0.053466796875
4.929,426,1974,1391,1276,-4.0,31.0,10.0,-69.27490234375,9.82666015625,32.16552734375,-1.0438232421875,0.1236572265625,0.0963134765625
4.936,415,1846,1369,1206,-4.0,31.0,10.0,-62.316890716552734,17.02880859375,40.161128997802734,-0.9454345703125,0.08740234375,0.18603515625
4.950,404,1580,1294,1064,-4.0,31.0,10.0,-48.706050872802734,26.916501998901367,43.945308685302734,-0.9119873046875,0.049072265625,0.1920166015625
4.973,398,1456,1265,1067,-4.0,31.0,10.0,-34.97314453125,37.4755859375,46.997066497802734,-0.8651123046875,-0.0013427734375,0.153564453125
4.973,351,1380,1129,991,-4.0,31.0,10.0,-23.132322311401367,43.945308685302734,49.438472747802734,-0.7833251953125,-0.0777587890625,0.1630859375
4.979,351,1136,1013,871,-4.0,31.0,10.0,-15.136717796325684,43.518062591552734,49.926753997802734,-0.671142578125,-0.14599609375,0.196533203125
4.988,354,1022,947,894,-2.0,32.0,19.0,-7.568358898162842,41.076656341552734,47.668453216552734,-0.552001953125,-0.1085205078125,0.16796875
4.995,328,971,835,818,-2.0,32.0,19.0,5.798339366912842,39.1845703125,42.419429779052734,-0.4493408203125,0.0975341796875,0.091552734375
5.012,317,912,761,695,-2.0,32.0,19.0,24.047849655151367,35.15625,35.09521484375,-0.3367919921875,0.40478515625,0.011962890625
5.017,305,918,763,735,-2.0,32.0,19.0,43.395992279052734,31.005857467651367,26.306150436401367,-0.1939697265625,0.683349609375,-0.063720703125
5.030,316,943,757,777,-2.0,32.0,19.0,63.293453216552734,29.663084030151367,16.9677734375,-0.1668701171875,0.8121337890625,-0.1214599609375
5.039,318,1067,748,763,-2.0,32.0,19.0,80.32225799560547,27.221677780151367,9.765625,-0.3092041015625,0.7698974609375,-0.1861572265625
5.047,328,1163,748,797,-2.0,32.0,19.0,86.54784393310547,21.484373092651367,4.150390625,-0.451171875,0.6439208984375,-0.3233642578125
5.055,328,1262,750,906,-2.0,32.0,19.0,76.0498046875,15.075682640075684,-2.685546636581421,-0.499755859375,0.4920654296875,-0.4669189453125
5.077,344,1467,725,914,-2.0,32.0,19.0,50.354000091552734,7.263183116912842,-9.09423828125,-0.47265625,0.356689453125,-0.4986572265625
5.078,363,1608,841,1067,-2.0,32.0,19.0,17.15087890625,-3.479003667831421,-9.1552734375,-0.4266357421875,0.2955322265625,-0.42578125
5.087,376,1783,869,1111,-9.0,30.0,18.0,-14.038084983825684,-16.6015625,-0.9155272841453552,-0.4097900390625,0.3045654296875,-0.3494873046875
5.099,400,2053,841,1134,-9.0,30.0,18.0,-36.1328125,-31.616209030151367,9.3994140625,-0.388671875,0.352783203125,-0.297119140625
5.107,401,2203,910,1287,-9.0,30.0,18.0,-46.691890716552734,-46.752925872802734,13.061522483825684,-0.3709716796875,0.37109375,-0.2369384765625
5.119,402,2368,913,1323,-9.0,30.0,18.0,-42.602535247802734,-55.908199310302734,7.385253429412842,-0.39013671875,0.3160400390625,-0.24560546875
5.129,402,2587,1005,1278,-9.0,30.0,18.0,-24.230955123901367,-53.527828216552734,-2.13623046875,-0.5628662109375,0.2569580078125,-0.3743896484375
5.144,414,2683,1188,1468,-9.0,30.0,18.0,-7.629394054412842,-46.020503997802734,-7.324218273162842,-1.056884765625,0.29931640625,-0.4530029296875
5.146,415,3115,1320,1199,-9.0,30.0,18.0,-15.319823265075684,-47.302242279052734,-8.23974609375,-1.579345703125,0.337158203125,-0.218017578125
5.159,437,2884,1255,1424,-9.0,30.0,18.0,-44.189449310302734,-57.922359466552734,-17.51708984375,-1.67919921875,0.090576171875,0.1915283203125
5.179,438,3000,1443,1572,-9.0,30.0,18.0,-57.434078216552734,-66.0400390625,-32.65380859375,-1.3797607421875,-0.2662353515625,0.4576416015625
5.179,404,3101,1348,1494,-9.0,30.0,18.0,-26.550291061401367,-66.34521484375,-32.28759765625,-1.0811767578125,-0.22607421875,0.4957275390625
5.189,426,3106,1483,1501,-5.0,27.0,21.0,29.968259811401367,-58.471675872802734,-13.977049827575684,-1.05810546875,0.2337646484375,0.39306640625
5.197,424,3147,1602,1595,-5.0,27.0,21.0,70.86181640625,-43.701168060302734,2.44140625,-1.269287109375,0.7491455078125,0.2379150390625
5.205,423,3144,1602,1622,-5.0,27.0,21.0,78.857421875,-24.475095748901367,6.042479991912842,-1.568115234375,1.0443115234375,-0.00390625
5.226,423,3104,1468,1503,-5.0,27.0,21.0,62.316890716552734,-6.103515148162842,0.3662109076976776,-1.7410888671875,0.9718017578125,-0.251953125
5.228,430,3147,1445,1398,-5.0,27.0,21.0,35.5224609375,4.2724609375,-9.21630859375,-1.5037841796875,0.5372314453125,-0.2784423828125
5.235,424,2992,1549,1560,-5.0,27.0,21.0,17.7001953125,5.065917491912842,-17.63916015625,-1.062255859375,0.1741943359375,-0.067138671875
5.255,423,2922,1450,1409,-5.0,27.0,21.0,17.76123046875,1.6479490995407104,-19.71435546875,-0.9234619140625,0.270263671875,0.1124267578125
5.260,410,3147,1592,1560,-5.0,27.0,21.0,23.620603561401367,2.44140625,-18.310546875,-1.18408203125,0.5860595703125,0.05078125
5.280,437,3147,1428,1483,-5.0,27.0,21.0,23.620603561401367,2.44140625,-18.310546875,-1.5579833984375,0.73876953125,-0.1934814453125
5.281,432,2674,1543,1452,-5.0,29.0,19.0,12.145995140075684,17.08984375,-23.498533248901367,-1.719970703125,0.63720703125,-0.3707275390625
5.287,439,2610,1536,1397,-5.0,29.0,19.0,-2.929687261581421,17.51708984375,-23.376462936401367,-1.6273193359375,0.4605712890625,-0.3404541015625
5.295,442,2456,1508,1365,-5.0,29.0,19.0,-2.929687261581421,17.51708984375,-23.376462936401367,-1.428955078125,0.370361328125,-0.1829833984375
5.309,439,2266,1382,1182,-5.0,29.0,19.0,-24.536130905151367,10.986327171325684,-16.11328125,-1.2427978515625,0.348388671875,-0.0374755859375
5.317,430,2135,1447,1269,-5.0,29.0,19.0,-27.770994186401367,13.671874046325684,-13.366698265075684,-1.1058349609375,0.291015625,0.05419921875
5.331,437,2014,1415,1233,-5.0,29.0,19.0,-27.770994186401367,13.671874046325684,-13.366698265075684,-1.0401611328125,0.1749267578125,0.1171875
5.340,417,1755,1274,1050,-5.0,29.0,19.0,-20.629880905151367,24.414060592651367,-7.812499523162842,-1.0174560546875,0.0684814453125,0.136474609375
5.348,404,1604,1278,1097,-5.0,29.0,19.0,-13.488768577575684,29.602048873901367,-2.13623046875,-0.962646484375,-0.0152587890625,0.1239013671875
5.359,390,1463,1206,980,-5.0,29.0,19.0,-13.488768577575684,29.602048873901367,-2.13623046875,-0.85205078125,-0.113037109375,0.14599609375
5.383,359,1155,1063,816,-5.0,29.0,19.0,7.629394054412842,33.99658203125,8.056640625,-0.695556640625,-0.2269287109375,0.1942138671875
5.383,347,1043,1014,846,-4.0,27.0,15.0,14.343260765075684,34.1796875,9.33837890625,-0.5560302734375,-0.284912109375,0.2086181640625
5.385,327,1034,932,787,-4.0,27.0,15.0,14.343260765075684,34.1796875,9.33837890625,-0.4613037109375,-0.2059326171875,0.1868896484375
5.399,306,779,737,625,-4.0,27.0,15.0,35.5224609375,33.99658203125,16.7236328125,-0.3526611328125,-0.000732421875,0.1016845703125
5.407,301,706,750,630,-4.0,27.0,15.0,58.410640716552734,36.31591796875,27.343748092651367,-0.2237548828125,0.2548828125,-0.0499267578125
5.415,294,677,722,632,-4.0,27.0,15.0,58.410640716552734,36.31591796875,27.343748092651367,-0.2042236328125,0.465576171875,-0.2073974609375
5.429,299,673,695,628,-4.0,27.0,15.0,103.33251190185547,50.598140716552734,49.072261810302734,-0.333984375,0.5928955078125,-0.359130859375
5.438,300,721,725,682,-4.0,27.0,15.0,95.88622283935547,51.025386810302734,52.368160247802734,-0.472900390625,0.624755859375,-0.4747314453125
5.445,306,848,721,711,-4.0,27.0,15.0,95.88622283935547,51.025386810302734,52.368160247802734,-0.544921875,0.54150390625,-0.49072265625
5.462,315,1043,711,761,-4.0,27.0,15.0,23.010251998901367,23.010251998901367,37.65869140625,-0.51318359375,0.4334716796875,-0.3895263671875
5.512,325,1251,746,841,-4.0,27.0,15.0,-13.916014671325684,4.7607421875,27.709959030151367,-0.392578125,0.390625,-0.2357177734375
5.512,336,1393,711,913,-8.0,31.0,19.0,-13.916014671325684,4.7607421875,27.709959030151367,-0.392578125,0.390625,-0.2357177734375
5.515,363,1662,841,971,-8.0,31.0,19.0,-56.518550872802734,-8.60595703125,18.49365234375,-0.3370361328125,0.491943359375,-0.222412109375
5.515,379,1881,963,1107,-8.0,31.0,19.0,-56.518550872802734,-8.60595703125,18.49365234375,-0.3924560546875,0.5557861328125,-0.341796875
5.515,376,2021,1004,1163,-8.0,31.0,19.0,-67.9931640625,-11.840819358825684,17.4560546875,-0.3924560546875,0.5557861328125,-0.341796875
5.522,382,2306,944,1129,-8.0,31.0,19.0,-72.1435546875,-23.925779342651367,5.859374523162842,-0.535888671875,0.444580078125,-0.5086669921875
5.527,400,2418,1038,1323,-8.0,31.0,19.0,-72.1435546875,-23.925779342651367,5.859374523162842,-0.6497802734375,0.374267578125,-0.61474609375
5.535,415,2468,1163,1395,-8.0,31.0,19.0,-57.739253997802734,-25.878904342651367,1.8920897245407104,-0.6497802734375,0.374267578125,-0.61474609375
5.549,411,2579,1294,1323,-8.0,31.0,19.0,-49.621578216552734,-37.109375,7.019042491912842,-1.5714111328125,0.601806640625,-0.343505859375
5.557,410,2593,1445,1474,-8.0,31.0,19.0,-49.621578216552734,-37.109375,7.019042491912842,-1.846923828125,0.3797607421875,0.2308349609375
5.565,418,2638,1468,1569,-8.0,31.0,19.0,-91.49169158935547,-58.349605560302734,6.042479991912842,-1.846923828125,0.3797607421875,0.2308349609375
5.596,428,2756,1366,1447,-3.0,29.0,18.0,-114.19676971435547,-59.265132904052734,-14.160155296325684,-1.22998046875,-0.3582763671875,0.5540771484375
5.596,445,2797,1490,1492,-3.0,29.0,18.0,-114.19676971435547,-59.265132904052734,-14.160155296325684,-0.988525390625,-0.0206298828125,0.5272216796875
5.598,442,2831,1504,1648,-3.0,29.0,18.0,-47.912593841552734,-44.494625091552734,-5.920409679412842,-0.988525390625,-0.0206298828125,0.5272216796875
5.609,440,2908,1422,1490,-3.0,29.0,18.0,52.185054779052734,-19.10400390625,3.417968511581421,-1.1231689453125,0.85986328125,0.404052734375
5.617,438,2921,1494,1636,-3.0,29.0,18.0,52.185054779052734,-19.10400390625,3.417968511581421,-1.3482666015625,0.979736328125,0.040771484375
5.625,439,2870,1456,1600,-3.0,29.0,18.0,58.105464935302734,4.5166015625,-10.803221702575684,-1.3482666015625,0.979736328125,0.040771484375
5.639,461,2699,1313,1370,-3.0,29.0,18.0,31.799314498901367,40.771480560302734,-44.433589935302734,-1.3406982421875,0.649658203125,-0.4595947265625
5.652,465,2636,1428,1453,-3.0,29.0,18.0,31.799314498901367,40.771480560302734,-44.433589935302734,-1.052001953125,0.339111328125,-0.2559814453125
5.655,473,2584,1411,1433,-3.0,29.0,18.0,22.277830123901367,34.0576171875,-59.875484466552734,-1.052001953125,0.339111328125,-0.2559814453125
5.669,472,2490,1390,1276,-3.0,29.0,18.0,18.85986328125,14.038084983825684,-59.997554779052734,-1.428955078125,0.5841064453125,-0.1068115234375
5.677,470,2419,1452,1384,-6.0,29.0,19.0,18.85986328125,14.038084983825684,-59.997554779052734,-1.737060546875,0.636474609375,-0.340576171875
5.689,466,2330,1440,1357,-6.0,29.0,19.0,-0.4882812201976776,22.155759811401367,-47.546382904052734,-1.737060546875,0.636474609375,-0.340576171875
5.708,455,2137,1370,1183,-6.0,29.0,19.0,-22.216794967651367,33.0810546875,-35.94970703125,-1.5108642578125,0.1090087890625,-0.37744140625
5.709,442,1960,1429,1243,-6.0,29.0,19.0,-33.447265625,33.75244140625,-21.362302780151367,-1.5108642578125,0.1090087890625,-0.37744140625
5.715,433,1915,1377,1206,-6.0,29.0,19.0,-35.82763671875,24.230955123901367,-1.5258787870407104,-1.2509765625,-0.0609130859375,-0.100341796875
5.729,402,1713,1243,1054,-6.0,29.0,19.0,-34.24072265625,14.648436546325684,18.798828125,-0.916015625,-0.193115234375,0.246826171875
5.738,398,1580,1231,1078,-6.0,29.0,19.0,-28.076169967651367,14.404295921325684,36.56005859375,-0.916015625,-0.193115234375,0.246826171875
5.746,382,1411,1157,1010,-6.0,29.0,19.0,-15.075682640075684,23.742673873901367,51.818843841552734,-0.847412109375,-0.15380859375,0.20263671875
5.760,346,1172,918,872,-6.0,29.0,19.0,1.03759765625,33.63037109375,63.110347747802734,-0.6475830078125,-0.0841064453125,0.1492919921875
5.769,332,1109,816,849,-6.0,29.0,19.0,14.404295921325684,36.9873046875,67.7490234375,-0.6475830078125,-0.0841064453125,0.1492919921875
5.792,323,1014,774,808,-5.0,32.0,16.0,26.306150436401367,35.7666015625,64.02587890625,-0.5203857421875,-0.075927734375,0.140869140625
5.793,302,913,680,673,-5.0,32.0,16.0,41.931148529052734,33.02001953125,56.030269622802734,-0.353271484375,0.2840576171875,0.004638671875
5.797,293,871,646,644,-5.0,32.0,16.0,65.49072265625,30.944822311401367,48.217769622802734,-0.353271484375,0.2840576171875,0.004638671875
5.806,289,913,648,630,-5.0,32.0,16.0,96.80175018310547,32.470703125,41.198726654052734,-0.2010498046875,0.573486328125,-0.1666259765625
5.821,292,944,631,675,-5.0,32.0,16.0,127.80760955810547,37.59765625,35.7666015625,-0.259521484375,0.8673095703125,-0.577392578125
5.827,296,1021,651,745,-5.0,32.0,16.0,141.78466796875,41.076656341552734,32.89794921875,-0.259521484375,0.8673095703125,-0.577392578125
5.841,299,1079,644,785,-5.0,32.0,16.0,119.32372283935547,34.24072265625,30.578611373901367,-0.5269775390625,0.915771484375,-0.7987060546875
5.850,307,1262,639,811,-5.0,32.0,16.0,60.119625091552734,14.343260765075684,21.484373092651367,-0.518798828125,0.67236328125,-0.6549072265625
5.865,316,1483,667,859,-5.0,32.0,16.0,-10.681151390075684,-10.925292015075684,3.234863042831421,-0.518798828125,0.67236328125,-0.6549072265625
5.866,327,1611,673,934,-5.0,32.0,16.0,-67.44384765625,-29.113767623901367,-14.465331077575684,-0.3212890625,0.4951171875,-0.3515625
5.894,346,1914,711,966,-7.0,34.0,15.0,-99.12108612060547,-33.3251953125,-21.667478561401367,-0.2213134765625,0.3056640625,-0.149169921875
5.895,363,2047,811,1123,-7.0,34.0,15.0,-108.09325408935547,-28.747556686401367,-19.22607421875,-0.2213134765625,0.3056640625,-0.149169921875
5.895,371,2207,844,1146,-7.0,34.0,15.0,-101.01317596435547,-25.756834030151367,-14.038084983825684,-0.2991943359375,0.2440185546875,-0.1678466796875
5.909,401,2438,923,1182,-7.0,34.0,15.0,-83.80126190185547,-27.770994186401367,-11.718749046325684,-0.7720947265625,0.2984619140625,-0.078857421875
5.918,402,2516,1156,1363,-7.0,34.0,15.0,-62.133785247802734,-30.334470748901367,-12.329100608825684,-0.7720947265625,0.2984619140625,-0.078857421875
5.932,406,2601,1265,1424,-7.0,34.0,15.0,-44.738765716552734,-32.53173828125,-12.390135765075684,-1.248046875,0.463134765625,0.0223388671875
5.939,411,2734,1264,1353,-7.0,34.0,15.0,-43.334957122802734,-37.17041015625,-16.41845703125,-1.578857421875,0.424560546875,0.13671875
5.947,414,2798,1341,1519,-7.0,34.0,15.0,-54.870601654052734,-42.785640716552734,-31.738279342651367,-1.513671875,0.1239013671875,0.2181396484375
5.955,430,2868,1385,1534,-7.0,34.0,15.0,-53.466793060302734,-43.151851654052734,-46.997066497802734,-1.2647705078125,-0.1082763671875,0.1939697265625
5.974,454,2954,1531,1613,-5.0,28.0,17.0,-26.184080123901367,-37.353515625,-47.119136810302734,-1.157470703125,-0.03076171875,0.0985107421875
5.998,465,3081,1283,1574,-5.0,28.0,17.0,9.33837890625,-31.433103561401367,-35.82763671875,-1.2415771484375,0.33154296875,0.01708984375
5.999,463,3007,1422,1611,-5.0,28.0,17.0,28.564451217651367,-27.221677780151367,-22.521970748901367,-1.40380859375,0.739501953125,-0.0477294921875
5.999,439,2935,1348,1424,-5.0,28.0,17.0,26.733396530151367,-20.01953125,-15.075682640075684,-1.5601806640625,0.9031982421875,-0.1663818359375
6.008,466,2857,1411,1544,-5.0,28.0,17.0,15.747069358825684,-8.11767578125,-17.2119140625,-1.5660400390625,0.7353515625,-0.282470703125
6.015,467,2798,1386,1494,-5.0,28.0,17.0,5.310058116912842,1.3427733182907104,-26.367185592651367,-1.2900390625,0.36279296875,-0.20849609375
6.029,473,2684,1278,1345,-5.0,28.0,17.0,2.0751953125,2.807616949081421,-35.21728515625,-0.9781494140625,0.1358642578125,0.0093994140625
6.044,473,2654,1377,1472,-5.0,28.0,17.0,1.5258787870407104,1.220703125,-34.97314453125,-0.96044921875,0.232421875,0.121826171875
6.045,473,2584,1382,1490,-5.0,28.0,17.0,-2.197265625,5.0048828125,-25.695798873901367,-1.2379150390625,0.4801025390625,0.0
6.059,465,2473,1281,1320,-5.0,28.0,17.0,-7.385253429412842,14.587401390075684,-14.282225608825684,-1.545166015625,0.65576171875,-0.2591552734375
6.068,465,2384,1366,1390,-3.0,28.0,21.0,-13.671874046325684,23.254392623901367,-5.798339366912842,-1.6258544921875,0.6243896484375,-0.421875
6.077,456,2268,1336,1365,-3.0,28.0,21.0,-20.324705123901367,25.268552780151367,-1.220703125,-1.489990234375,0.4478759765625,-0.381591796875
6.099,444,2122,1274,1198,-3.0,28.0,21.0,-25.939939498901367,21.179197311401367,2.624511480331421,-1.2886962890625,0.266357421875,-0.190673828125
6.100,437,1996,1292,1287,-3.0,28.0,21.0,-27.648923873901367,15.502928733825684,8.056640625,-1.1248779296875,0.1514892578125,0.0264892578125
6.105,430,1900,1255,1228,-3.0,28.0,21.0,-22.155759811401367,12.939452171325684,13.977049827575684,-1.00927734375,0.1094970703125,0.1339111328125
6.119,411,1693,1108,1037,-3.0,28.0,21.0,-9.82666015625,16.11328125,18.6767578125,-0.92041015625,0.10595703125,0.1201171875
6.128,390,1523,1116,1038,-3.0,28.0,21.0,4.69970703125,21.179197311401367,20.996091842651367,-0.84130859375,0.0909423828125,0.108154296875
6.136,374,1428,1022,977,-3.0,28.0,21.0,14.343260765075684,22.949216842651367,20.690916061401367,-0.75634765625,0.0220947265625,0.1278076171875
6.149,349,1278,827,834,-3.0,28.0,21.0,18.1884765625,23.071287155151367,17.88330078125,-0.6656494140625,-0.0655517578125,0.1158447265625
6.158,334,1206,788,838,-3.0,28.0,21.0,23.132322311401367,23.193357467651367,12.756346702575684,-0.5753173828125,-0.0576171875,0.0941162109375
6.165,322,1134,739,784,-5.0,33.0,16.0,37.29248046875,21.179197311401367,6.591796398162842,-0.5087890625,0.09521484375,0.0780029296875
6.204,308,1018,667,697,-5.0,33.0,16.0,64.5751953125,18.00537109375,0.9155272841453552,-0.454833984375,0.3489990234375,-0.0023193359375
6.204,306,1029,644,552,-5.0,33.0,16.0,96.19139862060547,17.333984375,-2.624511480331421,-0.39208984375,0.594970703125,-0.1497802734375
6.205,299,1012,644,684,-5.0,33.0,16.0,115.96678924560547,19.1650390625,-1.4038084745407104,-0.39306640625,0.71826171875,-0.28515625
6.209,300,1081,658,707,-5.0,33.0,16.0,112.67089080810547,19.8974609375,4.08935546875,-0.4864501953125,0.712158203125,-0.3765869140625
6.218,304,1133,678,780,-5.0,33.0,16.0,86.18163299560547,17.822265625,7.202147960662842,-0.5899658203125,0.5970458984375,-0.4278564453125
6.225,302,1229,658,802,-5.0,33.0,16.0,49.621578216552734,13.549803733825684,3.417968511581421,-0.6351318359375,0.4327392578125,-0.4268798828125
6.239,307,1377,620,816,-5.0,33.0,16.0,15.441893577575684,7.812499523162842,-2.38037109375,-0.60205078125,0.318603515625,-0.378173828125
6.249,314,1494,654,907,-5.0,33.0,16.0,-12.695311546325684,1.15966796875,-4.2724609375,-0.538818359375,0.249755859375,-0.33056640625
6.258,323,1652,673,933,-5.0,33.0,16.0,-34.66796875,-7.080077648162842,-0.4272460639476776,-0.49609375,0.2191162109375,-0.3050537109375
6.272,353,1894,748,947,-9.0,32.0,20.0,-49.987789154052734,-18.00537109375,7.934569835662842,-0.46630859375,0.2579345703125,-0.28955078125
6.281,369,2071,766,1079,-9.0,32.0,20.0,-57.617183685302734,-28.869626998901367,15.930174827575684,-0.45751953125,0.3472900390625,-0.2705078125
6.306,375,2175,838,1156,-9.0,32.0,20.0,-55.725093841552734,-36.376953125,19.10400390625,-0.4791259765625,0.426025390625,-0.2269287109375
6.308,383,2435,883,1224,-9.0,32.0,20.0,-43.212886810302734,-37.841796875,15.136717796325684,-0.485595703125,0.42578125,-0.193603515625
6.309,402,2584,923,1274,-9.0,32.0,20.0,-26.062009811401367,-31.616209030151367,2.685546636581421,-0.5064697265625,0.3341064453125,-0.260498046875
6.319,445,2672,1058,1357,-9.0,32.0,20.0,-15.930174827575684,-21.301267623901367,-11.535643577575684,-0.71240234375,0.2899169921875,-0.3773193359375
6.329,464,2760,1170,1336,-9.0,32.0,20.0,-22.521970748901367,-18.85986328125,-17.2119140625,-1.077880859375,0.3853759765625,-0.255126953125
6.340,481,2807,1308,1518,-9.0,32.0,20.0,-47.912593841552734,-31.372068405151367,-20.080564498901367,-1.34716796875,0.3646240234375,0.0775146484375
6.345,501,2919,1348,1524,-9.0,32.0,20.0,-76.47705078125,-46.142574310302734,-30.212400436401367,-1.35595703125,0.0743408203125,0.3155517578125
6.362,497,2964,1302,1427,-4.0,29.0,19.0,-76.7822265625,-48.950191497802734,-37.53662109375,-1.24951171875,-0.1341552734375,0.3741455078125
6.369,509,3110,1445,1561,-4.0,29.0,19.0,-37.04833984375,-41.076656341552734,-29.174802780151367,-1.2940673828125,0.06103515625,0.2789306640625
6.387,508,3028,1452,1588,-4.0,29.0,19.0,7.690429210662842,-29.785154342651367,-11.657713890075684,-1.47705078125,0.424560546875,0.142333984375
6.408,470,3147,1345,1588,-4.0,29.0,19.0,25.329587936401367,-18.37158203125,0.1220703050494194,-1.6368408203125,0.631103515625,0.018798828125
6.409,519,3079,1416,1588,-4.0,29.0,19.0,22.949216842651367,-6.042479991912842,4.0283203125,-1.682373046875,0.6778564453125,-0.1578369140625
6.409,532,3011,1444,1349,-4.0,29.0,19.0,22.949216842651367,-6.042479991912842,4.0283203125,-1.4818115234375,0.51806640625,-0.2471923828125
6.422,532,2874,1289,1377,-4.0,29.0,19.0,12.756346702575684,8.6669921875,0.1220703050494194,-1.1136474609375,0.316162109375,-0.091796875
6.448,536,2881,1370,1478,-4.0,29.0,19.0,20.446775436401367,5.615233898162842,-7.446288585662842,-0.9521484375,0.4290771484375,0.095947265625
6.449,536,2828,1355,1467,-4.0,29.0,19.0,20.446775436401367,5.615233898162842,-7.446288585662842,-1.1678466796875,0.745849609375,0.04150390625
6.449,523,2652,1398,1435,-4.0,29.0,19.0,41.137691497802734,11.291502952575684,-27.221677780151367,-1.556396484375,0.903076171875,-0.2655029296875
6.459,523,2484,1422,1428,-5.0,27.0,17.0,31.372068405151367,19.95849609375,-32.04345703125,-1.767822265625,0.754638671875,-0.5252685546875
6.469,527,2382,1401,1377,-5.0,27.0,17.0,31.372068405151367,19.95849609375,-32.04345703125,-1.6878662109375,0.47509765625,-0.4913330078125
6.482,490,2137,1318,1201,-5.0,27.0,17.0,-5.493163585662842,15.869139671325684,-26.062009811401367,-1.454833984375,0.31201171875,-0.2633056640625
6.514,467,2105,1262,1251,-5.0,27.0,17.0,-13.061522483825684,11.291502952575684,-20.996091842651367,-1.2191162109375,0.2408447265625,-0.0277099609375
6.514,473,1954,1331,1211,-5.0,27.0,17.0,-13.061522483825684,11.291502952575684,-20.996091842651367,-1.0465087890625,0.1375732421875,0.1209716796875
6.514,455,1730,1196,1042,-5.0,27.0,17.0,-7.080077648162842,16.17431640625,-15.991209983825684,-0.9219970703125,0.010986328125,0.1497802734375
6.519,431,1590,1186,1050,-5.0,27.0,17.0,0.7324218153953552,22.338865280151367,-10.864256858825684,-0.8017578125,-0.0894775390625,0.111083984375
6.526,424,1387,1138,951,-5.0,27.0,17.0,0.7324218153953552,22.338865280151367,-10.864256858825684,-0.67529296875,-0.170166015625,0.110107421875
6.539,401,1223,986,816,-5.0,27.0,17.0,16.90673828125,25.024412155151367,2.929687261581421,-0.5675048828125,-0.2623291015625,0.1611328125
6.549,376,1156,905,834,-5.0,27.0,17.0,20.935056686401367,22.155759811401367,5.371093273162842,-0.5252685546875,-0.2916259765625,0.2044677734375
6.556,353,1085,790,774,-7.0,29.0,17.0,20.935056686401367,22.155759811401367,5.371093273162842,-0.5152587890625,-0.182861328125,0.1839599609375
6.570,332,917,713,667,-7.0,29.0,17.0,46.752925872802734,20.751951217651367,16.29638671875,-0.478515625,0.015380859375,0.048583984375
6.579,313,864,723,678,-7.0,29.0,17.0,75.3173828125,25.512693405151367,26.733396530151367,-0.409423828125,0.2421875,-0.1363525390625
6.588,308,900,721,614,-7.0,29.0,17.0,75.3173828125,25.512693405151367,26.733396530151367,-0.3695068359375,0.4580078125,-0.281494140625
6.622,302,874,695,634,-7.0,29.0,17.0,118.04198455810547,33.935546875,45.898433685302734,-0.4210205078125,0.60107421875,-0.396728515625
6.623,309,898,711,702,-7.0,29.0,17.0,104.43114471435547,33.38623046875,51.330562591552734,-0.518310546875,0.6351318359375,-0.4869384765625
6.623,308,959,720,710,-7.0,29.0,17.0,104.43114471435547,33.38623046875,51.330562591552734,-0.518310546875,0.6351318359375,-0.4869384765625
6.629,321,1101,721,803,-7.0,29.0,17.0,24.169919967651367,14.038084983825684,38.4521484375,-0.680419921875,0.517578125,-0.47021484375
6.639,328,1217,720,846,-7.0,29.0,17.0,24.169919967651367,14.038084983825684,38.4521484375,-0.6461181640625,0.4345703125,-0.3585205078125
6.645,334,1294,711,895,-7.0,29.0,17.0,-13.610838890075684,-0.54931640625,26.367185592651367,-0.6461181640625,0.4345703125,-0.3585205078125
6.659,351,1474,759,906,-11.0,30.0,13.0,-46.447750091552734,-20.263669967651367,12.390135765075684,-0.541748046875,0.3499755859375,-0.20068359375
6.668,371,1580,840,1043,-11.0,30.0,13.0,-46.447750091552734,-20.263669967651367,12.390135765075684,-0.5064697265625,0.3839111328125,-0.21240234375
6.675,378,1743,860,1100,-11.0,30.0,13.0,-48.278804779052734,-25.146482467651367,13.671874046325684,-0.5064697265625,0.3839111328125,-0.21240234375
6.691,373,2010,869,1067,-11.0,30.0,13.0,-39.6728515625,-30.029294967651367,14.343260765075684,-0.515380859375,0.3900146484375,-0.2171630859375
6.728,382,2178,900,1188,-11.0,30.0,13.0,-39.6728515625,-30.029294967651367,14.343260765075684,-0.5843505859375,0.35400390625,-0.2518310546875
6.728,382,2392,887,1217,-11.0,30.0,13.0,-32.16552734375,-28.686521530151367,10.681151390075684,-0.5843505859375,0.35400390625,-0.2518310546875
6.728,390,2517,968,1188,-11.0,30.0,13.0,-16.17431640625,-21.484373092651367,3.295898199081421,-0.755126953125,0.334228515625,-0.3658447265625
6.729,416,2716,949,1355,-11.0,30.0,13.0,-16.17431640625,-21.484373092651367,3.295898199081421,-1.0224609375,0.4713134765625,-0.3321533203125
6.737,424,2648,1185,1450,-11.0,30.0,13.0,-11.474608421325684,-26.855466842651367,2.929687261581421,-1.0224609375,0.4713134765625,-0.3321533203125
6.749,427,2748,1178,1390,-3.0,28.0,14.0,-72.021484375,-62.683101654052734,-0.6103515625,-1.30615234375,0.2783203125,0.3148193359375
6.758,433,2797,1294,1580,-3.0,28.0,14.0,-72.021484375,-62.683101654052734,-0.6103515625,-1.1875,-0.188720703125,0.4071044921875
6.765,440,2919,1317,1573,-3.0,28.0,14.0,-97.22899627685547,-61.401363372802734,-13.549803733825684,-1.1875,-0.188720703125,0.4071044921875
6.779,447,2984,1278,1474,-3.0,28.0,14.0,-6.652831554412842,-25.756834030151367,-6.469726085662842,-1.197265625,0.065673828125,0.1612548828125
6.793,442,3018,1398,1640,-3.0,28.0,14.0,-6.652831554412842,-25.756834030151367,-6.469726085662842,-1.283203125,0.51123046875,0.08251953125
6.795,445,3137,1424,1623,-3.0,28.0,14.0,35.5224609375,-19.4091796875,7.812499523162842,-1.283203125,0.51123046875,0.08251953125
6.824,439,3086,1306,1580,-3.0,28.0,14.0,39.794921875,-5.0048828125,9.09423828125,-1.4371337890625,0.921630859375,-0.3184814453125
6.825,442,3111,1399,1506,-3.0,28.0,14.0,39.794921875,-5.0048828125,9.09423828125,-1.4573974609375,0.8292236328125,-0.46142578125
6.833,441,3065,1357,1611,-3.0,28.0,14.0,21.606443405151367,1.8920897245407104,0.8544921278953552,-1.4573974609375,0.8292236328125,-0.46142578125
6.840,437,3003,1343,1455,-3.0,28.0,14.0,-0.1220703050494194,1.220703125,-6.591796398162842,-0.9669189453125,0.29931640625,0.001708984375
6.850,431,3024,1415,1546,-6.0,27.0,22.0,-6.347655773162842,-5.310058116912842,-12.634276390075684,-0.9669189453125,0.29931640625,0.001708984375
6.855,428,2946,1393,1546,-6.0,27.0,22.0,5.676269054412842,-10.925292015075684,-17.27294921875,-0.9561767578125,0.4765625,0.1593017578125
6.869,430,2820,1266,1399,-6.0,27.0,22.0,18.1884765625,-8.544921875,-23.864744186401367,-1.4925537109375,0.798095703125,-0.1939697265625
6.879,440,2713,1384,1499,-6.0,27.0,22.0,17.51708984375,2.0751953125,-33.447265625,-1.4925537109375,0.798095703125,-0.1939697265625
6.885,445,2622,1362,1445,-6.0,27.0,22.0,5.249022960662842,11.230467796325684,-39.6728515625,-1.590576171875,0.587646484375,-0.338134765625
6.931,447,2458,1239,1249,-6.0,27.0,22.0,-6.408690929412842,11.108397483825684,-38.2080078125,-1.3660888671875,0.3104248046875,-0.194091796875
6.932,455,2492,1173,1294,-6.0,27.0,22.0,-9.6435546875,4.5166015625,-31.066892623901367,-1.3660888671875,0.3104248046875,-0.194091796875
6.932,440,2290,1239,1303,-6.0,27.0,22.0,-6.164550304412842,-1.03759765625,-23.376462936401367,-1.211181640625,0.30712890625,-0.0838623046875
6.932,419,2160,1151,1123,-6.0,27.0,22.0,-0.1831054538488388,-2.13623046875,-17.88330078125,-0.9549560546875,0.1182861328125,0.07666015625
6.937,411,2050,1172,1189,-6.0,27.0,22.0,5.554198741912842,-0.4882812201976776,-14.038084983825684,-0.9549560546875,0.1182861328125,0.07666015625
6.945,404,1922,1098,1043,-7.0,30.0,21.0,9.46044921875,2.3193359375,-9.27734375,-0.8721923828125,0.0205078125,0.0447998046875
6.959,380,1650,1054,998,-7.0,30.0,21.0,10.009765625,5.920409679412842,-1.3427733182907104,-0.665283203125,-0.05224609375,0.0181884765625
6.970,375,1516,1081,1026,-7.0,30.0,21.0,6.164550304412842,7.385253429412842,8.60595703125,-0.665283203125,-0.05224609375,0.0181884765625
6.976,364,1504,1034,991,-7.0,30.0,21.0,-2.929687261581421,5.432128429412842,17.27294921875,-0.571533203125,-0.1392822265625,0.142822265625
6.989,356,1366,923,905,-7.0,30.0,21.0,-13.366698265075684,4.21142578125,23.071287155151367,-0.554443359375,-0.178466796875,0.197509765625
6.998,352,1323,902,947,-7.0,30.0,21.0,-16.41845703125,6.469726085662842,30.517576217651367,-0.554443359375,-0.178466796875,0.197509765625
7.022,337,1355,846,959,-7.0,30.0,21.0,-7.507323741912842,12.023924827575684,43.884273529052734,-0.530029296875,-0.0230712890625,0.0577392578125
7.022,336,1441,820,998,-7.0,30.0,21.0,8.85009765625,20.507810592651367,58.166500091552734,-0.3701171875,0.3634033203125,-0.241943359375
7.035,342,1524,788,1014,-7.0,30.0,21.0,21.850584030151367,27.221677780151367,65.5517578125,-0.3701171875,0.3634033203125,-0.241943359375
7.039,347,1653,792,1042,-7.0,30.0,21.0,28.381345748901367,25.817869186401367,64.39208984375,-0.3175048828125,0.5849609375,-0.2149658203125
7.049,348,1807,826,1050,-12.0,30.0,18.0,36.865234375,16.6015625,55.969234466552734,-0.345947265625,0.7447509765625,-0.21630859375
7.057,359,1959,964,1117,-12.0,30.0,18.0,53.955074310302734,5.0048828125,40.771480560302734,-0.345947265625,0.7447509765625,-0.21630859375
7.065,369,2058,1001,1183,-12.0,30.0,18.0,72.93701171875,-3.845214605331421,20.385740280151367,-0.3919677734375,0.74658203125,-0.29150390625
7.081,371,2292,986,1116,-12.0,30.0,18.0,72.6318359375,-6.408690929412842,-3.540038824081421,-0.431396484375,0.76708984375,-0.40185546875
7.087,378,2408,1039,1280,-12.0,30.0,18.0,39.48974609375,-3.967284917831421,-26.000974655151367,-0.4375,0.64697265625,-0.47314453125
7.095,378,2519,1014,1182,-12.0,30.0,18.0,-5.798339366912842,-3.051757574081421,-39.00146484375,-0.3536376953125,0.41064453125,-0.45458984375
7.124,391,2718,1129,1334,-12.0,30.0,18.0,-35.400390625,-6.652831554412842,-39.73388671875,-0.320068359375,0.2447509765625,-0.4310302734375
7.124,360,3059,1439,1264,-12.0,30.0,18.0,-46.081539154052734,-14.404295921325684,-30.151365280151367,-0.5758056640625,0.3154296875,-0.4091796875
7.125,431,2861,1372,1202,-12.0,30.0,18.0,-56.457515716552734,-31.433103561401367,-14.587401390075684,-1.0908203125,0.5498046875,-0.1708984375
7.148,411,3003,1340,1440,-12.0,30.0,18.0,-86.42577362060547,-57.128902435302734,-5.249022960662842,-1.4615478515625,0.4710693359375,0.2879638671875
7.148,403,3147,1474,1553,-5.0,27.0,18.0,-110.35155487060547,-70.25146484375,-14.526366233825684,-1.4842529296875,-0.127685546875,0.547119140625
7.155,418,3147,1531,1582,-5.0,27.0,18.0,-79.28466796875,-58.349605560302734,-30.395505905151367,-1.38037109375,-0.5306396484375,0.4542236328125
7.185,423,3147,1422,1611,-5.0,27.0,18.0,-5.249022960662842,-38.0859375,-27.954099655151367,-1.3258056640625,-0.1875,0.235107421875
7.187,437,3147,1500,1689,-5.0,27.0,18.0,52.978511810302734,-25.085447311401367,-11.352538108825684,-1.301025390625,0.4857177734375,0.09423828125
7.188,431,3147,1488,1709,-5.0,27.0,18.0,71.83837890625,-15.991209983825684,-1.8310545682907104,-1.3670654296875,0.9683837890625,-0.0394287109375
7.204,427,3147,1422,1652,-5.0,27.0,18.0,62.438961029052734,-4.7607421875,-5.432128429412842,-1.5457763671875,1.087646484375,-0.265380859375
7.231,441,3147,1508,1665,-5.0,27.0,18.0,37.04833984375,4.21142578125,-16.54052734375,-1.557861328125,0.811279296875,-0.3671875
7.232,441,3121,1488,1635,-5.0,27.0,18.0,12.634276390075684,5.249022960662842,-27.587888717651367,-1.24609375,0.350341796875,-0.2169189453125
7.232,421,3051,1788,1471,-5.0,27.0,18.0,6.286620616912842,0.3662109076976776,-32.5927734375,-0.9376220703125,0.1893310546875,0.015380859375
7.237,431,3034,1483,1574,-5.0,27.0,18.0,13.061522483825684,-3.540038824081421,-33.447265625,-0.913330078125,0.388427734375,0.1126708984375
7.251,419,2937,1509,1557,-6.0,28.0,18.0,16.66259765625,-0.0610351525247097,-37.29248046875,-1.16357421875,0.5985107421875,0.0086669921875
7.259,425,2840,1516,1508,-6.0,28.0,18.0,9.033203125,8.4228515625,-43.029781341552734,-1.4913330078125,0.6361083984375,-0.2000732421875
7.267,433,2721,1499,1494,-6.0,28.0,18.0,-9.27734375,14.404295921325684,-43.701168060302734,-1.6304931640625,0.4837646484375,-0.3277587890625
7.275,430,2648,1494,1456,-6.0,28.0,18.0,-27.832029342651367,14.831542015075684,-37.78076171875,-1.5672607421875,0.3001708984375,-0.3037109375
7.289,430,2534,1386,1258,-6.0,28.0,18.0,-39.794921875,12.084959983825684,-27.709959030151367,-1.4359130859375,0.2286376953125,-0.1917724609375
7.297,430,2407,1463,1372,-6.0,28.0,18.0,-46.508785247802734,10.681151390075684,-15.930174827575684,-1.31689453125,0.232421875,-0.0755615234375
7.305,413,2330,1429,1323,-6.0,28.0,18.0,-50.292964935302734,13.122557640075684,-2.929687261581421,-1.2120361328125,0.200927734375,0.014404296875
7.330,409,2119,1283,1175,-6.0,28.0,18.0,-52.124019622802734,18.73779296875,11.413573265075684,-1.1141357421875,0.0748291015625,0.099853515625
7.331,402,2000,1323,1233,-6.0,28.0,18.0,-50.842281341552734,25.451658248901367,26.123044967651367,-1.0413818359375,-0.095703125,0.1707763671875
7.335,391,1855,1315,1206,-6.0,28.0,18.0,-43.395992279052734,32.40966796875,41.503902435302734,-0.983154296875,-0.20947265625,0.1612548828125
7.355,374,1623,1184,1021,-4.0,29.0,17.0,-29.663084030151367,39.12353515625,57.006832122802734,-0.8935546875,-0.193603515625,0.0914306640625
7.357,371,1608,1078,1045,-4.0,29.0,17.0,-15.563963890075684,40.832515716552734,68.84765625,-0.7332763671875,-0.1011962890625,0.101318359375
7.365,355,1441,1083,1021,-4.0,29.0,17.0,-6.164550304412842,34.36279296875,69.9462890625,-0.53369140625,-0.0625,0.1754150390625
7.379,334,1335,910,864,-4.0,29.0,17.0,3.784179449081421,26.306150436401367,56.274410247802734,-0.402587890625,-0.013671875,0.19775390625
7.387,324,1282,864,888,-4.0,29.0,17.0,22.644041061401367,20.874021530151367,33.447265625,-0.3336181640625,0.2166748046875,0.16357421875
7.395,316,1243,818,845,-4.0,29.0,17.0,52.429195404052734,18.06640625,11.047362327575684,-0.2657470703125,0.572998046875,0.059326171875
7.409,321,1306,793,788,-4.0,29.0,17.0,86.36473846435547,20.202634811401367,-3.967284917831421,-0.197021484375,0.8441162109375,-0.1231689453125
7.431,328,1340,846,882,-4.0,29.0,17.0,107.29979705810547,26.428220748901367,-8.72802734375,-0.285400390625,0.9454345703125,-0.360595703125
7.431,331,1387,869,897,-4.0,29.0,17.0,100.64696502685547,28.503416061401367,-6.408690929412842,-0.5458984375,0.9102783203125,-0.555419921875
7.441,343,1462,944,922,-12.0,29.0,18.0,70.556640625,19.83642578125,-6.347655773162842,-0.6815185546875,0.720703125,-0.5855712890625
7.447,349,1527,943,958,-12.0,29.0,18.0,33.26416015625,7.019042491912842,-14.648436546325684,-0.64501953125,0.4310302734375,-0.5130615234375
7.461,363,1521,943,1063,-12.0,29.0,18.0,-1.7089842557907104,-3.540038824081421,-23.559568405151367,-0.5643310546875,0.212646484375,-0.4095458984375
7.469,376,1693,934,1058,-12.0,29.0,18.0,-30.639646530151367,-13.488768577575684,-23.620603561401367,-0.48974609375,0.1324462890625,-0.2919921875
7.477,374,1845,1026,1167,-12.0,29.0,18.0,-50.109859466552734,-23.132322311401367,-15.624999046325684,-0.446533203125,0.1473388671875,-0.197265625
7.485,383,1957,1022,1241,-12.0,29.0,18.0,-60.180660247802734,-30.029294967651367,-5.187987804412842,-0.4256591796875,0.1893310546875,-0.1314697265625
7.499,383,2194,934,1231,-12.0,29.0,18.0,-59.936519622802734,-30.883787155151367,2.868652105331421,-0.45703125,0.18505859375,-0.1295166015625
7.508,401,2314,1000,1411,-12.0,29.0,18.0,-49.011226654052734,-23.681638717651367,7.080077648162842,-0.56884765625,0.1585693359375,-0.21826171875
7.537,388,2534,1129,1390,-12.0,29.0,18.0,-33.8134765625,-13.610838890075684,10.559081077575684,-0.7783203125,0.220703125,-0.316650390625
7.538,402,2702,1257,1381,-12.0,29.0,18.0,-27.709959030151367,-12.634276390075684,14.343260765075684,-1.103271484375,0.3739013671875,-0.2406005859375
7.538,404,2822,1316,1478,-5.0,28.0,16.0,-41.625972747802734,-27.587888717651367,13.305663108825684,-1.31298828125,0.4122314453125,0.0860595703125
7.545,416,2807,1377,1588,-5.0,28.0,16.0,-41.625972747802734,-27.587888717651367,13.305663108825684,-1.2000732421875,0.1986083984375,0.4033203125
7.559,421,2949,1336,1455,-5.0,28.0,16.0,-55.358882904052734,-50.842281341552734,-14.770506858825684,-0.988525390625,-0.0225830078125,0.4425048828125
7.569,423,2981,1464,1635,-5.0,28.0,16.0,-12.390135765075684,-40.405269622802734,-22.033689498901367,-0.974365234375,0.0894775390625,0.227294921875
7.575,433,3031,1494,1627,-5.0,28.0,16.0,-12.390135765075684,-40.405269622802734,-22.033689498901367,-1.1495361328125,0.4947509765625,-0.009765625
7.589,428,3033,1401,1552,-5.0,28.0,16.0,42.053218841552734,-22.583005905151367,-12.756346702575684,-1.3779296875,0.8179931640625,-0.10205078125
7.597,438,3032,1518,1676,-5.0,28.0,16.0,28.259275436401367,-18.06640625,-13.977049827575684,-1.6007080078125,0.8369140625,-0.150634765625
7.605,430,3022,1506,1676,-5.0,28.0,16.0,28.259275436401367,-18.06640625,-13.977049827575684,-1.7115478515625,0.632568359375,-0.2044677734375
7.636,432,3010,1382,1501,-5.0,28.0,16.0,-3.540038824081421,-4.0283203125,-19.8974609375,-1.5079345703125,0.2947998046875,-0.1290283203125
7.637,439,3147,1370,1330,-5.0,28.0,16.0,-5.554198741912842,-1.8920897245407104,-16.54052734375,-1.115234375,0.030517578125,0.085693359375
7.637,439,3031,1422,1580,-5.0,27.0,15.0,-5.554198741912842,-1.8920897245407104,-16.54052734375,-0.9019775390625,0.129150390625,0.241943359375
7.649,431,2882,1312,1427,-5.0,27.0,15.0,12.939452171325684,5.981444835662842,-7.019042491912842,-1.006591796875,0.4456787109375,0.1885986328125
7.657,430,2831,1416,1579,-5.0,27.0,15.0,19.4091796875,18.1884765625,-9.27734375,-1.3524169921875,0.6810302734375,-0.069580078125
7.665,438,2746,1390,1568,-5.0,27.0,15.0,19.4091796875,18.1884765625,-9.27734375,-1.66650390625,0.736083984375,-0.349853515625
7.680,431,2652,1317,1330,-5.0,27.0,15.0,5.249022960662842,31.433103561401367,-14.221190452575684,-1.7274169921875,0.612060546875,-0.4349365234375
7.687,447,2749,1280,1401,-5.0,27.0,15.0,-10.070799827575684,26.733396530151367,-12.634276390075684,-1.5838623046875,0.4495849609375,-0.32666015625
7.695,437,2445,1373,1402,-5.0,27.0,15.0,-10.070799827575684,26.733396530151367,-12.634276390075684,-1.367919921875,0.3687744140625,-0.1656494140625
7.709,430,2207,1264,1225,-5.0,27.0,15.0,-27.526853561401367,19.34814453125,-6.774901866912842,-1.1756591796875,0.319091796875,-0.0450439453125
7.717,419,2110,1326,1294,-5.0,27.0,15.0,-27.648923873901367,21.240232467651367,-4.8828125,-1.0577392578125,0.2216796875,0.036865234375
7.741,411,1948,1308,1266,-5.0,27.0,15.0,-27.648923873901367,21.240232467651367,-4.8828125,-0.986083984375,0.088623046875,0.08154296875
7.741,388,1697,1173,1064,-5.0,30.0,18.0,-25.817869186401367,29.479978561401367,0.30517578125,-0.9085693359375,-0.040771484375,0.098876953125
7.747,378,1521,1183,1063,-5.0,30.0,18.0,-23.620603561401367,33.75244140625,5.615233898162842,-0.79931640625,-0.1524658203125,0.13037109375
7.755,363,1367,1117,1005,-5.0,30.0,18.0,-23.620603561401367,33.75244140625,5.615233898162842,-0.79931640625,-0.1524658203125,0.13037109375
7.769,344,1160,934,827,-5.0,30.0,18.0,-11.657713890075684,33.5693359375,13.183592796325684,-0.529052734375,-0.2529296875,0.207275390625
7.782,327,1064,865,822,-5.0,30.0,18.0,-11.657713890075684,33.5693359375,13.183592796325684,-0.4912109375,-0.130126953125,0.1859130859375
7.785,306,963,750,746,-5.0,30.0,18.0,-4.638671875,31.005857467651367,11.901854515075684,-0.4912109375,-0.130126953125,0.1859130859375
7.799,300,840,724,648,-5.0,30.0,18.0,30.883787155151367,31.127927780151367,16.17431640625,-0.3167724609375,0.397216796875,-0.040771484375
7.808,304,785,744,687,-5.0,30.0,18.0,30.883787155151367,31.127927780151367,16.17431640625,-0.26416015625,0.57470703125,-0.148681640625
7.817,302,785,753,679,-5.0,30.0,18.0,62.866207122802734,35.33935546875,22.460935592651367,-0.26416015625,0.57470703125,-0.148681640625
7.847,302,859,748,660,-6.0,33.0,16.0,100.28075408935547,37.7197265625,31.860349655151367,-0.5355224609375,0.636962890625,-0.372314453125
7.847,309,946,785,739,-6.0,33.0,16.0,100.28075408935547,37.7197265625,31.860349655151367,-0.6552734375,0.5972900390625,-0.5042724609375
7.848,315,1026,794,780,-6.0,33.0,16.0,88.98925018310547,32.77587890625,26.794431686401367,-0.6552734375,0.5972900390625,-0.5042724609375
7.859,315,1189,753,802,-6.0,33.0,16.0,26.855466842651367,0.9155272841453552,2.38037109375,-0.632568359375,0.4449462890625,-0.517578125
7.867,332,1251,794,927,-6.0,33.0,16.0,26.855466842651367,0.9155272841453552,2.38037109375,-0.4989013671875,0.3719482421875,-0.387939453125
7.875,331,1386,840,986,-6.0,33.0,16.0,-5.126952648162842,-17.15087890625,-5.065917491912842,-0.4989013671875,0.3719482421875,-0.387939453125
7.908,351,1666,853,1022,-6.0,33.0,16.0,-46.752925872802734,-35.64453125,0.1831054538488388,-0.39404296875,0.3389892578125,-0.25439453125
7.919,364,1819,932,1182,-6.0,33.0,16.0,-46.752925872802734,-35.64453125,0.1831054538488388,-0.3759765625,0.362060546875,-0.2322998046875
7.925,357,2063,947,1183,-6.0,33.0,16.0,-55.480953216552734,-39.24560546875,6.286620616912842,-0.3759765625,0.362060546875,-0.2322998046875
7.935,360,2316,887,1172,-6.0,33.0,16.0,-45.959468841552734,-38.818359375,7.141112804412842,-0.4793701171875,0.2841796875,-0.2945556640625
7.943,369,2437,1000,1343,-6.0,29.0,20.0,-45.959468841552734,-38.818359375,7.141112804412842,-0.63427734375,0.247314453125,-0.400634765625
7.944,384,2514,1097,1404,-6.0,29.0,20.0,-37.17041015625,-33.87451171875,4.39453125,-0.63427734375,0.247314453125,-0.400634765625
7.949,400,2698,1274,1480,-6.0,29.0,20.0,-52.185054779052734,-43.395992279052734,1.6479490995407104,-1.4510498046875,0.462890625,-0.010986328125
7.957,404,2754,1318,1543,-6.0,29.0,20.0,-52.185054779052734,-43.395992279052734,1.6479490995407104,-1.5123291015625,0.22705078125,0.52001953125
7.965,404,2837,1328,1575,-6.0,29.0,20.0,-91.97997283935547,-61.462398529052734,-7.263183116912842,-1.5123291015625,0.22705078125,0.52001953125
7.979,417,2961,1236,1487,-6.0,29.0,20.0,-109.98534393310547,-64.3310546875,-25.085447311401367,-0.9910888671875,-0.3468017578125,0.62451171875
7.997,424,3031,1380,1643,-6.0,29.0,20.0,-63.598628997802734,-47.302242279052734,-30.456541061401367,-0.9910888671875,-0.3468017578125,0.62451171875
7.997,428,3084,1365,1646,-6.0,29.0,20.0,13.977049827575684,-26.306150436401367,-15.441893577575684,-1.064697265625,0.153564453125,0.328369140625
8.009,415,3120,1290,1588,-6.0,29.0,20.0,58.654781341552734,-12.207030296325684,1.4038084745407104,-1.5823974609375,0.9991455078125,-0.1806640625
8.023,430,3147,1248,1656,-6.0,29.0,20.0,57.861324310302734,-1.4648436307907104,4.33349609375,-1.5823974609375,0.9991455078125,-0.1806640625
8.046,416,3107,1366,1635,-5.0,29.0,19.0,36.92626953125,9.6435546875,-4.39453125,-1.76171875,0.9593505859375,-0.423828125
8.047,424,3023,1278,1536,-5.0,29.0,19.0,14.282225608825684,15.136717796325684,-16.05224609375,-1.13427734375,0.260009765625,-0.166748046875
8.047,427,3079,1636,1464,-5.0,29.0,19.0,4.45556640625,11.596678733825684,-27.343748092651367,-1.13427734375,0.260009765625,-0.166748046875
8.055,431,2890,1344,1574,-5.0,29.0,19.0,13.366698265075684,3.540038824081421,-33.75244140625,-0.9556884765625,0.2828369140625,0.053466796875
8.072,439,2803,1229,1411,-5.0,29.0,19.0,20.935056686401367,0.0,-34.11865234375,-1.489013671875,0.6517333984375,-0.1773681640625
8.078,445,2738,1341,1519,-5.0,29.0,19.0,12.145995140075684,6.530761241912842,-34.0576171875,-1.489013671875,0.6517333984375,-0.1773681640625
8.085,438,2684,1361,1466,-5.0,29.0,19.0,-6.225585460662842,16.29638671875,-33.99658203125,-1.6104736328125,0.5029296875,-0.3670654296875
8.102,439,2516,1262,1317,-5.0,29.0,19.0,-24.108884811401367,19.04296875,-30.029294967651367,-1.357177734375,0.2523193359375,-0.2437744140625
8.108,441,2445,1344,1399,-5.0,29.0,19.0,-37.841796875,14.953612327575684,-22.338865280151367,-1.357177734375,0.2523193359375,-0.2437744140625
8.115,431,2296,1336,1386,-5.0,29.0,19.0,-48.339839935302734,11.230467796325684,-13.122557640075684,-1.2142333984375,0.2396240234375,-0.103759765625
8.147,416,2161,1260,1214,-5.0,31.0,23.0,-53.833003997802734,12.084959983825684,-3.723144292831421,-1.032470703125,0.157958984375,0.116943359375
8.148,406,2028,1280,1266,-5.0,31.0,23.0,-51.208492279052734,16.845703125,4.150390625,-1.032470703125,0.157958984375,0.116943359375
8.148,401,1813,1278,1219,-5.0,31.0,23.0,-41.748043060302734,23.132322311401367,9.58251953125,-0.990234375,0.083740234375,0.1607666015625
8.160,374,1662,1146,1038,-5.0,31.0,23.0,-29.663084030151367,30.212400436401367,14.343260765075684,-0.8819580078125,-0.049072265625,0.108642578125
8.167,371,1508,1156,1078,-5.0,31.0,23.0,-16.78466796875,35.82763671875,19.59228515625,-0.8819580078125,-0.049072265625,0.108642578125
8.175,351,1416,1074,1021,-5.0,31.0,23.0,-4.57763671875,36.07177734375,24.963376998901367,-0.7857666015625,-0.1295166015625,0.14208984375
8.189,332,1267,895,855,-5.0,31.0,23.0,4.638671875,33.0810546875,29.907224655151367,-0.568359375,-0.1412353515625,0.1109619140625
8.197,326,1213,858,879,-5.0,31.0,23.0,13.000487327575684,31.311033248901367,32.958984375,-0.568359375,-0.1412353515625,0.1109619140625
8.207,310,1157,763,829,-5.0,31.0,23.0,23.803709030151367,29.296873092651367,33.935546875,-0.52294921875,0.0113525390625,0.0692138671875
8.219,300,1014,697,721,-4.0,33.0,16.0,38.4521484375,26.611326217651367,34.48486328125,-0.5086669921875,0.205322265625,0.001220703125
8.227,304,1034,730,739,-4.0,33.0,16.0,56.701656341552734,26.184080123901367,35.2783203125,-0.4326171875,0.39013671875,-0.0946044921875
8.249,307,1037,740,777,-4.0,33.0,16.0,76.904296875,28.015134811401367,36.2548828125,-0.322021484375,0.5301513671875,-0.173583984375
8.249,308,1104,753,802,-4.0,33.0,16.0,92.04100799560547,28.686521530151367,37.53662109375,-0.3438720703125,0.5909423828125,-0.2518310546875
8.258,314,1243,748,793,-4.0,33.0,16.0,91.24755096435547,25.878904342651367,38.0859375,-0.4952392578125,0.6097412109375,-0.369140625
8.266,315,1318,762,883,-4.0,33.0,16.0,71.4111328125,19.34814453125,35.09521484375,-0.63671875,0.6343994140625,-0.497314453125
8.274,318,1419,754,918,-4.0,33.0,16.0,40.405269622802734,9.6435546875,26.855466842651367,-0.6646728515625,0.6248779296875,-0.5579833984375
8.288,323,1623,740,922,-4.0,33.0,16.0,6.835937023162842,-2.13623046875,14.282225608825684,-0.6033935546875,0.5526123046875,-0.5069580078125
8.296,336,1735,829,1054,-4.0,33.0,16.0,-24.291990280151367,-14.282225608825684,2.929687261581421,-0.51513671875,0.4886474609375,-0.39306640625
8.304,344,1860,871,1115,-4.0,33.0,16.0,-46.020503997802734,-24.841306686401367,-2.868652105331421,-0.4425048828125,0.4674072265625,-0.30859375
8.318,351,2087,835,1104,-8.0,28.0,18.0,-51.574703216552734,-32.470703125,-5.676269054412842,-0.4049072265625,0.4346923828125,-0.280029296875
8.328,355,2220,887,1239,-8.0,28.0,18.0,-45.410152435302734,-37.29248046875,-8.7890625,-0.417236328125,0.3564453125,-0.289306640625
8.353,356,2415,887,1274,-8.0,28.0,18.0,-38.14697265625,-38.39111328125,-11.230467796325684,-0.4356689453125,0.2845458984375,-0.3233642578125
8.353,346,2821,1014,1383,-8.0,28.0,18.0,-31.921384811401367,-36.1328125,-11.962889671325684,-0.53564453125,0.28662109375,-0.354248046875
8.357,391,2692,1188,1441,-8.0,28.0,18.0,-26.184080123901367,-36.68212890625,-10.864256858825684,-0.8690185546875,0.43603515625,-0.2664794921875
8.364,411,2692,1289,1534,-8.0,28.0,18.0,-37.29248046875,-46.874996185302734,-10.498045921325684,-1.2899169921875,0.568115234375,0.1119384765625
8.378,418,2820,1225,1452,-8.0,28.0,18.0,-75.8056640625,-60.180660247802734,-19.71435546875,-1.4764404296875,0.2471923828125,0.5565185546875
8.386,418,2911,1367,1627,-8.0,28.0,18.0,-101.80663299560547,-59.020992279052734,-34.5458984375,-1.3316650390625,-0.37939453125,0.6826171875
8.395,423,2984,1387,1651,-8.0,28.0,18.0,-66.40625,-42.602535247802734,-33.69140625,-1.1370849609375,-0.5888671875,0.500244140625
8.409,424,3056,1292,1588,-8.0,28.0,18.0,8.544921875,-26.855466842651367,-11.474608421325684,-1.118896484375,-0.1373291015625,0.2237548828125
8.422,424,3094,1422,1704,-5.0,29.0,16.0,63.354488372802734,-19.83642578125,12.023924827575684,-1.2108154296875,0.549560546875,0.028076171875
8.425,430,3147,1323,1646,-5.0,29.0,16.0,78.0029296875,-14.953612327575684,16.66259765625,-1.3631591796875,1.0482177734375,-0.1573486328125
8.455,430,3115,1353,1613,-5.0,29.0,16.0,65.24658203125,-5.371093273162842,1.6479490995407104,-1.563232421875,1.1944580078125,-0.4039306640625
8.456,425,3147,1697,1637,-5.0,29.0,16.0,36.9873046875,3.295898199081421,-20.874021530151367,-1.6173095703125,0.9544677734375,-0.5064697265625
8.456,436,3080,1422,1516,-5.0,29.0,16.0,10.009765625,2.50244140625,-40.0390625,-1.3389892578125,0.4697265625,-0.30859375
8.468,432,2918,1358,1427,-5.0,29.0,16.0,4.57763671875,-5.737304210662842,-51.086421966552734,-0.98583984375,0.1962890625,-0.0010986328125
8.476,430,2831,1449,1564,-5.0,29.0,16.0,14.404295921325684,-11.413573265075684,-53.283687591552734,-0.9437255859375,0.33935546875,0.1395263671875
8.484,428,2765,1447,1546,-5.0,29.0,16.0,15.991209983825684,-7.202147960662842,-51.452632904052734,-1.2037353515625,0.536376953125,0.0416259765625
8.498,428,2673,1357,1341,-5.0,29.0,16.0,3.784179449081421,4.21142578125,-49.316402435302734,-1.4813232421875,0.4921875,-0.1632080078125
8.506,433,2581,1447,1483,-5.0,29.0,16.0,-13.061522483825684,12.817381858825684,-43.457027435302734,-1.5557861328125,0.2939453125,-0.2794189453125
8.514,438,2535,1440,1447,-3.0,30.0,21.0,-26.672361373901367,13.183592796325684,-31.555173873901367,-1.446044921875,0.1534423828125,-0.2386474609375
8.528,423,2435,1303,1276,-3.0,30.0,21.0,-36.92626953125,9.33837890625,-15.747069358825684,-1.2713623046875,0.1146240234375,-0.1160888671875
8.536,407,2379,1359,1365,-3.0,30.0,21.0,-44.616695404052734,8.1787109375,1.220703125,-1.118896484375,0.1036376953125,-0.0006103515625
8.558,402,2259,1349,1365,-3.0,30.0,21.0,-47.241207122802734,11.779784202575684,17.7001953125,-1.015380859375,0.0518798828125,0.09375
8.558,401,2047,1169,1269,-3.0,30.0,21.0,-42.907711029052734,17.822265625,32.1044921875,-0.97021484375,-0.020751953125,0.1561279296875
8.566,409,1949,1209,1361,-3.0,30.0,21.0,-31.921384811401367,24.658201217651367,44.128414154052734,-0.9676513671875,-0.0338134765625,0.1363525390625
8.574,391,1874,1156,1326,-3.0,30.0,21.0,-31.921384811401367,24.658201217651367,44.128414154052734,-0.9571533203125,0.0418701171875,0.048828125
8.588,371,1834,1039,1078,-3.0,30.0,21.0,-0.8544921278953552,33.99658203125,58.898921966552734,-0.8970947265625,0.1424560546875,0.0166015625
8.596,357,1701,1051,1115,-3.0,30.0,21.0,8.4228515625,28.808591842651367,54.931636810302734,-0.81201171875,0.208251953125,0.0526123046875
