time,compression0,compression1,compression2,compression3,magn_x,magn_y,magn_z,gyro_x,gyro_y,gyro_z,accel_x,accel_y,accel_z
0.002,277,698,493,499,8.0,29.0,24.0,-77.81982421875,-17.4560546875,0.0610351525247097,-0.950927734375,0.2823486328125,0.1153564453125
0.002,272,698,473,507,8.0,29.0,24.0,-73.486328125,-23.681638717651367,0.1831054538488388,-0.916259765625,0.1766357421875,0.055908203125
0.010,272,673,497,510,8.0,29.0,24.0,-58.898921966552734,-25.451658248901367,-0.6713866591453552,-0.890869140625,0.130859375,-0.01904296875
0.018,272,666,495,514,9.0,27.0,17.0,-41.625972747802734,-22.521970748901367,-2.197265625,-0.8856201171875,0.156982421875,-0.059326171875
0.027,274,661,495,512,9.0,27.0,17.0,-28.076169967651367,-16.41845703125,-3.967284917831421,-0.904541015625,0.2454833984375,-0.039306640625
0.040,272,656,482,490,9.0,27.0,17.0,-21.667478561401367,-10.559081077575684,-5.432128429412842,-0.931884765625,0.3460693359375,0.011962890625
0.048,272,673,506,507,9.0,27.0,17.0,-24.414060592651367,-8.1787109375,-5.310058116912842,-0.9464111328125,0.3746337890625,0.052490234375
0.056,275,712,510,473,9.0,27.0,17.0,-34.3017578125,-10.070799827575684,-2.929687261581421,-0.935302734375,0.312744140625,0.0614013671875
0.070,277,725,497,456,9.0,27.0,17.0,-43.395992279052734,-13.305663108825684,0.2441406100988388,-0.905517578125,0.203857421875,0.0479736328125
0.078,277,756,484,487,9.0,27.0,17.0,-43.884273529052734,-14.221190452575684,1.8920897245407104,-0.880126953125,0.1024169921875,0.02978515625
0.091,273,697,497,518,9.0,27.0,17.0,-34.48486328125,-11.779784202575684,1.7089842557907104,-0.8743896484375,0.0518798828125,0.009765625
0.103,272,710,482,497,9.0,27.0,17.0,-19.71435546875,-7.263183116912842,0.8544921278953552,-0.886962890625,0.0545654296875,-0.0125732421875
0.108,272,720,496,526,9.0,27.0,17.0,-5.737304210662842,-2.746581792831421,0.30517578125,-0.90625,0.0870361328125,-0.0234375
0.116,272,746,497,525,11.0,29.0,21.0,3.967284917831421,0.4882812201976776,0.7324218153953552,-0.9210205078125,0.129150390625,-0.008544921875
0.130,272,702,481,512,11.0,29.0,21.0,9.765625,2.01416015625,2.38037109375,-0.925048828125,0.15771484375,0.021240234375
0.138,274,723,496,526,11.0,29.0,21.0,13.854979515075684,2.0751953125,4.638671875,-0.9271240234375,0.1610107421875,0.0394287109375
0.146,276,737,501,506,11.0,29.0,21.0,18.5546875,1.0986328125,6.530761241912842,-0.9403076171875,0.15966796875,0.0316162109375
0.160,274,748,479,497,11.0,29.0,21.0,23.803709030151367,-0.3662109076976776,7.568358898162842,-0.9632568359375,0.1871337890625,0.0064697265625
0.172,272,750,497,525,11.0,29.0,21.0,26.855466842651367,-1.3427733182907104,8.11767578125,-0.9873046875,0.2587890625,-0.0089111328125
0.176,275,766,498,512,11.0,29.0,21.0,24.902341842651367,-1.5258787870407104,8.72802734375,-1.004638671875,0.35302734375,0.007568359375
0.207,275,757,488,491,11.0,29.0,21.0,18.1884765625,-1.15966796875,9.21630859375,-1.003173828125,0.426025390625,0.0501708984375
0.209,260,813,542,537,11.0,29.0,21.0,10.070799827575684,-0.1831054538488388,8.97216796875,-0.978759765625,0.432373046875,0.0968017578125
0.209,272,739,493,551,11.0,29.0,21.0,4.45556640625,1.0986328125,7.690429210662842,-0.94921875,0.37158203125,0.1239013671875
0.221,268,744,481,531,9.0,29.0,23.0,3.601073980331421,1.8310545682907104,6.042479991912842,-0.93359375,0.3109130859375,0.1214599609375
0.228,272,744,497,561,9.0,29.0,23.0,7.141112804412842,1.5869139432907104,4.45556640625,-0.935302734375,0.306640625,0.103515625
0.236,272,750,501,559,9.0,29.0,23.0,11.596678733825684,0.9765624403953552,2.50244140625,-0.9439697265625,0.34033203125,0.0859375
0.251,274,757,484,539,9.0,29.0,23.0,13.366698265075684,0.8544921278953552,0.1831054538488388,-0.951416015625,0.366943359375,0.0718994140625
0.258,272,759,499,567,9.0,29.0,23.0,12.268065452575684,1.6479490995407104,-2.197265625,-0.9547119140625,0.36865234375,0.05126953125
0.266,272,763,497,567,9.0,29.0,23.0,10.253905296325684,2.624511480331421,-4.150390625,-0.94970703125,0.3463134765625,0.0252685546875
0.281,272,806,490,513,9.0,29.0,23.0,7.812499523162842,2.624511480331421,-5.0048828125,-0.9425048828125,0.317626953125,0.0023193359375
0.289,274,828,509,531,9.0,29.0,23.0,4.7607421875,1.220703125,-4.638671875,-0.943359375,0.2978515625,-0.010498046875
0.309,274,813,509,537,9.0,29.0,23.0,1.7700194120407104,-0.9765624403953552,-3.784179449081421,-0.9517822265625,0.28857421875,-0.0108642578125
0.310,274,859,519,439,8.0,31.0,19.0,0.1831054538488388,-3.540038824081421,-3.173827886581421,-0.9635009765625,0.287841796875,-0.0052490234375
0.318,274,774,499,572,8.0,31.0,19.0,0.30517578125,-6.225585460662842,-2.990722417831421,-0.968994140625,0.2877197265625,0.006103515625
0.327,268,767,501,572,8.0,31.0,19.0,1.0986328125,-8.60595703125,-2.746581792831421,-0.958984375,0.2821044921875,0.0206298828125
0.340,274,784,482,543,8.0,31.0,19.0,1.220703125,-10.070799827575684,-2.01416015625,-0.9354248046875,0.269287109375,0.0413818359375
0.348,272,780,501,569,8.0,31.0,19.0,0.1220703050494194,-10.253905296325684,-0.8544921278953552,-0.910400390625,0.2537841796875,0.0687255859375
0.356,274,790,508,561,8.0,31.0,19.0,-1.15966796875,-9.33837890625,0.3662109076976776,-0.8956298828125,0.242919921875,0.08935546875
0.370,273,782,485,548,8.0,31.0,19.0,-1.8920897245407104,-7.873534679412842,1.3427733182907104,-0.892578125,0.2354736328125,0.0977783203125
0.385,273,803,508,564,8.0,31.0,19.0,-1.8920897245407104,-6.774901866912842,2.38037109375,-0.9010009765625,0.2374267578125,0.0911865234375
0.386,274,818,561,521,8.0,31.0,19.0,-1.0986328125,-6.774901866912842,3.295898199081421,-0.9200439453125,0.253662109375,0.0740966796875
0.413,274,815,482,539,8.0,31.0,19.0,0.2441406100988388,-7.812499523162842,3.784179449081421,-0.9422607421875,0.2742919921875,0.06005859375
0.413,274,853,496,561,12.0,26.0,17.0,1.4038084745407104,-9.33837890625,3.540038824081421,-0.953857421875,0.2884521484375,0.05322265625
0.416,274,846,497,559,12.0,26.0,17.0,1.7089842557907104,-10.375975608825684,2.868652105331421,-0.9483642578125,0.290283203125,0.0560302734375
0.430,274,864,479,546,12.0,26.0,17.0,0.9765624403953552,-10.559081077575684,2.25830078125,-0.93408203125,0.2886962890625,0.0638427734375
0.438,274,902,495,575,12.0,26.0,17.0,-0.54931640625,-10.070799827575684,2.01416015625,-0.919677734375,0.294677734375,0.066162109375
0.446,273,932,493,579,12.0,26.0,17.0,-2.807616949081421,-9.521484375,1.7089842557907104,-0.906494140625,0.3050537109375,0.056640625
0.460,275,1001,478,555,12.0,26.0,17.0,-6.164550304412842,-9.70458984375,1.2817381620407104,-0.8916015625,0.2965087890625,0.0438232421875
0.468,275,1043,493,597,12.0,26.0,17.0,-9.46044921875,-10.925292015075684,0.7934569716453552,-0.8743896484375,0.2596435546875,0.0440673828125
0.476,274,1055,481,628,12.0,26.0,17.0,-9.46044921875,-10.925292015075684,0.7934569716453552,-0.855224609375,0.2213134765625,0.0509033203125
0.492,274,1138,442,592,12.0,26.0,17.0,-9.70458984375,-15.991209983825684,1.0986328125,-0.8258056640625,0.1981201171875,0.053466796875
0.499,274,1182,440,678,12.0,26.0,17.0,-8.544921875,-19.10400390625,1.3427733182907104,-0.7850341796875,0.1978759765625,0.0440673828125
0.513,271,1253,439,702,9.0,29.0,16.0,-8.544921875,-19.10400390625,1.3427733182907104,-0.731201171875,0.215576171875,0.0164794921875
0.521,277,1472,455,614,9.0,29.0,16.0,-15.441893577575684,-26.184080123901367,0.30517578125,-0.640625,0.23388671875,-0.0323486328125
0.528,280,1791,548,519,9.0,29.0,16.0,-24.108884811401367,-31.372068405151367,-1.5258787870407104,-0.4959716796875,0.229736328125,-0.113525390625
0.536,291,2082,640,424,9.0,29.0,16.0,-24.108884811401367,-31.372068405151367,-1.5258787870407104,-0.306396484375,0.17919921875,-0.2293701171875
0.550,294,2220,576,513,9.0,29.0,16.0,-36.92626953125,-40.771480560302734,-6.347655773162842,-0.1192626953125,0.1424560546875,-0.3221435546875
0.559,292,2247,628,548,9.0,29.0,16.0,-36.2548828125,-41.809078216552734,-6.408690929412842,0.0489501953125,0.1522216796875,-0.2935791015625
0.566,304,2611,731,445,9.0,29.0,16.0,-36.2548828125,-41.809078216552734,-6.408690929412842,0.1036376953125,0.2469482421875,-0.138916015625
0.625,292,2440,584,518,9.0,29.0,16.0,-27.770994186401367,-30.151365280151367,2.197265625,-0.1490478515625,0.55615234375,0.080322265625
0.626,304,2850,820,574,9.0,29.0,16.0,-29.235837936401367,-34.66796875,1.7700194120407104,-0.586181640625,0.8697509765625,0.3319091796875
0.626,299,2787,826,564,9.0,29.0,16.0,-29.235837936401367,-34.66796875,1.7700194120407104,-0.9915771484375,0.938232421875,0.5196533203125
0.626,300,3077,917,526,11.0,25.0,20.0,-76.0498046875,-88.31786346435547,-21.545408248901367,-1.41015625,0.783935546875,0.499267578125
0.626,300,3117,1018,567,11.0,25.0,20.0,-102.90526580810547,-100.83007049560547,-37.841796875,-1.7608642578125,0.4364013671875,0.39501953125
0.626,300,3147,1009,675,11.0,25.0,20.0,-102.90526580810547,-100.83007049560547,-37.841796875,-2.0279541015625,0.1219482421875,0.3116455078125
0.641,304,3147,1010,689,11.0,25.0,20.0,-131.65283203125,-58.715816497802734,-55.297847747802734,-2.34228515625,0.20947265625,0.337890625
0.648,304,3147,1138,698,11.0,25.0,20.0,-128.2958984375,-41.015621185302734,-45.715328216552734,-2.47705078125,0.3353271484375,0.4769287109375
0.656,304,3147,1117,689,11.0,25.0,20.0,-128.2958984375,-41.015621185302734,-45.715328216552734,-2.141357421875,-0.1512451171875,0.51025390625
0.670,302,3147,1026,553,11.0,25.0,20.0,-96.86278533935547,-23.254392623901367,-28.503416061401367,-1.5,-0.8773193359375,0.588623046875
0.678,305,3147,1108,499,11.0,25.0,20.0,-12.573241233825684,-6.835937023162842,-24.353025436401367,-1.01806640625,-1.018798828125,0.7947998046875
0.686,302,3147,1031,572,11.0,25.0,20.0,-12.573241233825684,-6.835937023162842,-24.353025436401367,-1.1068115234375,-0.139404296875,0.8255615234375
0.719,300,3147,946,522,15.0,23.0,21.0,116.88231658935547,21.240232467651367,0.0610351525247097,-1.646240234375,1.1248779296875,0.5274658203125
0.720,300,3147,888,490,15.0,23.0,21.0,116.88231658935547,21.240232467651367,0.0610351525247097,-2.0133056640625,1.559814453125,0.1893310546875
0.720,299,3064,932,531,15.0,23.0,21.0,70.73974609375,27.893064498901367,15.197752952575684,-2.0133056640625,1.559814453125,0.1893310546875
0.730,300,2880,844,470,15.0,23.0,21.0,-34.66796875,33.02001953125,7.202147960662842,-1.557861328125,0.427490234375,0.3282470703125
0.738,300,2748,869,506,15.0,23.0,21.0,-34.66796875,33.02001953125,7.202147960662842,-1.180908203125,0.06005859375,0.43603515625
0.746,299,2621,858,411,15.0,23.0,21.0,-26.184080123901367,24.414060592651367,0.9155272841453552,-1.180908203125,0.06005859375,0.43603515625
0.760,300,2391,790,398,15.0,23.0,21.0,30.212400436401367,20.690916061401367,-2.38037109375,-0.8421630859375,0.001953125,0.35693359375
0.768,301,2293,800,404,15.0,23.0,21.0,30.212400436401367,20.690916061401367,-2.38037109375,-0.7249755859375,-0.118408203125,0.3538818359375
0.776,292,1931,725,526,15.0,23.0,21.0,49.255367279052734,27.648923873901367,-7.995604991912842,-0.7249755859375,-0.118408203125,0.3538818359375
0.790,292,1689,631,442,15.0,23.0,21.0,86.91405487060547,46.508785247802734,-27.343748092651367,-0.5738525390625,-0.27392578125,0.1253662109375
0.800,291,1462,593,497,10.0,24.0,23.0,86.91405487060547,46.508785247802734,-27.343748092651367,-0.565185546875,-0.263916015625,-0.04931640625
0.825,286,1222,543,493,10.0,24.0,23.0,105.40770721435547,49.133296966552734,-30.151365280151367,-0.565185546875,-0.263916015625,-0.04931640625
0.825,286,820,523,414,10.0,24.0,23.0,126.70897674560547,43.823238372802734,-16.9677734375,-0.5145263671875,-0.0997314453125,-0.1334228515625
0.828,280,721,504,438,10.0,24.0,23.0,126.70897674560547,43.823238372802734,-16.9677734375,-0.4852294921875,0.1279296875,-0.053466796875
0.836,281,694,497,414,10.0,24.0,23.0,129.150390625,42.114253997802734,-5.187987804412842,-0.4852294921875,0.1279296875,-0.053466796875
0.850,280,660,481,405,10.0,24.0,23.0,107.60497283935547,46.203609466552734,10.192870140075684,-0.538330078125,0.332763671875,-0.0224609375
0.858,280,666,493,423,10.0,24.0,23.0,107.60497283935547,46.203609466552734,10.192870140075684,-0.60009765625,0.1832275390625,-0.072509765625
0.866,280,673,490,426,10.0,24.0,23.0,98.63280487060547,52.856441497802734,4.82177734375,-0.60009765625,0.1832275390625,-0.072509765625
0.880,282,678,484,418,10.0,24.0,23.0,109.31395721435547,55.725093841552734,-17.7001953125,-0.7850341796875,0.130126953125,0.0098876953125
0.888,279,673,497,455,10.0,24.0,23.0,109.31395721435547,55.725093841552734,-17.7001953125,-0.8099365234375,0.0950927734375,0.1976318359375
0.896,279,691,500,441,7.0,28.0,22.0,111.02294158935547,39.36767578125,-19.287109375,-0.8099365234375,0.0950927734375,0.1976318359375
0.905,277,682,498,456,7.0,28.0,22.0,115.78368377685547,24.719236373901367,-15.319823265075684,-0.808349609375,0.09423828125,0.2479248046875
0.934,279,693,484,434,7.0,28.0,22.0,115.84471893310547,15.380858421325684,-12.695311546325684,-0.85302734375,0.3701171875,0.1854248046875
0.936,277,698,496,462,7.0,28.0,22.0,98.44969940185547,5.859374523162842,-14.282225608825684,-0.85302734375,0.3701171875,0.1854248046875
0.937,279,707,494,457,7.0,28.0,22.0,68.9697265625,-4.150390625,-16.357421875,-0.89111328125,0.5423583984375,0.221435546875
0.949,279,711,482,433,7.0,28.0,22.0,44.677730560302734,-9.33837890625,-14.465331077575684,-0.8759765625,0.7113037109375,0.16455078125
0.957,279,728,506,442,7.0,28.0,22.0,30.212400436401367,-8.7890625,-8.85009765625,-0.8759765625,0.7113037109375,0.16455078125
0.965,278,731,497,445,7.0,28.0,22.0,13.732909202575684,-7.934569835662842,-2.990722417831421,-0.8416748046875,0.6533203125,0.0836181640625
0.979,278,745,462,441,7.0,28.0,22.0,-12.084959983825684,-10.620116233825684,1.15966796875,-0.7978515625,0.2646484375,0.0396728515625
0.987,275,803,478,484,7.0,28.0,22.0,-39.0625,-14.526366233825684,4.2724609375,-0.7978515625,0.2646484375,0.0396728515625
0.995,276,894,464,493,9.0,26.0,19.0,-55.847164154052734,-16.845703125,7.080077648162842,-0.7694091796875,0.0599365234375,-0.002197265625
1.041,277,1081,431,508,9.0,26.0,19.0,-56.091304779052734,-15.624999046325684,8.36181640625,-0.837158203125,-0.16650390625,-0.3160400390625
1.041,266,1195,411,485,9.0,26.0,19.0,-37.2314453125,-9.21630859375,7.263183116912842,-0.837158203125,-0.16650390625,-0.3160400390625
1.041,277,1276,414,584,9.0,26.0,19.0,-9.6435546875,-4.0283203125,7.690429210662842,-0.9146728515625,-0.0311279296875,-0.33544921875
1.042,279,1393,430,513,9.0,26.0,19.0,6.835937023162842,-7.141112804412842,13.244627952575684,-0.921630859375,0.162109375,-0.2069091796875
1.047,280,1490,455,553,9.0,26.0,19.0,4.7607421875,-14.038084983825684,19.95849609375,-0.8905029296875,0.30078125,-0.0892333984375
1.055,282,1523,454,551,9.0,26.0,19.0,-7.995604991912842,-19.775390625,22.521970748901367,-0.840576171875,0.389892578125,-0.015869140625
1.069,280,1616,416,499,9.0,26.0,19.0,-24.108884811401367,-24.414060592651367,18.85986328125,-0.777099609375,0.41845703125,0.022216796875
1.077,280,1655,447,574,9.0,26.0,19.0,-42.114253997802734,-29.907224655151367,9.6435546875,-0.7305908203125,0.3380126953125,0.0247802734375
1.085,281,1732,458,576,9.0,26.0,19.0,-62.622066497802734,-39.1845703125,-0.7324218153953552,-0.73193359375,0.1966552734375,-0.011962890625
1.101,280,1824,405,639,9.0,25.0,22.0,-85.51024627685547,-52.551265716552734,-5.065917491912842,-0.7474365234375,0.1041259765625,-0.08056640625
1.107,291,2030,532,723,9.0,25.0,22.0,-109.74120330810547,-65.73486328125,0.6103515625,-0.6724853515625,0.123291015625,-0.163330078125
1.135,292,2160,598,707,9.0,25.0,22.0,-133.85009765625,-72.81494140625,10.314940452575684,-0.424560546875,0.178955078125,-0.2330322265625
1.136,299,2757,779,553,9.0,25.0,22.0,-153.3203125,-69.51904296875,14.160155296325684,-0.113525390625,0.14892578125,-0.26904296875
1.137,302,2930,913,539,9.0,25.0,22.0,-154.78515625,-56.152339935302734,9.21630859375,0.0316162109375,0.0775146484375,-0.2398681640625
1.145,304,2912,992,607,9.0,25.0,22.0,-128.7841796875,-40.893550872802734,0.54931640625,-0.211181640625,0.197021484375,-0.041015625
1.159,306,3055,1136,603,9.0,25.0,22.0,-95.88622283935547,-39.306640625,-7.873534679412842,-0.7432861328125,0.462646484375,0.400390625
1.167,310,3147,1303,625,9.0,25.0,22.0,-92.46825408935547,-57.800289154052734,-16.4794921875,-1.09326171875,0.56591796875,0.830810546875
1.175,308,3147,1365,654,9.0,25.0,22.0,-117.18749237060547,-77.94189453125,-25.817869186401367,-1.167236328125,0.3433837890625,0.897216796875
1.189,315,3147,1241,759,17.0,22.0,16.0,-124.26757049560547,-71.47216796875,-33.0810546875,-1.51904296875,0.306396484375,0.6595458984375
1.197,309,3147,1550,816,17.0,22.0,16.0,-101.80663299560547,-46.997066497802734,-35.94970703125,-2.0731201171875,0.324462890625,0.5556640625
1.206,310,3147,1516,861,17.0,22.0,16.0,-79.7119140625,-28.503416061401367,-37.65869140625,-2.42578125,0.082275390625,0.552001953125
1.241,310,3147,1345,799,17.0,22.0,16.0,-61.828609466552734,-20.812986373901367,-36.19384765625,-2.5380859375,-0.077392578125,0.411376953125
1.241,308,3147,1262,725,17.0,22.0,16.0,-37.29248046875,-19.04296875,-28.747556686401367,-2.1260986328125,-0.377197265625,0.319580078125
1.241,306,3147,1357,733,17.0,22.0,16.0,1.7089842557907104,-11.718749046325684,-19.53125,-1.35205078125,-0.6358642578125,0.4349365234375
1.249,308,3147,1306,724,17.0,22.0,16.0,51.574703216552734,0.0,-10.009765625,-1.0279541015625,-0.2158203125,0.6678466796875
1.257,308,3147,1323,730,17.0,22.0,16.0,78.9794921875,7.934569835662842,0.30517578125,-1.4151611328125,0.6099853515625,0.7000732421875
1.265,306,3147,1306,695,17.0,22.0,16.0,57.922359466552734,16.29638671875,7.751464366912842,-1.870361328125,0.9033203125,0.537353515625
1.279,305,3140,1112,601,17.0,22.0,16.0,18.12744140625,26.672361373901367,9.33837890625,-1.9324951171875,0.58837890625,0.453857421875
1.287,304,3147,1167,545,16.0,25.0,22.0,0.8544921278953552,30.090330123901367,8.97216796875,-1.7191162109375,0.280517578125,0.4615478515625
1.295,302,3070,1093,531,16.0,25.0,22.0,7.934569835662842,25.817869186401367,10.314940452575684,-1.4554443359375,0.23486328125,0.4202880859375
1.309,299,2847,939,444,16.0,25.0,22.0,21.545408248901367,21.301267623901367,11.657713890075684,-1.22802734375,0.2821044921875,0.2923583984375
1.332,299,2519,813,607,16.0,25.0,22.0,32.16552734375,21.667478561401367,9.94873046875,-1.0269775390625,0.27685546875,0.16552734375
1.332,276,2388,668,642,16.0,25.0,22.0,39.55078125,26.123044967651367,5.249022960662842,-0.84912109375,0.1761474609375,0.1239013671875
1.342,292,2106,645,535,16.0,25.0,22.0,43.151851654052734,31.188962936401367,-0.30517578125,-0.6904296875,-0.0555419921875,0.1658935546875
1.347,290,1892,558,705,16.0,25.0,22.0,46.264644622802734,32.71484375,-5.065917491912842,-0.5584716796875,-0.2918701171875,0.204345703125
1.355,286,1662,495,757,16.0,25.0,22.0,54.016109466552734,30.029294967651367,-7.934569835662842,-0.4727783203125,-0.3792724609375,0.1488037109375
1.369,282,1543,473,614,16.0,25.0,22.0,64.94140625,26.550291061401367,-7.568358898162842,-0.42138671875,-0.3358154296875,0.0233154296875
1.380,279,1447,487,631,16.0,25.0,22.0,73.66943359375,24.475095748901367,-3.662109136581421,-0.3895263671875,-0.1995849609375,-0.052978515625
1.385,279,1382,479,625,12.0,25.0,26.0,74.951171875,23.132322311401367,2.807616949081421,-0.35791015625,-0.0107421875,-0.0509033203125
1.399,275,1217,433,593,12.0,25.0,26.0,67.19970703125,23.803709030151367,9.82666015625,-0.35107421875,0.160400390625,-0.0289306640625
1.408,275,1157,456,628,12.0,25.0,26.0,55.603023529052734,27.160642623901367,15.502928733825684,-0.41455078125,0.299072265625,0.0223388671875
1.415,274,1132,462,631,12.0,25.0,26.0,43.334957122802734,28.015134811401367,19.95849609375,-0.5198974609375,0.4036865234375,0.1146240234375
1.435,274,1065,430,625,12.0,25.0,26.0,30.151365280151367,23.925779342651367,23.864744186401367,-0.60595703125,0.43603515625,0.1973876953125
1.437,265,1191,415,661,12.0,25.0,26.0,17.7001953125,18.310546875,26.000974655151367,-0.6578369140625,0.3970947265625,0.2291259765625
1.450,274,1137,458,678,12.0,25.0,26.0,9.21630859375,13.366698265075684,24.719236373901367,-0.706298828125,0.3367919921875,0.2113037109375
1.459,272,1173,430,658,12.0,25.0,26.0,6.469726085662842,8.72802734375,19.53125,-0.752685546875,0.2958984375,0.179931640625
1.467,268,1214,454,679,12.0,25.0,26.0,7.995604991912842,5.065917491912842,12.512206077575684,-0.783447265625,0.2747802734375,0.1551513671875
1.475,274,1280,462,673,12.0,25.0,26.0,10.009765625,3.540038824081421,6.530761241912842,-0.81201171875,0.26708984375,0.135498046875
1.491,275,1289,406,697,11.0,25.0,27.0,11.474608421325684,2.990722417831421,2.50244140625,-0.846435546875,0.271240234375,0.1326904296875
1.497,272,1317,421,744,11.0,25.0,27.0,13.061522483825684,1.8310545682907104,-0.2441406100988388,-0.8790283203125,0.273681640625,0.1495361328125
1.506,274,1352,433,755,11.0,25.0,27.0,13.061522483825684,1.8310545682907104,-0.2441406100988388,-0.90087890625,0.262451171875,0.16552734375
1.519,275,1393,403,724,11.0,25.0,27.0,15.258788108825684,-4.21142578125,-4.69970703125,-0.9080810546875,0.2432861328125,0.1666259765625
1.538,275,1428,438,767,11.0,25.0,27.0,13.366698265075684,-9.033203125,-6.347655773162842,-0.9095458984375,0.2242431640625,0.155029296875
1.538,277,1467,430,787,11.0,25.0,27.0,13.366698265075684,-9.033203125,-6.347655773162842,-0.9144287109375,0.2059326171875,0.1339111328125
1.557,274,1545,405,739,11.0,25.0,27.0,5.432128429412842,-15.991209983825684,-8.30078125,-0.927978515625,0.186279296875,0.0999755859375
1.558,278,1561,352,813,11.0,25.0,27.0,1.2817381620407104,-17.08984375,-8.23974609375,-0.9432373046875,0.1646728515625,0.052001953125
1.565,279,1584,442,827,11.0,25.0,27.0,1.2817381620407104,-17.08984375,-8.23974609375,-0.9361572265625,0.1448974609375,-0.0009765625
1.590,282,1689,454,800,11.0,25.0,27.0,-11.352538108825684,-22.644041061401367,-5.065917491912842,-0.885986328125,0.140625,-0.0518798828125
1.591,292,1850,546,806,12.0,26.0,22.0,-18.73779296875,-28.137205123901367,-3.967284917831421,-0.7725830078125,0.15380859375,-0.0772705078125
1.595,294,1931,614,767,12.0,26.0,22.0,-18.73779296875,-28.137205123901367,-3.967284917831421,-0.59326171875,0.1429443359375,-0.08447265625
1.609,299,2087,623,784,12.0,26.0,22.0,-36.0107421875,-34.5458984375,-5.249022960662842,-0.372802734375,0.0751953125,-0.131103515625
1.617,304,2119,694,931,12.0,26.0,22.0,-42.358394622802734,-33.26416015625,-6.774901866912842,-0.1602783203125,0.004638671875,-0.21630859375
1.639,306,2407,871,708,12.0,26.0,22.0,-42.358394622802734,-33.26416015625,-6.774901866912842,-0.0101318359375,0.0069580078125,-0.287841796875
1.640,307,3017,1201,468,12.0,26.0,22.0,-39.55078125,-36.43798828125,-10.681151390075684,-0.07080078125,0.12548828125,-0.2283935546875
1.647,306,3137,1294,551,12.0,26.0,22.0,-40.710445404052734,-44.799800872802734,-13.610838890075684,-0.380615234375,0.249267578125,0.11767578125
1.662,308,3147,1469,543,12.0,26.0,22.0,-40.710445404052734,-44.799800872802734,-13.610838890075684,-0.679931640625,0.159912109375,0.6317138671875
1.669,313,3147,1398,666,12.0,26.0,22.0,-80.81053924560547,-65.185546875,-16.11328125,-0.802490234375,-0.1552734375,0.950927734375
1.677,308,3147,1555,725,12.0,26.0,22.0,-84.22850799560547,-57.434078216552734,-6.469726085662842,-1.099365234375,-0.0650634765625,0.8988037109375
1.685,310,3147,1610,784,14.0,19.0,20.0,-84.22850799560547,-57.434078216552734,-6.469726085662842,-1.73876953125,0.609619140625,0.6380615234375
1.699,313,3147,1800,871,14.0,19.0,20.0,-60.119625091552734,-41.931148529052734,9.58251953125,-2.3341064453125,1.0618896484375,0.40576171875
1.707,313,3147,1908,872,14.0,19.0,20.0,-76.11083984375,-37.9638671875,-1.2817381620407104,-2.5994873046875,0.8848876953125,0.372314453125
1.718,315,3147,1769,939,14.0,19.0,20.0,-76.11083984375,-37.9638671875,-1.2817381620407104,-2.5994873046875,0.8848876953125,0.372314453125
1.729,315,3147,1697,818,14.0,19.0,20.0,-78.9794921875,-17.4560546875,-17.76123046875,-1.8740234375,-0.36572265625,0.5355224609375
1.741,315,3147,1785,801,14.0,19.0,20.0,-78.9794921875,-17.4560546875,-17.76123046875,-1.0859375,-0.659423828125,0.6124267578125
1.745,310,3147,1678,830,14.0,19.0,20.0,-36.92626953125,-1.220703125,-18.49365234375,-1.0859375,-0.659423828125,0.6124267578125
1.761,316,3147,1480,855,14.0,19.0,20.0,44.860836029052734,12.512206077575684,-14.526366233825684,-1.3916015625,0.6180419921875,0.525390625
1.771,316,3147,1616,842,14.0,19.0,20.0,44.860836029052734,12.512206077575684,-14.526366233825684,-1.7904052734375,0.7061767578125,0.45556640625
1.775,316,3147,1518,895,14.0,19.0,20.0,24.902341842651367,19.71435546875,-14.587401390075684,-1.7904052734375,0.7061767578125,0.45556640625
1.792,313,3147,1649,684,15.0,21.0,16.0,-20.385740280151367,30.456541061401367,-14.770506858825684,-1.5091552734375,0.0755615234375,0.6497802734375
1.798,310,3147,1600,702,15.0,21.0,16.0,-20.385740280151367,30.456541061401367,-14.770506858825684,-1.30859375,-0.044189453125,0.6251220703125
1.805,309,3147,1629,521,15.0,21.0,16.0,-10.986327171325684,30.273435592651367,-7.812499523162842,-1.30859375,-0.044189453125,0.6251220703125
1.819,308,3147,1374,431,15.0,21.0,16.0,18.5546875,36.4990234375,8.72802734375,-1.2440185546875,0.135986328125,0.33154296875
1.847,307,2968,1323,552,15.0,21.0,16.0,18.5546875,36.4990234375,8.72802734375,-1.208251953125,0.1947021484375,0.164794921875
1.848,280,2777,894,710,15.0,21.0,16.0,26.367185592651367,37.841796875,10.437010765075684,-1.208251953125,0.1947021484375,0.164794921875
1.849,290,2604,990,653,15.0,21.0,16.0,39.24560546875,27.648923873901367,4.33349609375,-0.9635009765625,0.171630859375,-0.00732421875
1.857,302,2230,872,793,15.0,21.0,16.0,39.24560546875,27.648923873901367,4.33349609375,-0.7498779296875,0.0322265625,0.040771484375
1.865,299,2260,902,601,15.0,21.0,16.0,44.311519622802734,20.874021530151367,-0.8544921278953552,-0.7498779296875,0.0322265625,0.040771484375
1.879,302,1846,788,473,14.0,19.0,20.0,59.204097747802734,24.841306686401367,-12.451170921325684,-0.466064453125,-0.2100830078125,0.1552734375
1.887,294,1603,728,568,14.0,19.0,20.0,59.204097747802734,24.841306686401367,-12.451170921325684,-0.4656982421875,-0.2435302734375,0.22314453125
1.895,294,1348,684,551,14.0,19.0,20.0,65.73486328125,33.50830078125,-13.549803733825684,-0.4656982421875,-0.2435302734375,0.22314453125
1.909,291,1034,619,478,14.0,19.0,20.0,60.241695404052734,45.410152435302734,-3.173827886581421,-0.4073486328125,-0.09033203125,0.232177734375
1.920,289,902,593,481,14.0,19.0,20.0,60.241695404052734,45.410152435302734,-3.173827886581421,-0.400634765625,0.039794921875,0.1732177734375
1.925,280,767,579,469,14.0,19.0,20.0,54.931636810302734,44.982906341552734,6.347655773162842,-0.400634765625,0.039794921875,0.1732177734375
1.948,279,689,526,439,14.0,19.0,20.0,52.612300872802734,42.236324310302734,16.6015625,-0.455078125,0.151123046875,0.060302734375
1.949,279,689,537,462,14.0,19.0,20.0,54.138179779052734,38.4521484375,25.695798873901367,-0.455078125,0.151123046875,0.060302734375
1.955,282,739,539,445,14.0,19.0,20.0,58.471675872802734,34.60693359375,29.846189498901367,-0.511962890625,0.182373046875,0.06005859375
1.969,280,777,526,440,14.0,19.0,20.0,62.255855560302734,31.494138717651367,25.756834030151367,-0.6673583984375,0.316162109375,0.1217041015625
1.983,279,860,533,499,9.0,22.0,27.0,60.302730560302734,26.794431686401367,16.357421875,-0.6673583984375,0.316162109375,0.1217041015625
1.985,281,951,539,507,9.0,22.0,27.0,49.621578216552734,18.37158203125,9.765625,-0.67724609375,0.3841552734375,0.129150390625
2.000,280,1101,514,497,9.0,22.0,27.0,36.19384765625,10.620116233825684,9.09423828125,-0.7705078125,0.3739013671875,0.042724609375
2.007,280,1173,532,543,9.0,22.0,27.0,28.808591842651367,7.202147960662842,10.559081077575684,-0.7705078125,0.3739013671875,0.042724609375
2.015,280,1236,536,551,9.0,22.0,27.0,26.733396530151367,4.7607421875,11.169432640075684,-0.8172607421875,0.35205078125,0.098876953125
2.030,280,1355,501,563,9.0,22.0,27.0,23.742673873901367,1.8310545682907104,10.681151390075684,-0.9404296875,0.3006591796875,0.1446533203125
2.056,282,1365,533,576,9.0,22.0,27.0,20.080564498901367,-0.4272460639476776,8.36181640625,-0.9404296875,0.3006591796875,0.1446533203125
2.057,281,1401,533,461,9.0,22.0,27.0,17.4560546875,-2.746581792831421,4.2724609375,-0.9808349609375,0.2681884765625,0.138916015625
2.059,282,1483,506,551,9.0,22.0,27.0,14.343260765075684,-6.286620616912842,0.3662109076976776,-0.968994140625,0.2344970703125,0.1319580078125
2.068,280,1506,536,614,9.0,22.0,27.0,8.48388671875,-11.535643577575684,-1.4648436307907104,-0.968994140625,0.2344970703125,0.1319580078125
2.076,283,1549,537,619,10.0,24.0,22.0,1.4038084745407104,-16.4794921875,-1.8310545682907104,-0.953857421875,0.2003173828125,0.1297607421875
2.089,282,1615,513,586,10.0,24.0,22.0,-3.723144292831421,-18.98193359375,-2.563476324081421,-0.965576171875,0.1593017578125,0.095703125
2.097,286,1662,553,644,10.0,24.0,22.0,-6.896972179412842,-19.775390625,-3.662109136581421,-0.965576171875,0.1593017578125,0.095703125
2.105,282,1604,527,723,10.0,24.0,22.0,-9.8876953125,-20.568845748901367,-4.0283203125,-0.9747314453125,0.1558837890625,0.08642578125
2.119,286,1715,495,673,10.0,24.0,22.0,-13.610838890075684,-21.850584030151367,-3.051757574081421,-0.9256591796875,0.162353515625,0.0765380859375
2.127,292,1834,578,667,10.0,24.0,22.0,-18.49365234375,-23.437498092651367,-0.9765624403953552,-0.9256591796875,0.162353515625,0.0765380859375
2.151,292,1880,631,666,10.0,24.0,22.0,-24.780271530151367,-25.329587936401367,1.0986328125,-0.873046875,0.1466064453125,0.0347900390625
2.152,294,2078,728,632,10.0,24.0,22.0,-31.982419967651367,-28.198240280151367,2.563476324081421,-0.6661376953125,0.109375,-0.0341796875
2.157,296,2085,725,679,10.0,24.0,22.0,-38.75732421875,-32.04345703125,2.990722417831421,-0.6661376953125,0.109375,-0.0341796875
2.166,299,2186,800,628,10.0,24.0,22.0,-42.663570404052734,-34.66796875,1.7700194120407104,-0.53662109375,0.106201171875,-0.07421875
2.179,304,2407,891,564,12.0,25.0,19.0,-43.273921966552734,-35.0341796875,-1.7700194120407104,-0.4385986328125,0.1514892578125,-0.1378173828125
2.194,304,2692,1031,695,12.0,25.0,19.0,-44.128414154052734,-34.912109375,-7.080077648162842,-0.3543701171875,0.1949462890625,-0.179931640625
2.195,308,2997,1306,439,12.0,25.0,19.0,-49.316402435302734,-34.66796875,-11.291502952575684,-0.3375244140625,0.228271484375,-0.1358642578125
2.209,310,3144,1467,586,12.0,25.0,19.0,-57.006832122802734,-35.82763671875,-13.244627952575684,-0.4996337890625,0.274658203125,0.09912109375
2.217,315,3018,1411,673,12.0,25.0,19.0,-68.90869140625,-43.884273529052734,-15.930174827575684,-0.7166748046875,0.1917724609375,0.4810791015625
2.251,315,2965,1331,883,12.0,25.0,19.0,-83.25194549560547,-54.260250091552734,-18.49365234375,-0.7884521484375,-0.071044921875,0.7510986328125
2.256,317,3147,1411,766,12.0,25.0,19.0,-80.93260955810547,-54.748531341552734,-17.7001953125,-0.8446044921875,-0.231689453125,0.7554931640625
2.261,327,3110,1610,824,12.0,25.0,19.0,-52.185054779052734,-44.555660247802734,-13.977049827575684,-1.107421875,0.0447998046875,0.5928955078125
2.261,315,3147,1477,978,12.0,25.0,19.0,-23.376462936401367,-34.60693359375,-10.498045921325684,-1.4990234375,0.4862060546875,0.4140625
2.280,321,3147,1848,883,14.0,21.0,19.0,-21.179197311401367,-29.541013717651367,-12.512206077575684,-1.8514404296875,0.698486328125,0.2379150390625
2.284,315,3147,2039,913,14.0,21.0,19.0,-38.4521484375,-28.381345748901367,-20.141599655151367,-2.045654296875,0.6314697265625,0.1893310546875
2.285,318,3147,1861,955,14.0,21.0,19.0,-55.053707122802734,-29.846189498901367,-26.733396530151367,-2.051513671875,0.3402099609375,0.3731689453125
2.301,316,3147,1755,871,14.0,21.0,19.0,-58.837886810302734,-27.343748092651367,-26.062009811401367,-1.86767578125,-0.079833984375,0.5965576171875
2.307,318,3147,1739,820,14.0,21.0,19.0,-44.799800872802734,-16.4794921875,-18.5546875,-1.3958740234375,-0.4976806640625,0.7030029296875
2.315,318,3147,1678,840,14.0,21.0,19.0,-10.925292015075684,-0.9155272841453552,-8.11767578125,-0.894775390625,-0.5252685546875,0.7171630859375
2.329,318,3147,1615,814,14.0,21.0,19.0,24.414060592651367,12.756346702575684,3.601073980331421,-0.8878173828125,-0.0477294921875,0.6444091796875
2.337,328,3065,1464,980,14.0,21.0,19.0,33.14208984375,21.728513717651367,14.343260765075684,-1.4088134765625,0.4847412109375,0.4801025390625
2.356,330,2965,1379,1074,14.0,21.0,19.0,12.939452171325684,26.550291061401367,20.01953125,-1.9202880859375,0.616455078125,0.3670654296875
2.359,328,2936,1239,897,14.0,21.0,19.0,-10.986327171325684,27.526853561401367,20.202634811401367,-2.0399169921875,0.399169921875,0.43212890625
2.367,322,2832,1260,1010,16.0,19.0,23.0,-15.747069358825684,25.024412155151367,19.34814453125,-1.8642578125,0.1654052734375,0.5714111328125
2.375,318,2760,1217,946,16.0,19.0,23.0,-2.0751953125,23.376462936401367,19.95849609375,-1.6068115234375,0.1109619140625,0.6474609375
2.391,314,2612,990,728,16.0,19.0,23.0,18.310546875,25.573728561401367,21.362302780151367,-1.3773193359375,0.2237548828125,0.620849609375
2.397,306,2464,968,883,16.0,19.0,23.0,34.5458984375,31.127927780151367,21.240232467651367,-1.1854248046875,0.3123779296875,0.5020751953125
2.408,304,2517,991,706,16.0,19.0,23.0,44.616695404052734,37.7197265625,17.27294921875,-1.012939453125,0.2801513671875,0.321533203125
2.420,301,2180,761,590,16.0,19.0,23.0,51.452632904052734,41.442867279052734,9.58251953125,-0.838623046875,0.17626953125,0.1455078125
2.427,299,2190,869,562,16.0,19.0,23.0,54.809566497802734,40.222164154052734,-0.30517578125,-0.64404296875,-0.002685546875,0.0340576171875
2.435,299,2071,829,654,16.0,19.0,23.0,56.823726654052734,36.80419921875,-10.681151390075684,-0.471435546875,-0.19873046875,-0.0364990234375
2.458,294,1624,703,509,16.0,19.0,23.0,59.814449310302734,35.400390625,-18.24951171875,-0.386962890625,-0.3006591796875,-0.072509765625
2.459,292,1427,683,532,16.0,19.0,23.0,61.096187591552734,34.912109375,-19.53125,-0.3460693359375,-0.313720703125,-0.0697021484375
2.465,293,1331,694,466,12.0,23.0,22.0,59.020992279052734,35.0341796875,-14.160155296325684,-0.3131103515625,-0.2633056640625,-0.07421875
2.479,287,1054,614,466,12.0,23.0,22.0,57.617183685302734,36.1328125,-5.187987804412842,-0.3336181640625,-0.114013671875,-0.084228515625
2.487,291,949,633,461,12.0,23.0,22.0,56.762691497802734,34.48486328125,5.249022960662842,-0.411376953125,0.1170654296875,-0.048583984375
2.496,290,853,605,468,12.0,23.0,22.0,49.987789154052734,27.954099655151367,17.76123046875,-0.484130859375,0.2974853515625,0.0657958984375
2.515,280,749,549,475,12.0,23.0,22.0,37.41455078125,19.775390625,29.479978561401367,-0.5225830078125,0.331787109375,0.18994140625
2.517,279,793,533,518,12.0,23.0,22.0,28.930662155151367,15.319823265075684,34.11865234375,-0.574462890625,0.2796630859375,0.2374267578125
2.525,279,803,548,526,12.0,23.0,22.0,32.65380859375,16.17431640625,27.893064498901367,-0.6678466796875,0.2724609375,0.228515625
2.539,280,933,559,481,12.0,23.0,22.0,42.114253997802734,17.27294921875,15.319823265075684,-0.7618408203125,0.3675537109375,0.2286376953125
2.560,289,947,577,526,12.0,23.0,22.0,43.518062591552734,13.854979515075684,5.798339366912842,-0.8135986328125,0.453369140625,0.2296142578125
2.561,280,1064,543,533,12.0,23.0,22.0,34.60693359375,8.97216796875,1.9531248807907104,-0.8250732421875,0.4317626953125,0.1932373046875
2.569,289,1131,572,555,11.0,23.0,25.0,24.230955123901367,7.080077648162842,0.7934569716453552,-0.8193359375,0.3468017578125,0.150146484375
2.577,282,1189,572,552,11.0,23.0,25.0,19.71435546875,7.507323741912842,0.1831054538488388,-0.832275390625,0.2679443359375,0.1318359375
2.585,282,1233,567,577,11.0,23.0,25.0,21.728513717651367,7.263183116912842,-1.220703125,-0.8681640625,0.2213134765625,0.125244140625
2.599,282,1303,532,549,11.0,23.0,25.0,25.939939498901367,4.5166015625,-3.295898199081421,-0.9041748046875,0.2012939453125,0.1103515625
2.607,282,1355,567,586,11.0,23.0,25.0,27.648923873901367,-0.3662109076976776,-4.638671875,-0.9241943359375,0.2088623046875,0.104248046875
2.625,286,1383,569,582,11.0,23.0,25.0,24.414060592651367,-6.225585460662842,-4.21142578125,-0.92529296875,0.228515625,0.112060546875
2.629,289,1456,567,583,11.0,23.0,25.0,17.02880859375,-11.108397483825684,-2.807616949081421,-0.921875,0.2386474609375,0.1065673828125
2.638,286,1477,576,607,11.0,23.0,25.0,8.36181640625,-14.099120140075684,-1.4648436307907104,-0.924560546875,0.2266845703125,0.0831298828125
2.645,291,1523,588,620,11.0,23.0,25.0,8.36181640625,-14.099120140075684,-1.4648436307907104,-0.9346923828125,0.204345703125,0.0634765625
2.665,291,1600,559,591,12.0,24.0,26.0,-7.446288585662842,-19.22607421875,-1.6479490995407104,-0.933349609375,0.179443359375,0.056884765625
2.667,291,1681,605,639,12.0,24.0,26.0,-15.136717796325684,-23.498533248901367,-3.112792730331421,-0.8973388671875,0.1436767578125,0.050537109375
2.675,290,1723,630,665,12.0,24.0,26.0,-15.136717796325684,-23.498533248901367,-3.112792730331421,-0.81103515625,0.1312255859375,0.026611328125
2.689,299,1759,601,737,12.0,24.0,26.0,-28.869626998901367,-32.89794921875,-7.324218273162842,-0.6749267578125,0.144287109375,-0.01416015625
2.698,300,1882,720,750,12.0,24.0,26.0,-38.87939453125,-36.43798828125,-9.46044921875,-0.5093994140625,0.1317138671875,-0.075439453125
2.705,300,2143,853,667,12.0,24.0,26.0,-38.87939453125,-36.43798828125,-9.46044921875,-0.3245849609375,0.0775146484375,-0.1754150390625
2.719,306,2263,913,656,12.0,24.0,26.0,-62.072750091552734,-35.21728515625,-7.263183116912842,-0.1612548828125,0.01904296875,-0.3006591796875
2.729,316,2419,1122,673,12.0,24.0,26.0,-65.73486328125,-32.3486328125,-4.7607421875,-0.0845947265625,0.0277099609375,-0.3773193359375
2.735,310,2984,1372,535,12.0,24.0,26.0,-65.73486328125,-32.3486328125,-4.7607421875,-0.1812744140625,0.143310546875,-0.2420654296875
2.765,315,3114,1516,527,12.0,24.0,26.0,-59.326168060302734,-43.640132904052734,-13.000487327575684,-0.4176025390625,0.251953125,0.222900390625
2.765,313,3147,1656,593,12.0,23.0,22.0,-72.44873046875,-58.593746185302734,-21.240232467651367,-0.6002197265625,0.1817626953125,0.822998046875
2.766,321,3077,1557,788,12.0,23.0,22.0,-72.44873046875,-58.593746185302734,-21.240232467651367,-0.690185546875,-0.0679931640625,1.15869140625
2.779,327,3147,1643,841,12.0,23.0,22.0,-93.56688690185547,-49.743648529052734,-12.329100608825684,-1.0008544921875,-0.0867919921875,1.0255126953125
2.787,338,2962,1478,1146,12.0,23.0,22.0,-70.73974609375,-30.029294967651367,-0.3662109076976776,-1.6370849609375,0.3536376953125,0.6439208984375
2.795,318,3147,1852,910,12.0,23.0,22.0,-70.73974609375,-30.029294967651367,-0.3662109076976776,-2.1640625,0.57958984375,0.40185546875
2.810,321,3147,1809,986,12.0,23.0,22.0,-60.241695404052734,-21.057126998901367,2.990722417831421,-2.5504150390625,0.4019775390625,0.3990478515625
2.820,321,3147,1834,938,12.0,23.0,22.0,-57.250972747802734,-16.11328125,3.417968511581421,-2.7388916015625,0.2210693359375,0.474609375
2.825,318,3147,1727,885,12.0,23.0,22.0,-57.250972747802734,-16.11328125,3.417968511581421,-2.1846923828125,-0.1295166015625,0.4627685546875
2.844,316,3147,1615,814,12.0,23.0,22.0,-14.099120140075684,3.906249761581421,5.798339366912842,-1.220458984375,-0.37841796875,0.465087890625
2.847,318,3118,1535,867,12.0,23.0,22.0,-14.099120140075684,3.906249761581421,5.798339366912842,-0.81884765625,-0.05126953125,0.550048828125
2.870,315,3147,1759,806,13.0,20.0,22.0,31.616209030151367,11.535643577575684,5.249022960662842,-0.81884765625,-0.05126953125,0.550048828125
2.871,316,3147,1627,784,13.0,20.0,22.0,42.175289154052734,14.526366233825684,4.39453125,-1.6885986328125,0.675537109375,0.438232421875
2.877,316,3140,1550,778,13.0,20.0,22.0,42.175289154052734,14.526366233825684,4.39453125,-1.9102783203125,0.6041259765625,0.4027099609375
2.885,321,3095,1494,894,13.0,20.0,22.0,11.779784202575684,23.315427780151367,0.54931640625,-1.9102783203125,0.6041259765625,0.4027099609375
2.899,338,2710,1129,992,13.0,20.0,22.0,-14.648436546325684,21.972654342651367,-6.164550304412842,-1.611083984375,0.2366943359375,0.434326171875
2.907,347,2519,1178,971,13.0,20.0,22.0,-14.648436546325684,21.972654342651367,-6.164550304412842,-1.4093017578125,0.1220703125,0.4515380859375
2.915,322,2884,1365,799,13.0,20.0,22.0,-6.896972179412842,20.629880905151367,-6.164550304412842,-1.4093017578125,0.1220703125,0.4515380859375
2.929,342,2416,917,938,13.0,20.0,22.0,13.183592796325684,27.343748092651367,-0.6713866591453552,-1.062255859375,0.1182861328125,0.4173583984375
2.941,308,2561,1054,784,13.0,20.0,22.0,13.183592796325684,27.343748092651367,-0.6713866591453552,-0.9158935546875,0.0684814453125,0.265380859375
2.945,306,2424,963,778,13.0,20.0,22.0,21.484373092651367,30.822751998901367,1.4648436307907104,-0.9158935546875,0.0684814453125,0.265380859375
2.973,306,2070,673,806,14.0,24.0,20.0,47.058101654052734,25.451658248901367,-1.03759765625,-0.628662109375,-0.0787353515625,0.111328125
2.973,293,2047,671,734,14.0,24.0,20.0,47.058101654052734,25.451658248901367,-1.03759765625,-0.5128173828125,-0.1409912109375,0.1201171875
2.975,306,1890,757,793,14.0,24.0,20.0,57.434078216552734,23.803709030151367,-6.286620616912842,-0.5128173828125,-0.1409912109375,0.1201171875
2.989,294,1709,683,585,14.0,24.0,20.0,62.866207122802734,35.94970703125,-11.108397483825684,-0.4874267578125,-0.17529296875,0.102783203125
2.998,291,1467,693,632,14.0,24.0,20.0,62.866207122802734,35.94970703125,-11.108397483825684,-0.4884033203125,-0.205078125,0.1280517578125
3.006,291,1372,644,630,14.0,24.0,20.0,57.067867279052734,39.61181640625,-6.591796398162842,-0.4884033203125,-0.205078125,0.1280517578125
3.019,286,1219,582,582,14.0,24.0,20.0,53.405757904052734,31.982419967651367,7.080077648162842,-0.4871826171875,-0.1304931640625,0.0706787109375
3.027,287,1104,607,584,14.0,24.0,20.0,53.405757904052734,31.982419967651367,7.080077648162842,-0.5633544921875,0.076904296875,0.040283203125
3.035,286,1004,603,546,14.0,24.0,20.0,63.842769622802734,28.442380905151367,11.840819358825684,-0.5633544921875,0.076904296875,0.040283203125
3.049,280,846,543,514,14.0,24.0,20.0,60.546871185302734,17.76123046875,21.484373092651367,-0.669921875,0.5284423828125,0.0869140625
3.075,278,775,571,532,13.0,21.0,25.0,60.546871185302734,17.76123046875,21.484373092651367,-0.6865234375,0.5972900390625,0.1162109375
3.075,280,792,555,531,13.0,21.0,25.0,39.85595703125,13.671874046325684,23.925779342651367,-0.6865234375,0.5972900390625,0.1162109375
3.079,279,846,543,519,13.0,21.0,25.0,17.39501953125,11.657713890075684,21.972654342651367,-0.7191162109375,0.353271484375,0.129638671875
3.088,279,874,564,555,13.0,21.0,25.0,3.234863042831421,11.108397483825684,15.624999046325684,-0.7191162109375,0.353271484375,0.129638671875
3.095,280,899,567,572,13.0,21.0,25.0,1.9531248807907104,10.192870140075684,7.080077648162842,-0.7510986328125,0.2001953125,0.1385498046875
3.109,286,1009,540,562,13.0,21.0,25.0,10.620116233825684,7.141112804412842,0.4882812201976776,-0.822021484375,0.2078857421875,0.1563720703125
3.117,280,1064,571,603,13.0,21.0,25.0,21.911619186401367,2.44140625,-3.051757574081421,-0.822021484375,0.2078857421875,0.1563720703125
3.125,280,1131,572,607,13.0,21.0,25.0,29.113767623901367,-1.6479490995407104,-5.371093273162842,-0.837890625,0.2333984375,0.11962890625
3.139,283,1233,539,579,13.0,21.0,25.0,28.747556686401367,-4.638671875,-6.713866710662842,-0.863037109375,0.1712646484375,0.052001953125
3.156,286,1306,578,630,13.0,21.0,25.0,21.667478561401367,-8.1787109375,-6.347655773162842,-0.863037109375,0.1712646484375,0.052001953125
3.156,290,1445,531,582,13.0,25.0,25.0,12.268065452575684,-12.634276390075684,-3.967284917831421,-0.8662109375,0.1326904296875,0.048095703125
3.179,289,1429,531,656,13.0,25.0,25.0,-0.4882812201976776,-21.667478561401367,4.82177734375,-0.839599609375,0.1695556640625,0.0848388671875
3.179,289,1516,566,736,13.0,25.0,25.0,-0.4882812201976776,-21.667478561401367,4.82177734375,-0.8079833984375,0.21337890625,0.104736328125
3.186,291,1557,574,767,13.0,25.0,25.0,-5.615233898162842,-26.000974655151367,7.568358898162842,-0.8079833984375,0.21337890625,0.104736328125
3.200,296,1703,566,744,13.0,25.0,25.0,-12.023924827575684,-29.846189498901367,7.080077648162842,-0.720458984375,0.2838134765625,0.045654296875
3.208,299,1810,656,820,13.0,25.0,25.0,-21.240232467651367,-32.958984375,4.0283203125,-0.720458984375,0.2838134765625,0.045654296875
3.216,308,1849,733,858,13.0,25.0,25.0,-33.14208984375,-34.7900390625,-0.4272460639476776,-0.621337890625,0.223388671875,-0.004638671875
3.230,313,2024,814,818,13.0,25.0,25.0,-45.532222747802734,-35.15625,-4.69970703125,-0.373291015625,0.002685546875,-0.1685791015625
3.238,326,2085,922,944,13.0,25.0,25.0,-55.236812591552734,-34.11865234375,-6.591796398162842,-0.373291015625,0.002685546875,-0.1685791015625
3.246,321,2287,1078,895,14.0,20.0,22.0,-58.410640716552734,-31.982419967651367,-6.164550304412842,-0.26416015625,-0.0362548828125,-0.2591552734375
3.278,316,3025,1390,698,14.0,20.0,22.0,-55.053707122802734,-30.700681686401367,-5.554198741912842,-0.3143310546875,0.162841796875,-0.140869140625
3.278,328,2810,1404,895,14.0,20.0,22.0,-51.879878997802734,-33.87451171875,-7.080077648162842,-0.3143310546875,0.162841796875,-0.140869140625
3.278,333,2828,1416,1014,14.0,20.0,22.0,-58.532711029052734,-44.677730560302734,-11.535643577575684,-0.5006103515625,0.208984375,0.2926025390625
3.293,337,2937,1370,927,14.0,20.0,22.0,-76.904296875,-56.945796966552734,-14.953612327575684,-0.712890625,-0.3043212890625,1.17919921875
3.298,347,2948,1497,1138,14.0,20.0,22.0,-87.64647674560547,-55.969234466552734,-12.084959983825684,-0.712890625,-0.3043212890625,1.17919921875
3.306,347,3039,1796,1063,14.0,20.0,22.0,-70.25146484375,-39.4287109375,-2.44140625,-1.1060791015625,-0.083251953125,1.133056640625
3.320,321,3147,2021,899,14.0,20.0,22.0,-42.846675872802734,-23.986814498901367,8.056640625,-2.1258544921875,0.714599609375,0.447509765625
3.329,346,3134,1722,1101,14.0,20.0,22.0,-33.99658203125,-15.502928733825684,9.70458984375,-2.1258544921875,0.714599609375,0.447509765625
3.336,369,2959,1564,1294,14.0,20.0,22.0,-34.60693359375,-9.27734375,3.234863042831421,-2.5780029296875,0.5809326171875,0.3157958984375
3.350,347,3113,1472,1039,14.0,23.0,25.0,-32.53173828125,-7.812499523162842,-1.7700194120407104,-2.047607421875,-0.119140625,0.35986328125
3.358,364,2888,1452,1217,14.0,23.0,25.0,-27.893064498901367,-1.6479490995407104,-2.685546636581421,-2.047607421875,-0.119140625,0.35986328125
3.384,354,3081,1584,1065,14.0,23.0,25.0,-5.126952648162842,12.023924827575684,-1.8310545682907104,-1.138427734375,-0.291259765625,0.435546875
3.384,333,2876,1590,1054,14.0,23.0,25.0,28.686521530151367,17.822265625,-0.8544921278953552,-1.2694091796875,0.5286865234375,0.4775390625
3.389,371,2824,1328,1313,14.0,23.0,25.0,36.9873046875,19.34814453125,-1.9531248807907104,-1.2694091796875,0.5286865234375,0.4775390625
3.397,371,2746,1316,1323,14.0,23.0,25.0,16.78466796875,27.160642623901367,-6.164550304412842,-1.6612548828125,0.6112060546875,0.431640625
3.410,348,2808,1213,1074,14.0,23.0,25.0,-7.019042491912842,32.77587890625,-10.620116233825684,-1.779296875,0.5106201171875,0.4423828125
3.419,334,3056,1494,900,14.0,23.0,25.0,-18.61572265625,29.113767623901367,-11.718749046325684,-1.701171875,0.3184814453125,0.4459228515625
3.426,332,2766,1317,932,14.0,23.0,25.0,-15.075682640075684,22.094724655151367,-8.7890625,-1.5728759765625,0.123779296875,0.4412841796875
3.440,328,2820,1143,801,14.0,23.0,25.0,-1.6479490995407104,18.798828125,-3.906249761581421,-1.43994140625,0.0423583984375,0.475830078125
3.448,331,2504,1045,1032,12.0,22.0,24.0,12.817381858825684,20.874021530151367,1.03759765625,-1.3089599609375,0.083251953125,0.4970703125
3.456,324,2368,959,1010,12.0,22.0,24.0,24.047849655151367,25.634763717651367,4.57763671875,-1.1683349609375,0.1217041015625,0.4029541015625
3.485,310,2167,771,758,12.0,22.0,24.0,35.09521484375,29.235837936401367,5.126952648162842,-1.0089111328125,0.126220703125,0.2301025390625
3.486,318,2014,793,888,12.0,22.0,24.0,47.729488372802734,29.174802780151367,1.7089842557907104,-0.8397216796875,0.1104736328125,0.115478515625
3.486,298,2293,811,606,12.0,22.0,24.0,56.396480560302734,27.770994186401367,-5.126952648162842,-0.664306640625,0.0211181640625,0.10205078125
3.495,302,1860,740,814,12.0,22.0,24.0,59.020992279052734,29.235837936401367,-12.756346702575684,-0.520751953125,-0.0992431640625,0.1029052734375
3.510,300,1691,695,625,12.0,22.0,24.0,59.448238372802734,33.75244140625,-17.63916015625,-0.455810546875,-0.18701171875,0.077392578125
3.518,294,1516,678,679,12.0,22.0,24.0,58.166500091552734,37.9638671875,-17.578125,-0.44140625,-0.2420654296875,0.0986328125
3.525,292,1377,684,600,12.0,22.0,24.0,52.917476654052734,37.78076171875,-13.000487327575684,-0.4197998046875,-0.261962890625,0.1328125
3.540,289,1173,601,571,12.0,22.0,24.0,48.522945404052734,35.21728515625,-6.774901866912842,-0.4320068359375,-0.2052001953125,0.0693359375
3.549,291,1074,644,500,11.0,24.0,25.0,50.964351654052734,33.02001953125,-1.3427733182907104,-0.526123046875,-0.04052734375,-0.0343017578125
3.555,281,853,567,545,11.0,24.0,25.0,54.443355560302734,28.320310592651367,4.94384765625,-0.6285400390625,0.184326171875,-0.088134765625
3.569,277,731,538,472,11.0,24.0,25.0,48.706050872802734,20.324705123901367,13.977049827575684,-0.6636962890625,0.3687744140625,-0.0634765625
3.590,280,714,564,468,11.0,24.0,25.0,33.75244140625,12.390135765075684,22.766111373901367,-0.641845703125,0.44482421875,0.03515625
3.591,280,725,568,469,11.0,24.0,25.0,17.15087890625,8.4228515625,26.367185592651367,-0.6229248046875,0.4365234375,0.1312255859375
3.599,280,777,579,461,11.0,24.0,25.0,6.469726085662842,9.46044921875,21.667478561401367,-0.640625,0.3814697265625,0.17333984375
3.607,286,794,623,497,11.0,24.0,25.0,3.356933355331421,11.779784202575684,10.559081077575684,-0.6837158203125,0.330810546875,0.1884765625
3.615,287,890,632,512,11.0,24.0,25.0,2.990722417831421,9.94873046875,0.7934569716453552,-0.7305908203125,0.28955078125,0.2001953125
3.631,289,996,628,506,11.0,24.0,25.0,1.8310545682907104,4.39453125,-3.723144292831421,-0.776123046875,0.220703125,0.1907958984375
3.639,289,1051,651,545,9.0,24.0,22.0,2.990722417831421,0.0,-5.065917491912842,-0.8251953125,0.1669921875,0.1646728515625
3.645,289,1108,667,546,9.0,24.0,22.0,8.36181640625,-1.7700194120407104,-4.94384765625,-0.875732421875,0.162353515625,0.147216796875
3.661,292,1129,591,603,9.0,24.0,22.0,14.038084983825684,-2.563476324081421,-4.08935546875,-0.9208984375,0.169921875,0.13916015625
3.667,290,1276,654,605,9.0,24.0,22.0,15.563963890075684,-3.723144292831421,-2.807616949081421,-0.94921875,0.15771484375,0.1346435546875
3.697,289,1243,625,635,9.0,24.0,22.0,12.573241233825684,-5.859374523162842,-0.9765624403953552,-0.9517822265625,0.138671875,0.1312255859375
3.697,286,1373,656,618,9.0,24.0,22.0,7.446288585662842,-8.9111328125,1.5258787870407104,-0.9354248046875,0.130126953125,0.1246337890625
3.698,291,1456,742,470,9.0,24.0,22.0,2.746581792831421,-12.817381858825684,3.417968511581421,-0.904296875,0.1341552734375,0.1181640625
3.706,291,1467,614,711,9.0,24.0,22.0,-0.6103515625,-17.333984375,3.906249761581421,-0.8541259765625,0.1524658203125,0.10546875
3.719,293,1608,607,654,9.0,24.0,22.0,-3.601073980331421,-21.423337936401367,3.601073980331421,-0.7884521484375,0.1787109375,0.0877685546875
3.727,296,1659,667,750,9.0,24.0,22.0,-8.48388671875,-24.414060592651367,3.845214605331421,-0.70458984375,0.211669921875,0.07470703125
3.735,302,1719,695,793,9.0,22.0,24.0,-17.02880859375,-25.878904342651367,5.0048828125,-0.59228515625,0.23828125,0.049072265625
3.749,304,1994,816,694,9.0,22.0,24.0,-29.479978561401367,-26.245115280151367,5.126952648162842,-0.4481201171875,0.22021484375,-0.010498046875
3.760,308,2080,966,778,9.0,22.0,24.0,-43.395992279052734,-27.709959030151367,2.38037109375,-0.27783203125,0.133056640625,-0.12109375
3.765,318,2235,1055,801,9.0,22.0,24.0,-43.395992279052734,-27.709959030151367,2.38037109375,-0.106201171875,0.02978515625,-0.2896728515625
3.797,315,2708,1231,705,9.0,22.0,24.0,-53.405757904052734,-35.64453125,-5.493163585662842,-0.0067138671875,0.0107421875,-0.4405517578125
3.798,322,2870,1480,400,9.0,22.0,24.0,-44.555660247802734,-37.17041015625,-10.253905296325684,-0.1219482421875,0.121337890625,-0.3902587890625
3.798,321,3114,1627,614,9.0,22.0,24.0,-44.555660247802734,-37.17041015625,-10.253905296325684,-0.44775390625,0.2501220703125,0.03515625
3.809,333,3073,1497,835,9.0,22.0,24.0,-62.805171966552734,-44.616695404052734,-26.062009811401367,-0.741943359375,0.2012939453125,0.668212890625
3.817,336,3147,1773,749,9.0,22.0,24.0,-97.16796112060547,-49.560543060302734,-26.794431686401367,-0.84033203125,-0.1285400390625,1.0634765625
3.826,362,2843,1487,1109,9.0,22.0,24.0,-97.16796112060547,-49.560543060302734,-26.794431686401367,-1.0941162109375,-0.2515869140625,0.9896240234375
3.839,360,3020,1504,1010,13.0,20.0,16.0,-86.54784393310547,-38.9404296875,-3.906249761581421,-1.63330078125,0.1329345703125,0.71875
3.847,364,2912,1492,1260,13.0,20.0,16.0,-62.927242279052734,-34.24072265625,7.934569835662842,-2.2249755859375,0.479248046875,0.5362548828125
3.855,371,2984,1769,1063,13.0,20.0,16.0,-62.927242279052734,-34.24072265625,7.934569835662842,-2.713623046875,0.461181640625,0.5419921875
3.869,334,3147,1715,963,13.0,20.0,16.0,-53.222652435302734,-12.634276390075684,14.892577171325684,-2.761962890625,0.22509765625,0.601318359375
3.902,372,2828,1427,1283,13.0,20.0,16.0,-47.363277435302734,1.03759765625,15.380858421325684,-2.0784912109375,-0.1578369140625,0.51806640625
3.903,332,3147,1380,1129,13.0,20.0,16.0,-47.363277435302734,1.03759765625,15.380858421325684,-1.1556396484375,-0.30078125,0.5079345703125
3.903,369,2853,1305,1112,13.0,20.0,16.0,38.4521484375,21.362302780151367,10.803221702575684,-0.9449462890625,0.14404296875,0.5185546875
3.908,356,2963,1386,1222,13.0,20.0,16.0,62.072750091552734,20.202634811401367,5.249022960662842,-1.42919921875,0.6456298828125,0.389404296875
3.915,359,2851,1380,1236,13.0,20.0,16.0,62.072750091552734,20.202634811401367,5.249022960662842,-1.89990234375,0.74853515625,0.31689453125
3.929,347,3007,1373,922,13.0,20.0,16.0,11.474608421325684,29.541013717651367,-8.48388671875,-1.981689453125,0.56591796875,0.3927001953125
3.938,351,2758,1380,1157,15.0,23.0,22.0,-7.751464366912842,26.733396530151367,-12.634276390075684,-1.789306640625,0.3126220703125,0.48486328125
3.945,361,2527,1169,1268,15.0,23.0,22.0,-7.751464366912842,26.733396530151367,-12.634276390075684,-1.555908203125,0.1260986328125,0.507080078125
3.959,354,2494,1042,1043,15.0,23.0,22.0,4.08935546875,21.728513717651367,-8.72802734375,-1.3590087890625,0.0965576171875,0.491455078125
3.971,318,2635,1184,902,15.0,23.0,22.0,13.854979515075684,26.794431686401367,-3.662109136581421,-1.18798828125,0.119384765625,0.423828125
3.975,324,2444,1057,963,15.0,23.0,22.0,13.854979515075684,26.794431686401367,-3.662109136581421,-1.18798828125,0.119384765625,0.423828125
3.994,315,2268,853,890,15.0,23.0,22.0,32.65380859375,34.1796875,1.7700194120407104,-0.8304443359375,-0.0384521484375,0.1697998046875
3.997,311,2104,840,991,15.0,23.0,22.0,32.65380859375,34.1796875,1.7700194120407104,-0.612060546875,-0.1680908203125,0.158935546875
4.005,313,1969,859,767,15.0,23.0,22.0,47.058101654052734,31.555173873901367,0.8544921278953552,-0.612060546875,-0.1680908203125,0.158935546875
4.019,304,1715,689,748,15.0,23.0,22.0,67.0166015625,33.8134765625,-4.45556640625,-0.406494140625,-0.24658203125,0.123779296875
4.028,302,1627,735,697,15.0,23.0,22.0,67.0166015625,33.8134765625,-4.45556640625,-0.46435546875,-0.211181640625,0.05810546875
4.035,294,1424,645,683,13.0,25.0,23.0,67.19970703125,40.222164154052734,-4.2724609375,-0.46435546875,-0.211181640625,0.05810546875
4.049,292,1109,594,642,13.0,25.0,23.0,48.583980560302734,39.0625,6.652831554412842,-0.5023193359375,-0.1224365234375,0.0093994140625
4.057,291,1094,647,548,13.0,25.0,23.0,48.583980560302734,39.0625,6.652831554412842,-0.5224609375,-0.0203857421875,-0.0228271484375
4.065,289,934,625,497,13.0,25.0,23.0,45.593257904052734,35.2783203125,11.657713890075684,-0.5224609375,-0.0203857421875,-0.0228271484375
4.097,286,782,563,414,13.0,25.0,23.0,53.588863372802734,24.353025436401367,18.6767578125,-0.669189453125,0.44677734375,0.0360107421875
4.098,286,772,562,439,13.0,25.0,23.0,53.588863372802734,24.353025436401367,18.6767578125,-0.694580078125,0.5400390625,0.12451171875
4.098,282,766,578,445,13.0,25.0,23.0,40.954586029052734,14.465331077575684,22.094724655151367,-0.694580078125,0.5400390625,0.12451171875
4.114,282,763,570,428,13.0,25.0,23.0,5.432128429412842,6.958007335662842,5.432128429412842,-0.662109375,0.2257080078125,0.2071533203125
4.117,282,780,593,445,13.0,25.0,23.0,5.432128429412842,6.958007335662842,5.432128429412842,-0.671142578125,0.244384765625,0.266845703125
4.125,282,772,594,454,13.0,25.0,23.0,3.173827886581421,6.774901866912842,-7.629394054412842,-0.671142578125,0.244384765625,0.266845703125
4.139,282,794,578,431,8.0,24.0,24.0,-4.69970703125,-8.72802734375,-8.97216796875,-0.726318359375,0.26513671875,0.3323974609375
4.147,280,787,569,482,8.0,24.0,24.0,-4.69970703125,-8.72802734375,-8.97216796875,-0.7548828125,0.1705322265625,0.2789306640625
4.155,286,842,572,465,8.0,24.0,24.0,-7.995604991912842,-15.808104515075684,-4.21142578125,-0.7548828125,0.1705322265625,0.2789306640625
4.169,275,910,512,540,8.0,24.0,24.0,7.019042491912842,-19.6533203125,1.220703125,-0.76220703125,0.094482421875,0.0718994140625
4.177,280,1039,527,564,8.0,24.0,24.0,7.019042491912842,-19.6533203125,1.220703125,-0.7828369140625,0.091796875,-0.1051025390625
4.200,279,1112,519,584,8.0,24.0,24.0,19.95849609375,-16.41845703125,3.112792730331421,-0.7828369140625,0.091796875,-0.1051025390625
4.201,283,1346,532,508,8.0,24.0,24.0,32.5927734375,-10.559081077575684,4.33349609375,-0.943603515625,0.25048828125,-0.163330078125
4.207,282,1411,548,559,8.0,24.0,24.0,37.29248046875,-8.85009765625,5.371093273162842,-0.943603515625,0.25048828125,-0.163330078125
4.221,289,1494,561,603,8.0,24.0,24.0,29.418943405151367,-13.793944358825684,6.103515148162842,-0.9737548828125,0.3070068359375,-0.0535888671875
4.231,289,1611,562,572,11.0,24.0,23.0,15.686034202575684,-19.95849609375,4.94384765625,-0.935302734375,0.2701416015625,0.0718994140625
4.237,289,1574,601,625,11.0,24.0,23.0,4.21142578125,-25.024412155151367,2.563476324081421,-0.935302734375,0.2701416015625,0.0718994140625
4.245,291,1730,619,648,11.0,24.0,23.0,-4.82177734375,-29.968259811401367,0.9765624403953552,-0.8875732421875,0.2259521484375,0.09521484375
4.259,295,1860,631,625,11.0,24.0,23.0,-14.770506858825684,-34.5458984375,-0.30517578125,-0.7467041015625,0.108642578125,0.123779296875
4.267,300,1967,738,710,11.0,24.0,23.0,-25.817869186401367,-38.0859375,-2.624511480331421,-0.7467041015625,0.108642578125,0.123779296875
4.276,304,2048,834,788,11.0,24.0,23.0,-36.07177734375,-39.794921875,-6.530761241912842,-0.67041015625,0.060791015625,0.103271484375
4.309,324,2060,934,819,11.0,24.0,23.0,-48.522945404052734,-41.625972747802734,-11.596678733825684,-0.5406494140625,0.013671875,-0.105712890625
4.310,324,2374,1216,761,11.0,24.0,23.0,-48.522945404052734,-41.625972747802734,-11.596678733825684,-0.405029296875,-0.0220947265625,-0.1915283203125
4.310,334,2284,1201,957,11.0,24.0,23.0,-50.781246185302734,-43.701168060302734,-8.48388671875,-0.405029296875,-0.0220947265625,-0.1915283203125
4.327,328,2593,1149,858,11.0,24.0,23.0,-48.095699310302734,-43.334957122802734,-3.906249761581421,-0.2984619140625,0.1234130859375,-0.1904296875
4.329,331,2739,1477,906,12.0,21.0,19.0,-44.311519622802734,-40.161128997802734,-0.4272460639476776,-0.2984619140625,0.1234130859375,-0.1904296875
4.337,338,2672,1555,963,12.0,21.0,19.0,-44.677730560302734,-36.43798828125,-0.30517578125,-0.4139404296875,0.351318359375,-0.0615234375
4.350,330,3147,2012,668,12.0,21.0,19.0,-54.626461029052734,-39.48974609375,-5.0048828125,-0.65673828125,0.3701171875,0.8719482421875
4.358,331,3055,1820,998,12.0,21.0,19.0,-78.91845703125,-53.527828216552734,-12.207030296325684,-0.65673828125,0.3701171875,0.8719482421875
4.366,360,2962,1861,1091,12.0,21.0,19.0,-97.71727752685547,-62.622066497802734,-18.49365234375,-0.7608642578125,0.187255859375,1.112548828125
4.380,371,2981,1662,1004,12.0,21.0,19.0,-91.43065643310547,-56.640621185302734,-24.963376998901367,-1.5262451171875,0.1517333984375,0.9288330078125
4.406,383,3130,1987,1143,12.0,21.0,19.0,-73.54736328125,-41.137691497802734,-31.860349655151367,-1.5262451171875,0.1517333984375,0.9288330078125
4.406,328,3147,2277,1018,12.0,21.0,19.0,-52.673336029052734,-21.179197311401367,-34.48486328125,-2.142822265625,-0.042724609375,0.70947265625
4.410,357,3144,1989,1188,12.0,21.0,19.0,-30.090330123901367,-8.97216796875,-30.151365280151367,-2.6380615234375,-0.0262451171875,0.2144775390625
4.419,359,3095,1945,1151,12.0,21.0,19.0,-14.526366233825684,-9.27734375,-21.728513717651367,-2.6380615234375,-0.0262451171875,0.2144775390625
4.433,354,3112,1952,1103,14.0,20.0,23.0,-4.2724609375,-10.681151390075684,-13.854979515075684,-1.9688720703125,-0.2001953125,0.1456298828125
4.441,348,3098,1762,1067,14.0,20.0,23.0,13.366698265075684,-4.94384765625,-7.690429210662842,-0.9071044921875,0.06982421875,0.67919921875
4.448,373,2909,1781,1236,14.0,20.0,23.0,33.75244140625,2.25830078125,-1.3427733182907104,-0.9071044921875,0.06982421875,0.67919921875
4.456,371,2890,1757,1262,14.0,20.0,23.0,34.3017578125,9.21630859375,5.310058116912842,-1.293212890625,0.4127197265625,0.7359619140625
4.472,371,2821,1564,1112,14.0,20.0,23.0,15.380858421325684,17.63916015625,8.72802734375,-1.7254638671875,0.46044921875,0.56787109375
4.482,359,2938,1689,1117,14.0,20.0,23.0,-3.234863042831421,21.972654342651367,6.286620616912842,-1.7254638671875,0.46044921875,0.56787109375
4.487,371,2763,1567,1201,14.0,20.0,23.0,-10.009765625,21.667478561401367,0.30517578125,-1.5614013671875,0.2222900390625,0.56201171875
4.546,342,2703,1450,944,14.0,20.0,23.0,-3.784179449081421,22.216794967651367,-3.906249761581421,-1.3543701171875,0.01416015625,0.5166015625
4.550,344,2811,1278,1050,14.0,20.0,23.0,9.82666015625,25.085447311401367,-3.845214605331421,-1.3543701171875,0.01416015625,0.5166015625
4.550,324,2507,1468,678,14.0,20.0,23.0,22.094724655151367,28.747556686401367,-1.4648436307907104,-1.2926025390625,0.1373291015625,0.440673828125
4.551,338,2323,1091,1038,13.0,18.0,20.0,28.808591842651367,32.40966796875,0.1831054538488388,-1.012451171875,0.170654296875,0.1771240234375
4.551,338,2260,1071,742,13.0,18.0,20.0,34.3017578125,33.99658203125,0.1220703050494194,-1.012451171875,0.170654296875,0.1771240234375
4.551,330,2207,1070,949,13.0,18.0,20.0,38.818359375,32.1044921875,-1.4648436307907104,-0.8209228515625,0.117431640625,0.0765380859375
4.562,323,1922,891,827,13.0,18.0,20.0,38.330078125,29.235837936401367,-4.2724609375,-0.62353515625,-0.0296630859375,0.053955078125
4.569,314,1943,951,728,13.0,18.0,20.0,33.99658203125,27.832029342651367,-6.958007335662842,-0.4832763671875,-0.2022705078125,0.08837890625
4.577,315,1704,816,803,13.0,18.0,20.0,31.799314498901367,29.785154342651367,-8.056640625,-0.438232421875,-0.302490234375,0.0865478515625
4.590,299,1753,777,537,13.0,18.0,20.0,33.935546875,34.48486328125,-6.835937023162842,-0.43017578125,-0.3223876953125,0.084716796875
4.628,298,1607,748,607,13.0,18.0,20.0,36.68212890625,36.31591796875,-3.295898199081421,-0.41552734375,-0.2996826171875,0.103271484375
4.629,299,1523,737,600,13.0,18.0,20.0,39.6728515625,33.99658203125,1.5258787870407104,-0.4249267578125,-0.2181396484375,0.075439453125
4.629,296,1402,748,620,9.0,22.0,25.0,44.982906341552734,29.602048873901367,6.591796398162842,-0.4849853515625,-0.0400390625,0.0399169921875
4.630,275,1433,744,603,9.0,22.0,25.0,49.011226654052734,23.010251998901367,12.084959983825684,-0.576416015625,0.19873046875,0.046630859375
4.636,298,1294,733,601,9.0,22.0,25.0,45.104976654052734,15.624999046325684,17.578125,-0.644287109375,0.41748046875,0.0714111328125
4.653,299,1294,721,567,9.0,22.0,25.0,31.860349655151367,9.521484375,21.850584030151367,-0.6563720703125,0.5198974609375,0.1024169921875
4.659,300,1224,721,695,9.0,22.0,25.0,14.892577171325684,5.859374523162842,22.155759811401367,-0.63623046875,0.4815673828125,0.136474609375
4.666,300,1292,725,698,9.0,22.0,25.0,2.746581792831421,4.638671875,17.76123046875,-0.639404296875,0.40087890625,0.1695556640625
4.680,308,1312,689,695,9.0,22.0,25.0,-1.220703125,3.295898199081421,10.925292015075684,-0.6622314453125,0.328857421875,0.2275390625
4.689,313,1372,707,788,9.0,22.0,25.0,-0.4882812201976776,1.2817381620407104,3.662109136581421,-0.69580078125,0.2431640625,0.2750244140625
4.714,304,1501,746,753,9.0,22.0,25.0,1.4038084745407104,1.0986328125,-2.807616949081421,-0.7603759765625,0.18212890625,0.2789306640625
4.714,315,1516,678,785,9.0,22.0,25.0,3.173827886581421,1.2817381620407104,-7.324218273162842,-0.828857421875,0.165283203125,0.2652587890625
4.718,316,1686,749,763,12.0,20.0,26.0,3.540038824081421,-0.4882812201976776,-8.9111328125,-0.87353515625,0.1478271484375,0.2303466796875
4.727,313,1622,723,867,12.0,20.0,26.0,3.173827886581421,-4.21142578125,-7.751464366912842,-0.8961181640625,0.115234375,0.17138671875
4.740,315,1716,693,814,12.0,20.0,26.0,3.662109136581421,-9.765625,-4.45556640625,-0.9052734375,0.099609375,0.1268310546875
4.761,313,1828,780,841,12.0,20.0,26.0,4.94384765625,-16.05224609375,-0.7324218153953552,-0.9085693359375,0.121826171875,0.1275634765625
4.761,313,1890,780,844,12.0,20.0,26.0,5.615233898162842,-21.118162155151367,1.5258787870407104,-0.913330078125,0.149169921875,0.1595458984375
4.770,310,2058,931,725,12.0,20.0,26.0,4.45556640625,-23.437498092651367,1.5258787870407104,-0.9266357421875,0.15283203125,0.193359375
4.778,317,1980,858,884,12.0,20.0,26.0,1.4648436307907104,-23.254392623901367,-0.2441406100988388,-0.9403076171875,0.1378173828125,0.218994140625
4.787,321,2024,890,899,12.0,20.0,26.0,-3.540038824081421,-22.277830123901367,-2.01416015625,-0.9295654296875,0.1182861328125,0.216796875
4.816,330,2113,934,835,12.0,20.0,26.0,-9.70458984375,-22.338865280151367,-2.868652105331421,-0.8778076171875,0.09619140625,0.16455078125
4.816,347,2374,947,895,12.0,20.0,26.0,-14.526366233825684,-23.803709030151367,-3.601073980331421,-0.7799072265625,0.0445556640625,0.0579833984375
4.817,331,2233,1111,858,11.0,20.0,26.0,-16.11328125,-26.428220748901367,-4.638671875,-0.6361083984375,-0.0150146484375,-0.08837890625
4.830,363,2271,1129,933,11.0,20.0,26.0,-15.014647483825684,-29.785154342651367,-5.615233898162842,-0.4354248046875,-0.0548095703125,-0.230224609375
4.838,361,2514,1359,1050,11.0,20.0,26.0,-13.854979515075684,-32.3486328125,-6.347655773162842,-0.2149658203125,-0.0648193359375,-0.3575439453125
4.846,327,3137,1779,744,11.0,20.0,26.0,-17.27294921875,-33.0810546875,-7.629394054412842,-0.1048583984375,-0.001953125,-0.3924560546875
4.860,347,2981,1759,887,11.0,20.0,26.0,-31.249998092651367,-36.92626953125,-10.864256858825684,-0.1463623046875,0.1065673828125,-0.1307373046875
4.869,349,3050,1943,963,11.0,20.0,26.0,-57.739253997802734,-47.363277435302734,-13.000487327575684,-0.2962646484375,0.1583251953125,0.4071044921875
4.876,360,3147,2165,872,11.0,20.0,26.0,-81.11571502685547,-55.297847747802734,-8.7890625,-0.583251953125,0.1802978515625,0.9371337890625
4.890,327,3147,2179,912,11.0,20.0,26.0,-86.36473846435547,-54.016109466552734,-0.7324218153953552,-1.01318359375,0.2943115234375,1.219970703125
4.899,334,3147,2231,980,11.0,20.0,26.0,-78.18603515625,-45.532222747802734,4.39453125,-1.55419921875,0.4102783203125,1.1993408203125
4.918,328,3147,2375,1024,11.0,20.0,26.0,-61.767574310302734,-32.71484375,3.356933355331421,-2.0865478515625,0.257080078125,1.024169921875
4.921,318,3147,2554,1051,15.0,19.0,20.0,-40.10009765625,-18.12744140625,-1.5258787870407104,-2.4107666015625,-0.03759765625,0.764404296875
4.928,344,3147,2218,1074,15.0,19.0,20.0,-19.22607421875,-4.57763671875,-3.417968511581421,-2.438232421875,-0.064697265625,0.4383544921875
4.936,334,3147,2167,1005,15.0,19.0,20.0,-3.295898199081421,5.249022960662842,-2.01416015625,-2.0584716796875,-0.0048828125,0.1771240234375
4.950,344,3147,1968,985,15.0,19.0,20.0,11.596678733825684,13.183592796325684,-1.9531248807907104,-1.3564453125,-0.080322265625,0.19189453125
4.965,330,3147,2261,973,15.0,19.0,20.0,31.005857467651367,17.88330078125,-3.173827886581421,-0.9906005859375,0.0316162109375,0.4755859375
4.967,348,3147,2018,1091,15.0,19.0,20.0,42.114253997802734,17.2119140625,-2.685546636581421,-1.2686767578125,0.3388671875,0.6474609375
4.982,344,3147,1921,968,15.0,19.0,20.0,30.334470748901367,18.24951171875,-1.4038084745407104,-1.6767578125,0.5296630859375,0.5755615234375
4.988,348,3147,1878,1038,15.0,19.0,20.0,7.202147960662842,23.010251998901367,-3.601073980331421,-1.7767333984375,0.5191650390625,0.482666015625
4.996,347,3120,1837,1022,15.0,19.0,20.0,-8.4228515625,24.841306686401367,-8.85009765625,-1.6202392578125,0.3189697265625,0.4765625
5.010,354,2876,1534,1010,12.0,18.0,22.0,-9.94873046875,23.010251998901367,-12.145995140075684,-1.4481201171875,0.0543212890625,0.515869140625
5.020,356,2769,1582,1041,12.0,18.0,22.0,-1.0986328125,21.606443405151367,-10.437010765075684,-1.349853515625,-0.049072265625,0.54931640625
5.027,354,2717,1380,1095,12.0,18.0,22.0,-1.0986328125,21.606443405151367,-10.437010765075684,-1.28076171875,-0.002197265625,0.4993896484375
5.040,336,2569,1214,842,12.0,18.0,22.0,14.892577171325684,27.770994186401367,1.6479490995407104,-1.198974609375,0.0494384765625,0.354248046875
5.048,344,2430,1170,1122,12.0,18.0,22.0,22.583005905151367,32.71484375,4.5166015625,-1.07568359375,0.08349609375,0.2034912109375
5.056,323,2467,1220,841,12.0,18.0,22.0,22.583005905151367,32.71484375,4.5166015625,-0.904052734375,0.0968017578125,0.1185302734375
5.070,332,2247,973,939,12.0,18.0,22.0,36.62109375,30.883787155151367,-0.1831054538488388,-0.705322265625,0.03857421875,0.123046875
5.078,324,1920,913,998,12.0,18.0,22.0,34.48486328125,29.479978561401367,-4.7607421875,-0.5396728515625,-0.090576171875,0.1561279296875
5.086,330,1759,913,927,12.0,18.0,22.0,34.48486328125,29.479978561401367,-4.7607421875,-0.464599609375,-0.214599609375,0.132568359375
5.100,308,1653,808,765,12.0,18.0,22.0,29.479978561401367,36.92626953125,-7.873534679412842,-0.4559326171875,-0.288818359375,0.0947265625
5.112,304,1413,744,710,12.0,22.0,21.0,30.822751998901367,37.90283203125,-5.126952648162842,-0.461181640625,-0.3094482421875,0.0689697265625
5.124,298,1416,733,607,12.0,22.0,21.0,30.822751998901367,37.90283203125,-5.126952648162842,-0.46484375,-0.25439453125,0.0184326171875
5.131,293,1243,710,628,12.0,22.0,21.0,41.320796966552734,28.869626998901367,5.554198741912842,-0.48828125,-0.101318359375,-0.014892578125
5.139,292,1037,694,588,12.0,22.0,21.0,48.583980560302734,23.986814498901367,11.352538108825684,-0.541259765625,0.120849609375,0.0098876953125
5.146,292,923,634,613,12.0,22.0,21.0,48.583980560302734,23.986814498901367,11.352538108825684,-0.5723876953125,0.3197021484375,0.0767822265625
5.160,295,849,614,593,12.0,22.0,21.0,40.466304779052734,15.624999046325684,23.559568405151367,-0.57177734375,0.3768310546875,0.123779296875
5.168,292,922,658,625,12.0,22.0,21.0,32.470703125,16.7236328125,23.437498092651367,-0.6070556640625,0.3333740234375,0.1202392578125
5.177,292,1004,694,564,12.0,22.0,21.0,32.470703125,16.7236328125,23.437498092651367,-0.6826171875,0.3360595703125,0.1500244140625
5.190,295,1107,692,543,12.0,22.0,21.0,30.578611373901367,17.76123046875,10.559081077575684,-0.7276611328125,0.37646484375,0.250732421875
5.199,299,1228,649,644,12.0,22.0,21.0,23.498533248901367,9.70458984375,6.530761241912842,-0.720703125,0.339111328125,0.3092041015625
5.225,304,1224,684,684,12.0,25.0,27.0,23.498533248901367,9.70458984375,6.530761241912842,-0.7218017578125,0.2490234375,0.26318359375
5.226,302,1289,648,720,12.0,25.0,27.0,4.33349609375,2.13623046875,0.4882812201976776,-0.770263671875,0.2120361328125,0.1922607421875
5.229,304,1398,678,754,12.0,25.0,27.0,4.33349609375,2.13623046875,0.4882812201976776,-0.8443603515625,0.214599609375,0.1534423828125
5.236,300,1445,678,785,12.0,25.0,27.0,0.6103515625,1.4038084745407104,-1.7700194120407104,-0.8443603515625,0.214599609375,0.1534423828125
5.250,304,1506,644,766,12.0,25.0,27.0,-5.432128429412842,-5.432128429412842,-3.173827886581421,-0.95849609375,0.1383056640625,0.1285400390625
5.258,308,1529,682,860,12.0,25.0,27.0,-5.432128429412842,-5.432128429412842,-3.173827886581421,-0.98583984375,0.1197509765625,0.1351318359375
5.266,313,1569,689,883,12.0,25.0,27.0,-6.958007335662842,-9.46044921875,-2.0751953125,-0.98583984375,0.1197509765625,0.1351318359375
5.283,318,1637,659,841,12.0,25.0,27.0,-5.249022960662842,-14.526366233825684,0.8544921278953552,-0.966064453125,0.0972900390625,0.207275390625
5.288,319,1704,714,907,12.0,25.0,27.0,-5.249022960662842,-14.526366233825684,0.8544921278953552,-0.94970703125,0.08984375,0.23291015625
5.296,317,1718,734,922,12.0,25.0,27.0,-3.234863042831421,-14.892577171325684,2.01416015625,-0.94970703125,0.08984375,0.23291015625
5.330,318,1820,739,820,11.0,21.0,21.0,1.4038084745407104,-13.427733421325684,0.4882812201976776,-0.9871826171875,0.1678466796875,0.223388671875
5.330,317,1918,814,888,11.0,21.0,21.0,1.4038084745407104,-13.427733421325684,0.4882812201976776,-0.991943359375,0.1917724609375,0.2200927734375
5.330,328,1843,813,986,11.0,21.0,21.0,1.0986328125,-14.648436546325684,-2.01416015625,-0.991943359375,0.1917724609375,0.2200927734375
5.340,334,1918,813,912,11.0,21.0,21.0,-3.784179449081421,-18.73779296875,-5.798339366912842,-0.879150390625,0.144287109375,0.15673828125
5.348,328,2019,916,959,11.0,21.0,21.0,-3.784179449081421,-18.73779296875,-5.798339366912842,-0.7930908203125,0.10791015625,0.095703125
5.356,328,2074,966,958,11.0,21.0,21.0,-6.652831554412842,-19.8974609375,-4.5166015625,-0.7930908203125,0.10791015625,0.095703125
5.370,333,2197,992,872,11.0,21.0,21.0,-11.108397483825684,-25.085447311401367,1.0986328125,-0.5638427734375,0.1103515625,-0.079345703125
5.378,328,2266,1105,976,11.0,21.0,21.0,-11.108397483825684,-25.085447311401367,1.0986328125,-0.387451171875,0.1455078125,-0.1905517578125
5.390,345,2392,1209,951,11.0,21.0,21.0,-13.183592796325684,-30.944822311401367,0.7324218153953552,-0.387451171875,0.1455078125,-0.1905517578125
5.402,332,2981,1757,661,11.0,21.0,21.0,-25.085447311401367,-40.10009765625,-16.54052734375,-0.183837890625,0.15283203125,-0.2930908203125
5.409,373,2963,1600,834,11.0,21.0,29.0,-25.085447311401367,-40.10009765625,-16.54052734375,-0.34130859375,0.06396484375,-0.03515625
5.436,334,3066,1849,944,11.0,21.0,29.0,-41.137691497802734,-42.602535247802734,-29.418943405151367,-0.34130859375,0.06396484375,-0.03515625
5.436,385,2818,1579,1055,11.0,21.0,29.0,-83.12987518310547,-50.415035247802734,-23.681638717651367,-0.6199951171875,-0.35107421875,0.822509765625
5.438,398,2945,1748,1251,11.0,21.0,29.0,-83.12987518310547,-50.415035247802734,-23.681638717651367,-0.787109375,-0.4560546875,0.9876708984375
5.447,382,3055,1936,1162,11.0,21.0,29.0,-77.1484375,-45.104976654052734,-4.82177734375,-0.787109375,-0.4560546875,0.9876708984375
5.461,338,3147,2186,1000,11.0,21.0,29.0,-49.072261810302734,-35.400390625,12.451170921325684,-1.523681640625,0.443603515625,0.708251953125
5.468,322,3147,2381,1041,11.0,21.0,29.0,-23.986814498901367,-28.198240280151367,25.085447311401367,-1.523681640625,0.443603515625,0.708251953125
5.476,347,3147,2024,1262,11.0,21.0,29.0,-18.798828125,-21.789548873901367,29.907224655151367,-2.062255859375,0.7008056640625,0.5418701171875
5.497,364,3147,1943,1120,11.0,21.0,29.0,-29.357908248901367,-13.732909202575684,23.986814498901367,-2.4815673828125,0.30517578125,0.5025634765625
5.499,328,3147,1770,1236,11.0,21.0,29.0,-39.61181640625,-6.958007335662842,12.878417015075684,-2.4815673828125,0.30517578125,0.5025634765625
5.506,360,3080,1882,1136,10.0,18.0,27.0,-34.7900390625,0.7934569716453552,1.8920897245407104,-1.9154052734375,0.016357421875,0.370361328125
5.532,346,3147,1863,1025,10.0,18.0,27.0,-8.48388671875,11.840819358825684,-7.385253429412842,-0.8966064453125,-0.013671875,0.5086669921875
5.533,328,3147,2072,998,10.0,18.0,27.0,23.498533248901367,19.34814453125,-11.779784202575684,-0.8966064453125,-0.013671875,0.5086669921875
5.536,342,3147,2161,1007,10.0,18.0,27.0,32.5927734375,23.010251998901367,-9.033203125,-1.240234375,0.2427978515625,0.5889892578125
5.551,346,3147,1862,984,10.0,18.0,27.0,15.747069358825684,29.663084030151367,-2.685546636581421,-1.7308349609375,0.361572265625,0.5333251953125
5.558,344,3147,1908,1022,10.0,18.0,27.0,-6.408690929412842,35.64453125,1.4038084745407104,-1.7308349609375,0.361572265625,0.5333251953125
5.566,334,3147,1895,952,10.0,18.0,27.0,-16.2353515625,34.3017578125,1.6479490995407104,-1.624267578125,0.24609375,0.522216796875
5.580,323,3147,1798,761,10.0,18.0,27.0,-10.437010765075684,30.212400436401367,0.8544921278953552,-1.396728515625,0.000244140625,0.4844970703125
5.588,321,3147,1745,762,10.0,18.0,27.0,2.868652105331421,30.151365280151367,2.807616949081421,-1.396728515625,0.000244140625,0.4844970703125
5.608,324,2935,1519,774,10.0,18.0,27.0,15.075682640075684,32.3486328125,7.751464366912842,-1.333251953125,0.0584716796875,0.427978515625
5.611,344,2736,1351,949,14.0,25.0,21.0,23.925779342651367,33.8134765625,11.779784202575684,-1.0816650390625,0.1513671875,0.2384033203125
5.633,321,2669,1336,808,14.0,25.0,21.0,32.8369140625,34.5458984375,11.413573265075684,-1.0816650390625,0.1513671875,0.2384033203125
5.633,316,2763,1305,636,14.0,25.0,21.0,41.870113372802734,34.24072265625,7.080077648162842,-0.892578125,0.1949462890625,0.164794921875
5.640,314,2435,1125,656,14.0,25.0,21.0,44.189449310302734,34.3017578125,0.3662109076976776,-0.4891357421875,-0.00634765625,0.1177978515625
5.649,317,2225,1054,678,14.0,25.0,21.0,38.330078125,36.07177734375,-6.530761241912842,-0.4891357421875,-0.00634765625,0.1177978515625
5.663,310,2087,992,720,14.0,25.0,21.0,31.616209030151367,39.1845703125,-10.437010765075684,-0.403076171875,-0.1689453125,0.06787109375
5.670,304,1929,826,657,14.0,25.0,21.0,29.907224655151367,41.992183685302734,-10.131834983825684,-0.398681640625,-0.267333984375,0.048583984375
5.678,300,1770,761,685,14.0,25.0,21.0,31.677244186401367,41.442867279052734,-6.469726085662842,-0.4150390625,-0.3126220703125,0.0660400390625
5.686,302,1598,698,728,14.0,25.0,21.0,36.62109375,38.87939453125,-0.6103515625,-0.4578857421875,-0.2535400390625,0.0235595703125
5.700,300,1503,648,654,11.0,25.0,26.0,45.288082122802734,37.41455078125,5.432128429412842,-0.55712890625,-0.0811767578125,-0.0335693359375
5.713,295,1441,687,652,11.0,25.0,26.0,51.513668060302734,35.15625,10.131834983825684,-0.688720703125,0.1241455078125,-0.0169677734375
5.716,296,1393,739,570,11.0,25.0,26.0,47.912593841552734,29.663084030151367,13.793944358825684,-0.769775390625,0.27197265625,0.0587158203125
5.735,296,1239,687,567,11.0,25.0,26.0,34.7900390625,21.911619186401367,17.15087890625,-0.7645263671875,0.333740234375,0.1307373046875
5.738,298,1214,731,607,11.0,25.0,26.0,18.98193359375,15.075682640075684,19.71435546875,-0.7347412109375,0.349609375,0.16455078125
5.746,296,1189,711,642,11.0,25.0,26.0,7.507323741912842,10.498045921325684,19.53125,-0.715576171875,0.3369140625,0.176513671875
5.760,299,1243,682,614,11.0,25.0,26.0,2.990722417831421,7.690429210662842,14.892577171325684,-0.7200927734375,0.3153076171875,0.17822265625
5.770,300,1318,710,677,11.0,25.0,26.0,3.356933355331421,6.652831554412842,8.056640625,-0.753173828125,0.3055419921875,0.1810302734375
5.777,300,1355,708,682,11.0,25.0,26.0,3.967284917831421,6.835937023162842,2.746581792831421,-0.79931640625,0.285400390625,0.185302734375
5.790,300,1413,666,644,11.0,25.0,26.0,3.234863042831421,7.446288585662842,0.1220703050494194,-0.836669921875,0.2294921875,0.1817626953125
5.799,299,1445,697,702,9.0,23.0,25.0,3.417968511581421,7.812499523162842,-0.6103515625,-0.858154296875,0.15283203125,0.172607421875
5.806,299,1490,695,697,9.0,23.0,25.0,5.859374523162842,7.019042491912842,0.0610351525247097,-0.875244140625,0.0926513671875,0.166015625
5.820,300,1557,644,673,9.0,23.0,25.0,8.72802734375,4.39453125,2.0751953125,-0.895751953125,0.06591796875,0.152099609375
5.843,300,1595,687,735,9.0,23.0,25.0,10.925292015075684,0.30517578125,4.39453125,-0.919189453125,0.084228515625,0.1177978515625
5.843,300,1684,679,748,9.0,23.0,25.0,12.207030296325684,-4.5166015625,5.737304210662842,-0.9381103515625,0.14111328125,0.09033203125
5.850,299,1785,652,661,9.0,23.0,25.0,11.108397483825684,-8.9111328125,5.432128429412842,-0.9478759765625,0.2010498046875,0.0838623046875
5.858,299,1805,714,707,9.0,23.0,25.0,6.469726085662842,-12.023924827575684,3.967284917831421,-0.945068359375,0.2327880859375,0.0904541015625
5.866,300,1770,706,774,9.0,23.0,25.0,-0.54931640625,-14.038084983825684,2.50244140625,-0.9334716796875,0.2210693359375,0.10888671875
5.883,304,1834,654,750,9.0,23.0,25.0,-7.324218273162842,-15.686034202575684,1.2817381620407104,-0.9228515625,0.181884765625,0.1285400390625
5.888,304,1894,737,806,9.0,23.0,25.0,-12.084959983825684,-17.15087890625,0.4272460639476776,-0.9127197265625,0.1484375,0.132080078125
5.896,306,1935,767,828,10.0,23.0,26.0,-15.075682640075684,-18.73779296875,0.0610351525247097,-0.8822021484375,0.1170654296875,0.12255859375
5.910,313,2024,813,793,10.0,23.0,26.0,-17.08984375,-20.446775436401367,0.3662109076976776,-0.8251953125,0.0921630859375,0.09716796875
5.941,316,2133,899,856,10.0,23.0,26.0,-18.49365234375,-22.583005905151367,1.8920897245407104,-0.76220703125,0.0960693359375,0.0574951171875
5.942,327,2386,1107,938,10.0,23.0,26.0,-19.6533203125,-25.878904342651367,4.08935546875,-0.6739501953125,0.105712890625,0.03271484375
5.942,323,2445,971,923,10.0,23.0,26.0,-19.6533203125,-25.878904342651367,4.08935546875,-0.537841796875,0.116455078125,0.010009765625
5.948,334,2444,1213,693,10.0,23.0,26.0,-23.315427780151367,-32.65380859375,3.906249761581421,-0.387939453125,0.13525390625,-0.0384521484375
5.956,330,2517,1264,898,10.0,23.0,26.0,-27.465818405151367,-32.2265625,0.30517578125,-0.2742919921875,0.1375732421875,-0.1129150390625
5.970,328,2803,1427,746,10.0,23.0,26.0,-34.3017578125,-30.090330123901367,-3.479003667831421,-0.2236328125,0.1328125,-0.1875
5.978,334,3028,1652,714,10.0,23.0,26.0,-41.931148529052734,-30.029294967651367,-7.446288585662842,-0.2706298828125,0.1275634765625,-0.15625
5.986,344,3042,1715,944,10.0,23.0,26.0,-50.720211029052734,-35.64453125,-13.793944358825684,-0.436767578125,0.072998046875,0.082763671875
6.000,332,3147,1931,852,12.0,24.0,23.0,-64.75830078125,-46.447750091552734,-19.47021484375,-0.605712890625,-0.0614013671875,0.458251953125
6.008,338,3147,2076,922,12.0,24.0,23.0,-78.79638671875,-53.344722747802734,-17.39501953125,-0.738037109375,-0.1990966796875,0.74951171875
6.016,359,3147,1945,1107,12.0,24.0,23.0,-76.416015625,-46.508785247802734,-7.019042491912842,-1.03759765625,-0.0091552734375,0.8233642578125
6.045,336,3147,1981,1104,12.0,24.0,23.0,-62.377925872802734,-34.423828125,4.39453125,-1.4820556640625,0.4300537109375,0.744140625
6.045,359,3147,1915,1156,12.0,24.0,23.0,-58.044429779052734,-27.709959030151367,7.629394054412842,-1.884765625,0.6287841796875,0.6148681640625
6.047,331,3147,2205,1217,12.0,24.0,23.0,-59.936519622802734,-22.949216842651367,2.0751953125,-2.20068359375,0.4305419921875,0.5758056640625
6.060,354,3147,1997,1213,12.0,24.0,23.0,-54.992671966552734,-16.845703125,-4.45556640625,-2.40185546875,0.11376953125,0.596435546875
6.068,360,3147,1983,1198,12.0,24.0,23.0,-42.785640716552734,-8.6669921875,-6.469726085662842,-2.257568359375,-0.0626220703125,0.470703125
6.076,388,2981,1775,1359,12.0,24.0,23.0,-23.498533248901367,4.08935546875,-6.408690929412842,-1.633544921875,-0.1683349609375,0.29736328125
6.090,371,3117,1798,1101,14.0,22.0,25.0,3.723144292831421,16.54052734375,-6.774901866912842,-1.1072998046875,-0.068603515625,0.342529296875
6.098,347,3147,1973,1129,14.0,22.0,25.0,23.498533248901367,18.9208984375,-5.310058116912842,-1.225341796875,0.23193359375,0.51171875
6.109,390,2981,1709,1348,14.0,22.0,25.0,21.057126998901367,18.06640625,-1.8920897245407104,-1.691162109375,0.396728515625,0.5865478515625
6.120,363,2955,1564,1160,14.0,22.0,25.0,7.995604991912842,22.460935592651367,-0.1220703050494194,-1.9493408203125,0.3636474609375,0.6185302734375
6.146,344,3147,1843,1095,14.0,22.0,25.0,0.9765624403953552,26.733396530151367,-0.7324218153953552,-1.872314453125,0.2669677734375,0.645263671875
6.146,328,3147,1792,1281,14.0,22.0,25.0,0.9765624403953552,26.733396530151367,-0.7324218153953552,-1.6591796875,0.164794921875,0.612060546875
6.150,359,2810,1292,992,14.0,22.0,25.0,16.9677734375,32.40966796875,-1.3427733182907104,-1.4627685546875,0.1470947265625,0.5458984375
6.159,333,2777,1359,1024,14.0,22.0,25.0,27.832029342651367,38.02490234375,-0.1220703050494194,-1.2779541015625,0.1685791015625,0.474853515625
6.167,321,2756,1236,1054,14.0,22.0,25.0,27.832029342651367,38.02490234375,-0.1220703050494194,-1.0933837890625,0.1043701171875,0.359130859375
6.180,328,2484,1125,728,14.0,22.0,25.0,38.6962890625,47.424312591552734,2.3193359375,-0.9398193359375,0.0009765625,0.201416015625
6.188,329,2368,1022,843,13.0,20.0,21.0,50.048824310302734,43.762203216552734,1.7700194120407104,-0.7904052734375,-0.099853515625,0.0936279296875
6.196,316,2348,1001,735,13.0,20.0,21.0,50.048824310302734,43.762203216552734,1.7700194120407104,-0.6204833984375,-0.2003173828125,0.0513916015625
6.211,313,1874,815,790,13.0,20.0,21.0,68.9697265625,30.639646530151367,-7.202147960662842,-0.4593505859375,-0.279052734375,-0.003173828125
6.221,304,1569,740,731,13.0,20.0,21.0,73.05908203125,33.38623046875,-11.840819358825684,-0.3436279296875,-0.3092041015625,-0.0662841796875
6.226,296,1463,730,579,13.0,20.0,21.0,73.05908203125,33.38623046875,-11.840819358825684,-0.2857666015625,-0.2474365234375,-0.1121826171875
6.261,294,1065,636,572,13.0,20.0,21.0,72.998046875,43.823238372802734,-8.30078125,-0.3079833984375,-0.0887451171875,-0.132080078125
6.261,290,929,630,555,13.0,20.0,21.0,65.61279296875,42.480464935302734,-2.01416015625,-0.41845703125,0.144775390625,-0.13232421875
6.262,289,818,591,531,13.0,20.0,21.0,65.61279296875,42.480464935302734,-2.01416015625,-0.5384521484375,0.3790283203125,-0.0966796875
6.270,282,767,551,493,13.0,20.0,21.0,25.451658248901367,23.559568405151367,21.423337936401367,-0.5941162109375,0.4429931640625,-0.0048828125
6.278,282,797,586,481,13.0,20.0,21.0,5.187987804412842,16.78466796875,26.733396530151367,-0.6158447265625,0.301513671875,0.064697265625
6.286,282,788,584,482,12.0,23.0,18.0,5.187987804412842,16.78466796875,26.733396530151367,-0.6595458984375,0.156982421875,0.0919189453125
6.300,282,803,571,464,12.0,23.0,18.0,16.357421875,23.498533248901367,9.8876953125,-0.7193603515625,0.1700439453125,0.144287109375
6.308,280,772,572,531,12.0,23.0,18.0,29.052732467651367,21.911619186401367,2.624511480331421,-0.7596435546875,0.2646484375,0.2177734375
6.316,286,785,582,538,12.0,23.0,18.0,29.052732467651367,21.911619186401367,2.624511480331421,-0.7645263671875,0.303955078125,0.2652587890625
6.334,286,820,579,519,12.0,23.0,18.0,16.17431640625,8.7890625,2.197265625,-0.748291015625,0.275634765625,0.2767333984375
6.358,289,841,620,553,12.0,23.0,18.0,4.0283203125,4.7607421875,4.21142578125,-0.7430419921875,0.22021484375,0.2591552734375
6.358,289,1022,620,497,12.0,23.0,18.0,4.0283203125,4.7607421875,4.21142578125,-0.7628173828125,0.1417236328125,0.2216796875
6.360,292,1064,618,564,12.0,23.0,18.0,0.1831054538488388,0.54931640625,8.1787109375,-0.8045654296875,0.059326171875,0.16796875
6.370,291,1185,630,647,12.0,23.0,18.0,0.1831054538488388,0.54931640625,8.1787109375,-0.8626708984375,0.024169921875,0.103515625
6.376,292,1260,625,654,12.0,23.0,18.0,7.324218273162842,-1.0986328125,10.070799827575684,-0.8626708984375,0.024169921875,0.103515625
6.390,296,1287,568,711,11.0,23.0,25.0,19.775390625,-4.69970703125,12.573241233825684,-1.00634765625,0.157470703125,0.0291748046875
6.398,294,1437,620,707,11.0,23.0,25.0,19.775390625,-4.69970703125,12.573241233825684,-1.0372314453125,0.2379150390625,0.045166015625
6.406,296,1521,631,707,11.0,23.0,25.0,18.4326171875,-9.033203125,13.488768577575684,-1.0372314453125,0.2379150390625,0.045166015625
6.420,295,1557,576,721,11.0,23.0,25.0,3.356933355331421,-18.310546875,9.58251953125,-0.9952392578125,0.281494140625,0.0875244140625
6.473,300,1745,667,730,11.0,23.0,25.0,-5.0048828125,-20.385740280151367,5.249022960662842,-0.967041015625,0.2713623046875,0.108642578125
6.473,299,1863,519,806,11.0,23.0,25.0,-17.02880859375,-19.59228515625,-2.929687261581421,-0.9317626953125,0.1978759765625,0.1568603515625
6.473,306,1721,651,882,11.0,23.0,25.0,-17.02880859375,-19.59228515625,-2.929687261581421,-0.91796875,0.16064453125,0.1531982421875
6.473,315,1750,678,898,11.0,23.0,25.0,-20.324705123901367,-18.24951171875,-4.8828125,-0.91796875,0.16064453125,0.1531982421875
6.490,321,1826,722,858,11.0,22.0,25.0,-26.489255905151367,-18.1884765625,-3.356933355331421,-0.8626708984375,0.07275390625,0.0999755859375
6.490,313,1969,799,905,11.0,22.0,25.0,-26.489255905151367,-18.1884765625,-3.356933355331421,-0.7955322265625,0.02978515625,0.093505859375
6.497,328,1945,816,996,11.0,22.0,25.0,-28.015134811401367,-20.935056686401367,0.2441406100988388,-0.7955322265625,0.02978515625,0.093505859375
6.510,356,1931,841,1014,11.0,22.0,25.0,-28.381345748901367,-30.212400436401367,6.469726085662842,-0.58837890625,0.0804443359375,0.0323486328125
6.519,333,2258,1108,910,11.0,22.0,25.0,-28.381345748901367,-30.212400436401367,6.469726085662842,-0.47314453125,0.164306640625,-0.0516357421875
6.528,362,2190,1050,1058,11.0,22.0,25.0,-30.151365280151367,-32.3486328125,4.69970703125,-0.47314453125,0.164306640625,-0.0516357421875
6.535,356,2458,1067,1012,11.0,22.0,25.0,-33.69140625,-31.005857467651367,-1.03759765625,-0.3544921875,0.214111328125,-0.1580810546875
6.562,342,2601,1282,803,11.0,22.0,25.0,-37.90283203125,-27.709959030151367,-7.751464366912842,-0.3323974609375,0.1944580078125,-0.16552734375
6.563,338,3040,1440,1055,11.0,22.0,25.0,-40.954586029052734,-26.916501998901367,-12.390135765075684,-0.3323974609375,0.1944580078125,-0.16552734375
6.571,354,3048,1761,958,11.0,22.0,25.0,-56.579586029052734,-45.410152435302734,-20.690916061401367,-0.686767578125,-0.1280517578125,0.544921875
6.578,382,2922,1762,1078,13.0,24.0,22.0,-56.579586029052734,-45.410152435302734,-20.690916061401367,-0.743408203125,-0.252197265625,0.801025390625
6.586,371,3073,1715,1209,13.0,24.0,22.0,-67.9931640625,-51.879878997802734,-18.5546875,-0.743408203125,-0.252197265625,0.801025390625
6.600,354,3082,1815,1038,13.0,24.0,22.0,-67.07763671875,-42.419429779052734,-8.23974609375,-1.3822021484375,0.4219970703125,0.5982666015625
6.608,359,3147,1941,1206,13.0,24.0,22.0,-57.434078216552734,-25.390623092651367,4.57763671875,-1.3822021484375,0.4219970703125,0.5982666015625
6.616,387,3147,2039,1085,13.0,24.0,22.0,-59.387203216552734,-16.2353515625,11.169432640075684,-1.8489990234375,0.7626953125,0.3758544921875
6.631,363,3089,1904,1151,13.0,24.0,22.0,-74.0966796875,-14.892577171325684,8.30078125,-2.3494873046875,0.1217041015625,0.4241943359375
6.638,382,3084,1855,1278,13.0,24.0,22.0,-78.369140625,-14.343260765075684,2.44140625,-2.3494873046875,0.1217041015625,0.4241943359375
6.658,360,3147,1913,1146,13.0,24.0,22.0,-59.997554779052734,-13.061522483825684,-1.2817381620407104,-2.2130126953125,-0.1612548828125,0.5152587890625
6.677,332,3147,2078,1024,13.0,24.0,22.0,-26.306150436401367,-6.347655773162842,-3.479003667831421,-1.03662109375,-0.1844482421875,0.4801025390625
6.677,363,3147,1691,1312,13.0,24.0,22.0,12.817381858825684,6.347655773162842,-4.33349609375,-1.03662109375,-0.1844482421875,0.4801025390625
6.677,354,3098,1789,999,14.0,22.0,22.0,40.649410247802734,13.977049827575684,-2.50244140625,-1.0596923828125,0.19384765625,0.5355224609375
6.690,363,3044,1596,1096,14.0,22.0,22.0,39.9169921875,16.78466796875,1.5258787870407104,-1.7601318359375,0.526611328125,0.4393310546875
6.698,356,2992,1650,1183,14.0,22.0,22.0,20.263669967651367,21.545408248901367,4.150390625,-1.7601318359375,0.526611328125,0.4393310546875
6.706,364,2925,1536,1236,14.0,22.0,22.0,3.967284917831421,23.742673873901367,2.868652105331421,-1.74755859375,0.4285888671875,0.425537109375
6.720,363,2833,1292,1151,14.0,22.0,22.0,-1.15966796875,21.789548873901367,-0.3662109076976776,-1.4381103515625,0.1195068359375,0.3985595703125
6.728,352,2801,1397,1231,14.0,22.0,22.0,2.38037109375,22.033689498901367,-2.25830078125,-1.4381103515625,0.1195068359375,0.3985595703125
6.736,352,2748,1278,1108,14.0,22.0,22.0,8.9111328125,25.085447311401367,-1.6479490995407104,-1.3408203125,0.1134033203125,0.3792724609375
6.759,360,2498,1025,1079,14.0,22.0,22.0,14.709471702575684,28.625486373901367,-0.3662109076976776,-1.099365234375,0.1055908203125,0.2420654296875
6.760,346,2589,971,1097,14.0,22.0,22.0,21.728513717651367,32.16552734375,-0.8544921278953552,-1.099365234375,0.1055908203125,0.2420654296875
6.766,330,2266,949,1056,14.0,22.0,22.0,33.02001953125,32.5927734375,-3.295898199081421,-0.9505615234375,0.07763671875,0.15283203125
6.797,313,2254,900,806,14.0,23.0,21.0,45.959468841552734,28.808591842651367,-7.019042491912842,-0.597900390625,-0.063232421875,0.1478271484375
6.797,309,2230,937,767,14.0,23.0,21.0,54.992671966552734,25.817869186401367,-11.596678733825684,-0.597900390625,-0.063232421875,0.1478271484375
6.802,321,1891,801,852,14.0,23.0,21.0,56.457515716552734,28.320310592651367,-15.319823265075684,-0.4486083984375,-0.105224609375,0.127197265625
6.818,302,1855,765,630,14.0,23.0,21.0,49.316402435302734,36.2548828125,-15.624999046325684,-0.355224609375,-0.1573486328125,0.1119384765625
6.826,300,1667,713,765,14.0,23.0,21.0,36.68212890625,44.067378997802734,-11.108397483825684,-0.317138671875,-0.23974609375,0.1414794921875
6.827,299,1739,753,603,14.0,23.0,21.0,27.282712936401367,46.142574310302734,-2.197265625,-0.3277587890625,-0.271728515625,0.115478515625
6.840,294,1730,673,607,14.0,23.0,21.0,28.564451217651367,43.029781341552734,7.995604991912842,-0.4029541015625,-0.1953125,0.008056640625
6.863,294,1691,683,632,14.0,23.0,21.0,37.90283203125,36.56005859375,17.02880859375,-0.5203857421875,-0.0198974609375,-0.06005859375
6.863,290,1675,614,644,14.0,23.0,21.0,44.494625091552734,27.526853561401367,24.536130905151367,-0.6256103515625,0.1973876953125,-0.0401611328125
6.870,293,1627,644,620,12.0,24.0,19.0,40.771480560302734,18.98193359375,30.090330123901367,-0.68017578125,0.3896484375,0.023193359375
6.881,294,1641,667,684,12.0,24.0,19.0,28.503416061401367,13.854979515075684,31.616209030151367,-0.707275390625,0.50634765625,0.091796875
6.886,295,1691,673,687,12.0,24.0,19.0,13.732909202575684,11.535643577575684,27.832029342651367,-0.7294921875,0.5235595703125,0.1527099609375
6.900,296,1759,644,639,12.0,24.0,19.0,3.234863042831421,10.437010765075684,18.85986328125,-0.746826171875,0.436767578125,0.169677734375
6.908,296,1789,687,721,12.0,24.0,19.0,0.30517578125,9.8876953125,7.507323741912842,-0.760986328125,0.3060302734375,0.1397705078125
6.917,296,1855,721,723,12.0,24.0,19.0,2.3193359375,7.751464366912842,-0.6103515625,-0.77734375,0.216064453125,0.1116943359375
6.931,300,1900,658,658,12.0,24.0,19.0,5.126952648162842,3.051757574081421,-3.234863042831421,-0.8048095703125,0.181396484375,0.1031494140625
6.939,294,1934,689,733,12.0,24.0,19.0,6.958007335662842,-2.38037109375,-2.50244140625,-0.8511962890625,0.1824951171875,0.099609375
6.946,296,1973,698,735,12.0,24.0,19.0,6.958007335662842,-7.263183116912842,-0.4272460639476776,-0.9136962890625,0.206298828125,0.1044921875
6.967,300,2037,658,675,12.0,24.0,19.0,3.662109136581421,-11.108397483825684,1.4038084745407104,-0.9791259765625,0.213134765625,0.1224365234375
6.969,294,2333,748,714,9.0,26.0,20.0,-3.051757574081421,-13.671874046325684,1.4038084745407104,-1.033447265625,0.171875,0.1341552734375
6.977,300,2110,741,765,9.0,26.0,20.0,-9.8876953125,-14.648436546325684,-0.4882812201976776,-1.0587158203125,0.0947265625,0.1348876953125
6.993,302,2165,723,707,9.0,26.0,20.0,-13.610838890075684,-15.014647483825684,-2.25830078125,-1.05712890625,0.01904296875,0.13427734375
6.999,304,2284,844,713,9.0,26.0,20.0,-13.488768577575684,-15.808104515075684,-2.563476324081421,-1.0545654296875,-0.0159912109375,0.127685546875
7.010,304,2271,884,738,9.0,26.0,20.0,-10.742186546325684,-17.51708984375,-2.0751953125,-1.0648193359375,0.0048828125,0.10888671875
7.020,306,2317,860,677,9.0,26.0,20.0,-7.446288585662842,-19.8974609375,-0.8544921278953552,-1.078369140625,0.0772705078125,0.0869140625
7.028,308,2340,947,754,9.0,26.0,20.0,-5.554198741912842,-22.216794967651367,1.8310545682907104,-1.0552978515625,0.1539306640625,0.092041015625
7.036,313,2375,952,761,9.0,26.0,20.0,-6.042479991912842,-23.437498092651367,5.249022960662842,-0.9832763671875,0.2027587890625,0.1099853515625
7.067,316,2334,894,706,9.0,26.0,20.0,-7.568358898162842,-22.827146530151367,7.812499523162842,-0.8878173828125,0.212158203125,0.098388671875
7.067,316,2552,1132,753,9.0,26.0,20.0,-9.765625,-21.423337936401367,9.033203125,-0.7669677734375,0.1646728515625,0.0643310546875
7.068,317,2443,1078,888,11.0,25.0,22.0,-11.901854515075684,-21.179197311401367,9.3994140625,-0.5908203125,0.079833984375,0.0087890625
7.080,324,2504,1185,707,11.0,25.0,22.0,-12.695311546325684,-23.254392623901367,8.60595703125,-0.3353271484375,0.0023193359375,-0.091796875
7.097,343,2565,1149,962,11.0,25.0,22.0,-13.183592796325684,-27.893064498901367,6.469726085662842,-0.014892578125,-0.0316162109375,-0.2275390625
7.097,348,2744,1294,951,11.0,25.0,22.0,-13.549803733825684,-33.99658203125,2.685546636581421,0.2559814453125,-0.0006103515625,-0.3367919921875
7.110,356,2886,1250,913,11.0,25.0,22.0,-13.854979515075684,-40.466304779052734,-4.5166015625,0.2947998046875,0.0921630859375,-0.24658203125
7.123,327,3147,1600,1025,11.0,25.0,22.0,-18.37158203125,-48.339839935302734,-15.014647483825684,0.0673828125,0.1707763671875,0.17431640625
7.127,334,3147,1790,1010,11.0,25.0,22.0,-29.907224655151367,-54.504390716552734,-22.216794967651367,-0.31494140625,0.191650390625,0.7357177734375
7.143,349,3147,1713,1043,11.0,25.0,22.0,-45.593257904052734,-53.527828216552734,-18.1884765625,-0.7808837890625,0.1878662109375,1.0626220703125
7.149,334,3147,2100,1093,11.0,25.0,22.0,-60.302730560302734,-44.006343841552734,-4.94384765625,-1.4456787109375,0.365478515625,0.8704833984375
7.171,331,3147,2207,1148,11.0,25.0,22.0,-72.3876953125,-33.14208984375,6.835937023162842,-2.213623046875,0.7476806640625,0.424560546875
7.171,328,3147,2273,1239,10.0,21.0,25.0,-91.85790252685547,-28.137205123901367,9.765625,-2.745849609375,0.75146484375,0.3046875
7.178,334,3147,2167,1202,10.0,21.0,25.0,-112.18260955810547,-22.949216842651367,7.263183116912842,-3.0296630859375,0.3140869140625,0.47900390625
7.186,330,3147,2131,1125,10.0,21.0,25.0,-106.01805877685547,-12.512206077575684,5.249022960662842,-2.619873046875,-0.353759765625,0.5538330078125
7.205,334,3147,2047,1129,10.0,21.0,25.0,-57.189937591552734,3.906249761581421,2.38037109375,-1.5460205078125,-0.6829833984375,0.5364990234375
7.208,344,3147,2058,1149,10.0,21.0,25.0,13.000487327575684,13.793944358825684,-0.54931640625,-0.975830078125,-0.1910400390625,0.5057373046875
7.216,360,3147,1838,1228,10.0,21.0,25.0,53.344722747802734,11.962889671325684,-1.4038084745407104,-1.19384765625,0.368896484375,0.44873046875
7.235,373,3070,1582,1182,10.0,21.0,25.0,49.682613372802734,14.892577171325684,-1.9531248807907104,-1.57373046875,0.557861328125,0.4609375
7.238,378,3014,1650,1302,10.0,21.0,25.0,28.442380905151367,22.033689498901367,-3.295898199081421,-1.72705078125,0.570068359375,0.48095703125
7.247,369,3147,1490,1216,10.0,21.0,25.0,10.498045921325684,22.583005905151367,-5.554198741912842,-1.6541748046875,0.5072021484375,0.4320068359375
7.272,370,2901,1411,1098,10.0,21.0,25.0,3.234863042831421,18.798828125,-8.6669921875,-1.4930419921875,0.3450927734375,0.3863525390625
7.273,364,2911,1466,1182,14.0,22.0,23.0,2.25830078125,20.080564498901367,-10.986327171325684,-1.363037109375,0.17724609375,0.3934326171875
7.277,359,2863,1440,1122,14.0,22.0,23.0,2.25830078125,20.080564498901367,-10.986327171325684,-1.2921142578125,0.1041259765625,0.4046630859375
7.294,348,2782,1262,907,14.0,22.0,23.0,0.6103515625,33.3251953125,-6.774901866912842,-1.2252197265625,0.072265625,0.3427734375
7.298,342,2561,1268,1062,14.0,22.0,23.0,7.812499523162842,35.94970703125,-6.225585460662842,-1.1072998046875,0.057861328125,0.221923828125
7.327,337,2561,1289,913,14.0,22.0,23.0,7.812499523162842,35.94970703125,-6.225585460662842,-0.9180908203125,0.047119140625,0.146484375
7.327,318,2624,1029,957,14.0,22.0,23.0,37.7197265625,27.832029342651367,-11.901854515075684,-0.6912841796875,-0.025634765625,0.1513671875
7.329,342,2197,883,999,14.0,22.0,23.0,44.799800872802734,26.672361373901367,-16.78466796875,-0.5069580078125,-0.1248779296875,0.1568603515625
7.336,329,2008,963,963,14.0,22.0,23.0,44.799800872802734,26.672361373901367,-16.78466796875,-0.4068603515625,-0.1729736328125,0.1085205078125
7.351,316,1718,837,761,14.0,22.0,23.0,44.006343841552734,36.2548828125,-21.179197311401367,-0.3834228515625,-0.2332763671875,0.056396484375
7.374,310,1640,815,778,14.0,22.0,23.0,40.344234466552734,39.6728515625,-17.63916015625,-0.399169921875,-0.29638671875,0.0498046875
7.374,294,1655,740,666,9.0,23.0,24.0,40.344234466552734,39.6728515625,-17.63916015625,-0.4271240234375,-0.2335205078125,0.0623779296875
7.381,300,1422,757,572,9.0,23.0,24.0,47.668453216552734,31.799314498901367,-1.3427733182907104,-0.4981689453125,-0.05615234375,0.0699462890625
7.388,296,1267,784,617,9.0,23.0,24.0,55.175777435302734,26.306150436401367,5.065917491912842,-0.5965576171875,0.1199951171875,0.094970703125
7.396,299,1156,775,586,9.0,23.0,24.0,55.175777435302734,26.306150436401367,5.065917491912842,-0.6690673828125,0.24951171875,0.1212158203125
7.414,296,1042,707,527,9.0,23.0,24.0,43.212886810302734,19.95849609375,16.41845703125,-0.69091796875,0.3387451171875,0.132080078125
7.418,294,1048,738,549,9.0,23.0,24.0,28.015134811401367,17.76123046875,21.911619186401367,-0.6649169921875,0.368896484375,0.1348876953125
7.427,294,1074,737,568,9.0,23.0,24.0,28.015134811401367,17.76123046875,21.911619186401367,-0.6341552734375,0.3411865234375,0.121337890625
7.440,296,1184,698,551,9.0,23.0,24.0,13.122557640075684,15.869139671325684,21.179197311401367,-0.64208984375,0.2957763671875,0.1234130859375
7.450,296,1271,720,614,9.0,23.0,24.0,17.08984375,14.892577171325684,15.380858421325684,-0.689697265625,0.26318359375,0.146484375
7.481,297,1375,707,625,9.0,23.0,24.0,17.08984375,14.892577171325684,15.380858421325684,-0.75732421875,0.2498779296875,0.1412353515625
7.481,277,1450,790,540,9.0,26.0,20.0,24.353025436401367,9.82666015625,5.920409679412842,-0.8267822265625,0.2451171875,0.098388671875
7.482,300,1543,714,660,9.0,26.0,20.0,23.071287155151367,5.126952648162842,3.906249761581421,-0.889404296875,0.2325439453125,0.055908203125
7.486,299,1627,723,661,9.0,26.0,20.0,23.071287155151367,5.126952648162842,3.906249761581421,-0.921875,0.1973876953125,0.046142578125
7.500,298,1773,710,539,9.0,26.0,20.0,12.145995140075684,-8.23974609375,2.50244140625,-0.9215087890625,0.1495361328125,0.05615234375
7.510,300,1662,654,815,9.0,26.0,20.0,12.145995140075684,-8.23974609375,2.50244140625,-0.930419921875,0.1348876953125,0.06494140625
7.520,308,1640,631,871,9.0,26.0,20.0,5.981444835662842,-13.671874046325684,2.929687261581421,-0.930419921875,0.1348876953125,0.06494140625
7.531,304,1883,683,688,9.0,26.0,20.0,1.03759765625,-19.10400390625,2.563476324081421,-0.9974365234375,0.2027587890625,0.107666015625
7.539,304,1918,725,782,9.0,26.0,20.0,1.03759765625,-19.10400390625,2.563476324081421,-1.0076904296875,0.2188720703125,0.14111328125
7.547,302,2068,799,684,9.0,26.0,20.0,-2.990722417831421,-20.263669967651367,1.7089842557907104,-1.0076904296875,0.2188720703125,0.14111328125
7.560,302,2063,733,702,11.0,24.0,27.0,-14.587401390075684,-18.06640625,2.563476324081421,-0.9573974609375,0.10693359375,0.199951171875
7.580,302,2188,882,799,11.0,24.0,27.0,-14.587401390075684,-18.06640625,2.563476324081421,-0.9429931640625,0.063720703125,0.1925048828125
7.580,321,1931,757,966,11.0,24.0,27.0,-17.51708984375,-15.563963890075684,3.479003667831421,-0.9429931640625,0.063720703125,0.1925048828125
7.591,317,2126,834,806,11.0,24.0,27.0,-18.6767578125,-16.78466796875,4.45556640625,-0.9158935546875,0.0977783203125,0.07275390625
7.598,316,2257,1022,813,11.0,24.0,27.0,-18.6767578125,-16.78466796875,4.45556640625,-0.802490234375,0.1263427734375,0.00390625
7.607,332,2172,1039,975,11.0,24.0,27.0,-19.95849609375,-21.606443405151367,5.126952648162842,-0.802490234375,0.1263427734375,0.00390625
7.627,347,2240,1178,865,11.0,24.0,27.0,-26.184080123901367,-28.381345748901367,4.638671875,-0.3330078125,0.155517578125,-0.1102294921875
7.629,328,2834,1572,744,11.0,24.0,27.0,-26.184080123901367,-28.381345748901367,4.638671875,-0.0697021484375,0.2227783203125,-0.1617431640625
7.637,337,2621,1440,879,11.0,24.0,27.0,-30.639646530151367,-26.794431686401367,-1.8310545682907104,-0.0697021484375,0.2227783203125,-0.1617431640625
7.646,336,2881,1534,871,11.0,24.0,27.0,-36.376953125,-22.583005905151367,-14.953612327575684,0.063720703125,0.349609375,-0.2203369140625
7.660,347,3147,1652,968,12.0,21.0,22.0,-42.541500091552734,-21.057126998901367,-31.249998092651367,-0.3280029296875,0.3599853515625,0.13671875
7.691,346,2946,1666,1146,12.0,21.0,22.0,-49.011226654052734,-28.686521530151367,-46.264644622802734,-0.3280029296875,0.3599853515625,0.13671875
7.691,360,3128,1755,1078,12.0,21.0,22.0,-54.992671966552734,-45.166011810302734,-55.847164154052734,-0.647705078125,0.01513671875,0.5556640625
7.691,359,3147,1892,1111,12.0,21.0,22.0,-52.429195404052734,-59.082027435302734,-56.518550872802734,-1.1441650390625,-0.5672607421875,0.75146484375
7.698,356,3147,2024,1185,12.0,21.0,22.0,-31.433103561401367,-57.312007904052734,-46.752925872802734,-1.1441650390625,-0.5672607421875,0.75146484375
7.705,344,3147,2347,1191,12.0,21.0,22.0,-5.676269054412842,-44.738765716552734,-27.404783248901367,-1.7183837890625,-0.038330078125,0.501220703125
7.719,323,3147,2394,1217,12.0,21.0,22.0,-8.7890625,-35.2783203125,-5.554198741912842,-2.5244140625,0.50439453125,0.317626953125
7.733,327,3147,2409,1268,12.0,21.0,22.0,-43.640132904052734,-27.832029342651367,9.09423828125,-2.5244140625,0.50439453125,0.317626953125
7.736,319,3147,2456,1201,12.0,21.0,22.0,-73.974609375,-18.5546875,15.991209983825684,-2.510986328125,0.066650390625,0.517333984375
7.749,328,3147,2161,1122,12.0,21.0,22.0,-70.12939453125,-8.544921875,19.10400390625,-1.133544921875,-0.54931640625,0.71484375
7.758,348,3147,1967,1126,17.0,22.0,25.0,-28.625486373901367,6.103515148162842,19.22607421875,-1.133544921875,-0.54931640625,0.71484375
7.766,347,3147,1945,1173,17.0,22.0,25.0,28.137205123901367,19.10400390625,19.775390625,-0.8084716796875,-0.1693115234375,0.5792236328125
7.785,347,3147,1774,1138,17.0,22.0,25.0,58.105464935302734,20.690916061401367,24.719236373901367,-1.735107421875,0.739990234375,0.1220703125
7.788,338,3147,1908,1109,17.0,22.0,25.0,42.053218841552734,18.06640625,29.602048873901367,-1.735107421875,0.739990234375,0.1220703125
7.798,344,3147,1774,1095,17.0,22.0,25.0,5.310058116912842,17.39501953125,27.465818405151367,-1.8677978515625,0.6334228515625,0.125
7.809,338,3147,1569,989,17.0,22.0,25.0,-18.37158203125,14.648436546325684,19.4091796875,-1.446533203125,0.1517333984375,0.4703369140625
7.817,332,3144,1580,1018,17.0,22.0,25.0,-20.812986373901367,10.986327171325684,12.329100608825684,-1.446533203125,0.1517333984375,0.4703369140625
7.826,329,3104,1516,989,17.0,22.0,25.0,-12.817381858825684,13.000487327575684,11.047362327575684,-1.31591796875,0.045166015625,0.5855712890625
7.839,332,2930,1290,910,17.0,22.0,25.0,-4.33349609375,21.301267623901367,15.441893577575684,-1.224853515625,0.0233154296875,0.6378173828125
7.848,316,3147,1531,639,17.0,22.0,25.0,4.33349609375,32.28759765625,20.935056686401367,-1.1226806640625,0.010986328125,0.5797119140625
7.856,322,2813,1243,867,12.0,24.0,19.0,18.00537109375,41.198726654052734,23.010251998901367,-1.0233154296875,0.0552978515625,0.4031982421875
7.886,318,2589,1045,660,12.0,24.0,19.0,35.21728515625,43.029781341552734,21.301267623901367,-0.9288330078125,0.169189453125,0.21630859375
7.888,311,2638,1094,678,12.0,24.0,19.0,46.020503997802734,38.75732421875,17.15087890625,-0.828125,0.2325439453125,0.0865478515625
7.888,313,2484,952,835,12.0,24.0,19.0,44.982906341552734,34.912109375,11.413573265075684,-0.7086181640625,0.1551513671875,0.0189208984375
7.916,326,1874,707,848,12.0,24.0,19.0,37.17041015625,34.3017578125,5.249022960662842,-0.5972900390625,-0.021484375,-0.0164794921875
7.925,310,1891,759,818,12.0,24.0,19.0,31.555173873901367,35.7666015625,0.9765624403953552,-0.5369873046875,-0.1761474609375,-0.0474853515625
7.925,310,1759,689,864,12.0,24.0,19.0,31.860349655151367,36.56005859375,0.2441406100988388,-0.5042724609375,-0.2509765625,-0.0274658203125
7.933,300,1655,656,667,12.0,24.0,19.0,36.7431640625,34.912109375,1.8310545682907104,-0.47998046875,-0.2481689453125,0.007080078125
7.967,300,1730,731,654,12.0,24.0,19.0,44.372554779052734,34.11865234375,3.784179449081421,-0.514892578125,-0.14892578125,-0.016357421875
7.968,292,1572,599,582,12.0,24.0,19.0,50.537105560302734,33.50830078125,6.347655773162842,-0.6083984375,0.016845703125,-0.033935546875
7.968,294,1452,644,495,9.0,27.0,29.0,49.316402435302734,28.930662155151367,11.291502952575684,-0.684326171875,0.172607421875,-0.0008544921875
7.968,293,1447,695,527,9.0,27.0,29.0,40.832515716552734,21.301267623901367,18.98193359375,-0.7052001953125,0.299072265625,0.0555419921875
7.991,294,1185,634,621,9.0,27.0,29.0,29.724119186401367,13.244627952575684,26.977537155151367,-0.6905517578125,0.40185546875,0.128173828125
7.991,291,1217,608,488,9.0,27.0,29.0,18.98193359375,7.080077648162842,31.616209030151367,-0.6700439453125,0.4603271484375,0.205322265625
7.999,292,1236,669,574,9.0,27.0,29.0,10.009765625,5.615233898162842,29.907224655151367,-0.6761474609375,0.448974609375,0.23486328125
8.005,292,1287,671,579,9.0,27.0,29.0,4.21142578125,8.544921875,22.827146530151367,-0.7181396484375,0.3826904296875,0.2042236328125
8.023,293,1377,653,564,9.0,27.0,29.0,2.563476324081421,11.291502952575684,13.977049827575684,-0.7659912109375,0.3023681640625,0.1702880859375
8.028,293,1429,682,620,9.0,27.0,29.0,4.94384765625,10.681151390075684,6.042479991912842,-0.798095703125,0.2501220703125,0.1614990234375
8.036,293,1474,678,625,9.0,27.0,29.0,10.070799827575684,7.873534679412842,0.0,-0.813232421875,0.2286376953125,0.1558837890625
8.053,296,1636,666,548,10.0,27.0,24.0,15.747069358825684,5.310058116912842,-3.967284917831421,-0.83642578125,0.2215576171875,0.1236572265625
8.058,299,1599,678,634,10.0,27.0,24.0,18.9208984375,3.356933355331421,-5.859374523162842,-0.8819580078125,0.2255859375,0.079833984375
8.065,299,1662,687,658,10.0,27.0,24.0,17.578125,0.54931640625,-5.676269054412842,-0.921630859375,0.2177734375,0.056884765625
8.091,296,1719,614,644,10.0,27.0,24.0,12.939452171325684,-3.601073980331421,-3.906249761581421,-0.9327392578125,0.1881103515625,0.0517578125
8.091,299,1689,605,772,10.0,27.0,24.0,8.11767578125,-8.11767578125,-1.15966796875,-0.9232177734375,0.1732177734375,0.0509033203125
8.096,299,1733,620,782,10.0,27.0,24.0,4.82177734375,-12.573241233825684,1.3427733182907104,-0.906494140625,0.190673828125,0.0538330078125
8.110,302,1809,597,737,10.0,27.0,24.0,-0.30517578125,-16.7236328125,2.563476324081421,-0.8768310546875,0.2001953125,0.0582275390625
8.117,300,1961,705,749,10.0,27.0,24.0,-9.1552734375,-20.202634811401367,2.197265625,-0.8367919921875,0.1904296875,0.05078125
8.125,305,1941,694,778,10.0,27.0,24.0,-19.04296875,-23.803709030151367,0.1220703050494194,-0.7767333984375,0.1768798828125,0.013427734375
8.139,308,2174,799,728,10.0,27.0,24.0,-27.343748092651367,-28.747556686401367,-3.662109136581421,-0.6737060546875,0.1646728515625,-0.0601806640625
8.148,317,2291,973,814,12.0,21.0,22.0,-33.99658203125,-35.09521484375,-7.446288585662842,-0.533935546875,0.1627197265625,-0.1356201171875
8.159,321,2281,1024,934,12.0,21.0,22.0,-40.893550872802734,-42.297359466552734,-9.09423828125,-0.317626953125,0.1302490234375,-0.17578125
8.169,324,2561,1183,721,12.0,21.0,22.0,-48.217769622802734,-45.898433685302734,-8.4228515625,-0.0435791015625,0.064697265625,-0.211669921875
8.194,347,2648,1243,891,12.0,21.0,22.0,-52.490230560302734,-42.053218841552734,-8.4228515625,0.139404296875,0.03271484375,-0.2532958984375
8.194,321,2916,1411,636,12.0,21.0,22.0,-51.818843841552734,-34.7900390625,-11.840819358825684,0.080322265625,0.092529296875,-0.20166015625
8.199,322,3147,1845,802,12.0,21.0,22.0,-48.339839935302734,-34.97314453125,-20.385740280151367,-0.2332763671875,0.1632080078125,0.119873046875
8.208,344,3147,1934,925,12.0,21.0,22.0,-49.560543060302734,-47.485347747802734,-33.447265625,-0.57763671875,0.071533203125,0.68017578125
8.216,359,3147,1874,1137,12.0,21.0,22.0,-57.617183685302734,-60.974117279052734,-39.794921875,-0.807373046875,-0.085205078125,1.077880859375
8.229,371,3147,1819,1162,12.0,21.0,22.0,-60.729976654052734,-57.495113372802734,-29.846189498901367,-1.1988525390625,0.0213623046875,0.970703125
8.238,342,3147,2080,1239,12.0,21.0,22.0,-58.227535247802734,-38.6962890625,-11.962889671325684,-1.8648681640625,0.4954833984375,0.5389404296875
8.338,342,3147,2136,1345,9.0,23.0,25.0,-93.01757049560547,-19.6533203125,2.197265625,-2.88427734375,0.645263671875,0.3629150390625
8.338,348,3147,2010,1278,9.0,23.0,25.0,-104.30907440185547,-22.949216842651367,2.868652105331421,-2.9068603515625,0.0697021484375,0.5150146484375
8.346,334,3147,2076,1214,9.0,23.0,25.0,-76.416015625,-17.15087890625,1.5869139432907104,-2.0302734375,-0.685791015625,0.5224609375
8.346,356,3147,1913,1233,9.0,23.0,25.0,-5.0048828125,0.0610351525247097,-2.929687261581421,-1.11767578125,-0.6220703125,0.491943359375
8.346,351,3147,1874,1222,9.0,23.0,25.0,61.035152435302734,8.48388671875,-3.112792730331421,-1.0048828125,0.0391845703125,0.4674072265625
8.346,336,3147,1931,1167,9.0,23.0,25.0,61.035152435302734,8.48388671875,-3.112792730331421,-1.360595703125,0.43701171875,0.4696044921875
8.346,346,3147,1624,1251,9.0,23.0,25.0,47.241207122802734,25.390623092651367,10.314940452575684,-1.6502685546875,0.5611572265625,0.4833984375
8.346,364,3085,1611,1292,9.0,23.0,25.0,15.930174827575684,31.799314498901367,14.282225608825684,-1.71875,0.593017578125,0.42041015625
8.346,364,3076,1568,1257,9.0,23.0,25.0,15.930174827575684,31.799314498901367,14.282225608825684,-1.6346435546875,0.5074462890625,0.33447265625
8.352,355,2963,1373,1091,13.0,25.0,19.0,-5.676269054412842,22.033689498901367,7.019042491912842,-1.505126953125,0.3021240234375,0.3028564453125
8.373,351,2927,1416,1175,13.0,25.0,19.0,-4.2724609375,23.315427780151367,3.723144292831421,-1.380126953125,0.15625,0.33984375
8.373,347,2820,1334,1148,13.0,25.0,19.0,-4.2724609375,23.315427780151367,3.723144292831421,-1.2496337890625,0.15625,0.3905029296875
8.379,334,2820,1260,962,13.0,25.0,19.0,1.4038084745407104,33.99658203125,6.774901866912842,-1.1058349609375,0.163818359375,0.3988037109375
8.429,318,2702,1204,922,13.0,25.0,19.0,10.742186546325684,37.7197265625,7.080077648162842,-0.9603271484375,0.1195068359375,0.3614501953125
8.435,327,2557,1137,858,13.0,25.0,19.0,10.742186546325684,37.7197265625,7.080077648162842,-0.815673828125,0.020263671875,0.3150634765625
8.435,313,2432,942,733,13.0,25.0,19.0,36.0107421875,39.73388671875,3.051757574081421,-0.66943359375,-0.1307373046875,0.260009765625
8.435,302,2465,816,682,13.0,25.0,19.0,47.485347747802734,40.161128997802734,-0.0610351525247097,-0.547607421875,-0.251953125,0.163330078125
8.435,292,2330,753,793,13.0,25.0,19.0,47.485347747802734,40.161128997802734,-0.0610351525247097,-0.4755859375,-0.285888671875,0.039306640625
8.458,300,1675,628,764,12.0,26.0,19.0,68.4814453125,38.818359375,-2.868652105331421,-0.4144287109375,-0.254638671875,-0.035888671875
8.459,298,1569,593,794,12.0,26.0,19.0,72.509765625,37.4755859375,-1.4038084745407104,-0.344482421875,-0.1895751953125,-0.0738525390625
8.459,294,1437,539,784,12.0,26.0,19.0,72.509765625,37.4755859375,-1.4038084745407104,-0.3450927734375,-0.0789794921875,-0.1370849609375
8.484,290,1366,577,710,12.0,26.0,19.0,77.08740234375,39.24560546875,4.150390625,-0.457763671875,0.1170654296875,-0.1868896484375
8.484,273,1223,620,614,12.0,26.0,19.0,71.044921875,35.0341796875,10.925292015075684,-0.5960693359375,0.3521728515625,-0.1629638671875
8.507,280,1241,620,546,12.0,26.0,19.0,71.044921875,35.0341796875,10.925292015075684,-0.6654052734375,0.49365234375,-0.050537109375
8.508,280,1091,537,563,12.0,26.0,19.0,25.451658248901367,10.314940452575684,26.916501998901367,-0.67333984375,0.48046875,0.1019287109375
8.509,280,1198,513,578,12.0,26.0,19.0,4.94384765625,0.9765624403953552,26.123044967651367,-0.6849365234375,0.408203125,0.1998291015625
8.517,282,1122,586,630,12.0,26.0,19.0,4.94384765625,0.9765624403953552,26.123044967651367,-0.733642578125,0.3580322265625,0.2052001953125
8.530,292,1289,607,546,12.0,26.0,19.0,-2.197265625,-1.7089842557907104,6.347655773162842,-0.797607421875,0.32470703125,0.1668701171875
8.539,291,1280,618,654,12.0,22.0,24.0,1.4038084745407104,-0.6103515625,-4.82177734375,-0.829833984375,0.2969970703125,0.1419677734375
8.547,291,1253,584,673,12.0,22.0,24.0,1.4038084745407104,-0.6103515625,-4.82177734375,-0.8204345703125,0.25390625,0.1358642578125
8.561,292,1497,620,569,12.0,22.0,24.0,4.7607421875,0.1831054538488388,-10.192870140075684,-0.8133544921875,0.181396484375,0.126220703125
8.568,292,1483,593,725,12.0,22.0,24.0,8.23974609375,1.15966796875,-7.080077648162842,-0.833984375,0.103759765625,0.127197265625
8.576,292,1609,634,648,12.0,22.0,24.0,8.23974609375,1.15966796875,-7.080077648162842,-0.8671875,0.068359375,0.1502685546875
8.604,294,1689,582,648,12.0,22.0,24.0,14.404295921325684,-2.990722417831421,1.5869139432907104,-0.9044189453125,0.09033203125,0.163330078125
8.604,292,1813,628,677,12.0,22.0,24.0,12.023924827575684,-6.774901866912842,5.920409679412842,-0.9354248046875,0.146728515625,0.1500244140625
8.607,292,1837,647,667,12.0,22.0,24.0,12.023924827575684,-6.774901866912842,5.920409679412842,-0.951904296875,0.207275390625,0.1212158203125
8.615,294,1936,598,666,12.0,22.0,24.0,7.080077648162842,-10.192870140075684,8.97216796875,-0.951904296875,0.207275390625,0.1212158203125
8.628,295,1952,607,631,12.0,22.0,24.0,0.9765624403953552,-13.000487327575684,9.765625,-0.9310302734375,0.258056640625,0.0726318359375
8.636,294,1996,647,705,11.0,26.0,20.0,-5.0048828125,-15.136717796325684,8.30078125,-0.9310302734375,0.258056640625,0.0726318359375
8.651,298,2061,630,660,11.0,26.0,20.0,-14.526366233825684,-18.5546875,2.807616949081421,-0.9134521484375,0.2491455078125,0.07080078125
8.659,298,2175,698,735,11.0,26.0,20.0,-14.526366233825684,-18.5546875,2.807616949081421,-0.88720703125,0.224365234375,0.0670166015625
8.666,300,2188,773,713,11.0,26.0,20.0,-18.00537109375,-20.202634811401367,-0.3662109076976776,-0.88720703125,0.224365234375,0.0670166015625
