time,compression0,compression1,compression2,compression3,magn_x,magn_y,magn_z,gyro_x,gyro_y,gyro_z,accel_x,accel_y,accel_z
0.005,309,574,642,309,-4.0,37.0,32.0,1.3427733182907104,2.929687261581421,-3.295898199081421,-0.8431396484375,0.48486328125,-0.0875244140625
0.019,309,575,640,310,-4.0,37.0,32.0,1.4038084745407104,2.746581792831421,-3.112792730331421,-0.8399658203125,0.489013671875,-0.0860595703125
0.058,309,577,640,309,-4.0,37.0,32.0,1.7089842557907104,2.44140625,-3.112792730331421,-0.8399658203125,0.489013671875,-0.0860595703125
0.058,311,577,640,308,-4.0,37.0,32.0,1.9531248807907104,2.13623046875,-3.234863042831421,-0.8408203125,0.4957275390625,-0.0899658203125
0.058,309,577,638,287,-4.0,37.0,32.0,1.8310545682907104,1.8920897245407104,-3.417968511581421,-0.840576171875,0.49658203125,-0.0970458984375
0.058,309,575,636,295,-4.0,37.0,32.0,1.4038084745407104,1.8920897245407104,-3.662109136581421,-0.840576171875,0.49658203125,-0.0970458984375
0.065,309,570,636,310,-4.0,37.0,32.0,1.03759765625,1.8920897245407104,-3.784179449081421,-0.8389892578125,0.4896240234375,-0.0965576171875
0.079,310,579,633,309,-4.0,37.0,32.0,0.9155272841453552,1.7700194120407104,-3.906249761581421,-0.837158203125,0.47705078125,-0.0887451171875
0.087,309,579,631,309,-4.0,37.0,32.0,0.8544921278953552,1.2817381620407104,-4.0283203125,-0.837158203125,0.47705078125,-0.0887451171875
0.095,310,579,633,309,-4.0,37.0,32.0,0.9765624403953552,0.4272460639476776,-4.150390625,-0.83935546875,0.477783203125,-0.0870361328125
0.109,309,586,636,310,-2.0,37.0,29.0,1.220703125,-0.4882812201976776,-4.21142578125,-0.843994140625,0.4903564453125,-0.0960693359375
0.117,309,588,635,309,-2.0,37.0,29.0,1.5258787870407104,-1.220703125,-4.39453125,-0.843994140625,0.4903564453125,-0.0960693359375
0.125,311,587,632,309,-2.0,37.0,29.0,1.5869139432907104,-1.7089842557907104,-4.57763671875,-0.84521484375,0.494384765625,-0.10205078125
0.153,310,591,631,310,-2.0,37.0,29.0,1.2817381620407104,-2.13623046875,-4.94384765625,-0.84326171875,0.48779296875,-0.09814453125
0.154,310,576,631,309,-2.0,37.0,29.0,0.9155272841453552,-2.563476324081421,-5.310058116912842,-0.84326171875,0.48779296875,-0.09814453125
0.155,295,591,633,309,-2.0,37.0,29.0,0.6713866591453552,-3.051757574081421,-5.737304210662842,-0.8419189453125,0.4793701171875,-0.0947265625
0.171,309,605,630,311,-2.0,37.0,29.0,0.4882812201976776,-3.723144292831421,-6.042479991912842,-0.8505859375,0.4727783203125,-0.095458984375
0.177,310,606,631,309,-2.0,37.0,29.0,0.3662109076976776,-4.5166015625,-6.042479991912842,-0.8505859375,0.4727783203125,-0.095458984375
0.187,307,605,631,309,-2.0,37.0,29.0,0.4272460639476776,-5.126952648162842,-5.859374523162842,-0.8568115234375,0.476806640625,-0.09814453125
0.199,309,601,627,309,-2.0,36.0,32.0,0.4882812201976776,-5.615233898162842,-5.554198741912842,-0.8670654296875,0.482666015625,-0.100830078125
0.207,309,601,629,310,-2.0,36.0,32.0,0.4272460639476776,-6.042479991912842,-5.432128429412842,-0.8670654296875,0.482666015625,-0.100830078125
0.215,309,601,617,311,-2.0,36.0,32.0,0.4272460639476776,-6.408690929412842,-5.554198741912842,-0.8685302734375,0.4820556640625,-0.0980224609375
0.274,309,589,619,310,-2.0,36.0,32.0,0.6103515625,-6.774901866912842,-6.164550304412842,-0.8736572265625,0.503662109375,-0.0985107421875
0.281,311,591,619,310,-2.0,36.0,32.0,0.54931640625,-7.141112804412842,-7.202147960662842,-0.8736572265625,0.503662109375,-0.0985107421875
0.281,307,582,612,310,-2.0,36.0,32.0,0.1831054538488388,-7.568358898162842,-8.4228515625,-0.8685302734375,0.512451171875,-0.095703125
0.283,309,577,596,311,-2.0,36.0,32.0,-0.0610351525247097,-7.263183116912842,-9.6435546875,-0.8775634765625,0.5233154296875,-0.0948486328125
0.284,308,570,589,309,-2.0,36.0,32.0,-0.4882812201976776,-6.286620616912842,-10.803221702575684,-0.8775634765625,0.5233154296875,-0.0948486328125
0.284,309,564,589,309,-2.0,36.0,32.0,-1.3427733182907104,-5.676269054412842,-12.451170921325684,-0.884033203125,0.5269775390625,-0.08056640625
0.292,309,555,597,308,-2.0,36.0,32.0,-2.685546636581421,-5.737304210662842,-14.892577171325684,-0.888671875,0.5074462890625,-0.0753173828125
0.298,309,545,577,309,-2.0,37.0,33.0,-4.2724609375,-6.103515148162842,-17.51708984375,-0.888671875,0.5074462890625,-0.0753173828125
0.305,307,540,582,310,-2.0,37.0,33.0,-5.126952648162842,-6.591796398162842,-19.6533203125,-0.891845703125,0.4901123046875,-0.078369140625
0.313,309,518,562,309,-2.0,37.0,33.0,-4.8828125,-7.385253429412842,-21.118162155151367,-0.8975830078125,0.474853515625,-0.078369140625
0.328,309,495,537,310,-2.0,37.0,33.0,-3.601073980331421,-7.751464366912842,-22.277830123901367,-0.90576171875,0.4654541015625,-0.0845947265625
0.350,310,493,540,310,-2.0,37.0,33.0,-1.2817381620407104,-7.263183116912842,-23.437498092651367,-0.907470703125,0.4661865234375,-0.0943603515625
0.350,309,500,537,309,-2.0,37.0,33.0,1.220703125,-6.286620616912842,-24.902341842651367,-0.900634765625,0.4732666015625,-0.0977783203125
0.364,308,497,523,310,-2.0,37.0,33.0,2.38037109375,-5.798339366912842,-26.306150436401367,-0.8902587890625,0.4755859375,-0.091064453125
0.367,310,506,510,296,-2.0,37.0,33.0,2.0751953125,-5.615233898162842,-27.282712936401367,-0.880859375,0.4697265625,-0.0836181640625
0.375,309,508,536,309,-2.0,37.0,33.0,0.7934569716453552,-5.126952648162842,-27.832029342651367,-0.8768310546875,0.4669189453125,-0.078369140625
0.393,309,507,548,309,-2.0,37.0,33.0,-1.5258787870407104,-4.94384765625,-27.832029342651367,-0.875732421875,0.471923828125,-0.0645751953125
0.398,309,507,549,310,-1.0,38.0,31.0,-5.249022960662842,-5.554198741912842,-27.282712936401367,-0.8731689453125,0.4779052734375,-0.04443359375
0.404,311,506,562,310,-1.0,38.0,31.0,-10.070799827575684,-6.286620616912842,-26.794431686401367,-0.867919921875,0.4791259765625,-0.030517578125
0.418,309,504,570,311,-1.0,38.0,31.0,-15.014647483825684,-6.530761241912842,-26.672361373901367,-0.8592529296875,0.4683837890625,-0.0281982421875
0.426,309,505,562,309,-1.0,38.0,31.0,-19.1650390625,-5.615233898162842,-26.611326217651367,-0.8486328125,0.440673828125,-0.0362548828125
0.434,309,506,570,311,-1.0,38.0,31.0,-22.338865280151367,-3.540038824081421,-26.123044967651367,-0.8355712890625,0.401123046875,-0.04296875
0.452,309,509,569,309,-1.0,38.0,31.0,-24.658201217651367,-1.220703125,-25.390623092651367,-0.82177734375,0.365478515625,-0.037353515625
0.456,309,506,572,308,-1.0,38.0,31.0,-25.756834030151367,0.30517578125,-24.597166061401367,-0.8104248046875,0.3453369140625,-0.0245361328125
0.472,309,509,570,309,-1.0,38.0,31.0,-25.573728561401367,0.8544921278953552,-23.559568405151367,-0.7999267578125,0.3331298828125,-0.01416015625
0.479,311,516,575,310,-1.0,38.0,31.0,-24.230955123901367,0.3662109076976776,-21.911619186401367,-0.790283203125,0.3170166015625,-0.01318359375
0.492,310,518,578,309,-1.0,38.0,31.0,-21.606443405151367,-0.9765624403953552,-19.287109375,-0.786376953125,0.30322265625,-0.0233154296875
0.495,310,514,577,309,0.0,38.0,33.0,-17.76123046875,-2.807616949081421,-16.2353515625,-0.791259765625,0.3033447265625,-0.03564453125
0.523,309,517,570,309,0.0,38.0,33.0,-13.366698265075684,-5.0048828125,-13.732909202575684,-0.805419921875,0.3123779296875,-0.0411376953125
0.526,306,518,563,309,0.0,38.0,33.0,-9.09423828125,-7.080077648162842,-12.207030296325684,-0.8232421875,0.3177490234375,-0.0364990234375
0.526,310,519,562,309,0.0,38.0,33.0,-4.8828125,-8.36181640625,-11.474608421325684,-0.832763671875,0.314453125,-0.0216064453125
0.554,308,521,552,309,0.0,38.0,33.0,-1.220703125,-8.72802734375,-11.169432640075684,-0.8284912109375,0.3065185546875,-0.0054931640625
0.554,294,523,554,309,0.0,38.0,33.0,1.0986328125,-8.36181640625,-11.535643577575684,-0.8153076171875,0.2945556640625,0.00390625
0.555,295,525,535,311,0.0,38.0,33.0,1.7700194120407104,-7.568358898162842,-12.573241233825684,-0.798095703125,0.27197265625,0.0068359375
0.576,309,533,521,309,0.0,38.0,33.0,1.7089842557907104,-6.896972179412842,-13.671874046325684,-0.778564453125,0.2408447265625,0.0015869140625
0.576,293,512,504,309,0.0,38.0,33.0,2.563476324081421,-6.652831554412842,-14.038084983825684,-0.7625732421875,0.211669921875,-0.0081787109375
0.585,309,536,490,309,0.0,38.0,33.0,5.676269054412842,-7.202147960662842,-13.427733421325684,-0.753173828125,0.1900634765625,-0.0087890625
0.598,309,558,518,309,1.0,35.0,29.0,11.230467796325684,-8.7890625,-11.535643577575684,-0.7706298828125,0.1837158203125,-0.007080078125
0.607,309,607,521,309,1.0,35.0,29.0,19.4091796875,-11.840819358825684,-7.141112804412842,-0.8353271484375,0.2110595703125,-0.0079345703125
0.618,308,683,533,311,1.0,35.0,29.0,28.320310592651367,-16.7236328125,-0.0610351525247097,-0.9010009765625,0.32666015625,0.015625
0.633,309,748,555,311,1.0,35.0,29.0,29.235837936401367,-19.71435546875,6.164550304412842,-0.9320068359375,0.448486328125,0.0211181640625
0.636,310,843,588,309,1.0,35.0,29.0,21.118162155151367,-18.37158203125,9.8876953125,-0.9208984375,0.4625244140625,-0.0435791015625
0.655,310,927,604,310,1.0,35.0,29.0,10.681151390075684,-14.892577171325684,13.183592796325684,-0.857177734375,0.4083251953125,-0.132568359375
0.658,309,1114,673,310,1.0,35.0,29.0,-1.3427733182907104,-11.962889671325684,16.29638671875,-0.76513671875,0.3477783203125,-0.1776123046875
0.666,309,1234,736,310,1.0,35.0,29.0,-13.488768577575684,-12.329100608825684,16.7236328125,-0.6781005859375,0.3402099609375,-0.1495361328125
0.674,311,1351,787,310,1.0,35.0,29.0,-21.484373092651367,-17.08984375,10.925292015075684,-0.58837890625,0.365478515625,-0.07080078125
0.688,310,1503,948,311,0.0,33.0,33.0,-22.888181686401367,-24.291990280151367,-2.868652105331421,-0.53857421875,0.384765625,0.0140380859375
0.696,309,1599,1115,311,0.0,33.0,33.0,-17.39501953125,-30.761716842651367,-22.094724655151367,-0.4638671875,0.39794921875,0.1497802734375
0.714,294,1698,1336,296,0.0,33.0,33.0,-8.48388671875,-34.11865234375,-41.809078216552734,-0.2562255859375,0.2578125,0.271728515625
0.718,310,1820,1591,311,0.0,33.0,33.0,-1.8310545682907104,-32.71484375,-54.626461029052734,-0.040283203125,-0.0091552734375,0.185302734375
0.734,311,1894,1748,311,0.0,33.0,33.0,7.629394054412842,-30.151365280151367,-55.541988372802734,-0.038818359375,-0.0849609375,-0.0223388671875
0.734,311,1981,1877,314,0.0,33.0,33.0,28.015134811401367,-36.0107421875,-48.522945404052734,-0.322021484375,0.1790771484375,-0.1123046875
0.761,310,2106,2047,311,0.0,33.0,33.0,47.058101654052734,-51.269527435302734,-42.663570404052734,-0.7593994140625,0.6116943359375,-0.054931640625
0.763,310,2158,2160,312,0.0,33.0,33.0,45.715328216552734,-63.171382904052734,-41.259761810302734,-1.1591796875,1.072998046875,0.00830078125
0.766,310,2207,2218,297,0.0,33.0,33.0,19.4091796875,-62.866207122802734,-44.555660247802734,-1.4072265625,1.3460693359375,0.04638671875
0.778,313,2254,2394,312,0.0,33.0,33.0,-19.59228515625,-52.978511810302734,-54.992671966552734,-1.585205078125,1.1920166015625,0.0438232421875
0.788,311,2282,2479,312,4.0,32.0,40.0,-48.095699310302734,-40.10009765625,-69.2138671875,-1.9453125,0.5885009765625,0.0263671875
0.802,310,2306,2518,312,4.0,32.0,40.0,-49.377437591552734,-29.479978561401367,-80.078125,-2.3658447265625,-0.05126953125,0.048583984375
0.808,311,2296,2471,312,4.0,32.0,40.0,-29.541013717651367,-24.108884811401367,-78.9794921875,-2.421142578125,-0.30810546875,0.1221923828125
0.817,311,2312,2480,312,4.0,32.0,40.0,-4.45556640625,-20.874021530151367,-62.377925872802734,-1.87548828125,-0.3177490234375,0.1912841796875
0.824,311,2323,2492,312,4.0,32.0,40.0,22.644041061401367,-10.803221702575684,-40.10009765625,-1.2314453125,-0.024169921875,0.2060546875
0.862,311,2322,2468,312,4.0,32.0,40.0,42.602535247802734,2.01416015625,-24.291990280151367,-1.1925048828125,0.447265625,0.204833984375
0.862,311,2308,2379,297,4.0,32.0,40.0,37.4755859375,9.70458984375,-18.24951171875,-1.5372314453125,0.6385498046875,0.1263427734375
0.863,310,2282,2368,312,4.0,32.0,40.0,12.512206077575684,14.038084983825684,-16.90673828125,-1.7728271484375,0.533935546875,0.043701171875
0.869,311,2222,2247,312,4.0,32.0,40.0,-8.7890625,14.160155296325684,-14.770506858825684,-1.7529296875,0.3819580078125,0.060546875
0.877,311,2166,2155,312,4.0,32.0,40.0,-17.08984375,11.901854515075684,-9.82666015625,-1.5877685546875,0.2584228515625,0.1207275390625
0.884,310,2100,2061,312,4.0,30.0,37.0,-18.37158203125,12.634276390075684,-2.01416015625,-1.41650390625,0.194580078125,0.152099609375
0.898,311,1968,1852,311,4.0,30.0,37.0,-17.7001953125,17.15087890625,8.30078125,-1.2734375,0.197998046875,0.1639404296875
0.906,310,1898,1714,312,4.0,30.0,37.0,-16.29638671875,23.559568405151367,19.95849609375,-1.1361083984375,0.15771484375,0.1744384765625
0.914,311,1796,1572,311,4.0,30.0,37.0,-14.343260765075684,31.005857467651367,31.249998092651367,-1.00244140625,0.0606689453125,0.1488037109375
0.928,309,1585,1309,311,4.0,30.0,37.0,-10.742186546325684,37.29248046875,40.344234466552734,-0.829345703125,-0.046875,0.066650390625
0.938,310,1440,1183,311,4.0,30.0,37.0,-3.173827886581421,40.344234466552734,45.776363372802734,-0.6051025390625,-0.102294921875,-0.0517578125
0.944,310,1300,1037,310,4.0,30.0,37.0,9.521484375,39.61181640625,45.593257904052734,-0.43994140625,-0.036865234375,-0.1163330078125
0.968,295,964,854,310,4.0,30.0,37.0,22.155759811401367,36.0107421875,36.68212890625,-0.3900146484375,0.0616455078125,-0.154052734375
0.969,310,858,750,297,4.0,30.0,37.0,25.024412155151367,35.400390625,20.751951217651367,-0.4058837890625,0.1412353515625,-0.24072265625
0.974,309,761,725,309,4.0,30.0,37.0,14.221190452575684,38.330078125,5.126952648162842,-0.451171875,0.25048828125,-0.291015625
0.988,309,636,633,309,1.0,34.0,33.0,-3.051757574081421,37.353515625,-3.601073980331421,-0.5352783203125,0.40576171875,-0.2432861328125
1.007,309,617,607,308,1.0,34.0,33.0,-18.85986328125,29.174802780151367,-0.7324218153953552,-0.6361083984375,0.555419921875,-0.1158447265625
1.009,309,579,562,294,1.0,34.0,33.0,-34.5458984375,18.37158203125,8.1787109375,-0.72265625,0.560302734375,0.0159912109375
1.019,309,547,521,308,1.0,34.0,33.0,-46.874996185302734,11.779784202575684,9.8876953125,-0.774658203125,0.3858642578125,0.066650390625
1.026,311,547,516,310,1.0,34.0,33.0,-43.945308685302734,13.061522483825684,0.4882812201976776,-0.798583984375,0.2022705078125,0.0311279296875
1.034,309,542,530,310,1.0,34.0,33.0,-25.512693405151367,18.798828125,-11.840819358825684,-0.83349609375,0.15966796875,-0.016845703125
1.074,309,527,548,309,1.0,34.0,33.0,6.774901866912842,14.404295921325684,-20.202634811401367,-0.8956298828125,0.2760009765625,0.0526123046875
1.074,309,523,547,310,1.0,34.0,33.0,13.000487327575684,7.873534679412842,-18.9208984375,-0.88623046875,0.2913818359375,0.088623046875
1.079,309,519,549,309,1.0,34.0,33.0,17.63916015625,5.187987804412842,-16.845703125,-0.8623046875,0.30908203125,0.0916748046875
1.086,310,519,548,309,4.0,33.0,33.0,20.629880905151367,5.432128429412842,-13.549803733825684,-0.8323974609375,0.343017578125,0.10205078125
1.095,309,517,558,309,4.0,33.0,33.0,18.73779296875,5.187987804412842,-8.6669921875,-0.7880859375,0.3612060546875,0.12841796875
1.108,309,518,575,308,4.0,33.0,33.0,11.474608421325684,3.601073980331421,-3.540038824081421,-0.7359619140625,0.3404541015625,0.1439208984375
1.116,309,514,572,309,4.0,33.0,33.0,0.9155272841453552,1.2817381620407104,0.6713866591453552,-0.687255859375,0.281494140625,0.1412353515625
1.124,305,514,572,311,4.0,33.0,33.0,-9.521484375,-0.4272460639476776,3.784179449081421,-0.65380859375,0.2135009765625,0.1234130859375
1.140,309,521,566,311,4.0,33.0,33.0,-17.15087890625,-1.0986328125,5.920409679412842,-0.6405029296875,0.1619873046875,0.0955810546875
1.157,309,533,574,309,4.0,33.0,33.0,-20.935056686401367,-1.7089842557907104,7.019042491912842,-0.64453125,0.1324462890625,0.0653076171875
1.172,309,533,575,310,4.0,33.0,33.0,-20.935056686401367,-1.7089842557907104,7.019042491912842,-0.6793212890625,0.104248046875,0.0374755859375
1.172,309,556,542,309,4.0,33.0,33.0,-16.357421875,-5.615233898162842,7.629394054412842,-0.7373046875,0.06298828125,0.0130615234375
1.186,311,627,563,309,4.0,33.0,33.0,-3.784179449081421,-6.774901866912842,9.521484375,-0.7857666015625,0.054931640625,-0.015380859375
1.187,309,684,574,310,2.0,35.0,31.0,-3.784179449081421,-6.774901866912842,9.521484375,-0.8223876953125,0.122314453125,-0.0484619140625
1.198,311,877,601,309,2.0,35.0,31.0,23.498533248901367,-8.1787109375,19.47021484375,-0.8638916015625,0.22705078125,-0.06884765625
1.213,309,989,647,310,2.0,35.0,31.0,20.874021530151367,-11.047362327575684,25.024412155151367,-0.8995361328125,0.3218994140625,-0.08935546875
1.214,309,1086,697,309,2.0,35.0,31.0,20.874021530151367,-11.047362327575684,25.024412155151367,-0.8905029296875,0.400146484375,-0.163330078125
1.228,309,1300,792,310,2.0,35.0,31.0,-12.084959983825684,-11.169432640075684,33.38623046875,-0.812744140625,0.42431640625,-0.278564453125
1.236,309,1399,872,311,2.0,35.0,31.0,-39.61181640625,-12.817381858825684,31.005857467651367,-0.6827392578125,0.358642578125,-0.3232421875
1.244,309,1513,981,311,2.0,35.0,31.0,-39.61181640625,-12.817381858825684,31.005857467651367,-0.5274658203125,0.2354736328125,-0.1904296875
1.272,309,1675,1315,311,2.0,35.0,31.0,-64.14794921875,-37.17041015625,8.30078125,-0.2589111328125,0.077392578125,0.089111328125
1.272,311,1794,1501,294,2.0,35.0,31.0,-38.4521484375,-45.532222747802734,-11.230467796325684,0.1510009765625,-0.13818359375,0.321044921875
1.274,310,1883,1774,311,2.0,35.0,31.0,-38.4521484375,-45.532222747802734,-11.230467796325684,0.4329833984375,-0.378662109375,0.3466796875
1.295,311,2054,2093,311,2.0,33.0,37.0,25.878904342651367,-43.945308685302734,-40.222164154052734,0.3236083984375,-0.395751953125,0.238525390625
1.296,310,2142,2275,298,2.0,33.0,37.0,50.231929779052734,-53.588863372802734,-30.822751998901367,-0.21240234375,0.1624755859375,0.152099609375
1.304,311,2224,2402,312,2.0,33.0,37.0,50.231929779052734,-53.588863372802734,-30.822751998901367,-0.9658203125,1.171875,-0.00048828125
1.320,309,2325,2563,311,2.0,33.0,37.0,25.451658248901367,-59.143062591552734,-7.934569835662842,-1.494384765625,1.8636474609375,-0.1053466796875
1.327,311,2362,2677,312,2.0,33.0,37.0,-27.770994186401367,-45.898433685302734,-19.1650390625,-1.705322265625,1.567626953125,0.0494384765625
1.335,311,2376,2789,316,2.0,33.0,37.0,-27.770994186401367,-45.898433685302734,-19.1650390625,-2.155029296875,0.718505859375,0.2393798828125
1.348,311,2430,2890,313,2.0,33.0,37.0,-79.58984375,-20.568845748901367,-62.316890716552734,-2.8385009765625,-0.1505126953125,0.345458984375
1.375,310,2414,2804,314,2.0,33.0,37.0,-59.265132904052734,-17.39501953125,-63.232418060302734,-3.1251220703125,-0.5281982421875,0.3052978515625
1.376,314,2428,2795,312,2.0,33.0,37.0,-59.265132904052734,-17.39501953125,-63.232418060302734,-2.469482421875,-0.3468017578125,0.1224365234375
1.379,311,2432,2765,312,7.0,32.0,40.0,15.441893577575684,-6.713866710662842,-11.596678733825684,-1.565673828125,0.139404296875,0.0736083984375
1.387,311,2419,2725,312,7.0,32.0,40.0,47.485347747802734,0.2441406100988388,4.57763671875,-1.4112548828125,0.6822509765625,0.1396484375
1.395,310,2394,2673,312,7.0,32.0,40.0,47.485347747802734,0.2441406100988388,4.57763671875,-1.678955078125,0.73486328125,0.14306640625
1.408,311,2344,2561,313,7.0,32.0,40.0,11.108397483825684,17.9443359375,6.225585460662842,-1.8763427734375,0.509765625,0.1697998046875
1.416,308,2306,2467,313,7.0,32.0,40.0,-16.66259765625,22.521970748901367,7.446288585662842,-1.8359375,0.3284912109375,0.2376708984375
1.428,310,2273,2364,312,7.0,32.0,40.0,-16.66259765625,22.521970748901367,7.446288585662842,-1.6217041015625,0.2333984375,0.2713623046875
1.439,310,2160,2155,312,7.0,32.0,40.0,-21.179197311401367,28.198240280151367,15.747069358825684,-1.378662109375,0.16943359375,0.295166015625
1.447,311,2102,2024,312,7.0,32.0,40.0,-5.065917491912842,32.28759765625,19.04296875,-1.16455078125,0.1419677734375,0.298828125
1.455,311,2009,1899,312,7.0,32.0,40.0,-5.065917491912842,32.28759765625,19.04296875,-0.947998046875,0.140625,0.2618408203125
1.477,311,1820,1637,311,7.0,32.0,40.0,43.823238372802734,40.466304779052734,18.24951171875,-0.7694091796875,0.160888671875,0.166748046875
1.477,310,1617,1458,311,4.0,32.0,34.0,66.71142578125,44.067378997802734,14.038084983825684,-0.6318359375,0.220703125,0.0206298828125
1.485,310,1462,1239,311,4.0,32.0,34.0,66.71142578125,44.067378997802734,14.038084983825684,-0.4884033203125,0.2664794921875,-0.129150390625
1.498,310,1025,935,310,4.0,32.0,34.0,68.9697265625,46.813961029052734,2.563476324081421,-0.35400390625,0.312255859375,-0.2425537109375
1.506,310,808,814,311,4.0,32.0,34.0,54.992671966552734,44.738765716552734,-6.835937023162842,-0.2529296875,0.2593994140625,-0.2410888671875
1.520,309,673,714,310,4.0,32.0,34.0,54.992671966552734,44.738765716552734,-6.835937023162842,-0.232421875,0.15478515625,-0.2186279296875
1.535,309,529,599,309,4.0,32.0,34.0,20.751951217651367,37.29248046875,-35.46142578125,-0.3299560546875,0.2427978515625,-0.26806640625
1.536,309,527,571,309,4.0,32.0,34.0,0.30517578125,32.1044921875,-41.259761810302734,-0.5146484375,0.4254150390625,-0.227294921875
1.545,309,503,577,309,4.0,32.0,34.0,0.30517578125,32.1044921875,-41.259761810302734,-0.6839599609375,0.4974365234375,-0.018310546875
1.560,309,502,562,308,4.0,32.0,34.0,-66.46728515625,1.220703125,-31.372068405151367,-0.748779296875,0.417236328125,0.176513671875
1.589,309,486,572,309,4.0,32.0,34.0,-82.15331268310547,-4.57763671875,-24.291990280151367,-0.7310791015625,0.2659912109375,0.1956787109375
1.589,310,480,579,309,6.0,33.0,33.0,-82.15331268310547,-4.57763671875,-24.291990280151367,-0.6982421875,0.1427001953125,0.107666015625
1.589,309,482,600,309,6.0,33.0,33.0,-68.359375,7.263183116912842,-12.268065452575684,-0.7193603515625,0.0919189453125,0.04833984375
1.601,309,480,603,309,6.0,33.0,33.0,-57.189937591552734,9.033203125,-7.690429210662842,-0.798828125,0.0928955078125,0.0665283203125
1.604,309,472,607,308,6.0,33.0,33.0,-57.189937591552734,9.033203125,-7.690429210662842,-0.890625,0.123046875,0.11474609375
1.619,309,472,617,310,6.0,33.0,33.0,-41.687007904052734,1.3427733182907104,-3.356933355331421,-0.9517822265625,0.1856689453125,0.140625
1.632,309,465,607,310,6.0,33.0,33.0,-37.59765625,-1.8920897245407104,-1.3427733182907104,-0.9527587890625,0.2655029296875,0.14404296875
1.641,309,461,609,310,6.0,33.0,33.0,-37.59765625,-1.8920897245407104,-1.3427733182907104,-0.9033203125,0.3331298828125,0.138916015625
1.648,308,464,614,309,6.0,33.0,33.0,-40.588375091552734,-2.746581792831421,1.03759765625,-0.8157958984375,0.3427734375,0.1312255859375
1.656,309,472,614,309,6.0,33.0,33.0,-50.109859466552734,-3.173827886581421,1.7089842557907104,-0.6971435546875,0.2586669921875,0.1038818359375
1.684,307,478,616,309,6.0,33.0,33.0,-50.109859466552734,-3.173827886581421,1.7089842557907104,-0.6971435546875,0.2586669921875,0.1038818359375
1.685,309,463,596,308,5.0,33.0,32.0,-67.81005859375,-2.807616949081421,0.4882812201976776,-0.547119140625,-0.0074462890625,-0.01416015625
1.687,309,481,619,309,5.0,33.0,32.0,-67.81005859375,-2.807616949081421,0.4882812201976776,-0.553955078125,-0.0843505859375,-0.064697265625
1.698,310,493,636,309,5.0,33.0,32.0,-63.354488372802734,-1.7089842557907104,-0.2441406100988388,-0.553955078125,-0.0843505859375,-0.064697265625
1.708,309,523,629,309,5.0,33.0,32.0,-35.21728515625,0.1220703050494194,3.173827886581421,-0.6689453125,-0.1080322265625,-0.131591796875
1.716,310,564,636,309,5.0,33.0,32.0,-35.21728515625,0.1220703050494194,3.173827886581421,-0.7882080078125,-0.1331787109375,-0.1370849609375
1.724,309,616,644,311,5.0,33.0,32.0,-18.4326171875,-1.3427733182907104,7.080077648162842,-0.7882080078125,-0.1331787109375,-0.1370849609375
1.763,309,755,680,311,5.0,33.0,32.0,28.686521530151367,-8.1787109375,19.8974609375,-1.00390625,0.078125,-0.096923828125
1.764,309,809,693,295,5.0,33.0,32.0,28.686521530151367,-8.1787109375,19.8974609375,-1.0501708984375,0.2913818359375,-0.0579833984375
1.784,309,898,754,310,5.0,33.0,32.0,42.236324310302734,-16.4794921875,29.602048873901367,-1.0501708984375,0.2913818359375,-0.0579833984375
1.784,309,1064,848,311,8.0,31.0,33.0,16.2353515625,-29.602048873901367,40.710445404052734,-0.8919677734375,0.4281005859375,-0.1845703125
1.784,309,1167,913,309,8.0,31.0,33.0,16.2353515625,-29.602048873901367,40.710445404052734,-0.7584228515625,0.346923828125,-0.175048828125
1.785,294,1255,1047,311,8.0,31.0,33.0,-11.840819358825684,-31.677244186401367,37.65869140625,-0.7584228515625,0.346923828125,-0.175048828125
1.798,309,1454,1395,311,8.0,31.0,33.0,-40.832515716552734,-35.7666015625,13.671874046325684,-0.4927978515625,0.0452880859375,0.08447265625
1.806,310,1551,1580,311,8.0,31.0,33.0,-40.832515716552734,-35.7666015625,13.671874046325684,-0.181884765625,-0.16943359375,0.1898193359375
1.814,311,1636,1766,312,8.0,31.0,33.0,-27.587888717651367,-34.7900390625,-0.7324218153953552,-0.181884765625,-0.16943359375,0.1898193359375
1.832,310,1753,2076,311,8.0,31.0,33.0,30.761716842651367,-37.59765625,-12.084959983825684,0.1947021484375,-0.2401123046875,0.3128662109375
1.837,311,1838,2247,312,8.0,31.0,33.0,30.761716842651367,-37.59765625,-12.084959983825684,-0.0540771484375,0.1373291015625,0.29443359375
1.845,309,1931,2366,312,8.0,31.0,33.0,56.579586029052734,-49.499507904052734,-7.080077648162842,-0.0540771484375,0.1373291015625,0.29443359375
1.860,311,2026,2532,312,8.0,31.0,33.0,53.039546966552734,-65.36865234375,2.563476324081421,-1.169189453125,1.680908203125,0.08740234375
1.866,310,2080,2616,312,6.0,28.0,34.0,53.039546966552734,-65.36865234375,2.563476324081421,-1.48486328125,1.6729736328125,0.0411376953125
1.886,310,2133,2703,314,6.0,28.0,34.0,23.681638717651367,-54.504390716552734,-10.559081077575684,-1.48486328125,1.6729736328125,0.0411376953125
1.888,311,2213,2833,312,6.0,28.0,34.0,-34.11865234375,-23.193357467651367,-64.8193359375,-2.3607177734375,-0.0797119140625,0.1539306640625
1.898,309,2247,2875,312,6.0,28.0,34.0,-34.11865234375,-23.193357467651367,-64.8193359375,-2.717529296875,-0.43798828125,0.2156982421875
1.906,311,2224,2813,314,6.0,28.0,34.0,-32.40966796875,-18.310546875,-75.8056640625,-2.717529296875,-0.43798828125,0.2156982421875
1.918,311,2195,2760,312,6.0,28.0,34.0,9.765625,-19.95849609375,-39.61181640625,-1.89697265625,0.0711669921875,0.086669921875
1.926,311,2203,2763,312,6.0,28.0,34.0,9.765625,-19.95849609375,-39.61181640625,-1.3297119140625,0.4110107421875,0.0570068359375
1.935,311,2195,2737,312,6.0,28.0,34.0,29.235837936401367,-6.286620616912842,-23.864744186401367,-1.3297119140625,0.4110107421875,0.0570068359375
1.948,311,2150,2656,314,6.0,28.0,34.0,18.4326171875,2.685546636581421,-21.301267623901367,-1.9093017578125,0.501220703125,0.2393798828125
1.999,311,2107,2565,297,6.0,28.0,34.0,18.4326171875,2.685546636581421,-21.301267623901367,-1.9794921875,0.3446044921875,0.232421875
2.002,297,2069,2464,313,6.0,28.0,34.0,-6.958007335662842,5.859374523162842,-21.118162155151367,-1.9794921875,0.3446044921875,0.232421875
2.002,310,1929,2249,314,7.0,30.0,36.0,-28.625486373901367,6.286620616912842,-13.244627952575684,-1.5201416015625,0.191650390625,0.357177734375
2.002,311,1899,2156,312,7.0,30.0,36.0,-28.625486373901367,6.286620616912842,-13.244627952575684,-1.343505859375,0.2196044921875,0.3421630859375
2.002,295,1820,1960,298,7.0,30.0,36.0,-24.902341842651367,13.671874046325684,-5.737304210662842,-1.343505859375,0.2196044921875,0.3421630859375
2.010,311,1682,1739,309,7.0,30.0,36.0,-7.507323741912842,32.1044921875,12.268065452575684,-1.0460205078125,0.1024169921875,0.2763671875
2.017,310,1537,1565,311,7.0,30.0,36.0,-7.507323741912842,32.1044921875,12.268065452575684,-0.8665771484375,-0.1075439453125,0.188720703125
2.024,310,1388,1369,310,7.0,30.0,36.0,4.7607421875,38.9404296875,18.00537109375,-0.8665771484375,-0.1075439453125,0.188720703125
2.038,309,1039,1071,310,7.0,30.0,36.0,29.968259811401367,42.053218841552734,19.6533203125,-0.398193359375,-0.4481201171875,-0.00732421875
2.047,309,871,906,311,7.0,30.0,36.0,29.968259811401367,42.053218841552734,19.6533203125,-0.2679443359375,-0.324951171875,-0.1197509765625
2.055,310,739,769,311,7.0,30.0,36.0,45.166011810302734,40.710445404052734,18.4326171875,-0.2679443359375,-0.324951171875,-0.1197509765625
2.068,309,592,617,309,8.0,30.0,35.0,51.025386810302734,41.992183685302734,11.840819358825684,-0.35107421875,0.1873779296875,-0.350830078125
2.091,310,558,563,309,8.0,30.0,35.0,51.025386810302734,41.992183685302734,11.840819358825684,-0.51123046875,0.4442138671875,-0.3465576171875
2.091,297,548,491,296,8.0,30.0,35.0,34.24072265625,39.306640625,8.72802734375,-0.51123046875,0.4442138671875,-0.3465576171875
2.098,309,529,516,310,8.0,30.0,35.0,4.8828125,21.118162155151367,-14.404295921325684,-0.8311767578125,0.424560546875,-0.0872802734375
2.111,309,527,514,309,8.0,30.0,35.0,4.8828125,21.118162155151367,-14.404295921325684,-0.8524169921875,0.41748046875,-0.014404296875
2.114,311,522,516,309,8.0,30.0,35.0,16.66259765625,17.578125,-28.015134811401367,-0.8524169921875,0.41748046875,-0.014404296875
2.128,310,515,519,309,8.0,30.0,35.0,28.564451217651367,8.60595703125,-27.282712936401367,-0.7427978515625,0.36962890625,0.131591796875
2.136,309,506,533,309,8.0,30.0,35.0,28.564451217651367,8.60595703125,-27.282712936401367,-0.7144775390625,0.283447265625,0.1546630859375
2.145,309,500,536,310,8.0,30.0,35.0,19.04296875,4.5166015625,-25.085447311401367,-0.7144775390625,0.283447265625,0.1546630859375
2.158,309,488,540,309,8.0,30.0,35.0,5.249022960662842,3.784179449081421,-21.850584030151367,-0.717041015625,0.1585693359375,0.123291015625
2.202,311,490,533,309,6.0,31.0,34.0,-5.126952648162842,5.859374523162842,-16.845703125,-0.718994140625,0.129638671875,0.14306640625
2.202,725,3176,540,295,6.0,31.0,34.0,-7.751464366912842,7.202147960662842,-11.291502952575684,-0.718994140625,0.129638671875,0.14306640625
2.202,309,480,531,309,6.0,31.0,34.0,-3.601073980331421,6.042479991912842,-5.737304210662842,-0.6712646484375,0.10888671875,0.198486328125
2.202,309,486,533,309,6.0,31.0,34.0,2.3193359375,3.662109136581421,-0.6713866591453552,-0.6712646484375,0.10888671875,0.198486328125
2.205,309,493,540,309,6.0,31.0,34.0,4.2724609375,1.0986328125,2.807616949081421,-0.6246337890625,0.0804443359375,0.19482421875
2.218,309,507,540,310,6.0,31.0,34.0,0.3662109076976776,-1.6479490995407104,4.638671875,-0.528076171875,-0.01806640625,0.166259765625
2.227,309,518,533,310,6.0,31.0,34.0,-5.920409679412842,-4.150390625,6.469726085662842,-0.528076171875,-0.01806640625,0.166259765625
2.234,309,533,535,309,6.0,31.0,34.0,-9.521484375,-5.920409679412842,10.131834983825684,-0.4918212890625,-0.060546875,0.13330078125
2.248,309,601,536,309,6.0,31.0,34.0,-8.6669921875,-7.202147960662842,16.41845703125,-0.442626953125,-0.13818359375,0.021240234375
2.256,309,710,573,309,6.0,31.0,34.0,-4.21142578125,-8.11767578125,24.963376998901367,-0.442626953125,-0.13818359375,0.021240234375
2.267,311,927,627,310,6.0,32.0,34.0,4.638671875,-8.056640625,35.46142578125,-0.5184326171875,-0.1597900390625,-0.0638427734375
2.299,309,1226,767,309,6.0,32.0,34.0,21.362302780151367,-9.27734375,46.508785247802734,-0.94140625,0.3487548828125,0.0098876953125
2.301,293,1361,861,294,6.0,32.0,34.0,43.334957122802734,-18.06640625,56.823726654052734,-0.94140625,0.3487548828125,0.0098876953125
2.301,310,1538,981,310,6.0,32.0,34.0,57.006832122802734,-26.794431686401367,62.927242279052734,-0.964111328125,0.6839599609375,-0.0947265625
2.310,310,1778,1401,311,6.0,32.0,34.0,43.090816497802734,-27.770994186401367,55.908199310302734,-0.0948486328125,0.085205078125,0.007568359375
2.320,310,1891,1682,312,6.0,32.0,34.0,5.310058116912842,-36.376953125,34.3017578125,-0.0948486328125,0.085205078125,0.007568359375
2.324,309,1994,1933,312,6.0,32.0,34.0,-18.310546875,-53.527828216552734,9.27734375,0.3646240234375,-0.39501953125,0.2554931640625
2.338,308,2175,2268,311,6.0,32.0,34.0,-4.94384765625,-65.61279296875,-8.6669921875,-0.03857421875,-0.244873046875,0.2574462890625
2.347,311,2266,2430,312,6.0,32.0,34.0,32.71484375,-72.8759765625,-11.657713890075684,-0.03857421875,-0.244873046875,0.2574462890625
2.355,311,2328,2539,312,6.0,32.0,34.0,62.194820404052734,-72.93701171875,0.9155272841453552,-0.854736328125,1.1295166015625,0.054931640625
2.373,311,2471,2712,312,8.0,30.0,33.0,46.569820404052734,-59.387203216552734,9.8876953125,-1.572509765625,1.8349609375,0.095703125
2.377,311,2530,2823,312,8.0,30.0,33.0,-8.60595703125,-40.344234466552734,-6.469726085662842,-1.572509765625,1.8349609375,0.095703125
2.397,311,2627,2960,313,8.0,30.0,33.0,-53.588863372802734,-23.071287155151367,-41.809078216552734,-1.8812255859375,0.6884765625,0.2625732421875
2.399,311,2612,2934,312,8.0,30.0,33.0,-61.218257904052734,-12.878417015075684,-69.27490234375,-3.4906005859375,-0.3031005859375,0.47216796875
2.406,311,2607,2916,313,8.0,30.0,33.0,-45.715328216552734,-23.010251998901367,-73.54736328125,-3.4906005859375,-0.3031005859375,0.47216796875
2.422,310,2597,2895,312,8.0,30.0,33.0,-26.611326217651367,-33.75244140625,-56.030269622802734,-2.85498046875,-0.3948974609375,0.198486328125
2.429,311,2562,2857,312,8.0,30.0,33.0,6.164550304412842,-23.742673873901367,-31.066892623901367,-1.1539306640625,0.331787109375,0.0777587890625
2.436,311,2562,2840,312,8.0,30.0,33.0,47.058101654052734,-10.681151390075684,-15.258788108825684,-1.1539306640625,0.331787109375,0.0777587890625
2.445,311,2554,2810,313,8.0,30.0,33.0,59.020992279052734,-0.4272460639476776,-9.70458984375,-1.3616943359375,0.4854736328125,0.14990234375
2.458,310,2494,2710,312,6.0,29.0,35.0,36.9873046875,5.737304210662842,-7.263183116912842,-1.843994140625,0.337646484375,0.390869140625
2.473,311,2458,2624,313,6.0,29.0,35.0,6.774901866912842,3.601073980331421,-3.967284917831421,-1.843994140625,0.337646484375,0.390869140625
2.475,311,2351,2529,312,6.0,29.0,35.0,-12.268065452575684,3.662109136581421,0.1831054538488388,-1.7139892578125,0.28515625,0.3603515625
2.501,310,2287,2318,312,6.0,29.0,35.0,-17.333984375,9.521484375,4.150390625,-1.2537841796875,0.1292724609375,0.31787109375
2.501,311,2186,2197,311,6.0,29.0,35.0,-12.084959983825684,17.9443359375,8.23974609375,-1.2537841796875,0.1292724609375,0.31787109375
2.505,310,2100,2061,312,6.0,29.0,35.0,0.6103515625,24.597166061401367,12.756346702575684,-1.112548828125,0.160888671875,0.2889404296875
2.518,311,1944,1850,311,6.0,29.0,35.0,15.014647483825684,28.015134811401367,15.075682640075684,-0.8790283203125,0.2508544921875,-0.0013427734375
2.533,309,1805,1698,311,6.0,29.0,35.0,24.719236373901367,30.395505905151367,13.305663108825684,-0.8790283203125,0.2508544921875,-0.0013427734375
2.534,310,1648,1550,312,6.0,29.0,35.0,28.869626998901367,32.1044921875,8.9111328125,-0.7626953125,0.2178955078125,-0.107666015625
2.548,309,1336,1234,311,6.0,29.0,35.0,27.038572311401367,32.1044921875,3.967284917831421,-0.4259033203125,0.1173095703125,-0.1253662109375
2.556,309,1117,1064,309,6.0,26.0,40.0,19.59228515625,31.860349655151367,0.0,-0.4259033203125,0.1173095703125,-0.1253662109375
2.564,312,929,929,311,6.0,26.0,40.0,10.864256858825684,33.5693359375,-3.112792730331421,-0.3155517578125,0.04296875,-0.0609130859375
2.579,310,687,747,309,6.0,26.0,40.0,2.25830078125,34.97314453125,-7.385253429412842,-0.3375244140625,0.01025390625,0.01611328125
2.615,309,596,692,309,6.0,26.0,40.0,-7.263183116912842,35.33935546875,-11.840819358825684,-0.3375244140625,0.01025390625,0.01611328125
2.616,295,548,631,293,6.0,26.0,40.0,-15.075682640075684,35.888671875,-13.671874046325684,-0.4346923828125,0.11767578125,-0.0208740234375
2.616,309,524,610,309,6.0,26.0,40.0,-21.728513717651367,33.75244140625,-12.695311546325684,-0.666748046875,0.25732421875,0.0892333984375
2.623,309,519,574,309,6.0,26.0,40.0,-30.151365280151367,26.184080123901367,-8.72802734375,-0.666748046875,0.25732421875,0.0892333984375
2.625,309,496,586,309,6.0,26.0,40.0,-35.33935546875,16.6015625,-3.601073980331421,-0.7664794921875,0.25244140625,0.17041015625
2.639,309,505,574,309,6.0,26.0,40.0,-33.447265625,11.352538108825684,-0.7934569716453552,-0.8955078125,0.1922607421875,0.1116943359375
2.646,309,496,579,311,6.0,26.0,40.0,-27.526853561401367,11.413573265075684,-1.0986328125,-0.8955078125,0.1922607421875,0.1116943359375
2.654,309,494,584,309,7.0,31.0,34.0,-22.583005905151367,12.451170921325684,-3.051757574081421,-0.9129638671875,0.193603515625,0.0936279296875
2.670,309,494,577,309,7.0,31.0,34.0,-20.202634811401367,11.901854515075684,-5.737304210662842,-0.9036865234375,0.197265625,0.112060546875
2.677,307,491,589,309,7.0,31.0,34.0,-18.310546875,10.314940452575684,-8.30078125,-0.8763427734375,0.1781005859375,0.139404296875
2.684,309,488,598,309,7.0,31.0,34.0,-15.014647483825684,8.60595703125,-9.1552734375,-0.844970703125,0.146240234375,0.147216796875
2.711,309,495,605,308,7.0,31.0,34.0,-9.46044921875,7.141112804412842,-7.446288585662842,-0.8209228515625,0.1180419921875,0.1309814453125
2.712,295,507,588,295,7.0,31.0,34.0,-1.9531248807907104,5.737304210662842,-4.21142578125,-0.8016357421875,0.091796875,0.1033935546875
2.715,311,549,612,309,7.0,31.0,34.0,5.432128429412842,4.21142578125,-0.7934569716453552,-0.7760009765625,0.06689453125,0.074951171875
2.728,309,533,620,310,7.0,31.0,34.0,9.94873046875,2.868652105331421,2.563476324081421,-0.750244140625,0.0416259765625,0.04541015625
2.736,309,542,628,307,7.0,31.0,34.0,11.047362327575684,1.7700194120407104,6.286620616912842,-0.741455078125,0.017578125,0.0123291015625
2.745,309,556,632,310,7.0,31.0,34.0,11.169432640075684,0.8544921278953552,10.986327171325684,-0.7540283203125,0.0089111328125,-0.0174560546875
2.758,308,650,636,309,6.0,31.0,35.0,14.221190452575684,-0.2441406100988388,16.7236328125,-0.779541015625,0.0272216796875,-0.0321044921875
2.767,326,659,650,311,6.0,31.0,35.0,20.324705123901367,-2.13623046875,23.193357467651367,-0.8236083984375,0.080078125,-0.0321044921875
2.775,310,736,657,309,6.0,31.0,35.0,24.475095748901367,-5.493163585662842,29.296873092651367,-0.8525390625,0.1400146484375,-0.0035400390625
2.788,309,871,702,309,6.0,31.0,35.0,21.972654342651367,-10.070799827575684,34.11865234375,-0.84716796875,0.157470703125,0.0418701171875
2.817,310,989,738,309,6.0,31.0,35.0,15.136717796325684,-13.122557640075684,38.39111328125,-0.8387451171875,0.1552734375,0.0606689453125
2.818,308,1123,769,309,6.0,31.0,35.0,9.6435546875,-12.756346702575684,42.968746185302734,-0.82568359375,0.1722412109375,0.048828125
2.828,295,1328,871,309,6.0,31.0,35.0,7.141112804412842,-10.253905296325684,46.325679779052734,-0.7828369140625,0.1982421875,0.029052734375
2.828,308,1452,1009,311,6.0,31.0,35.0,7.385253429412842,-8.48388671875,45.715328216552734,-0.6781005859375,0.2119140625,0.012451171875
2.835,309,1575,1246,311,6.0,31.0,35.0,9.21630859375,-10.864256858825684,39.73388671875,-0.4359130859375,0.169921875,0.033935546875
2.848,310,1772,1649,311,6.0,31.0,35.0,10.681151390075684,-18.73779296875,27.221677780151367,-0.0177001953125,-0.023193359375,0.1478271484375
2.856,311,1913,1865,312,5.0,32.0,36.0,11.413573265075684,-29.296873092651367,10.131834983825684,0.419921875,-0.3310546875,0.2694091796875
2.871,311,2048,2066,312,5.0,32.0,36.0,18.00537109375,-39.24560546875,-1.4038084745407104,0.568115234375,-0.4290771484375,0.2669677734375
2.882,311,2252,2330,311,5.0,32.0,36.0,41.076656341552734,-50.292964935302734,-0.4272460639476776,0.182373046875,-0.0242919921875,0.144775390625
2.889,310,2351,2440,312,5.0,32.0,36.0,69.82421875,-58.959957122802734,9.521484375,-0.6214599609375,0.872802734375,-0.093017578125
2.920,311,2415,2517,312,5.0,32.0,36.0,69.15283203125,-53.649898529052734,18.5546875,-1.2945556640625,1.7623291015625,-0.29052734375
2.920,311,2500,2671,312,5.0,32.0,36.0,25.085447311401367,-37.2314453125,9.94873046875,-1.476318359375,1.70947265625,-0.0968017578125
2.920,311,2560,2740,312,5.0,32.0,36.0,-33.87451171875,-22.766111373901367,-19.4091796875,-1.5164794921875,0.7210693359375,0.305908203125
2.926,311,2607,2794,312,5.0,32.0,36.0,-66.22314453125,-12.695311546325684,-46.508785247802734,-1.8651123046875,0.0672607421875,0.3651123046875
2.939,311,2647,2840,312,5.0,32.0,36.0,-57.250972747802734,-7.751464366912842,-51.696773529052734,-2.532470703125,0.1036376953125,0.1915283203125
2.947,312,2622,2793,314,5.0,32.0,36.0,-27.893064498901367,-11.230467796325684,-45.837398529052734,-3.123291015625,0.223388671875,0.146484375
2.954,311,2634,2803,313,6.0,29.0,37.0,-2.3193359375,-14.648436546325684,-40.344234466552734,-2.7178955078125,0.0477294921875,0.1492919921875
2.972,311,2636,2794,312,6.0,29.0,37.0,20.874021530151367,-9.521484375,-31.066892623901367,-1.7452392578125,-0.003662109375,0.1143798828125
2.976,311,2619,2772,312,6.0,29.0,37.0,45.288082122802734,-5.920409679412842,-20.568845748901367,-1.4205322265625,0.350341796875,0.1400146484375
2.985,311,2597,2738,314,6.0,29.0,37.0,50.720211029052734,-6.286620616912842,-12.939452171325684,-1.5933837890625,0.5338134765625,0.2191162109375
3.013,311,2521,2645,312,6.0,29.0,37.0,28.259275436401367,-2.38037109375,-7.995604991912842,-1.76416015625,0.3758544921875,0.31005859375
3.013,310,2461,2544,311,6.0,29.0,37.0,0.6713866591453552,4.8828125,-2.807616949081421,-1.7554931640625,0.164306640625,0.3525390625
3.014,311,2388,2437,311,6.0,29.0,37.0,-13.427733421325684,13.488768577575684,5.371093273162842,-1.60400390625,0.076171875,0.3055419921875
3.036,310,2247,2240,312,6.0,29.0,37.0,-15.075682640075684,21.545408248901367,16.11328125,-1.39208984375,0.0487060546875,0.23291015625
3.039,311,2174,2054,311,6.0,29.0,37.0,-9.33837890625,26.611326217651367,24.719236373901367,-1.17041015625,0.0325927734375,0.1932373046875
3.045,311,2106,1968,315,6.0,29.0,37.0,3.906249761581421,28.442380905151367,27.709959030151367,-0.974609375,0.08447265625,0.152587890625
3.058,311,1920,1764,312,4.0,31.0,39.0,23.681638717651367,29.968259811401367,26.794431686401367,-0.83203125,0.193359375,0.05029296875
3.066,311,1821,1666,312,4.0,31.0,39.0,42.480464935302734,32.04345703125,23.193357467651367,-0.7259521484375,0.2884521484375,-0.0799560546875
3.074,311,1686,1538,311,4.0,31.0,39.0,49.377437591552734,32.89794921875,17.63916015625,-0.6563720703125,0.37060546875,-0.165283203125
3.088,310,1377,1268,311,4.0,31.0,39.0,40.222164154052734,31.494138717651367,11.779784202575684,-0.602294921875,0.4322509765625,-0.19580078125
3.114,307,1183,1079,311,4.0,31.0,39.0,21.606443405151367,29.541013717651367,4.82177734375,-0.4957275390625,0.4281005859375,-0.19873046875
3.114,311,963,907,309,4.0,31.0,39.0,0.9765624403953552,28.747556686401367,-3.295898199081421,-0.371826171875,0.3834228515625,-0.1746826171875
3.119,310,691,738,311,4.0,31.0,39.0,-17.63916015625,28.686521530151367,-10.131834983825684,-0.3065185546875,0.3712158203125,-0.133544921875
3.136,310,628,697,311,4.0,31.0,39.0,-32.65380859375,27.832029342651367,-15.808104515075684,-0.318359375,0.33935546875,-0.0478515625
3.136,295,551,629,295,4.0,31.0,39.0,-42.907711029052734,25.329587936401367,-22.827146530151367,-0.4345703125,0.2333984375,0.0758056640625
3.149,310,486,596,309,5.0,33.0,33.0,-46.813961029052734,22.338865280151367,-29.541013717651367,-0.614501953125,0.12060546875,0.1678466796875
3.156,309,501,588,309,5.0,33.0,33.0,-42.907711029052734,21.850584030151367,-33.99658203125,-0.7724609375,0.0286865234375,0.1822509765625
3.164,309,499,564,309,5.0,33.0,33.0,-29.968259811401367,24.658201217651367,-37.41455078125,-0.8887939453125,-0.0189208984375,0.1368408203125
3.178,309,496,556,310,5.0,33.0,33.0,-13.427733421325684,25.512693405151367,-37.4755859375,-0.9365234375,0.0108642578125,0.103515625
3.188,309,488,551,310,5.0,33.0,33.0,-1.0986328125,21.118162155151367,-32.470703125,-0.907470703125,0.056640625,0.099365234375
3.198,309,493,555,310,5.0,33.0,33.0,6.652831554412842,16.2353515625,-25.512693405151367,-0.8597412109375,0.07080078125,0.083984375
3.218,309,484,548,309,5.0,33.0,33.0,12.390135765075684,14.343260765075684,-18.5546875,-0.83203125,0.07275390625,0.0555419921875
3.218,309,477,555,307,5.0,33.0,33.0,15.869139671325684,14.099120140075684,-11.352538108825684,-0.8331298828125,0.092529296875,0.0338134765625
3.225,310,479,556,309,5.0,33.0,33.0,15.930174827575684,13.366698265075684,-3.967284917831421,-0.8486328125,0.125732421875,0.0325927734375
3.239,309,482,562,309,5.0,33.0,33.0,13.122557640075684,11.108397483825684,2.746581792831421,-0.8580322265625,0.145263671875,0.0482177734375
3.246,308,486,557,309,5.0,31.0,34.0,9.3994140625,8.36181640625,7.690429210662842,-0.8504638671875,0.1448974609375,0.0574951171875
3.255,309,494,562,310,5.0,31.0,34.0,7.080077648162842,6.591796398162842,10.925292015075684,-0.8192138671875,0.1390380859375,0.0518798828125
3.268,309,502,564,309,5.0,31.0,34.0,6.774901866912842,5.859374523162842,13.244627952575684,-0.7698974609375,0.1341552734375,0.0465087890625
3.276,309,516,566,309,5.0,31.0,34.0,7.446288585662842,4.94384765625,15.441893577575684,-0.72216796875,0.125244140625,0.054443359375
3.284,309,523,574,310,5.0,31.0,34.0,8.1787109375,3.112792730331421,18.24951171875,-0.6954345703125,0.10595703125,0.07080078125
3.298,309,554,593,309,5.0,31.0,34.0,9.82666015625,0.9155272841453552,22.155759811401367,-0.6842041015625,0.0833740234375,0.0802001953125
3.326,309,592,624,309,5.0,31.0,34.0,14.160155296325684,-0.54931640625,27.038572311401367,-0.6708984375,0.06591796875,0.071533203125
3.326,293,673,661,309,5.0,31.0,34.0,21.118162155151367,-0.6103515625,32.1044921875,-0.6685791015625,0.068603515625,0.0430908203125
3.328,311,936,702,309,5.0,31.0,34.0,27.404783248901367,-0.3662109076976776,36.865234375,-0.6793212890625,0.1282958984375,0.0223388671875
3.344,309,1091,750,310,5.0,31.0,34.0,28.076169967651367,-2.746581792831421,40.710445404052734,-0.6981201171875,0.1888427734375,0.041748046875
3.350,310,1255,793,309,2.0,32.0,36.0,25.268552780151367,-7.446288585662842,44.189449310302734,-0.724853515625,0.22509765625,0.0694580078125
3.359,310,1471,882,311,2.0,32.0,36.0,28.625486373901367,-11.230467796325684,47.058101654052734,-0.71630859375,0.3162841796875,0.0142822265625
3.367,309,1595,968,310,2.0,32.0,36.0,34.36279296875,-14.953612327575684,45.043941497802734,-0.5997314453125,0.3853759765625,-0.079345703125
3.374,309,1724,1141,310,2.0,32.0,36.0,27.221677780151367,-23.559568405151367,33.26416015625,-0.383544921875,0.282470703125,-0.0218505859375
3.388,311,1996,1513,311,2.0,32.0,36.0,6.713866710662842,-37.41455078125,11.535643577575684,-0.117431640625,0.0223388671875,0.28076171875
3.397,310,2122,1745,311,2.0,32.0,36.0,-2.01416015625,-49.621578216552734,-11.596678733825684,0.0843505859375,-0.1641845703125,0.5196533203125
3.423,311,2259,1907,312,2.0,32.0,36.0,22.094724655151367,-52.185054779052734,-23.803709030151367,0.0242919921875,-0.0758056640625,0.2496337890625
3.423,311,2432,2114,312,2.0,32.0,36.0,66.83349609375,-47.973628997802734,-21.850584030151367,-0.3155517578125,0.272705078125,-0.3218994140625
3.427,311,2511,2225,312,2.0,32.0,36.0,95.15380096435547,-44.006343841552734,-12.634276390075684,-0.7593994140625,0.8553466796875,-0.669677734375
3.434,311,2582,2339,312,2.0,32.0,36.0,78.91845703125,-37.90283203125,-9.33837890625,-1.1058349609375,1.3262939453125,-0.657470703125
3.451,310,2663,2503,312,4.0,30.0,34.0,17.7001953125,-28.930662155151367,-23.742673873901367,-1.3360595703125,1.2037353515625,-0.35498046875
3.457,311,2692,2582,312,4.0,30.0,34.0,-54.687496185302734,-23.925779342651367,-49.987789154052734,-1.5970458984375,0.6629638671875,0.0045166015625
3.465,311,2727,2677,312,4.0,30.0,34.0,-92.71239471435547,-23.925779342651367,-69.091796875,-2.0166015625,0.318115234375,0.17919921875
3.480,311,2751,2773,312,4.0,30.0,34.0,-88.68407440185547,-27.587888717651367,-74.8291015625,-2.61962890625,0.1751708984375,0.290283203125
3.487,311,2745,2725,312,4.0,30.0,34.0,-65.673828125,-33.8134765625,-73.3642578125,-3.032958984375,0.049072265625,0.443359375
3.497,311,2756,2729,312,4.0,30.0,34.0,-40.283199310302734,-34.60693359375,-63.781734466552734,-2.421142578125,-0.2501220703125,0.4493408203125
3.526,311,2744,2707,312,4.0,30.0,34.0,-3.540038824081421,-22.766111373901367,-46.325679779052734,-1.42919921875,-0.3797607421875,0.359130859375
3.527,311,2731,2684,312,4.0,30.0,34.0,38.6962890625,-8.6669921875,-26.184080123901367,-1.2227783203125,0.068359375,0.30908203125
3.527,312,2703,2650,313,4.0,30.0,34.0,48.339839935302734,2.929687261581421,-9.46044921875,-1.528564453125,0.439697265625,0.229248046875
3.542,311,2636,2559,313,5.0,29.0,37.0,20.446775436401367,14.404295921325684,-0.3662109076976776,-1.8070068359375,0.3792724609375,0.20849609375
3.562,310,2576,2491,311,5.0,29.0,37.0,-10.742186546325684,21.179197311401367,5.554198741912842,-1.8427734375,0.12548828125,0.2271728515625
3.562,311,2494,2403,312,5.0,29.0,37.0,-21.484373092651367,23.986814498901367,14.160155296325684,-1.7176513671875,-0.005859375,0.1749267578125
3.569,311,2368,2238,312,5.0,29.0,37.0,-14.526366233825684,23.681638717651367,24.902341842651367,-1.5169677734375,0.023193359375,0.1143798828125
3.577,310,2282,2104,312,5.0,29.0,37.0,-2.563476324081421,22.094724655151367,34.11865234375,-1.316162109375,0.1199951171875,0.100830078125
3.585,311,2192,1980,312,5.0,29.0,37.0,5.187987804412842,21.423337936401367,39.1845703125,-1.1400146484375,0.2447509765625,0.1134033203125
3.599,311,2007,1757,311,5.0,29.0,37.0,7.629394054412842,23.376462936401367,39.97802734375,-0.977294921875,0.2860107421875,0.0946044921875
3.607,311,1886,1625,311,5.0,29.0,37.0,8.85009765625,29.541013717651367,38.0859375,-0.8634033203125,0.229736328125,0.0198974609375
3.626,309,1734,1456,312,5.0,29.0,37.0,10.925292015075684,36.2548828125,34.72900390625,-0.766845703125,0.189697265625,-0.0704345703125
3.629,312,1417,1142,311,5.0,29.0,37.0,12.695311546325684,38.57421875,29.907224655151367,-0.5985107421875,0.1927490234375,-0.1519775390625
3.637,309,1215,963,310,4.0,32.0,35.0,14.160155296325684,38.0859375,23.742673873901367,-0.3839111328125,0.22216796875,-0.2081298828125
3.647,310,980,832,311,4.0,32.0,35.0,13.488768577575684,37.04833984375,14.465331077575684,-0.213134765625,0.1754150390625,-0.1934814453125
3.668,311,718,698,310,4.0,32.0,35.0,10.253905296325684,37.17041015625,0.4882812201976776,-0.1630859375,0.11181640625,-0.149658203125
3.669,309,593,656,309,4.0,32.0,35.0,4.2724609375,38.57421875,-12.145995140075684,-0.2626953125,0.1878662109375,-0.0626220703125
3.675,309,504,612,311,4.0,32.0,35.0,-8.60595703125,35.15625,-18.49365234375,-0.426025390625,0.2840576171875,0.08935546875
3.689,309,504,600,310,4.0,32.0,35.0,-27.709959030151367,27.832029342651367,-18.98193359375,-0.594482421875,0.314453125,0.199951171875
3.697,308,502,601,309,4.0,32.0,35.0,-45.410152435302734,21.545408248901367,-14.526366233825684,-0.7467041015625,0.32080078125,0.221923828125
3.705,309,490,593,309,4.0,32.0,35.0,-54.931636810302734,16.90673828125,-9.521484375,-0.8511962890625,0.29541015625,0.1678466796875
3.730,0,479,597,309,4.0,32.0,35.0,-55.114742279052734,14.892577171325684,-7.507323741912842,-0.925048828125,0.239990234375,0.07861328125
3.730,309,477,601,308,4.0,32.0,35.0,-48.400875091552734,15.014647483825684,-7.934569835662842,-0.97705078125,0.1861572265625,0.0030517578125
3.735,309,480,601,309,6.0,33.0,39.0,-39.55078125,15.075682640075684,-8.36181640625,-0.990234375,0.1417236328125,-0.042724609375
3.750,309,493,603,309,6.0,33.0,39.0,-32.77587890625,13.183592796325684,-7.446288585662842,-0.947998046875,0.1048583984375,-0.0474853515625
3.756,873,475,607,309,6.0,33.0,39.0,-27.038572311401367,9.765625,-5.0048828125,-0.8626708984375,0.0899658203125,-0.02197265625
3.778,309,480,612,309,6.0,33.0,39.0,-27.038572311401367,9.765625,-5.0048828125,-0.779052734375,0.110595703125,0.0013427734375
3.778,309,488,617,310,6.0,33.0,39.0,-10.986327171325684,5.554198741912842,2.746581792831421,-0.7122802734375,0.1478271484375,0.0184326171875
3.786,309,493,627,309,6.0,33.0,39.0,-3.540038824081421,5.065917491912842,6.286620616912842,-0.647216796875,0.1639404296875,0.039794921875
3.796,309,494,620,309,6.0,33.0,39.0,-3.540038824081421,5.065917491912842,6.286620616912842,-0.5916748046875,0.148681640625,0.0587158203125
3.809,309,497,614,309,6.0,33.0,39.0,0.6103515625,3.356933355331421,8.97216796875,-0.559326171875,0.1044921875,0.07470703125
3.831,310,500,614,310,6.0,33.0,39.0,-2.868652105331421,0.9765624403953552,9.033203125,-0.5435791015625,0.0384521484375,0.0806884765625
3.831,309,523,628,309,6.0,33.0,39.0,-2.868652105331421,0.9765624403953552,9.033203125,-0.5516357421875,-0.037353515625,0.0633544921875
3.839,309,739,645,309,4.0,30.0,34.0,-3.479003667831421,-3.723144292831421,10.803221702575684,-0.578369140625,-0.1146240234375,0.0367431640625
3.852,310,888,659,309,4.0,30.0,34.0,11.474608421325684,-5.0048828125,15.563963890075684,-0.6226806640625,-0.0950927734375,0.010986328125
3.855,310,1074,671,309,4.0,30.0,34.0,11.474608421325684,-5.0048828125,15.563963890075684,-0.7152099609375,0.1004638671875,0.009521484375
3.868,309,1308,710,310,4.0,30.0,34.0,46.386714935302734,-16.05224609375,34.60693359375,-0.8863525390625,0.3402099609375,0.065185546875
3.876,309,1407,749,309,4.0,30.0,34.0,49.011226654052734,-26.489255905151367,40.710445404052734,-1.008544921875,0.490234375,0.047607421875
3.885,311,1533,816,309,4.0,30.0,34.0,49.011226654052734,-26.489255905151367,40.710445404052734,-0.9056396484375,0.5399169921875,-0.114990234375
3.898,309,1763,1047,311,4.0,30.0,34.0,36.376953125,-30.029294967651367,34.66796875,-0.51953125,0.44775390625,-0.123046875
3.907,310,1852,1280,310,4.0,30.0,34.0,16.6015625,-40.832515716552734,14.892577171325684,0.018798828125,0.1898193359375,0.03173828125
3.915,310,1894,1540,311,4.0,30.0,34.0,16.6015625,-40.832515716552734,14.892577171325684,0.4200439453125,-0.20849609375,0.06494140625
3.936,310,2122,1937,311,4.0,30.0,34.0,-11.596678733825684,-56.579586029052734,-36.376953125,0.540283203125,-0.555908203125,0.1131591796875
3.937,295,2278,2063,311,2.0,32.0,38.0,7.629394054412842,-60.119625091552734,-39.48974609375,0.2474365234375,-0.4844970703125,0.1876220703125
3.945,310,2392,2259,311,2.0,32.0,38.0,7.629394054412842,-60.119625091552734,-39.48974609375,-0.5399169921875,0.2935791015625,-0.0299072265625
3.960,311,2551,2480,311,2.0,32.0,38.0,67.19970703125,-40.832515716552734,-2.746581792831421,-1.4166259765625,1.4527587890625,-0.4378662109375
3.970,311,2620,2581,312,2.0,32.0,38.0,23.071287155151367,-26.916501998901367,4.638671875,-1.8468017578125,1.7120361328125,-0.4310302734375
3.974,311,2648,2689,312,2.0,32.0,38.0,23.071287155151367,-26.916501998901367,4.638671875,-2.0626220703125,0.8629150390625,-0.0565185546875
3.990,311,2751,2888,312,2.0,32.0,38.0,-106.68944549560547,-24.902341842651367,-36.07177734375,-2.50927734375,-0.0379638671875,0.2994384765625
3.999,311,2736,2835,313,2.0,32.0,38.0,-102.53905487060547,-32.53173828125,-43.151851654052734,-3.2071533203125,-0.136474609375,0.547607421875
4.004,311,2745,2813,312,2.0,32.0,38.0,-102.53905487060547,-32.53173828125,-43.151851654052734,-2.963134765625,-0.043701171875,0.4951171875
4.038,310,2749,2759,312,2.0,32.0,38.0,-33.99658203125,-29.968259811401367,-5.065917491912842,-1.7138671875,-0.20751953125,0.3662109375
4.039,296,2738,2720,312,2.0,32.0,38.0,23.986814498901367,-10.742186546325684,2.685546636581421,-1.012939453125,0.0789794921875,0.408935546875
4.040,311,2729,2709,312,2.0,29.0,37.0,23.986814498901367,-10.742186546325684,2.685546636581421,-1.114990234375,0.5020751953125,0.278564453125
4.048,311,2701,2659,312,2.0,29.0,37.0,73.54736328125,15.014647483825684,0.7934569716453552,-1.5445556640625,0.7120361328125,0.021484375
4.057,311,2672,2612,313,2.0,29.0,37.0,43.579097747802734,20.446775436401367,-3.112792730331421,-1.832275390625,0.6851806640625,-0.005126953125
4.064,311,2630,2552,312,2.0,29.0,37.0,43.579097747802734,20.446775436401367,-3.112792730331421,-1.8326416015625,0.441650390625,0.07958984375
4.079,311,2524,2410,312,2.0,29.0,37.0,-19.10400390625,12.329100608825684,-9.46044921875,-1.658935546875,0.2459716796875,0.134033203125
4.090,311,2461,2312,312,2.0,29.0,37.0,-18.310546875,13.183592796325684,-9.21630859375,-1.4285888671875,0.181396484375,0.19189453125
4.095,311,2386,2204,311,2.0,29.0,37.0,-18.310546875,13.183592796325684,-9.21630859375,-1.2445068359375,0.154541015625,0.2589111328125
4.114,310,2207,1981,311,2.0,29.0,37.0,10.498045921325684,20.385740280151367,-5.920409679412842,-1.1380615234375,0.200927734375,0.2313232421875
4.117,307,2093,1873,311,2.0,29.0,37.0,24.780271530151367,24.108884811401367,-2.44140625,-1.0260009765625,0.2833251953125,0.0833740234375
4.140,309,1959,1750,311,2.0,29.0,37.0,24.780271530151367,24.108884811401367,-2.44140625,-0.887939453125,0.278564453125,-0.07470703125
4.140,309,1681,1463,312,4.0,32.0,39.0,35.46142578125,27.893064498901367,-3.784179449081421,-0.75732421875,0.216552734375,-0.16162109375
4.147,309,1464,1289,310,4.0,32.0,39.0,33.38623046875,26.489255905151367,-7.751464366912842,-0.592529296875,0.156982421875,-0.18505859375
4.162,309,1222,1086,310,4.0,32.0,39.0,33.38623046875,26.489255905151367,-7.751464366912842,-0.384521484375,0.068359375,-0.15185546875
4.169,310,855,837,310,4.0,32.0,39.0,16.4794921875,27.465818405151367,-13.549803733825684,-0.2225341796875,-0.044677734375,-0.07373046875
4.177,309,698,747,309,4.0,32.0,39.0,7.995604991912842,31.249998092651367,-19.10400390625,-0.206298828125,-0.07421875,-0.0367431640625
4.184,309,592,679,309,4.0,32.0,39.0,7.995604991912842,31.249998092651367,-19.10400390625,-0.301513671875,0.0286865234375,-0.013916015625
4.198,311,500,631,309,4.0,32.0,39.0,-4.39453125,34.36279296875,-30.761716842651367,-0.4384765625,0.165283203125,0.0560302734375
4.208,310,491,629,309,4.0,32.0,39.0,-16.78466796875,26.428220748901367,-30.761716842651367,-0.6099853515625,0.2611083984375,0.1448974609375
4.223,309,488,620,309,4.0,32.0,39.0,-16.78466796875,26.428220748901367,-30.761716842651367,-0.7308349609375,0.281494140625,0.2108154296875
4.241,308,493,619,308,4.0,30.0,37.0,-37.841796875,8.9111328125,-16.66259765625,-0.755126953125,0.2083740234375,0.171142578125
4.243,310,490,625,309,4.0,30.0,37.0,-37.109375,10.925292015075684,-10.986327171325684,-0.7574462890625,0.1302490234375,0.0511474609375
4.245,309,488,620,309,4.0,30.0,37.0,-37.109375,10.925292015075684,-10.986327171325684,-0.79638671875,0.1015625,-0.030517578125
4.262,309,479,620,308,4.0,30.0,37.0,-34.11865234375,16.845703125,-4.7607421875,-0.871826171875,0.09521484375,-0.03759765625
4.266,309,479,616,311,4.0,30.0,37.0,-34.11865234375,16.845703125,-4.7607421875,-0.93701171875,0.0986328125,0.0052490234375
4.274,309,488,617,309,4.0,30.0,37.0,-35.33935546875,13.732909202575684,-3.906249761581421,-0.93701171875,0.0986328125,0.0052490234375
4.288,309,488,625,309,4.0,30.0,37.0,-29.052732467651367,5.798339366912842,-2.868652105331421,-0.9586181640625,0.15625,0.0924072265625
4.302,309,488,630,309,4.0,30.0,37.0,-29.052732467651367,5.798339366912842,-2.868652105331421,-0.94287109375,0.1832275390625,0.096923828125
4.306,309,490,632,309,4.0,30.0,37.0,-20.141599655151367,5.126952648162842,-1.4038084745407104,-0.94287109375,0.1832275390625,0.096923828125
4.319,309,488,630,309,4.0,30.0,37.0,-3.112792730331421,6.103515148162842,1.15966796875,-0.8896484375,0.1416015625,0.0555419921875
4.344,309,488,643,309,6.0,32.0,32.0,-3.112792730331421,6.103515148162842,1.15966796875,-0.853271484375,0.109130859375,0.0408935546875
4.344,309,497,652,309,6.0,32.0,32.0,0.6103515625,5.065917491912842,3.356933355331421,-0.853271484375,0.109130859375,0.0408935546875
4.348,305,500,660,309,6.0,32.0,32.0,-0.3662109076976776,1.8310545682907104,8.9111328125,-0.7786865234375,0.08642578125,0.0169677734375
4.357,309,504,664,309,6.0,32.0,32.0,-0.3662109076976776,1.8310545682907104,8.9111328125,-0.77197265625,0.073486328125,0.00048828125
4.366,309,507,665,309,6.0,32.0,32.0,-1.4038084745407104,1.5869139432907104,11.169432640075684,-0.77197265625,0.073486328125,0.00048828125
4.379,309,529,666,309,6.0,32.0,32.0,3.662109136581421,1.5258787870407104,16.66259765625,-0.8394775390625,0.03466796875,-0.0325927734375
4.387,310,546,666,309,6.0,32.0,32.0,3.662109136581421,1.5258787870407104,16.66259765625,-0.887451171875,0.0318603515625,-0.0306396484375
4.395,309,556,673,309,6.0,32.0,32.0,9.27734375,-0.3662109076976776,21.240232467651367,-0.887451171875,0.0318603515625,-0.0306396484375
4.410,309,644,694,309,6.0,32.0,32.0,19.1650390625,-6.774901866912842,33.87451171875,-0.957275390625,0.0986328125,-0.0029296875
4.417,309,696,710,309,6.0,32.0,32.0,19.1650390625,-6.774901866912842,33.87451171875,-0.9501953125,0.1390380859375,0.016845703125
4.424,309,777,722,309,4.0,32.0,35.0,18.798828125,-9.94873046875,40.10009765625,-0.9501953125,0.1390380859375,0.016845703125
4.451,309,916,755,308,4.0,32.0,35.0,8.544921875,-10.192870140075684,52.124019622802734,-0.8760986328125,0.150634765625,-0.0186767578125
4.451,309,1037,788,309,4.0,32.0,35.0,8.544921875,-10.192870140075684,52.124019622802734,-0.776123046875,0.1370849609375,-0.0343017578125
4.454,310,1185,799,309,4.0,32.0,35.0,1.3427733182907104,-7.385253429412842,58.532711029052734,-0.776123046875,0.1370849609375,-0.0343017578125
4.471,309,1444,928,311,4.0,32.0,35.0,-10.620116233825684,-11.230467796325684,60.180660247802734,-0.4119873046875,0.126220703125,0.0255126953125
4.477,310,1591,1117,311,4.0,32.0,35.0,-10.620116233825684,-11.230467796325684,60.180660247802734,-0.0208740234375,0.079833984375,0.0849609375
4.485,309,1695,1384,311,4.0,32.0,35.0,-4.21142578125,-21.057126998901367,50.170894622802734,-0.0208740234375,0.079833984375,0.0849609375
4.498,311,1913,1834,314,4.0,32.0,35.0,18.49365234375,-47.790523529052734,2.38037109375,0.5938720703125,-0.2867431640625,0.28857421875
4.508,311,2050,2018,312,4.0,32.0,35.0,18.49365234375,-47.790523529052734,2.38037109375,0.3310546875,-0.1505126953125,0.229248046875
4.522,310,2183,2168,311,4.0,32.0,35.0,31.555173873901367,-64.39208984375,-13.916014671325684,0.3310546875,-0.1505126953125,0.229248046875
4.528,311,2352,2354,312,1.0,29.0,38.0,68.54248046875,-56.579586029052734,6.652831554412842,-1.1500244140625,1.5850830078125,-0.537109375
4.551,311,2444,2444,312,1.0,29.0,38.0,68.54248046875,-56.579586029052734,6.652831554412842,-1.4486083984375,1.850341796875,-0.454833984375
4.551,311,2530,2548,311,1.0,29.0,38.0,45.532222747802734,-38.14697265625,5.981444835662842,-1.4486083984375,1.850341796875,-0.454833984375
4.562,310,2636,2668,312,1.0,29.0,38.0,-67.3828125,-35.0341796875,-53.039546966552734,-1.6121826171875,0.156494140625,0.4376220703125
4.570,311,2686,2744,313,1.0,29.0,38.0,-67.3828125,-35.0341796875,-53.039546966552734,-2.190673828125,-0.014404296875,0.341552734375
4.575,311,2730,2813,312,1.0,29.0,38.0,-78.06396484375,-35.94970703125,-64.75830078125,-2.190673828125,-0.014404296875,0.341552734375
4.588,311,2725,2790,314,1.0,29.0,38.0,-32.3486328125,-35.2783203125,-46.447750091552734,-3.106689453125,0.1634521484375,0.251708984375
4.597,310,2741,2795,313,1.0,29.0,38.0,-32.3486328125,-35.2783203125,-46.447750091552734,-2.0411376953125,-0.281005859375,0.28125
4.607,310,2738,2788,312,1.0,29.0,38.0,-17.578125,-26.123044967651367,-36.19384765625,-2.0411376953125,-0.281005859375,0.28125
4.628,311,2725,2775,312,5.0,29.0,35.0,44.921871185302734,-3.234863042831421,-11.474608421325684,-1.2279052734375,0.498779296875,0.1976318359375
4.629,311,2703,2745,312,5.0,29.0,35.0,44.921871185302734,-3.234863042831421,-11.474608421325684,-1.529052734375,0.6998291015625,0.1497802734375
4.650,307,2677,2703,313,5.0,29.0,35.0,40.0390625,4.7607421875,-7.873534679412842,-1.529052734375,0.6998291015625,0.1497802734375
4.651,311,2591,2607,313,5.0,29.0,35.0,-11.779784202575684,11.657713890075684,-15.808104515075684,-1.696533203125,0.2476806640625,0.272216796875
4.657,311,2524,2527,312,5.0,29.0,35.0,-11.779784202575684,11.657713890075684,-15.808104515075684,-1.543701171875,0.14404296875,0.2239990234375
4.673,311,2445,2432,313,5.0,29.0,35.0,-17.822265625,13.610838890075684,-15.991209983825684,-1.543701171875,0.14404296875,0.2239990234375
4.684,311,2306,2233,312,5.0,29.0,35.0,-3.173827886581421,17.27294921875,-7.446288585662842,-1.2779541015625,0.21435546875,0.18212890625
4.687,310,2207,2089,312,5.0,29.0,35.0,-3.173827886581421,17.27294921875,-7.446288585662842,-1.19189453125,0.2408447265625,0.1785888671875
4.694,311,2102,1949,312,5.0,29.0,35.0,3.112792730331421,19.95849609375,-4.33349609375,-1.19189453125,0.2408447265625,0.1785888671875
4.710,311,1886,1689,312,5.0,29.0,35.0,13.183592796325684,31.860349655151367,1.2817381620407104,-0.984375,0.24755859375,-0.0087890625
4.718,311,1738,1516,311,4.0,29.0,39.0,13.183592796325684,31.860349655151367,1.2817381620407104,-0.8685302734375,0.1578369140625,-0.07275390625
4.728,311,1485,1305,310,4.0,29.0,39.0,14.831542015075684,36.92626953125,2.01416015625,-0.8685302734375,0.1578369140625,-0.07275390625
4.754,309,1039,964,311,4.0,29.0,39.0,6.408690929412842,41.442867279052734,1.5869139432907104,-0.4693603515625,-0.09765625,-0.09375
4.754,309,827,816,309,4.0,29.0,39.0,6.408690929412842,41.442867279052734,1.5869139432907104,-0.3050537109375,-0.1771240234375,-0.04541015625
4.757,308,616,705,309,4.0,29.0,39.0,4.94384765625,42.724605560302734,1.03759765625,-0.3050537109375,-0.1771240234375,-0.04541015625
4.770,309,481,628,309,4.0,29.0,39.0,7.324218273162842,41.870113372802734,-2.0751953125,-0.3800048828125,0.048583984375,-0.044677734375
4.777,309,481,593,309,4.0,29.0,39.0,8.4228515625,39.36767578125,-8.60595703125,-0.3800048828125,0.048583984375,-0.044677734375
4.788,309,478,589,309,4.0,29.0,39.0,1.4648436307907104,34.423828125,-15.502928733825684,-0.57470703125,0.2337646484375,-0.0416259765625
4.799,308,465,588,310,4.0,29.0,39.0,-18.00537109375,24.047849655151367,-18.37158203125,-0.84423828125,0.3131103515625,0.058349609375
4.808,309,472,591,309,4.0,29.0,39.0,-37.65869140625,14.160155296325684,-17.4560546875,-0.84423828125,0.3131103515625,0.058349609375
4.816,309,465,600,309,5.0,32.0,38.0,-39.73388671875,12.634276390075684,-13.427733421325684,-0.8275146484375,0.3046875,0.0267333984375
4.835,309,452,612,309,5.0,32.0,38.0,-28.564451217651367,15.991209983825684,-7.202147960662842,-0.782958984375,0.282470703125,-0.0255126953125
4.837,309,451,620,309,5.0,32.0,38.0,-19.287109375,18.12744140625,-3.723144292831421,-0.782958984375,0.282470703125,-0.0255126953125
4.854,309,452,633,309,5.0,32.0,38.0,-16.9677734375,18.00537109375,-5.249022960662842,-0.7877197265625,0.1929931640625,0.000244140625
4.858,309,452,644,311,5.0,32.0,38.0,-18.00537109375,16.90673828125,-8.48388671875,-0.7767333984375,0.0399169921875,0.0970458984375
4.873,309,453,644,310,5.0,32.0,38.0,-16.9677734375,15.563963890075684,-9.58251953125,-0.7767333984375,0.0399169921875,0.0970458984375
4.874,309,464,651,309,5.0,32.0,38.0,-10.742186546325684,14.343260765075684,-6.774901866912842,-0.7467041015625,0.02783203125,0.1260986328125
4.888,307,465,652,310,5.0,32.0,38.0,-1.15966796875,13.183592796325684,-0.30517578125,-0.6207275390625,0.080078125,0.11767578125
4.899,309,469,645,310,5.0,32.0,38.0,7.385253429412842,11.535643577575684,7.202147960662842,-0.6207275390625,0.080078125,0.11767578125
4.904,308,475,644,309,5.0,32.0,38.0,11.413573265075684,8.9111328125,13.000487327575684,-0.56591796875,0.070556640625,0.1175537109375
4.919,309,478,631,309,4.0,32.0,34.0,8.85009765625,5.187987804412842,16.41845703125,-0.51416015625,-0.02392578125,0.13916015625
4.934,309,479,632,309,4.0,32.0,34.0,0.4882812201976776,0.7324218153953552,18.5546875,-0.51416015625,-0.02392578125,0.13916015625
4.958,309,480,631,309,4.0,32.0,34.0,-8.97216796875,-3.112792730331421,20.629880905151367,-0.4835205078125,-0.0728759765625,0.122314453125
4.959,309,504,601,309,4.0,32.0,34.0,-14.221190452575684,-5.126952648162842,23.803709030151367,-0.3717041015625,-0.112548828125,0.0115966796875
4.960,309,579,631,309,4.0,32.0,34.0,-13.610838890075684,-5.126952648162842,29.174802780151367,-0.3717041015625,-0.112548828125,0.0115966796875
4.965,310,816,675,309,4.0,32.0,34.0,-8.30078125,-4.45556640625,37.109375,-0.3912353515625,-0.1495361328125,-0.057861328125
4.978,305,1213,801,309,4.0,32.0,34.0,7.507323741912842,-5.981444835662842,46.203609466552734,-0.87255859375,0.1800537109375,0.0858154296875
4.987,309,1348,923,309,4.0,32.0,34.0,37.109375,-16.90673828125,57.006832122802734,-0.87255859375,0.1800537109375,0.0858154296875
4.994,309,1480,1114,311,4.0,32.0,34.0,69.4580078125,-35.33935546875,66.46728515625,-0.9248046875,0.57421875,0.0904541015625
5.011,311,1695,1610,311,4.0,32.0,34.0,83.80126190185547,-42.175289154052734,62.805171966552734,0.015869140625,0.4366455078125,-0.3824462890625
5.018,311,1805,1852,311,4.0,33.0,34.0,51.574703216552734,-43.151851654052734,36.92626953125,0.015869140625,0.4366455078125,-0.3824462890625
5.026,309,1934,2052,312,4.0,33.0,34.0,-15.502928733825684,-57.006832122802734,-1.5258787870407104,0.3460693359375,-0.1798095703125,-0.0716552734375
5.038,311,2179,2354,311,4.0,33.0,34.0,-44.006343841552734,-70.6787109375,-28.198240280151367,-0.461181640625,-0.0301513671875,-0.0643310546875
5.059,309,2290,2475,312,4.0,33.0,34.0,-4.8828125,-72.81494140625,-27.587888717651367,-0.461181640625,-0.0301513671875,-0.0643310546875
5.059,310,2360,2560,312,4.0,33.0,34.0,32.89794921875,-68.17626953125,-7.141112804412842,-1.166748046875,1.20166015625,-0.2705078125
5.070,311,2489,2718,312,4.0,33.0,34.0,5.676269054412842,-61.157222747802734,6.286620616912842,-1.41552734375,1.3560791015625,0.392822265625
5.078,311,2599,2891,314,4.0,33.0,34.0,-69.3359375,-53.649898529052734,-7.812499523162842,-1.41552734375,1.3560791015625,0.392822265625
5.084,310,2677,3015,312,4.0,33.0,34.0,-127.13622283935547,-42.480464935302734,-35.94970703125,-1.86865234375,0.2994384765625,0.944580078125
5.098,309,2683,2920,313,4.0,33.0,34.0,-125.97655487060547,-37.41455078125,-53.283687591552734,-3.4215087890625,-0.3187255859375,0.7626953125
5.106,311,2691,2898,314,4.0,33.0,34.0,-87.64647674560547,-39.55078125,-46.569820404052734,-3.4215087890625,-0.3187255859375,0.7626953125
5.116,311,2701,2877,312,5.0,31.0,38.0,-27.221677780151367,-14.831542015075684,-20.996091842651367,-2.33984375,-0.539794921875,-0.12158203125
5.131,311,2674,2803,312,5.0,31.0,38.0,51.879878997802734,13.427733421325684,3.601073980331421,-0.9813232421875,0.580078125,-0.1673583984375
5.137,311,2662,2804,314,5.0,31.0,38.0,98.75487518310547,9.1552734375,11.169432640075684,-0.9813232421875,0.580078125,-0.1673583984375
5.165,311,2656,2795,313,5.0,31.0,38.0,86.66991424560547,4.5166015625,1.8310545682907104,-1.35498046875,0.6947021484375,-0.0062255859375
5.165,311,2607,2746,313,5.0,31.0,38.0,44.372554779052734,11.779784202575684,-9.33837890625,-1.9232177734375,0.59765625,0.251220703125
5.170,309,2548,2689,312,5.0,31.0,38.0,-0.6713866591453552,13.122557640075684,-14.648436546325684,-1.9232177734375,0.59765625,0.251220703125
5.176,311,2500,2630,313,5.0,31.0,38.0,-31.860349655151367,10.437010765075684,-16.78466796875,-1.822509765625,0.4608154296875,0.27783203125
5.189,311,2370,2443,312,5.0,31.0,38.0,-39.48974609375,12.695311546325684,-18.73779296875,-1.328857421875,0.3309326171875,0.1326904296875
5.196,311,2263,2312,312,5.0,31.0,38.0,-31.066892623901367,17.578125,-20.935056686401367,-1.328857421875,0.3309326171875,0.1326904296875
5.205,311,2150,2175,312,5.0,31.0,38.0,-15.869139671325684,23.193357467651367,-23.071287155151367,-1.1927490234375,0.3240966796875,0.1220703125
5.221,311,1920,1951,312,5.0,29.0,31.0,1.4038084745407104,31.311033248901367,-23.742673873901367,-1.0064697265625,0.363037109375,0.0194091796875
5.229,310,1730,1798,312,5.0,29.0,31.0,10.559081077575684,40.0390625,-23.437498092651367,-1.0064697265625,0.363037109375,0.0194091796875
5.239,310,1481,1604,311,5.0,29.0,31.0,5.920409679412842,46.203609466552734,-24.597166061401367,-0.8756103515625,0.1768798828125,0.075439453125
5.269,309,1091,1201,311,5.0,29.0,31.0,-5.0048828125,49.316402435302734,-26.000974655151367,-0.5125732421875,-0.3404541015625,0.2777099609375
5.270,309,856,1005,311,5.0,29.0,31.0,-10.131834983825684,51.635738372802734,-25.024412155151367,-0.5125732421875,-0.3404541015625,0.2777099609375
5.270,309,644,806,311,5.0,29.0,31.0,-4.33349609375,53.588863372802734,-20.385740280151367,-0.3861083984375,-0.441650390625,0.32080078125
5.278,310,500,657,310,5.0,29.0,31.0,6.469726085662842,52.917476654052734,-13.610838890075684,-0.3509521484375,-0.395263671875,0.30615234375
5.305,310,480,625,309,5.0,29.0,31.0,14.282225608825684,51.025386810302734,-9.3994140625,-0.365966796875,-0.3050537109375,0.2191162109375
5.316,309,483,629,309,5.0,29.0,31.0,16.6015625,49.438472747802734,-5.859374523162842,-0.4786376953125,-0.0919189453125,0.090576171875
5.322,311,447,619,309,7.0,29.0,36.0,10.131834983825684,43.457027435302734,3.051757574081421,-0.6221923828125,0.2265625,0.0059814453125
5.330,309,449,636,309,7.0,29.0,36.0,-7.446288585662842,32.1044921875,13.916014671325684,-0.6678466796875,0.406005859375,-0.025146484375
5.343,309,445,636,309,7.0,29.0,36.0,-27.404783248901367,24.414060592651367,20.568845748901367,-0.675048828125,0.385498046875,-0.0675048828125
5.343,311,431,643,309,7.0,29.0,36.0,-36.7431640625,24.658201217651367,23.376462936401367,-0.7071533203125,0.300048828125,-0.122314453125
5.374,309,445,647,309,7.0,29.0,36.0,-34.423828125,26.733396530151367,24.597166061401367,-0.740234375,0.2303466796875,-0.13037109375
5.376,309,445,653,310,7.0,29.0,36.0,-27.465818405151367,24.902341842651367,24.291990280151367,-0.7596435546875,0.1842041015625,-0.0833740234375
5.377,307,439,657,309,7.0,29.0,36.0,-19.83642578125,20.080564498901367,20.874021530151367,-0.7802734375,0.16845703125,-0.0250244140625
5.377,309,445,654,308,7.0,29.0,36.0,-13.122557640075684,15.991209983825684,14.587401390075684,-0.799560546875,0.18603515625,0.0111083984375
5.387,308,445,661,309,7.0,29.0,36.0,-8.1787109375,14.404295921325684,7.690429210662842,-0.8067626953125,0.21630859375,0.0321044921875
5.398,309,461,673,308,7.0,29.0,36.0,-4.2724609375,13.793944358825684,2.990722417831421,-0.7979736328125,0.2415771484375,0.05029296875
5.407,309,454,673,309,5.0,30.0,39.0,-1.15966796875,12.451170921325684,1.220703125,-0.77294921875,0.251220703125,0.06005859375
5.415,308,463,671,308,5.0,30.0,39.0,0.7934569716453552,10.131834983825684,1.15966796875,-0.7398681640625,0.2261962890625,0.053955078125
5.430,308,467,671,309,5.0,30.0,39.0,0.8544921278953552,7.202147960662842,1.4038084745407104,-0.7030029296875,0.1600341796875,0.0372314453125
5.443,309,479,673,310,5.0,30.0,39.0,-1.15966796875,4.2724609375,1.7700194120407104,-0.66259765625,0.0740966796875,0.021484375
5.444,309,483,669,310,5.0,30.0,39.0,-3.662109136581421,1.8920897245407104,2.3193359375,-0.626708984375,0.0030517578125,0.0040283203125
5.477,309,490,668,308,5.0,30.0,39.0,-5.249022960662842,-0.0610351525247097,3.784179449081421,-0.6055908203125,-0.0361328125,-0.0218505859375
5.478,309,494,667,309,5.0,30.0,39.0,-5.065917491912842,-2.01416015625,6.591796398162842,-0.603271484375,-0.0516357421875,-0.052734375
5.478,309,514,652,308,5.0,30.0,39.0,-2.3193359375,-4.150390625,11.230467796325684,-0.6270751953125,-0.07763671875,-0.0809326171875
5.494,310,650,689,309,5.0,30.0,39.0,5.676269054412842,-6.042479991912842,17.578125,-0.673095703125,-0.14013671875,-0.103759765625
5.498,309,873,716,311,5.0,30.0,39.0,22.277830123901367,-7.873534679412842,27.770994186401367,-0.701904296875,-0.149169921875,-0.1298828125
5.505,309,1064,765,311,5.0,32.0,37.0,41.931148529052734,-11.535643577575684,44.128414154052734,-0.7554931640625,0.0306396484375,-0.150146484375
5.519,309,1282,873,310,5.0,32.0,37.0,49.804683685302734,-23.193357467651367,61.096187591552734,-0.88525390625,0.3590087890625,-0.1055908203125
5.533,307,1457,989,311,5.0,32.0,37.0,44.555660247802734,-40.10009765625,68.90869140625,-0.8870849609375,0.6209716796875,-0.0888671875
5.540,310,1593,1185,310,5.0,32.0,37.0,33.0810546875,-49.194332122802734,60.485836029052734,-0.5694580078125,0.5909423828125,-0.078369140625
5.548,310,1811,1648,311,5.0,32.0,37.0,14.892577171325684,-55.297847747802734,36.7431640625,-0.0152587890625,0.2388916015625,0.09326171875
5.591,310,1920,1874,312,5.0,32.0,37.0,0.3662109076976776,-65.185546875,8.056640625,0.4859619140625,-0.263916015625,0.1544189453125
5.594,310,1974,2069,311,5.0,32.0,37.0,9.33837890625,-76.11083984375,-13.671874046325684,0.60498046875,-0.6143798828125,0.0869140625
5.594,311,2246,2432,311,5.0,32.0,37.0,44.433589935302734,-88.43993377685547,-21.972654342651367,0.2210693359375,-0.4512939453125,0.211669921875
5.594,295,2339,2548,312,5.0,32.0,37.0,83.43505096435547,-89.41649627685547,-15.624999046325684,-0.6619873046875,0.57275390625,0.179931640625
5.595,311,2443,2659,312,5.0,32.0,37.0,80.13916015625,-67.5048828125,-0.4272460639476776,-1.556884765625,2.0093994140625,-0.29052734375
5.609,311,2516,2876,312,5.0,31.0,37.0,8.11767578125,-40.588375091552734,-0.6713866591453552,-1.9305419921875,2.218505859375,-0.4957275390625
5.618,311,2647,3024,314,5.0,31.0,37.0,-90.75926971435547,-27.160642623901367,-29.174802780151367,-2.23388671875,0.97412109375,-0.1741943359375
5.629,311,2658,3055,313,5.0,31.0,37.0,-147.88818359375,-28.137205123901367,-61.889644622802734,-2.9830322265625,-0.217529296875,0.4296875
5.641,311,2634,2973,314,5.0,31.0,37.0,-144.4091796875,-47.668453216552734,-65.24658203125,-3.4400634765625,-0.6229248046875,0.8524169921875
5.647,311,2636,2950,312,5.0,31.0,37.0,-97.65624237060547,-54.199214935302734,-34.1796875,-2.583251953125,-0.63037109375,0.662109375
5.654,311,2619,2901,313,5.0,31.0,37.0,-14.770506858825684,-26.855466842651367,-0.1220703050494194,-1.27978515625,-0.2620849609375,0.4730224609375
5.673,311,2612,2854,312,5.0,31.0,37.0,64.0869140625,-0.1831054538488388,15.197752952575684,-0.8153076171875,0.3507080078125,0.3756103515625
5.697,311,2605,2840,312,5.0,31.0,37.0,89.90477752685547,18.1884765625,15.136717796325684,-1.094970703125,0.6416015625,0.0762939453125
5.701,311,2586,2803,313,5.0,31.0,37.0,66.89453125,27.832029342651367,9.58251953125,-1.583251953125,0.6983642578125,-0.0980224609375
5.701,297,2529,2692,314,4.0,26.0,39.0,21.118162155151367,21.545408248901367,5.187987804412842,-1.85595703125,0.61669921875,-0.0355224609375
5.709,311,2484,2627,312,4.0,26.0,39.0,-20.141599655151367,11.657713890075684,2.38037109375,-1.8052978515625,0.4334716796875,0.0865478515625
5.716,311,2419,2535,309,4.0,26.0,39.0,-38.14697265625,8.6669921875,0.8544921278953552,-1.574462890625,0.3001708984375,0.189697265625
5.733,311,2306,2337,312,4.0,26.0,39.0,-35.82763671875,12.084959983825684,0.7934569716453552,-1.353759765625,0.233154296875,0.292236328125
5.741,311,2222,2197,312,4.0,26.0,39.0,-24.108884811401367,18.310546875,2.01416015625,-1.2371826171875,0.1822509765625,0.3739013671875
5.745,311,2135,2060,312,4.0,26.0,39.0,-7.324218273162842,25.634763717651367,4.8828125,-1.170654296875,0.1646728515625,0.347900390625
5.807,311,1945,1825,312,4.0,26.0,39.0,11.962889671325684,33.203125,8.36181640625,-1.07763671875,0.1429443359375,0.2198486328125
5.809,311,1809,1697,312,4.0,26.0,39.0,28.503416061401367,38.75732421875,9.6435546875,-0.939453125,0.0811767578125,0.111572265625
5.810,311,1659,1540,311,4.0,26.0,39.0,36.43798828125,40.710445404052734,8.36181640625,-0.7470703125,0.041259765625,0.0474853515625
5.810,310,1306,1236,311,4.0,26.0,39.0,34.912109375,41.564937591552734,7.446288585662842,-0.551025390625,0.0386962890625,-0.0145263671875
5.810,309,1105,1064,311,5.0,32.0,40.0,28.503416061401367,44.311519622802734,8.544921875,-0.395263671875,0.019775390625,-0.08203125
5.810,309,876,864,310,5.0,32.0,40.0,21.240232467651367,48.950191497802734,9.94873046875,-0.3203125,0.0098876953125,-0.109619140625
5.820,310,631,705,310,5.0,32.0,40.0,15.197752952575684,51.208492279052734,7.995604991912842,-0.3358154296875,0.041748046875,-0.1087646484375
5.832,309,535,664,309,5.0,32.0,40.0,10.375975608825684,49.865718841552734,2.38037109375,-0.403564453125,0.1502685546875,-0.150390625
5.841,309,477,616,309,5.0,32.0,40.0,3.784179449081421,45.471187591552734,-2.50244140625,-0.506103515625,0.299072265625,-0.1810302734375
5.851,309,476,593,310,5.0,32.0,40.0,-8.056640625,36.1328125,-4.7607421875,-0.662353515625,0.380126953125,-0.1246337890625
5.858,309,472,591,309,5.0,32.0,40.0,-21.118162155151367,24.780271530151367,-6.469726085662842,-0.815673828125,0.394775390625,-0.0372314453125
5.886,309,461,589,310,5.0,32.0,40.0,-26.123044967651367,19.1650390625,-10.498045921325684,-0.8712158203125,0.3619384765625,-0.03173828125
5.886,293,456,601,309,5.0,32.0,40.0,-23.681638717651367,20.874021530151367,-15.197752952575684,-0.8450927734375,0.3028564453125,-0.0731201171875
5.892,309,450,607,311,5.0,32.0,40.0,-22.155759811401367,22.827146530151367,-17.2119140625,-0.790283203125,0.2362060546875,-0.0626220703125
5.916,309,447,614,310,3.0,31.0,34.0,-23.681638717651367,20.996091842651367,-16.66259765625,-0.758544921875,0.1727294921875,-0.00927734375
5.922,309,441,628,311,3.0,31.0,34.0,-24.658201217651367,16.90673828125,-14.221190452575684,-0.764404296875,0.1282958984375,0.0491943359375
5.924,307,441,633,295,3.0,31.0,34.0,-22.521970748901367,13.122557640075684,-10.253905296325684,-0.7845458984375,0.1046142578125,0.10009765625
5.926,309,437,636,310,3.0,31.0,34.0,-15.869139671325684,10.986327171325684,-5.981444835662842,-0.8013916015625,0.1046142578125,0.1337890625
5.937,309,441,642,309,3.0,31.0,34.0,-4.69970703125,10.498045921325684,-1.8310545682907104,-0.8121337890625,0.129638671875,0.1473388671875
5.953,309,447,646,310,3.0,31.0,34.0,7.934569835662842,10.498045921325684,1.9531248807907104,-0.811279296875,0.1595458984375,0.1534423828125
5.958,309,449,650,309,3.0,31.0,34.0,16.90673828125,9.27734375,4.57763671875,-0.797119140625,0.174072265625,0.1572265625
5.985,309,465,650,308,3.0,31.0,34.0,18.310546875,6.347655773162842,5.737304210662842,-0.769775390625,0.158935546875,0.153076171875
5.985,309,454,620,294,3.0,31.0,34.0,13.671874046325684,2.807616949081421,6.042479991912842,-0.7275390625,0.119140625,0.1285400390625
5.988,309,465,644,310,3.0,31.0,34.0,8.9111328125,0.3662109076976776,6.774901866912842,-0.678466796875,0.081787109375,0.0799560546875
6.009,306,473,644,309,5.0,33.0,34.0,7.995604991912842,-0.7324218153953552,8.544921875,-0.6357421875,0.0570068359375,0.02587890625
6.010,291,487,619,310,5.0,33.0,34.0,10.864256858825684,-1.6479490995407104,11.535643577575684,-0.6156005859375,0.0206298828125,-0.0130615234375
6.017,309,538,620,309,5.0,33.0,34.0,17.822265625,-2.929687261581421,16.11328125,-0.61474609375,-0.037109375,-0.035888671875
6.026,310,636,645,309,5.0,33.0,34.0,30.334470748901367,-4.33349609375,23.193357467651367,-0.601806640625,-0.0728759765625,-0.054443359375
6.045,310,928,713,310,5.0,33.0,34.0,45.349117279052734,-5.798339366912842,33.3251953125,-0.636474609375,0.008056640625,-0.08251953125
6.052,309,1107,777,311,5.0,33.0,34.0,52.368160247802734,-11.657713890075684,43.640132904052734,-0.756591796875,0.1910400390625,-0.068359375
6.056,309,1236,869,311,5.0,33.0,34.0,49.499507904052734,-23.864744186401367,50.781246185302734,-0.784423828125,0.39306640625,-0.0517578125
6.088,309,1501,1142,309,5.0,33.0,34.0,44.921871185302734,-32.5927734375,50.415035247802734,-0.5574951171875,0.5087890625,-0.185302734375
6.088,310,1636,1377,311,5.0,33.0,34.0,32.89794921875,-38.26904296875,37.4755859375,-0.148681640625,0.369873046875,-0.2540283203125
6.088,309,1769,1607,310,5.0,33.0,34.0,6.530761241912842,-52.856441497802734,13.244627952575684,0.18408203125,-0.031494140625,-0.00732421875
6.100,311,1968,1968,312,0.0,30.0,33.0,-9.33837890625,-70.12939453125,-10.864256858825684,0.2381591796875,-0.4141845703125,0.290283203125
6.116,311,2100,2135,312,0.0,30.0,33.0,12.756346702575684,-73.974609375,-21.606443405151367,-0.0517578125,-0.3775634765625,0.31884765625
6.116,311,2220,2287,311,0.0,30.0,33.0,53.649898529052734,-62.438961029052734,-14.526366233825684,-0.643310546875,0.346923828125,0.0225830078125
6.128,310,2366,2461,312,0.0,30.0,33.0,60.791011810302734,-45.837398529052734,2.624511480331421,-1.18603515625,1.384033203125,-0.4027099609375
6.144,311,2428,2578,312,0.0,30.0,33.0,15.930174827575684,-35.46142578125,7.934569835662842,-1.3858642578125,1.72021484375,-0.4710693359375
6.148,296,2493,2667,312,0.0,30.0,33.0,-49.560543060302734,-38.87939453125,-11.230467796325684,-1.431640625,1.08447265625,-0.0849609375
6.158,310,2621,2874,313,0.0,30.0,33.0,-93.50585174560547,-47.485347747802734,-37.7197265625,-1.7615966796875,0.3626708984375,0.1884765625
6.167,311,2684,2963,314,0.0,30.0,33.0,-93.07860565185547,-48.889156341552734,-50.537105560302734,-2.587646484375,0.1363525390625,0.30419921875
6.186,311,2679,2925,314,0.0,30.0,33.0,-70.98388671875,-53.894039154052734,-50.537105560302734,-3.2982177734375,0.1434326171875,0.472412109375
6.190,309,2695,2905,312,0.0,30.0,33.0,-57.739253997802734,-57.006832122802734,-42.480464935302734,-2.74267578125,-0.1358642578125,0.4910888671875
6.197,311,2683,2866,314,6.0,32.0,36.0,-24.536130905151367,-37.9638671875,-27.770994186401367,-1.500244140625,-0.236572265625,0.40771484375
6.209,310,2674,2840,313,6.0,32.0,36.0,35.21728515625,-15.258788108825684,-13.488768577575684,-0.9827880859375,0.1650390625,0.3079833984375
6.221,311,2654,2803,312,6.0,32.0,36.0,68.29833984375,-1.4648436307907104,-6.713866710662842,-1.20751953125,0.4825439453125,0.14306640625
6.227,311,2613,2772,312,6.0,32.0,36.0,59.448238372802734,7.019042491912842,-7.080077648162842,-1.63671875,0.61669921875,0.0660400390625
6.234,311,2587,2739,314,6.0,32.0,36.0,28.503416061401367,5.737304210662842,-9.521484375,-1.8267822265625,0.572998046875,0.143798828125
6.254,311,2512,2636,313,6.0,32.0,36.0,-1.8920897245407104,1.5258787870407104,-12.023924827575684,-1.71875,0.397216796875,0.2080078125
6.261,311,2432,2543,312,6.0,32.0,36.0,-14.648436546325684,2.13623046875,-12.878417015075684,-1.505126953125,0.265625,0.1929931640625
6.265,311,2375,2440,313,6.0,32.0,36.0,-10.437010765075684,7.385253429412842,-11.352538108825684,-1.324951171875,0.1990966796875,0.1822509765625
6.290,311,3176,2247,312,6.0,32.0,36.0,-0.8544921278953552,14.465331077575684,-7.568358898162842,-1.2203369140625,0.14794921875,0.201904296875
6.290,311,2117,2122,311,6.0,32.0,36.0,5.310058116912842,22.705076217651367,-1.3427733182907104,-1.160888671875,0.1136474609375,0.1846923828125
6.298,310,2009,1994,312,4.0,28.0,39.0,6.164550304412842,32.3486328125,6.774901866912842,-1.0933837890625,0.0850830078125,0.1414794921875
6.311,311,1745,1754,312,4.0,28.0,39.0,2.563476324081421,41.076656341552734,15.197752952575684,-0.995849609375,0.0506591796875,0.1185302734375
6.328,311,1535,1608,312,4.0,28.0,39.0,-2.929687261581421,46.020503997802734,21.484373092651367,-0.8409423828125,0.0323486328125,0.1087646484375
6.328,310,1387,1430,311,4.0,28.0,39.0,-7.385253429412842,47.180171966552734,23.254392623901367,-0.6092529296875,-0.0118408203125,0.11181640625
6.344,309,980,1061,309,4.0,28.0,39.0,-7.141112804412842,47.058101654052734,20.263669967651367,-0.3858642578125,-0.1055908203125,0.125732421875
6.349,309,822,922,309,4.0,28.0,39.0,0.4882812201976776,47.912593841552734,15.319823265075684,-0.285888671875,-0.0806884765625,0.1185302734375
6.355,308,661,780,309,4.0,28.0,39.0,0.4882812201976776,47.912593841552734,15.319823265075684,-0.3343505859375,0.11474609375,0.0469970703125
6.370,309,475,636,310,4.0,28.0,39.0,16.11328125,43.701168060302734,-3.662109136581421,-0.4371337890625,0.2921142578125,-0.0455322265625
6.392,309,475,579,311,4.0,28.0,39.0,7.324218273162842,36.31591796875,-13.671874046325684,-0.5537109375,0.3701171875,-0.086669921875
6.392,309,477,555,311,4.0,28.0,39.0,7.324218273162842,36.31591796875,-13.671874046325684,-0.732177734375,0.4517822265625,-0.11083984375
6.400,309,452,577,309,4.0,31.0,35.0,-8.30078125,24.536130905151367,-15.624999046325684,-0.86767578125,0.5142822265625,-0.164306640625
6.414,309,451,586,309,4.0,31.0,35.0,-5.187987804412842,23.437498092651367,-20.996091842651367,-0.8853759765625,0.4844970703125,-0.192138671875
6.417,309,461,601,296,4.0,31.0,35.0,-5.187987804412842,23.437498092651367,-20.996091842651367,-0.8450927734375,0.4002685546875,-0.1353759765625
6.436,310,465,617,311,4.0,31.0,35.0,-17.63916015625,15.563963890075684,-26.916501998901367,-0.7882080078125,0.2882080078125,-0.0352783203125
6.438,0,433,627,309,4.0,31.0,35.0,-28.198240280151367,10.986327171325684,-25.756834030151367,-0.7503662109375,0.176025390625,0.039306640625
6.447,309,442,635,307,4.0,31.0,35.0,-28.198240280151367,10.986327171325684,-25.756834030151367,-0.742431640625,0.0941162109375,0.0777587890625
6.458,309,440,644,309,4.0,31.0,35.0,-25.817869186401367,10.803221702575684,-20.446775436401367,-0.748046875,0.0565185546875,0.10791015625
6.476,309,445,644,309,4.0,31.0,35.0,-16.9677734375,10.620116233825684,-14.831542015075684,-0.75244140625,0.06298828125,0.14453125
6.477,309,440,644,309,4.0,31.0,35.0,-16.9677734375,10.620116233825684,-14.831542015075684,-0.7490234375,0.0869140625,0.17822265625
6.495,308,439,650,309,4.0,31.0,36.0,1.7700194120407104,6.530761241912842,-1.5258787870407104,-0.736328125,0.10302734375,0.1923828125
6.499,309,445,656,308,4.0,31.0,36.0,7.812499523162842,4.638671875,3.601073980331421,-0.7177734375,0.108154296875,0.1864013671875
6.508,310,441,657,310,4.0,31.0,36.0,7.812499523162842,4.638671875,3.601073980331421,-0.689208984375,0.095947265625,0.1719970703125
6.520,309,437,644,310,4.0,31.0,36.0,0.7324218153953552,0.2441406100988388,7.873534679412842,-0.656005859375,0.0650634765625,0.14404296875
6.527,307,445,644,310,4.0,31.0,36.0,-9.70458984375,-0.9765624403953552,8.9111328125,-0.6339111328125,0.0262451171875,0.1002197265625
6.542,309,451,643,309,4.0,31.0,36.0,-9.70458984375,-0.9765624403953552,8.9111328125,-0.6285400390625,-0.0135498046875,0.0535888671875
6.550,309,465,640,309,4.0,31.0,36.0,-17.15087890625,0.1831054538488388,13.122557640075684,-0.6375732421875,-0.0484619140625,0.009033203125
6.557,309,465,633,309,4.0,31.0,36.0,-11.718749046325684,1.0986328125,16.9677734375,-0.6458740234375,-0.073974609375,-0.033935546875
6.569,309,483,619,310,4.0,31.0,36.0,-11.718749046325684,1.0986328125,16.9677734375,-0.632080078125,-0.097900390625,-0.070068359375
6.599,310,570,640,309,4.0,31.0,36.0,5.554198741912842,1.7089842557907104,31.494138717651367,-0.6431884765625,-0.1683349609375,-0.1097412109375
6.599,310,787,706,309,4.0,31.0,35.0,19.22607421875,1.9531248807907104,42.846675872802734,-0.6947021484375,-0.20654296875,-0.161865234375
6.599,309,1120,780,310,4.0,31.0,35.0,19.22607421875,1.9531248807907104,42.846675872802734,-0.730224609375,-0.03173828125,-0.1568603515625
6.612,308,1449,1025,311,4.0,31.0,35.0,53.283687591552734,-13.732909202575684,77.7587890625,-0.6868896484375,0.300048828125,-0.040283203125
6.619,310,1620,1292,311,4.0,31.0,35.0,61.828609466552734,-32.16552734375,83.49608612060547,-0.3638916015625,0.54931640625,-0.046142578125
6.624,311,1785,1584,311,4.0,31.0,35.0,61.828609466552734,-32.16552734375,83.49608612060547,0.2506103515625,0.4180908203125,-0.24462890625
6.647,311,1907,1994,311,4.0,31.0,35.0,46.997066497802734,-55.236812591552734,26.794431686401367,0.72705078125,-0.1026611328125,-0.1790771484375
6.647,311,2058,2204,289,4.0,31.0,35.0,19.4091796875,-79.833984375,-8.11767578125,0.615966796875,-0.5072021484375,0.1966552734375
6.658,310,2119,2376,312,4.0,31.0,35.0,19.4091796875,-79.833984375,-8.11767578125,-0.2393798828125,-0.017822265625,0.3133544921875
6.671,310,2290,2565,312,4.0,31.0,35.0,70.1904296875,-73.486328125,-4.2724609375,-1.3189697265625,1.5142822265625,-0.166015625
6.707,311,2362,2664,312,4.0,31.0,35.0,47.180171966552734,-41.748043060302734,4.638671875,-1.8179931640625,2.583984375,-0.5484619140625
6.707,311,2414,2745,297,3.0,31.0,41.0,47.180171966552734,-41.748043060302734,4.638671875,-1.900390625,1.9210205078125,-0.2371826171875
6.707,311,2580,3015,314,3.0,31.0,41.0,-137.0849609375,-31.188962936401367,-69.27490234375,-2.4344482421875,0.5018310546875,0.3177490234375
6.707,311,2599,3015,312,3.0,31.0,41.0,-154.78515625,-41.503902435302734,-100.64696502685547,-3.3978271484375,-0.3521728515625,0.7279052734375
6.716,311,2574,2951,312,3.0,31.0,41.0,-154.78515625,-41.503902435302734,-100.64696502685547,-3.376708984375,-0.6663818359375,0.67578125
6.728,310,2565,2912,313,3.0,31.0,41.0,-46.264644622802734,-35.64453125,-61.462398529052734,-2.130126953125,-0.5560302734375,0.3955078125
6.737,311,2548,2888,313,3.0,31.0,41.0,40.283199310302734,-5.310058116912842,-30.700681686401367,-1.218017578125,-0.0255126953125,0.3272705078125
6.753,310,2543,2869,314,3.0,31.0,41.0,40.283199310302734,-5.310058116912842,-30.700681686401367,-1.2845458984375,0.4449462890625,0.184814453125
6.760,311,2477,2792,314,3.0,31.0,41.0,63.903804779052734,28.320310592651367,-6.042479991912842,-1.7607421875,0.5621337890625,0.0399169921875
6.768,311,2435,2729,313,3.0,31.0,41.0,20.324705123901367,28.076169967651367,-2.25830078125,-2.0294189453125,0.441650390625,0.1195068359375
6.775,311,2362,2643,313,3.0,31.0,41.0,20.324705123901367,28.076169967651367,-2.25830078125,-1.94091796875,0.292724609375,0.2169189453125
6.801,311,2251,2440,312,5.0,27.0,39.0,-31.616209030151367,21.179197311401367,4.0283203125,-1.70068359375,0.1861572265625,0.2198486328125
6.801,311,2168,2290,312,5.0,27.0,39.0,-33.99658203125,28.442380905151367,10.192870140075684,-1.482666015625,0.14794921875,0.1800537109375
6.806,311,2098,2120,312,5.0,27.0,39.0,-33.99658203125,28.442380905151367,10.192870140075684,-1.3040771484375,0.182373046875,0.142333984375
6.819,311,2035,1852,312,5.0,27.0,39.0,-20.080564498901367,49.926753997802734,27.343748092651367,-1.096435546875,0.163330078125,0.1282958984375
6.827,311,1824,1675,312,5.0,27.0,39.0,-5.432128429412842,56.579586029052734,33.69140625,-0.832275390625,0.0594482421875,0.1300048828125
6.835,311,1549,1483,312,5.0,27.0,39.0,-5.432128429412842,56.579586029052734,33.69140625,-0.513427734375,-0.1015625,0.1619873046875
6.849,309,1008,1064,311,5.0,27.0,39.0,27.526853561401367,49.987789154052734,26.916501998901367,-0.1973876953125,-0.3021240234375,0.2203369140625
6.859,309,816,884,311,5.0,27.0,39.0,45.227046966552734,45.349117279052734,17.76123046875,-0.0543212890625,-0.3089599609375,0.1968994140625
6.866,310,657,753,309,5.0,27.0,39.0,45.227046966552734,45.349117279052734,17.76123046875,-0.0543212890625,-0.3089599609375,0.1968994140625
6.878,308,542,589,310,3.0,32.0,40.0,63.293453216552734,39.306640625,-2.929687261581421,-0.222900390625,0.254638671875,-0.07861328125
6.903,512,497,569,309,3.0,32.0,40.0,63.293453216552734,39.306640625,-2.929687261581421,-0.419189453125,0.54052734375,-0.1502685546875
6.903,310,493,577,309,3.0,32.0,40.0,47.058101654052734,33.99658203125,-11.169432640075684,-0.419189453125,0.54052734375,-0.1502685546875
6.908,0,465,601,307,3.0,32.0,40.0,-0.0610351525247097,27.221677780151367,-16.845703125,-0.8114013671875,0.673095703125,-0.222412109375
6.917,309,472,609,309,3.0,32.0,40.0,-0.0610351525247097,27.221677780151367,-16.845703125,-0.8074951171875,0.5565185546875,-0.2213134765625
6.931,311,472,612,309,3.0,32.0,40.0,-10.803221702575684,27.343748092651367,-21.240232467651367,-0.8074951171875,0.5565185546875,-0.2213134765625
6.939,310,484,628,309,3.0,32.0,40.0,-43.090816497802734,19.47021484375,-18.798828125,-0.7457275390625,0.2154541015625,-0.086669921875
6.947,0,3176,640,308,3.0,32.0,40.0,-43.090816497802734,19.47021484375,-18.798828125,-0.752685546875,0.081298828125,-0.037353515625
6.954,969,3176,644,309,3.0,32.0,40.0,-55.358882904052734,17.2119140625,-15.930174827575684,-0.752685546875,0.081298828125,-0.037353515625
6.969,659,3176,653,308,3.0,32.0,40.0,-56.762691497802734,15.319823265075684,-3.601073980331421,-0.78125,0.0064697265625,0.005126953125
6.977,308,452,654,309,4.0,33.0,34.0,-56.762691497802734,15.319823265075684,-3.601073980331421,-0.8101806640625,0.0247802734375,0.0194091796875
6.985,309,441,652,309,4.0,33.0,34.0,-46.936031341552734,14.160155296325684,4.5166015625,-0.8101806640625,0.0247802734375,0.0194091796875
7.004,309,439,656,309,4.0,33.0,34.0,-11.901854515075684,10.314940452575684,13.610838890075684,-0.8927001953125,0.0762939453125,0.06982421875
7.007,309,437,657,309,4.0,33.0,34.0,-11.901854515075684,10.314940452575684,13.610838890075684,-0.8974609375,0.0904541015625,0.08544921875
7.015,309,439,660,309,4.0,33.0,34.0,5.0048828125,8.60595703125,14.404295921325684,-0.8974609375,0.0904541015625,0.08544921875
7.028,309,445,666,310,4.0,33.0,34.0,19.22607421875,4.8828125,13.549803733825684,-0.8345947265625,0.13818359375,0.06787109375
7.039,308,445,664,309,4.0,33.0,34.0,19.22607421875,4.8828125,13.549803733825684,-0.8057861328125,0.1544189453125,0.0404052734375
7.045,309,447,664,311,4.0,33.0,34.0,15.258788108825684,2.44140625,12.145995140075684,-0.8057861328125,0.1544189453125,0.0404052734375
7.058,309,461,665,310,4.0,33.0,34.0,4.21142578125,0.3662109076976776,10.498045921325684,-0.7852783203125,0.135009765625,-0.0350341796875
7.073,309,460,659,309,4.0,33.0,34.0,4.21142578125,0.3662109076976776,10.498045921325684,-0.7650146484375,0.11279296875,-0.05419921875
7.075,310,455,650,309,1.0,31.0,34.0,3.051757574081421,0.7934569716453552,11.352538108825684,-0.7650146484375,0.11279296875,-0.05419921875
7.089,310,462,627,309,1.0,31.0,34.0,6.347655773162842,0.7934569716453552,13.916014671325684,-0.7054443359375,0.0634765625,-0.051025390625
7.109,307,467,614,310,1.0,31.0,34.0,6.347655773162842,0.7934569716453552,13.916014671325684,-0.6778564453125,0.0447998046875,-0.041259765625
7.110,294,451,598,309,1.0,31.0,34.0,8.9111328125,-0.4882812201976776,15.441893577575684,-0.6778564453125,0.0447998046875,-0.041259765625
7.119,309,483,598,308,1.0,31.0,34.0,15.624999046325684,-5.187987804412842,22.460935592651367,-0.6170654296875,0.0360107421875,-0.010498046875
7.129,307,524,599,310,1.0,31.0,34.0,15.624999046325684,-5.187987804412842,22.460935592651367,-0.6422119140625,0.0098876953125,-0.005859375
7.135,308,673,636,309,1.0,31.0,34.0,19.6533203125,-6.896972179412842,28.625486373901367,-0.6422119140625,0.0098876953125,-0.005859375
7.152,308,1098,706,310,1.0,31.0,34.0,37.17041015625,-13.244627952575684,48.278804779052734,-0.781982421875,0.2054443359375,0.00927734375
7.156,309,1262,779,311,1.0,31.0,34.0,37.17041015625,-13.244627952575684,48.278804779052734,-0.835205078125,0.4190673828125,0.030517578125
7.167,310,1403,847,310,1.0,31.0,34.0,39.12353515625,-22.338865280151367,58.471675872802734,-0.835205078125,0.4190673828125,0.030517578125
7.180,309,1648,1120,310,1.0,32.0,35.0,23.010251998901367,-29.357908248901367,51.452632904052734,-0.447998046875,0.591064453125,-0.2847900390625
7.187,309,1775,1377,311,1.0,32.0,35.0,23.010251998901367,-29.357908248901367,51.452632904052734,-0.063232421875,0.3018798828125,-0.1893310546875
7.211,311,1960,1613,311,1.0,32.0,35.0,-4.7607421875,-33.99658203125,26.794431686401367,-0.063232421875,0.3018798828125,-0.1893310546875
7.211,311,2009,1991,312,1.0,32.0,35.0,-28.076169967651367,-63.659664154052734,-28.869626998901367,0.170654296875,-0.5006103515625,0.303466796875
7.217,311,2127,2158,313,1.0,32.0,35.0,-28.076169967651367,-63.659664154052734,-28.869626998901367,-0.3876953125,-0.0703125,0.166259765625
7.225,309,2212,2279,312,1.0,32.0,35.0,25.024412155151367,-66.40625,-33.87451171875,-0.3876953125,-0.0703125,0.166259765625
7.238,311,2424,2465,312,1.0,32.0,35.0,84.77782440185547,-51.879878997802734,-7.263183116912842,-1.4132080078125,1.889892578125,-0.509521484375
7.247,310,2494,2571,314,1.0,32.0,35.0,84.77782440185547,-51.879878997802734,-7.263183116912842,-1.3675537109375,1.6431884765625,-0.2293701171875
7.255,311,2559,2662,313,1.0,32.0,35.0,16.4794921875,-43.395992279052734,-18.98193359375,-1.3675537109375,1.6431884765625,-0.2293701171875
7.269,311,2639,2867,312,1.0,32.0,35.0,-109.13085174560547,-38.0859375,-78.4912109375,-2.0185546875,0.161376953125,0.1910400390625
7.288,311,2683,2940,314,3.0,31.0,37.0,-109.13085174560547,-38.0859375,-78.4912109375,-2.93505859375,-0.0230712890625,0.221435546875
7.288,311,2676,2905,313,3.0,31.0,37.0,-92.89550018310547,-34.3017578125,-88.56200408935547,-2.93505859375,-0.0230712890625,0.221435546875
7.317,311,2695,2888,312,3.0,31.0,37.0,-47.424312591552734,-38.0859375,-63.476558685302734,-2.141357421875,-0.4039306640625,0.3836669921875
7.317,311,2679,2874,313,3.0,31.0,37.0,-47.424312591552734,-38.0859375,-63.476558685302734,-1.240966796875,-0.2515869140625,0.4525146484375
7.318,311,2674,2857,313,3.0,31.0,37.0,-6.713866710662842,-20.01953125,-36.92626953125,-1.240966796875,-0.2515869140625,0.4525146484375
7.333,310,2638,2797,313,3.0,31.0,37.0,52.429195404052734,9.765625,-3.540038824081421,-1.677490234375,0.568359375,0.1749267578125
7.337,311,2610,2750,312,3.0,31.0,37.0,52.429195404052734,9.765625,-3.540038824081421,-1.941650390625,0.551513671875,0.070068359375
7.345,312,2565,2700,312,3.0,31.0,37.0,32.2265625,17.822265625,-1.4038084745407104,-1.941650390625,0.551513671875,0.070068359375
7.358,311,2456,2557,311,3.0,31.0,37.0,5.615233898162842,16.7236328125,-3.601073980331421,-1.676513671875,0.2818603515625,0.14990234375
7.368,311,2403,2458,312,3.0,31.0,37.0,-8.7890625,14.099120140075684,-5.493163585662842,-1.676513671875,0.2818603515625,0.14990234375
7.377,311,2339,2330,312,5.0,29.0,40.0,-8.056640625,16.17431640625,-5.249022960662842,-1.496337890625,0.22705078125,0.165771484375
7.391,3133,3176,2061,311,5.0,29.0,40.0,-0.4272460639476776,22.888181686401367,-3.356933355331421,-1.198486328125,0.1820068359375,0.1546630859375
7.397,307,1951,1912,312,5.0,29.0,40.0,7.507323741912842,31.982419967651367,0.1831054538488388,-1.198486328125,0.1820068359375,0.1546630859375
7.416,309,1739,1752,312,5.0,29.0,40.0,14.831542015075684,41.442867279052734,5.310058116912842,-1.002197265625,0.0699462890625,0.1505126953125
7.419,309,1268,1353,295,5.0,29.0,40.0,21.484373092651367,47.302242279052734,10.803221702575684,-0.4915771484375,-0.19921875,0.1611328125
7.429,310,1024,1142,311,5.0,29.0,40.0,25.207517623901367,47.546382904052734,15.197752952575684,-0.4915771484375,-0.19921875,0.1611328125
7.437,309,810,975,311,5.0,29.0,40.0,25.512693405151367,46.630855560302734,18.6767578125,-0.2548828125,-0.3280029296875,0.1124267578125
7.449,309,570,706,310,5.0,29.0,40.0,28.015134811401367,47.729488372802734,20.935056686401367,-0.2110595703125,-0.0137939453125,-0.072021484375
7.457,309,502,609,309,5.0,29.0,40.0,33.0810546875,45.593257904052734,15.869139671325684,-0.2110595703125,-0.0137939453125,-0.072021484375
7.465,309,502,562,309,5.0,29.0,40.0,31.249998092651367,39.00146484375,3.417968511581421,-0.30615234375,0.250244140625,-0.1522216796875
7.481,309,488,575,309,3.0,32.0,37.0,17.4560546875,32.16552734375,-4.7607421875,-0.6668701171875,0.626220703125,-0.209228515625
7.519,307,479,593,309,3.0,32.0,37.0,1.0986328125,27.343748092651367,-7.690429210662842,-0.6668701171875,0.626220703125,-0.209228515625
7.520,293,475,584,296,3.0,32.0,37.0,-4.57763671875,28.320310592651367,-12.695311546325684,-0.78076171875,0.6044921875,-0.263671875
7.520,295,467,596,293,3.0,32.0,37.0,-3.479003667831421,31.005857467651367,-17.08984375,-0.7890625,0.405029296875,-0.1436767578125
7.520,307,465,627,310,3.0,32.0,37.0,-9.58251953125,27.465818405151367,-17.88330078125,-0.7890625,0.405029296875,-0.1436767578125
7.526,309,447,616,308,3.0,32.0,37.0,-24.780271530151367,20.568845748901367,-18.6767578125,-0.7581787109375,0.2222900390625,-0.0628662109375
7.539,308,475,643,309,3.0,32.0,37.0,-43.945308685302734,14.282225608825684,-21.789548873901367,-0.746337890625,-0.027587890625,0.0093994140625
7.549,309,467,643,309,3.0,32.0,37.0,-43.945308685302734,14.282225608825684,-21.789548873901367,-0.7528076171875,-0.0408935546875,0.05126953125
7.556,309,465,644,309,3.0,32.0,37.0,-39.24560546875,12.756346702575684,-18.61572265625,-0.7528076171875,-0.0408935546875,0.05126953125
7.569,308,466,647,309,4.0,35.0,33.0,-6.591796398162842,8.36181640625,-5.981444835662842,-0.770751953125,0.0281982421875,0.1146240234375
7.580,309,472,650,309,4.0,35.0,33.0,-6.591796398162842,8.36181640625,-5.981444835662842,-0.771240234375,0.05517578125,0.1376953125
7.587,308,475,654,309,4.0,35.0,33.0,11.169432640075684,5.065917491912842,-0.9765624403953552,-0.771240234375,0.05517578125,0.1376953125
7.623,309,480,656,310,4.0,35.0,33.0,21.118162155151367,-2.685546636581421,4.57763671875,-0.73876953125,0.0712890625,0.1544189453125
7.624,310,481,650,295,4.0,35.0,33.0,21.118162155151367,-2.685546636581421,4.57763671875,-0.7091064453125,0.0726318359375,0.1246337890625
7.624,310,481,650,309,4.0,35.0,33.0,14.831542015075684,-4.5166015625,6.408690929412842,-0.7091064453125,0.0726318359375,0.1246337890625
7.630,307,483,643,309,4.0,35.0,33.0,8.23974609375,-4.21142578125,8.85009765625,-0.6876220703125,0.063232421875,0.0289306640625
7.643,309,472,617,310,4.0,35.0,33.0,5.737304210662842,-3.356933355331421,12.329100608825684,-0.6876220703125,0.063232421875,0.0289306640625
7.646,309,497,619,310,4.0,35.0,33.0,7.934569835662842,-3.784179449081421,17.02880859375,-0.69970703125,0.045654296875,-0.0030517578125
7.659,309,547,636,309,4.0,35.0,33.0,13.305663108825684,-5.310058116912842,22.766111373901367,-0.7733154296875,-0.0452880859375,-0.062744140625
7.668,309,582,691,310,3.0,33.0,31.0,22.399900436401367,-5.981444835662842,28.991697311401367,-0.7733154296875,-0.0452880859375,-0.062744140625
7.679,309,713,740,310,3.0,33.0,31.0,35.888671875,-5.065917491912842,37.2314453125,-0.7911376953125,-0.04638671875,-0.099853515625
7.684,309,886,792,310,3.0,33.0,31.0,48.217769622802734,-4.57763671875,48.706050872802734,-0.83154296875,0.061279296875,-0.1318359375
7.697,309,1166,916,311,3.0,33.0,31.0,49.377437591552734,-8.48388671875,61.035152435302734,-0.878173828125,0.234375,-0.1365966796875
7.725,307,1355,1020,311,3.0,33.0,31.0,38.14697265625,-16.05224609375,70.61767578125,-0.792724609375,0.3978271484375,-0.1351318359375
7.725,311,1658,1335,311,3.0,33.0,31.0,25.207517623901367,-21.545408248901367,72.44873046875,-0.061767578125,0.2392578125,-0.0302734375
7.728,307,1794,1593,312,3.0,33.0,31.0,18.12744140625,-28.869626998901367,61.462398529052734,-0.061767578125,0.2392578125,-0.0302734375
7.736,311,1894,1852,312,3.0,33.0,31.0,17.51708984375,-45.349117279052734,38.818359375,0.44287109375,-0.09375,0.1695556640625
7.750,311,2074,2172,313,3.0,33.0,31.0,22.583005905151367,-64.88037109375,10.925292015075684,0.3626708984375,-0.4150390625,0.2161865234375
7.758,311,2172,2306,312,3.0,33.0,31.0,31.555173873901367,-76.96533203125,-9.94873046875,0.3626708984375,-0.4150390625,0.2161865234375
7.766,310,2328,2428,313,1.0,30.0,39.0,45.898433685302734,-74.52392578125,-11.230467796325684,-0.5631103515625,0.451416015625,0.0408935546875
7.779,310,2443,2599,313,1.0,30.0,39.0,48.645015716552734,-51.635738372802734,2.868652105331421,-1.801513671875,2.24267578125,-0.7762451171875
7.788,311,2491,2695,312,1.0,30.0,39.0,6.042479991912842,-27.038572311401367,1.8310545682907104,-1.801513671875,2.24267578125,-0.7762451171875
7.796,311,2599,2875,314,1.0,30.0,39.0,-73.42529296875,-27.954099655151367,-30.883787155151367,-1.781494140625,1.31298828125,-0.3636474609375
7.830,311,2636,2943,314,1.0,30.0,39.0,-133.72802734375,-41.809078216552734,-67.0166015625,-3.3455810546875,-0.020263671875,0.5184326171875
7.833,311,2636,2914,313,1.0,30.0,39.0,-142.63916015625,-58.593746185302734,-79.833984375,-3.3455810546875,-0.020263671875,0.5184326171875
7.833,311,2639,2895,314,1.0,30.0,39.0,-129.8828125,-68.42041015625,-65.185546875,-3.1224365234375,-0.4407958984375,0.711669921875
7.842,311,2632,2831,313,1.0,30.0,39.0,-84.59471893310547,-44.799800872802734,-37.353515625,-1.1181640625,-0.4110107421875,0.6728515625
7.848,311,2627,2813,311,1.0,30.0,39.0,15.930174827575684,-11.413573265075684,-9.94873046875,-1.1181640625,-0.4110107421875,0.6728515625
7.856,311,2607,2785,314,1.0,30.0,39.0,100.34178924560547,8.1787109375,12.817381858825684,-1.234619140625,0.6029052734375,0.2073974609375
7.885,308,2541,2697,312,2.0,29.0,36.0,106.14012908935547,18.61572265625,19.8974609375,-1.9322509765625,0.846435546875,-0.102294921875
7.890,329,2473,2631,311,2.0,29.0,36.0,49.987789154052734,18.9208984375,10.681151390075684,-1.9322509765625,0.846435546875,-0.102294921875
7.914,311,2404,2544,313,2.0,29.0,36.0,-8.1787109375,16.41845703125,-0.54931640625,-1.8702392578125,0.4024658203125,0.0537109375
7.916,311,2238,2386,312,2.0,29.0,36.0,-29.907224655151367,16.11328125,-4.150390625,-1.447998046875,0.146728515625,0.132080078125
7.918,311,2107,2249,312,2.0,29.0,36.0,-22.705076217651367,19.59228515625,-2.624511480331421,-1.447998046875,0.146728515625,0.132080078125
7.930,311,1985,2100,312,2.0,29.0,36.0,-6.225585460662842,26.550291061401367,-1.220703125,-1.247314453125,0.1182861328125,0.1163330078125
7.931,311,1712,1850,311,2.0,29.0,36.0,10.437010765075684,34.1796875,1.4038084745407104,-0.8533935546875,0.1466064453125,0.1207275390625
7.946,310,1503,1697,312,2.0,29.0,36.0,24.719236373901367,39.306640625,7.324218273162842,-0.8533935546875,0.1466064453125,0.1207275390625
7.950,309,1246,1485,311,2.0,29.0,36.0,31.372068405151367,41.198726654052734,12.451170921325684,-0.6046142578125,0.1309814453125,0.12353515625
7.959,309,819,1097,311,2.0,31.0,34.0,25.573728561401367,41.381832122802734,12.878417015075684,-0.10986328125,-0.21923828125,0.1468505859375
7.967,309,668,922,310,2.0,31.0,34.0,13.122557640075684,43.334957122802734,9.765625,-0.10986328125,-0.21923828125,0.1468505859375
7.975,309,563,767,309,2.0,31.0,34.0,7.141112804412842,47.241207122802734,6.591796398162842,-0.080810546875,-0.1846923828125,0.09326171875
7.989,309,490,603,309,2.0,31.0,34.0,9.70458984375,46.874996185302734,2.50244140625,-0.34716796875,0.33544921875,-0.0150146484375
8.004,311,484,589,309,2.0,31.0,34.0,8.30078125,40.710445404052734,-2.868652105331421,-0.34716796875,0.33544921875,-0.0150146484375
8.006,308,477,577,309,2.0,31.0,34.0,-5.737304210662842,32.958984375,-4.82177734375,-0.5322265625,0.5919189453125,-0.0589599609375
8.034,309,466,589,309,2.0,31.0,34.0,-27.099607467651367,26.733396530151367,-3.479003667831421,-0.75830078125,0.59326171875,-0.110595703125
8.036,308,451,601,309,2.0,31.0,34.0,-45.654293060302734,24.291990280151367,-4.0283203125,-0.75830078125,0.59326171875,-0.110595703125
8.036,310,452,607,309,2.0,31.0,34.0,-57.861324310302734,24.047849655151367,-6.408690929412842,-0.75439453125,0.42236328125,-0.084716796875
8.056,307,463,616,310,2.0,31.0,34.0,-67.3828125,23.254392623901367,-7.995604991912842,-0.737548828125,0.108642578125,-0.061767578125
8.058,296,465,625,309,4.0,32.0,33.0,-75.62255859375,21.179197311401367,-7.934569835662842,-0.737548828125,0.108642578125,-0.061767578125
8.066,309,466,630,309,4.0,32.0,33.0,-79.52880859375,16.90673828125,-6.286620616912842,-0.746826171875,0.03173828125,-0.0517578125
8.080,309,466,640,309,4.0,32.0,33.0,-75.50048828125,11.230467796325684,-3.417968511581421,-0.7884521484375,0.0142822265625,-0.0096435546875
8.089,309,469,640,307,4.0,32.0,33.0,-62.927242279052734,6.286620616912842,0.6103515625,-0.7884521484375,0.0142822265625,-0.0096435546875
8.096,308,472,645,309,4.0,32.0,33.0,-44.860836029052734,3.479003667831421,5.187987804412842,-0.835205078125,0.0675048828125,0.0252685546875
8.109,309,475,645,309,4.0,32.0,33.0,-25.390623092651367,2.13623046875,8.11767578125,-0.912109375,0.175537109375,0.12353515625
8.138,309,481,654,310,4.0,32.0,33.0,-8.9111328125,1.4038084745407104,8.11767578125,-0.912109375,0.175537109375,0.12353515625
8.140,309,481,656,309,4.0,32.0,33.0,0.54931640625,1.5258787870407104,6.164550304412842,-0.878173828125,0.1990966796875,0.1351318359375
8.140,307,477,654,309,4.0,32.0,33.0,1.3427733182907104,2.929687261581421,3.845214605331421,-0.8009033203125,0.18603515625,0.10107421875
8.155,309,493,653,308,4.0,32.0,33.0,-3.906249761581421,4.94384765625,2.38037109375,-0.7103271484375,0.124755859375,0.0396728515625
8.157,309,478,636,309,4.0,31.0,34.0,-9.033203125,6.469726085662842,3.173827886581421,-0.63720703125,0.022705078125,-0.0306396484375
8.166,309,515,644,309,4.0,31.0,34.0,-8.056640625,6.774901866912842,7.263183116912842,-0.6192626953125,-0.0927734375,-0.097900390625
8.178,310,609,673,309,4.0,31.0,34.0,2.868652105331421,5.615233898162842,14.526366233825684,-0.6519775390625,-0.155517578125,-0.1431884765625
8.188,309,763,718,311,4.0,31.0,34.0,22.338865280151367,2.563476324081421,25.024412155151367,-0.7169189453125,-0.0899658203125,-0.157958984375
8.196,309,922,747,310,4.0,31.0,34.0,39.0625,-3.540038824081421,37.7197265625,-0.8062744140625,0.103271484375,-0.1348876953125
8.209,310,1170,816,311,4.0,31.0,34.0,39.55078125,-13.671874046325684,48.828121185302734,-0.886962890625,0.299072265625,-0.0765380859375
8.234,310,1292,907,311,4.0,31.0,34.0,25.268552780151367,-21.911619186401367,56.030269622802734,-0.8955078125,0.4180908203125,-0.0877685546875
8.235,310,1431,985,310,4.0,31.0,34.0,6.103515148162842,-21.240232467651367,57.983394622802734,-0.790771484375,0.4769287109375,-0.1983642578125
8.244,309,1686,1292,311,4.0,31.0,34.0,-14.648436546325684,-20.263669967651367,51.696773529052734,-0.5411376953125,0.4041748046875,-0.1744384765625
8.247,309,1794,1511,312,4.0,31.0,34.0,-28.808591842651367,-29.663084030151367,34.5458984375,-0.1448974609375,0.1376953125,0.051025390625
8.255,309,1891,1709,311,4.0,32.0,38.0,-22.155759811401367,-44.067378997802734,10.009765625,0.27197265625,-0.199462890625,0.2271728515625
8.269,310,2028,2049,311,4.0,32.0,38.0,5.187987804412842,-55.664058685302734,-11.596678733825684,0.499755859375,-0.4527587890625,0.2677001953125
8.278,310,2145,2203,312,4.0,32.0,38.0,44.555660247802734,-65.7958984375,-20.385740280151367,0.255126953125,-0.345947265625,0.310302734375
8.285,311,2282,2312,312,4.0,32.0,38.0,85.75438690185547,-74.40185546875,-14.404295921325684,-0.495849609375,0.5098876953125,0.22021484375
8.299,309,2407,2479,312,4.0,32.0,38.0,97.71727752685547,-69.27490234375,-2.0751953125,-1.257080078125,1.72216796875,-0.114990234375
8.309,311,2475,2567,313,4.0,32.0,38.0,52.551265716552734,-49.377437591552734,-4.7607421875,-1.56591796875,2.1165771484375,-0.2144775390625
8.315,311,2538,2651,313,4.0,32.0,38.0,-28.808591842651367,-34.36279296875,-35.2783203125,-1.670654296875,1.32958984375,-0.0389404296875
8.336,311,2639,2800,314,4.0,32.0,38.0,-85.87645721435547,-24.230955123901367,-72.1435546875,-2.1146240234375,0.355712890625,-0.01904296875
8.337,311,2624,2800,312,4.0,32.0,38.0,-85.20507049560547,-15.686034202575684,-89.90477752685547,-2.8394775390625,-0.1947021484375,-0.0093994140625
8.350,311,2627,2771,314,4.0,32.0,38.0,-57.189937591552734,-20.935056686401367,-83.25194549560547,-3.2022705078125,-0.3048095703125,0.1357421875
8.359,311,2586,2771,314,4.0,29.0,37.0,-33.02001953125,-30.151365280151367,-57.556148529052734,-2.44384765625,-0.3934326171875,0.328125
8.367,311,2582,2762,314,4.0,29.0,37.0,1.5258787870407104,-24.902341842651367,-29.968259811401367,-1.4556884765625,-0.26953125,0.4940185546875
8.375,311,2571,2739,314,4.0,29.0,37.0,42.175289154052734,-13.488768577575684,-9.94873046875,-1.380126953125,0.4365234375,0.46630859375
8.392,311,2516,2653,312,4.0,29.0,37.0,51.452632904052734,-0.1831054538488388,1.0986328125,-1.7119140625,0.8453369140625,0.2537841796875
8.397,311,2469,2600,314,4.0,29.0,37.0,24.841306686401367,16.2353515625,1.3427733182907104,-1.91162109375,0.5970458984375,0.11962890625
8.407,311,2421,2530,313,4.0,29.0,37.0,-6.591796398162842,26.855466842651367,0.2441406100988388,-1.8599853515625,0.1822509765625,0.1292724609375
8.418,310,2360,2382,312,4.0,29.0,37.0,-19.10400390625,30.090330123901367,6.958007335662842,-1.6627197265625,0.025146484375,0.15185546875
8.440,311,2335,2268,312,4.0,29.0,37.0,-13.488768577575684,29.541013717651367,18.5546875,-1.46142578125,0.1253662109375,0.170166015625
8.440,310,2186,2119,312,4.0,29.0,37.0,-2.3193359375,29.968259811401367,27.160642623901367,-1.3116455078125,0.3079833984375,0.1644287109375
8.455,311,1931,1843,311,3.0,33.0,37.0,5.432128429412842,35.0341796875,30.029294967651367,-1.1510009765625,0.357666015625,0.1043701171875
8.458,310,1735,1676,312,3.0,33.0,37.0,11.352538108825684,45.166011810302734,28.747556686401367,-0.9495849609375,0.22705078125,0.0067138671875
8.465,310,1439,1442,311,3.0,33.0,37.0,18.06640625,55.175777435302734,25.878904342651367,-0.7056884765625,0.0556640625,-0.0732421875
8.478,310,976,1070,311,3.0,33.0,37.0,22.521970748901367,60.058589935302734,23.681638717651367,-0.4051513671875,-0.1239013671875,-0.097900390625
8.487,310,750,872,311,3.0,33.0,37.0,24.841306686401367,61.462398529052734,23.193357467651367,-0.1793212890625,-0.2191162109375,-0.0789794921875
8.495,310,551,736,309,3.0,33.0,37.0,27.404783248901367,58.166500091552734,19.53125,-0.1373291015625,-0.1497802734375,-0.0513916015625
8.508,309,463,573,309,3.0,33.0,37.0,26.794431686401367,48.583980560302734,7.324218273162842,-0.2010498046875,0.045654296875,-0.06005859375
8.517,310,475,586,310,3.0,33.0,37.0,17.02880859375,36.92626953125,-6.225585460662842,-0.38134765625,0.354736328125,-0.0855712890625
8.541,310,472,592,309,3.0,33.0,37.0,-2.197265625,24.658201217651367,-14.587401390075684,-0.6536865234375,0.5673828125,-0.071533203125
8.542,309,454,605,309,3.0,33.0,37.0,-18.85986328125,16.357421875,-21.728513717651367,-0.8170166015625,0.5595703125,-0.0302734375
8.547,305,452,607,308,5.0,33.0,28.0,-22.399900436401367,16.54052734375,-25.268552780151367,-0.8062744140625,0.494384765625,0.005126953125
8.567,309,452,625,309,5.0,33.0,28.0,-21.240232467651367,20.080564498901367,-19.6533203125,-0.725341796875,0.438720703125,0.029541015625
8.570,293,447,640,309,5.0,33.0,28.0,-26.123044967651367,21.484373092651367,-10.559081077575684,-0.67236328125,0.3460693359375,0.0338134765625
8.578,309,447,643,309,5.0,33.0,28.0,-35.46142578125,20.385740280151367,-4.5166015625,-0.665283203125,0.2406005859375,0.0234375
8.588,309,447,644,309,5.0,33.0,28.0,-44.189449310302734,18.00537109375,-1.8310545682907104,-0.6773681640625,0.1712646484375,0.01025390625
8.601,309,445,644,309,5.0,33.0,28.0,-50.170894622802734,15.380858421325684,-0.4882812201976776,-0.6937255859375,0.1492919921875,-0.0037841796875
8.609,309,449,646,309,5.0,33.0,28.0,-51.574703216552734,13.122557640075684,1.4038084745407104,-0.7080078125,0.171630859375,-0.0078125
8.622,309,452,651,311,5.0,33.0,28.0,-46.203609466552734,10.925292015075684,4.5166015625,-0.720947265625,0.2083740234375,0.005615234375
8.642,308,461,650,309,5.0,33.0,28.0,-35.0341796875,8.6669921875,7.934569835662842,-0.7275390625,0.21533203125,0.0308837890625
8.645,309,465,651,309,5.0,33.0,28.0,-22.216794967651367,6.225585460662842,10.498045921325684,-0.71630859375,0.18896484375,0.055908203125
8.648,309,473,650,307,2.0,32.0,33.0,-12.451170921325684,3.723144292831421,11.962889671325684,-0.687744140625,0.1533203125,0.0714111328125
8.671,309,480,650,309,2.0,32.0,33.0,-8.60595703125,1.0986328125,12.573241233825684,-0.6524658203125,0.1182861328125,0.08056640625
8.671,310,473,649,309,2.0,32.0,33.0,-10.314940452575684,-1.5258787870407104,12.634276390075684,-0.616943359375,0.0811767578125,0.0887451171875
8.676,309,475,636,307,2.0,32.0,33.0,-14.404295921325684,-4.0283203125,12.145995140075684,-0.5799560546875,0.0433349609375,0.0927734375
8.690,309,482,642,309,2.0,32.0,33.0,-17.02880859375,-6.042479991912842,10.742186546325684,-0.53955078125,0.0054931640625,0.0955810546875
8.699,309,478,629,309,2.0,32.0,33.0,-16.6015625,-7.629394054412842,8.60595703125,-0.508544921875,-0.033447265625,0.089111328125
8.706,309,487,640,309,2.0,32.0,33.0,-12.573241233825684,-8.30078125,7.568358898162842,-0.50537109375,-0.0567626953125,0.0552978515625
8.719,309,745,702,310,2.0,32.0,33.0,-2.868652105331421,-8.23974609375,10.803221702575684,-0.6131591796875,-0.1097412109375,-0.005126953125
