time,compression0,compression1,compression2,compression3,magn_x,magn_y,magn_z,gyro_x,gyro_y,gyro_z,accel_x,accel_y,accel_z
0.006,282,905,559,702,-12.0,35.0,17.0,2.13623046875,-13.977049827575684,4.82177734375,-0.87548828125,0.1585693359375,-0.330322265625
0.040,282,890,553,687,-12.0,35.0,17.0,4.45556640625,-14.282225608825684,5.493163585662842,-0.885498046875,0.163330078125,-0.3416748046875
0.040,286,933,571,710,-12.0,35.0,17.0,5.798339366912842,-14.404295921325684,6.042479991912842,-0.893798828125,0.1749267578125,-0.3519287109375
0.040,290,921,586,725,-12.0,29.0,17.0,5.798339366912842,-14.099120140075684,6.469726085662842,-0.90234375,0.182373046875,-0.361083984375
0.049,293,937,586,702,-12.0,29.0,17.0,4.7607421875,-13.610838890075684,6.713866710662842,-0.907958984375,0.177001953125,-0.3643798828125
0.066,294,947,625,749,-12.0,29.0,17.0,3.601073980331421,-13.183592796325684,7.019042491912842,-0.9090576171875,0.1600341796875,-0.3642578125
0.067,277,976,714,749,-12.0,29.0,17.0,2.685546636581421,-13.122557640075684,7.568358898162842,-0.9078369140625,0.144287109375,-0.367919921875
0.079,300,1004,619,728,-12.0,29.0,17.0,1.8920897245407104,-13.732909202575684,8.72802734375,-0.9034423828125,0.1439208984375,-0.370361328125
0.088,304,1005,660,782,-12.0,29.0,17.0,1.5258787870407104,-14.892577171325684,10.131834983825684,-0.896728515625,0.1561279296875,-0.3671875
0.096,306,1031,677,799,-12.0,29.0,17.0,1.5869139432907104,-16.29638671875,11.352538108825684,-0.891845703125,0.171142578125,-0.363525390625
0.110,308,1066,668,766,-12.0,29.0,17.0,1.4038084745407104,-17.39501953125,12.023924827575684,-0.89208984375,0.18505859375,-0.3609619140625
0.155,313,1082,697,826,-12.0,29.0,17.0,0.7934569716453552,-18.12744140625,12.084959983825684,-0.89404296875,0.1954345703125,-0.35205078125
0.155,308,1172,802,720,-12.0,29.0,17.0,0.30517578125,-18.5546875,11.596678733825684,-0.8916015625,0.197265625,-0.334716796875
0.155,318,1173,713,849,-13.0,33.0,21.0,0.6103515625,-18.6767578125,10.742186546325684,-0.8880615234375,0.187744140625,-0.326171875
0.155,324,1185,737,869,-13.0,33.0,21.0,1.5258787870407104,-18.6767578125,10.009765625,-0.88671875,0.177490234375,-0.329833984375
0.156,310,1191,723,886,-13.0,33.0,21.0,1.9531248807907104,-19.04296875,10.070799827575684,-0.8848876953125,0.1793212890625,-0.3291015625
0.175,328,1280,744,860,-13.0,33.0,21.0,1.0986328125,-19.6533203125,10.864256858825684,-0.88330078125,0.19873046875,-0.3214111328125
0.178,332,1330,788,946,-13.0,33.0,21.0,-1.3427733182907104,-20.01953125,11.962889671325684,-0.88037109375,0.22265625,-0.310791015625
0.189,344,1357,840,974,-13.0,33.0,21.0,-4.8828125,-19.83642578125,12.817381858825684,-0.8699951171875,0.2325439453125,-0.2879638671875
0.200,352,1443,829,939,-13.0,33.0,21.0,-8.056640625,-19.4091796875,13.000487327575684,-0.8475341796875,0.230224609375,-0.25439453125
0.208,361,1494,888,1037,-13.0,33.0,21.0,-9.46044921875,-18.6767578125,12.573241233825684,-0.82373046875,0.2181396484375,-0.229248046875
0.216,363,1544,902,1054,-13.0,33.0,21.0,-8.4228515625,-17.7001953125,12.023924827575684,-0.827880859375,0.2027587890625,-0.2205810546875
0.243,362,1650,897,1000,-11.0,32.0,17.0,-5.554198741912842,-16.9677734375,12.329100608825684,-0.8505859375,0.1983642578125,-0.22216796875
0.243,371,1716,958,1112,-11.0,32.0,17.0,-2.3193359375,-17.39501953125,13.488768577575684,-0.85107421875,0.20263671875,-0.2291259765625
0.246,375,1766,988,1147,-11.0,32.0,17.0,0.0610351525247097,-18.98193359375,14.953612327575684,-0.820556640625,0.213134765625,-0.2352294921875
0.260,382,1806,973,1108,-11.0,32.0,17.0,2.44140625,-21.789548873901367,15.747069358825684,-0.7864990234375,0.203857421875,-0.2564697265625
0.273,378,1874,1079,1198,-11.0,32.0,17.0,6.408690929412842,-25.390623092651367,15.319823265075684,-0.759521484375,0.160888671875,-0.2708740234375
0.276,387,1925,1112,1237,-11.0,32.0,17.0,11.657713890075684,-29.174802780151367,14.343260765075684,-0.7818603515625,0.1556396484375,-0.26171875
0.290,400,1943,1097,1198,-11.0,32.0,17.0,16.41845703125,-32.28759765625,13.671874046325684,-0.84228515625,0.2080078125,-0.269775390625
0.298,404,1978,1209,1323,-11.0,32.0,17.0,15.869139671325684,-34.48486328125,13.488768577575684,-0.83837890625,0.22509765625,-0.255859375
0.308,411,2008,1239,1355,-11.0,32.0,17.0,10.498045921325684,-34.7900390625,14.587401390075684,-0.7734375,0.171142578125,-0.2147216796875
0.320,413,2047,1250,1283,-11.0,32.0,17.0,7.385253429412842,-33.38623046875,18.310546875,-0.72509765625,0.1322021484375,-0.19677734375
0.346,424,2080,1369,1443,-9.0,32.0,18.0,7.324218273162842,-32.2265625,22.827146530151367,-0.7220458984375,0.1832275390625,-0.197265625
0.347,430,2254,1282,1388,-9.0,32.0,18.0,5.493163585662842,-31.555173873901367,24.108884811401367,-0.76513671875,0.2886962890625,-0.2076416015625
0.350,428,2155,1397,1366,-9.0,32.0,18.0,0.54931640625,-29.846189498901367,20.263669967651367,-0.8531494140625,0.3626708984375,-0.2236328125
0.358,460,2161,1488,1529,-9.0,32.0,18.0,-4.69970703125,-27.099607467651367,13.916014671325684,-0.955810546875,0.4010009765625,-0.2518310546875
0.366,464,2139,1529,1569,-9.0,32.0,18.0,-4.69970703125,-27.099607467651367,13.916014671325684,-1.0262451171875,0.4300537109375,-0.293701171875
0.380,464,2167,1488,1452,-9.0,32.0,18.0,-3.540038824081421,-26.733396530151367,4.57763671875,-1.0460205078125,0.45751953125,-0.3287353515625
0.388,469,2192,1590,1588,-9.0,32.0,18.0,0.3662109076976776,-29.785154342651367,1.4038084745407104,-1.0460205078125,0.4825439453125,-0.355224609375
0.396,442,2253,1624,1555,-9.0,32.0,18.0,0.3662109076976776,-29.785154342651367,1.4038084745407104,-1.1094970703125,0.40087890625,-0.396484375
0.410,468,2207,1523,1481,-9.0,32.0,18.0,-1.6479490995407104,-27.709959030151367,-5.615233898162842,-1.274658203125,0.175048828125,-0.4031982421875
0.418,490,2170,1595,1678,-9.0,32.0,18.0,-4.7607421875,-21.057126998901367,-5.859374523162842,-1.4915771484375,-0.0277099609375,-0.305419921875
0.433,493,2230,1611,1543,-9.0,32.0,28.0,-4.7607421875,-21.057126998901367,-5.859374523162842,-1.5599365234375,-0.0875244140625,-0.1063232421875
0.476,490,2263,1506,1531,-9.0,32.0,28.0,-13.244627952575684,-9.82666015625,7.324218273162842,-1.367919921875,0.0302734375,-0.01220703125
0.476,473,2337,1624,1622,-9.0,32.0,28.0,-8.97216796875,-6.774901866912842,13.305663108825684,-1.12548828125,0.2926025390625,-0.1968994140625
0.476,473,2347,1610,1624,-9.0,32.0,28.0,-8.97216796875,-6.774901866912842,13.305663108825684,-1.01025390625,0.5186767578125,-0.4578857421875
0.477,456,2347,1550,1453,-9.0,32.0,28.0,6.042479991912842,-9.27734375,3.662109136581421,-0.9876708984375,0.5335693359375,-0.51806640625
0.478,414,2627,1456,1453,-9.0,32.0,28.0,5.065917491912842,-15.441893577575684,-6.835937023162842,-1.0174560546875,0.3988037109375,-0.3970947265625
0.486,455,2293,1635,1598,-9.0,32.0,28.0,5.065917491912842,-15.441893577575684,-6.835937023162842,-1.128662109375,0.2884521484375,-0.265380859375
0.499,458,2246,1536,1455,-9.0,32.0,28.0,-5.0048828125,-19.83642578125,-14.343260765075684,-1.244384765625,0.2269287109375,-0.1435546875
0.509,475,2207,1611,1604,-9.0,32.0,28.0,-11.169432640075684,-15.380858421325684,-10.742186546325684,-1.2530517578125,0.199951171875,-0.018310546875
0.516,473,2183,1602,1596,-9.0,32.0,28.0,-11.169432640075684,-15.380858421325684,-10.742186546325684,-1.1866455078125,0.24755859375,0.031494140625
0.552,465,2133,1499,1455,-12.0,29.0,24.0,-9.765625,1.220703125,-2.746581792831421,-1.1390380859375,0.3367919921875,-0.0196533203125
0.552,466,2442,1383,1156,-12.0,29.0,24.0,-5.126952648162842,8.85009765625,-2.990722417831421,-1.138671875,0.374755859375,-0.1229248046875
0.553,464,2217,1404,1494,-12.0,29.0,24.0,-5.126952648162842,8.85009765625,-2.990722417831421,-1.1551513671875,0.338623046875,-0.2379150390625
0.560,441,2035,1430,1352,-12.0,29.0,24.0,3.845214605331421,14.038084983825684,-11.596678733825684,-1.155517578125,0.277587890625,-0.3338623046875
0.568,442,1969,1454,1464,-12.0,29.0,24.0,6.042479991912842,12.634276390075684,-15.075682640075684,-1.138427734375,0.24951171875,-0.4033203125
0.576,438,1927,1411,1424,-12.0,29.0,24.0,6.042479991912842,12.634276390075684,-15.075682640075684,-1.119384765625,0.2576904296875,-0.4521484375
0.593,411,1874,1267,1226,-12.0,29.0,24.0,0.0,8.1787109375,-18.61572265625,-1.08984375,0.2474365234375,-0.4599609375
0.598,402,1822,1278,1287,-12.0,29.0,24.0,0.0,8.1787109375,-18.61572265625,-1.0499267578125,0.20556640625,-0.428466796875
0.606,390,1769,1213,1206,-12.0,29.0,24.0,-6.835937023162842,6.652831554412842,-21.118162155151367,-1.0499267578125,0.20556640625,-0.428466796875
0.622,371,1600,1056,1038,-12.0,29.0,24.0,-17.333984375,7.202147960662842,-26.489255905151367,-0.9599609375,0.1612548828125,-0.29052734375
0.628,372,1399,1051,1078,-13.0,29.0,20.0,-17.333984375,7.202147960662842,-26.489255905151367,-0.9117431640625,0.1448974609375,-0.1788330078125
0.654,357,1274,984,1004,-13.0,29.0,20.0,-19.22607421875,6.896972179412842,-28.503416061401367,-0.9117431640625,0.1448974609375,-0.1788330078125
0.654,334,1076,849,728,-13.0,29.0,20.0,-13.793944358825684,0.2441406100988388,-32.470703125,-0.8173828125,0.1197509765625,0.010009765625
0.658,316,936,767,806,-13.0,29.0,20.0,-13.793944358825684,0.2441406100988388,-32.470703125,-0.796875,0.1160888671875,0.0130615234375
0.666,299,815,692,740,-13.0,29.0,20.0,-9.1552734375,-3.540038824081421,-31.982419967651367,-0.796875,0.1160888671875,0.0130615234375
0.680,277,683,576,620,-13.0,29.0,20.0,-2.807616949081421,-4.2724609375,-29.479978561401367,-0.74462890625,0.157470703125,-0.080810546875
0.688,273,643,567,630,-13.0,29.0,20.0,-2.807616949081421,-4.2724609375,-29.479978561401367,-0.676025390625,0.23486328125,-0.1123046875
0.700,268,669,553,629,-13.0,29.0,20.0,-6.713866710662842,-2.807616949081421,-26.000974655151367,-0.676025390625,0.23486328125,-0.1123046875
0.710,268,645,548,601,-13.0,29.0,20.0,-17.76123046875,-0.2441406100988388,-17.9443359375,-0.660400390625,0.260009765625,-0.1763916015625
0.718,268,644,561,625,-13.0,29.0,20.0,-17.76123046875,-0.2441406100988388,-17.9443359375,-0.6619873046875,0.1907958984375,-0.182373046875
0.760,265,682,555,614,-9.0,27.0,23.0,-10.681151390075684,-3.906249761581421,-12.634276390075684,-0.6446533203125,0.0494384765625,-0.1427001953125
0.760,268,693,533,618,-9.0,27.0,23.0,-10.681151390075684,-3.906249761581421,-12.634276390075684,-0.6319580078125,0.0413818359375,-0.130615234375
0.760,256,685,603,582,-9.0,27.0,23.0,-3.479003667831421,-3.906249761581421,-8.23974609375,-0.6319580078125,0.0413818359375,-0.130615234375
0.770,274,757,555,630,-9.0,27.0,23.0,7.629394054412842,-3.173827886581421,1.0986328125,-0.6541748046875,-0.0152587890625,-0.0584716796875
0.778,280,788,580,682,-9.0,27.0,23.0,7.629394054412842,-3.173827886581421,1.0986328125,-0.65380859375,-0.0413818359375,-0.02294921875
0.786,280,833,628,698,-9.0,27.0,23.0,14.831542015075684,-2.746581792831421,5.981444835662842,-0.65380859375,-0.0413818359375,-0.02294921875
0.806,304,968,714,738,-9.0,27.0,23.0,31.188962936401367,0.3662109076976776,20.751951217651367,-0.652099609375,0.1142578125,-0.057373046875
0.808,290,1183,733,834,-9.0,27.0,23.0,31.188962936401367,0.3662109076976776,20.751951217651367,-0.67236328125,0.197509765625,-0.1180419921875
0.816,324,1207,841,913,-9.0,27.0,23.0,33.02001953125,1.6479490995407104,27.038572311401367,-0.67236328125,0.197509765625,-0.1180419921875
0.872,348,1404,933,949,-11.0,32.0,19.0,29.479978561401367,3.295898199081421,29.907224655151367,-0.7515869140625,0.2237548828125,-0.3082275390625
0.874,363,1548,1034,1103,-11.0,32.0,19.0,21.179197311401367,5.126952648162842,30.212400436401367,-0.7515869140625,0.2237548828125,-0.3082275390625
0.875,373,1744,991,1079,-11.0,32.0,19.0,8.23974609375,5.371093273162842,29.968259811401367,-0.761962890625,0.209716796875,-0.32080078125
0.875,383,1796,1098,1148,-11.0,32.0,19.0,-3.784179449081421,3.112792730331421,30.822751998901367,-0.7913818359375,0.22021484375,-0.2642822265625
0.875,401,1850,1195,1308,-11.0,32.0,19.0,-9.765625,-2.13623046875,31.188962936401367,-0.7913818359375,0.22021484375,-0.2642822265625
0.876,411,1895,1229,1359,-11.0,32.0,19.0,-8.72802734375,-10.620116233825684,29.235837936401367,-0.7593994140625,0.172607421875,-0.14404296875
0.889,424,2005,1236,1305,-11.0,32.0,19.0,-2.807616949081421,-19.34814453125,27.709959030151367,-0.7852783203125,0.1802978515625,0.00048828125
0.898,423,2057,1370,1439,-11.0,32.0,19.0,3.601073980331421,-24.414060592651367,28.198240280151367,-0.7852783203125,0.1802978515625,0.00048828125
0.912,424,2119,1413,1464,-11.0,32.0,19.0,6.835937023162842,-24.597166061401367,28.442380905151367,-0.8382568359375,0.2310791015625,0.002685546875
0.919,442,2141,1387,1409,-11.0,29.0,23.0,7.202147960662842,-20.324705123901367,27.099607467651367,-0.983642578125,0.331298828125,-0.1402587890625
0.928,464,2175,1501,1559,-11.0,29.0,23.0,6.164550304412842,-13.427733421325684,24.658201217651367,-0.983642578125,0.331298828125,-0.1402587890625
0.969,456,2316,1487,1417,-11.0,29.0,23.0,7.263183116912842,-4.150390625,23.559568405151367,-1.14453125,0.5330810546875,-0.2569580078125
0.969,466,2333,1598,1583,-11.0,29.0,23.0,11.413573265075684,-5.798339366912842,22.644041061401367,-1.14453125,0.5330810546875,-0.2569580078125
0.969,465,2334,1635,1608,-11.0,29.0,23.0,15.502928733825684,-9.3994140625,17.51708984375,-1.1768798828125,0.595703125,-0.3931884765625
0.979,468,2372,1548,1477,-11.0,29.0,23.0,17.4560546875,-11.474608421325684,8.36181640625,-1.389892578125,0.230712890625,-0.6400146484375
0.988,485,2317,1638,1691,-11.0,29.0,23.0,13.183592796325684,-11.901854515075684,0.2441406100988388,-1.389892578125,0.230712890625,-0.6400146484375
0.996,486,2372,1653,1684,-11.0,29.0,23.0,0.9155272841453552,-11.840819358825684,-2.25830078125,-1.5718994140625,-0.018798828125,-0.4593505859375
1.009,481,2381,1575,1545,-11.0,29.0,23.0,-13.793944358825684,-12.207030296325684,1.7700194120407104,-1.4686279296875,0.103759765625,-0.0426025390625
1.020,487,2375,1676,1691,-13.0,28.0,23.0,-21.850584030151367,-11.413573265075684,9.8876953125,-1.4686279296875,0.103759765625,-0.0426025390625
1.026,485,2418,1655,1669,-13.0,28.0,23.0,-18.06640625,-8.48388671875,15.319823265075684,-1.2379150390625,0.387939453125,-0.21875
1.046,470,2375,1569,1506,-13.0,28.0,23.0,-9.58251953125,-7.324218273162842,12.939452171325684,-1.03369140625,0.531494140625,-0.3984375
1.063,388,2608,1464,1607,-13.0,28.0,23.0,-4.638671875,-10.253905296325684,4.33349609375,-1.0296630859375,0.5244140625,-0.40478515625
1.064,433,2424,1488,1476,-13.0,28.0,23.0,-5.981444835662842,-14.221190452575684,-4.82177734375,-1.198974609375,0.423828125,-0.25
1.072,470,2309,1577,1488,-13.0,28.0,23.0,-12.817381858825684,-14.770506858825684,-9.33837890625,-1.31787109375,0.29345703125,-0.034423828125
1.078,468,2277,1656,1622,-13.0,28.0,23.0,-18.6767578125,-9.82666015625,-8.30078125,-1.28076171875,0.24560546875,0.1158447265625
1.086,466,2246,1641,1604,-13.0,28.0,23.0,-17.9443359375,-0.3662109076976776,-5.065917491912842,-1.17236328125,0.291015625,0.125
1.100,468,2190,1536,1437,-13.0,28.0,23.0,-11.901854515075684,9.82666015625,-3.479003667831421,-1.1141357421875,0.3359375,0.0196533203125
1.108,466,2194,1592,1537,-13.0,28.0,23.0,-4.57763671875,16.54052734375,-5.310058116912842,-1.1226806640625,0.3427734375,-0.1192626953125
1.116,464,2161,1574,1519,-12.0,29.0,27.0,1.4038084745407104,18.4326171875,-9.033203125,-1.149169921875,0.31884765625,-0.244140625
1.131,424,2335,1361,1427,-12.0,29.0,27.0,4.57763671875,17.15087890625,-12.634276390075684,-1.1478271484375,0.2735595703125,-0.3438720703125
1.138,454,2024,1488,1452,-12.0,29.0,27.0,3.845214605331421,15.075682640075684,-14.953612327575684,-1.1031494140625,0.2503662109375,-0.400146484375
1.168,438,1960,1450,1437,-12.0,29.0,27.0,-0.7934569716453552,13.916014671325684,-16.29638671875,-1.05859375,0.2613525390625,-0.42431640625
1.168,430,1945,1377,1349,-12.0,29.0,27.0,-8.60595703125,13.977049827575684,-18.06640625,-1.03173828125,0.264404296875,-0.4169921875
1.169,419,1779,1352,1330,-12.0,29.0,27.0,-17.63916015625,14.709471702575684,-20.690916061401367,-1.0062255859375,0.2353515625,-0.3656005859375
1.177,409,1773,1290,1250,-12.0,29.0,27.0,-24.169919967651367,15.319823265075684,-23.315427780151367,-0.9813232421875,0.205810546875,-0.3028564453125
1.191,390,1578,1156,1078,-12.0,29.0,27.0,-25.695798873901367,15.075682640075684,-25.695798873901367,-0.945556640625,0.2034912109375,-0.2294921875
1.198,386,1424,1163,1107,-12.0,29.0,27.0,-24.414060592651367,12.634276390075684,-28.503416061401367,-0.8824462890625,0.1951904296875,-0.1044921875
1.206,373,1331,1091,1031,-12.0,29.0,27.0,-20.996091842651367,8.9111328125,-31.616209030151367,-0.8121337890625,0.1458740234375,0.02392578125
1.219,354,1081,934,860,-10.0,31.0,21.0,-15.319823265075684,6.164550304412842,-32.77587890625,-0.7603759765625,0.07568359375,0.1025390625
1.232,332,934,906,842,-10.0,31.0,21.0,-8.056640625,5.981444835662842,-29.663084030151367,-0.748046875,0.067138671875,0.0677490234375
1.236,324,869,837,786,-10.0,31.0,21.0,-1.8920897245407104,7.751464366912842,-25.390623092651367,-0.748779296875,0.111328125,-0.0281982421875
1.268,306,721,731,678,-10.0,31.0,21.0,-0.4882812201976776,8.60595703125,-23.376462936401367,-0.724853515625,0.135986328125,-0.0767822265625
1.269,298,678,678,661,-10.0,31.0,21.0,-2.50244140625,7.995604991912842,-20.385740280151367,-0.6890869140625,0.19482421875,-0.1099853515625
1.269,286,620,606,607,-10.0,31.0,21.0,-4.82177734375,6.774901866912842,-15.380858421325684,-0.6549072265625,0.276611328125,-0.138427734375
1.280,280,678,586,614,-10.0,31.0,21.0,-6.286620616912842,5.554198741912842,-11.718749046325684,-0.6455078125,0.2987060546875,-0.17236328125
1.288,279,678,600,644,-10.0,31.0,21.0,-5.676269054412842,4.7607421875,-11.047362327575684,-0.6595458984375,0.233642578125,-0.19091796875
1.297,282,691,614,649,-10.0,31.0,21.0,-3.173827886581421,4.2724609375,-11.413573265075684,-0.65771484375,0.142822265625,-0.1922607421875
1.310,287,707,621,644,-10.0,29.0,21.0,-0.4882812201976776,4.82177734375,-10.131834983825684,-0.6458740234375,0.0927734375,-0.19580078125
1.318,294,725,683,693,-10.0,29.0,21.0,0.6103515625,6.103515148162842,-6.591796398162842,-0.6669921875,0.078857421875,-0.1666259765625
1.326,306,740,746,721,-10.0,29.0,21.0,0.9765624403953552,6.286620616912842,-2.38037109375,-0.7060546875,0.0611572265625,-0.102294921875
1.340,318,849,788,740,-10.0,29.0,21.0,4.0283203125,5.371093273162842,1.4648436307907104,-0.727783203125,0.0479736328125,-0.0662841796875
1.387,330,1003,867,846,-10.0,29.0,21.0,10.009765625,4.57763671875,5.737304210662842,-0.729248046875,0.0770263671875,-0.0859375
1.389,338,1024,894,740,-10.0,29.0,21.0,15.075682640075684,4.5166015625,10.375975608825684,-0.7191162109375,0.122314453125,-0.13720703125
1.389,356,1251,984,963,-10.0,29.0,21.0,16.54052734375,4.94384765625,13.977049827575684,-0.7099609375,0.1512451171875,-0.1922607421875
1.389,371,1348,1022,1056,-10.0,29.0,21.0,14.526366233825684,5.187987804412842,16.05224609375,-0.7132568359375,0.138671875,-0.2244873046875
1.389,380,1463,1066,1122,-10.0,29.0,21.0,10.681151390075684,4.8828125,17.9443359375,-0.7283935546875,0.1246337890625,-0.2406005859375
1.407,388,1643,1093,1115,-10.0,29.0,21.0,6.591796398162842,3.906249761581421,21.118162155151367,-0.75732421875,0.1727294921875,-0.2589111328125
1.411,401,1700,1182,1266,-8.0,30.0,18.0,2.3193359375,1.4648436307907104,24.353025436401367,-0.7998046875,0.25341796875,-0.2557373046875
1.416,414,1781,1220,1306,-8.0,30.0,18.0,-2.563476324081421,-2.929687261581421,25.085447311401367,-0.7828369140625,0.27685546875,-0.2030029296875
1.430,426,1899,1215,1268,-8.0,30.0,18.0,-6.469726085662842,-7.690429210662842,22.705076217651367,-0.739990234375,0.226806640625,-0.119873046875
1.445,442,1954,1323,1424,-8.0,30.0,18.0,-6.042479991912842,-10.620116233825684,19.8974609375,-0.77392578125,0.181640625,-0.0755615234375
1.446,452,2024,1369,1452,-8.0,30.0,18.0,-3.112792730331421,-11.535643577575684,19.95849609375,-0.822998046875,0.1485595703125,-0.0765380859375
1.474,444,2421,1251,1108,-8.0,30.0,18.0,0.0,-11.901854515075684,22.583005905151367,-0.845703125,0.1414794921875,-0.083251953125
1.474,466,2271,1323,1476,-8.0,30.0,18.0,3.906249761581421,-11.901854515075684,25.756834030151367,-0.871826171875,0.201171875,-0.1351318359375
1.476,431,2492,1568,1413,-8.0,30.0,18.0,7.690429210662842,-10.864256858825684,27.526853561401367,-0.896484375,0.2685546875,-0.1947021484375
1.489,470,2217,1464,1478,-8.0,30.0,18.0,9.6435546875,-10.681151390075684,27.282712936401367,-0.909912109375,0.3199462890625,-0.1553955078125
1.498,482,2253,1575,1611,-8.0,30.0,18.0,10.620116233825684,-11.352538108825684,25.390623092651367,-0.95068359375,0.376220703125,-0.14208984375
1.506,481,2247,1588,1640,-9.0,28.0,21.0,10.620116233825684,-11.352538108825684,25.390623092651367,-1.0107421875,0.4114990234375,-0.183349609375
1.522,467,2392,1557,1472,-9.0,28.0,21.0,13.244627952575684,-8.9111328125,20.446775436401367,-1.0758056640625,0.4508056640625,-0.209228515625
1.528,485,2367,1653,1662,-9.0,28.0,21.0,15.624999046325684,-7.507323741912842,17.51708984375,-1.1773681640625,0.4317626953125,-0.3369140625
1.536,493,2348,1643,1686,-9.0,28.0,21.0,15.624999046325684,-7.507323741912842,17.51708984375,-1.33056640625,0.2803955078125,-0.51171875
1.573,509,2330,1552,1602,-9.0,28.0,21.0,8.85009765625,-5.249022960662842,8.85009765625,-1.5224609375,0.119140625,-0.5574951171875
1.575,525,2909,1821,1861,-9.0,28.0,21.0,-1.7089842557907104,-7.080077648162842,7.141112804412842,-1.5921630859375,0.0760498046875,-0.3831787109375
1.576,454,2691,1488,1462,-9.0,28.0,21.0,-1.7089842557907104,-7.080077648162842,7.141112804412842,-1.4776611328125,0.1798095703125,-0.156982421875
1.579,505,2419,1669,1732,-9.0,28.0,21.0,-13.000487327575684,-7.690429210662842,12.084959983825684,-1.331298828125,0.348876953125,-0.116943359375
1.588,487,2432,1676,1702,-9.0,28.0,21.0,-7.751464366912842,-4.08935546875,12.268065452575684,-1.1907958984375,0.468994140625,-0.240478515625
1.596,491,2418,1676,1700,-9.0,28.0,21.0,-7.751464366912842,-4.08935546875,12.268065452575684,-1.0501708984375,0.4962158203125,-0.3851318359375
1.610,490,2407,1575,1546,-11.0,28.0,18.0,-1.4038084745407104,-5.493163585662842,-0.7934569716453552,-1.0682373046875,0.47216796875,-0.42529296875
1.617,497,2396,1669,1686,-11.0,28.0,18.0,-4.45556640625,-9.94873046875,-8.7890625,-1.26904296875,0.421142578125,-0.332763671875
1.626,493,2337,1646,1686,-11.0,28.0,18.0,-4.45556640625,-9.94873046875,-8.7890625,-1.4161376953125,0.3349609375,-0.1561279296875
1.639,499,2295,1550,1529,-11.0,28.0,18.0,-17.02880859375,-8.23974609375,-11.413573265075684,-1.3779296875,0.271484375,0.0224609375
1.648,491,2260,1622,1659,-11.0,28.0,18.0,-17.15087890625,0.1220703050494194,-7.934569835662842,-1.2442626953125,0.26611328125,0.10791015625
1.680,501,2247,1580,1627,-11.0,28.0,18.0,-17.15087890625,0.1220703050494194,-7.934569835662842,-1.1429443359375,0.2791748046875,0.072265625
1.681,482,2178,1564,1613,-11.0,28.0,18.0,-3.479003667831421,19.4091796875,-5.126952648162842,-1.1060791015625,0.2864990234375,-0.05126953125
1.681,484,2271,1401,1533,-11.0,28.0,18.0,3.967284917831421,23.620603561401367,-7.568358898162842,-1.10205078125,0.289306640625,-0.2193603515625
1.687,479,2117,1521,1555,-11.0,28.0,18.0,3.967284917831421,23.620603561401367,-7.568358898162842,-1.083740234375,0.2939453125,-0.3651123046875
1.700,464,2014,1396,1386,-11.0,31.0,18.0,9.765625,20.446775436401367,-15.136717796325684,-1.0386962890625,0.2872314453125,-0.438720703125
1.708,462,1997,1439,1474,-11.0,31.0,18.0,7.019042491912842,17.7001953125,-18.49365234375,-0.9874267578125,0.2698974609375,-0.458740234375
1.716,442,1934,1390,1445,-11.0,31.0,18.0,7.019042491912842,17.7001953125,-18.49365234375,-0.9405517578125,0.25244140625,-0.439697265625
1.730,430,1843,1264,1267,-11.0,31.0,18.0,-10.070799827575684,17.2119140625,-22.277830123901367,-0.895751953125,0.2413330078125,-0.383056640625
1.738,427,1785,1292,1328,-11.0,31.0,18.0,-10.070799827575684,17.2119140625,-22.277830123901367,-0.8580322265625,0.2288818359375,-0.3052978515625
1.748,411,1698,1231,1271,-11.0,31.0,18.0,-19.775390625,17.7001953125,-24.047849655151367,-0.8580322265625,0.2288818359375,-0.3052978515625
1.779,391,1543,1125,1094,-11.0,31.0,18.0,-26.916501998901367,16.05224609375,-29.602048873901367,-0.81494140625,0.1483154296875,-0.08642578125
1.780,387,1444,1117,1115,-11.0,31.0,18.0,-26.916501998901367,16.05224609375,-29.602048873901367,-0.79052734375,0.095703125,0.0330810546875
1.780,348,1557,991,1000,-11.0,31.0,18.0,-24.230955123901367,13.366698265075684,-31.127927780151367,-0.79052734375,0.095703125,0.0330810546875
1.790,356,1228,949,923,-11.0,31.0,18.0,-6.774901866912842,9.765625,-25.939939498901367,-0.73828125,0.1094970703125,0.0880126953125
1.798,348,1129,944,933,-8.0,32.0,18.0,-6.774901866912842,9.765625,-25.939939498901367,-0.709716796875,0.123779296875,-0.0035400390625
1.806,346,1053,913,895,-8.0,32.0,18.0,3.234863042831421,10.009765625,-23.132322311401367,-0.709716796875,0.123779296875,-0.0035400390625
1.820,333,978,853,813,-8.0,32.0,18.0,13.793944358825684,11.962889671325684,-18.00537109375,-0.603515625,0.1607666015625,-0.1307373046875
1.828,334,984,883,858,-8.0,32.0,18.0,13.793944358825684,11.962889671325684,-18.00537109375,-0.5643310546875,0.271484375,-0.150390625
1.836,332,1025,868,872,-8.0,32.0,18.0,11.230467796325684,11.962889671325684,-9.82666015625,-0.5643310546875,0.271484375,-0.150390625
1.850,336,1104,840,849,-8.0,32.0,18.0,5.859374523162842,10.925292015075684,-1.7089842557907104,-0.6339111328125,0.275146484375,-0.1873779296875
1.884,338,1143,871,922,-8.0,32.0,18.0,5.859374523162842,10.925292015075684,-1.7089842557907104,-0.7205810546875,0.1856689453125,-0.2261962890625
1.884,346,1173,905,912,-8.0,32.0,18.0,9.70458984375,10.925292015075684,-4.08935546875,-0.7205810546875,0.1856689453125,-0.2261962890625
1.885,354,1483,865,975,-8.0,32.0,18.0,15.075682640075684,10.131834983825684,-5.310058116912842,-0.803955078125,0.074951171875,-0.2579345703125
1.888,360,1398,944,1031,-8.0,32.0,18.0,15.075682640075684,10.131834983825684,-5.310058116912842,-0.8109130859375,0.04736328125,-0.2269287109375
1.897,365,1434,975,1070,-9.0,32.0,21.0,12.023924827575684,9.58251953125,-1.8920897245407104,-0.8109130859375,0.04736328125,-0.2269287109375
1.910,370,1531,963,1039,-9.0,32.0,21.0,4.7607421875,6.408690929412842,8.7890625,-0.8133544921875,0.1046142578125,-0.162841796875
1.918,374,1592,1051,1157,-9.0,32.0,21.0,4.7607421875,6.408690929412842,8.7890625,-0.8106689453125,0.158203125,-0.1593017578125
1.927,385,1669,1065,1198,-9.0,32.0,21.0,3.234863042831421,5.065917491912842,13.427733421325684,-0.8106689453125,0.158203125,-0.1593017578125
1.940,388,1773,1055,1156,-9.0,32.0,21.0,-1.03759765625,5.371093273162842,17.63916015625,-0.8035888671875,0.213623046875,-0.1373291015625
1.949,402,1837,1118,1290,-9.0,32.0,21.0,-1.03759765625,5.371093273162842,17.63916015625,-0.745361328125,0.16015625,-0.094970703125
1.956,404,1913,1149,1316,-9.0,32.0,21.0,-4.21142578125,4.94384765625,18.73779296875,-0.745361328125,0.16015625,-0.094970703125
1.989,423,2075,1108,1351,-9.0,32.0,21.0,-3.356933355331421,3.723144292831421,20.141599655151367,-0.71435546875,0.0924072265625,-0.128662109375
1.990,423,2018,1255,1427,-9.0,32.0,21.0,2.25830078125,1.8920897245407104,21.362302780151367,-0.71435546875,0.0924072265625,-0.128662109375
1.990,435,2091,1303,1430,-9.0,32.0,21.0,9.1552734375,-0.4272460639476776,22.338865280151367,-0.7503662109375,0.108642578125,-0.187255859375
2.000,439,2130,1336,1373,-10.0,34.0,24.0,13.366698265075684,-2.990722417831421,24.108884811401367,-0.8394775390625,0.2681884765625,-0.254638671875
2.008,455,2186,1411,1533,-10.0,34.0,24.0,14.282225608825684,-4.8828125,25.268552780151367,-0.8394775390625,0.2681884765625,-0.254638671875
2.016,458,2195,1434,1557,-10.0,34.0,24.0,14.465331077575684,-5.554198741912842,24.414060592651367,-0.8917236328125,0.31982421875,-0.3040771484375
2.030,464,2246,1395,1467,-10.0,34.0,24.0,14.465331077575684,-4.45556640625,22.888181686401367,-0.969482421875,0.368896484375,-0.4188232421875
2.038,466,2275,1503,1622,-10.0,34.0,24.0,11.596678733825684,-2.807616949081421,21.667478561401367,-0.969482421875,0.368896484375,-0.4188232421875
2.046,479,2295,1508,1616,-10.0,34.0,24.0,5.981444835662842,-2.624511480331421,19.8974609375,-0.979736328125,0.339599609375,-0.4228515625
2.060,468,2340,1467,1508,-10.0,34.0,24.0,1.03759765625,-4.33349609375,16.845703125,-0.987060546875,0.288330078125,-0.33935546875
2.100,487,2382,1568,1678,-10.0,34.0,24.0,-3.540038824081421,-11.047362327575684,10.864256858825684,-1.0181884765625,0.2928466796875,-0.2816162109375
2.100,491,2375,1514,1580,-10.0,34.0,24.0,-4.21142578125,-12.939452171325684,8.11767578125,-1.1861572265625,0.2779541015625,-0.3450927734375
2.100,504,2410,1600,1713,-11.0,29.0,22.0,-3.723144292831421,-12.756346702575684,6.347655773162842,-1.1861572265625,0.2779541015625,-0.3450927734375
2.106,506,2440,1611,1732,-11.0,29.0,22.0,-3.723144292831421,-12.573241233825684,6.591796398162842,-1.28173828125,0.3367919921875,-0.3350830078125
2.120,497,2428,1527,1588,-11.0,29.0,22.0,-4.57763671875,-13.244627952575684,6.347655773162842,-1.3145751953125,0.3280029296875,-0.247802734375
2.128,508,2430,1604,1739,-11.0,29.0,22.0,-4.33349609375,-13.549803733825684,3.845214605331421,-1.3145751953125,0.3280029296875,-0.247802734375
2.136,495,2424,1602,1739,-11.0,29.0,22.0,-1.8920897245407104,-12.512206077575684,0.6103515625,-1.337158203125,0.313232421875,-0.268798828125
2.150,495,2421,1514,1588,-11.0,29.0,22.0,1.5869139432907104,-11.291502952575684,-2.563476324081421,-1.13818359375,0.2838134765625,-0.3045654296875
2.158,495,2428,1604,1718,-11.0,29.0,22.0,3.479003667831421,-10.803221702575684,-6.103515148162842,-1.13818359375,0.2838134765625,-0.3045654296875
2.166,493,2415,1604,1713,-11.0,29.0,22.0,2.197265625,-10.681151390075684,-9.521484375,-1.122314453125,0.354248046875,-0.3634033203125
2.206,490,2379,1502,1545,-11.0,29.0,22.0,-2.50244140625,-10.375975608825684,-12.207030296325684,-1.3260498046875,0.436767578125,-0.36279296875
2.208,497,2323,1595,1700,-11.0,29.0,22.0,-8.7890625,-9.6435546875,-14.099120140075684,-1.475341796875,0.3994140625,-0.2288818359375
2.208,484,2293,1574,1676,-11.0,29.0,27.0,-11.657713890075684,-7.324218273162842,-14.770506858825684,-1.426025390625,0.300048828125,-0.0728759765625
2.211,440,2340,1456,1557,-11.0,29.0,27.0,-7.934569835662842,-1.8920897245407104,-14.343260765075684,-1.284423828125,0.21875,-0.024658203125
2.218,481,2214,1506,1593,-11.0,29.0,27.0,-1.220703125,5.554198741912842,-13.732909202575684,-1.1715087890625,0.2060546875,-0.068359375
2.226,468,2172,1503,1561,-11.0,29.0,27.0,2.868652105331421,12.512206077575684,-13.244627952575684,-1.120849609375,0.243896484375,-0.1456298828125
2.240,447,2087,1382,1370,-11.0,29.0,27.0,5.737304210662842,17.27294921875,-14.465331077575684,-1.107177734375,0.263671875,-0.256103515625
2.248,446,2030,1427,1467,-11.0,29.0,27.0,9.82666015625,19.04296875,-18.00537109375,-1.0811767578125,0.278076171875,-0.3848876953125
2.256,438,1987,1374,1433,-11.0,29.0,27.0,11.352538108825684,18.1884765625,-22.094724655151367,-1.0267333984375,0.30419921875,-0.49609375
2.311,400,1953,1243,1330,-11.0,29.0,27.0,6.896972179412842,16.41845703125,-25.878904342651367,-0.9622802734375,0.3228759765625,-0.5684814453125
2.313,411,1748,1202,1283,-11.0,29.0,27.0,-2.50244140625,14.282225608825684,-30.334470748901367,-0.9033203125,0.296142578125,-0.5694580078125
2.314,403,1634,1166,1239,-11.0,29.0,27.0,-12.878417015075684,11.901854515075684,-35.888671875,-0.850830078125,0.22998046875,-0.5037841796875
2.314,375,1413,1012,1014,-9.0,30.0,16.0,-21.301267623901367,9.521484375,-40.893550872802734,-0.8109130859375,0.1793212890625,-0.404541015625
2.314,361,1278,989,1003,-9.0,30.0,16.0,-28.015134811401367,6.469726085662842,-43.701168060302734,-0.760009765625,0.1453857421875,-0.2254638671875
2.316,348,1129,922,922,-9.0,30.0,16.0,-31.860349655151367,2.0751953125,-45.349117279052734,-0.68212890625,0.09228515625,0.0050048828125
2.330,323,891,785,749,-9.0,30.0,16.0,-28.686521530151367,-1.4648436307907104,-45.471187591552734,-0.6470947265625,0.066162109375,0.1363525390625
2.338,309,787,757,735,-9.0,30.0,16.0,-19.59228515625,-3.051757574081421,-43.701168060302734,-0.6661376953125,0.0601806640625,0.1712646484375
2.346,300,751,700,702,-9.0,30.0,16.0,-8.7890625,-3.295898199081421,-41.625972747802734,-0.6849365234375,0.0438232421875,0.1519775390625
2.360,289,695,631,632,-9.0,30.0,16.0,1.6479490995407104,-2.01416015625,-36.865234375,-0.6900634765625,0.0758056640625,0.0718994140625
2.368,289,698,631,658,-9.0,30.0,16.0,8.9111328125,0.0,-27.038572311401367,-0.6710205078125,0.14990234375,-0.0050048828125
2.394,282,704,625,660,-9.0,30.0,16.0,11.352538108825684,2.0751953125,-16.41845703125,-0.6278076171875,0.1695556640625,-0.0596923828125
2.394,290,736,632,651,-8.0,30.0,18.0,11.413573265075684,5.249022960662842,-9.09423828125,-0.597900390625,0.1322021484375,-0.1392822265625
2.404,299,766,673,698,-8.0,30.0,18.0,11.474608421325684,8.9111328125,-5.0048828125,-0.6204833984375,0.0859375,-0.2222900390625
2.407,306,827,705,731,-8.0,30.0,18.0,11.413573265075684,10.620116233825684,-2.807616949081421,-0.699462890625,0.0540771484375,-0.2681884765625
2.424,308,897,725,738,-8.0,30.0,18.0,11.291502952575684,8.72802734375,-0.2441406100988388,-0.7894287109375,0.0662841796875,-0.2645263671875
2.428,316,975,763,813,-8.0,30.0,18.0,12.878417015075684,4.0283203125,3.173827886581421,-0.8402099609375,0.1004638671875,-0.240478515625
2.436,316,1074,785,841,-8.0,30.0,18.0,17.02880859375,-0.4272460639476776,6.591796398162842,-0.8472900390625,0.132568359375,-0.2381591796875
2.450,324,1206,788,846,-8.0,30.0,18.0,20.263669967651367,-2.929687261581421,8.97216796875,-0.82177734375,0.126220703125,-0.23681640625
2.458,332,1282,848,943,-8.0,30.0,18.0,19.59228515625,-3.723144292831421,10.559081077575684,-0.798828125,0.073486328125,-0.222412109375
2.466,338,1363,888,980,-8.0,30.0,18.0,16.05224609375,-3.417968511581421,13.305663108825684,-0.8016357421875,0.0474853515625,-0.2154541015625
2.496,348,1518,894,920,-8.0,30.0,18.0,10.864256858825684,-2.624511480331421,18.24951171875,-0.8148193359375,0.073974609375,-0.224609375
2.497,361,1613,971,1108,-10.0,30.0,21.0,4.94384765625,-1.9531248807907104,23.803709030151367,-0.81640625,0.1248779296875,-0.228515625
2.497,369,1643,996,1170,-10.0,30.0,21.0,-0.4882812201976776,-1.4038084745407104,27.709959030151367,-0.8314208984375,0.1796875,-0.2254638671875
2.515,371,1840,1009,1108,-10.0,30.0,21.0,-5.310058116912842,-1.4038084745407104,29.052732467651367,-0.84326171875,0.2137451171875,-0.1932373046875
2.518,383,1945,1095,1239,-10.0,30.0,21.0,-10.559081077575684,-3.173827886581421,28.930662155151367,-0.7860107421875,0.1580810546875,-0.1025390625
2.526,387,2004,1103,1289,-10.0,30.0,21.0,-11.352538108825684,-5.187987804412842,28.625486373901367,-0.70947265625,0.059814453125,-0.0382080078125
2.540,391,2104,1093,1223,-10.0,30.0,21.0,-4.39453125,-6.408690929412842,29.357908248901367,-0.6724853515625,0.0489501953125,-0.04833984375
2.548,403,2170,1204,1384,-10.0,30.0,21.0,5.126952648162842,-7.995604991912842,31.127927780151367,-0.665771484375,0.0943603515625,-0.06884765625
2.556,414,2235,1231,1426,-10.0,30.0,21.0,11.840819358825684,-9.94873046875,32.89794921875,-0.6759033203125,0.1416015625,-0.065673828125
2.570,416,2319,1233,1351,-10.0,30.0,21.0,14.160155296325684,-10.681151390075684,34.24072265625,-0.7012939453125,0.20263671875,-0.0550537109375
2.604,426,2391,1361,1504,-10.0,30.0,21.0,14.099120140075684,-8.7890625,34.423828125,-0.7523193359375,0.289306640625,-0.09521484375
2.604,373,2830,1260,1497,-11.0,29.0,22.0,13.793944358825684,-5.432128429412842,32.77587890625,-0.7860107421875,0.3515625,-0.1485595703125
2.605,382,2627,1357,1544,-11.0,29.0,22.0,15.808104515075684,-1.5258787870407104,28.747556686401367,-0.87646484375,0.3687744140625,-0.3414306640625
2.609,465,2479,1487,1640,-11.0,29.0,22.0,18.24951171875,2.624511480331421,23.254392623901367,-1.031982421875,0.3814697265625,-0.612060546875
2.617,467,2519,1504,1656,-11.0,29.0,22.0,13.549803733825684,3.479003667831421,18.310546875,-1.16259765625,0.4237060546875,-0.697021484375
2.631,465,2492,1467,1543,-11.0,29.0,22.0,3.723144292831421,-1.6479490995407104,12.756346702575684,-1.2723388671875,0.42138671875,-0.6231689453125
2.638,482,2526,1548,1705,-11.0,29.0,22.0,-3.234863042831421,-10.375975608825684,5.859374523162842,-1.3443603515625,0.3515625,-0.4708251953125
2.649,484,2525,1569,1711,-11.0,29.0,22.0,-3.234863042831421,-10.375975608825684,5.859374523162842,-1.412353515625,0.2965087890625,-0.368408203125
2.660,512,2409,1463,1656,-11.0,29.0,22.0,-8.6669921875,-20.996091842651367,-0.30517578125,-1.49755859375,0.2657470703125,-0.32666015625
2.670,523,2426,1561,1803,-11.0,29.0,22.0,-9.033203125,-20.263669967651367,-0.9765624403953552,-1.5616455078125,0.24560546875,-0.254150390625
2.676,513,2504,1552,1772,-11.0,29.0,22.0,-9.033203125,-20.263669967651367,-0.9765624403953552,-1.5447998046875,0.2078857421875,-0.1302490234375
2.702,509,2409,1490,1651,-11.0,30.0,23.0,-8.30078125,-11.413573265075684,-0.2441406100988388,-1.3218994140625,0.1824951171875,-0.056640625
2.702,512,2430,1564,1782,-11.0,30.0,23.0,-6.103515148162842,-4.0283203125,0.0610351525247097,-1.097412109375,0.260986328125,-0.1683349609375
2.710,509,2456,1523,1759,-11.0,30.0,23.0,-6.103515148162842,-4.0283203125,0.0610351525247097,-1.2080078125,0.391845703125,-0.3458251953125
2.723,499,2398,1468,1596,-11.0,30.0,23.0,-6.774901866912842,3.540038824081421,-4.2724609375,-1.43603515625,0.3917236328125,-0.3560791015625
2.728,509,2514,1362,1669,-11.0,30.0,23.0,-9.70458984375,2.50244140625,-5.676269054412842,-1.4605712890625,0.29443359375,-0.2225341796875
2.736,505,2345,1527,1730,-11.0,30.0,23.0,-9.70458984375,2.50244140625,-5.676269054412842,-1.29736328125,0.2437744140625,-0.0989990234375
2.750,487,2286,1399,1552,-11.0,30.0,23.0,-5.859374523162842,8.23974609375,-3.540038824081421,-1.1241455078125,0.2454833984375,-0.072265625
2.762,483,2263,1429,1656,-11.0,30.0,23.0,-2.38037109375,14.343260765075684,-4.7607421875,-1.03173828125,0.2266845703125,-0.1175537109375
2.766,478,2225,1433,1635,-11.0,30.0,23.0,-2.38037109375,14.343260765075684,-4.7607421875,-0.9918212890625,0.197265625,-0.1923828125
2.796,473,2153,1343,1481,-11.0,29.0,19.0,1.8920897245407104,21.057126998901367,-10.620116233825684,-0.9725341796875,0.220947265625,-0.3076171875
2.803,479,2093,1409,1590,-11.0,29.0,19.0,2.807616949081421,21.362302780151367,-12.817381858825684,-0.9593505859375,0.2801513671875,-0.4158935546875
2.804,383,2335,1216,1426,-11.0,29.0,19.0,2.807616949081421,21.362302780151367,-12.817381858825684,-0.9442138671875,0.3331298828125,-0.435546875
2.812,453,1978,1305,1397,-11.0,29.0,19.0,-3.967284917831421,18.73779296875,-18.9208984375,-0.9129638671875,0.3446044921875,-0.359375
2.818,447,1985,1263,1441,-11.0,29.0,19.0,-10.375975608825684,17.88330078125,-22.399900436401367,-0.8560791015625,0.2955322265625,-0.271484375
2.829,418,1955,1234,1381,-11.0,29.0,19.0,-10.375975608825684,17.88330078125,-22.399900436401367,-0.8055419921875,0.2147216796875,-0.247802734375
2.840,406,1890,1131,1216,-11.0,29.0,19.0,-18.798828125,20.385740280151367,-28.076169967651367,-0.79541015625,0.1497802734375,-0.259521484375
2.848,404,1854,1157,1294,-11.0,29.0,19.0,-19.6533203125,21.240232467651367,-29.541013717651367,-0.817138671875,0.126708984375,-0.2708740234375
2.856,391,1810,1112,1266,-11.0,29.0,19.0,-19.6533203125,21.240232467651367,-29.541013717651367,-0.8409423828125,0.1488037109375,-0.2811279296875
2.876,382,1700,990,1108,-11.0,29.0,19.0,-15.991209983825684,18.37158203125,-28.625486373901367,-0.8472900390625,0.19384765625,-0.2645263671875
2.878,372,1635,998,1151,-9.0,32.0,16.0,-15.991209983825684,18.37158203125,-28.625486373901367,-0.8406982421875,0.2080078125,-0.20458984375
2.921,360,1555,939,1098,-9.0,32.0,16.0,-14.465331077575684,15.319823265075684,-28.198240280151367,-0.8406982421875,0.2080078125,-0.20458984375
2.921,330,1665,806,1012,-9.0,32.0,16.0,-11.535643577575684,10.803221702575684,-30.090330123901367,-0.8004150390625,0.1199951171875,-0.067138671875
2.922,338,1373,830,1014,-9.0,32.0,16.0,-11.535643577575684,10.803221702575684,-30.090330123901367,-0.80810546875,0.0709228515625,-0.0537109375
2.922,334,1330,806,989,-9.0,32.0,16.0,-8.544921875,10.803221702575684,-29.296873092651367,-0.80810546875,0.0709228515625,-0.0537109375
2.936,324,1260,739,869,-9.0,32.0,16.0,1.0986328125,11.718749046325684,-22.033689498901367,-0.8260498046875,0.0697021484375,-0.138671875
2.938,290,1310,669,894,-9.0,32.0,16.0,1.0986328125,11.718749046325684,-22.033689498901367,-0.799072265625,0.12158203125,-0.2003173828125
2.946,321,1222,725,904,-9.0,32.0,16.0,6.835937023162842,10.803221702575684,-16.9677734375,-0.799072265625,0.12158203125,-0.2003173828125
2.960,315,1213,682,841,-9.0,32.0,16.0,12.145995140075684,7.019042491912842,-9.70458984375,-0.7418212890625,0.180908203125,-0.2337646484375
2.968,313,1245,698,879,-9.0,32.0,16.0,12.145995140075684,7.019042491912842,-9.70458984375,-0.7572021484375,0.1695556640625,-0.2427978515625
2.976,307,1260,695,887,-11.0,34.0,16.0,11.718749046325684,5.615233898162842,-8.544921875,-0.7572021484375,0.1695556640625,-0.2427978515625
3.008,315,1320,689,853,-11.0,34.0,16.0,9.1552734375,5.065917491912842,-7.629394054412842,-0.786865234375,0.1187744140625,-0.30859375
3.009,321,1336,721,947,-11.0,34.0,16.0,9.1552734375,5.065917491912842,-7.629394054412842,-0.8134765625,0.065185546875,-0.2890625
3.009,323,1369,728,980,-11.0,34.0,16.0,6.286620616912842,4.69970703125,-5.676269054412842,-0.8134765625,0.065185546875,-0.2890625
3.020,328,1468,731,952,-11.0,34.0,16.0,1.4038084745407104,1.5869139432907104,5.0048828125,-0.780517578125,0.001953125,-0.2193603515625
3.028,334,1524,772,1050,-11.0,34.0,16.0,1.4038084745407104,1.5869139432907104,5.0048828125,-0.742919921875,0.0360107421875,-0.212158203125
3.043,334,1634,800,1051,-11.0,34.0,16.0,0.7324218153953552,-0.6103515625,12.573241233825684,-0.742919921875,0.0360107421875,-0.212158203125
3.050,348,1735,844,1115,-11.0,34.0,16.0,2.807616949081421,-6.896972179412842,21.911619186401367,-0.7061767578125,0.143798828125,-0.2325439453125
3.059,361,1800,895,1166,-11.0,34.0,16.0,2.807616949081421,-6.896972179412842,21.911619186401367,-0.700927734375,0.1702880859375,-0.233154296875
3.066,361,1869,922,1198,-11.0,34.0,16.0,3.112792730331421,-10.009765625,22.705076217651367,-0.700927734375,0.1702880859375,-0.233154296875
3.080,375,1973,932,1188,-8.0,30.0,16.0,0.7324218153953552,-15.380858421325684,25.390623092651367,-0.691650390625,0.1484375,-0.1346435546875
3.111,385,2104,1034,1294,-8.0,30.0,16.0,0.7324218153953552,-15.380858421325684,25.390623092651367,-0.6898193359375,0.0908203125,-0.064453125
3.112,391,2230,963,1260,-8.0,30.0,16.0,2.0751953125,-17.39501953125,28.625486373901367,-0.6898193359375,0.0908203125,-0.064453125
3.112,403,2240,1064,1294,-8.0,30.0,16.0,8.11767578125,-19.47021484375,32.53173828125,-0.7099609375,0.156005859375,-0.0364990234375
3.118,411,2333,1184,1437,-8.0,30.0,16.0,17.63916015625,-21.789548873901367,34.36279296875,-0.7099609375,0.156005859375,-0.0364990234375
3.126,426,2347,1228,1501,-8.0,30.0,16.0,27.526853561401367,-24.047849655151367,32.65380859375,-0.7099609375,0.23583984375,-0.06591796875
3.140,426,2418,1213,1422,-8.0,30.0,16.0,36.4990234375,-23.742673873901367,29.357908248901367,-0.90966796875,0.2930908203125,-0.46044921875
3.150,437,2510,1331,1559,-8.0,30.0,16.0,40.222164154052734,-18.12744140625,26.550291061401367,-0.90966796875,0.2930908203125,-0.46044921875
3.156,445,2505,1341,1613,-8.0,30.0,16.0,32.3486328125,-10.375975608825684,24.597166061401367,-0.9981689453125,0.2579345703125,-0.52392578125
3.170,468,2443,1264,1568,-9.0,30.0,21.0,15.991209983825684,-5.615233898162842,22.705076217651367,-1.1318359375,0.1795654296875,-0.29296875
3.178,484,2456,1357,1715,-9.0,30.0,21.0,2.44140625,-3.906249761581421,19.8974609375,-1.1318359375,0.1795654296875,-0.29296875
3.186,481,2456,1365,1739,-9.0,30.0,21.0,-2.685546636581421,-4.0283203125,17.333984375,-1.2391357421875,0.216796875,-0.26708984375
3.228,485,2468,1326,1611,-9.0,30.0,21.0,-1.4648436307907104,-5.432128429412842,15.258788108825684,-1.414306640625,0.370361328125,-0.4609375
3.229,491,2581,1265,1721,-9.0,30.0,21.0,1.3427733182907104,-6.469726085662842,12.268065452575684,-1.414306640625,0.370361328125,-0.4609375
3.230,505,2442,1428,1794,-9.0,30.0,21.0,1.220703125,-6.835937023162842,8.97216796875,-1.4002685546875,0.3721923828125,-0.4351806640625
3.230,478,2677,1704,1669,-9.0,30.0,21.0,-1.6479490995407104,-6.835937023162842,6.286620616912842,-1.32470703125,0.2564697265625,-0.23291015625
3.238,493,2456,1422,1789,-9.0,30.0,21.0,-3.295898199081421,-6.530761241912842,4.638671875,-1.32470703125,0.2564697265625,-0.23291015625
3.246,501,2490,1413,1770,-9.0,30.0,21.0,-1.5869139432907104,-5.859374523162842,3.906249761581421,-1.2537841796875,0.2244873046875,-0.2586669921875
3.260,491,2447,1334,1623,-9.0,30.0,21.0,1.15966796875,-5.249022960662842,2.807616949081421,-0.995849609375,0.30615234375,-0.396728515625
3.268,509,2435,1404,1762,-12.0,29.0,21.0,1.3427733182907104,-5.676269054412842,-0.3662109076976776,-0.995849609375,0.30615234375,-0.396728515625
3.276,495,2424,1399,1757,-12.0,29.0,21.0,-1.7700194120407104,-7.141112804412842,-5.371093273162842,-1.0948486328125,0.347412109375,-0.380126953125
3.290,473,2443,1334,1557,-12.0,29.0,21.0,-7.202147960662842,-7.873534679412842,-9.033203125,-1.4281005859375,0.27685546875,-0.1717529296875
3.317,482,2418,1395,1681,-12.0,29.0,21.0,-13.244627952575684,-6.042479991912842,-9.1552734375,-1.4281005859375,0.27685546875,-0.1717529296875
3.319,482,2399,1400,1687,-12.0,29.0,21.0,-16.2353515625,-1.6479490995407104,-7.141112804412842,-1.34814453125,0.173583984375,-0.0264892578125
3.321,428,2391,1320,1590,-12.0,29.0,21.0,-13.610838890075684,5.371093273162842,-4.638671875,-1.2215576171875,0.1407470703125,0.0150146484375
3.330,472,2290,1357,1610,-12.0,29.0,21.0,-7.324218273162842,13.732909202575684,-2.197265625,-1.1561279296875,0.2034912109375,-0.088134765625
3.336,466,2272,1326,1584,-12.0,29.0,21.0,-1.220703125,20.01953125,-1.2817381620407104,-1.14013671875,0.275146484375,-0.2703857421875
3.350,442,2180,1196,1411,-12.0,29.0,21.0,4.39453125,22.033689498901367,-3.479003667831421,-1.1295166015625,0.2845458984375,-0.4561767578125
3.362,439,2128,1213,1492,-12.0,29.0,21.0,8.72802734375,19.95849609375,-7.568358898162842,-1.0928955078125,0.278076171875,-0.5570068359375
3.366,437,2087,1198,1456,-9.0,32.0,20.0,8.60595703125,15.380858421325684,-10.559081077575684,-1.0421142578125,0.30029296875,-0.53466796875
3.379,411,1959,1056,1271,-9.0,32.0,20.0,2.868652105331421,10.864256858825684,-11.901854515075684,-0.9945068359375,0.32177734375,-0.434814453125
3.388,404,1891,1074,1328,-9.0,32.0,20.0,-5.920409679412842,8.11767578125,-13.793944358825684,-0.9327392578125,0.2724609375,-0.3172607421875
3.417,390,1959,1067,1305,-9.0,32.0,20.0,-12.878417015075684,8.23974609375,-17.333984375,-0.841552734375,0.1690673828125,-0.2659912109375
3.418,369,1689,883,1085,-9.0,32.0,20.0,-16.6015625,11.230467796325684,-20.507810592651367,-0.759765625,0.11572265625,-0.2916259765625
3.418,361,1521,858,1125,-9.0,32.0,20.0,-18.98193359375,14.465331077575684,-21.789548873901367,-0.7098388671875,0.1004638671875,-0.323486328125
3.426,348,1386,815,1053,-9.0,32.0,20.0,-19.47021484375,15.624999046325684,-23.986814498901367,-0.687744140625,0.0601806640625,-0.320556640625
3.440,330,1233,733,906,-9.0,32.0,20.0,-19.53125,13.732909202575684,-27.465818405151367,-0.6903076171875,0.0592041015625,-0.2127685546875
3.449,327,1120,736,899,-9.0,32.0,20.0,-22.827146530151367,8.48388671875,-29.174802780151367,-0.7076416015625,0.086669921875,-0.0081787109375
3.456,317,987,708,840,-9.0,32.0,20.0,-24.169919967651367,3.234863042831421,-28.747556686401367,-0.7318115234375,0.0909423828125,0.1080322265625
3.470,310,874,684,766,-9.0,30.0,15.0,-18.5546875,2.25830078125,-25.756834030151367,-0.7244873046875,0.10546875,0.078369140625
3.479,304,869,678,790,-9.0,30.0,15.0,-13.488768577575684,4.57763671875,-18.6767578125,-0.6968994140625,0.1478271484375,0.01220703125
3.487,306,891,673,788,-9.0,30.0,15.0,-12.512206077575684,7.263183116912842,-8.9111328125,-0.67041015625,0.197021484375,-0.043212890625
3.521,305,922,666,767,-9.0,30.0,15.0,-9.8876953125,9.3994140625,-1.03759765625,-0.6490478515625,0.2037353515625,-0.1290283203125
3.523,308,1100,625,816,-9.0,30.0,15.0,-4.94384765625,11.108397483825684,2.868652105331421,-0.645263671875,0.1690673828125,-0.230224609375
3.523,316,1018,698,860,-9.0,30.0,15.0,-1.3427733182907104,10.864256858825684,4.150390625,-0.6661376953125,0.1365966796875,-0.278564453125
3.530,318,1137,707,864,-9.0,30.0,15.0,0.6713866591453552,8.60595703125,4.82177734375,-0.710693359375,0.1475830078125,-0.2877197265625
3.538,328,1201,737,957,-9.0,30.0,15.0,3.662109136581421,5.859374523162842,5.065917491912842,-0.7529296875,0.177001953125,-0.28759765625
3.550,333,1280,753,996,-9.0,30.0,15.0,7.507323741912842,3.234863042831421,4.69970703125,-0.7752685546875,0.1617431640625,-0.270751953125
3.560,338,1427,759,996,-9.0,30.0,15.0,9.521484375,0.6103515625,5.065917491912842,-0.76953125,0.113525390625,-0.2425537109375
3.568,356,1499,816,1109,-9.0,31.0,15.0,9.46044921875,-1.7700194120407104,7.812499523162842,-0.7496337890625,0.0765380859375,-0.2369384765625
3.580,363,1580,846,1151,-9.0,31.0,15.0,8.1787109375,-3.479003667831421,12.939452171325684,-0.740478515625,0.088623046875,-0.2547607421875
3.591,369,1754,846,1123,-9.0,31.0,15.0,5.371093273162842,-4.638671875,18.24951171875,-0.748046875,0.1395263671875,-0.26416015625
3.598,382,1865,918,1241,-9.0,31.0,15.0,1.8920897245407104,-5.798339366912842,21.118162155151367,-0.7642822265625,0.176513671875,-0.2484130859375
3.624,380,1957,952,1267,-9.0,31.0,15.0,-2.0751953125,-7.995604991912842,21.911619186401367,-0.763427734375,0.1785888671875,-0.197998046875
3.624,385,2058,992,1216,-9.0,31.0,15.0,-4.5166015625,-11.169432640075684,22.399900436401367,-0.7430419921875,0.1436767578125,-0.12451171875
3.630,401,2128,1063,1362,-9.0,31.0,15.0,-1.7089842557907104,-14.099120140075684,22.827146530151367,-0.718505859375,0.1116943359375,-0.06298828125
3.636,409,2179,1117,1397,-9.0,31.0,15.0,4.82177734375,-16.11328125,24.047849655151367,-0.70751953125,0.109375,-0.043212890625
3.650,414,2249,1125,1355,-9.0,31.0,15.0,9.94873046875,-16.66259765625,27.099607467651367,-0.7152099609375,0.13818359375,-0.050537109375
3.663,416,2308,1258,1490,-9.0,31.0,15.0,12.573241233825684,-15.930174827575684,30.822751998901367,-0.7301025390625,0.2034912109375,-0.0576171875
3.666,428,2347,1317,1534,-9.0,30.0,13.0,14.648436546325684,-13.793944358825684,32.3486328125,-0.7747802734375,0.2716064453125,-0.0972900390625
3.680,439,2428,1290,1441,-9.0,30.0,13.0,17.08984375,-9.521484375,30.456541061401367,-0.8563232421875,0.315185546875,-0.1898193359375
3.689,441,2449,1399,1627,-9.0,30.0,13.0,18.310546875,-3.295898199081421,27.038572311401367,-0.980224609375,0.33837890625,-0.3782958984375
3.696,453,2492,1416,1643,-9.0,30.0,13.0,16.05224609375,2.3193359375,23.132322311401367,-1.1158447265625,0.3175048828125,-0.6085205078125
3.725,466,2510,1399,1535,-9.0,30.0,13.0,9.33837890625,2.746581792831421,18.6767578125,-1.2041015625,0.3157958984375,-0.689697265625
3.726,495,2630,1287,1615,-9.0,30.0,13.0,2.868652105331421,-3.601073980331421,14.343260765075684,-1.2547607421875,0.3970947265625,-0.63037109375
3.727,496,2430,1440,1781,-9.0,30.0,13.0,-0.6103515625,-13.061522483825684,9.70458984375,-1.3001708984375,0.4683837890625,-0.514404296875
3.740,500,2418,1387,1655,-9.0,30.0,13.0,-3.540038824081421,-20.812986373901367,4.39453125,-1.345703125,0.4642333984375,-0.38037109375
3.748,508,2417,1476,1800,-9.0,30.0,13.0,-6.530761241912842,-23.681638717651367,-0.2441406100988388,-1.3917236328125,0.3839111328125,-0.2891845703125
3.756,519,2419,1487,1815,-9.0,30.0,13.0,-7.507323741912842,-21.545408248901367,-3.112792730331421,-1.431884765625,0.272216796875,-0.2509765625
3.776,510,2407,1395,1662,-10.0,32.0,20.0,-5.615233898162842,-17.15087890625,-4.0283203125,-1.4169921875,0.1851806640625,-0.2188720703125
3.778,519,2555,1318,1744,-10.0,32.0,20.0,-2.197265625,-13.000487327575684,-3.723144292831421,-1.24853515625,0.154052734375,-0.180908203125
3.788,522,2398,1476,1810,-10.0,32.0,20.0,-2.197265625,-13.000487327575684,-3.723144292831421,-1.0936279296875,0.22802734375,-0.2117919921875
3.800,491,2440,1398,1613,-10.0,32.0,20.0,1.0986328125,-5.676269054412842,-3.967284917831421,-1.1988525390625,0.3587646484375,-0.29443359375
3.812,498,2422,1478,1744,-10.0,32.0,20.0,-1.3427733182907104,-3.417968511581421,-5.615233898162842,-1.3746337890625,0.394287109375,-0.2921142578125
3.831,496,2449,1464,1713,-10.0,32.0,20.0,-1.3427733182907104,-3.417968511581421,-5.615233898162842,-1.3778076171875,0.320068359375,-0.195556640625
3.833,481,2394,1419,1573,-10.0,32.0,20.0,-4.21142578125,-0.30517578125,-8.056640625,-1.248779296875,0.2398681640625,-0.125
3.838,482,2350,1429,1653,-10.0,32.0,20.0,-2.563476324081421,4.57763671875,-8.1787109375,-1.139404296875,0.201416015625,-0.1431884765625
3.847,484,2296,1430,1655,-10.0,32.0,20.0,-2.563476324081421,4.57763671875,-8.1787109375,-1.1065673828125,0.223388671875,-0.2164306640625
3.860,467,2217,1320,1480,-14.0,29.0,19.0,-0.7934569716453552,15.441893577575684,-9.033203125,-1.111083984375,0.2677001953125,-0.3021240234375
3.868,470,2165,1374,1580,-14.0,29.0,19.0,-1.8920897245407104,18.798828125,-10.375975608825684,-1.1143798828125,0.2921142578125,-0.3804931640625
3.876,464,2111,1348,1549,-14.0,29.0,19.0,-1.8920897245407104,18.798828125,-10.375975608825684,-1.0919189453125,0.3153076171875,-0.408935546875
3.897,439,2005,1201,1362,-14.0,29.0,19.0,-2.624511480331421,17.88330078125,-16.6015625,-1.0390625,0.3306884765625,-0.3895263671875
3.898,400,2325,1328,1467,-14.0,29.0,19.0,-3.967284917831421,16.17431640625,-20.385740280151367,-0.96923828125,0.315673828125,-0.385498046875
3.909,424,1908,1162,1373,-14.0,29.0,19.0,-3.967284917831421,16.17431640625,-20.385740280151367,-0.907470703125,0.2552490234375,-0.3990478515625
3.934,405,1783,1055,1198,-14.0,29.0,19.0,-12.573241233825684,15.075682640075684,-28.625486373901367,-0.8671875,0.18408203125,-0.3961181640625
3.935,398,1700,1038,1225,-14.0,29.0,19.0,-16.29638671875,14.099120140075684,-31.677244186401367,-0.8331298828125,0.1490478515625,-0.3878173828125
3.939,379,1610,990,1163,-14.0,29.0,19.0,-16.29638671875,14.099120140075684,-31.677244186401367,-0.8004150390625,0.166748046875,-0.3712158203125
3.950,351,1343,856,948,-14.0,29.0,19.0,-22.766111373901367,11.108397483825684,-32.71484375,-0.752685546875,0.17333984375,-0.2794189453125
3.958,338,1214,834,962,-8.0,30.0,19.0,-27.099607467651367,8.1787109375,-33.75244140625,-0.7015380859375,0.120849609375,-0.1170654296875
3.966,324,1071,794,888,-8.0,30.0,19.0,-27.099607467651367,8.1787109375,-33.75244140625,-0.6959228515625,0.0814208984375,0.0238037109375
3.980,310,855,707,737,-8.0,30.0,19.0,-23.925779342651367,2.38037109375,-33.5693359375,-0.7257080078125,0.0806884765625,0.08642578125
3.988,300,806,689,744,-8.0,30.0,19.0,-15.930174827575684,1.03759765625,-30.029294967651367,-0.7376708984375,0.084716796875,0.0958251953125
4.008,294,750,661,707,-8.0,30.0,19.0,-15.930174827575684,1.03759765625,-30.029294967651367,-0.718505859375,0.11767578125,0.0390625
4.015,286,695,620,673,-8.0,30.0,19.0,2.685546636581421,2.13623046875,-17.9443359375,-0.68359375,0.1988525390625,-0.0885009765625
4.033,280,698,607,667,-8.0,30.0,19.0,2.685546636581421,2.13623046875,-17.9443359375,-0.66259765625,0.2447509765625,-0.198486328125
4.034,282,740,596,668,-8.0,30.0,19.0,7.934569835662842,5.126952648162842,-11.596678733825684,-0.66259765625,0.2447509765625,-0.198486328125
4.041,281,750,607,687,-8.0,30.0,19.0,6.225585460662842,7.934569835662842,-8.23974609375,-0.7044677734375,0.1153564453125,-0.228515625
4.048,292,785,625,702,-8.0,30.0,19.0,6.225585460662842,7.934569835662842,-8.23974609375,-0.7164306640625,0.072509765625,-0.220703125
4.056,298,802,656,736,-7.0,31.0,18.0,5.249022960662842,6.652831554412842,-6.225585460662842,-0.7164306640625,0.072509765625,-0.220703125
4.071,304,895,678,748,-7.0,31.0,18.0,10.620116233825684,2.990722417831421,0.2441406100988388,-0.77001953125,0.069091796875,-0.2349853515625
4.078,313,946,725,813,-7.0,31.0,18.0,10.620116233825684,2.990722417831421,0.2441406100988388,-0.8153076171875,0.088134765625,-0.2730712890625
4.086,316,1004,742,843,-7.0,31.0,18.0,13.793944358825684,0.6103515625,2.44140625,-0.8153076171875,0.088134765625,-0.2730712890625
4.134,327,1112,758,853,-7.0,31.0,18.0,10.375975608825684,-3.845214605331421,7.324218273162842,-0.8447265625,0.126708984375,-0.30322265625
4.144,338,1189,830,951,-7.0,31.0,18.0,10.375975608825684,-3.845214605331421,7.324218273162842,-0.84033203125,0.1180419921875,-0.2843017578125
4.145,304,1422,794,923,-7.0,31.0,18.0,4.82177734375,-5.554198741912842,9.1552734375,-0.84033203125,0.1180419921875,-0.2843017578125
4.146,361,1419,947,1063,-7.0,31.0,18.0,-7.995604991912842,-5.920409679412842,13.854979515075684,-0.7900390625,0.0941162109375,-0.258544921875
4.146,371,1494,980,1117,-7.0,31.0,18.0,-7.995604991912842,-5.920409679412842,13.854979515075684,-0.736083984375,0.0726318359375,-0.2408447265625
4.146,383,1648,952,1112,-7.0,31.0,18.0,-13.366698265075684,-4.94384765625,16.05224609375,-0.736083984375,0.0726318359375,-0.2408447265625
4.160,388,1730,1050,1131,-9.0,29.0,21.0,-20.507810592651367,-6.103515148162842,20.874021530151367,-0.68603515625,0.1636962890625,-0.17578125
4.168,404,1826,1137,1267,-9.0,29.0,21.0,-20.507810592651367,-6.103515148162842,20.874021530151367,-0.5972900390625,0.1414794921875,-0.0899658203125
4.176,411,1895,1183,1326,-9.0,29.0,21.0,-24.780271530151367,-8.6669921875,22.766111373901367,-0.5972900390625,0.1414794921875,-0.0899658203125
4.191,418,2001,1185,1278,-9.0,29.0,21.0,-8.7890625,-10.437010765075684,26.733396530151367,-0.6253662109375,0.1258544921875,-0.019287109375
4.198,430,2133,1283,1422,-9.0,29.0,21.0,-8.7890625,-10.437010765075684,26.733396530151367,-0.748291015625,0.208984375,-0.0079345703125
4.206,438,2150,1336,1483,-9.0,29.0,21.0,4.82177734375,-11.779784202575684,31.249998092651367,-0.748291015625,0.208984375,-0.0079345703125
4.238,440,2246,1306,1415,-9.0,29.0,21.0,23.010251998901367,-14.709471702575684,36.1328125,-0.8428955078125,0.3184814453125,-0.04833984375
4.239,420,2912,1399,1555,-9.0,29.0,21.0,23.010251998901367,-14.709471702575684,36.1328125,-0.8594970703125,0.3399658203125,-0.0777587890625
4.239,461,2469,1390,1569,-9.0,29.0,21.0,29.113767623901367,-13.183592796325684,34.7900390625,-0.8594970703125,0.3399658203125,-0.0777587890625
4.250,455,2465,1377,1456,-10.0,31.0,16.0,33.69140625,-11.657713890075684,32.3486328125,-1.0667724609375,0.39453125,-0.2674560546875
4.258,490,2360,1440,1713,-10.0,31.0,16.0,38.2080078125,-8.7890625,29.052732467651367,-1.0667724609375,0.39453125,-0.2674560546875
4.288,497,2379,1455,1735,-10.0,31.0,16.0,40.222164154052734,-2.197265625,25.756834030151367,-1.2724609375,0.4649658203125,-0.60107421875
4.297,499,2386,1375,1607,-10.0,31.0,16.0,34.1796875,5.615233898162842,21.301267623901367,-1.5823974609375,0.27587890625,-0.806396484375
4.309,512,2400,1464,1766,-10.0,31.0,16.0,17.51708984375,6.591796398162842,13.977049827575684,-1.5823974609375,0.27587890625,-0.806396484375
4.320,513,2409,1474,1774,-10.0,31.0,16.0,-2.0751953125,-0.6103515625,8.1787109375,-1.5389404296875,0.14453125,-0.4779052734375
4.320,508,2418,1387,1641,-10.0,31.0,16.0,-12.634276390075684,-7.446288585662842,6.835937023162842,-1.4078369140625,0.2515869140625,-0.2733154296875
4.347,455,2461,1441,1787,-10.0,31.0,16.0,-10.925292015075684,-9.46044921875,6.774901866912842,-1.4078369140625,0.2515869140625,-0.2733154296875
4.347,509,2456,1365,1745,-10.0,31.0,16.0,-4.7607421875,-8.1787109375,4.2724609375,-1.2528076171875,0.3306884765625,-0.3466796875
4.349,504,2412,1492,1743,-10.0,31.0,16.0,-2.624511480331421,-6.469726085662842,-0.8544921278953552,-1.074951171875,0.40576171875,-0.2950439453125
4.351,514,2432,1429,1746,-9.0,27.0,18.0,-4.82177734375,-4.8828125,-6.591796398162842,-1.074951171875,0.40576171875,-0.2950439453125
4.356,509,2382,1434,1742,-9.0,27.0,18.0,-7.812499523162842,-1.8310545682907104,-10.498045921325684,-1.308349609375,0.4095458984375,-0.2470703125
4.370,495,2306,1345,1588,-9.0,27.0,18.0,-11.413573265075684,2.685546636581421,-11.413573265075684,-1.3883056640625,0.18603515625,-0.015625
4.379,499,2280,1409,1700,-9.0,27.0,18.0,-14.587401390075684,8.48388671875,-9.70458984375,-1.3883056640625,0.18603515625,-0.015625
4.386,496,2277,1351,1662,-9.0,27.0,18.0,-14.526366233825684,17.08984375,-6.591796398162842,-1.234375,0.1258544921875,0.01220703125
4.400,473,2190,1255,1504,-9.0,27.0,18.0,-10.009765625,26.489255905151367,-3.723144292831421,-1.074951171875,0.2547607421875,-0.3179931640625
4.410,478,2155,1312,1609,-9.0,27.0,18.0,-2.44140625,31.799314498901367,-2.929687261581421,-1.074951171875,0.2547607421875,-0.3179931640625
4.416,473,2186,1255,1561,-9.0,27.0,18.0,5.493163585662842,31.249998092651367,-5.798339366912842,-1.062255859375,0.31005859375,-0.5325927734375
4.445,454,2024,1162,1398,-9.0,27.0,18.0,9.3994140625,26.794431686401367,-10.803221702575684,-1.0404052734375,0.3673095703125,-0.618408203125
4.453,442,1996,1157,1454,-9.0,27.0,18.0,6.225585460662842,21.362302780151367,-15.136717796325684,-1.0404052734375,0.3673095703125,-0.618408203125
4.454,385,2053,1014,1359,-9.0,32.0,19.0,-2.624511480331421,16.6015625,-18.4326171875,-1.0145263671875,0.3616943359375,-0.4921875
4.460,405,1819,1039,1319,-9.0,32.0,19.0,-13.183592796325684,13.366698265075684,-21.850584030151367,-0.9456787109375,0.2767333984375,-0.3511962890625
4.468,388,1744,1000,1273,-9.0,32.0,19.0,-21.545408248901367,12.817381858825684,-25.268552780151367,-0.8348388671875,0.164794921875,-0.2720947265625
4.476,383,1643,943,1209,-9.0,32.0,19.0,-26.611326217651367,14.465331077575684,-26.794431686401367,-0.7340087890625,0.0970458984375,-0.2354736328125
4.490,348,1499,801,1000,-9.0,32.0,19.0,-27.160642623901367,16.6015625,-26.245115280151367,-0.68359375,0.0933837890625,-0.2470703125
4.500,336,1380,780,1005,-9.0,32.0,19.0,-24.291990280151367,18.37158203125,-25.329587936401367,-0.6466064453125,0.1048583984375,-0.25390625
4.508,330,1290,759,957,-9.0,32.0,19.0,-22.583005905151367,18.12744140625,-25.512693405151367,-0.6412353515625,0.10302734375,-0.1781005859375
4.520,313,1092,682,815,-9.0,32.0,19.0,-23.376462936401367,15.380858421325684,-25.512693405151367,-0.67578125,0.140625,-0.056884765625
4.547,310,969,684,820,-9.0,32.0,19.0,-23.681638717651367,11.901854515075684,-24.597166061401367,-0.728759765625,0.1524658203125,0.017578125
4.547,304,913,654,780,-9.0,32.0,19.0,-18.61572265625,9.765625,-23.071287155151367,-0.7847900390625,0.1256103515625,0.00927734375
4.552,292,835,607,700,-8.0,32.0,18.0,-9.33837890625,8.72802734375,-19.34814453125,-0.8060302734375,0.1300048828125,-0.056884765625
4.564,290,803,600,705,-8.0,32.0,18.0,-1.6479490995407104,8.48388671875,-13.183592796325684,-0.808349609375,0.171142578125,-0.1632080078125
4.566,275,800,552,678,-8.0,32.0,18.0,3.173827886581421,8.97216796875,-6.408690929412842,-0.80322265625,0.21923828125,-0.2645263671875
4.580,277,698,568,643,-8.0,32.0,18.0,5.432128429412842,8.9111328125,-2.50244140625,-0.7940673828125,0.2222900390625,-0.3126220703125
4.588,279,689,586,667,-8.0,32.0,18.0,5.310058116912842,7.812499523162842,-2.929687261581421,-0.7850341796875,0.1832275390625,-0.323974609375
4.596,282,698,588,669,-8.0,32.0,18.0,4.5166015625,5.493163585662842,-5.065917491912842,-0.77001953125,0.1522216796875,-0.3289794921875
4.610,280,737,580,669,-8.0,32.0,18.0,5.371093273162842,2.3193359375,-5.432128429412842,-0.7589111328125,0.153564453125,-0.3226318359375
4.618,289,759,614,713,-8.0,32.0,18.0,7.385253429412842,-1.3427733182907104,-3.906249761581421,-0.7542724609375,0.1634521484375,-0.29150390625
4.648,292,802,632,739,-8.0,32.0,18.0,7.873534679412842,-4.33349609375,-2.0751953125,-0.7623291015625,0.151611328125,-0.24365234375
4.649,304,883,675,784,-8.0,31.0,20.0,7.873534679412842,-5.798339366912842,-0.6713866591453552,-0.789794921875,0.126708984375,-0.2073974609375
4.649,310,900,697,620,-8.0,31.0,20.0,9.1552734375,-6.286620616912842,0.9155272841453552,-0.8187255859375,0.1097412109375,-0.19970703125
4.657,316,971,714,841,-8.0,31.0,20.0,10.498045921325684,-6.713866710662842,3.479003667831421,-0.83056640625,0.1068115234375,-0.2196044921875
4.677,325,1107,736,846,-8.0,31.0,20.0,11.230467796325684,-7.873534679412842,7.141112804412842,-0.8192138671875,0.10791015625,-0.254150390625
4.678,328,1220,784,944,-8.0,31.0,20.0,11.901854515075684,-9.82666015625,11.352538108825684,-0.8035888671875,0.1077880859375,-0.2906494140625
4.686,346,1320,819,1004,-8.0,31.0,20.0,12.329100608825684,-12.268065452575684,15.563963890075684,-0.80126953125,0.1234130859375,-0.3165283203125
4.702,354,1503,849,963,-8.0,31.0,20.0,11.596678733825684,-14.221190452575684,18.85986328125,-0.806640625,0.150390625,-0.327880859375
4.710,361,1592,907,1078,-8.0,31.0,20.0,9.33837890625,-15.197752952575684,20.629880905151367,-0.789794921875,0.164306640625,-0.332275390625
4.716,371,1683,959,1123,-8.0,31.0,20.0,5.981444835662842,-15.563963890075684,21.545408248901367,-0.73828125,0.154541015625,-0.3194580078125
4.754,378,1820,973,1134,-8.0,31.0,20.0,2.563476324081421,-16.41845703125,22.460935592651367,-0.698974609375,0.1298828125,-0.2821044921875
4.755,348,1994,947,1216,-13.0,30.0,21.0,0.4272460639476776,-19.04296875,24.291990280151367,-0.699462890625,0.140380859375,-0.2344970703125
4.755,396,1980,1097,1306,-13.0,30.0,21.0,-1.5258787870407104,-23.132322311401367,27.832029342651367,-0.707763671875,0.18212890625,-0.1722412109375
4.762,402,2139,1107,1231,-13.0,30.0,21.0,-1.6479490995407104,-26.428220748901367,29.724119186401367,-0.6917724609375,0.1798095703125,-0.097900390625
4.768,418,2246,1201,1393,-13.0,30.0,21.0,4.150390625,-28.015134811401367,28.747556686401367,-0.69091796875,0.1522216796875,-0.0499267578125
4.776,423,2221,1260,1453,-13.0,30.0,21.0,13.000487327575684,-28.686521530151367,29.113767623901367,-0.7083740234375,0.169189453125,-0.021728515625
4.790,433,2328,1251,1382,-13.0,30.0,21.0,18.798828125,-28.686521530151367,31.249998092651367,-0.711181640625,0.2127685546875,0.0003662109375
4.798,434,2354,1369,1550,-13.0,30.0,21.0,22.155759811401367,-26.245115280151367,32.77587890625,-0.7581787109375,0.2734375,-0.037841796875
4.806,456,2384,1409,1580,-13.0,30.0,21.0,24.658201217651367,-21.240232467651367,32.77587890625,-0.866455078125,0.3321533203125,-0.1007080078125
4.820,445,2489,1365,1468,-13.0,30.0,21.0,25.024412155151367,-15.319823265075684,31.494138717651367,-0.98388671875,0.383544921875,-0.1536865234375
4.836,472,2465,1468,1675,-13.0,30.0,21.0,23.559568405151367,-8.60595703125,29.479978561401367,-1.1136474609375,0.4049072265625,-0.3001708984375
4.836,445,2700,1320,1508,-11.0,29.0,20.0,21.911619186401367,-1.03759765625,26.306150436401367,-1.25048828125,0.4095458984375,-0.556396484375
4.858,482,2481,1387,1592,-11.0,29.0,20.0,17.76123046875,3.784179449081421,22.399900436401367,-1.3251953125,0.4366455078125,-0.733642578125
4.858,497,2453,1468,1769,-11.0,29.0,20.0,7.812499523162842,1.220703125,16.54052734375,-1.3277587890625,0.4393310546875,-0.6629638671875
4.866,506,2442,1471,1790,-11.0,29.0,20.0,-4.39453125,-6.408690929412842,7.812499523162842,-1.3243408203125,0.40625,-0.4530029296875
4.880,499,2473,1411,1640,-11.0,29.0,20.0,-13.061522483825684,-11.596678733825684,-0.4882812201976776,-1.3602294921875,0.34765625,-0.3094482421875
4.888,514,2456,1497,1796,-11.0,29.0,20.0,-16.357421875,-10.681151390075684,-4.7607421875,-1.4256591796875,0.298095703125,-0.27197265625
4.902,513,2458,1488,1789,-11.0,29.0,20.0,-14.953612327575684,-6.347655773162842,-5.798339366912842,-1.4288330078125,0.2646484375,-0.2537841796875
4.910,508,2445,1401,1650,-11.0,29.0,20.0,-11.596678733825684,-1.8310545682907104,-6.286620616912842,-1.26953125,0.2283935546875,-0.2021484375
4.918,518,2440,1488,1786,-11.0,29.0,20.0,-10.803221702575684,3.051757574081421,-6.896972179412842,-1.17724609375,0.2774658203125,-0.1798095703125
4.926,487,2493,1487,1739,-11.0,29.0,20.0,-10.803221702575684,3.051757574081421,-6.896972179412842,-1.3084716796875,0.364013671875,-0.208251953125
4.962,485,2477,1393,1550,-12.0,28.0,21.0,-13.732909202575684,12.878417015075684,-7.751464366912842,-1.4112548828125,0.3568115234375,-0.1990966796875
4.962,504,2919,1253,1646,-12.0,28.0,21.0,-10.925292015075684,14.770506858825684,-7.995604991912842,-1.3497314453125,0.3017578125,-0.158447265625
4.962,484,2416,1442,1689,-12.0,28.0,21.0,-10.925292015075684,14.770506858825684,-7.995604991912842,-1.218505859375,0.248291015625,-0.1595458984375
4.970,468,2350,1355,1488,-12.0,28.0,21.0,-1.0986328125,20.568845748901367,-8.6669921875,-1.12451171875,0.24169921875,-0.22607421875
4.978,473,2280,1395,1604,-12.0,28.0,21.0,1.03759765625,24.963376998901367,-9.46044921875,-1.084716796875,0.26806640625,-0.3385009765625
4.988,467,2246,1373,1580,-12.0,28.0,21.0,1.03759765625,24.963376998901367,-9.46044921875,-1.0750732421875,0.287841796875,-0.4520263671875
5.000,445,2180,1258,1382,-12.0,28.0,21.0,-4.45556640625,29.785154342651367,-13.305663108825684,-1.066162109375,0.314453125,-0.50341796875
5.015,439,2093,1278,1476,-12.0,28.0,21.0,-8.4228515625,28.137205123901367,-16.2353515625,-1.034912109375,0.3450927734375,-0.4803466796875
5.016,440,2021,1239,1439,-12.0,28.0,21.0,-8.4228515625,28.137205123901367,-16.2353515625,-0.9677734375,0.345458984375,-0.44140625
5.030,413,1922,1101,1234,-12.0,28.0,21.0,-14.831542015075684,20.507810592651367,-22.827146530151367,-0.88623046875,0.28515625,-0.417236328125
5.067,411,1834,1103,1312,-10.0,31.0,22.0,-17.88330078125,17.63916015625,-27.160642623901367,-0.8204345703125,0.1900634765625,-0.3896484375
5.067,391,1785,1038,1241,-10.0,31.0,22.0,-17.88330078125,17.63916015625,-27.160642623901367,-0.77001953125,0.11962890625,-0.3526611328125
5.067,375,1548,917,1063,-10.0,31.0,22.0,-23.376462936401367,16.54052734375,-30.761716842651367,-0.735595703125,0.124267578125,-0.3233642578125
5.070,364,1428,986,943,-10.0,31.0,22.0,-26.794431686401367,16.7236328125,-28.625486373901367,-0.6885986328125,0.16748046875,-0.24365234375
5.076,351,1336,828,996,-10.0,31.0,22.0,-26.794431686401367,16.7236328125,-28.625486373901367,-0.6456298828125,0.1656494140625,-0.0882568359375
5.090,333,1155,748,858,-10.0,31.0,22.0,-36.31591796875,14.099120140075684,-27.343748092651367,-0.6573486328125,0.1402587890625,0.04150390625
5.098,323,989,748,860,-10.0,31.0,22.0,-33.02001953125,13.488768577575684,-27.648923873901367,-0.712646484375,0.1190185546875,0.07958984375
5.106,312,895,721,816,-10.0,31.0,22.0,-33.02001953125,13.488768577575684,-27.648923873901367,-0.7412109375,0.117431640625,0.0408935546875
5.120,304,834,669,746,-10.0,31.0,22.0,-14.404295921325684,13.610838890075684,-20.080564498901367,-0.7210693359375,0.159912109375,-0.0494384765625
5.128,300,808,673,772,-10.0,31.0,22.0,-7.568358898162842,14.221190452575684,-12.573241233825684,-0.7099609375,0.20556640625,-0.1474609375
5.136,300,815,660,766,-7.0,30.0,15.0,-7.568358898162842,14.221190452575684,-12.573241233825684,-0.71435546875,0.212890625,-0.2220458984375
5.160,300,846,642,740,-7.0,30.0,15.0,0.7324218153953552,12.634276390075684,-4.57763671875,-0.7076416015625,0.18896484375,-0.2696533203125
5.160,313,971,625,780,-7.0,30.0,15.0,0.7324218153953552,12.634276390075684,-4.57763671875,-0.6861572265625,0.162353515625,-0.293212890625
5.175,310,906,694,820,-7.0,30.0,15.0,2.0751953125,10.437010765075684,-3.234863042831421,-0.6861572265625,0.162353515625,-0.293212890625
5.180,318,996,726,859,-7.0,30.0,15.0,6.774901866912842,7.080077648162842,-0.7934569716453552,-0.7318115234375,0.1597900390625,-0.3321533203125
5.188,324,1056,731,895,-7.0,30.0,15.0,6.774901866912842,7.080077648162842,-0.7934569716453552,-0.7919921875,0.1572265625,-0.330078125
5.196,327,1129,748,927,-7.0,30.0,15.0,9.8876953125,5.0048828125,-1.4038084745407104,-0.7919921875,0.1572265625,-0.330078125
5.210,332,1267,725,929,-7.0,30.0,15.0,11.352538108825684,-0.4272460639476776,0.54931640625,-0.8187255859375,0.116455078125,-0.300537109375
5.220,343,1341,780,1027,-7.0,30.0,15.0,11.352538108825684,-0.4272460639476776,0.54931640625,-0.80322265625,0.090576171875,-0.2891845703125
5.226,348,1434,786,1063,-7.0,30.0,15.0,11.047362327575684,-2.929687261581421,5.0048828125,-0.80322265625,0.090576171875,-0.2891845703125
5.266,359,1529,829,1078,-8.0,29.0,16.0,10.437010765075684,-7.080077648162842,16.17431640625,-0.784912109375,0.1634521484375,-0.30810546875
5.267,371,1611,841,1160,-8.0,29.0,16.0,10.437010765075684,-7.080077648162842,16.17431640625,-0.771484375,0.205078125,-0.311767578125
5.267,376,1666,888,1201,-8.0,29.0,16.0,7.934569835662842,-8.85009765625,18.6767578125,-0.771484375,0.205078125,-0.311767578125
5.270,387,1775,895,1167,-8.0,29.0,16.0,-0.30517578125,-12.390135765075684,16.90673828125,-0.7850341796875,0.2225341796875,-0.250732421875
5.283,389,1874,986,1280,-8.0,29.0,16.0,-0.30517578125,-12.390135765075684,16.90673828125,-0.793701171875,0.21923828125,-0.1905517578125
5.286,391,1943,1003,1312,-8.0,29.0,16.0,-2.44140625,-15.136717796325684,17.08984375,-0.793701171875,0.21923828125,-0.1905517578125
5.300,401,2050,1000,1264,-8.0,29.0,16.0,6.408690929412842,-19.59228515625,20.446775436401367,-0.77978515625,0.1142578125,-0.150146484375
5.309,409,2111,1097,1409,-8.0,29.0,16.0,6.408690929412842,-19.59228515625,20.446775436401367,-0.792236328125,0.12646484375,-0.1749267578125
5.316,416,2214,1125,1411,-8.0,29.0,16.0,14.770506858825684,-20.690916061401367,22.521970748901367,-0.792236328125,0.12646484375,-0.1749267578125
5.330,419,2253,1130,1363,-11.0,35.0,16.0,16.66259765625,-22.766111373901367,27.160642623901367,-0.7838134765625,0.2054443359375,-0.144287109375
5.338,433,2299,1241,1521,-11.0,35.0,16.0,16.66259765625,-22.766111373901367,27.160642623901367,-0.7835693359375,0.2371826171875,-0.128662109375
5.368,439,2341,1276,1546,-11.0,35.0,16.0,16.29638671875,-22.216794967651367,27.343748092651367,-0.7835693359375,0.2371826171875,-0.128662109375
5.369,464,2379,1278,1518,-11.0,35.0,16.0,23.681638717651367,-18.24951171875,24.108884811401367,-0.8551025390625,0.35400390625,-0.220458984375
5.369,470,2396,1336,1678,-11.0,35.0,16.0,23.681638717651367,-18.24951171875,24.108884811401367,-0.95068359375,0.3961181640625,-0.3765869140625
5.376,481,2437,1375,1684,-11.0,35.0,16.0,26.428220748901367,-15.808104515075684,21.484373092651367,-0.95068359375,0.3961181640625,-0.3765869140625
5.390,479,2435,1326,1580,-11.0,35.0,16.0,24.719236373901367,-12.023924827575684,18.12744140625,-1.1961669921875,0.366455078125,-0.646728515625
5.398,495,2444,1434,1743,-11.0,35.0,16.0,15.075682640075684,-9.21630859375,14.099120140075684,-1.1961669921875,0.366455078125,-0.646728515625
5.406,499,2442,1441,1764,-11.0,35.0,16.0,0.2441406100988388,-9.8876953125,10.742186546325684,-1.2374267578125,0.367431640625,-0.51611328125
5.420,497,2443,1369,1635,-11.0,35.0,16.0,-11.535643577575684,-12.878417015075684,7.385253429412842,-1.300048828125,0.3741455078125,-0.259765625
5.428,508,2437,1467,1785,-11.0,32.0,20.0,-14.343260765075684,-15.258788108825684,3.784179449081421,-1.300048828125,0.3741455078125,-0.259765625
5.436,509,2435,1470,1785,-11.0,32.0,20.0,-9.33837890625,-15.258788108825684,0.1831054538488388,-1.3472900390625,0.36376953125,-0.2861328125
5.476,497,3079,2142,1608,-11.0,32.0,20.0,-2.0751953125,-13.366698265075684,-3.173827886581421,-1.320068359375,0.2091064453125,-0.31787109375
5.476,508,2493,1429,1769,-11.0,32.0,20.0,2.868652105331421,-11.291502952575684,-5.554198741912842,-1.159423828125,0.1668701171875,-0.27685546875
5.477,501,2419,1447,1781,-11.0,32.0,20.0,4.21142578125,-9.27734375,-6.469726085662842,-1.159423828125,0.1668701171875,-0.27685546875
5.482,499,2430,1422,1746,-11.0,32.0,20.0,-5.798339366912842,-1.7700194120407104,-5.432128429412842,-1.2822265625,0.3450927734375,-0.2674560546875
5.492,497,2382,1440,1763,-11.0,32.0,20.0,-5.798339366912842,-1.7700194120407104,-5.432128429412842,-1.2822265625,0.3450927734375,-0.2674560546875
5.497,495,2359,1422,1750,-11.0,32.0,20.0,-11.047362327575684,1.9531248807907104,-5.493163585662842,-1.380126953125,0.334228515625,-0.20947265625
5.511,491,2310,1328,1580,-11.0,32.0,20.0,-11.108397483825684,4.638671875,-5.615233898162842,-1.2191162109375,0.2498779296875,-0.1834716796875
5.519,486,2281,1377,1695,-11.0,32.0,20.0,-6.408690929412842,7.629394054412842,-5.798339366912842,-1.2191162109375,0.2498779296875,-0.1834716796875
5.527,481,2246,1349,1662,-11.0,32.0,18.0,-1.0986328125,11.291502952575684,-6.103515148162842,-1.137939453125,0.2813720703125,-0.2652587890625
5.541,470,2167,1233,1488,-11.0,32.0,18.0,0.9155272841453552,15.197752952575684,-7.202147960662842,-1.10107421875,0.322021484375,-0.4422607421875
5.569,463,2118,1264,1574,-11.0,32.0,18.0,0.6713866591453552,18.24951171875,-10.009765625,-1.10107421875,0.322021484375,-0.4422607421875
5.569,446,2091,1216,1516,-11.0,32.0,18.0,-0.1220703050494194,18.98193359375,-13.732909202575684,-1.087646484375,0.3271484375,-0.4488525390625
5.571,391,2210,1078,1428,-11.0,32.0,18.0,-1.9531248807907104,17.63916015625,-16.6015625,-0.9686279296875,0.3084716796875,-0.3997802734375
5.583,417,1924,1098,1413,-11.0,32.0,18.0,-5.187987804412842,16.2353515625,-18.6767578125,-0.9686279296875,0.3084716796875,-0.3997802734375
5.587,411,1847,1050,1357,-11.0,32.0,18.0,-9.6435546875,15.319823265075684,-21.179197311401367,-0.89794921875,0.228515625,-0.410400390625
5.601,385,1714,899,1172,-11.0,32.0,18.0,-12.695311546325684,13.610838890075684,-23.742673873901367,-0.796142578125,0.1363525390625,-0.3994140625
5.609,365,1600,871,1178,-11.0,32.0,18.0,-12.634276390075684,10.864256858825684,-25.024412155151367,-0.796142578125,0.1363525390625,-0.3994140625
5.617,356,1490,815,1108,-11.0,32.0,18.0,-12.512206077575684,8.48388671875,-24.719236373901367,-0.7535400390625,0.176513671875,-0.37255859375
5.631,332,1278,738,943,-11.0,33.0,20.0,-16.41845703125,6.591796398162842,-24.658201217651367,-0.6527099609375,0.1375732421875,-0.096435546875
5.640,323,1172,725,936,-11.0,33.0,20.0,-22.033689498901367,4.33349609375,-26.794431686401367,-0.6527099609375,0.1375732421875,-0.096435546875
5.650,310,1029,673,846,-11.0,33.0,20.0,-24.963376998901367,2.38037109375,-29.113767623901367,-0.669921875,0.1148681640625,0.029296875
5.670,292,949,600,740,-11.0,33.0,20.0,-23.376462936401367,1.6479490995407104,-28.747556686401367,-0.7213134765625,0.1102294921875,0.084228515625
5.670,289,920,591,772,-11.0,33.0,20.0,-17.9443359375,1.7700194120407104,-24.902341842651367,-0.7213134765625,0.1102294921875,0.084228515625
5.678,287,900,678,548,-11.0,33.0,20.0,-11.657713890075684,3.112792730331421,-17.39501953125,-0.6973876953125,0.1597900390625,0.001708984375
5.691,291,887,594,766,-11.0,33.0,20.0,-6.469726085662842,5.554198741912842,-8.23974609375,-0.673583984375,0.2149658203125,-0.0880126953125
5.705,290,907,574,744,-11.0,33.0,20.0,-1.3427733182907104,8.1787109375,-1.7700194120407104,-0.668701171875,0.2130126953125,-0.1514892578125
5.708,292,939,594,794,-11.0,33.0,20.0,4.08935546875,9.765625,0.1220703050494194,-0.690673828125,0.1751708984375,-0.206298828125
5.716,296,966,620,815,-11.0,33.0,20.0,8.60595703125,9.46044921875,0.30517578125,-0.7156982421875,0.170166015625,-0.2548828125
5.730,300,1067,617,816,-8.0,32.0,20.0,11.657713890075684,7.507323741912842,0.6103515625,-0.728515625,0.18212890625,-0.27978515625
5.738,306,1143,658,905,-8.0,32.0,20.0,14.526366233825684,4.7607421875,-0.0610351525247097,-0.736572265625,0.1690673828125,-0.2786865234375
5.746,321,1216,682,944,-8.0,32.0,20.0,18.4326171875,1.7700194120407104,-1.3427733182907104,-0.7471923828125,0.136474609375,-0.274169921875
5.773,328,1367,682,946,-8.0,32.0,20.0,21.850584030151367,-1.03759765625,-0.8544921278953552,-0.754638671875,0.103271484375,-0.2813720703125
5.773,330,1443,721,1056,-8.0,32.0,20.0,22.338865280151367,-3.723144292831421,2.3193359375,-0.7598876953125,0.0789794921875,-0.280517578125
5.776,342,1575,735,1083,-8.0,32.0,20.0,19.775390625,-6.164550304412842,7.873534679412842,-0.7763671875,0.09130859375,-0.2808837890625
5.790,354,1647,748,1079,-8.0,32.0,20.0,15.502928733825684,-7.995604991912842,14.160155296325684,-0.794677734375,0.139404296875,-0.29931640625
5.803,361,1732,829,1202,-8.0,32.0,20.0,9.58251953125,-8.9111328125,18.9208984375,-0.801025390625,0.189453125,-0.307373046875
5.813,371,1810,871,1245,-8.0,32.0,20.0,2.868652105331421,-9.6435546875,20.568845748901367,-0.8033447265625,0.228271484375,-0.28369140625
5.820,385,1914,938,1312,-9.0,34.0,19.0,-1.7700194120407104,-11.230467796325684,19.22607421875,-0.80712890625,0.2252197265625,-0.24169921875
5.828,401,1959,998,1348,-9.0,34.0,19.0,-3.417968511581421,-14.343260765075684,16.845703125,-0.7994384765625,0.182861328125,-0.1820068359375
5.836,400,2021,1029,1386,-9.0,34.0,19.0,-1.8920897245407104,-17.7001953125,15.869139671325684,-0.76416015625,0.109130859375,-0.124267578125
5.850,410,2142,1054,1305,-9.0,34.0,19.0,4.39453125,-19.6533203125,17.2119140625,-0.7257080078125,0.0439453125,-0.09716796875
5.880,424,2186,1173,1455,-9.0,34.0,19.0,11.596678733825684,-20.01953125,21.911619186401367,-0.7301025390625,0.0745849609375,-0.0972900390625
5.880,430,2254,1206,1476,-9.0,34.0,19.0,13.366698265075684,-18.6767578125,28.686521530151367,-0.7608642578125,0.1728515625,-0.1025390625
5.880,433,2312,1233,1402,-9.0,34.0,19.0,10.131834983825684,-15.686034202575684,33.447265625,-0.8056640625,0.2431640625,-0.117919921875
5.888,465,2279,1318,1627,-9.0,34.0,19.0,7.568358898162842,-11.474608421325684,34.66796875,-0.8671875,0.266357421875,-0.165283203125
5.896,473,2311,1351,1653,-9.0,34.0,19.0,8.9111328125,-8.36181640625,34.11865234375,-0.89990234375,0.29638671875,-0.2120361328125
5.910,479,2362,1306,1557,-9.0,34.0,19.0,12.695311546325684,-7.385253429412842,33.14208984375,-0.9266357421875,0.3758544921875,-0.316162109375
5.918,490,2382,1411,1714,-9.0,30.0,21.0,14.648436546325684,-6.103515148162842,30.761716842651367,-1.0167236328125,0.4384765625,-0.5206298828125
5.926,484,2396,1416,1733,-9.0,30.0,21.0,12.207030296325684,-5.310058116912842,25.146482467651367,-1.12939453125,0.4344482421875,-0.6619873046875
5.940,495,2415,1357,1608,-9.0,30.0,21.0,5.126952648162842,-8.30078125,18.24951171875,-1.2008056640625,0.431884765625,-0.631591796875
5.948,509,2418,1453,1766,-9.0,30.0,21.0,-4.638671875,-13.977049827575684,12.512206077575684,-1.237060546875,0.4287109375,-0.475341796875
5.982,510,2571,1483,1796,-9.0,30.0,21.0,-11.901854515075684,-18.61572265625,7.202147960662842,-1.2681884765625,0.41015625,-0.310546875
5.982,506,2584,1569,1732,-9.0,30.0,21.0,-13.671874046325684,-19.95849609375,2.0751953125,-1.31689453125,0.390625,-0.245849609375
5.982,512,2419,1462,1781,-9.0,30.0,21.0,-11.474608421325684,-17.578125,-2.13623046875,-1.377197265625,0.3507080078125,-0.268798828125
5.986,514,2560,1328,1627,-9.0,30.0,21.0,-8.4228515625,-13.488768577575684,-5.371093273162842,-1.407958984375,0.274658203125,-0.2840576171875
6.000,508,2410,1391,1636,-9.0,30.0,21.0,-5.432128429412842,-10.070799827575684,-7.812499523162842,-1.2908935546875,0.1884765625,-0.2421875
6.008,518,2407,1483,1785,-9.0,30.0,21.0,-3.479003667831421,-7.202147960662842,-8.97216796875,-1.1444091796875,0.205322265625,-0.2110595703125
6.016,518,2398,1472,1779,-10.0,32.0,20.0,-4.82177734375,-3.295898199081421,-8.97216796875,-1.2030029296875,0.310791015625,-0.23095703125
6.031,505,2370,1372,1613,-10.0,32.0,20.0,-7.934569835662842,0.9765624403953552,-8.7890625,-1.339599609375,0.3514404296875,-0.221435546875
6.038,512,2359,1439,1754,-10.0,32.0,20.0,-9.94873046875,4.69970703125,-8.7890625,-1.3604736328125,0.309326171875,-0.1593017578125
6.046,507,2316,1428,1735,-10.0,32.0,20.0,-9.8876953125,9.1552734375,-8.11767578125,-1.281005859375,0.260009765625,-0.1197509765625
6.081,493,2275,1316,1569,-10.0,32.0,20.0,-7.629394054412842,14.648436546325684,-7.141112804412842,-1.1904296875,0.2552490234375,-0.1497802734375
6.082,463,2322,1499,1474,-10.0,32.0,20.0,-4.5166015625,19.95849609375,-6.713866710662842,-1.1346435546875,0.2762451171875,-0.2335205078125
6.082,475,2214,1342,1630,-10.0,32.0,20.0,-4.5166015625,19.95849609375,-6.713866710662842,-1.1104736328125,0.2891845703125,-0.3475341796875
6.090,465,2142,1236,1439,-10.0,32.0,20.0,1.6479490995407104,25.146482467651367,-11.230467796325684,-1.08154296875,0.30322265625,-0.442138671875
6.098,465,2076,1251,1534,-10.0,32.0,20.0,3.051757574081421,24.475095748901367,-15.319823265075684,-1.02490234375,0.329833984375,-0.47998046875
6.106,455,2012,1215,1501,-10.0,32.0,20.0,3.051757574081421,24.475095748901367,-15.319823265075684,-0.9541015625,0.3563232421875,-0.4840087890625
6.120,425,1914,1065,1318,-10.0,32.0,21.0,-7.690429210662842,21.545408248901367,-22.705076217651367,-0.8936767578125,0.3304443359375,-0.4605712890625
6.132,424,1834,1085,1371,-10.0,32.0,21.0,-16.357421875,20.01953125,-27.282712936401367,-0.852294921875,0.2545166015625,-0.4136962890625
6.141,416,1787,1037,1306,-10.0,32.0,21.0,-16.357421875,20.01953125,-27.282712936401367,-0.8140869140625,0.194091796875,-0.3616943359375
6.151,385,1577,920,1117,-10.0,32.0,21.0,-25.451658248901367,17.39501953125,-31.555173873901367,-0.77392578125,0.18701171875,-0.3194580078125
6.158,373,1492,887,1122,-10.0,32.0,21.0,-27.893064498901367,16.29638671875,-30.151365280151367,-0.7158203125,0.2056884765625,-0.2579345703125
6.183,361,1375,848,1070,-10.0,32.0,21.0,-27.893064498901367,16.29638671875,-30.151365280151367,-0.6595458984375,0.172607421875,-0.12451171875
6.184,336,1213,746,912,-10.0,32.0,21.0,-31.921384811401367,10.986327171325684,-31.005857467651367,-0.6558837890625,0.1075439453125,0.0126953125
6.188,327,1146,763,872,-10.0,32.0,21.0,-25.878904342651367,8.60595703125,-32.16552734375,-0.711669921875,0.0723876953125,0.0572509765625
6.196,318,998,721,860,-10.0,32.0,21.0,-25.878904342651367,8.60595703125,-32.16552734375,-0.7672119140625,0.0704345703125,0.0404052734375
6.210,306,900,666,774,-11.0,32.0,19.0,-3.173827886581421,6.713866710662842,-25.817869186401367,-0.7633056640625,0.1251220703125,-0.00830078125
6.218,304,888,669,794,-11.0,32.0,19.0,3.601073980331421,6.835937023162842,-17.51708984375,-0.72802734375,0.2064208984375,-0.0877685546875
6.226,305,871,660,787,-11.0,32.0,19.0,3.601073980331421,6.835937023162842,-17.51708984375,-0.7034912109375,0.239013671875,-0.1668701171875
6.240,299,890,625,746,-11.0,32.0,19.0,8.4228515625,9.6435546875,-5.187987804412842,-0.69921875,0.20068359375,-0.226806640625
6.254,300,907,651,794,-11.0,32.0,19.0,8.1787109375,10.925292015075684,-4.0283203125,-0.72021484375,0.14404296875,-0.273681640625
6.256,301,975,613,794,-11.0,32.0,19.0,8.1787109375,10.925292015075684,-4.0283203125,-0.7510986328125,0.1412353515625,-0.3023681640625
6.289,308,1004,660,801,-11.0,32.0,19.0,3.601073980331421,7.873534679412842,-0.9765624403953552,-0.765625,0.1640625,-0.3128662109375
6.290,310,1043,693,879,-11.0,32.0,19.0,4.8828125,3.967284917831421,-0.4882812201976776,-0.7757568359375,0.156982421875,-0.318115234375
6.292,322,1091,707,902,-11.0,32.0,19.0,4.8828125,3.967284917831421,-0.4882812201976776,-0.7757568359375,0.156982421875,-0.318115234375
6.300,328,1209,725,900,-11.0,32.0,19.0,11.291502952575684,-3.173827886581421,-1.03759765625,-0.8082275390625,0.1046142578125,-0.3037109375
6.308,332,1260,761,991,-8.0,32.0,22.0,11.291502952575684,-3.173827886581421,-1.03759765625,-0.8133544921875,0.0992431640625,-0.2808837890625
6.316,348,1336,787,1018,-8.0,32.0,22.0,9.70458984375,-5.0048828125,1.7700194120407104,-0.8133544921875,0.0992431640625,-0.2808837890625
6.330,360,1424,813,1024,-8.0,32.0,22.0,0.1220703050494194,-4.8828125,11.596678733825684,-0.8087158203125,0.1380615234375,-0.251953125
6.346,371,1478,891,1131,-8.0,32.0,22.0,0.1220703050494194,-4.8828125,11.596678733825684,-0.79296875,0.137451171875,-0.2562255859375
6.347,383,1649,826,1129,-8.0,32.0,22.0,-5.126952648162842,-3.295898199081421,15.258788108825684,-0.79296875,0.137451171875,-0.2562255859375
6.389,388,1703,907,1155,-8.0,32.0,22.0,-13.366698265075684,-1.220703125,20.324705123901367,-0.791015625,0.1590576171875,-0.274658203125
6.389,404,1803,1170,1323,-8.0,32.0,22.0,-13.366698265075684,-1.220703125,20.324705123901367,-0.77197265625,0.2066650390625,-0.2408447265625
6.389,411,1834,1026,1323,-8.0,32.0,22.0,-16.78466796875,-2.3193359375,22.705076217651367,-0.77197265625,0.2066650390625,-0.2408447265625
6.390,383,2152,1022,1365,-8.0,32.0,22.0,-19.71435546875,-6.835937023162842,23.803709030151367,-0.697265625,0.1824951171875,-0.1151123046875
6.398,437,1948,1125,1434,-8.0,32.0,22.0,-19.71435546875,-6.835937023162842,23.803709030151367,-0.698974609375,0.14892578125,-0.1055908203125
6.406,447,2018,1163,1455,-11.0,34.0,18.0,-12.939452171325684,-7.202147960662842,22.277830123901367,-0.698974609375,0.14892578125,-0.1055908203125
6.420,454,2080,1170,1416,-11.0,34.0,18.0,-0.2441406100988388,-8.60595703125,23.376462936401367,-0.775146484375,0.1895751953125,-0.0709228515625
6.428,465,2127,1271,1572,-11.0,34.0,18.0,-0.2441406100988388,-8.60595703125,23.376462936401367,-0.8048095703125,0.193359375,-0.0472412109375
6.436,473,2188,1306,1610,-11.0,34.0,18.0,3.295898199081421,-9.3994140625,25.817869186401367,-0.8048095703125,0.193359375,-0.0472412109375
6.450,481,2271,1274,1531,-11.0,34.0,18.0,18.61572265625,-8.544921875,31.494138717651367,-0.8524169921875,0.2491455078125,-0.130615234375
6.458,487,2319,1365,1691,-11.0,34.0,18.0,18.61572265625,-8.544921875,31.494138717651367,-0.8624267578125,0.35205078125,-0.17822265625
6.466,495,2359,1399,1713,-11.0,34.0,18.0,28.137205123901367,-10.192870140075684,31.860349655151367,-0.8624267578125,0.35205078125,-0.17822265625
6.480,495,2409,1357,1590,-11.0,34.0,18.0,39.36767578125,-9.82666015625,21.118162155151367,-1.113525390625,0.5177001953125,-0.64111328125
6.490,508,2409,1447,1761,-11.0,34.0,18.0,39.36767578125,-9.82666015625,21.118162155151367,-1.308349609375,0.5054931640625,-0.96484375
6.496,508,2409,1467,1772,-11.0,34.0,18.0,34.1796875,-4.21142578125,12.329100608825684,-1.308349609375,0.5054931640625,-0.96484375
6.522,508,2424,1388,1641,-9.0,31.0,21.0,17.2119140625,-5.0048828125,5.432128429412842,-1.3309326171875,0.300048828125,-0.4925537109375
6.522,518,2456,1466,1769,-9.0,31.0,21.0,-1.6479490995407104,-14.587401390075684,0.8544921278953552,-1.3309326171875,0.300048828125,-0.4925537109375
6.526,519,2504,1466,1770,-9.0,31.0,21.0,-11.169432640075684,-23.193357467651367,-0.54931640625,-1.3475341796875,0.2774658203125,-0.242431640625
6.540,508,2424,1401,1652,-9.0,31.0,21.0,-10.803221702575684,-23.681638717651367,-0.8544921278953552,-1.431396484375,0.28955078125,-0.280029296875
6.548,513,2430,1488,1796,-9.0,31.0,21.0,-6.042479991912842,-18.49365234375,-2.3193359375,-1.431396484375,0.28955078125,-0.280029296875
6.557,519,2424,1494,1803,-9.0,31.0,21.0,-2.13623046875,-12.878417015075684,-5.065917491912842,-1.262451171875,0.287353515625,-0.26416015625
6.601,508,2409,1398,1629,-9.0,31.0,21.0,-1.220703125,-8.11767578125,-8.1787109375,-1.2548828125,0.356201171875,-0.206787109375
6.601,501,2394,1452,1762,-9.0,31.0,21.0,-2.807616949081421,-3.356933355331421,-10.620116233825684,-1.2548828125,0.356201171875,-0.206787109375
6.601,518,2374,1584,1464,-9.0,31.0,21.0,-4.33349609375,1.15966796875,-11.474608421325684,-1.3455810546875,0.300537109375,-0.1474609375
6.602,497,2330,1348,1588,-12.0,32.0,19.0,-4.45556640625,6.347655773162842,-9.8876953125,-1.1669921875,0.167724609375,-0.0625
6.609,499,2337,1400,1691,-12.0,32.0,19.0,-3.356933355331421,13.244627952575684,-6.164550304412842,-1.1669921875,0.167724609375,-0.0625
6.616,497,2319,1380,1666,-12.0,32.0,19.0,-0.0610351525247097,20.324705123901367,-2.624511480331421,-1.05078125,0.1922607421875,-0.1551513671875
6.630,479,2228,1278,1516,-12.0,32.0,19.0,4.5166015625,25.146482467651367,-1.3427733182907104,-0.9765625,0.3421630859375,-0.5186767578125
6.638,482,2178,1340,1622,-12.0,32.0,19.0,7.202147960662842,26.672361373901367,-3.906249761581421,-0.9765625,0.3421630859375,-0.5186767578125
6.646,478,2133,1316,1588,-12.0,32.0,19.0,5.798339366912842,25.268552780151367,-9.6435546875,-1.02978515625,0.380859375,-0.6009521484375
6.664,455,2047,1184,1411,-12.0,32.0,19.0,1.4648436307907104,21.850584030151367,-15.991209983825684,-1.1104736328125,0.38818359375,-0.4139404296875
6.670,445,1980,1213,1480,-12.0,32.0,19.0,-3.967284917831421,17.76123046875,-21.240232467651367,-1.1104736328125,0.38818359375,-0.4139404296875
6.696,445,1987,1137,1411,-12.0,32.0,19.0,-8.72802734375,15.319823265075684,-24.841306686401367,-1.051025390625,0.3157958984375,-0.3175048828125
6.696,416,1798,1093,1355,-12.0,32.0,19.0,-11.413573265075684,15.686034202575684,-26.977537155151367,-0.8551025390625,0.162109375,-0.3079833984375
6.705,411,1834,932,1239,-9.0,34.0,20.0,-11.779784202575684,17.39501953125,-28.015134811401367,-0.8551025390625,0.162109375,-0.3079833984375
6.706,390,1651,1122,1145,-9.0,34.0,20.0,-10.681151390075684,18.4326171875,-27.893064498901367,-0.7930908203125,0.15869140625,-0.3172607421875
6.720,370,1433,842,1032,-9.0,34.0,20.0,-9.70458984375,18.310546875,-27.099607467651367,-0.71240234375,0.1910400390625,-0.278564453125
6.729,351,1306,815,1029,-9.0,34.0,20.0,-10.437010765075684,16.41845703125,-26.489255905151367,-0.71240234375,0.1910400390625,-0.278564453125
6.736,344,1216,766,951,-9.0,34.0,20.0,-10.803221702575684,12.023924827575684,-27.526853561401367,-0.69140625,0.1495361328125,-0.1842041015625
6.764,318,962,698,803,-9.0,34.0,20.0,-7.751464366912842,5.920409679412842,-28.747556686401367,-0.708251953125,0.1455078125,-0.1036376953125
6.780,306,841,687,780,-9.0,34.0,20.0,-2.38037109375,0.6713866591453552,-28.503416061401367,-0.7427978515625,0.152099609375,-0.0732421875
6.798,300,763,666,744,-9.0,34.0,20.0,3.601073980331421,-2.197265625,-28.015134811401367,-0.753662109375,0.123291015625,-0.0732421875
6.798,279,683,614,687,-9.0,34.0,20.0,10.314940452575684,-1.5869139432907104,-25.939939498901367,-0.743896484375,0.1253662109375,-0.1295166015625
6.800,263,697,561,639,-9.0,34.0,20.0,14.709471702575684,1.15966796875,-20.996091842651367,-0.7362060546875,0.166259765625,-0.2056884765625
6.800,265,684,607,669,-8.0,32.0,21.0,14.160155296325684,3.540038824081421,-15.136717796325684,-0.718017578125,0.184326171875,-0.24072265625
6.810,275,634,575,628,-8.0,32.0,21.0,10.253905296325684,5.432128429412842,-11.230467796325684,-0.7021484375,0.149169921875,-0.2532958984375
6.818,276,639,597,669,-8.0,32.0,21.0,5.920409679412842,6.896972179412842,-9.21630859375,-0.6953125,0.1016845703125,-0.25146484375
6.826,280,669,600,682,-8.0,32.0,21.0,2.868652105331421,7.263183116912842,-6.530761241912842,-0.705810546875,0.0892333984375,-0.2369384765625
6.840,293,724,632,693,-8.0,32.0,21.0,1.3427733182907104,6.591796398162842,-2.624511480331421,-0.7332763671875,0.1041259765625,-0.2188720703125
6.850,296,785,667,754,-8.0,32.0,21.0,1.220703125,5.187987804412842,1.2817381620407104,-0.75390625,0.1104736328125,-0.197509765625
6.856,305,860,678,787,-8.0,32.0,21.0,2.50244140625,3.845214605331421,4.5166015625,-0.766845703125,0.099365234375,-0.1954345703125
6.876,316,991,691,816,-8.0,32.0,21.0,4.45556640625,3.417968511581421,7.568358898162842,-0.7764892578125,0.0963134765625,-0.2225341796875
6.887,291,1243,666,853,-8.0,32.0,21.0,4.94384765625,3.723144292831421,10.498045921325684,-0.76904296875,0.109619140625,-0.2496337890625
6.901,332,1198,754,959,-8.0,32.0,21.0,3.173827886581421,4.21142578125,13.122557640075684,-0.7493896484375,0.112548828125,-0.256591796875
6.901,356,1366,846,1051,-9.0,34.0,16.0,-0.6713866591453552,4.5166015625,15.747069358825684,-0.7445068359375,0.10009765625,-0.2591552734375
6.908,371,1469,883,1091,-9.0,34.0,16.0,-6.225585460662842,4.2724609375,19.53125,-0.745849609375,0.113525390625,-0.275634765625
6.916,378,1519,942,1163,-9.0,34.0,16.0,-11.169432640075684,2.929687261581421,23.620603561401367,-0.732421875,0.1650390625,-0.293212890625
6.930,404,1634,986,1163,-9.0,34.0,16.0,-12.939452171325684,-0.30517578125,25.390623092651367,-0.7138671875,0.197265625,-0.2708740234375
6.938,416,1704,1067,1281,-9.0,34.0,16.0,-12.207030296325684,-6.042479991912842,24.536130905151367,-0.68359375,0.1881103515625,-0.1912841796875
6.946,414,1815,1125,1316,-9.0,34.0,16.0,-10.375975608825684,-11.779784202575684,23.803709030151367,-0.6558837890625,0.1685791015625,-0.1007080078125
6.960,428,1922,1148,1280,-9.0,34.0,16.0,-5.920409679412842,-14.404295921325684,23.681638717651367,-0.6644287109375,0.1260986328125,-0.045654296875
6.968,431,2035,1251,1428,-9.0,34.0,16.0,0.8544921278953552,-13.427733421325684,23.742673873901367,-0.693115234375,0.0609130859375,-0.02685546875
7.008,464,2087,1266,1504,-9.0,34.0,16.0,9.1552734375,-9.21630859375,26.794431686401367,-0.785888671875,0.088134765625,-0.1220703125
7.009,456,2728,1184,1476,-9.0,34.0,16.0,16.7236328125,-3.601073980331421,35.400390625,-0.9217529296875,0.26318359375,-0.336181640625
7.009,482,2293,1308,1607,-14.0,31.0,21.0,19.1650390625,-0.8544921278953552,44.189449310302734,-0.9713134765625,0.4190673828125,-0.4923095703125
7.010,488,2284,1313,1634,-14.0,31.0,21.0,19.53125,-3.540038824081421,44.433589935302734,-0.96240234375,0.48828125,-0.4979248046875
7.020,484,2359,1317,1531,-14.0,31.0,21.0,21.728513717651367,-9.21630859375,35.94970703125,-0.97705078125,0.5123291015625,-0.4202880859375
7.029,497,2359,1409,1700,-14.0,31.0,21.0,22.277830123901367,-12.573241233825684,23.681638717651367,-1.053955078125,0.4508056640625,-0.39892578125
7.042,496,2388,1415,1711,-14.0,31.0,21.0,20.263669967651367,-11.718749046325684,12.634276390075684,-1.1802978515625,0.381103515625,-0.4522705078125
7.052,497,2409,1344,1595,-14.0,31.0,21.0,17.333984375,-10.131834983825684,5.920409679412842,-1.3070068359375,0.3450927734375,-0.5234375
7.058,508,2443,1422,1735,-14.0,31.0,21.0,13.000487327575684,-9.58251953125,2.44140625,-1.4100341796875,0.281494140625,-0.541015625
7.070,508,2424,1444,1757,-14.0,31.0,21.0,5.0048828125,-8.72802734375,1.7089842557907104,-1.4417724609375,0.2115478515625,-0.4500732421875
7.080,499,2448,1357,1604,-14.0,31.0,21.0,-3.723144292831421,-6.713866710662842,3.173827886581421,-1.410400390625,0.2001953125,-0.3328857421875
7.104,512,2428,1504,1779,-14.0,31.0,21.0,-7.446288585662842,-3.662109136581421,4.7607421875,-1.335205078125,0.2628173828125,-0.292236328125
7.104,518,2565,1219,1569,-11.0,31.0,18.0,-5.493163585662842,-0.4882812201976776,3.845214605331421,-1.1502685546875,0.33349609375,-0.326416015625
7.110,497,2396,1341,1613,-11.0,31.0,18.0,-2.44140625,1.03759765625,-0.6713866591453552,-0.9620361328125,0.404296875,-0.3990478515625
7.118,506,2381,1434,1743,-11.0,31.0,18.0,-1.03759765625,-0.3662109076976776,-8.1787109375,-0.96044921875,0.4317626953125,-0.4552001953125
7.126,500,2407,1422,1711,-11.0,31.0,18.0,-1.15966796875,-4.150390625,-16.6015625,-1.149169921875,0.3707275390625,-0.417724609375
7.140,495,2326,1343,1580,-11.0,31.0,18.0,-3.540038824081421,-6.835937023162842,-21.118162155151367,-1.34228515625,0.2843017578125,-0.3056640625
7.155,498,2293,1415,1702,-11.0,31.0,18.0,-7.934569835662842,-4.82177734375,-19.10400390625,-1.34619140625,0.21435546875,-0.1820068359375
7.156,497,2263,1404,1686,-11.0,31.0,18.0,-10.070799827575684,1.7089842557907104,-13.854979515075684,-1.2177734375,0.191162109375,-0.12255859375
7.170,484,2207,1292,1516,-11.0,31.0,18.0,-7.385253429412842,10.375975608825684,-9.58251953125,-1.1085205078125,0.225830078125,-0.167236328125
7.178,485,2167,1351,1624,-11.0,31.0,18.0,-4.08935546875,18.49365234375,-7.568358898162842,-1.0582275390625,0.279296875,-0.2578125
7.210,481,2134,1320,1595,-11.0,31.0,18.0,-3.356933355331421,24.047849655151367,-7.995604991912842,-1.049560546875,0.30859375,-0.3756103515625
7.210,466,2016,1204,1138,-11.0,32.0,18.0,-2.807616949081421,26.062009811401367,-11.718749046325684,-1.06005859375,0.318603515625,-0.4896240234375
7.210,388,2176,1120,1390,-11.0,32.0,18.0,-1.6479490995407104,23.986814498901367,-17.39501953125,-1.0645751953125,0.3265380859375,-0.532958984375
7.216,455,2076,1117,1424,-11.0,32.0,18.0,-1.6479490995407104,23.986814498901367,-17.39501953125,-1.050537109375,0.3253173828125,-0.5009765625
7.230,426,1830,1078,1292,-11.0,32.0,18.0,-6.164550304412842,15.258788108825684,-25.268552780151367,-1.0194091796875,0.285888671875,-0.426513671875
7.238,423,1757,1097,1345,-11.0,32.0,18.0,-9.09423828125,12.512206077575684,-27.465818405151367,-0.9681396484375,0.209716796875,-0.3582763671875
7.246,406,1691,1050,1294,-11.0,32.0,18.0,-9.09423828125,12.512206077575684,-27.465818405151367,-0.876220703125,0.1444091796875,-0.3245849609375
7.260,382,1557,899,1117,-11.0,32.0,18.0,-5.371093273162842,11.352538108825684,-29.418943405151367,-0.76806640625,0.1439208984375,-0.3260498046875
7.268,371,1452,883,1125,-11.0,32.0,18.0,-3.601073980331421,12.390135765075684,-28.076169967651367,-0.68310546875,0.1962890625,-0.363525390625
7.276,351,1357,803,1051,-11.0,32.0,18.0,-3.601073980331421,12.390135765075684,-28.076169967651367,-0.642578125,0.214599609375,-0.390869140625
7.313,324,1148,702,883,-8.0,33.0,17.0,-7.568358898162842,14.221190452575684,-30.761716842651367,-0.6572265625,0.1883544921875,-0.3148193359375
7.313,292,1176,618,808,-8.0,33.0,17.0,-13.122557640075684,10.131834983825684,-34.24072265625,-0.685302734375,0.1778564453125,-0.1319580078125
7.313,306,923,661,802,-8.0,33.0,17.0,-17.7001953125,3.540038824081421,-36.43798828125,-0.69580078125,0.16162109375,0.0267333984375
7.321,293,794,636,711,-8.0,33.0,17.0,-14.953612327575684,-0.7324218153953552,-36.68212890625,-0.6988525390625,0.12548828125,0.0601806640625
7.329,290,773,621,735,-8.0,33.0,17.0,-5.0048828125,-0.4882812201976776,-34.0576171875,-0.708740234375,0.1004638671875,-0.0115966796875
7.337,282,764,605,725,-8.0,33.0,17.0,-5.0048828125,-0.4882812201976776,-34.0576171875,-0.7305908203125,0.0987548828125,-0.12890625
7.351,280,744,590,684,-8.0,33.0,17.0,14.282225608825684,6.652831554412842,-21.667478561401367,-0.7542724609375,0.1083984375,-0.244140625
7.360,287,753,603,714,-8.0,33.0,17.0,15.563963890075684,9.82666015625,-15.380858421325684,-0.7587890625,0.0975341796875,-0.3082275390625
7.372,282,784,607,733,-8.0,33.0,17.0,15.563963890075684,9.82666015625,-15.380858421325684,-0.7406005859375,0.0643310546875,-0.3056640625
7.381,299,861,625,740,-8.0,33.0,17.0,5.065917491912842,9.521484375,-6.347655773162842,-0.7222900390625,0.0390625,-0.277587890625
7.389,299,934,666,818,-6.0,31.0,16.0,3.540038824081421,6.652831554412842,-1.8920897245407104,-0.72021484375,0.0467529296875,-0.2645263671875
7.417,310,1017,678,849,-6.0,31.0,16.0,3.540038824081421,6.652831554412842,-1.8920897245407104,-0.73828125,0.071533203125,-0.2779541015625
7.417,316,1134,695,913,-6.0,31.0,16.0,9.521484375,0.0610351525247097,7.263183116912842,-0.7694091796875,0.0919189453125,-0.3150634765625
7.423,302,1294,666,922,-6.0,31.0,16.0,10.375975608825684,-2.685546636581421,11.169432640075684,-0.7967529296875,0.1123046875,-0.3489990234375
7.427,328,1278,736,992,-6.0,31.0,16.0,10.375975608825684,-2.685546636581421,11.169432640075684,-0.8118896484375,0.12890625,-0.35888671875
7.443,347,1382,778,1003,-6.0,31.0,16.0,2.44140625,-7.507323741912842,16.845703125,-0.8138427734375,0.133544921875,-0.3519287109375
7.449,356,1441,858,1115,-6.0,31.0,16.0,-4.45556640625,-8.97216796875,18.85986328125,-0.7901611328125,0.13427734375,-0.3250732421875
7.457,371,1508,891,1156,-6.0,31.0,16.0,-4.45556640625,-8.97216796875,18.85986328125,-0.76025390625,0.1412353515625,-0.2696533203125
7.471,385,1634,917,1151,-6.0,31.0,16.0,-20.507810592651367,-7.080077648162842,23.010251998901367,-0.743408203125,0.1666259765625,-0.19189453125
7.479,400,1681,1009,1278,-6.0,31.0,16.0,-23.498533248901367,-6.042479991912842,24.536130905151367,-0.7330322265625,0.18603515625,-0.1279296875
7.523,405,1735,1038,1317,-8.0,34.0,21.0,-23.498533248901367,-6.042479991912842,24.536130905151367,-0.731201171875,0.16455078125,-0.0869140625
7.523,416,1838,1051,1264,-8.0,34.0,21.0,-23.071287155151367,-3.723144292831421,25.634763717651367,-0.74560546875,0.0936279296875,-0.06396484375
7.523,433,1943,987,1357,-8.0,34.0,21.0,-19.4091796875,-1.5869139432907104,26.489255905151367,-0.7669677734375,0.0343017578125,-0.069091796875
7.523,438,1943,1175,1447,-8.0,34.0,21.0,-19.4091796875,-1.5869139432907104,26.489255905151367,-0.7816162109375,0.0472412109375,-0.0780029296875
7.533,456,2070,1198,1413,-8.0,34.0,21.0,-2.38037109375,0.0,34.3017578125,-0.8104248046875,0.1163330078125,-0.096923828125
7.539,462,2133,1275,1580,-8.0,34.0,21.0,7.141112804412842,1.8310545682907104,39.48974609375,-0.8868408203125,0.277099609375,-0.280029296875
7.547,462,2207,1302,1599,-8.0,34.0,21.0,7.141112804412842,1.8310545682907104,39.48974609375,-0.8868408203125,0.277099609375,-0.280029296875
7.561,466,2284,1248,1504,-8.0,34.0,21.0,9.94873046875,13.427733421325684,40.771480560302734,-0.99365234375,0.3953857421875,-0.6868896484375
7.569,473,2310,1336,1662,-8.0,34.0,21.0,9.94873046875,13.427733421325684,40.771480560302734,-0.942138671875,0.3720703125,-0.5882568359375
7.577,482,2348,1358,1681,-8.0,34.0,21.0,3.417968511581421,10.742186546325684,35.70556640625,-0.942138671875,0.3720703125,-0.5882568359375
7.591,482,2382,1308,1575,-9.0,34.0,14.0,8.11767578125,-9.94873046875,22.766111373901367,-0.94775390625,0.419921875,-0.3553466796875
7.627,485,2398,1387,1727,-9.0,34.0,14.0,8.11767578125,-9.94873046875,22.766111373901367,-1.1300048828125,0.427978515625,-0.4517822265625
7.627,495,2398,1367,1611,-9.0,34.0,14.0,13.793944358825684,-14.099120140075684,13.183592796325684,-1.1300048828125,0.427978515625,-0.4517822265625
7.627,497,2428,1416,1739,-9.0,34.0,14.0,2.0751953125,-7.446288585662842,-4.0283203125,-1.4263916015625,0.3282470703125,-0.53955078125
7.630,508,2461,1416,1739,-9.0,34.0,14.0,2.0751953125,-7.446288585662842,-4.0283203125,-1.430908203125,0.2337646484375,-0.39599609375
7.637,499,2424,1424,1761,-9.0,34.0,14.0,-10.437010765075684,-4.5166015625,-5.676269054412842,-1.430908203125,0.2337646484375,-0.39599609375
7.651,497,2424,1336,1615,-9.0,34.0,14.0,-10.070799827575684,-0.6103515625,0.6713866591453552,-1.2113037109375,0.20751953125,-0.291748046875
7.659,507,2412,1411,1757,-9.0,34.0,14.0,-10.070799827575684,-0.6103515625,0.6713866591453552,-1.001708984375,0.3138427734375,-0.4111328125
7.668,497,2400,1413,1750,-9.0,34.0,14.0,-0.3662109076976776,0.30517578125,2.624511480331421,-1.001708984375,0.3138427734375,-0.4111328125
7.681,496,2388,1336,1569,-8.0,34.0,20.0,9.27734375,-8.7890625,-7.934569835662842,-1.094482421875,0.4193115234375,-0.57763671875
7.689,497,2345,1422,1730,-8.0,34.0,20.0,9.27734375,-8.7890625,-7.934569835662842,-1.3284912109375,0.3414306640625,-0.4658203125
7.721,470,2587,1253,1650,-8.0,34.0,20.0,4.94384765625,-14.404295921325684,-15.136717796325684,-1.3284912109375,0.3414306640625,-0.4658203125
7.729,487,2275,1387,1656,-8.0,34.0,20.0,-10.070799827575684,-10.314940452575684,-12.939452171325684,-1.312744140625,0.203857421875,-0.1651611328125
7.729,485,2235,1377,1640,-8.0,34.0,20.0,-10.070799827575684,-10.314940452575684,-12.939452171325684,-1.191162109375,0.2412109375,-0.1639404296875
7.730,493,2295,1237,1488,-8.0,34.0,20.0,-9.765625,-1.7089842557907104,-8.056640625,-1.191162109375,0.2412109375,-0.1639404296875
7.743,470,2128,1267,1441,-8.0,34.0,20.0,-2.807616949081421,16.357421875,-4.94384765625,-1.07177734375,0.2847900390625,-0.3349609375
7.749,473,2058,1308,1555,-8.0,34.0,20.0,-2.807616949081421,16.357421875,-4.94384765625,-1.0426025390625,0.271240234375,-0.4110107421875
7.757,468,2014,1278,1521,-8.0,34.0,20.0,-0.54931640625,21.728513717651367,-7.324218273162842,-1.0426025390625,0.271240234375,-0.4110107421875
7.771,447,1918,1160,1344,-8.0,34.0,20.0,1.9531248807907104,22.399900436401367,-10.498045921325684,-0.947021484375,0.319580078125,-0.474853515625
7.780,438,1840,1170,1409,-8.0,36.0,15.0,2.624511480331421,19.04296875,-13.549803733825684,-0.947021484375,0.319580078125,-0.474853515625
7.787,427,1757,1134,1358,-8.0,36.0,15.0,0.1220703050494194,14.343260765075684,-17.51708984375,-0.90185546875,0.287109375,-0.4588623046875
7.813,411,1638,1017,1191,-8.0,36.0,15.0,-3.173827886581421,10.498045921325684,-23.010251998901367,-0.8006591796875,0.166259765625,-0.4110107421875
7.813,407,1602,958,1134,-8.0,36.0,15.0,-4.82177734375,8.11767578125,-27.465818405151367,-0.8006591796875,0.166259765625,-0.4110107421875
7.822,387,1440,963,1129,-8.0,36.0,15.0,-5.065917491912842,7.019042491912842,-28.808591842651367,-0.7369384765625,0.1900634765625,-0.42724609375
7.844,351,1239,816,946,-8.0,36.0,15.0,-5.371093273162842,7.080077648162842,-28.503416061401367,-0.6800537109375,0.2091064453125,-0.4146728515625
7.844,338,1108,793,818,-8.0,36.0,15.0,-7.141112804412842,6.713866710662842,-30.334470748901367,-0.6800537109375,0.2091064453125,-0.4146728515625
7.847,332,1014,761,882,-8.0,36.0,15.0,-10.070799827575684,3.356933355331421,-33.935546875,-0.7080078125,0.18408203125,-0.2457275390625
7.861,313,834,687,757,-8.0,36.0,15.0,-13.427733421325684,-3.417968511581421,-35.7666015625,-0.735107421875,0.1317138671875,0.0950927734375
7.869,302,767,684,757,-8.0,36.0,15.0,-13.488768577575684,-10.437010765075684,-36.19384765625,-0.735107421875,0.1317138671875,0.0950927734375
7.877,294,734,661,733,-9.0,34.0,23.0,-5.737304210662842,-13.183592796325684,-35.33935546875,-0.7244873046875,0.091552734375,0.0809326171875
7.891,292,731,628,695,-9.0,34.0,23.0,6.225585460662842,-10.803221702575684,-31.249998092651367,-0.7252197265625,0.12255859375,-0.1357421875
7.899,282,723,625,720,-9.0,34.0,23.0,15.075682640075684,-5.798339366912842,-24.780271530151367,-0.7252197265625,0.12255859375,-0.1357421875
7.925,289,729,617,698,-9.0,34.0,23.0,18.1884765625,-0.1220703050494194,-18.00537109375,-0.743896484375,0.1170654296875,-0.22705078125
7.925,286,777,614,735,-9.0,34.0,23.0,15.930174827575684,5.126952648162842,-12.207030296325684,-0.71240234375,0.0445556640625,-0.2703857421875
7.931,292,815,631,755,-9.0,34.0,23.0,10.803221702575684,8.36181640625,-7.263183116912842,-0.71240234375,0.0445556640625,-0.2703857421875
7.952,298,867,660,800,-9.0,34.0,23.0,6.835937023162842,8.7890625,-2.13623046875,-0.7001953125,0.04248046875,-0.261962890625
7.952,310,1000,660,813,-9.0,34.0,23.0,6.347655773162842,6.530761241912842,2.868652105331421,-0.7633056640625,0.133544921875,-0.3116455078125
7.959,318,1078,696,894,-9.0,34.0,23.0,8.6669921875,2.624511480331421,6.347655773162842,-0.7633056640625,0.133544921875,-0.3116455078125
7.967,317,1132,710,932,-9.0,34.0,23.0,12.451170921325684,-1.220703125,7.873534679412842,-0.8009033203125,0.1474609375,-0.34326171875
7.981,328,1268,713,942,-8.0,32.0,16.0,14.953612327575684,-3.967284917831421,8.7890625,-0.8123779296875,0.10205078125,-0.325927734375
7.989,337,1346,780,1050,-8.0,32.0,16.0,14.526366233825684,-6.164550304412842,10.864256858825684,-0.8123779296875,0.10205078125,-0.325927734375
7.997,348,1411,813,1078,-8.0,32.0,16.0,12.695311546325684,-8.1787109375,14.892577171325684,-0.7979736328125,0.1011962890625,-0.3040771484375
8.027,369,1543,867,1067,-8.0,32.0,16.0,8.97216796875,-9.58251953125,19.34814453125,-0.7655029296875,0.1253662109375,-0.2830810546875
8.027,382,1785,958,1243,-8.0,32.0,16.0,1.220703125,-9.3994140625,22.644041061401367,-0.7401123046875,0.155029296875,-0.2572021484375
8.030,400,1709,934,1251,-8.0,32.0,16.0,-9.765625,-8.23974609375,24.597166061401367,-0.712158203125,0.1845703125,-0.2010498046875
8.048,404,1796,1004,1220,-8.0,32.0,16.0,-20.01953125,-7.263183116912842,25.512693405151367,-0.67822265625,0.1741943359375,-0.1409912109375
8.056,418,1840,1097,1380,-8.0,32.0,16.0,-23.376462936401367,-6.835937023162842,25.817869186401367,-0.664306640625,0.1260986328125,-0.102783203125
8.057,428,1882,1143,1424,-8.0,32.0,16.0,-18.00537109375,-6.896972179412842,25.939939498901367,-0.6744384765625,0.069091796875,-0.07568359375
8.071,433,2056,1182,1348,-7.0,33.0,16.0,-7.812499523162842,-7.629394054412842,26.000974655151367,-0.7073974609375,0.033447265625,-0.07666015625
8.079,437,2139,1268,1523,-7.0,33.0,16.0,4.94384765625,-10.070799827575684,27.038572311401367,-0.7545166015625,0.05224609375,-0.10205078125
8.087,455,2190,1303,1575,-7.0,33.0,16.0,18.73779296875,-13.977049827575684,30.273435592651367,-0.8382568359375,0.1434326171875,-0.2032470703125
8.101,465,2268,1251,1501,-7.0,33.0,16.0,30.212400436401367,-13.977049827575684,35.64453125,-0.957763671875,0.2960205078125,-0.4696044921875
8.136,468,2314,1331,1659,-7.0,33.0,16.0,32.65380859375,-8.9111328125,39.73388671875,-1.05029296875,0.417236328125,-0.6990966796875
8.137,479,2432,1615,1666,-7.0,33.0,16.0,22.705076217651367,-5.371093273162842,37.59765625,-1.0513916015625,0.4620361328125,-0.650634765625
8.137,479,2418,1386,1705,-7.0,33.0,16.0,7.568358898162842,-6.774901866912842,29.418943405151367,-1.02490234375,0.4288330078125,-0.41943359375
8.139,490,2484,1357,1705,-7.0,33.0,16.0,0.2441406100988388,-9.82666015625,19.22607421875,-1.083251953125,0.39404296875,-0.292236328125
8.147,484,2430,1397,1744,-7.0,33.0,16.0,4.5166015625,-11.413573265075684,10.375975608825684,-1.214111328125,0.4261474609375,-0.3763427734375
8.161,490,2440,1331,1611,-7.0,33.0,16.0,11.840819358825684,-11.291502952575684,3.234863042831421,-1.3408203125,0.439697265625,-0.5244140625
8.169,487,2464,1411,1757,-10.0,33.0,16.0,13.000487327575684,-10.375975608825684,-2.44140625,-1.3857421875,0.3621826171875,-0.5382080078125
8.177,490,2456,1419,1769,-10.0,33.0,16.0,7.507323741912842,-9.33837890625,-5.065917491912842,-1.345947265625,0.2386474609375,-0.3709716796875
8.191,487,2469,1318,1616,-10.0,33.0,16.0,1.7700194120407104,-6.958007335662842,-4.21142578125,-1.2911376953125,0.17431640625,-0.21044921875
8.199,486,2464,1386,1761,-10.0,33.0,16.0,0.0,-1.5258787870407104,-2.38037109375,-1.185302734375,0.1800537109375,-0.1910400390625
8.232,487,2444,1382,1759,-10.0,33.0,16.0,1.5869139432907104,4.94384765625,-2.746581792831421,-1.02783203125,0.243408203125,-0.305908203125
8.232,488,2428,1323,1604,-10.0,33.0,16.0,2.44140625,8.6669921875,-6.042479991912842,-0.9912109375,0.33642578125,-0.4654541015625
8.232,493,2381,1393,1745,-10.0,33.0,16.0,0.0610351525247097,7.873534679412842,-11.413573265075684,-1.16455078125,0.3795166015625,-0.542236328125
8.237,496,2386,1390,1715,-10.0,33.0,16.0,-4.57763671875,4.39453125,-16.357421875,-1.3795166015625,0.3223876953125,-0.4813232421875
8.251,484,2292,1308,1569,-10.0,33.0,16.0,-10.314940452575684,2.13623046875,-17.39501953125,-1.4132080078125,0.2108154296875,-0.3221435546875
8.261,487,2261,1366,1686,-10.0,33.0,16.0,-13.488768577575684,3.601073980331421,-13.977049827575684,-1.284912109375,0.1690673828125,-0.1983642578125
8.267,481,2225,1334,1659,-9.0,32.0,15.0,-11.535643577575684,8.544921875,-9.1552734375,-1.1431884765625,0.2252197265625,-0.2098388671875
8.282,466,2155,1229,1480,-9.0,32.0,15.0,-6.896972179412842,14.465331077575684,-6.530761241912842,-1.073974609375,0.27734375,-0.3138427734375
8.289,465,2108,1263,1580,-9.0,32.0,15.0,-2.44140625,18.49365234375,-7.080077648162842,-1.0704345703125,0.280029296875,-0.4464111328125
8.297,454,2060,1237,1545,-9.0,32.0,15.0,1.5869139432907104,18.49365234375,-9.521484375,-1.0692138671875,0.2718505859375,-0.5357666015625
8.323,439,1968,1112,1306,-9.0,32.0,15.0,3.723144292831421,14.526366233825684,-12.023924827575684,-1.034912109375,0.2772216796875,-0.5361328125
8.323,439,1927,1109,1429,-9.0,32.0,15.0,1.8310545682907104,8.85009765625,-13.732909202575684,-0.983154296875,0.2689208984375,-0.473876953125
8.334,424,1882,1074,1343,-9.0,32.0,15.0,-2.746581792831421,4.08935546875,-16.05224609375,-0.9410400390625,0.2142333984375,-0.4014892578125
8.347,401,1711,1029,1303,-9.0,32.0,15.0,-5.859374523162842,1.3427733182907104,-19.53125,-0.8922119140625,0.1568603515625,-0.360107421875
8.349,390,1709,884,1157,-9.0,32.0,15.0,-6.652831554412842,0.7324218153953552,-22.521970748901367,-0.8297119140625,0.14697265625,-0.3663330078125
8.357,371,1516,906,1173,-9.0,32.0,15.0,-7.385253429412842,2.0751953125,-23.620603561401367,-0.775634765625,0.1922607421875,-0.421875
8.371,338,1323,751,974,-8.0,32.0,19.0,-10.009765625,4.45556640625,-24.475095748901367,-0.7298583984375,0.2130126953125,-0.46923828125
8.379,328,1160,744,952,-8.0,32.0,19.0,-14.221190452575684,5.310058116912842,-27.770994186401367,-0.72705078125,0.17236328125,-0.4150390625
8.394,316,1018,720,887,-8.0,32.0,19.0,-18.98193359375,1.8920897245407104,-31.433103561401367,-0.753173828125,0.1641845703125,-0.230712890625
8.401,292,766,620,711,-8.0,32.0,19.0,-24.291990280151367,-5.676269054412842,-33.26416015625,-0.7545166015625,0.1500244140625,0.00048828125
8.409,279,702,584,694,-8.0,32.0,19.0,-23.864744186401367,-12.695311546325684,-33.50830078125,-0.73779296875,0.108154296875,0.1136474609375
8.419,272,656,571,669,-8.0,32.0,19.0,-13.000487327575684,-14.343260765075684,-30.944822311401367,-0.732421875,0.1168212890625,0.0565185546875
8.437,267,600,543,620,-8.0,32.0,19.0,0.3662109076976776,-11.413573265075684,-25.512693405151367,-0.75,0.1510009765625,-0.0770263671875
8.440,263,567,532,614,-8.0,32.0,19.0,7.690429210662842,-6.408690929412842,-19.22607421875,-0.770263671875,0.1710205078125,-0.21337890625
8.448,263,547,562,618,-8.0,32.0,19.0,6.958007335662842,-1.3427733182907104,-13.977049827575684,-0.763427734375,0.148193359375,-0.2962646484375
8.463,265,564,546,603,-8.0,32.0,19.0,-0.1220703050494194,1.7089842557907104,-9.765625,-0.7254638671875,0.08203125,-0.2999267578125
8.479,266,591,553,631,-7.0,33.0,17.0,-7.263183116912842,1.7700194120407104,-4.638671875,-0.6787109375,0.018798828125,-0.25634765625
8.480,267,613,523,638,-7.0,33.0,17.0,-7.263183116912842,1.7700194120407104,-4.638671875,-0.648193359375,0.00390625,-0.2119140625
8.491,268,687,536,644,-7.0,33.0,17.0,-2.25830078125,-2.929687261581421,6.347655773162842,-0.6552734375,0.036865234375,-0.2008056640625
8.499,274,738,562,702,-7.0,33.0,17.0,7.995604991912842,-6.530761241912842,10.009765625,-0.68603515625,0.092041015625,-0.2154541015625
8.507,279,815,590,744,-7.0,33.0,17.0,7.995604991912842,-6.530761241912842,10.009765625,-0.7076416015625,0.13427734375,-0.2315673828125
8.540,302,998,625,806,-7.0,33.0,17.0,28.991697311401367,-12.939452171325684,14.099120140075684,-0.7152099609375,0.1427001953125,-0.25439453125
8.543,310,1122,668,917,-7.0,33.0,17.0,34.7900390625,-13.671874046325684,15.808104515075684,-0.7218017578125,0.13818359375,-0.2860107421875
8.543,322,1260,679,969,-7.0,33.0,17.0,34.7900390625,-13.671874046325684,15.808104515075684,-0.741943359375,0.11474609375,-0.31103515625
8.551,332,1454,713,1004,-7.0,33.0,17.0,25.695798873901367,-13.610838890075684,22.705076217651367,-0.7686767578125,0.089111328125,-0.3284912109375
8.559,355,1534,803,1131,-7.0,33.0,17.0,15.563963890075684,-15.014647483825684,28.747556686401367,-0.763916015625,0.1197509765625,-0.3341064453125
8.567,359,1616,844,1182,-9.0,30.0,15.0,15.563963890075684,-15.014647483825684,28.747556686401367,-0.73974609375,0.1815185546875,-0.3211669921875
8.581,371,1806,888,1143,-9.0,30.0,15.0,-2.197265625,-19.83642578125,35.82763671875,-0.73681640625,0.23779296875,-0.27099609375
8.589,378,1874,996,1278,-9.0,30.0,15.0,-9.3994140625,-21.789548873901367,32.8369140625,-0.7508544921875,0.2310791015625,-0.1749267578125
8.597,387,1967,1034,1313,-9.0,30.0,15.0,-9.3994140625,-21.789548873901367,32.8369140625,-0.7769775390625,0.126953125,-0.1021728515625
