time,compression0,compression1,compression2,compression3,magn_x,magn_y,magn_z,gyro_x,gyro_y,gyro_z,accel_x,accel_y,accel_z
0.014,486,490,617,620,-2.0,44.0,22.0,11.840819358825684,-13.610838890075684,-1.4038084745407104,-0.6785888671875,0.5533447265625,0.0531005859375
0.022,484,491,619,627,-2.0,44.0,22.0,10.375975608825684,-13.488768577575684,-0.3662109076976776,-0.700927734375,0.57177734375,0.0411376953125
0.029,481,488,620,628,-2.0,44.0,22.0,8.7890625,-13.610838890075684,0.4882812201976776,-0.7279052734375,0.595458984375,0.0343017578125
0.038,483,488,628,631,-2.0,44.0,22.0,8.7890625,-13.610838890075684,0.4882812201976776,-0.749267578125,0.60546875,0.0335693359375
0.051,497,502,627,631,-2.0,44.0,22.0,4.8828125,-15.136717796325684,1.8920897245407104,-0.7596435546875,0.6004638671875,0.0367431640625
0.059,504,509,629,632,-3.0,41.0,17.0,3.540038824081421,-16.17431640625,2.624511480331421,-0.755859375,0.581298828125,0.0458984375
0.093,509,518,633,638,-3.0,41.0,17.0,3.540038824081421,-16.17431640625,2.624511480331421,-0.7327880859375,0.5469970703125,0.0606689453125
0.093,532,538,636,625,-3.0,41.0,17.0,4.94384765625,-19.287109375,3.601073980331421,-0.689208984375,0.506591796875,0.076171875
0.093,548,556,632,640,-3.0,41.0,17.0,7.812499523162842,-20.385740280151367,2.50244140625,-0.6434326171875,0.4798583984375,0.0767822265625
0.099,582,589,636,643,-3.0,41.0,17.0,7.812499523162842,-20.385740280151367,2.50244140625,-0.605224609375,0.4727783203125,0.053466796875
0.111,657,671,640,647,-3.0,41.0,17.0,12.329100608825684,-22.521970748901367,-2.685546636581421,-0.5753173828125,0.473388671875,0.0281982421875
0.124,702,724,643,653,-3.0,41.0,17.0,11.779784202575684,-25.329587936401367,-5.676269054412842,-0.5546875,0.4886474609375,0.0205078125
0.127,775,796,640,650,-3.0,41.0,17.0,11.779784202575684,-25.329587936401367,-5.676269054412842,-0.51806640625,0.5115966796875,0.025390625
0.141,901,936,652,666,-3.0,41.0,17.0,13.183592796325684,-32.8369140625,-12.573241233825684,-0.4407958984375,0.5020751953125,0.0584716796875
0.149,976,1024,645,654,-3.0,41.0,17.0,13.916014671325684,-34.912109375,-18.61572265625,-0.31298828125,0.4559326171875,0.1263427734375
0.157,1059,1114,643,654,-1.0,38.0,29.0,13.916014671325684,-34.912109375,-18.61572265625,-0.179931640625,0.403564453125,0.1661376953125
0.198,1234,1315,607,619,-1.0,38.0,29.0,12.390135765075684,-29.968259811401367,-42.114253997802734,-0.1219482421875,0.4205322265625,0.1771240234375
0.199,1328,1416,612,631,-1.0,38.0,29.0,-0.3662109076976776,-27.648923873901367,-57.556148529052734,-0.1243896484375,0.434326171875,0.23046875
0.199,1397,1499,605,630,-1.0,38.0,29.0,-0.3662109076976776,-27.648923873901367,-57.556148529052734,-0.20556640625,0.364013671875,0.232177734375
0.202,1512,1640,619,642,-1.0,38.0,29.0,-24.719236373901367,-25.207517623901367,-81.17675018310547,-0.404541015625,0.389404296875,0.1236572265625
0.209,1557,1691,660,684,-1.0,38.0,29.0,-14.160155296325684,-26.184080123901367,-80.38329315185547,-0.7095947265625,0.6539306640625,0.0726318359375
0.218,1591,1742,711,726,-1.0,38.0,29.0,-14.160155296325684,-26.184080123901367,-80.38329315185547,-0.7095947265625,0.6539306640625,0.0726318359375
0.238,1622,1785,750,780,-1.0,38.0,29.0,-8.544921875,-37.9638671875,-61.645503997802734,-1.7379150390625,1.2750244140625,0.028076171875
0.239,1620,1788,772,805,-1.0,38.0,29.0,-8.544921875,-37.9638671875,-61.645503997802734,-2.219970703125,1.1729736328125,-0.0875244140625
0.248,1641,1807,777,810,-1.0,38.0,29.0,-24.475095748901367,-39.97802734375,-46.325679779052734,-2.219970703125,1.1729736328125,-0.0875244140625
0.261,1660,1833,815,853,3.0,37.0,25.0,-49.377437591552734,-33.8134765625,-0.6103515625,-1.7109375,0.029541015625,0.1181640625
0.269,1662,1830,809,848,3.0,37.0,25.0,-49.377437591552734,-33.8134765625,-0.6103515625,-1.091796875,-0.1246337890625,0.3482666015625
0.302,1648,1818,801,834,3.0,37.0,25.0,-35.09521484375,-27.221677780151367,7.873534679412842,-1.091796875,-0.1246337890625,0.3482666015625
0.302,1629,1792,799,833,3.0,37.0,25.0,23.010251998901367,-4.21142578125,1.15966796875,-0.7047119140625,0.979736328125,0.401611328125
0.302,1615,1775,787,822,3.0,37.0,25.0,23.010251998901367,-4.21142578125,1.15966796875,-0.9366455078125,1.2745361328125,0.2213134765625
0.308,1591,1742,772,803,3.0,37.0,25.0,29.174802780151367,10.681151390075684,-5.493163585662842,-0.9366455078125,1.2745361328125,0.2213134765625
0.321,1509,1641,747,774,3.0,37.0,25.0,1.15966796875,17.02880859375,-9.09423828125,-1.653076171875,1.28173828125,0.0692138671875
0.329,1440,1559,726,754,3.0,37.0,25.0,1.15966796875,17.02880859375,-9.09423828125,-1.669677734375,1.00439453125,0.1005859375
0.337,1353,1452,707,728,3.0,37.0,25.0,-14.892577171325684,11.535643577575684,-2.44140625,-1.669677734375,1.00439453125,0.1005859375
0.351,1215,1292,698,718,3.0,37.0,25.0,-11.779784202575684,3.784179449081421,13.244627952575684,-1.1510009765625,0.4381103515625,0.2325439453125
0.359,1131,1194,696,710,1.0,38.0,22.0,-11.779784202575684,3.784179449081421,13.244627952575684,-0.817626953125,0.137451171875,0.218994140625
0.367,1018,1070,687,705,1.0,38.0,22.0,-3.051757574081421,8.23974609375,14.038084983825684,-0.817626953125,0.137451171875,0.218994140625
0.403,904,939,683,697,1.0,38.0,22.0,23.010251998901367,27.099607467651367,2.746581792831421,-0.4093017578125,-0.157470703125,0.0662841796875
0.403,846,873,664,675,1.0,38.0,22.0,23.010251998901367,27.099607467651367,2.746581792831421,-0.37255859375,-0.07568359375,0.056640625
0.403,767,788,661,668,1.0,38.0,22.0,33.02001953125,33.3251953125,-6.958007335662842,-0.37255859375,-0.07568359375,0.056640625
0.412,683,692,628,636,1.0,38.0,22.0,32.958984375,35.0341796875,-25.024412155151367,-0.419677734375,0.4306640625,0.042236328125
0.419,644,661,629,633,1.0,38.0,22.0,32.958984375,35.0341796875,-25.024412155151367,-0.3885498046875,0.6185302734375,0.0443115234375
0.432,617,629,627,633,1.0,38.0,22.0,27.526853561401367,32.77587890625,-29.113767623901367,-0.3885498046875,0.6185302734375,0.0443115234375
0.476,599,603,614,619,1.0,38.0,22.0,7.995604991912842,24.414060592651367,-18.37158203125,-0.5054931640625,0.7841796875,0.00048828125
0.487,590,601,613,619,1.0,38.0,22.0,7.995604991912842,24.414060592651367,-18.37158203125,-0.5391845703125,0.616455078125,-0.005859375
0.496,603,614,596,603,2.0,42.0,26.0,-3.967284917831421,16.4794921875,-14.404295921325684,-0.5391845703125,0.616455078125,-0.005859375
0.496,616,604,571,575,2.0,42.0,26.0,-14.587401390075684,1.7089842557907104,-15.563963890075684,-0.6416015625,0.358642578125,0.0264892578125
0.496,625,636,593,586,2.0,42.0,26.0,-14.587401390075684,1.7089842557907104,-15.563963890075684,-0.7120361328125,0.36376953125,0.089111328125
0.496,629,638,591,600,2.0,42.0,26.0,-10.498045921325684,-6.652831554412842,-15.075682640075684,-0.7120361328125,0.36376953125,0.089111328125
0.518,643,658,589,593,2.0,42.0,26.0,-8.48388671875,-18.49365234375,-8.1787109375,-0.776123046875,0.33837890625,0.128662109375
0.518,650,666,593,599,2.0,42.0,26.0,-8.48388671875,-18.49365234375,-8.1787109375,-0.752685546875,0.3021240234375,0.121826171875
0.532,669,684,599,603,2.0,42.0,26.0,-7.629394054412842,-20.263669967651367,-2.685546636581421,-0.752685546875,0.3021240234375,0.121826171875
0.532,722,739,607,616,2.0,42.0,26.0,-3.845214605331421,-21.301267623901367,11.047362327575684,-0.6214599609375,0.2420654296875,0.1124267578125
0.539,780,809,618,629,2.0,42.0,26.0,-3.845214605331421,-21.301267623901367,11.047362327575684,-0.5272216796875,0.2322998046875,0.1104736328125
0.547,868,907,614,628,2.0,42.0,26.0,-3.540038824081421,-21.728513717651367,16.17431640625,-0.5272216796875,0.2322998046875,0.1104736328125
0.561,1021,1076,630,644,0.0,39.0,27.0,-2.746581792831421,-21.118162155151367,14.770506858825684,-0.206787109375,0.2882080078125,0.1241455078125
0.575,1129,1198,619,631,0.0,39.0,27.0,-2.746581792831421,-21.118162155151367,14.770506858825684,-0.0570068359375,0.3465576171875,0.15234375
0.601,1228,1305,600,616,0.0,39.0,27.0,-0.7934569716453552,-19.34814453125,5.676269054412842,-0.0570068359375,0.3465576171875,0.15234375
0.602,311,1504,609,311,0.0,39.0,27.0,-4.33349609375,-17.27294921875,-31.066892623901367,0.1712646484375,0.3656005859375,0.208984375
0.602,309,1624,629,311,0.0,39.0,27.0,-4.33349609375,-17.27294921875,-31.066892623901367,0.21435546875,0.2476806640625,0.1778564453125
0.607,311,1697,691,310,0.0,39.0,27.0,-9.46044921875,-19.287109375,-58.471675872802734,0.21435546875,0.2476806640625,0.1778564453125
0.621,311,1785,837,311,0.0,39.0,27.0,-10.559081077575684,-25.390623092651367,-85.57128143310547,-0.6134033203125,0.6497802734375,0.212890625
0.630,311,1803,922,311,0.0,39.0,27.0,-10.559081077575684,-25.390623092651367,-85.57128143310547,-1.5233154296875,1.0546875,0.306884765625
0.637,307,1805,985,311,0.0,39.0,27.0,-28.198240280151367,-26.733396530151367,-80.13916015625,-1.5233154296875,1.0546875,0.306884765625
0.651,310,1808,1053,311,5.0,39.0,27.0,-81.54296112060547,-28.015134811401367,-53.100582122802734,-3.0802001953125,0.599609375,0.16845703125
0.659,311,1844,1047,311,5.0,39.0,27.0,-81.54296112060547,-28.015134811401367,-53.100582122802734,-2.798828125,-0.0264892578125,0.0828857421875
0.667,311,1873,1059,311,5.0,39.0,27.0,-86.30370330810547,-22.888181686401367,-14.831542015075684,-2.798828125,-0.0264892578125,0.0828857421875
0.706,311,1864,1043,309,5.0,39.0,27.0,10.192870140075684,-0.6103515625,39.00146484375,-0.8983154296875,0.146484375,0.330322265625
0.707,310,1860,1034,311,5.0,39.0,27.0,10.192870140075684,-0.6103515625,39.00146484375,-0.76611328125,1.0643310546875,0.3546142578125
0.707,311,1848,969,295,5.0,39.0,27.0,50.476070404052734,9.33837890625,35.2783203125,-0.76611328125,1.0643310546875,0.3546142578125
0.712,311,1772,883,310,5.0,39.0,27.0,45.104976654052734,16.17431640625,23.376462936401367,-1.64111328125,1.7755126953125,0.0780029296875
0.723,311,1700,846,311,5.0,39.0,27.0,14.038084983825684,17.578125,12.817381858825684,-1.64111328125,1.7755126953125,0.0780029296875
0.727,307,1642,780,311,5.0,39.0,27.0,-17.578125,13.366698265075684,9.033203125,-1.86376953125,1.3795166015625,0.094482421875
0.742,310,1497,718,311,5.0,39.0,27.0,-37.9638671875,7.873534679412842,13.916014671325684,-1.5303955078125,0.271240234375,0.3729248046875
0.749,311,1377,721,310,2.0,37.0,26.0,-39.306640625,3.967284917831421,26.184080123901367,-1.5303955078125,0.271240234375,0.3729248046875
0.757,310,1287,711,310,2.0,37.0,26.0,-28.137205123901367,2.807616949081421,38.63525390625,-1.1490478515625,0.146484375,0.4615478515625
0.771,310,1104,689,311,2.0,37.0,26.0,-12.573241233825684,6.774901866912842,37.90283203125,-0.3641357421875,-0.1610107421875,0.2540283203125
0.782,310,1010,682,310,2.0,37.0,26.0,12.390135765075684,16.4794921875,20.263669967651367,-0.3641357421875,-0.1610107421875,0.2540283203125
0.809,311,951,659,311,2.0,37.0,26.0,42.114253997802734,27.221677780151367,-2.197265625,-0.25439453125,-0.198974609375,0.046142578125
0.809,309,794,605,310,2.0,37.0,26.0,61.950679779052734,34.97314453125,-18.4326171875,-0.34228515625,0.1724853515625,-0.171630859375
0.810,309,725,617,308,2.0,37.0,26.0,64.39208984375,39.306640625,-25.573728561401367,-0.34228515625,0.1724853515625,-0.171630859375
0.817,310,700,614,309,2.0,37.0,26.0,52.612300872802734,41.687007904052734,-26.550291061401367,-0.311279296875,0.3797607421875,-0.21826171875
0.832,309,644,570,310,2.0,37.0,26.0,36.31591796875,41.931148529052734,-21.057126998901367,-0.4898681640625,0.8970947265625,-0.1488037109375
0.840,309,627,533,310,2.0,37.0,26.0,19.287109375,36.2548828125,-7.324218273162842,-0.4898681640625,0.8970947265625,-0.1488037109375
0.847,310,643,525,310,2.0,38.0,24.0,-5.249022960662842,23.742673873901367,3.601073980331421,-0.5155029296875,0.7979736328125,-0.01953125
0.861,309,654,540,311,2.0,38.0,24.0,-31.799314498901367,10.742186546325684,2.3193359375,-0.489501953125,0.220947265625,0.1370849609375
0.870,308,664,537,311,2.0,38.0,24.0,-42.907711029052734,2.563476324081421,-1.6479490995407104,-0.489501953125,0.220947265625,0.1370849609375
0.877,310,673,536,311,2.0,38.0,24.0,-37.7197265625,-2.807616949081421,0.7934569716453552,-0.583251953125,0.209228515625,0.17236328125
0.895,309,689,533,309,2.0,38.0,24.0,-28.015134811401367,-7.202147960662842,7.568358898162842,-0.7452392578125,0.3001708984375,0.2176513671875
0.916,309,696,540,311,2.0,38.0,24.0,-21.545408248901367,-10.253905296325684,15.991209983825684,-0.7452392578125,0.3001708984375,0.2176513671875
0.916,310,713,527,297,2.0,38.0,24.0,-20.568845748901367,-13.122557640075684,23.193357467651367,-0.7301025390625,0.2735595703125,0.2569580078125
0.921,309,801,557,310,2.0,38.0,24.0,-20.690916061401367,-15.624999046325684,27.526853561401367,-0.6094970703125,0.18701171875,0.2066650390625
0.937,309,873,582,310,2.0,38.0,24.0,-16.41845703125,-16.2353515625,30.517576217651367,-0.6094970703125,0.18701171875,0.2066650390625
0.938,307,955,609,296,2.0,38.0,24.0,-7.934569835662842,-16.29638671875,33.447265625,-0.53564453125,0.2364501953125,0.1434326171875
0.952,311,1130,643,310,3.0,39.0,22.0,-0.4882812201976776,-17.27294921875,34.24072265625,-0.275390625,0.328369140625,0.1224365234375
0.959,310,1234,640,311,3.0,39.0,22.0,4.82177734375,-17.76123046875,29.846189498901367,-0.275390625,0.328369140625,0.1224365234375
0.967,310,1335,627,311,3.0,39.0,22.0,7.873534679412842,-16.90673828125,19.95849609375,-0.155029296875,0.36865234375,0.1353759765625
0.981,310,1513,639,309,3.0,39.0,22.0,1.03759765625,-19.04296875,4.7607421875,0.2427978515625,0.20947265625,0.177001953125
0.994,310,1628,654,311,3.0,39.0,22.0,-14.587401390075684,-23.620603561401367,-18.798828125,0.2427978515625,0.20947265625,0.177001953125
1.010,310,1723,725,310,3.0,39.0,22.0,-20.874021530151367,-26.306150436401367,-46.508785247802734,0.209228515625,0.1468505859375,0.1802978515625
1.011,297,1833,907,309,3.0,39.0,22.0,-14.953612327575684,-28.747556686401367,-68.29833984375,-0.7900390625,0.5076904296875,0.2728271484375
1.019,310,1861,958,309,3.0,39.0,22.0,-8.6669921875,-30.212400436401367,-78.369140625,-0.7900390625,0.5076904296875,0.2728271484375
1.029,311,1884,1029,311,3.0,39.0,22.0,-3.417968511581421,-29.113767623901367,-73.66943359375,-1.8125,0.960693359375,0.1429443359375
1.041,310,1931,1088,311,5.0,37.0,24.0,-2.990722417831421,-26.367185592651367,-56.762691497802734,-2.9874267578125,0.9144287109375,-0.083251953125
1.049,310,1952,1050,311,5.0,37.0,24.0,-17.02880859375,-25.817869186401367,-31.921384811401367,-2.9874267578125,0.9144287109375,-0.083251953125
1.057,310,1960,1047,311,5.0,37.0,24.0,-34.912109375,-29.052732467651367,-3.479003667831421,-2.5902099609375,0.480712890625,0.166748046875
1.071,310,1943,1024,311,5.0,37.0,24.0,-31.860349655151367,-26.916501998901367,18.61572265625,-0.911376953125,0.282958984375,0.654052734375
1.080,311,1927,1034,311,5.0,37.0,24.0,3.295898199081421,-13.366698265075684,26.306150436401367,-0.911376953125,0.282958984375,0.654052734375
1.089,311,1900,992,311,5.0,37.0,24.0,45.593257904052734,2.44140625,20.141599655151367,-0.9608154296875,1.100830078125,0.5208740234375
1.114,309,1798,904,311,5.0,37.0,24.0,56.335445404052734,11.962889671325684,7.263183116912842,-1.9156494140625,1.768310546875,0.114990234375
1.114,311,1715,844,310,5.0,37.0,24.0,33.447265625,13.122557640075684,-4.150390625,-1.9156494140625,1.768310546875,0.114990234375
1.120,310,1629,814,310,5.0,37.0,24.0,4.7607421875,5.676269054412842,-8.544921875,-1.947998046875,1.159912109375,0.1690673828125
1.137,310,1469,758,311,5.0,37.0,24.0,-8.4228515625,-4.0283203125,-3.784179449081421,-1.234375,0.1181640625,0.39404296875
1.139,310,1369,740,311,5.0,37.0,29.0,-4.33349609375,-8.48388671875,7.629394054412842,-1.234375,0.1181640625,0.39404296875
1.156,311,1263,723,310,5.0,37.0,29.0,10.375975608825684,-6.408690929412842,16.17431640625,-0.76904296875,0.00146484375,0.3782958984375
1.161,309,1117,705,311,5.0,37.0,29.0,29.296873092651367,1.2817381620407104,13.061522483825684,-0.186279296875,-0.1304931640625,0.0858154296875
1.170,311,1064,693,311,5.0,37.0,29.0,46.447750091552734,13.427733421325684,0.7324218153953552,-0.186279296875,-0.1304931640625,0.0858154296875
1.177,309,996,658,311,5.0,37.0,29.0,55.236812591552734,27.282712936401367,-13.000487327575684,-0.185791015625,-0.0743408203125,-0.099853515625
1.191,311,883,636,310,5.0,37.0,29.0,53.283687591552734,39.48974609375,-22.827146530151367,-0.3687744140625,0.2149658203125,-0.2061767578125
1.214,311,835,630,310,5.0,37.0,29.0,41.992183685302734,45.288082122802734,-27.404783248901367,-0.3687744140625,0.2149658203125,-0.2061767578125
1.215,310,803,619,311,5.0,37.0,29.0,25.207517623901367,43.151851654052734,-28.503416061401367,-0.4365234375,0.36767578125,-0.1671142578125
1.222,310,765,607,310,5.0,37.0,29.0,8.544921875,36.19384765625,-23.925779342651367,-0.5078125,0.5438232421875,-0.134521484375
1.229,309,740,603,309,5.0,37.0,29.0,-6.286620616912842,25.207517623901367,-10.253905296325684,-0.5244140625,0.67724609375,-0.058349609375
1.237,310,751,605,310,4.0,35.0,23.0,-22.094724655151367,12.145995140075684,2.50244140625,-0.4715576171875,0.5665283203125,0.058837890625
1.259,309,779,616,311,4.0,35.0,23.0,-34.24072265625,1.8920897245407104,5.065917491912842,-0.44970703125,0.3475341796875,0.1649169921875
1.259,311,777,589,294,4.0,35.0,23.0,-35.94970703125,-5.249022960662842,2.868652105331421,-0.508056640625,0.226318359375,0.246337890625
1.269,309,793,625,310,4.0,35.0,23.0,-31.188962936401367,-10.864256858825684,2.3193359375,-0.594482421875,0.2081298828125,0.2850341796875
1.281,310,842,638,309,4.0,35.0,23.0,-25.939939498901367,-13.061522483825684,5.432128429412842,-0.653076171875,0.2393798828125,0.2786865234375
1.289,311,861,650,310,4.0,35.0,23.0,-22.094724655151367,-12.695311546325684,10.742186546325684,-0.679931640625,0.2586669921875,0.274658203125
1.316,309,898,659,311,4.0,35.0,23.0,-19.4091796875,-12.451170921325684,15.624999046325684,-0.7156982421875,0.2772216796875,0.249755859375
1.316,296,966,692,310,4.0,35.0,23.0,-16.357421875,-12.512206077575684,20.385740280151367,-0.7572021484375,0.301513671875,0.1739501953125
1.319,311,1034,696,311,4.0,35.0,23.0,-12.268065452575684,-12.634276390075684,26.428220748901367,-0.7664794921875,0.3052978515625,0.0841064453125
1.327,309,1101,705,311,4.0,35.0,23.0,-6.652831554412842,-13.427733421325684,33.02001953125,-0.723388671875,0.305419921875,0.04296875
1.341,310,1239,708,311,1.0,37.0,29.0,-0.1220703050494194,-15.441893577575684,35.7666015625,-0.57958984375,0.291259765625,0.075439453125
1.349,310,1320,684,310,1.0,37.0,29.0,3.417968511581421,-18.798828125,29.296873092651367,-0.35498046875,0.2630615234375,0.1109619140625
1.369,311,1409,698,311,1.0,37.0,29.0,2.990722417831421,-23.498533248901367,14.953612327575684,-0.1270751953125,0.2501220703125,0.115478515625
1.371,311,1560,767,311,1.0,37.0,29.0,4.150390625,-29.357908248901367,-2.38037109375,0.0645751953125,0.25439453125,0.122802734375
1.380,307,1655,818,311,1.0,37.0,29.0,8.97216796875,-34.66796875,-20.874021530151367,0.141357421875,0.2774658203125,0.1529541015625
1.387,309,1735,886,310,1.0,37.0,29.0,14.831542015075684,-37.2314453125,-39.55078125,0.03466796875,0.40087890625,0.217041015625
1.420,311,1818,1018,311,1.0,37.0,29.0,15.014647483825684,-36.07177734375,-56.396480560302734,-0.2752685546875,0.654541015625,0.3475341796875
1.420,310,1820,1074,311,1.0,37.0,29.0,1.9531248807907104,-32.3486328125,-68.17626953125,-0.8472900390625,0.9132080078125,0.5474853515625
1.420,311,1805,1130,293,1.0,37.0,29.0,-19.83642578125,-29.052732467651367,-73.3642578125,-1.7044677734375,0.979736328125,0.6429443359375
1.432,310,1825,1195,310,1.0,37.0,29.0,-41.198726654052734,-26.000974655151367,-69.9462890625,-2.5350341796875,0.673095703125,0.4840087890625
1.440,311,1848,1175,311,6.0,36.0,30.0,-53.588863372802734,-20.568845748901367,-50.109859466552734,-2.9351806640625,0.201416015625,0.2021484375
1.448,310,1858,1157,311,6.0,36.0,30.0,-41.931148529052734,-12.939452171325684,-15.624999046325684,-2.4952392578125,-0.1153564453125,0.018798828125
1.466,311,1852,1170,311,6.0,36.0,30.0,-3.356933355331421,-2.563476324081421,14.648436546325684,-1.4837646484375,-0.088134765625,0.048095703125
1.476,311,1850,1159,311,6.0,36.0,30.0,42.785640716552734,6.774901866912842,27.954099655151367,-0.8861083984375,0.527587890625,0.259033203125
1.477,311,1803,1138,310,6.0,36.0,30.0,59.326168060302734,11.718749046325684,24.841306686401367,-1.0621337890625,1.3511962890625,0.4171142578125
1.492,311,1750,1047,311,6.0,36.0,30.0,33.0810546875,15.808104515075684,12.329100608825684,-1.586669921875,1.7379150390625,0.393798828125
1.522,311,1682,966,311,6.0,36.0,30.0,-2.746581792831421,17.63916015625,0.3662109076976776,-1.9154052734375,1.558837890625,0.3111572265625
1.522,296,1608,907,311,6.0,36.0,30.0,-19.53125,13.916014671325684,-6.591796398162842,-1.8798828125,1.018310546875,0.283203125
1.523,295,1452,818,310,6.0,36.0,30.0,-13.183592796325684,7.568358898162842,-9.09423828125,-1.623291015625,0.5135498046875,0.3157958984375
1.532,310,1308,780,310,5.0,37.0,28.0,8.23974609375,2.746581792831421,-7.995604991912842,-1.310546875,0.2843017578125,0.330078125
1.538,309,1199,751,309,5.0,37.0,28.0,29.418943405151367,0.9765624403953552,-5.554198741912842,-0.936767578125,0.1121826171875,0.2999267578125
1.553,310,996,711,311,5.0,37.0,28.0,44.494625091552734,4.8828125,-6.347655773162842,-0.5570068359375,-0.142578125,0.2010498046875
1.560,310,873,671,310,5.0,37.0,28.0,59.204097747802734,13.916014671325684,-11.352538108825684,-0.3192138671875,-0.255859375,0.033203125
1.575,310,766,621,310,5.0,37.0,28.0,69.39697265625,23.254392623901367,-19.04296875,-0.2518310546875,-0.1956787109375,-0.1094970703125
1.588,310,628,596,310,5.0,37.0,28.0,65.673828125,30.761716842651367,-26.855466842651367,-0.2596435546875,-0.021240234375,-0.1636962890625
1.590,310,586,570,309,5.0,37.0,28.0,51.696773529052734,37.2314453125,-32.5927734375,-0.265869140625,0.21484375,-0.1419677734375
1.601,309,538,556,310,5.0,37.0,28.0,37.17041015625,40.649410247802734,-35.400390625,-0.3165283203125,0.45751953125,-0.11328125
1.614,308,502,509,309,5.0,37.0,28.0,22.766111373901367,37.78076171875,-30.578611373901367,-0.4771728515625,0.716064453125,-0.12060546875
1.624,309,508,497,309,5.0,37.0,28.0,5.432128429412842,27.648923873901367,-23.925779342651367,-0.5478515625,0.7127685546875,-0.10107421875
1.628,310,504,508,310,4.0,37.0,27.0,-7.263183116912842,16.4794921875,-26.672361373901367,-0.45361328125,0.4056396484375,-0.0875244140625
1.643,309,504,566,309,4.0,37.0,27.0,-4.2724609375,11.596678733825684,-30.456541061401367,-0.394287109375,0.1470947265625,-0.0938720703125
1.650,309,525,575,310,4.0,37.0,27.0,10.620116233825684,9.46044921875,-24.169919967651367,-0.4163818359375,0.0582275390625,-0.0118408203125
1.658,311,561,588,309,4.0,37.0,27.0,21.179197311401367,3.967284917831421,-9.94873046875,-0.4632568359375,0.0831298828125,0.15966796875
1.672,310,620,620,311,4.0,37.0,27.0,14.160155296325684,-6.347655773162842,4.82177734375,-0.482666015625,0.1143798828125,0.343994140625
1.680,307,695,654,309,4.0,37.0,27.0,-5.126952648162842,-17.88330078125,14.404295921325684,-0.4920654296875,0.107421875,0.420654296875
1.688,310,770,675,311,4.0,37.0,27.0,-18.49365234375,-24.475095748901367,18.5546875,-0.5257568359375,0.131103515625,0.34130859375
1.703,310,928,707,311,4.0,37.0,27.0,-19.53125,-25.451658248901367,21.118162155151367,-0.5831298828125,0.220947265625,0.1971435546875
1.713,309,1038,721,311,4.0,37.0,27.0,-15.808104515075684,-25.390623092651367,24.536130905151367,-0.6143798828125,0.3131103515625,0.074951171875
1.726,310,1131,740,311,4.0,37.0,27.0,-14.709471702575684,-27.770994186401367,27.770994186401367,-0.563232421875,0.3555908203125,0.006103515625
1.734,311,1331,747,311,4.0,36.0,27.0,-17.4560546875,-33.38623046875,27.221677780151367,-0.4361572265625,0.3929443359375,0.013427734375
1.740,310,1444,790,310,4.0,36.0,27.0,-22.094724655151367,-41.809078216552734,19.34814453125,-0.267333984375,0.4195556640625,0.0838623046875
1.748,311,1535,901,311,4.0,36.0,27.0,-27.526853561401367,-49.194332122802734,1.3427733182907104,-0.107666015625,0.3916015625,0.1715087890625
1.763,310,1686,1043,311,4.0,36.0,27.0,-27.282712936401367,-49.560543060302734,-25.756834030151367,-0.07177734375,0.3402099609375,0.233154296875
1.770,311,1766,1132,311,4.0,36.0,27.0,-21.545408248901367,-42.602535247802734,-53.894039154052734,-0.2677001953125,0.364501953125,0.28466796875
1.778,311,1805,1236,311,4.0,36.0,27.0,-28.686521530151367,-34.3017578125,-72.8759765625,-0.66650390625,0.3935546875,0.4080810546875
1.792,311,1830,1345,311,4.0,36.0,27.0,-54.748531341552734,-28.137205123901367,-77.880859375,-1.1884765625,0.29150390625,0.595947265625
1.800,310,1850,1406,315,4.0,36.0,27.0,-76.84326171875,-22.460935592651367,-70.1904296875,-1.7535400390625,0.170654296875,0.663330078125
1.815,309,1877,1444,310,4.0,36.0,27.0,-74.89013671875,-14.404295921325684,-52.978511810302734,-2.2537841796875,0.2537841796875,0.5115966796875
1.829,311,1889,1411,311,4.0,36.0,27.0,-56.884761810302734,-7.385253429412842,-28.808591842651367,-2.5872802734375,0.545654296875,0.2978515625
1.831,311,1905,1411,311,8.0,33.0,29.0,-39.55078125,-4.57763671875,-2.868652105331421,-2.4305419921875,0.640869140625,0.200927734375
1.839,310,1927,1398,311,8.0,33.0,29.0,-21.301267623901367,1.4648436307907104,16.2353515625,-1.64990234375,0.2718505859375,0.2060546875
1.853,310,1931,1377,311,8.0,33.0,29.0,6.713866710662842,10.070799827575684,23.925779342651367,-0.99560546875,0.2291259765625,0.34814453125
1.861,311,1907,1351,311,8.0,33.0,29.0,29.541013717651367,12.756346702575684,21.911619186401367,-1.1260986328125,0.9464111328125,0.51611328125
1.868,310,1860,1334,311,8.0,33.0,29.0,26.184080123901367,15.258788108825684,11.047362327575684,-1.6363525390625,1.4783935546875,0.4676513671875
1.883,309,1742,1251,311,8.0,33.0,29.0,7.202147960662842,21.667478561401367,-5.615233898162842,-1.9228515625,1.2889404296875,0.293212890625
1.894,309,1669,1192,314,8.0,33.0,29.0,-2.01416015625,21.423337936401367,-19.1650390625,-1.916015625,0.8084716796875,0.2103271484375
1.899,310,1588,1104,309,8.0,33.0,29.0,4.0283203125,11.413573265075684,-23.376462936401367,-1.7615966796875,0.4716796875,0.2645263671875
1.913,311,1415,990,311,8.0,33.0,29.0,17.02880859375,2.685546636581421,-18.73779296875,-1.5223388671875,0.3240966796875,0.336669921875
1.933,309,1287,932,311,8.0,33.0,29.0,31.249998092651367,2.685546636581421,-9.94873046875,-1.197998046875,0.2021484375,0.3526611328125
1.933,310,1182,848,312,8.0,34.0,26.0,41.259761810302734,9.1552734375,-1.6479490995407104,-0.8074951171875,-0.07275390625,0.3160400390625
1.944,309,934,769,310,8.0,34.0,26.0,46.813961029052734,19.04296875,3.723144292831421,-0.4527587890625,-0.3677978515625,0.226806640625
1.950,309,814,725,309,8.0,34.0,26.0,51.818843841552734,29.968259811401367,6.591796398162842,-0.2020263671875,-0.4205322265625,0.0987548828125
1.958,311,722,682,311,8.0,34.0,26.0,56.579586029052734,39.1845703125,5.249022960662842,-0.10302734375,-0.3033447265625,0.0260009765625
1.972,309,617,638,310,8.0,34.0,26.0,58.715816497802734,43.395992279052734,-1.6479490995407104,-0.1571044921875,-0.114990234375,0.019287109375
1.980,310,578,619,309,8.0,34.0,26.0,55.908199310302734,44.433589935302734,-9.6435546875,-0.26806640625,0.1832275390625,-0.02587890625
1.988,306,575,607,309,8.0,34.0,26.0,46.630855560302734,44.372554779052734,-14.221190452575684,-0.33544921875,0.4111328125,-0.0657958984375
2.003,310,574,587,311,8.0,34.0,26.0,32.958984375,40.222164154052734,-10.986327171325684,-0.409423828125,0.5528564453125,-0.0718994140625
2.010,310,561,590,310,8.0,34.0,26.0,18.49365234375,30.090330123901367,1.5258787870407104,-0.519287109375,0.73828125,-0.0523681640625
2.042,309,572,597,309,8.0,34.0,26.0,0.7934569716453552,17.4560546875,9.70458984375,-0.5362548828125,0.695556640625,0.0025634765625
2.045,310,585,625,310,7.0,34.0,26.0,-16.78466796875,7.934569835662842,5.859374523162842,-0.5025634765625,0.39453125,0.0272216796875
2.045,312,596,617,310,7.0,34.0,26.0,-21.606443405151367,1.5258787870407104,0.8544921278953552,-0.51953125,0.1270751953125,0.0723876953125
2.049,309,606,636,310,7.0,34.0,26.0,-13.732909202575684,-3.845214605331421,1.9531248807907104,-0.5753173828125,-0.0001220703125,0.1429443359375
2.063,309,643,668,310,7.0,34.0,26.0,-4.5166015625,-7.141112804412842,8.97216796875,-0.6353759765625,0.0089111328125,0.1702880859375
2.070,309,675,684,310,7.0,34.0,26.0,-1.4648436307907104,-8.30078125,18.6767578125,-0.6964111328125,0.068359375,0.163330078125
2.078,308,724,706,311,7.0,34.0,26.0,-4.0283203125,-9.765625,28.381345748901367,-0.773193359375,0.15087890625,0.125244140625
2.092,309,822,729,309,7.0,34.0,26.0,-10.253905296325684,-12.878417015075684,38.6962890625,-0.8099365234375,0.2239990234375,0.076416015625
2.108,310,927,751,311,7.0,34.0,26.0,-18.98193359375,-17.76123046875,48.461910247802734,-0.733642578125,0.1990966796875,0.031005859375
2.109,309,1034,740,297,7.0,34.0,26.0,-23.437498092651367,-23.803709030151367,55.114742279052734,-0.590576171875,0.1500244140625,-0.028564453125
2.136,311,1198,779,310,6.0,34.0,27.0,-19.10400390625,-32.28759765625,55.603023529052734,-0.3687744140625,0.1639404296875,-0.042724609375
2.136,311,1318,811,310,6.0,34.0,27.0,-13.427733421325684,-41.870113372802734,45.898433685302734,-0.1097412109375,0.224365234375,0.0145263671875
2.142,310,1449,898,311,6.0,34.0,27.0,-11.291502952575684,-47.302242279052734,26.489255905151367,0.066650390625,0.32568359375,0.129150390625
2.156,310,1632,1034,311,6.0,34.0,27.0,-10.437010765075684,-45.104976654052734,1.4038084745407104,0.15283203125,0.4278564453125,0.285400390625
2.160,311,1723,1115,311,6.0,34.0,27.0,-14.831542015075684,-35.09521484375,-26.794431686401367,0.082763671875,0.53271484375,0.33349609375
2.195,309,1779,1232,311,6.0,34.0,27.0,-29.724119186401367,-23.193357467651367,-51.086421966552734,-0.2454833984375,0.6890869140625,0.253662109375
2.199,311,1795,1362,309,6.0,34.0,27.0,-47.302242279052734,-19.59228515625,-64.3310546875,-0.946044921875,0.8453369140625,0.2662353515625
2.213,310,1791,1439,311,6.0,34.0,27.0,-62.438961029052734,-28.381345748901367,-69.091796875,-1.8436279296875,0.68212890625,0.4222412109375
2.216,310,1831,1483,311,6.0,34.0,27.0,-79.833984375,-36.0107421875,-64.75830078125,-2.5255126953125,0.151123046875,0.489990234375
2.216,310,1886,1511,311,6.0,34.0,27.0,-85.63231658935547,-30.761716842651367,-43.945308685302734,-2.7789306640625,-0.1966552734375,0.4085693359375
2.244,311,1891,1469,311,11.0,34.0,30.0,-62.316890716552734,-21.728513717651367,-9.21630859375,-2.555419921875,-0.0201416015625,0.37158203125
2.244,311,1900,1445,311,11.0,34.0,30.0,-22.033689498901367,-15.136717796325684,25.268552780151367,-1.7935791015625,0.2650146484375,0.4139404296875
2.244,310,1904,1415,294,11.0,34.0,30.0,14.099120140075684,-3.601073980331421,42.602535247802734,-0.986328125,0.5377197265625,0.4571533203125
2.251,309,1886,1402,311,11.0,34.0,30.0,32.28759765625,10.864256858825684,38.02490234375,-0.8551025390625,1.0433349609375,0.483642578125
2.264,311,1848,1370,311,11.0,34.0,30.0,24.658201217651367,23.071287155151367,18.798828125,-1.3521728515625,1.450439453125,0.4285888671875
2.274,311,1743,1305,310,11.0,34.0,30.0,1.3427733182907104,30.883787155151367,-3.540038824081421,-1.9163818359375,1.36083984375,0.2808837890625
2.280,311,1662,1260,311,11.0,34.0,30.0,-14.648436546325684,28.686521530151367,-18.06640625,-2.1419677734375,0.878662109375,0.199462890625
2.289,311,1599,1209,311,11.0,34.0,30.0,-11.657713890075684,15.136717796325684,-20.446775436401367,-2.0445556640625,0.458740234375,0.28369140625
2.304,311,1462,1104,310,11.0,34.0,30.0,4.39453125,-0.7324218153953552,-13.000487327575684,-1.7589111328125,0.303466796875,0.418212890625
2.311,309,1335,1034,311,11.0,34.0,30.0,24.658201217651367,-6.896972179412842,-1.5258787870407104,-1.370361328125,0.2764892578125,0.45849609375
2.342,311,1204,953,311,9.0,36.0,24.0,41.198726654052734,-1.5258787870407104,8.4228515625,-0.9132080078125,0.158447265625,0.3841552734375
2.343,310,999,815,310,9.0,36.0,24.0,48.645015716552734,10.986327171325684,13.854979515075684,-0.466064453125,-0.126708984375,0.2593994140625
2.343,310,848,777,310,9.0,36.0,24.0,51.452632904052734,26.184080123901367,13.854979515075684,-0.145751953125,-0.3011474609375,0.132080078125
2.348,309,745,729,311,9.0,36.0,24.0,52.246089935302734,41.015621185302734,7.873534679412842,-0.04443359375,-0.245361328125,0.0455322265625
2.364,309,572,636,310,9.0,36.0,24.0,49.682613372802734,51.635738372802734,-4.82177734375,-0.1270751953125,-0.09912109375,0.0235595703125
2.377,309,547,603,310,9.0,36.0,24.0,45.349117279052734,56.823726654052734,-18.61572265625,-0.2628173828125,0.1522216796875,-0.030517578125
2.378,310,515,577,309,9.0,36.0,24.0,40.893550872802734,57.678218841552734,-27.832029342651367,-0.3558349609375,0.4132080078125,-0.1015625
2.394,311,479,524,310,9.0,36.0,24.0,32.16552734375,51.635738372802734,-31.433103561401367,-0.4681396484375,0.622802734375,-0.1300048828125
2.401,309,480,507,309,9.0,36.0,24.0,11.779784202575684,36.865234375,-27.770994186401367,-0.6038818359375,0.7628173828125,-0.12060546875
2.410,310,477,518,311,9.0,36.0,24.0,-18.9208984375,19.10400390625,-21.972654342651367,-0.6019287109375,0.62548828125,-0.0711669921875
2.446,309,479,533,310,9.0,34.0,24.0,-38.02490234375,8.85009765625,-21.362302780151367,-0.4974365234375,0.2962646484375,-0.048095703125
2.446,295,465,545,309,9.0,34.0,24.0,-28.930662155151367,6.835937023162842,-21.484373092651367,-0.4530029296875,0.06494140625,-0.0235595703125
2.446,309,469,554,310,9.0,34.0,24.0,-3.967284917831421,5.187987804412842,-15.502928733825684,-0.4971923828125,-0.0067138671875,0.076416015625
2.454,310,480,574,309,9.0,34.0,24.0,14.709471702575684,0.54931640625,-4.45556640625,-0.5618896484375,-0.0032958984375,0.2022705078125
2.460,309,523,596,309,9.0,34.0,24.0,16.90673828125,-5.187987804412842,6.652831554412842,-0.612060546875,0.0084228515625,0.26904296875
2.468,310,572,620,311,9.0,34.0,24.0,8.72802734375,-9.70458984375,15.136717796325684,-0.6572265625,0.0416259765625,0.2598876953125
2.491,310,652,673,310,9.0,34.0,24.0,0.7324218153953552,-12.512206077575684,21.728513717651367,-0.689208984375,0.1131591796875,0.199462890625
2.491,310,715,708,310,9.0,34.0,24.0,-2.868652105331421,-14.038084983825684,27.404783248901367,-0.686279296875,0.1689453125,0.1151123046875
2.499,310,800,747,310,9.0,34.0,24.0,-2.868652105331421,-14.038084983825684,27.404783248901367,-0.6580810546875,0.2198486328125,0.0120849609375
2.515,309,963,794,310,8.0,36.0,29.0,-5.676269054412842,-20.202634811401367,34.5458984375,-0.6138916015625,0.324462890625,-0.0810546875
2.522,310,1074,814,311,8.0,36.0,29.0,-12.390135765075684,-29.174802780151367,34.423828125,-0.4871826171875,0.435302734375,-0.0789794921875
2.548,309,1201,841,311,8.0,36.0,29.0,-12.390135765075684,-29.174802780151367,34.423828125,-0.242431640625,0.4852294921875,0.00927734375
2.548,311,1427,1022,311,8.0,36.0,29.0,-35.21728515625,-51.391597747802734,11.657713890075684,0.035400390625,0.4736328125,0.11376953125
2.550,311,1533,1141,311,8.0,36.0,29.0,-36.43798828125,-55.297847747802734,-15.075682640075684,0.2320556640625,0.4361572265625,0.1907958984375
2.558,310,1617,1260,311,8.0,36.0,29.0,-36.43798828125,-55.297847747802734,-15.075682640075684,0.1585693359375,0.4593505859375,0.289306640625
2.574,311,1658,1422,312,8.0,36.0,29.0,-32.1044921875,-44.616695404052734,-79.4677734375,-0.34228515625,0.5565185546875,0.4866943359375
2.581,310,1649,1492,309,8.0,36.0,29.0,-53.894039154052734,-37.90283203125,-99.06005096435547,-1.1448974609375,0.5054931640625,0.69482421875
2.589,309,1649,1565,311,8.0,36.0,29.0,-53.894039154052734,-37.90283203125,-99.06005096435547,-1.9742431640625,0.2528076171875,0.7398681640625
2.604,309,1709,1709,310,8.0,36.0,29.0,-96.31346893310547,-24.719236373901367,-83.67919158935547,-2.56591796875,-0.0966796875,0.5579833984375
2.610,311,1742,1723,311,12.0,34.0,22.0,-82.94676971435547,-13.977049827575684,-54.321285247802734,-2.7962646484375,-0.2520751953125,0.2698974609375
2.618,309,1745,1616,311,12.0,34.0,22.0,-82.94676971435547,-13.977049827575684,-54.321285247802734,-2.57421875,-0.126220703125,0.1007080078125
2.649,310,1729,1533,311,12.0,34.0,22.0,-10.925292015075684,1.7700194120407104,10.925292015075684,-1.8084716796875,-0.0972900390625,0.0860595703125
2.650,311,1738,1533,311,12.0,34.0,22.0,20.996091842651367,8.48388671875,31.494138717651367,-1.03564453125,0.084228515625,0.20751953125
2.650,309,1745,1511,311,12.0,34.0,22.0,20.996091842651367,8.48388671875,31.494138717651367,-0.9730224609375,0.77978515625,0.462890625
2.663,311,1689,1428,311,12.0,34.0,22.0,24.841306686401367,9.1552734375,42.053218841552734,-1.468505859375,1.43896484375,0.647216796875
2.670,309,1627,1367,311,12.0,34.0,22.0,-6.164550304412842,10.681151390075684,30.700681686401367,-1.8896484375,1.3828125,0.602294921875
2.678,311,1561,1328,311,12.0,34.0,22.0,-6.164550304412842,10.681151390075684,30.700681686401367,-1.953857421875,0.750732421875,0.4351806640625
2.694,311,1441,1241,311,12.0,34.0,22.0,-12.634276390075684,8.11767578125,4.8828125,-1.7711181640625,0.2039794921875,0.345947265625
2.700,309,1357,1194,311,12.0,34.0,22.0,17.7001953125,-0.0610351525247097,4.08935546875,-1.4854736328125,0.0487060546875,0.3441162109375
2.715,311,1260,1139,310,11.0,33.0,26.0,17.7001953125,-0.0610351525247097,4.08935546875,-1.1680908203125,0.1043701171875,0.318359375
2.724,309,1078,981,310,11.0,33.0,26.0,60.363765716552734,2.563476324081421,17.2119140625,-0.8592529296875,0.083984375,0.2294921875
2.758,310,955,887,311,11.0,33.0,26.0,60.729976654052734,10.742186546325684,22.399900436401367,-0.5977783203125,-0.0732421875,0.1187744140625
2.758,297,846,820,311,11.0,33.0,26.0,60.729976654052734,10.742186546325684,22.399900436401367,-0.39892578125,-0.135498046875,0.0169677734375
2.759,297,674,767,310,11.0,33.0,26.0,55.358882904052734,27.526853561401367,22.216794967651367,-0.2626953125,-0.086181640625,-0.0250244140625
2.761,309,617,725,310,11.0,33.0,26.0,55.603023529052734,33.8134765625,13.305663108825684,-0.239501953125,-0.0205078125,0.009033203125
2.769,309,545,666,311,11.0,33.0,26.0,55.603023529052734,33.8134765625,13.305663108825684,-0.3187255859375,0.1727294921875,0.013916015625
2.784,310,493,625,309,11.0,33.0,26.0,47.546382904052734,41.381832122802734,-11.779784202575684,-0.3759765625,0.419677734375,-0.02734375
2.791,309,496,599,309,11.0,33.0,26.0,35.58349609375,40.832515716552734,-19.22607421875,-0.4127197265625,0.5831298828125,-0.04931640625
2.798,310,486,591,309,11.0,33.0,26.0,35.58349609375,40.832515716552734,-19.22607421875,-0.4949951171875,0.695556640625,-0.0340576171875
2.814,309,488,586,310,9.0,34.0,26.0,-0.8544921278953552,21.850584030151367,-13.305663108825684,-0.534912109375,0.6514892578125,0.033935546875
2.821,311,486,600,311,9.0,34.0,26.0,-16.357421875,9.58251953125,-11.718749046325684,-0.50146484375,0.39013671875,0.082763671875
2.828,309,488,616,311,9.0,34.0,26.0,-16.357421875,9.58251953125,-11.718749046325684,-0.4791259765625,0.1141357421875,0.08251953125
2.859,309,529,640,309,9.0,34.0,26.0,-6.774901866912842,-4.45556640625,-9.58251953125,-0.492919921875,-0.045654296875,0.113037109375
2.859,309,558,679,311,9.0,34.0,26.0,6.408690929412842,-12.023924827575684,-2.50244140625,-0.520263671875,-0.0870361328125,0.1519775390625
2.861,294,599,714,309,9.0,34.0,26.0,6.408690929412842,-12.023924827575684,-2.50244140625,-0.5596923828125,-0.0391845703125,0.137451171875
2.874,310,691,771,311,9.0,34.0,26.0,13.183592796325684,-21.789548873901367,14.648436546325684,-0.62841796875,0.0511474609375,0.10205078125
2.881,309,751,799,310,9.0,34.0,26.0,8.97216796875,-24.291990280151367,22.766111373901367,-0.730712890625,0.181884765625,0.0777587890625
2.889,311,816,834,310,9.0,34.0,26.0,8.97216796875,-24.291990280151367,22.766111373901367,-0.7998046875,0.32666015625,0.0457763671875
2.904,309,978,871,311,9.0,34.0,26.0,-14.831542015075684,-35.94970703125,39.85595703125,-0.7344970703125,0.3743896484375,0.0123291015625
2.911,311,1094,923,310,9.0,34.0,28.0,-31.249998092651367,-45.043941497802734,42.419429779052734,-0.5177001953125,0.294189453125,0.019287109375
2.918,310,1222,1057,311,9.0,34.0,28.0,-31.249998092651367,-45.043941497802734,42.419429779052734,-0.2064208984375,0.1754150390625,0.0716552734375
2.962,311,1395,1234,311,9.0,34.0,28.0,-44.311519622802734,-62.377925872802734,20.690916061401367,0.1536865234375,0.0919189453125,0.1468505859375
2.963,307,1508,1313,310,9.0,34.0,28.0,-31.005857467651367,-61.340328216552734,-5.187987804412842,0.421875,0.10009765625,0.243896484375
2.963,309,1588,1411,311,9.0,34.0,28.0,-31.005857467651367,-61.340328216552734,-5.187987804412842,0.3251953125,0.335693359375,0.371826171875
2.963,309,1640,1513,309,9.0,34.0,28.0,-6.713866710662842,-39.36767578125,-64.88037109375,-0.2098388671875,0.7166748046875,0.513916015625
2.970,310,1649,1619,311,9.0,34.0,28.0,-36.56005859375,-31.738279342651367,-81.35985565185547,-1.0640869140625,0.892578125,0.6513671875
2.978,312,1656,1741,311,9.0,34.0,28.0,-36.56005859375,-31.738279342651367,-81.35985565185547,-2.0093994140625,0.6552734375,0.7108154296875
2.995,311,1671,1894,311,9.0,34.0,28.0,-115.17333221435547,-30.090330123901367,-71.35009765625,-2.7540283203125,0.193115234375,0.5675048828125
3.000,309,1698,1936,311,9.0,34.0,28.0,-118.65233612060547,-26.855466842651367,-42.480464935302734,-3.0704345703125,-0.111572265625,0.3291015625
3.009,311,1729,1889,312,12.0,33.0,25.0,-118.65233612060547,-26.855466842651367,-42.480464935302734,-3.0704345703125,-0.111572265625,0.3291015625
3.024,311,1744,1838,312,12.0,33.0,25.0,-36.43798828125,-24.719236373901367,18.98193359375,-1.6959228515625,-0.3575439453125,0.27783203125
3.031,311,1755,1738,311,12.0,33.0,25.0,-36.43798828125,-24.719236373901367,18.98193359375,-0.83056640625,0.0933837890625,0.5340576171875
3.069,311,1764,1697,311,12.0,33.0,25.0,21.179197311401367,-18.12744140625,31.188962936401367,-0.83056640625,0.0933837890625,0.5340576171875
3.069,311,1730,1670,309,12.0,33.0,25.0,47.729488372802734,23.010251998901367,13.671874046325684,-0.996826171875,1.4832763671875,0.6912841796875
3.070,297,1682,1632,312,12.0,33.0,25.0,47.729488372802734,23.010251998901367,13.671874046325684,-1.65283203125,1.3363037109375,0.454345703125
3.070,295,1599,1599,311,12.0,33.0,25.0,8.056640625,48.645015716552734,-10.192870140075684,-1.65283203125,1.3363037109375,0.454345703125
3.084,311,1526,1508,311,12.0,33.0,25.0,-33.50830078125,38.330078125,-31.005857467651367,-2.0599365234375,0.0675048828125,0.2144775390625
3.091,311,1452,1458,311,12.0,33.0,25.0,-33.50830078125,38.330078125,-31.005857467651367,-1.859130859375,-0.0673828125,0.36865234375
3.101,310,1370,1369,311,12.0,33.0,25.0,-10.986327171325684,14.038084983825684,-19.4091796875,-1.859130859375,-0.0673828125,0.36865234375
3.116,310,1225,1262,311,10.0,32.0,24.0,34.11865234375,-8.23974609375,16.4794921875,-1.2911376953125,0.16650390625,0.5418701171875
3.120,310,1130,1196,307,10.0,32.0,24.0,34.11865234375,-8.23974609375,16.4794921875,-0.9298095703125,0.088134765625,0.430419921875
3.128,310,1043,1115,311,10.0,32.0,24.0,42.907711029052734,0.30517578125,31.188962936401367,-0.9298095703125,0.088134765625,0.430419921875
3.174,310,897,935,311,10.0,32.0,24.0,52.307125091552734,24.841306686401367,40.893550872802734,-0.270751953125,-0.301513671875,0.1368408203125
3.174,310,794,888,311,10.0,32.0,24.0,52.307125091552734,24.841306686401367,40.893550872802734,-0.1295166015625,-0.211181640625,0.0496826171875
3.175,309,697,835,311,10.0,32.0,24.0,59.936519622802734,37.41455078125,36.80419921875,-0.1295166015625,-0.211181640625,0.0496826171875
3.175,309,625,750,311,10.0,32.0,24.0,66.95556640625,53.649898529052734,12.207030296325684,-0.235595703125,0.1795654296875,-0.054931640625
3.182,310,572,729,309,10.0,32.0,24.0,66.95556640625,53.649898529052734,12.207030296325684,-0.3558349609375,0.3751220703125,-0.0791015625
3.188,310,536,691,309,10.0,32.0,24.0,58.654781341552734,55.480953216552734,-3.845214605331421,-0.3558349609375,0.3751220703125,-0.0791015625
3.203,310,531,673,309,9.0,34.0,28.0,31.738279342651367,40.710445404052734,-14.282225608825684,-0.4495849609375,0.7152099609375,-0.0634765625
3.210,309,533,679,310,9.0,34.0,28.0,31.738279342651367,40.710445404052734,-14.282225608825684,-0.4586181640625,0.6707763671875,0.0128173828125
3.218,311,545,683,309,9.0,34.0,28.0,12.329100608825684,27.893064498901367,-12.329100608825684,-0.4586181640625,0.6707763671875,0.0128173828125
3.232,309,556,707,309,9.0,34.0,28.0,-16.29638671875,6.835937023162842,-12.390135765075684,-0.49072265625,0.1741943359375,0.1859130859375
3.263,309,582,724,309,9.0,34.0,28.0,-16.29638671875,6.835937023162842,-12.390135765075684,-0.5267333984375,-0.03857421875,0.197998046875
3.263,309,605,739,311,9.0,34.0,28.0,-15.258788108825684,-0.0610351525247097,-11.413573265075684,-0.5267333984375,-0.03857421875,0.197998046875
3.263,310,659,756,311,9.0,34.0,28.0,2.868652105331421,-8.11767578125,5.920409679412842,-0.6746826171875,-0.0513916015625,0.1571044921875
3.285,310,736,801,309,9.0,34.0,28.0,2.868652105331421,-8.11767578125,5.920409679412842,-0.763916015625,0.0264892578125,0.11474609375
3.285,309,780,819,311,9.0,34.0,28.0,6.652831554412842,-10.742186546325684,17.822265625,-0.763916015625,0.0264892578125,0.11474609375
3.294,311,873,861,310,9.0,34.0,28.0,-5.065917491912842,-23.193357467651367,38.02490234375,-0.7708740234375,0.19482421875,0.079345703125
3.301,309,963,886,311,8.0,32.0,32.0,-5.065917491912842,-23.193357467651367,38.02490234375,-0.5906982421875,0.1834716796875,0.0791015625
3.309,310,1050,928,310,8.0,32.0,32.0,-15.136717796325684,-32.28759765625,41.381832122802734,-0.5906982421875,0.1834716796875,0.0791015625
3.323,309,1236,1039,311,8.0,32.0,32.0,-18.9208984375,-45.166011810302734,31.494138717651367,-0.1922607421875,0.17626953125,0.1146240234375
3.330,311,1372,1141,309,8.0,32.0,32.0,-18.9208984375,-45.166011810302734,31.494138717651367,0.056640625,0.24560546875,0.14794921875
3.338,310,1471,1251,311,8.0,32.0,32.0,-13.977049827575684,-45.471187591552734,20.629880905151367,0.056640625,0.24560546875,0.14794921875
3.364,311,1620,1413,311,8.0,32.0,32.0,-12.695311546325684,-32.3486328125,-24.353025436401367,0.314697265625,0.4114990234375,0.192626953125
3.364,305,1674,1509,312,8.0,32.0,32.0,-12.695311546325684,-32.3486328125,-24.353025436401367,-0.1773681640625,0.6617431640625,0.19775390625
3.368,311,1672,1605,311,8.0,32.0,32.0,-23.498533248901367,-24.414060592651367,-51.086421966552734,-0.1773681640625,0.6617431640625,0.19775390625
3.392,311,1727,1764,311,8.0,32.0,32.0,-96.67967987060547,-25.573728561401367,-72.509765625,-1.962890625,0.4898681640625,0.532958984375
3.392,311,1764,1873,311,8.0,32.0,32.0,-96.67967987060547,-25.573728561401367,-72.509765625,-2.6524658203125,0.184814453125,0.5384521484375
3.399,311,1788,1920,311,11.0,32.0,25.0,-126.70897674560547,-25.695798873901367,-58.105464935302734,-2.6524658203125,0.184814453125,0.5384521484375
3.413,309,1811,1891,311,11.0,32.0,25.0,-81.66503143310547,-27.709959030151367,-1.6479490995407104,-2.6444091796875,0.082275390625,0.4149169921875
3.421,309,1829,1856,311,11.0,32.0,25.0,-81.66503143310547,-27.709959030151367,-1.6479490995407104,-1.8072509765625,-0.0604248046875,0.4583740234375
3.429,311,1821,1763,311,11.0,32.0,25.0,-25.634763717651367,-29.968259811401367,14.953612327575684,-1.8072509765625,-0.0604248046875,0.4583740234375
3.444,311,1812,1719,311,11.0,32.0,25.0,57.678218841552734,-1.6479490995407104,17.7001953125,-0.7069091796875,0.71630859375,0.7733154296875
3.469,309,1790,1695,311,11.0,32.0,25.0,57.678218841552734,-1.6479490995407104,17.7001953125,-1.155029296875,1.291748046875,0.721923828125
3.469,310,1748,1659,311,11.0,32.0,25.0,51.452632904052734,23.986814498901367,6.408690929412842,-1.155029296875,1.291748046875,0.721923828125
3.472,311,1658,1592,311,11.0,32.0,25.0,-17.76123046875,50.720211029052734,-23.803709030151367,-2.138916015625,0.710693359375,0.22412109375
3.481,310,1591,1527,311,11.0,32.0,25.0,-17.76123046875,50.720211029052734,-23.803709030151367,-2.0615234375,0.16015625,0.1624755859375
3.492,310,1516,1471,311,11.0,32.0,25.0,-24.353025436401367,37.353515625,-25.573728561401367,-2.0615234375,0.16015625,0.1624755859375
3.504,309,1371,1334,312,10.0,31.0,28.0,-4.5166015625,14.343260765075684,-15.563963890075684,-1.507568359375,0.140380859375,0.4903564453125
3.511,311,1286,1264,311,10.0,31.0,28.0,17.578125,-2.50244140625,0.4882812201976776,-1.507568359375,0.140380859375,0.4903564453125
3.518,309,1194,1206,311,10.0,31.0,28.0,30.029294967651367,-3.417968511581421,16.845703125,-1.1571044921875,0.1461181640625,0.512451171875
3.532,310,1037,1047,310,10.0,31.0,28.0,37.29248046875,6.103515148162842,30.212400436401367,-0.42724609375,-0.2738037109375,0.2508544921875
3.540,309,951,957,311,10.0,31.0,28.0,43.273921966552734,17.76123046875,37.17041015625,-0.42724609375,-0.2738037109375,0.2508544921875
3.548,310,842,907,309,10.0,31.0,28.0,50.842281341552734,29.602048873901367,37.41455078125,-0.18994140625,-0.3880615234375,0.1209716796875
3.570,310,711,793,311,10.0,31.0,28.0,61.523433685302734,41.137691497802734,32.65380859375,-0.1954345703125,0.0164794921875,0.0194091796875
3.572,296,643,745,309,10.0,31.0,28.0,68.4814453125,50.903316497802734,21.728513717651367,-0.1954345703125,0.0164794921875,0.0194091796875
3.578,311,577,698,310,10.0,31.0,28.0,65.61279296875,57.495113372802734,5.554198741912842,-0.3338623046875,0.236083984375,-0.00732421875
3.598,309,480,654,311,9.0,33.0,32.0,57.434078216552734,59.082027435302734,-8.72802734375,-0.4542236328125,0.69384765625,-0.093017578125
3.601,309,480,638,309,9.0,33.0,32.0,45.715328216552734,53.405757904052734,-16.7236328125,-0.4542236328125,0.69384765625,-0.093017578125
3.608,309,473,603,309,9.0,33.0,32.0,26.489255905151367,40.161128997802734,-18.4326171875,-0.5081787109375,0.7376708984375,-0.07763671875
3.622,309,465,600,309,9.0,33.0,32.0,2.624511480331421,23.803709030151367,-16.17431640625,-0.5406494140625,0.40185546875,0.0833740234375
3.630,311,472,625,310,9.0,33.0,32.0,-15.258788108825684,10.314940452575684,-14.465331077575684,-0.5406494140625,0.40185546875,0.0833740234375
3.638,309,473,643,309,9.0,33.0,32.0,-18.49365234375,1.8310545682907104,-13.671874046325684,-0.5106201171875,0.1231689453125,0.115478515625
3.671,310,533,667,310,9.0,33.0,32.0,-7.995604991912842,-3.356933355331421,-10.131834983825684,-0.5460205078125,-0.069580078125,0.156494140625
3.672,309,579,694,309,9.0,33.0,32.0,5.615233898162842,-7.507323741912842,-2.197265625,-0.5460205078125,-0.069580078125,0.156494140625
3.672,309,644,697,298,9.0,33.0,32.0,12.390135765075684,-11.474608421325684,7.873534679412842,-0.576416015625,-0.0335693359375,0.1663818359375
3.683,309,751,788,309,9.0,33.0,32.0,12.329100608825684,-14.770506858825684,17.15087890625,-0.585205078125,0.072509765625,0.0943603515625
3.691,310,815,832,310,9.0,32.0,29.0,10.925292015075684,-17.822265625,25.390623092651367,-0.585205078125,0.072509765625,0.0943603515625
3.706,310,907,862,311,9.0,32.0,29.0,8.60595703125,-22.338865280151367,31.433103561401367,-0.51318359375,0.1622314453125,0.01953125
3.712,310,1101,951,310,9.0,32.0,29.0,2.563476324081421,-29.846189498901367,32.3486328125,-0.1949462890625,0.29443359375,-0.071044921875
3.721,310,1254,1069,311,9.0,32.0,29.0,-9.521484375,-41.076656341552734,26.977537155151367,-0.1949462890625,0.29443359375,-0.071044921875
3.729,309,1372,1175,311,9.0,32.0,29.0,-26.428220748901367,-52.001949310302734,16.2353515625,0.0379638671875,0.315673828125,-0.00927734375
3.742,311,1547,1362,309,9.0,32.0,29.0,-37.90283203125,-55.908199310302734,-0.1831054538488388,0.17236328125,0.510009765625,0.3192138671875
3.751,310,1604,1476,311,9.0,32.0,29.0,-40.0390625,-49.194332122802734,-25.207517623901367,0.17236328125,0.510009765625,0.3192138671875
3.775,311,1627,1580,311,9.0,32.0,29.0,-50.048824310302734,-35.0341796875,-56.701656341552734,-0.290771484375,0.5865478515625,0.4888916015625
3.776,311,1650,1734,311,9.0,32.0,29.0,-77.81982421875,-24.169919967651367,-80.87157440185547,-1.901611328125,0.1668701171875,0.6143798828125
3.781,309,1686,1875,310,9.0,32.0,29.0,-104.30907440185547,-22.399900436401367,-84.77782440185547,-1.901611328125,0.1668701171875,0.6143798828125
3.788,310,1718,1933,311,14.0,33.0,25.0,-105.04149627685547,-24.353025436401367,-69.091796875,-2.4683837890625,-0.1339111328125,0.4586181640625
3.803,310,1788,1965,311,14.0,33.0,25.0,-76.5380859375,-24.719236373901367,-42.724605560302734,-2.5611572265625,0.052978515625,0.30810546875
3.810,310,1785,1911,311,14.0,33.0,25.0,-36.2548828125,-23.742673873901367,-14.831542015075684,-2.5611572265625,0.052978515625,0.30810546875
3.818,310,1777,1838,311,14.0,33.0,25.0,-5.737304210662842,-22.277830123901367,8.36181640625,-1.9871826171875,0.1917724609375,0.453369140625
3.833,311,1766,1755,312,14.0,33.0,25.0,10.375975608825684,-13.610838890075684,22.644041061401367,-0.8138427734375,0.5443115234375,0.6568603515625
3.842,309,1745,1734,311,14.0,33.0,25.0,23.437498092651367,3.662109136581421,24.536130905151367,-0.8138427734375,0.5443115234375,0.6568603515625
3.849,311,1711,1697,311,14.0,33.0,25.0,28.930662155151367,21.789548873901367,14.953612327575684,-1.1207275390625,1.0257568359375,0.633056640625
3.877,311,1593,1613,311,14.0,33.0,25.0,14.221190452575684,34.24072265625,-0.8544921278953552,-2.107421875,0.7703857421875,0.299560546875
3.877,311,1526,1538,309,14.0,33.0,25.0,-9.09423828125,35.94970703125,-14.770506858825684,-2.107421875,0.7703857421875,0.299560546875
3.879,298,1457,1466,311,14.0,33.0,25.0,-15.563963890075684,25.024412155151367,-19.22607421875,-2.0750732421875,0.267333984375,0.26708984375
3.892,310,1318,1357,310,14.0,33.0,23.0,-0.3662109076976776,6.408690929412842,-12.207030296325684,-1.4600830078125,0.0125732421875,0.4656982421875
3.901,311,1231,1300,310,14.0,33.0,23.0,20.385740280151367,-6.713866710662842,1.6479490995407104,-1.4600830078125,0.0125732421875,0.4656982421875
3.909,311,1148,1232,311,14.0,33.0,23.0,37.4755859375,-6.591796398162842,16.29638671875,-1.0653076171875,-0.0302734375,0.4605712890625
3.922,310,1029,1082,311,14.0,33.0,23.0,49.743648529052734,2.13623046875,28.076169967651367,-0.3416748046875,-0.3575439453125,0.2193603515625
3.930,310,928,976,311,14.0,33.0,23.0,59.082027435302734,12.878417015075684,35.15625,-0.3416748046875,-0.3575439453125,0.2193603515625
3.938,309,846,929,311,14.0,33.0,23.0,68.54248046875,22.766111373901367,36.68212890625,-0.1636962890625,-0.2386474609375,0.1219482421875
3.954,309,754,830,311,14.0,33.0,23.0,77.880859375,33.0810546875,30.944822311401367,-0.227294921875,0.16748046875,0.0128173828125
3.978,310,687,777,311,14.0,33.0,23.0,79.58984375,43.945308685302734,16.2353515625,-0.227294921875,0.16748046875,0.0128173828125
3.979,309,639,750,311,14.0,33.0,23.0,70.61767578125,51.269527435302734,-1.2817381620407104,-0.3807373046875,0.3045654296875,-0.09228515625
3.983,310,627,747,311,14.0,33.0,23.0,57.373043060302734,51.940914154052734,-13.244627952575684,-0.4833984375,0.58154296875,-0.2152099609375
3.992,310,614,739,310,9.0,33.0,28.0,43.212886810302734,44.433589935302734,-18.798828125,-0.4833984375,0.58154296875,-0.2152099609375
3.999,309,601,725,310,9.0,33.0,28.0,27.526853561401367,30.944822311401367,-18.12744140625,-0.5625,0.6337890625,-0.14501953125
4.012,311,601,747,311,9.0,33.0,28.0,8.6669921875,15.991209983825684,-13.061522483825684,-0.5919189453125,0.6033935546875,0.006591796875
4.024,309,617,766,311,9.0,33.0,28.0,-12.084959983825684,3.356933355331421,-10.131834983825684,-0.54541015625,0.3714599609375,0.142333984375
4.028,311,631,780,311,9.0,33.0,28.0,-24.047849655151367,-5.920409679412842,-10.009765625,-0.497802734375,0.0693359375,0.226806640625
4.045,309,697,827,311,9.0,33.0,28.0,-20.629880905151367,-11.840819358825684,-7.507323741912842,-0.495361328125,-0.0997314453125,0.2503662109375
4.051,310,745,842,310,9.0,33.0,28.0,-9.33837890625,-13.793944358825684,-0.1831054538488388,-0.5479736328125,-0.0989990234375,0.1927490234375
4.084,307,794,871,311,9.0,33.0,28.0,-0.4272460639476776,-13.549803733825684,10.253905296325684,-0.6334228515625,0.012451171875,0.1053466796875
4.084,309,869,938,310,9.0,33.0,28.0,1.8920897245407104,-15.075682640075684,21.057126998901367,-0.73046875,0.1513671875,0.0509033203125
4.084,309,959,989,311,9.0,33.0,28.0,-3.906249761581421,-21.545408248901367,29.968259811401367,-0.7586669921875,0.234619140625,0.0540771484375
4.088,310,1053,1031,311,8.0,33.0,23.0,-17.822265625,-32.28759765625,35.15625,-0.6427001953125,0.21240234375,0.08154296875
4.103,311,1246,1199,310,8.0,33.0,23.0,-34.66796875,-43.334957122802734,36.4990234375,-0.4381103515625,0.123291015625,0.1171875
4.111,309,1355,1295,311,8.0,33.0,23.0,-41.809078216552734,-52.429195404052734,34.11865234375,-0.170654296875,0.0731201171875,0.1864013671875
4.118,310,1445,1391,311,8.0,33.0,23.0,-36.31591796875,-57.067867279052734,25.146482467651367,0.15673828125,0.12255859375,0.2735595703125
4.132,311,1566,1551,311,8.0,33.0,23.0,-26.367185592651367,-54.382320404052734,5.920409679412842,0.4005126953125,0.238525390625,0.357666015625
4.140,311,1620,1656,311,8.0,33.0,23.0,-20.690916061401367,-45.837398529052734,-21.423337936401367,0.2762451171875,0.4112548828125,0.432861328125
4.148,316,1669,1743,311,8.0,33.0,23.0,-29.418943405151367,-33.935546875,-48.889156341552734,-0.3695068359375,0.602294921875,0.459228515625
4.192,311,1703,1994,311,8.0,33.0,23.0,-56.396480560302734,-20.629880905151367,-65.73486328125,-1.312744140625,0.60205078125,0.3753662109375
4.195,295,1703,2074,310,8.0,33.0,23.0,-84.53368377685547,-11.169432640075684,-65.36865234375,-2.1583251953125,0.3665771484375,0.1788330078125
4.195,309,1778,2129,310,8.0,33.0,23.0,-89.84374237060547,-11.291502952575684,-52.246089935302734,-2.6815185546875,0.21142578125,0.013671875
4.195,310,1818,2098,306,13.0,32.0,30.0,-70.068359375,-20.080564498901367,-35.15625,-2.81591796875,0.2225341796875,0.141845703125
4.200,311,1831,2034,311,13.0,32.0,30.0,-43.151851654052734,-31.249998092651367,-19.287109375,-2.5447998046875,0.1939697265625,0.5574951171875
4.209,309,1810,1931,311,13.0,32.0,30.0,-22.338865280151367,-31.677244186401367,-5.371093273162842,-1.763671875,-0.049072265625,0.8856201171875
4.222,311,1805,1860,311,13.0,32.0,30.0,0.4882812201976776,-9.33837890625,5.126952648162842,-0.9251708984375,-0.0885009765625,0.9569091796875
4.236,310,1778,1796,312,13.0,32.0,30.0,25.329587936401367,22.583005905151367,9.58251953125,-0.82177734375,0.4935302734375,0.908447265625
4.239,310,1730,1709,311,13.0,32.0,30.0,27.160642623901367,45.227046966552734,6.164550304412842,-1.458740234375,1.156494140625,0.7379150390625
4.253,311,1635,1613,311,13.0,32.0,30.0,-1.220703125,53.710933685302734,-3.234863042831421,-2.1258544921875,1.1295166015625,0.4189453125
4.264,310,1561,1533,310,13.0,32.0,30.0,-27.648923873901367,46.752925872802734,-10.681151390075684,-2.298583984375,0.506103515625,0.1541748046875
4.276,310,1481,1444,311,13.0,32.0,30.0,-21.911619186401367,25.268552780151367,-8.48388671875,-2.086181640625,0.0294189453125,0.1324462890625
4.295,311,1348,1308,310,8.0,33.0,28.0,5.920409679412842,0.1220703050494194,3.662109136581421,-1.7166748046875,-0.0299072265625,0.2783203125
4.295,310,1254,1260,309,8.0,33.0,28.0,30.334470748901367,-12.268065452575684,19.47021484375,-1.26220703125,0.09130859375,0.3994140625
4.299,310,1145,1183,311,8.0,33.0,28.0,41.076656341552734,-8.85009765625,31.860349655151367,-0.756591796875,0.0555419921875,0.407958984375
4.312,310,996,1004,310,8.0,33.0,28.0,44.250484466552734,3.051757574081421,36.7431640625,-0.3177490234375,-0.20556640625,0.327392578125
4.321,309,873,935,311,8.0,33.0,28.0,50.109859466552734,17.4560546875,35.21728515625,-0.0697021484375,-0.3414306640625,0.2218017578125
4.328,310,780,904,311,8.0,33.0,28.0,59.082027435302734,31.555173873901367,30.395505905151367,-0.031494140625,-0.1597900390625,0.1376953125
4.343,309,654,802,310,8.0,33.0,28.0,62.255855560302734,42.846675872802734,20.996091842651367,-0.1148681640625,0.0487060546875,0.0601806640625
4.351,309,604,761,311,8.0,33.0,28.0,53.710933685302734,50.231929779052734,6.042479991912842,-0.235107421875,0.152099609375,-0.0469970703125
4.358,311,583,740,310,8.0,33.0,28.0,42.663570404052734,52.185054779052734,-8.056640625,-0.333251953125,0.3118896484375,-0.158203125
4.388,314,582,753,309,8.0,33.0,28.0,36.68212890625,45.043941497802734,-16.17431640625,-0.4010009765625,0.4647216796875,-0.2225341796875
4.388,311,584,750,297,11.0,32.0,25.0,29.907224655151367,30.517576217651367,-17.7001953125,-0.4844970703125,0.5120849609375,-0.19677734375
4.389,309,570,747,310,11.0,32.0,25.0,17.63916015625,15.441893577575684,-10.925292015075684,-0.54150390625,0.5103759765625,-0.052734375
4.408,310,614,788,311,11.0,32.0,25.0,2.50244140625,3.662109136581421,0.30517578125,-0.52783203125,0.4041748046875,0.1192626953125
4.411,310,651,810,310,11.0,32.0,25.0,-8.7890625,-4.7607421875,8.6669921875,-0.487060546875,0.1756591796875,0.2386474609375
4.419,309,684,830,310,11.0,32.0,25.0,-10.681151390075684,-10.437010765075684,13.916014671325684,-0.465087890625,-0.0196533203125,0.291259765625
4.432,311,766,875,311,11.0,32.0,25.0,-5.981444835662842,-13.610838890075684,19.53125,-0.5152587890625,-0.06689453125,0.243896484375
4.440,307,803,916,311,11.0,32.0,25.0,-0.9155272841453552,-15.319823265075684,27.160642623901367,-0.645751953125,0.025634765625,0.13818359375
4.450,311,859,943,311,11.0,32.0,25.0,-0.0610351525247097,-18.24951171875,36.2548828125,-0.7593994140625,0.1507568359375,0.074951171875
4.463,309,972,996,311,11.0,32.0,25.0,-7.629394054412842,-25.085447311401367,44.616695404052734,-0.753173828125,0.186767578125,0.05810546875
4.477,310,1070,1039,311,11.0,32.0,25.0,-19.4091796875,-35.400390625,50.537105560302734,-0.628173828125,0.146728515625,0.0518798828125
4.491,309,1159,1139,311,8.0,34.0,27.0,-23.559568405151367,-47.119136810302734,52.673336029052734,-0.412109375,0.1290283203125,0.0672607421875
4.492,309,1321,1302,311,8.0,34.0,27.0,-17.9443359375,-57.434078216552734,48.706050872802734,-0.133056640625,0.1761474609375,0.0928955078125
4.501,309,1409,1386,311,8.0,34.0,27.0,-13.549803733825684,-62.927242279052734,34.48486328125,0.1444091796875,0.2442626953125,0.1517333984375
4.509,310,1499,1466,311,8.0,34.0,27.0,-14.831542015075684,-59.448238372802734,8.4228515625,0.251220703125,0.3253173828125,0.2403564453125
4.523,311,1625,1611,311,8.0,34.0,27.0,-21.606443405151367,-46.813961029052734,-24.169919967651367,-0.0240478515625,0.4659423828125,0.34716796875
4.550,309,1684,1698,311,8.0,34.0,27.0,-38.02490234375,-30.639646530151367,-52.307125091552734,-0.6634521484375,0.6011962890625,0.4305419921875
4.550,310,1729,1764,312,8.0,34.0,27.0,-58.715816497802734,-17.63916015625,-65.73486328125,-1.42626953125,0.565673828125,0.4110107421875
4.583,311,1807,1936,310,8.0,34.0,27.0,-69.39697265625,-15.136717796325684,-62.133785247802734,-2.0574951171875,0.336669921875,0.3388671875
4.585,309,1831,1974,311,8.0,34.0,27.0,-62.622066497802734,-23.254392623901367,-47.241207122802734,-2.4375,0.2115478515625,0.3646240234375
4.585,311,1824,1979,311,8.0,34.0,27.0,-43.579097747802734,-34.5458984375,-26.855466842651367,-2.56494140625,0.3590087890625,0.598388671875
4.595,310,1820,1833,311,10.0,32.0,28.0,-28.015134811401367,-41.015621185302734,-6.103515148162842,-2.3218994140625,0.4239501953125,0.8665771484375
4.596,311,1753,1725,311,10.0,32.0,28.0,-21.667478561401367,-28.259275436401367,7.324218273162842,-1.593505859375,0.0887451171875,0.871826171875
4.598,312,1794,1745,312,10.0,32.0,28.0,-3.845214605331421,4.2724609375,10.192870140075684,-0.912109375,-0.0382080078125,0.73583984375
4.612,311,1750,1698,311,10.0,32.0,28.0,27.648923873901367,29.418943405151367,7.141112804412842,-1.035888671875,0.567138671875,0.6875
4.620,311,1695,1640,311,10.0,32.0,28.0,40.893550872802734,35.888671875,0.4882812201976776,-1.7598876953125,1.28173828125,0.622802734375
4.630,310,1646,1590,311,10.0,32.0,28.0,20.263669967651367,37.17041015625,-10.498045921325684,-2.2545166015625,1.2850341796875,0.4312744140625
4.642,309,1538,1470,310,10.0,32.0,28.0,-8.11767578125,35.64453125,-21.667478561401367,-2.211669921875,0.6815185546875,0.2581787109375
4.650,309,1478,1398,311,10.0,32.0,28.0,-10.253905296325684,21.667478561401367,-24.536130905151367,-1.888916015625,0.21044921875,0.28759765625
4.663,309,1385,1315,311,10.0,32.0,28.0,12.512206077575684,2.197265625,-16.78466796875,-1.5115966796875,0.111083984375,0.432861328125
4.673,311,1198,1207,311,11.0,33.0,26.0,35.0341796875,-3.662109136581421,-4.638671875,-1.103271484375,0.09814453125,0.4765625
4.696,311,1088,1098,311,11.0,33.0,26.0,42.175289154052734,6.530761241912842,5.371093273162842,-0.6781005859375,-0.09619140625,0.3575439453125
4.696,297,963,968,310,11.0,33.0,26.0,42.175289154052734,20.507810592651367,11.474608421325684,-0.3463134765625,-0.3778076171875,0.1839599609375
4.702,309,736,877,309,11.0,33.0,26.0,48.461910247802734,29.907224655151367,15.441893577575684,-0.182861328125,-0.4189453125,0.07373046875
4.711,310,654,814,311,11.0,33.0,26.0,57.983394622802734,36.2548828125,17.63916015625,-0.1552734375,-0.2393798828125,0.054443359375
4.719,311,556,740,311,11.0,33.0,26.0,55.236812591552734,42.968746185302734,13.854979515075684,-0.1978759765625,-0.08837890625,0.0714111328125
4.732,309,450,658,310,11.0,33.0,26.0,38.57421875,49.987789154052734,3.967284917831421,-0.272216796875,0.08935546875,0.062255859375
4.742,310,451,610,311,11.0,33.0,26.0,24.414060592651367,53.649898529052734,-6.347655773162842,-0.3499755859375,0.347900390625,0.0164794921875
4.749,309,454,601,310,11.0,33.0,26.0,18.6767578125,48.767086029052734,-13.610838890075684,-0.419921875,0.5445556640625,-0.037841796875
4.771,309,451,603,310,11.0,33.0,26.0,9.09423828125,35.7666015625,-15.991209983825684,-0.48095703125,0.6077880859375,-0.0399169921875
4.772,309,451,619,309,8.0,36.0,28.0,-6.835937023162842,21.850584030151367,-12.817381858825684,-0.4796142578125,0.51123046875,0.0130615234375
4.778,309,451,629,309,8.0,36.0,28.0,-12.573241233825684,14.587401390075684,-8.1787109375,-0.4268798828125,0.322509765625,0.02685546875
4.797,310,451,645,311,8.0,36.0,28.0,0.30517578125,12.145995140075684,-3.112792730331421,-0.40380859375,0.1728515625,0.048583984375
4.801,311,477,687,310,8.0,36.0,28.0,15.991209983825684,6.835937023162842,4.45556640625,-0.416748046875,0.0762939453125,0.124755859375
4.809,311,531,725,309,8.0,36.0,28.0,20.568845748901367,-1.0986328125,12.390135765075684,-0.4478759765625,0.02001953125,0.181396484375
4.822,309,636,780,310,8.0,36.0,28.0,16.29638671875,-7.690429210662842,18.310546875,-0.5150146484375,0.0184326171875,0.212646484375
4.830,311,710,828,311,8.0,36.0,28.0,8.72802734375,-12.573241233825684,22.094724655151367,-0.6121826171875,0.078857421875,0.22412109375
4.838,309,767,875,310,8.0,36.0,28.0,0.54931640625,-15.747069358825684,26.428220748901367,-0.6968994140625,0.18896484375,0.1705322265625
4.855,309,888,969,311,8.0,36.0,28.0,-8.1787109375,-18.1884765625,32.53173828125,-0.7508544921875,0.314208984375,0.067138671875
4.860,310,992,1064,310,8.0,36.0,28.0,-18.24951171875,-24.597166061401367,37.29248046875,-0.6783447265625,0.3321533203125,0.0010986328125
4.902,311,1105,1191,310,13.0,30.0,24.0,-25.878904342651367,-36.19384765625,35.46142578125,-0.480224609375,0.2410888671875,-0.0147705078125
4.902,311,1294,1355,311,13.0,30.0,24.0,-26.000974655151367,-50.781246185302734,25.146482467651367,-0.2308349609375,0.2015380859375,0.0511474609375
4.902,309,1391,1455,311,13.0,30.0,24.0,-17.63916015625,-61.706539154052734,6.530761241912842,0.076171875,0.2431640625,0.1842041015625
4.902,311,1480,1508,296,13.0,30.0,24.0,-6.408690929412842,-60.180660247802734,-21.057126998901367,0.2806396484375,0.3126220703125,0.3505859375
4.915,310,1584,1712,311,13.0,30.0,24.0,-3.845214605331421,-46.997066497802734,-52.062984466552734,0.0882568359375,0.4337158203125,0.5167236328125
4.921,311,1648,1805,311,13.0,30.0,24.0,-20.141599655151367,-29.724119186401367,-74.70703125,-0.541259765625,0.5068359375,0.591552734375
4.928,310,1697,1965,311,13.0,30.0,24.0,-48.095699310302734,-17.9443359375,-79.833984375,-1.361083984375,0.380126953125,0.5614013671875
4.942,311,1764,2145,311,13.0,30.0,24.0,-68.9697265625,-18.00537109375,-67.3828125,-2.095703125,0.0543212890625,0.4576416015625
4.950,310,1798,2221,311,13.0,30.0,24.0,-70.98388671875,-22.521970748901367,-43.884273529052734,-2.6077880859375,-0.162841796875,0.369873046875
4.958,311,1830,2207,311,13.0,30.0,24.0,-50.109859466552734,-22.705076217651367,-15.808104515075684,-2.843017578125,0.013427734375,0.443359375
4.972,311,1848,2045,311,12.0,31.0,26.0,-21.301267623901367,-20.01953125,10.742186546325684,-2.5172119140625,0.19873046875,0.62451171875
5.004,309,1831,1949,311,12.0,31.0,26.0,-1.8310545682907104,-7.751464366912842,27.832029342651367,-1.6138916015625,0.0953369140625,0.6732177734375
5.005,311,1833,1933,311,12.0,31.0,26.0,18.06640625,16.2353515625,30.700681686401367,-0.88818359375,0.3040771484375,0.6517333984375
5.005,310,1812,1847,312,12.0,31.0,26.0,35.70556640625,37.841796875,20.935056686401367,-1.072509765625,1.0631103515625,0.6044921875
5.011,310,1750,1777,311,12.0,31.0,26.0,26.367185592651367,48.400875091552734,3.540038824081421,-1.8021240234375,1.570068359375,0.4473876953125
5.019,311,1689,1709,311,12.0,31.0,26.0,-7.629394054412842,47.729488372802734,-15.075682640075684,-2.21728515625,1.1949462890625,0.2635498046875
5.062,311,1567,1598,311,12.0,31.0,26.0,-30.761716842651367,36.62109375,-26.550291061401367,-2.1292724609375,0.38525390625,0.2281494140625
5.063,311,1478,1521,311,12.0,31.0,26.0,-19.53125,16.90673828125,-24.719236373901367,-1.80615234375,-0.0552978515625,0.406982421875
5.063,295,1386,1422,314,12.0,31.0,26.0,-19.53125,16.90673828125,-24.719236373901367,-1.45361328125,-0.0655517578125,0.5836181640625
5.063,309,1198,1284,311,12.0,31.0,26.0,29.113767623901367,2.25830078125,4.82177734375,-1.0865478515625,-0.0008544921875,0.5810546875
5.070,309,1104,1199,311,14.0,34.0,29.0,35.70556640625,14.038084983825684,18.9208984375,-0.7012939453125,-0.1246337890625,0.4202880859375
5.081,310,1005,1073,310,14.0,34.0,29.0,35.70556640625,14.038084983825684,18.9208984375,-0.38623046875,-0.360595703125,0.2061767578125
5.109,310,818,919,311,14.0,34.0,29.0,43.762203216552734,35.46142578125,28.381345748901367,-0.2132568359375,-0.3564453125,0.0504150390625
5.109,311,747,873,311,14.0,34.0,29.0,53.527828216552734,41.442867279052734,25.085447311401367,-0.170654296875,-0.0906982421875,-0.01513671875
5.110,310,636,806,311,14.0,34.0,29.0,53.527828216552734,41.442867279052734,25.085447311401367,-0.218505859375,0.105712890625,-0.0489501953125
5.123,309,523,715,311,14.0,34.0,29.0,44.555660247802734,49.865718841552734,-2.197265625,-0.3016357421875,0.2105712890625,-0.095458984375
5.130,309,483,703,311,14.0,34.0,29.0,33.99658203125,50.415035247802734,-15.319823265075684,-0.34765625,0.376953125,-0.13671875
5.138,310,493,691,309,14.0,34.0,29.0,33.99658203125,50.415035247802734,-15.319823265075684,-0.38427734375,0.530517578125,-0.1517333984375
5.153,309,490,693,310,14.0,34.0,29.0,18.9208984375,31.677244186401367,-21.545408248901367,-0.4361572265625,0.6015625,-0.1068115234375
5.160,309,496,700,310,14.0,34.0,29.0,2.624511480331421,19.6533203125,-15.197752952575684,-0.4339599609375,0.5631103515625,0.0054931640625
5.168,309,506,722,311,10.0,32.0,25.0,2.624511480331421,19.6533203125,-15.197752952575684,-0.3809814453125,0.3505859375,0.1153564453125
5.185,311,561,765,310,10.0,32.0,25.0,-15.380858421325684,2.990722417831421,-5.126952648162842,-0.3524169921875,0.0802001953125,0.1932373046875
5.209,309,614,793,311,10.0,32.0,25.0,-7.446288585662842,-2.868652105331421,-2.13623046875,-0.403076171875,-0.0517578125,0.22900390625
5.210,311,664,822,310,10.0,32.0,25.0,-7.446288585662842,-2.868652105331421,-2.13623046875,-0.5260009765625,-0.035400390625,0.194580078125
5.212,309,756,868,305,10.0,32.0,25.0,4.2724609375,-9.82666015625,11.291502952575684,-0.6614990234375,0.052490234375,0.1102294921875
5.221,311,815,916,311,10.0,32.0,25.0,0.4272460639476776,-12.573241233825684,20.446775436401367,-0.8087158203125,0.1590576171875,0.037841796875
5.228,311,869,964,311,10.0,32.0,25.0,0.4272460639476776,-12.573241233825684,20.446775436401367,-0.8880615234375,0.2269287109375,0.0323486328125
5.242,309,989,1073,311,10.0,32.0,25.0,-23.925779342651367,-32.470703125,36.7431640625,-0.7872314453125,0.181884765625,0.0628662109375
5.251,310,1088,1153,311,10.0,32.0,25.0,-34.60693359375,-46.997066497802734,37.65869140625,-0.581298828125,0.0789794921875,0.0933837890625
5.258,310,1188,1261,311,10.0,32.0,25.0,-34.60693359375,-46.997066497802734,37.65869140625,-0.2998046875,0.052734375,0.155029296875
5.272,311,1345,1401,311,9.0,33.0,30.0,-20.568845748901367,-63.293453216552734,21.301267623901367,0.031982421875,0.1094970703125,0.2388916015625
5.280,311,1428,1503,311,9.0,33.0,30.0,-11.352538108825684,-58.044429779052734,1.2817381620407104,0.2537841796875,0.2100830078125,0.322265625
5.320,311,1627,1773,311,9.0,33.0,30.0,-33.26416015625,-20.568845748901367,-51.940914154052734,-0.480712890625,0.493408203125,0.3365478515625
5.320,310,1684,1918,311,9.0,33.0,30.0,-56.213375091552734,-5.981444835662842,-65.73486328125,-1.314208984375,0.5531005859375,0.2308349609375
5.321,297,1716,2026,311,9.0,33.0,30.0,-56.213375091552734,-5.981444835662842,-65.73486328125,-2.076904296875,0.40087890625,0.17578125
5.332,310,1753,2156,311,9.0,33.0,30.0,-59.326168060302734,-22.033689498901367,-50.659175872802734,-2.6317138671875,0.310791015625,0.2757568359375
5.341,311,1774,2117,309,9.0,33.0,30.0,-51.452632904052734,-34.24072265625,-32.40966796875,-2.8514404296875,0.265380859375,0.535400390625
5.349,310,1768,2041,312,9.0,33.0,30.0,-51.452632904052734,-34.24072265625,-32.40966796875,-2.4129638671875,0.0181884765625,0.779296875
5.363,311,1745,1952,311,14.0,31.0,27.0,-28.503416061401367,-19.47021484375,2.44140625,-1.4246826171875,-0.283935546875,0.821044921875
5.371,310,1748,1925,311,14.0,31.0,27.0,17.51708984375,2.3193359375,11.535643577575684,-0.7794189453125,-0.001220703125,0.8074951171875
5.378,310,1730,1874,311,14.0,31.0,27.0,17.51708984375,2.3193359375,11.535643577575684,-1.0670166015625,0.8758544921875,0.7845458984375
5.424,311,1643,1770,311,14.0,31.0,27.0,42.236324310302734,29.479978561401367,4.57763671875,-1.78173828125,1.341064453125,0.563720703125
5.424,295,1577,1686,311,14.0,31.0,27.0,-1.4038084745407104,38.2080078125,-7.629394054412842,-2.15869140625,0.9774169921875,0.26318359375
5.424,311,1523,1590,296,14.0,31.0,27.0,-1.4038084745407104,38.2080078125,-7.629394054412842,-2.0772705078125,0.356689453125,0.14013671875
5.424,310,1391,1484,311,14.0,31.0,27.0,-16.78466796875,16.17431640625,-12.329100608825684,-1.76416015625,0.026611328125,0.2442626953125
5.431,310,1294,1402,311,14.0,31.0,27.0,6.591796398162842,3.601073980331421,-3.234863042831421,-1.400634765625,-0.00048828125,0.4107666015625
5.438,310,1195,1328,311,14.0,31.0,27.0,6.591796398162842,3.601073980331421,-3.234863042831421,-1.0418701171875,0.01416015625,0.4683837890625
5.452,309,1048,1192,309,14.0,31.0,27.0,36.68212890625,10.925292015075684,15.197752952575684,-0.7060546875,-0.1134033203125,0.392578125
5.461,311,943,1050,311,11.0,32.0,30.0,42.053218841552734,20.751951217651367,20.385740280151367,-0.434814453125,-0.275390625,0.2479248046875
5.468,310,844,989,311,11.0,32.0,30.0,42.053218841552734,20.751951217651367,20.385740280151367,-0.262939453125,-0.2548828125,0.13037109375
5.482,309,693,884,310,11.0,32.0,30.0,50.964351654052734,39.306640625,22.094724655151367,-0.2027587890625,-0.088134765625,0.0816650390625
5.492,309,627,819,314,11.0,32.0,30.0,48.217769622802734,44.860836029052734,15.686034202575684,-0.22265625,0.032470703125,0.0399169921875
5.498,310,575,773,310,11.0,32.0,30.0,48.217769622802734,44.860836029052734,15.686034202575684,-0.274658203125,0.1236572265625,0.0001220703125
5.523,310,493,702,311,11.0,32.0,30.0,28.625486373901367,50.109859466552734,-4.94384765625,-0.3514404296875,0.3297119140625,-0.034423828125
5.523,295,479,695,310,11.0,32.0,30.0,22.705076217651367,42.907711029052734,-10.620116233825684,-0.402587890625,0.51416015625,-0.0648193359375
5.535,310,502,697,311,11.0,32.0,30.0,22.705076217651367,42.907711029052734,-10.620116233825684,-0.45458984375,0.5360107421875,-0.0709228515625
5.542,310,527,711,310,11.0,32.0,30.0,0.1220703050494194,20.385740280151367,-11.718749046325684,-0.52734375,0.46923828125,-0.032958984375
5.550,309,533,724,311,11.0,32.0,30.0,0.1220703050494194,20.385740280151367,-11.718749046325684,-0.563232421875,0.3365478515625,0.0418701171875
5.559,309,555,746,311,12.0,33.0,27.0,-5.310058116912842,11.230467796325684,-6.774901866912842,-0.563232421875,0.3365478515625,0.0418701171875
5.572,310,617,784,310,12.0,33.0,27.0,-0.1831054538488388,-5.187987804412842,2.44140625,-0.57177734375,0.031982421875,0.1610107421875
5.580,310,654,810,310,12.0,33.0,27.0,-0.1831054538488388,-5.187987804412842,2.44140625,-0.5838623046875,-0.05224609375,0.1575927734375
5.589,310,708,846,311,12.0,33.0,27.0,3.112792730331421,-10.131834983825684,6.652831554412842,-0.5838623046875,-0.05224609375,0.1575927734375
5.607,310,803,939,311,12.0,33.0,27.0,8.36181640625,-17.27294921875,21.179197311401367,-0.6722412109375,0.0267333984375,0.0501708984375
5.623,309,861,982,310,12.0,33.0,27.0,8.36181640625,-17.27294921875,21.179197311401367,-0.7147216796875,0.15478515625,0.02880859375
5.624,311,939,1022,309,12.0,33.0,27.0,8.72802734375,-24.108884811401367,30.822751998901367,-0.7147216796875,0.15478515625,0.02880859375
5.632,310,1101,1155,310,12.0,33.0,27.0,-15.747069358825684,-49.255367279052734,40.527339935302734,-0.4786376953125,0.20361328125,0.1170654296875
5.644,310,1206,1262,313,12.0,33.0,27.0,-15.747069358825684,-49.255367279052734,40.527339935302734,-0.166748046875,0.15625,0.1575927734375
5.648,309,1306,1355,310,12.0,33.0,27.0,-28.747556686401367,-60.791011810302734,36.92626953125,-0.166748046875,0.15625,0.1575927734375
5.662,309,1464,1550,308,11.0,32.0,27.0,-13.549803733825684,-62.072750091552734,0.7324218153953552,0.3765869140625,0.24755859375,0.3182373046875
5.671,309,1531,1671,311,11.0,32.0,27.0,-13.549803733825684,-62.072750091552734,0.7324218153953552,0.181640625,0.4066162109375,0.406494140625
5.679,311,1605,1792,311,11.0,32.0,27.0,-3.051757574081421,-47.607418060302734,-32.1044921875,0.181640625,0.4066162109375,0.406494140625
5.692,311,1676,2049,309,11.0,32.0,27.0,-51.025386810302734,-8.23974609375,-75.927734375,-1.3946533203125,0.4525146484375,0.3455810546875
5.729,310,1715,2153,311,11.0,32.0,27.0,-51.025386810302734,-8.23974609375,-75.927734375,-2.2659912109375,0.234619140625,0.238525390625
5.730,311,1757,2215,311,11.0,32.0,27.0,-76.96533203125,-2.0751953125,-67.9931640625,-2.2659912109375,0.234619140625,0.238525390625
5.730,309,1775,2247,311,11.0,32.0,27.0,-66.7724609375,-18.06640625,-21.728513717651367,-2.9154052734375,0.0452880859375,0.3582763671875
5.731,310,1778,2178,311,11.0,32.0,27.0,-66.7724609375,-18.06640625,-21.728513717651367,-2.435302734375,-0.0042724609375,0.6314697265625
5.738,311,1811,2116,311,11.0,32.0,27.0,-47.424312591552734,-27.832029342651367,2.563476324081421,-2.435302734375,-0.0042724609375,0.6314697265625
5.756,310,1794,1985,311,14.0,31.0,26.0,7.141112804412842,-6.774901866912842,33.8134765625,-0.7275390625,0.1483154296875,0.88916015625
5.761,311,1785,1968,311,14.0,31.0,26.0,7.141112804412842,-6.774901866912842,33.8134765625,-0.8369140625,0.9189453125,0.8375244140625
5.769,310,1750,1918,311,14.0,31.0,26.0,32.2265625,17.822265625,32.71484375,-0.8369140625,0.9189453125,0.8375244140625
5.784,311,1681,1803,311,14.0,31.0,26.0,-6.164550304412842,49.194332122802734,-5.981444835662842,-2.1407470703125,1.10107421875,0.240234375
5.791,311,1630,1697,311,14.0,31.0,26.0,-6.164550304412842,49.194332122802734,-5.981444835662842,-2.2177734375,0.400390625,0.06005859375
5.799,311,1572,1628,311,14.0,31.0,26.0,-29.479978561401367,42.968746185302734,-21.118162155151367,-2.2177734375,0.400390625,0.06005859375
5.824,311,1437,1492,311,14.0,31.0,26.0,1.2817381620407104,0.1831054538488388,-8.60595703125,-1.5567626953125,0.0115966796875,0.3768310546875
5.824,310,1345,1417,311,14.0,31.0,26.0,1.2817381620407104,0.1831054538488388,-8.60595703125,-1.108642578125,0.0394287109375,0.4847412109375
5.835,307,1241,1355,310,14.0,31.0,26.0,18.310546875,-7.385253429412842,6.408690929412842,-1.108642578125,0.0394287109375,0.4847412109375
5.844,309,1117,1245,311,14.0,31.0,26.0,30.822751998901367,9.58251953125,27.343748092651367,-0.3787841796875,-0.2801513671875,0.304443359375
5.853,310,1043,1159,311,11.0,30.0,30.0,30.822751998901367,9.58251953125,27.343748092651367,-0.2425537109375,-0.3544921875,0.1954345703125
5.859,311,981,1066,311,11.0,30.0,30.0,34.36279296875,19.04296875,32.470703125,-0.2425537109375,-0.3544921875,0.1954345703125
5.872,309,871,971,311,11.0,30.0,30.0,40.588375091552734,35.46142578125,33.99658203125,-0.28173828125,0.0992431640625,0.1124267578125
5.881,309,823,927,311,11.0,30.0,30.0,40.588375091552734,35.46142578125,33.99658203125,-0.3333740234375,0.2373046875,0.0394287109375
5.889,309,793,909,311,11.0,30.0,30.0,36.7431640625,41.564937591552734,25.268552780151367,-0.3333740234375,0.2373046875,0.0394287109375
5.926,310,724,861,311,11.0,30.0,30.0,23.376462936401367,41.748043060302734,-0.4272460639476776,-0.44482421875,0.40966796875,-0.0867919921875
5.926,309,745,874,311,11.0,30.0,30.0,22.277830123901367,30.883787155151367,-5.859374523162842,-0.44482421875,0.40966796875,-0.0867919921875
5.932,310,770,886,309,11.0,30.0,30.0,11.047362327575684,7.690429210662842,-1.5258787870407104,-0.565673828125,0.4285888671875,0.0291748046875
5.940,306,781,907,311,11.0,30.0,30.0,11.047362327575684,7.690429210662842,-1.5258787870407104,-0.6202392578125,0.3515625,0.114013671875
5.948,313,806,928,310,11.0,32.0,28.0,1.7089842557907104,-0.7934569716453552,3.601073980331421,-0.6202392578125,0.3515625,0.114013671875
5.962,309,854,968,311,11.0,32.0,28.0,-6.896972179412842,-12.268065452575684,10.192870140075684,-0.611572265625,0.0703125,0.196044921875
5.971,311,904,989,311,11.0,32.0,28.0,-6.896972179412842,-12.268065452575684,10.192870140075684,-0.6842041015625,0.02099609375,0.1607666015625
5.981,311,938,1009,310,11.0,32.0,28.0,-3.662109136581421,-13.854979515075684,14.038084983825684,-0.6842041015625,0.02099609375,0.1607666015625
5.992,309,1022,1088,311,11.0,32.0,28.0,-8.85009765625,-20.629880905151367,27.709959030151367,-0.6895751953125,0.062744140625,0.0777587890625
6.000,309,1092,1141,310,11.0,32.0,28.0,-8.85009765625,-20.629880905151367,27.709959030151367,-0.5831298828125,0.1014404296875,0.074462890625
6.008,309,1173,1213,311,11.0,32.0,28.0,-16.9677734375,-28.747556686401367,34.60693359375,-0.5831298828125,0.1014404296875,0.074462890625
6.030,310,1343,1335,309,11.0,32.0,28.0,-20.507810592651367,-39.48974609375,38.4521484375,-0.0736083984375,0.2459716796875,0.1800537109375
6.032,296,1439,1426,311,11.0,32.0,28.0,-22.583005905151367,-49.316402435302734,35.2783203125,0.30029296875,0.260986328125,0.2174072265625
6.038,310,1534,1533,311,11.0,32.0,28.0,-26.123044967651367,-53.466793060302734,21.118162155151367,0.30029296875,0.260986328125,0.2174072265625
6.052,310,1643,1703,307,10.0,32.0,24.0,-27.770994186401367,-49.133296966552734,-4.5166015625,0.177978515625,0.3958740234375,0.2474365234375
6.060,311,1684,1870,311,10.0,32.0,24.0,-30.273435592651367,-37.90283203125,-35.82763671875,0.177978515625,0.3958740234375,0.2474365234375
6.069,309,1724,2014,311,10.0,32.0,24.0,-40.954586029052734,-24.719236373901367,-61.645503997802734,-0.7613525390625,0.597412109375,0.233642578125
6.082,311,1755,2206,311,10.0,32.0,24.0,-61.462398529052734,-15.930174827575684,-71.6552734375,-2.6435546875,0.3861083984375,0.2762451171875
6.095,309,1791,2238,311,10.0,32.0,24.0,-85.44921112060547,-17.88330078125,-63.232418060302734,-2.6435546875,0.3861083984375,0.2762451171875
6.099,310,1812,2261,311,10.0,32.0,24.0,-99.06005096435547,-28.076169967651367,-42.419429779052734,-2.9112548828125,0.1409912109375,0.3653564453125
6.131,311,1846,2197,311,10.0,32.0,24.0,-88.25682830810547,-38.63525390625,-19.287109375,-1.8836669921875,-0.1319580078125,0.9288330078125
6.131,311,1837,2113,311,10.0,32.0,24.0,-53.161617279052734,-41.076656341552734,-2.13623046875,-1.8836669921875,-0.1319580078125,0.9288330078125
6.131,309,1778,1941,310,10.0,32.0,24.0,-5.432128429412842,-23.925779342651367,4.21142578125,-0.999755859375,-0.0098876953125,1.0745849609375
6.142,311,1785,1961,311,12.0,32.0,26.0,38.39111328125,8.85009765625,-2.25830078125,-0.95751953125,1.01904296875,0.726318359375
6.156,310,1745,1911,311,12.0,32.0,26.0,50.842281341552734,43.212886810302734,-18.798828125,-0.95751953125,1.01904296875,0.726318359375
6.159,311,1714,1823,312,12.0,32.0,26.0,23.803709030151367,64.3310546875,-35.5224609375,-1.7587890625,1.0042724609375,0.3365478515625
6.172,311,1607,1624,311,12.0,32.0,26.0,-16.11328125,60.241695404052734,-40.0390625,-2.3382568359375,-0.03271484375,0.0439453125
6.181,310,1538,1545,310,12.0,32.0,26.0,-33.87451171875,36.31591796875,-28.076169967651367,-2.3382568359375,-0.03271484375,0.0439453125
6.188,310,1478,1464,311,12.0,32.0,26.0,-22.583005905151367,8.6669921875,-4.5166015625,-1.990234375,-0.288818359375,0.2408447265625
6.207,309,1371,1316,310,12.0,32.0,26.0,-4.0283203125,-9.033203125,24.414060592651367,-0.945556640625,-0.2166748046875,0.5274658203125
6.232,311,1315,1254,311,12.0,32.0,26.0,11.962889671325684,-14.343260765075684,52.368160247802734,-0.945556640625,-0.2166748046875,0.5274658203125
6.233,311,1239,1196,297,12.0,32.0,26.0,26.306150436401367,-11.047362327575684,70.25146484375,-0.4437255859375,-0.1240234375,0.509765625
6.233,311,1092,1078,297,12.0,32.0,26.0,39.0625,0.1831054538488388,69.4580078125,-0.088134765625,0.1180419921875,0.21630859375
6.240,310,990,985,310,13.0,31.0,28.0,51.025386810302734,16.7236328125,52.856441497802734,-0.088134765625,0.1180419921875,0.21630859375
6.249,311,907,938,310,13.0,31.0,28.0,61.828609466552734,29.968259811401367,31.860349655151367,-0.1917724609375,0.2767333984375,0.03466796875
6.262,310,792,871,311,13.0,31.0,28.0,64.51416015625,33.935546875,13.610838890075684,-0.4454345703125,0.254150390625,-0.1788330078125
6.271,310,724,833,311,13.0,31.0,28.0,55.908199310302734,31.555173873901367,0.54931640625,-0.4454345703125,0.254150390625,-0.1788330078125
6.278,310,667,803,311,13.0,31.0,28.0,42.114253997802734,26.245115280151367,-5.737304210662842,-0.5150146484375,0.2652587890625,-0.1676025390625
6.292,309,667,808,310,13.0,31.0,28.0,30.456541061401367,20.324705123901367,-6.469726085662842,-0.5391845703125,0.34423828125,-0.0537109375
6.301,311,669,805,310,13.0,31.0,28.0,21.423337936401367,15.747069358825684,-5.432128429412842,-0.5391845703125,0.34423828125,-0.0537109375
6.311,311,679,806,310,13.0,31.0,28.0,12.145995140075684,11.901854515075684,-3.479003667831421,-0.5980224609375,0.32666015625,0.0450439453125
6.325,311,710,820,311,13.0,31.0,28.0,3.601073980331421,7.446288585662842,1.03759765625,-0.526123046875,0.2218017578125,0.221435546875
6.338,310,726,859,309,13.0,31.0,28.0,-2.38037109375,2.929687261581421,7.141112804412842,-0.526123046875,0.2218017578125,0.221435546875
6.339,295,736,898,310,7.0,32.0,24.0,-5.798339366912842,-1.3427733182907104,12.084959983825684,-0.5006103515625,0.1546630859375,0.271728515625
6.352,311,827,939,311,7.0,32.0,24.0,-8.23974609375,-5.371093273162842,15.258788108825684,-0.6962890625,0.0789794921875,0.2275390625
6.367,309,873,957,310,7.0,32.0,24.0,-8.23974609375,-9.765625,19.95849609375,-0.6962890625,0.0789794921875,0.2275390625
6.370,310,916,982,311,7.0,32.0,24.0,-4.33349609375,-16.9677734375,28.503416061401367,-0.7845458984375,0.123046875,0.1900634765625
6.383,311,1025,1104,311,7.0,32.0,24.0,-0.9765624403953552,-26.428220748901367,38.39111328125,-0.486083984375,0.1136474609375,0.16455078125
6.390,311,1130,1199,311,7.0,32.0,24.0,-2.0751953125,-33.75244140625,45.898433685302734,-0.486083984375,0.1136474609375,0.16455078125
6.399,311,1236,1246,311,7.0,32.0,24.0,-6.103515148162842,-40.10009765625,49.072261810302734,-0.225341796875,0.110107421875,0.1578369140625
6.414,311,1377,1367,311,7.0,32.0,24.0,-13.732909202575684,-47.607418060302734,44.616695404052734,0.478515625,0.199951171875,0.162353515625
6.441,310,1478,1440,311,7.0,32.0,24.0,-24.108884811401367,-51.940914154052734,28.686521530151367,0.478515625,0.199951171875,0.162353515625
6.441,311,1567,1567,311,7.0,32.0,24.0,-30.517576217651367,-48.217769622802734,0.0,0.632568359375,0.306640625,0.23828125
6.442,309,1658,1750,310,12.0,31.0,28.0,-31.799314498901367,-36.31591796875,-36.92626953125,-0.7569580078125,0.6246337890625,0.31787109375
6.451,311,1689,1937,311,12.0,31.0,28.0,-41.259761810302734,-22.094724655151367,-68.115234375,-0.7569580078125,0.6246337890625,0.31787109375
6.459,310,1734,2061,309,12.0,31.0,28.0,-63.476558685302734,-11.474608421325684,-78.91845703125,-1.82275390625,0.4920654296875,0.217041015625
6.472,309,1766,2203,311,12.0,31.0,28.0,-82.82469940185547,-13.061522483825684,-65.5517578125,-3.0567626953125,0.1585693359375,0.401611328125
6.481,311,1796,2200,311,12.0,31.0,28.0,-89.47753143310547,-30.334470748901367,-35.5224609375,-3.0567626953125,0.1585693359375,0.401611328125
6.489,310,1819,2116,311,12.0,31.0,28.0,-77.0263671875,-49.926753997802734,-2.3193359375,-2.8582763671875,-0.002685546875,0.794677734375
6.502,311,1834,1989,311,12.0,31.0,28.0,-45.471187591552734,-53.283687591552734,23.010251998901367,-0.982177734375,-0.2080078125,1.073974609375
6.511,311,1820,1904,311,12.0,31.0,28.0,-2.38037109375,-30.029294967651367,34.912109375,-0.982177734375,-0.2080078125,1.073974609375
6.548,311,1808,1894,310,12.0,31.0,28.0,39.97802734375,5.187987804412842,32.65380859375,-0.559326171875,0.5531005859375,0.9327392578125
6.549,310,1742,1818,311,12.0,31.0,28.0,50.842281341552734,36.1328125,18.12744140625,-1.671630859375,1.5029296875,0.3167724609375
6.549,311,1691,1743,311,6.0,31.0,29.0,22.399900436401367,53.955074310302734,-2.807616949081421,-1.671630859375,1.5029296875,0.3167724609375
6.550,311,1627,1648,311,6.0,31.0,29.0,-16.4794921875,50.109859466552734,-18.6767578125,-2.190673828125,0.9649658203125,0.1102294921875
6.562,311,1577,1572,311,6.0,31.0,29.0,-35.09521484375,30.212400436401367,-21.118162155151367,-2.216796875,0.2271728515625,0.1048583984375
6.571,311,1531,1481,311,6.0,31.0,29.0,-22.949216842651367,5.187987804412842,-11.291502952575684,-1.9261474609375,-0.10546875,0.329345703125
6.583,310,1473,1398,312,6.0,31.0,29.0,3.234863042831421,-14.282225608825684,5.432128429412842,-1.5123291015625,-0.0382080078125,0.6063232421875
6.593,310,1384,1267,311,6.0,31.0,29.0,23.620603561401367,-19.47021484375,24.169919967651367,-1.02880859375,0.0494384765625,0.6962890625
6.601,309,1315,1213,311,6.0,31.0,29.0,33.26416015625,-10.986327171325684,39.1845703125,-0.5289306640625,0.005615234375,0.5714111328125
6.609,311,1248,1173,311,6.0,31.0,29.0,36.2548828125,3.479003667831421,42.724605560302734,-0.16552734375,-0.0931396484375,0.3502197265625
6.644,311,1117,1051,311,6.0,31.0,29.0,40.283199310302734,18.310546875,32.958984375,-0.065673828125,-0.08984375,0.157470703125
6.645,309,1050,984,310,6.0,31.0,29.0,47.119136810302734,30.944822311401367,17.63916015625,-0.194091796875,0.0836181640625,0.046142578125
6.645,309,996,943,311,10.0,31.0,30.0,48.034664154052734,39.4287109375,5.249022960662842,-0.403564453125,0.24365234375,-0.0283203125
6.653,309,916,884,311,10.0,31.0,30.0,40.10009765625,43.212886810302734,-1.8920897245407104,-0.55859375,0.267333984375,-0.0855712890625
6.661,309,875,873,310,10.0,31.0,30.0,31.372068405151367,42.053218841552734,-5.798339366912842,-0.6083984375,0.25146484375,-0.1043701171875
6.669,310,849,876,311,10.0,31.0,30.0,25.817869186401367,36.4990234375,-8.7890625,-0.5865478515625,0.2674560546875,-0.0931396484375
6.689,310,828,873,311,10.0,31.0,30.0,23.132322311401367,28.015134811401367,-10.986327171325684,-0.5499267578125,0.3232421875,-0.0318603515625
6.691,311,827,873,311,10.0,31.0,30.0,21.667478561401367,20.01953125,-11.779784202575684,-0.523681640625,0.348876953125,0.0726318359375
6.699,309,822,886,311,10.0,31.0,30.0,17.51708984375,14.526366233825684,-11.901854515075684,-0.5076904296875,0.311279296875,0.1669921875
6.713,309,823,913,309,10.0,31.0,30.0,11.962889671325684,10.681151390075684,-10.864256858825684,-0.5174560546875,0.2747802734375,0.22412109375
6.722,307,835,922,311,10.0,31.0,30.0,7.141112804412842,6.225585460662842,-7.568358898162842,-0.554443359375,0.2593994140625,0.2767333984375
6.748,309,856,938,309,10.0,31.0,30.0,0.2441406100988388,-0.1831054538488388,-2.990722417831421,-0.5970458984375,0.2113037109375,0.3197021484375
6.749,309,904,976,309,13.0,35.0,32.0,-8.36181640625,-5.676269054412842,1.8310545682907104,-0.6700439453125,0.1402587890625,0.3028564453125
6.751,310,912,978,310,13.0,35.0,32.0,-12.145995140075684,-9.09423828125,7.995604991912842,-0.7911376953125,0.1126708984375,0.2559814453125
6.759,311,963,1018,311,13.0,35.0,32.0,-9.033203125,-13.366698265075684,17.333984375,-0.9158935546875,0.12939453125,0.23583984375
6.772,309,1050,1112,310,13.0,35.0,32.0,-4.638671875,-20.202634811401367,29.357908248901367,-0.8992919921875,0.10986328125,0.24951171875
6.781,309,1130,1178,309,13.0,35.0,32.0,-3.234863042831421,-27.221677780151367,39.12353515625,-0.670166015625,0.02294921875,0.225830078125
6.794,310,1222,1228,311,13.0,35.0,32.0,-2.807616949081421,-32.3486328125,41.076656341552734,-0.324462890625,-0.0289306640625,0.16650390625
6.802,310,1362,1313,311,13.0,35.0,32.0,1.2817381620407104,-36.68212890625,33.87451171875,0.0517578125,0.048583984375,0.1533203125
6.810,311,1428,1400,311,13.0,35.0,32.0,6.347655773162842,-37.53662109375,17.2119140625,0.380859375,0.228515625,0.134521484375
6.819,310,1516,1481,310,13.0,35.0,32.0,2.685546636581421,-31.433103561401367,-7.751464366912842,0.5340576171875,0.4310302734375,0.140625
6.862,310,1632,1666,310,14.0,33.0,24.0,-12.145995140075684,-21.789548873901367,-34.60693359375,0.338623046875,0.6749267578125,0.27197265625
6.870,311,1665,1757,311,14.0,33.0,24.0,-41.259761810302734,-14.099120140075684,-54.260250091552734,-0.3258056640625,0.8489990234375,0.4482421875
6.873,310,1698,1904,311,14.0,33.0,24.0,-86.73094940185547,-12.634276390075684,-60.791011810302734,-1.2578125,0.6085205078125,0.53662109375
6.885,311,1748,2069,311,14.0,33.0,24.0,-125.36620330810547,-18.06640625,-52.368160247802734,-2.0635986328125,-0.0474853515625,0.4981689453125
6.894,311,1783,2126,310,14.0,33.0,24.0,-118.95751190185547,-23.925779342651367,-32.3486328125,-2.527099609375,-0.5126953125,0.3843994140625
6.895,311,1819,2155,311,14.0,33.0,24.0,-62.805171966552734,-25.939939498901367,-7.263183116912842,-2.5880126953125,-0.3970947265625,0.36474609375
6.900,310,1852,2066,311,14.0,33.0,24.0,0.30517578125,-26.489255905151367,17.822265625,-2.298583984375,0.142822265625,0.560302734375
6.900,297,1852,2014,310,14.0,33.0,24.0,30.395505905151367,-23.620603561401367,36.1328125,-1.71337890625,0.637451171875,0.7705078125
6.909,311,1837,1912,311,14.0,33.0,24.0,27.526853561401367,-5.187987804412842,39.0625,-1.0965576171875,0.7833251953125,0.721923828125
6.922,310,1808,1918,311,14.0,33.0,24.0,17.7001953125,25.390623092651367,25.146482467651367,-0.8553466796875,0.8050537109375,0.5191650390625
6.938,309,1778,1883,311,9.0,32.0,28.0,13.061522483825684,46.630855560302734,4.2724609375,-1.217529296875,0.902099609375,0.380126953125
6.939,310,1733,1795,297,9.0,32.0,28.0,8.60595703125,46.142574310302734,-11.108397483825684,-1.9019775390625,0.9620361328125,0.3636474609375
6.953,311,1622,1730,311,9.0,32.0,28.0,-1.03759765625,29.602048873901367,-14.953612327575684,-2.264404296875,0.7227783203125,0.4329833984375
6.962,311,1553,1659,312,9.0,32.0,28.0,-6.958007335662842,10.803221702575684,-9.8876953125,-2.118408203125,0.2755126953125,0.5316162109375
6.969,311,1473,1578,311,9.0,32.0,28.0,6.347655773162842,-5.493163585662842,0.1220703050494194,-1.7039794921875,-0.00537109375,0.62353515625
6.982,310,1328,1452,311,9.0,32.0,28.0,35.94970703125,-14.831542015075684,14.282225608825684,-1.24853515625,-0.031005859375,0.618408203125
6.997,310,1243,1348,311,9.0,32.0,28.0,63.049312591552734,-12.145995140075684,30.639646530151367,-0.8226318359375,-0.002197265625,0.4891357421875
7.006,296,1185,1263,311,9.0,32.0,28.0,72.20458984375,-0.8544921278953552,43.640132904052734,-0.4471435546875,-0.114990234375,0.3123779296875
7.013,311,1043,1125,311,9.0,32.0,28.0,65.91796875,13.366698265075684,47.912593841552734,-0.180908203125,-0.2530517578125,0.16064453125
7.021,311,964,1034,312,9.0,32.0,28.0,59.265132904052734,26.062009811401367,42.419429779052734,-0.0648193359375,-0.136474609375,0.069580078125
7.029,308,912,978,310,8.0,34.0,28.0,58.776851654052734,36.9873046875,27.770994186401367,-0.1234130859375,0.126220703125,0.0230712890625
7.050,310,806,909,310,8.0,34.0,28.0,55.603023529052734,45.288082122802734,6.835937023162842,-0.3076171875,0.313720703125,-0.015380859375
7.051,311,756,840,309,8.0,34.0,28.0,44.982906341552734,48.645015716552734,-12.023924827575684,-0.490234375,0.468505859375,-0.0994873046875
7.059,310,747,858,311,8.0,34.0,28.0,34.1796875,47.119136810302734,-21.789548873901367,-0.550537109375,0.567626953125,-0.1949462890625
7.073,310,736,858,311,8.0,34.0,28.0,27.832029342651367,39.00146484375,-23.254392623901367,-0.54248046875,0.595703125,-0.2220458984375
7.081,309,721,848,311,8.0,34.0,28.0,19.71435546875,25.390623092651367,-19.83642578125,-0.5701904296875,0.5970458984375,-0.13916015625
7.089,311,710,858,309,8.0,34.0,28.0,3.906249761581421,10.742186546325684,-14.648436546325684,-0.560546875,0.50732421875,0.03369140625
7.117,310,721,871,311,8.0,34.0,28.0,-15.136717796325684,0.1220703050494194,-11.718749046325684,-0.5008544921875,0.30419921875,0.19091796875
7.117,297,741,874,311,8.0,34.0,28.0,-26.245115280151367,-5.432128429412842,-11.169432640075684,-0.477294921875,0.09423828125,0.3087158203125
7.120,309,770,916,311,8.0,34.0,28.0,-24.780271530151367,-7.751464366912842,-9.33837890625,-0.557861328125,0.00244140625,0.35791015625
7.139,310,805,953,311,9.0,35.0,31.0,-16.845703125,-7.141112804412842,-4.08935546875,-0.72021484375,0.048828125,0.326904296875
7.153,309,832,976,311,9.0,35.0,31.0,-12.512206077575684,-5.615233898162842,2.44140625,-0.8343505859375,0.125244140625,0.2762451171875
7.154,310,873,1009,311,9.0,35.0,31.0,-15.502928733825684,-5.371093273162842,8.97216796875,-0.8701171875,0.15966796875,0.2337646484375
7.164,311,982,1107,311,9.0,35.0,31.0,-19.95849609375,-9.033203125,16.78466796875,-0.83056640625,0.1669921875,0.215087890625
7.171,311,1071,1196,311,9.0,35.0,31.0,-18.98193359375,-17.63916015625,24.353025436401367,-0.6695556640625,0.15869140625,0.2147216796875
7.179,309,1170,1251,311,9.0,35.0,31.0,-13.000487327575684,-27.893064498901367,25.939939498901367,-0.3968505859375,0.1346435546875,0.1842041015625
7.193,309,1338,1351,312,9.0,35.0,31.0,-8.11767578125,-36.0107421875,18.00537109375,-0.019775390625,0.140625,0.142822265625
7.201,311,1411,1422,311,9.0,35.0,31.0,-6.591796398162842,-39.48974609375,-0.4882812201976776,0.4000244140625,0.2313232421875,0.115234375
7.209,310,1485,1508,311,9.0,35.0,31.0,-5.249022960662842,-34.3017578125,-31.372068405151367,0.673828125,0.3831787109375,0.1317138671875
7.224,311,1584,1674,311,8.0,32.0,33.0,-7.019042491912842,-21.179197311401367,-68.42041015625,0.544677734375,0.6236572265625,0.2557373046875
7.233,310,1628,1821,310,8.0,32.0,33.0,-24.230955123901367,-10.131834983825684,-96.37450408935547,-0.1951904296875,0.89404296875,0.4293212890625
7.265,310,1646,2009,310,8.0,32.0,33.0,-58.837886810302734,-9.58251953125,-105.95702362060547,-1.3521728515625,0.846435546875,0.52685546875
7.268,311,1689,2245,311,8.0,32.0,33.0,-100.76903533935547,-18.310546875,-97.35106658935547,-2.3631591796875,0.223876953125,0.486328125
7.269,310,1676,2273,311,8.0,32.0,33.0,-127.99071502685547,-25.512693405151367,-72.93701171875,-2.867919921875,-0.57958984375,0.3377685546875
7.269,311,1745,2334,311,8.0,32.0,33.0,-109.19188690185547,-25.024412155151367,-39.12353515625,-2.849365234375,-0.836181640625,0.2860107421875
7.283,311,1785,2252,311,8.0,32.0,33.0,-47.302242279052734,-25.451658248901367,-5.310058116912842,-2.37646484375,-0.46435546875,0.499267578125
7.291,311,1777,2186,311,8.0,32.0,33.0,14.282225608825684,-25.573728561401367,20.568845748901367,-1.52783203125,-0.002197265625,0.779296875
7.298,310,1763,2108,312,8.0,32.0,33.0,46.752925872802734,-8.72802734375,31.616209030151367,-0.8302001953125,0.4273681640625,0.874267578125
7.313,311,1745,2107,311,8.0,32.0,33.0,47.546382904052734,23.132322311401367,26.123044967651367,-0.7933349609375,0.9049072265625,0.74462890625
7.338,309,1716,2047,311,11.0,30.0,30.0,22.155759811401367,50.537105560302734,10.375975608825684,-1.343994140625,1.2208251953125,0.4727783203125
7.338,311,1671,1981,311,11.0,30.0,30.0,-10.864256858825684,56.396480560302734,-5.798339366912842,-1.96142578125,1.1134033203125,0.2362060546875
7.360,311,1577,1798,311,11.0,30.0,30.0,-29.663084030151367,40.222164154052734,-14.587401390075684,-2.15673828125,0.594482421875,0.1744384765625
7.361,310,1512,1698,298,11.0,30.0,30.0,-25.451658248901367,15.563963890075684,-13.732909202575684,-1.9840087890625,0.09375,0.30126953125
7.361,309,1426,1595,311,11.0,30.0,30.0,-6.408690929412842,-5.615233898162842,-4.08935546875,-1.6759033203125,-0.09375,0.50634765625
7.373,312,1286,1426,310,11.0,30.0,30.0,15.686034202575684,-14.160155296325684,11.413573265075684,-1.339111328125,-0.0516357421875,0.628662109375
7.381,311,1220,1331,311,11.0,30.0,30.0,32.71484375,-9.27734375,28.625486373901367,-0.985107421875,-0.03369140625,0.5908203125
7.389,310,1159,1251,311,11.0,30.0,30.0,39.12353515625,2.990722417831421,42.175289154052734,-0.62548828125,-0.1761474609375,0.4189453125
7.402,311,1031,1086,311,11.0,30.0,30.0,39.85595703125,15.991209983825684,47.424312591552734,-0.3160400390625,-0.2950439453125,0.1978759765625
7.411,311,951,994,311,11.0,30.0,30.0,47.058101654052734,26.550291061401367,41.870113372802734,-0.1361083984375,-0.1781005859375,0.040771484375
7.419,311,873,929,311,9.0,32.0,30.0,61.645503997802734,33.38623046875,27.404783248901367,-0.12939453125,0.0701904296875,-0.029541015625
7.433,310,780,869,311,9.0,32.0,30.0,68.9697265625,37.17041015625,9.521484375,-0.2496337890625,0.241455078125,-0.06201171875
7.462,309,724,822,310,9.0,32.0,30.0,62.622066497802734,39.306640625,-5.432128429412842,-0.39697265625,0.3388671875,-0.06103515625
7.463,311,636,772,293,9.0,32.0,30.0,49.011226654052734,39.00146484375,-12.878417015075684,-0.5089111328125,0.4600830078125,-0.0643310546875
7.463,310,608,766,311,9.0,32.0,30.0,34.85107421875,34.7900390625,-13.610838890075684,-0.53857421875,0.518310546875,-0.0731201171875
7.471,309,628,780,310,9.0,32.0,30.0,20.629880905151367,27.465818405151367,-11.352538108825684,-0.5589599609375,0.4794921875,-0.043212890625
7.479,309,620,780,311,9.0,32.0,30.0,6.103515148162842,18.37158203125,-6.958007335662842,-0.59375,0.408447265625,0.06005859375
7.493,310,636,795,311,9.0,32.0,30.0,-6.958007335662842,8.1787109375,-1.6479490995407104,-0.568115234375,0.2723388671875,0.1923828125
7.501,310,664,810,312,9.0,32.0,30.0,-14.282225608825684,-0.4882812201976776,2.929687261581421,-0.531005859375,0.1112060546875,0.2684326171875
7.509,311,695,830,311,9.0,32.0,30.0,-12.695311546325684,-6.164550304412842,7.446288585662842,-0.5438232421875,0.008544921875,0.2935791015625
7.522,311,754,869,311,10.0,34.0,27.0,-6.530761241912842,-9.33837890625,13.244627952575684,-0.62353515625,-0.009033203125,0.2589111328125
7.568,307,779,891,311,10.0,34.0,27.0,-0.9765624403953552,-10.620116233825684,20.874021530151367,-0.760009765625,0.0413818359375,0.1934814453125
7.568,310,803,913,310,10.0,34.0,27.0,0.1220703050494194,-13.793944358825684,30.212400436401367,-0.8734130859375,0.090087890625,0.1768798828125
7.569,309,873,966,310,10.0,34.0,27.0,-4.08935546875,-19.6533203125,40.405269622802734,-0.8880615234375,0.1112060546875,0.1829833984375
7.569,309,916,1009,311,10.0,34.0,27.0,-9.58251953125,-25.817869186401367,50.720211029052734,-0.780029296875,0.1234130859375,0.1766357421875
7.569,311,1010,1089,298,10.0,34.0,27.0,-12.512206077575684,-32.89794921875,56.579586029052734,-0.5499267578125,0.098388671875,0.17626953125
7.582,311,1192,1260,311,10.0,34.0,27.0,-10.131834983825684,-40.405269622802734,52.551265716552734,-0.2242431640625,0.08251953125,0.1693115234375
7.590,311,1300,1334,311,10.0,34.0,27.0,-3.906249761581421,-45.593257904052734,37.65869140625,0.1871337890625,0.146484375,0.1378173828125
7.599,309,1390,1415,311,10.0,34.0,27.0,-3.906249761581421,-45.593257904052734,37.65869140625,0.6148681640625,0.2657470703125,0.1065673828125
7.613,311,1531,1602,307,10.0,34.0,27.0,-1.7700194120407104,-33.50830078125,-21.484373092651367,0.7811279296875,0.4603271484375,0.166259765625
7.621,310,1580,1694,311,11.0,32.0,25.0,-7.873534679412842,-19.4091796875,-56.701656341552734,0.34912109375,0.7711181640625,0.3538818359375
7.629,311,1636,1831,311,11.0,32.0,25.0,-7.873534679412842,-19.4091796875,-56.701656341552734,-0.7100830078125,0.98583984375,0.569091796875
7.677,310,1689,2130,311,11.0,32.0,25.0,-75.1953125,-5.493163585662842,-85.87645721435547,-1.9744873046875,0.780517578125,0.6434326171875
7.677,311,1675,2200,311,11.0,32.0,25.0,-115.66161346435547,-5.615233898162842,-72.69287109375,-2.9512939453125,0.189697265625,0.451171875
7.678,311,1750,2247,311,11.0,32.0,25.0,-121.21581268310547,-9.33837890625,-45.654293060302734,-3.3876953125,-0.2745361328125,0.159912109375
7.678,311,1773,2172,311,11.0,32.0,25.0,-121.21581268310547,-9.33837890625,-45.654293060302734,-2.9783935546875,-0.4586181640625,0.1610107421875
7.682,311,1798,2100,311,11.0,32.0,25.0,-19.287109375,-33.8134765625,16.357421875,-1.76708984375,-0.6256103515625,0.4608154296875
7.690,310,1798,2024,311,11.0,32.0,25.0,39.61181640625,-31.799314498901367,35.09521484375,-0.7158203125,-0.2012939453125,0.8507080078125
7.698,311,1807,2009,311,11.0,32.0,25.0,39.61181640625,-31.799314498901367,35.09521484375,-0.5823974609375,0.9185791015625,1.0716552734375
7.711,311,1773,1909,311,11.0,36.0,24.0,58.959957122802734,15.258788108825684,30.273435592651367,-1.1875,1.720458984375,0.8433837890625
7.720,311,1727,1833,311,11.0,36.0,24.0,8.1787109375,46.447750091552734,8.9111328125,-1.842041015625,1.5892333984375,0.3621826171875
7.728,311,1670,1773,311,11.0,36.0,24.0,8.1787109375,46.447750091552734,8.9111328125,-2.0777587890625,0.8050537109375,0.0552978515625
7.742,309,1557,1643,311,11.0,36.0,24.0,-28.747556686401367,29.113767623901367,-22.033689498901367,-1.981201171875,0.150634765625,0.1201171875
7.767,310,1476,1567,311,11.0,36.0,24.0,0.9765624403953552,0.54931640625,-21.118162155151367,-1.747314453125,-0.0157470703125,0.4112548828125
7.770,310,1351,1476,310,11.0,36.0,24.0,0.9765624403953552,0.54931640625,-21.118162155151367,-1.46337890625,0.0810546875,0.6309814453125
7.775,310,1215,1300,311,11.0,36.0,24.0,49.682613372802734,-9.09423828125,1.5258787870407104,-1.126953125,0.1060791015625,0.6422119140625
7.780,310,1117,1223,311,11.0,36.0,24.0,57.067867279052734,3.845214605331421,12.878417015075684,-0.7679443359375,-0.06396484375,0.4990234375
7.788,311,1034,1093,310,11.0,36.0,24.0,57.067867279052734,3.845214605331421,12.878417015075684,-0.459228515625,-0.30126953125,0.2769775390625
7.802,310,869,936,310,11.0,36.0,24.0,66.95556640625,28.198240280151367,24.536130905151367,-0.2459716796875,-0.3740234375,0.0994873046875
7.810,309,788,882,311,12.0,30.0,30.0,73.79150390625,37.9638671875,25.756834030151367,-0.1510009765625,-0.2581787109375,0.033447265625
7.818,310,711,815,311,12.0,30.0,30.0,73.79150390625,37.9638671875,25.756834030151367,-0.1510009765625,-0.2581787109375,0.033447265625
7.831,310,578,725,311,12.0,30.0,30.0,60.485836029052734,52.368160247802734,12.329100608825684,-0.2310791015625,0.1123046875,0.0323486328125
7.840,311,523,702,309,12.0,30.0,30.0,60.485836029052734,52.368160247802734,12.329100608825684,-0.3245849609375,0.3870849609375,-0.0072021484375
7.848,310,488,684,309,12.0,30.0,30.0,46.508785247802734,55.786128997802734,1.6479490995407104,-0.3245849609375,0.3870849609375,-0.0072021484375
7.874,311,473,683,311,12.0,30.0,30.0,21.240232467651367,43.334957122802734,-6.896972179412842,-0.511962890625,0.6705322265625,-0.0994873046875
7.874,309,479,685,310,12.0,30.0,30.0,21.240232467651367,43.334957122802734,-6.896972179412842,-0.5501708984375,0.6427001953125,-0.0447998046875
7.878,309,501,697,311,12.0,30.0,30.0,4.150390625,28.869626998901367,-3.173827886581421,-0.5501708984375,0.6427001953125,-0.0447998046875
7.897,309,562,718,311,12.0,30.0,30.0,-22.216794967651367,3.540038824081421,2.3193359375,-0.5069580078125,0.2406005859375,0.102294921875
7.900,309,607,732,309,12.0,30.0,30.0,-22.216794967651367,3.540038824081421,2.3193359375,-0.4951171875,0.0625,0.1356201171875
7.908,310,646,740,310,9.0,32.0,29.0,-18.4326171875,-4.5166015625,3.295898199081421,-0.4951171875,0.0625,0.1356201171875
7.922,309,736,803,311,9.0,32.0,29.0,-2.13623046875,-17.76123046875,13.854979515075684,-0.5386962890625,0.0057373046875,0.1390380859375
7.930,311,788,835,309,9.0,32.0,29.0,-2.13623046875,-17.76123046875,13.854979515075684,-0.58203125,0.072509765625,0.1146240234375
7.938,309,876,875,309,9.0,32.0,29.0,0.6713866591453552,-23.986814498901367,20.935056686401367,-0.58203125,0.072509765625,0.1146240234375
7.952,309,1047,1009,310,9.0,32.0,29.0,-8.4228515625,-37.2314453125,30.395505905151367,-0.457763671875,0.2684326171875,0.048583984375
7.975,309,1159,1139,311,9.0,32.0,29.0,-8.4228515625,-37.2314453125,30.395505905151367,-0.20166015625,0.28271484375,0.0269775390625
7.976,311,1287,1246,311,9.0,32.0,29.0,-23.803709030151367,-44.738765716552734,25.207517623901367,-0.20166015625,0.28271484375,0.0269775390625
7.982,311,1430,1450,310,9.0,32.0,29.0,-52.368160247802734,-48.828121185302734,-9.8876953125,0.401123046875,0.2454833984375,0.184814453125
7.990,310,1521,1584,311,9.0,32.0,29.0,-52.368160247802734,-48.828121185302734,-9.8876953125,0.4793701171875,0.236572265625,0.3917236328125
7.998,311,1579,1681,311,9.0,32.0,29.0,-57.128902435302734,-39.0625,-39.61181640625,0.4793701171875,0.236572265625,0.3917236328125
8.012,310,1681,1981,312,12.0,32.0,28.0,-65.73486328125,-11.413573265075684,-88.86717987060547,-1.0037841796875,0.42724609375,0.701171875
8.020,311,1713,2158,311,12.0,32.0,28.0,-65.73486328125,-11.413573265075684,-88.86717987060547,-2.076171875,0.2540283203125,0.5789794921875
8.028,311,1752,2273,311,12.0,32.0,28.0,-75.3173828125,-7.507323741912842,-87.40233612060547,-2.076171875,0.2540283203125,0.5789794921875
8.041,311,1808,2325,311,12.0,32.0,28.0,-55.847164154052734,-18.85986328125,-43.395992279052734,-3.2254638671875,0.095947265625,0.291015625
8.052,311,1816,2249,312,12.0,32.0,28.0,-55.847164154052734,-18.85986328125,-43.395992279052734,-2.8529052734375,0.1143798828125,0.4171142578125
8.058,311,1824,2233,311,12.0,32.0,28.0,-29.418943405151367,-29.846189498901367,-16.05224609375,-2.8529052734375,0.1143798828125,0.4171142578125
8.079,310,1830,2133,311,12.0,32.0,28.0,28.991697311401367,-18.5546875,15.197752952575684,-0.8453369140625,-0.0653076171875,0.6710205078125
8.080,297,1831,2126,311,12.0,32.0,28.0,28.991697311401367,-18.5546875,15.197752952575684,-0.81201171875,0.7528076171875,0.8311767578125
8.088,311,1819,2063,311,12.0,32.0,28.0,54.504390716552734,1.5869139432907104,16.7236328125,-0.81201171875,0.7528076171875,0.8311767578125
8.101,311,1711,1949,311,12.0,32.0,28.0,10.925292015075684,38.14697265625,-5.187987804412842,-2.013671875,1.319091796875,0.4654541015625
8.110,310,1641,1838,311,12.0,29.0,29.0,10.925292015075684,38.14697265625,-5.187987804412842,-2.1243896484375,0.5794677734375,0.189453125
8.122,311,1566,1735,311,12.0,29.0,29.0,-19.71435546875,41.442867279052734,-19.95849609375,-2.1243896484375,0.5794677734375,0.189453125
8.132,309,1424,1574,311,12.0,29.0,29.0,7.568358898162842,2.25830078125,-17.88330078125,-1.6795654296875,-0.0596923828125,0.4423828125
8.140,309,1330,1463,311,12.0,29.0,29.0,7.568358898162842,2.25830078125,-17.88330078125,-1.371826171875,0.015380859375,0.6080322265625
8.148,311,1241,1357,311,12.0,29.0,29.0,31.311033248901367,-11.535643577575684,-2.0751953125,-1.371826171875,0.015380859375,0.6080322265625
8.185,311,1104,1188,311,12.0,29.0,29.0,42.114253997802734,5.798339366912842,27.770994186401367,-0.657470703125,-0.1807861328125,0.4312744140625
8.186,311,1029,1034,311,12.0,29.0,29.0,42.114253997802734,5.798339366912842,27.770994186401367,-0.309814453125,-0.35498046875,0.2242431640625
8.186,311,907,935,310,12.0,29.0,29.0,43.151851654052734,19.95849609375,33.26416015625,-0.309814453125,-0.35498046875,0.2242431640625
8.192,311,796,861,311,12.0,29.0,29.0,71.96044921875,44.555660247802734,20.507810592651367,-0.0460205078125,-0.091796875,-0.04638671875
8.200,310,741,806,311,12.0,29.0,29.0,71.96044921875,44.555660247802734,20.507810592651367,-0.1318359375,0.0865478515625,-0.094970703125
8.208,311,661,766,309,12.0,32.0,29.0,81.29882049560547,51.025386810302734,5.737304210662842,-0.1318359375,0.0865478515625,-0.094970703125
8.221,311,593,710,309,12.0,32.0,29.0,62.011714935302734,46.203609466552734,-15.991209983825684,-0.36962890625,0.5164794921875,-0.0927734375
8.234,310,574,708,309,12.0,32.0,29.0,62.011714935302734,46.203609466552734,-15.991209983825684,-0.4227294921875,0.617431640625,-0.10693359375
8.238,310,575,708,310,12.0,32.0,29.0,40.893550872802734,37.353515625,-18.310546875,-0.4227294921875,0.617431640625,-0.10693359375
8.252,309,587,711,309,12.0,32.0,29.0,-2.929687261581421,12.573241233825684,-9.1552734375,-0.5255126953125,0.4903564453125,0.0460205078125
8.260,309,612,736,310,12.0,32.0,29.0,-2.929687261581421,12.573241233825684,-9.1552734375,-0.5048828125,0.237548828125,0.1461181640625
8.282,310,644,748,310,12.0,32.0,29.0,-17.27294921875,-0.7324218153953552,-4.21142578125,-0.5048828125,0.237548828125,0.1461181640625
8.283,310,683,761,311,12.0,32.0,29.0,-12.695311546325684,-13.671874046325684,6.103515148162842,-0.483642578125,-0.084716796875,0.2041015625
8.292,309,756,823,310,12.0,32.0,29.0,-12.695311546325684,-13.671874046325684,6.103515148162842,-0.545654296875,-0.083984375,0.173095703125
8.298,310,808,861,310,12.0,32.0,29.0,-5.249022960662842,-16.17431640625,14.343260765075684,-0.545654296875,-0.083984375,0.173095703125
8.312,310,922,938,311,10.0,35.0,28.0,-1.6479490995407104,-18.24951171875,23.071287155151367,-0.687744140625,0.1070556640625,0.07470703125
8.320,309,991,995,311,10.0,35.0,28.0,-3.417968511581421,-23.681638717651367,31.127927780151367,-0.621337890625,0.1690673828125,0.0975341796875
8.328,310,1086,1115,311,10.0,35.0,28.0,-13.427733421325684,-35.21728515625,35.7666015625,-0.621337890625,0.1690673828125,0.0975341796875
8.349,311,1255,1282,310,10.0,35.0,28.0,-27.587888717651367,-49.682613372802734,35.0341796875,-0.161376953125,0.1453857421875,0.199951171875
8.350,297,1372,1397,297,10.0,35.0,28.0,-38.4521484375,-61.035152435302734,29.052732467651367,-0.161376953125,0.1453857421875,0.199951171875
8.359,310,1464,1504,311,10.0,35.0,28.0,-40.893550872802734,-61.096187591552734,15.319823265075684,0.270751953125,0.126953125,0.253662109375
8.404,310,1575,1694,311,10.0,35.0,28.0,-30.578611373901367,-46.203609466552734,-9.70458984375,0.2484130859375,0.3858642578125,0.388671875
8.404,311,1635,1861,310,10.0,35.0,28.0,-22.277830123901367,-24.169919967651367,-41.564937591552734,0.2484130859375,0.3858642578125,0.388671875
8.404,311,1681,2023,311,10.0,35.0,28.0,-37.2314453125,-5.920409679412842,-67.138671875,-0.5908203125,0.560546875,0.494873046875
8.404,311,1743,2261,311,12.0,29.0,28.0,-67.93212890625,4.21142578125,-74.951171875,-2.568115234375,0.2596435546875,0.3883056640625
8.432,311,1783,2330,311,12.0,29.0,28.0,-87.09716033935547,3.479003667831421,-64.51416015625,-2.568115234375,0.2596435546875,0.3883056640625
8.432,309,1806,2334,311,12.0,29.0,28.0,-79.833984375,-6.103515148162842,-43.457027435302734,-3.09228515625,0.0679931640625,0.3077392578125
8.433,309,1812,2224,311,12.0,29.0,28.0,-52.673336029052734,-17.63916015625,-19.8974609375,-2.19140625,-0.126220703125,0.5572509765625
8.458,311,1819,2151,311,12.0,29.0,28.0,-20.629880905151367,-24.536130905151367,0.3662109076976776,-2.19140625,-0.126220703125,0.5572509765625
8.479,309,1822,2129,311,12.0,29.0,28.0,11.962889671325684,-15.563963890075684,14.038084983825684,-1.095947265625,-0.1939697265625,0.6785888671875
8.513,311,1795,2052,311,12.0,29.0,28.0,44.921871185302734,1.5258787870407104,20.446775436401367,-1.269287109375,1.1859130859375,0.7884521484375
8.520,311,1752,1980,311,12.0,29.0,28.0,53.833003997802734,15.319823265075684,19.04296875,-1.269287109375,1.1859130859375,0.7884521484375
8.521,310,1695,1889,310,12.0,29.0,28.0,22.888181686401367,28.808591842651367,8.85009765625,-1.9847412109375,1.3660888671875,0.52099609375
8.521,311,1573,1715,297,12.0,29.0,28.0,-17.88330078125,36.62109375,-4.7607421875,-2.08984375,0.232177734375,0.146484375
8.521,311,1486,1580,296,13.0,32.0,26.0,-28.869626998901367,28.564451217651367,-12.451170921325684,-2.08984375,0.232177734375,0.146484375
8.521,310,1385,1531,309,13.0,32.0,26.0,-7.507323741912842,5.0048828125,-10.009765625,-1.790283203125,0.0628662109375,0.335693359375
8.529,310,1206,1320,311,13.0,32.0,26.0,21.301267623901367,-14.770506858825684,-0.8544921278953552,-1.0584716796875,0.1234130859375,0.5921630859375
8.535,297,1125,1232,297,13.0,32.0,26.0,40.0390625,-14.526366233825684,9.21630859375,-1.0584716796875,0.1234130859375,0.5921630859375
8.542,311,1037,1091,311,13.0,32.0,26.0,46.203609466552734,-0.4272460639476776,16.2353515625,-0.64404296875,-0.119384765625,0.46923828125
8.600,310,873,944,310,13.0,32.0,26.0,48.095699310302734,15.991209983825684,19.34814453125,-0.068115234375,-0.4178466796875,0.0709228515625
8.609,309,753,859,311,13.0,32.0,26.0,57.312007904052734,29.724119186401367,19.6533203125,-0.068115234375,-0.4178466796875,0.0709228515625
8.609,309,685,822,311,13.0,32.0,26.0,72.08251953125,39.0625,16.41845703125,-0.03173828125,-0.213134765625,0.0057373046875
8.609,310,587,739,310,13.0,32.0,26.0,77.33154296875,46.325679779052734,7.080077648162842,-0.227294921875,0.224365234375,-0.013427734375
8.609,310,527,697,310,13.0,32.0,26.0,68.603515625,52.368160247802734,-5.859374523162842,-0.227294921875,0.224365234375,-0.013427734375
8.610,310,487,684,311,14.0,34.0,26.0,51.818843841552734,52.429195404052734,-15.991209983825684,-0.37255859375,0.4654541015625,-0.0211181640625
8.612,310,493,656,310,14.0,34.0,26.0,30.639646530151367,45.349117279052734,-20.01953125,-0.517578125,0.594970703125,-0.099365234375
8.620,309,499,668,311,14.0,34.0,26.0,8.1787109375,34.3017578125,-17.822265625,-0.517578125,0.594970703125,-0.099365234375
8.628,310,506,688,309,14.0,34.0,26.0,-11.047362327575684,21.606443405151367,-11.230467796325684,-0.5555419921875,0.478271484375,-0.044921875
8.642,310,553,702,309,14.0,34.0,26.0,-22.644041061401367,8.60595703125,-3.967284917831421,-0.5343017578125,0.0660400390625,0.118896484375
8.655,309,635,729,311,14.0,34.0,26.0,-22.521970748901367,-2.50244140625,2.50244140625,-0.5343017578125,0.0660400390625,0.118896484375
8.663,310,673,763,311,14.0,34.0,26.0,-13.671874046325684,-10.681151390075684,9.6435546875,-0.521484375,-0.0682373046875,0.1912841796875
8.697,309,790,838,311,14.0,34.0,26.0,-5.065917491912842,-16.7236328125,17.578125,-0.5166015625,-0.129638671875,0.1787109375
8.697,309,855,889,310,14.0,34.0,26.0,-0.0610351525247097,-20.141599655151367,25.512693405151367,-0.5166015625,-0.129638671875,0.1787109375
