time,compression0,compression1,compression2,compression3,magn_x,magn_y,magn_z,gyro_x,gyro_y,gyro_z,accel_x,accel_y,accel_z
0.011,277,1476,442,816,-5.0,33.0,16.0,2.44140625,-0.3662109076976776,-2.685546636581421,-0.84423828125,0.3897705078125,-0.3333740234375
0.020,279,1464,466,883,-5.0,33.0,16.0,2.44140625,-0.3662109076976776,-2.685546636581421,-0.84423828125,0.3897705078125,-0.3333740234375
0.027,277,1464,468,879,-5.0,35.0,11.0,1.8920897245407104,-0.7934569716453552,-2.3193359375,-0.8448486328125,0.3873291015625,-0.3314208984375
0.042,279,1467,434,826,-5.0,35.0,11.0,1.220703125,-1.220703125,-1.7700194120407104,-0.8460693359375,0.390869140625,-0.3251953125
0.050,280,1467,466,874,-5.0,35.0,11.0,0.6713866591453552,-1.5258787870407104,-1.220703125,-0.8460693359375,0.390869140625,-0.3251953125
0.087,280,1483,462,872,-5.0,35.0,11.0,0.30517578125,-1.6479490995407104,-0.7934569716453552,-0.846923828125,0.3931884765625,-0.3233642578125
0.087,277,1477,438,816,-5.0,35.0,11.0,0.1220703050494194,-1.6479490995407104,-0.4272460639476776,-0.848388671875,0.396484375,-0.3248291015625
0.088,280,1476,467,871,-5.0,35.0,11.0,0.0610351525247097,-1.6479490995407104,-0.2441406100988388,-0.848388671875,0.396484375,-0.3248291015625
0.088,277,1473,464,883,-5.0,35.0,11.0,0.0610351525247097,-1.6479490995407104,-0.1220703050494194,-0.8492431640625,0.3970947265625,-0.32373046875
0.101,276,1470,433,828,-5.0,35.0,11.0,0.0610351525247097,-1.4648436307907104,-0.1831054538488388,-0.8489990234375,0.4007568359375,-0.3214111328125
0.110,278,1467,465,883,-5.0,35.0,11.0,0.1220703050494194,-1.2817381620407104,-0.3662109076976776,-0.8489990234375,0.4007568359375,-0.3214111328125
0.117,279,1470,466,883,-5.0,35.0,11.0,0.0610351525247097,-1.03759765625,-0.6103515625,-0.8482666015625,0.402099609375,-0.32080078125
0.133,277,1467,431,829,-9.0,33.0,10.0,-0.1220703050494194,-0.7934569716453552,-0.9155272841453552,-0.849609375,0.39990234375,-0.3233642578125
0.140,279,1478,463,871,-9.0,33.0,10.0,-0.1831054538488388,-0.54931640625,-1.15966796875,-0.849609375,0.39990234375,-0.3233642578125
0.148,277,1467,464,879,-9.0,33.0,10.0,-0.1220703050494194,-0.3662109076976776,-1.4038084745407104,-0.8511962890625,0.3978271484375,-0.3255615234375
0.175,279,1474,428,816,-9.0,33.0,10.0,0.0610351525247097,-0.3662109076976776,-1.5258787870407104,-0.851318359375,0.394287109375,-0.322998046875
0.176,277,1464,466,883,-9.0,33.0,10.0,0.30517578125,-0.4882812201976776,-1.5258787870407104,-0.851318359375,0.394287109375,-0.322998046875
0.180,280,1574,411,827,-9.0,33.0,10.0,0.6713866591453552,-0.6103515625,-1.4038084745407104,-0.851318359375,0.3934326171875,-0.3214111328125
0.201,278,1464,434,829,-9.0,33.0,10.0,1.0986328125,-0.7324218153953552,-1.3427733182907104,-0.8485107421875,0.3927001953125,-0.321533203125
0.201,279,1467,465,874,-9.0,33.0,10.0,1.4038084745407104,-0.7934569716453552,-1.15966796875,-0.8485107421875,0.3927001953125,-0.321533203125
0.208,279,1497,464,871,-9.0,33.0,10.0,1.5869139432907104,-0.8544921278953552,-0.9765624403953552,-0.8475341796875,0.3916015625,-0.32080078125
0.221,277,1468,433,827,-6.0,36.0,14.0,1.8310545682907104,-0.9155272841453552,-0.7324218153953552,-0.8499755859375,0.391845703125,-0.32666015625
0.229,280,1470,470,883,-6.0,36.0,14.0,1.7700194120407104,-0.9765624403953552,-0.4882812201976776,-0.8499755859375,0.391845703125,-0.32666015625
0.238,277,1476,469,871,-6.0,36.0,14.0,1.2817381620407104,-0.9765624403953552,-0.3662109076976776,-0.850830078125,0.392822265625,-0.3282470703125
0.252,279,1472,455,834,-6.0,36.0,14.0,0.7324218153953552,-0.9155272841453552,-0.30517578125,-0.850830078125,0.3944091796875,-0.328125
0.284,280,1521,418,830,-6.0,36.0,14.0,0.30517578125,-0.9155272841453552,-0.3662109076976776,-0.850830078125,0.3956298828125,-0.327392578125
0.284,279,1523,445,867,-6.0,36.0,14.0,0.0,-0.9765624403953552,-0.4882812201976776,-0.851318359375,0.3953857421875,-0.3262939453125
0.285,279,1474,440,827,-6.0,36.0,14.0,-0.3662109076976776,-1.03759765625,-0.6103515625,-0.85107421875,0.3946533203125,-0.3248291015625
0.298,280,1483,466,869,-6.0,36.0,14.0,-0.6713866591453552,-1.0986328125,-0.6103515625,-0.850341796875,0.393798828125,-0.321533203125
0.298,279,1502,465,882,-6.0,36.0,14.0,-0.8544921278953552,-1.03759765625,-0.4882812201976776,-0.8507080078125,0.393798828125,-0.3184814453125
0.312,279,1474,437,827,-6.0,36.0,14.0,-0.9155272841453552,-0.9765624403953552,-0.30517578125,-0.8514404296875,0.39404296875,-0.317626953125
0.319,279,1474,468,883,-8.0,33.0,9.0,-0.7934569716453552,-0.9155272841453552,-0.1831054538488388,-0.8515625,0.3935546875,-0.316650390625
0.328,278,1474,468,883,-8.0,33.0,9.0,-0.6103515625,-0.7934569716453552,-0.1220703050494194,-0.8516845703125,0.3934326171875,-0.315185546875
0.342,279,1478,433,828,-8.0,33.0,9.0,-0.3662109076976776,-0.54931640625,-0.0610351525247097,-0.8511962890625,0.39501953125,-0.3155517578125
0.350,281,1478,465,883,-8.0,33.0,9.0,-0.1220703050494194,-0.30517578125,-0.1220703050494194,-0.8504638671875,0.3961181640625,-0.3172607421875
0.358,278,1478,466,883,-8.0,33.0,9.0,0.2441406100988388,-0.1831054538488388,-0.2441406100988388,-0.850830078125,0.3961181640625,-0.3192138671875
0.381,279,1480,433,829,-8.0,33.0,9.0,0.4882812201976776,-0.0610351525247097,-0.30517578125,-0.851318359375,0.3961181640625,-0.321533203125
0.382,279,1478,465,884,-8.0,33.0,9.0,0.6103515625,0.0,-0.30517578125,-0.8514404296875,0.395751953125,-0.322265625
0.388,277,1488,458,871,-8.0,33.0,9.0,0.54931640625,0.0610351525247097,-0.3662109076976776,-0.8514404296875,0.395263671875,-0.32177734375
0.413,279,1481,434,829,-8.0,33.0,9.0,0.54931640625,0.1220703050494194,-0.3662109076976776,-0.851806640625,0.394775390625,-0.3211669921875
0.414,280,1488,465,871,-8.0,33.0,9.0,0.54931640625,0.0610351525247097,-0.4272460639476776,-0.8519287109375,0.3944091796875,-0.3204345703125
0.428,279,1478,467,883,-7.0,34.0,10.0,0.6103515625,0.0,-0.4882812201976776,-0.8515625,0.394775390625,-0.320556640625
0.446,279,1478,437,829,-7.0,34.0,10.0,0.6713866591453552,0.0,-0.4882812201976776,-0.8514404296875,0.3955078125,-0.322998046875
0.460,280,1478,470,883,-7.0,34.0,10.0,0.6713866591453552,0.0610351525247097,-0.4882812201976776,-0.8509521484375,0.394775390625,-0.326416015625
0.460,282,1494,466,871,-7.0,34.0,10.0,0.54931640625,0.0610351525247097,-0.4882812201976776,-0.8507080078125,0.3931884765625,-0.3275146484375
0.462,280,1550,462,887,-7.0,34.0,10.0,0.2441406100988388,0.0610351525247097,-0.4882812201976776,-0.850830078125,0.3914794921875,-0.3253173828125
0.483,281,1477,468,883,-7.0,34.0,10.0,-0.1220703050494194,-0.0610351525247097,-0.3662109076976776,-0.851318359375,0.3914794921875,-0.3228759765625
0.483,277,1478,468,883,-7.0,34.0,10.0,-0.54931640625,-0.1220703050494194,-0.2441406100988388,-0.8519287109375,0.392333984375,-0.3221435546875
0.491,279,1483,455,827,-7.0,34.0,10.0,-0.8544921278953552,-0.1220703050494194,-0.1220703050494194,-0.85302734375,0.3922119140625,-0.321044921875
0.500,277,1476,468,884,-7.0,34.0,10.0,-0.9765624403953552,-0.1220703050494194,-0.0610351525247097,-0.8536376953125,0.39208984375,-0.3182373046875
0.511,279,1476,470,883,-7.0,34.0,10.0,-0.8544921278953552,-0.0610351525247097,0.0610351525247097,-0.852294921875,0.39306640625,-0.3155517578125
0.522,279,1488,437,820,-7.0,33.0,14.0,-0.6713866591453552,0.0610351525247097,0.0610351525247097,-0.8502197265625,0.3951416015625,-0.314697265625
0.530,280,1474,473,883,-7.0,33.0,14.0,-0.4272460639476776,0.1831054538488388,0.0610351525247097,-0.849365234375,0.39794921875,-0.316162109375
0.538,279,1476,472,887,-7.0,33.0,14.0,-0.1220703050494194,0.3662109076976776,-0.1220703050494194,-0.850341796875,0.40087890625,-0.320068359375
0.551,280,1478,439,828,-7.0,33.0,14.0,0.1831054538488388,0.54931640625,-0.4272460639476776,-0.85205078125,0.4005126953125,-0.3240966796875
0.562,280,1476,468,887,-7.0,33.0,14.0,0.3662109076976776,0.54931640625,-0.6713866591453552,-0.8536376953125,0.39599609375,-0.3255615234375
0.570,279,1483,468,874,-7.0,33.0,14.0,0.3662109076976776,0.4272460639476776,-0.7324218153953552,-0.854248046875,0.390380859375,-0.324951171875
0.585,277,1470,439,830,-7.0,33.0,14.0,0.0,0.3662109076976776,-0.54931640625,-0.854736328125,0.3868408203125,-0.322021484375
0.590,279,1470,467,883,-7.0,33.0,14.0,-0.7324218153953552,0.4272460639476776,-0.2441406100988388,-0.8553466796875,0.386474609375,-0.3155517578125
0.601,279,1468,468,884,-7.0,33.0,14.0,-1.3427733182907104,0.7934569716453552,0.1220703050494194,-0.856689453125,0.389404296875,-0.311767578125
0.618,279,1463,438,827,-7.0,33.0,14.0,-1.3427733182907104,1.2817381620407104,0.4272460639476776,-0.85791015625,0.393798828125,-0.3165283203125
0.620,274,1595,491,830,-5.0,34.0,10.0,-1.03759765625,1.4648436307907104,0.6103515625,-0.856689453125,0.3970947265625,-0.32470703125
0.628,277,1455,467,872,-5.0,34.0,10.0,-0.6103515625,1.4038084745407104,0.6103515625,-0.854248046875,0.3988037109375,-0.33056640625
0.643,277,1445,437,818,-5.0,34.0,10.0,0.0610351525247097,1.0986328125,0.4882812201976776,-0.8516845703125,0.400390625,-0.33349609375
0.650,281,1453,462,858,-5.0,34.0,10.0,0.7934569716453552,0.6713866591453552,0.30517578125,-0.8499755859375,0.4017333984375,-0.333251953125
0.658,277,1434,470,865,-5.0,34.0,10.0,1.220703125,0.1831054538488388,0.0,-0.8497314453125,0.40087890625,-0.331787109375
0.687,279,1437,479,841,-5.0,34.0,10.0,1.3427733182907104,-0.3662109076976776,-0.30517578125,-0.8511962890625,0.3980712890625,-0.3304443359375
0.688,280,1422,473,854,-5.0,34.0,10.0,1.4038084745407104,-0.9155272841453552,-0.54931640625,-0.853515625,0.39599609375,-0.32666015625
0.688,279,1416,473,846,-5.0,34.0,10.0,1.7089842557907104,-1.2817381620407104,-0.6103515625,-0.8551025390625,0.395263671875,-0.3233642578125
0.704,276,1409,442,799,-5.0,34.0,10.0,2.38037109375,-1.5869139432907104,-0.6103515625,-0.8555908203125,0.3935546875,-0.3231201171875
0.710,280,1397,479,846,-5.0,34.0,10.0,2.990722417831421,-1.7700194120407104,-0.54931640625,-0.8563232421875,0.390869140625,-0.3245849609375
0.724,277,1390,479,844,-6.0,36.0,8.0,2.990722417831421,-1.7700194120407104,-0.54931640625,-0.85693359375,0.389892578125,-0.3271484375
0.731,277,1382,473,837,-6.0,36.0,8.0,2.990722417831421,-2.13623046875,-0.1220703050494194,-0.8563232421875,0.391357421875,-0.328369140625
0.742,279,1362,481,835,-6.0,36.0,8.0,2.3193359375,-2.38037109375,0.0,-0.855712890625,0.3951416015625,-0.3287353515625
0.756,279,1358,482,827,-6.0,36.0,8.0,2.3193359375,-2.38037109375,0.0,-0.8555908203125,0.39990234375,-0.3282470703125
0.763,277,1339,467,767,-6.0,36.0,8.0,1.7700194120407104,-2.746581792831421,-0.4272460639476776,-0.8541259765625,0.404052734375,-0.3265380859375
0.770,280,1374,438,800,-6.0,36.0,8.0,1.8310545682907104,-2.746581792831421,-0.9765624403953552,-0.85205078125,0.407470703125,-0.323974609375
0.791,279,1294,490,813,-6.0,36.0,8.0,1.8310545682907104,-2.746581792831421,-0.9765624403953552,-0.850830078125,0.40966796875,-0.3216552734375
0.792,277,1250,441,754,-6.0,36.0,8.0,1.03759765625,-2.13623046875,-2.685546636581421,-0.8489990234375,0.40673828125,-0.3192138671875
0.802,276,1260,493,802,-6.0,36.0,8.0,0.3662109076976776,-1.7700194120407104,-3.723144292831421,-0.8482666015625,0.40087890625,-0.321533203125
0.808,278,1250,494,790,-6.0,36.0,8.0,0.3662109076976776,-1.7700194120407104,-3.723144292831421,-0.8504638671875,0.3985595703125,-0.329833984375
0.821,277,1204,473,740,-7.0,34.0,14.0,-1.2817381620407104,-1.8310545682907104,-4.94384765625,-0.85302734375,0.3995361328125,-0.3385009765625
0.830,275,1188,497,779,-7.0,34.0,14.0,-2.990722417831421,-2.197265625,-5.249022960662842,-0.855224609375,0.399658203125,-0.3419189453125
0.840,275,1173,495,778,-7.0,34.0,14.0,-2.990722417831421,-2.197265625,-5.249022960662842,-0.856689453125,0.3973388671875,-0.33251953125
0.852,274,1155,484,711,-7.0,34.0,14.0,-7.385253429412842,-3.295898199081421,-5.676269054412842,-0.857421875,0.3961181640625,-0.3193359375
0.861,277,1123,506,748,-7.0,34.0,14.0,-8.544921875,-3.479003667831421,-5.859374523162842,-0.85791015625,0.395751953125,-0.3134765625
0.868,275,1129,499,746,-7.0,34.0,14.0,-8.544921875,-3.479003667831421,-5.859374523162842,-0.8583984375,0.3885498046875,-0.3095703125
0.884,277,1095,484,698,-7.0,34.0,14.0,-8.97216796875,-3.967284917831421,-5.554198741912842,-0.8592529296875,0.37109375,-0.3082275390625
0.893,275,1071,510,744,-7.0,34.0,14.0,-7.690429210662842,-4.45556640625,-4.69970703125,-0.8599853515625,0.3558349609375,-0.3128662109375
0.898,275,1065,506,738,-7.0,34.0,14.0,-7.690429210662842,-4.45556640625,-4.69970703125,-0.86279296875,0.3563232421875,-0.31591796875
0.911,272,1034,482,695,-5.0,34.0,11.0,-4.94384765625,-6.042479991912842,-2.0751953125,-0.8695068359375,0.3719482421875,-0.3155517578125
0.920,275,1025,504,731,-5.0,34.0,11.0,-4.45556640625,-6.591796398162842,-1.0986328125,-0.8740234375,0.39208984375,-0.3160400390625
0.927,274,1018,506,721,-5.0,34.0,11.0,-4.45556640625,-6.591796398162842,-1.0986328125,-0.8690185546875,0.4072265625,-0.3148193359375
0.941,274,1004,484,684,-5.0,34.0,11.0,-1.220703125,-6.530761241912842,-2.38037109375,-0.86083984375,0.4130859375,-0.308349609375
0.950,272,999,506,714,-5.0,34.0,11.0,-1.220703125,-6.530761241912842,-2.38037109375,-0.855712890625,0.4090576171875,-0.3001708984375
0.958,274,994,501,713,-5.0,34.0,11.0,-0.2441406100988388,-6.164550304412842,-4.08935546875,-0.855712890625,0.4090576171875,-0.3001708984375
0.973,273,973,485,673,-5.0,34.0,11.0,0.2441406100988388,-6.225585460662842,-7.080077648162842,-0.851318359375,0.401611328125,-0.297607421875
0.995,272,966,501,698,-5.0,34.0,11.0,0.2441406100988388,-6.225585460662842,-7.080077648162842,-0.85009765625,0.39697265625,-0.2900390625
0.997,272,958,507,702,-5.0,34.0,11.0,0.8544921278953552,-6.225585460662842,-8.30078125,-0.85009765625,0.39697265625,-0.2900390625
1.002,272,963,504,695,-5.0,34.0,11.0,0.54931640625,-5.0048828125,-10.131834983825684,-0.8466796875,0.385986328125,-0.2757568359375
1.010,268,968,508,698,-8.0,34.0,11.0,0.54931640625,-5.0048828125,-10.131834983825684,-0.848388671875,0.374755859375,-0.2734375
1.018,268,962,508,700,-8.0,34.0,11.0,-0.7934569716453552,-3.967284917831421,-10.681151390075684,-0.848388671875,0.374755859375,-0.2734375
1.032,268,995,484,675,-8.0,34.0,11.0,-3.295898199081421,-2.50244140625,-9.94873046875,-0.8531494140625,0.3316650390625,-0.2703857421875
1.043,274,1004,501,721,-8.0,34.0,11.0,-3.295898199081421,-2.50244140625,-9.94873046875,-0.851806640625,0.3179931640625,-0.2760009765625
1.048,272,1022,497,730,-8.0,34.0,11.0,-3.479003667831421,-2.685546636581421,-8.36181640625,-0.851806640625,0.3179931640625,-0.2760009765625
1.062,273,1074,470,706,-8.0,34.0,11.0,-1.03759765625,-5.432128429412842,-3.662109136581421,-0.8480224609375,0.322021484375,-0.304443359375
1.070,268,1123,485,747,-8.0,34.0,11.0,-1.03759765625,-5.432128429412842,-3.662109136581421,-0.84228515625,0.327880859375,-0.317138671875
1.079,273,1167,484,754,-8.0,34.0,11.0,-0.6103515625,-7.690429210662842,-0.9155272841453552,-0.84228515625,0.327880859375,-0.317138671875
1.102,273,1216,442,744,-8.0,34.0,11.0,-3.906249761581421,-13.488768577575684,3.967284917831421,-0.8092041015625,0.3260498046875,-0.2935791015625
1.102,275,1289,465,790,-8.0,34.0,11.0,-3.906249761581421,-13.488768577575684,3.967284917831421,-0.799072265625,0.33251953125,-0.277587890625
1.111,274,1336,460,814,-6.0,32.0,11.0,-5.310058116912842,-16.4794921875,5.554198741912842,-0.799072265625,0.33251953125,-0.277587890625
1.121,274,1429,424,794,-6.0,32.0,11.0,-5.065917491912842,-22.521970748901367,6.835937023162842,-0.775390625,0.38037109375,-0.2757568359375
1.129,275,1488,436,860,-6.0,32.0,11.0,-5.065917491912842,-22.521970748901367,6.835937023162842,-0.7506103515625,0.40283203125,-0.287353515625
1.138,276,1546,431,893,-6.0,32.0,11.0,-5.0048828125,-24.414060592651367,6.164550304412842,-0.7506103515625,0.40283203125,-0.287353515625
1.161,277,1687,387,883,-6.0,32.0,11.0,-11.596678733825684,-27.465818405151367,3.417968511581421,-0.6563720703125,0.3736572265625,-0.2449951171875
1.161,277,1770,411,966,-6.0,32.0,11.0,-11.596678733825684,-27.465818405151367,3.417968511581421,-0.589599609375,0.331787109375,-0.197265625
1.168,277,1904,390,978,-6.0,32.0,11.0,-19.287109375,-28.808591842651367,3.051757574081421,-0.589599609375,0.331787109375,-0.197265625
1.207,279,2084,356,951,-6.0,32.0,11.0,-25.329587936401367,-28.747556686401367,4.08935546875,-0.4793701171875,0.358642578125,-0.227783203125
1.207,280,2194,349,1042,-6.0,32.0,11.0,-29.602048873901367,-27.282712936401367,6.042479991912842,-0.4793701171875,0.358642578125,-0.227783203125
1.207,279,2273,324,1071,-6.0,32.0,11.0,-32.2265625,-26.916501998901367,5.676269054412842,-0.400634765625,0.4105224609375,-0.2259521484375
1.213,282,2424,279,1034,-5.0,33.0,8.0,-30.212400436401367,-28.137205123901367,1.220703125,-0.2833251953125,0.4755859375,-0.2486572265625
1.220,282,2493,316,1146,-5.0,33.0,8.0,-25.512693405151367,-29.479978561401367,-6.103515148162842,-0.2833251953125,0.4755859375,-0.2486572265625
1.228,286,2479,321,1173,-5.0,33.0,8.0,-20.01953125,-29.602048873901367,-14.587401390075684,-0.3511962890625,0.530029296875,-0.383544921875
1.243,307,2465,411,1138,-5.0,33.0,8.0,-19.287109375,-30.029294967651367,-20.812986373901367,-1.0992431640625,0.7672119140625,-0.5250244140625
1.258,318,2569,537,1262,-5.0,33.0,8.0,-40.649410247802734,-38.0859375,-23.315427780151367,-1.0992431640625,0.7672119140625,-0.5250244140625
1.258,330,2608,601,1286,-5.0,33.0,8.0,-90.20995330810547,-55.236812591552734,-26.489255905151367,-1.4228515625,0.6051025390625,-0.204833984375
1.273,338,2713,593,1239,-5.0,33.0,8.0,-139.892578125,-66.22314453125,-34.60693359375,-1.5006103515625,-0.430419921875,0.1348876953125
1.280,346,2848,653,1381,-5.0,33.0,8.0,-147.03369140625,-57.006832122802734,-43.945308685302734,-1.5006103515625,-0.430419921875,0.1348876953125
1.303,344,2809,687,1411,-5.0,33.0,8.0,-100.09764862060547,-39.12353515625,-44.006343841552734,-1.495361328125,-0.4334716796875,0.0712890625
1.303,351,2902,636,1278,-3.0,29.0,16.0,-28.259275436401367,-33.14208984375,-30.029294967651367,-1.434326171875,0.717529296875,0.0181884765625
1.310,348,2890,678,1427,-3.0,29.0,16.0,31.982419967651367,-36.7431640625,-11.657713890075684,-1.434326171875,0.717529296875,0.0181884765625
1.326,338,2897,661,1428,-3.0,29.0,16.0,64.453125,-32.5927734375,-3.356933355331421,-1.358154296875,1.0118408203125,-0.091064453125
1.332,328,2970,598,1229,-3.0,29.0,16.0,68.359375,-18.37158203125,-7.751464366912842,-1.0479736328125,0.4755859375,-0.199951171875
1.339,330,2898,642,1342,-3.0,29.0,16.0,56.945796966552734,-6.408690929412842,-15.624999046325684,-1.0479736328125,0.4755859375,-0.199951171875
1.348,326,2938,711,1254,-3.0,29.0,16.0,50.292964935302734,-3.967284917831421,-20.324705123901367,-0.958740234375,0.31884765625,-0.1944580078125
1.363,321,2827,594,1100,-3.0,29.0,16.0,55.053707122802734,-6.408690929412842,-24.414060592651367,-0.995361328125,0.6231689453125,-0.25390625
1.371,323,2840,728,1155,-3.0,29.0,16.0,62.438961029052734,-7.751464366912842,-35.33935546875,-0.995361328125,0.6231689453125,-0.25390625
1.378,309,2929,642,1138,-3.0,29.0,16.0,63.659664154052734,-7.263183116912842,-51.818843841552734,-1.1302490234375,0.6417236328125,-0.2255859375
1.409,324,2587,695,1056,-3.0,29.0,16.0,56.030269622802734,-6.103515148162842,-61.645503997802734,-1.6026611328125,0.5975341796875,-0.312255859375
1.410,327,2517,714,1146,-3.0,32.0,15.0,41.076656341552734,-2.990722417831421,-59.997554779052734,-1.6026611328125,0.5975341796875,-0.312255859375
1.410,318,2418,725,1131,-3.0,32.0,15.0,23.193357467651367,1.6479490995407104,-54.260250091552734,-1.6077880859375,0.4560546875,-0.339111328125
1.421,315,2319,648,959,-3.0,32.0,15.0,6.652831554412842,4.39453125,-49.255367279052734,-1.460205078125,0.2908935546875,-0.2733154296875
1.432,315,2203,668,1055,-3.0,32.0,15.0,-6.530761241912842,4.21142578125,-42.602535247802734,-1.26708984375,0.1942138671875,-0.1749267578125
1.438,306,2080,634,1010,-3.0,32.0,15.0,-16.90673828125,3.540038824081421,-32.16552734375,-1.0947265625,0.1148681640625,-0.067138671875
1.451,299,2004,519,879,-3.0,32.0,15.0,-26.489255905151367,3.845214605331421,-19.59228515625,-0.966796875,-0.032470703125,0.0513916015625
1.460,295,1925,548,920,-3.0,32.0,15.0,-33.8134765625,7.202147960662842,-5.065917491912842,-0.896240234375,-0.189208984375,0.1123046875
1.470,291,1874,514,912,-3.0,32.0,15.0,-33.87451171875,14.282225608825684,13.488768577575684,-0.85546875,-0.2509765625,0.1103515625
1.484,280,1739,466,785,-3.0,32.0,15.0,-27.893064498901367,21.301267623901367,33.99658203125,-0.8065185546875,-0.22802734375,0.1229248046875
1.508,279,1643,466,793,-3.0,32.0,15.0,-21.972654342651367,25.451658248901367,51.208492279052734,-0.724853515625,-0.1876220703125,0.1495361328125
1.508,275,1545,441,777,-2.0,31.0,17.0,-16.845703125,30.151365280151367,62.011714935302734,-0.631103515625,-0.1385498046875,0.123779296875
1.512,274,1365,493,738,-2.0,31.0,17.0,-9.21630859375,37.17041015625,64.94140625,-0.5792236328125,-0.0419921875,0.0633544921875
1.523,274,1241,485,705,-2.0,31.0,17.0,0.4272460639476776,41.931148529052734,62.622066497802734,-0.5556640625,0.108642578125,-0.012451171875
1.528,274,1186,496,687,-2.0,31.0,17.0,12.512206077575684,44.067378997802734,59.692378997802734,-0.4901123046875,0.2838134765625,-0.1380615234375
1.545,274,1146,464,634,-2.0,31.0,17.0,27.038572311401367,46.691890716552734,57.434078216552734,-0.385009765625,0.4569091796875,-0.27392578125
1.550,274,1183,470,697,-2.0,31.0,17.0,34.66796875,47.851558685302734,56.762691497802734,-0.3443603515625,0.5853271484375,-0.372802734375
1.558,272,1258,465,725,-2.0,31.0,17.0,28.076169967651367,43.762203216552734,59.448238372802734,-0.3858642578125,0.656005859375,-0.416259765625
1.583,272,1428,419,735,-2.0,31.0,17.0,14.648436546325684,33.38623046875,60.974117279052734,-0.447265625,0.67626953125,-0.403076171875
1.612,274,1527,452,802,-2.0,31.0,17.0,2.685546636581421,19.53125,55.480953216552734,-0.4962158203125,0.6510009765625,-0.3740234375
1.621,279,1666,473,797,-2.0,31.0,17.0,-6.896972179412842,5.920409679412842,43.823238372802734,-0.490234375,0.5745849609375,-0.34033203125
1.622,274,2235,411,785,-10.0,33.0,13.0,-12.756346702575684,-5.859374523162842,28.869626998901367,-0.4500732421875,0.448974609375,-0.3089599609375
1.622,276,2233,488,939,-10.0,33.0,13.0,-18.310546875,-16.845703125,16.29638671875,-0.417724609375,0.3714599609375,-0.3099365234375
1.626,289,2225,389,962,-10.0,33.0,13.0,-27.954099655151367,-28.137205123901367,10.070799827575684,-0.3486328125,0.3953857421875,-0.331787109375
1.638,292,2392,321,996,-10.0,33.0,13.0,-39.48974609375,-40.527339935302734,4.0283203125,-0.24658203125,0.4039306640625,-0.3310546875
1.640,295,2568,359,1095,-10.0,33.0,13.0,-46.508785247802734,-52.551265716552734,-7.202147960662842,-0.1236572265625,0.322998046875,-0.311767578125
1.648,292,2580,383,1039,-10.0,33.0,13.0,-34.66796875,-58.837886810302734,-21.179197311401367,-0.086669921875,0.21435546875,-0.3297119140625
1.661,315,2715,428,1132,-10.0,33.0,13.0,1.220703125,-59.387203216552734,-32.40966796875,-0.3515625,0.2811279296875,-0.3809814453125
1.670,330,2760,600,1306,-10.0,33.0,13.0,26.672361373901367,-66.7724609375,-37.4755859375,-0.8353271484375,0.552490234375,-0.253173828125
1.685,338,2844,735,1294,-10.0,33.0,13.0,1.220703125,-87.58544158935547,-42.114253997802734,-1.1685791015625,0.5806884765625,0.17041015625
1.692,343,3046,883,1305,-10.0,33.0,13.0,-53.161617279052734,-100.64696502685547,-54.077144622802734,-1.219482421875,0.196533203125,0.5745849609375
1.715,344,3107,977,1294,-2.0,29.0,12.0,-70.49560546875,-85.51024627685547,-65.36865234375,-1.2716064453125,-0.141845703125,0.56640625
1.715,356,3147,1162,1365,-2.0,29.0,12.0,-32.958984375,-54.992671966552734,-60.363765716552734,-1.474853515625,-0.032958984375,0.176513671875
1.723,364,3077,992,1361,-2.0,29.0,12.0,11.169432640075684,-35.5224609375,-36.56005859375,-1.74609375,0.3978271484375,-0.12841796875
1.730,363,3106,1031,1456,-2.0,29.0,12.0,25.451658248901367,-33.3251953125,-9.6435546875,-2.0537109375,0.8231201171875,-0.2403564453125
1.738,354,3147,991,1429,-2.0,29.0,12.0,22.949216842651367,-31.188962936401367,4.2724609375,-2.1981201171875,0.976806640625,-0.2694091796875
1.751,357,3112,867,1348,-2.0,29.0,12.0,24.902341842651367,-21.728513717651367,-0.1220703050494194,-1.7991943359375,0.6240234375,-0.0919189453125
1.760,354,3084,963,1386,-2.0,29.0,12.0,45.837398529052734,-14.892577171325684,-17.63916015625,-1.127197265625,0.2891845703125,0.128173828125
1.770,330,3147,1081,1292,-2.0,29.0,12.0,84.41161346435547,-13.061522483825684,-35.15625,-0.792724609375,0.579345703125,0.0203857421875
1.788,356,3042,1026,1223,-2.0,29.0,12.0,106.32323455810547,-12.695311546325684,-52.246089935302734,-0.977294921875,1.0296630859375,-0.3502197265625
1.792,361,3051,1083,1284,-2.0,29.0,12.0,85.20507049560547,-16.05224609375,-73.73046875,-1.509765625,1.1734619140625,-0.6512451171875
1.815,359,2936,1173,1278,-3.0,28.0,17.0,38.75732421875,-25.573728561401367,-93.74999237060547,-1.93115234375,0.941162109375,-0.7335205078125
1.815,364,2638,1176,1308,-3.0,28.0,17.0,0.6713866591453552,-37.90283203125,-107.23876190185547,-1.99169921875,0.53369140625,-0.612548828125
1.820,375,2472,1211,1276,-3.0,28.0,17.0,-16.845703125,-47.607418060302734,-111.57225799560547,-1.7689208984375,0.3607177734375,-0.37255859375
1.828,371,2295,1228,1250,-3.0,28.0,17.0,-21.362302780151367,-50.720211029052734,-107.91014862060547,-1.42919921875,0.4158935546875,-0.10498046875
1.844,370,2076,1155,1051,-3.0,28.0,17.0,-23.010251998901367,-43.945308685302734,-102.96630096435547,-1.1085205078125,0.3543701171875,0.1488037109375
1.850,362,1914,1189,1070,-3.0,28.0,17.0,-27.404783248901367,-28.503416061401367,-98.93798065185547,-0.882568359375,0.100341796875,0.3321533203125
1.861,351,1739,1153,1056,-3.0,28.0,17.0,-35.64453125,-10.070799827575684,-88.80614471435547,-0.75,-0.2354736328125,0.403076171875
1.883,323,1849,992,830,-3.0,28.0,17.0,-44.433589935302734,4.33349609375,-67.32177734375,-0.6490478515625,-0.6219482421875,0.427978515625
1.885,316,1945,841,906,-3.0,28.0,17.0,-46.081539154052734,12.878417015075684,-36.1328125,-0.57177734375,-0.8809814453125,0.41162109375
1.896,315,1813,841,910,-3.0,28.0,17.0,-46.081539154052734,12.878417015075684,-36.1328125,-0.519287109375,-0.821533203125,0.370849609375
1.918,304,1652,661,814,0.0,27.0,29.0,-4.39453125,23.986814498901367,37.41455078125,-0.45654296875,-0.5439453125,0.347900390625
1.919,306,1627,666,722,0.0,27.0,29.0,20.690916061401367,27.282712936401367,65.36865234375,-0.381103515625,-0.3265380859375,0.3099365234375
1.919,277,1716,499,859,0.0,27.0,29.0,20.690916061401367,27.282712936401367,65.36865234375,-0.349853515625,-0.2208251953125,0.2305908203125
1.932,292,1602,552,790,0.0,27.0,29.0,40.405269622802734,39.1845703125,88.43993377685547,-0.414794921875,-0.112060546875,0.1180419921875
1.940,293,1624,598,834,0.0,27.0,29.0,40.466304779052734,42.968746185302734,91.97997283935547,-0.513671875,0.0718994140625,-0.0472412109375
1.948,292,1635,590,878,0.0,27.0,29.0,40.466304779052734,42.968746185302734,91.97997283935547,-0.5257568359375,0.321044921875,-0.2677001953125
1.962,293,1782,575,826,0.0,27.0,29.0,36.56005859375,38.14697265625,94.05516815185547,-0.5057373046875,0.5489501953125,-0.483642578125
1.970,300,1865,639,920,0.0,27.0,29.0,27.526853561401367,28.869626998901367,85.93749237060547,-0.4990234375,0.7340087890625,-0.59619140625
1.981,302,1949,644,973,0.0,27.0,29.0,27.526853561401367,28.869626998901367,85.93749237060547,-0.45751953125,0.8583984375,-0.58740234375
2.023,313,2166,758,913,-4.0,30.0,15.0,8.48388671875,4.39453125,56.396480560302734,-0.3736572265625,0.852783203125,-0.5201416015625
2.024,316,2268,757,1083,-4.0,30.0,15.0,-9.8876953125,-5.249022960662842,37.41455078125,-0.2159423828125,0.702392578125,-0.41064453125
2.024,324,2330,777,1130,-4.0,30.0,15.0,-9.8876953125,-5.249022960662842,37.41455078125,-0.0501708984375,0.442626953125,-0.3138427734375
2.024,316,2692,834,1029,-4.0,30.0,15.0,-24.353025436401367,-23.803709030151367,-3.662109136581421,0.022216796875,0.2235107421875,-0.3170166015625
2.030,310,2974,1000,1129,-4.0,30.0,15.0,-11.291502952575684,-32.8369140625,-15.869139671325684,-0.0863037109375,0.210693359375,-0.4071044921875
2.038,330,2901,1055,1236,-4.0,30.0,15.0,-11.291502952575684,-32.8369140625,-15.869139671325684,-0.486328125,0.465087890625,-0.47509765625
2.052,355,3076,1268,1217,-4.0,30.0,15.0,-17.88330078125,-65.0634765625,-21.057126998901367,-0.934814453125,0.72314453125,-0.2275390625
2.060,382,2981,1320,1434,-4.0,30.0,15.0,-66.46728515625,-88.13475799560547,-27.465818405151367,-1.0721435546875,0.4000244140625,0.3507080078125
2.068,356,3147,1519,1331,-4.0,30.0,15.0,-66.46728515625,-88.13475799560547,-27.465818405151367,-1.0560302734375,-0.3897705078125,0.7672119140625
2.082,386,3130,1377,1390,-4.0,30.0,15.0,-83.80126190185547,-74.27978515625,-57.739253997802734,-1.18408203125,-0.72216796875,0.72802734375
2.090,383,3147,1557,1478,-1.0,27.0,18.0,-20.935056686401367,-49.926753997802734,-46.691890716552734,-1.4534912109375,-0.170166015625,0.4346923828125
2.099,381,3147,1582,1523,-1.0,27.0,18.0,-20.935056686401367,-49.926753997802734,-46.691890716552734,-1.4534912109375,-0.170166015625,0.4346923828125
2.126,389,3147,1440,1544,-1.0,27.0,18.0,44.250484466552734,-25.756834030151367,-3.601073980331421,-2.232666015625,1.178955078125,-0.0771484375
2.126,391,3147,1377,1533,-1.0,27.0,18.0,44.250484466552734,-25.756834030151367,-3.601073980331421,-2.3541259765625,0.9481201171875,-0.1900634765625
2.128,359,3147,1439,1540,-1.0,27.0,18.0,34.60693359375,-14.343260765075684,-8.36181640625,-2.3541259765625,0.9481201171875,-0.1900634765625
2.142,400,3094,1351,1452,-1.0,27.0,18.0,24.780271530151367,-2.868652105331421,-28.869626998901367,-1.08984375,0.03955078125,0.27587890625
2.150,388,3055,1447,1531,-1.0,27.0,18.0,24.780271530151367,-2.868652105331421,-28.869626998901367,-0.765625,0.2982177734375,0.31103515625
2.158,390,3040,1453,1533,-1.0,27.0,18.0,35.94970703125,5.065917491912842,-26.794431686401367,-0.765625,0.2982177734375,0.31103515625
2.173,389,2988,1341,1374,-1.0,27.0,18.0,12.817381858825684,33.0810546875,-27.893064498901367,-1.7257080078125,0.4722900390625,-0.1951904296875
2.180,383,3000,1462,1430,-1.0,27.0,18.0,12.817381858825684,33.0810546875,-27.893064498901367,-2.1605224609375,0.2928466796875,-0.4251708984375
2.188,378,2954,1501,1397,0.0,26.0,24.0,-10.864256858825684,37.4755859375,-24.108884811401367,-2.1605224609375,0.2928466796875,-0.4251708984375
2.202,376,2746,1359,1233,0.0,26.0,24.0,-47.790523529052734,24.536130905151367,7.080077648162842,-1.8243408203125,0.1724853515625,-0.263427734375
2.230,376,2781,1393,1303,0.0,26.0,24.0,-47.790523529052734,24.536130905151367,7.080077648162842,-1.4630126953125,0.3447265625,-0.0404052734375
2.231,363,2611,1411,1274,0.0,26.0,24.0,-62.377925872802734,17.822265625,25.329587936401367,-1.4630126953125,0.3447265625,-0.0404052734375
2.232,330,2713,1476,827,0.0,26.0,24.0,-87.82958221435547,27.221677780151367,49.560543060302734,-1.0284423828125,0.118896484375,0.2557373046875
2.240,348,2287,1243,1069,0.0,26.0,24.0,-87.82958221435547,27.221677780151367,49.560543060302734,-0.9569091796875,-0.112548828125,0.326904296875
2.248,344,2128,1129,1091,0.0,26.0,24.0,-92.10204315185547,38.87939453125,62.194820404052734,-0.9569091796875,-0.112548828125,0.326904296875
2.262,314,2050,778,902,0.0,26.0,24.0,-63.720699310302734,53.405757904052734,87.70751190185547,-0.6512451171875,-0.4063720703125,0.3382568359375
2.271,302,1936,706,917,0.0,26.0,24.0,-63.720699310302734,53.405757904052734,87.70751190185547,-0.3515625,-0.2965087890625,0.2879638671875
2.278,294,1834,636,859,0.0,26.0,24.0,-23.315427780151367,52.307125091552734,88.56200408935547,-0.3515625,-0.2965087890625,0.2879638671875
2.292,289,1691,572,712,-3.0,30.0,21.0,95.09276580810547,35.400390625,48.217769622802734,0.02294921875,0.1644287109375,0.3660888671875
2.300,289,1595,598,733,-3.0,30.0,21.0,95.09276580810547,35.400390625,48.217769622802734,0.0545654296875,0.422607421875,0.333984375
2.338,286,1516,579,740,-3.0,30.0,21.0,166.62596130371094,33.99658203125,11.657713890075684,0.0545654296875,0.422607421875,0.333984375
2.341,294,1773,468,721,-3.0,30.0,21.0,211.05955505371094,53.527828216552734,-8.72802734375,-0.0538330078125,0.8834228515625,-0.43408203125
2.341,282,1701,531,794,-3.0,30.0,21.0,211.05955505371094,53.527828216552734,-8.72802734375,-0.0538330078125,0.8834228515625,-0.43408203125
2.341,282,1973,441,668,-3.0,30.0,21.0,156.55517578125,54.992671966552734,-0.4272460639476776,-0.3565673828125,0.9205322265625,-0.79736328125
2.347,282,1920,531,824,-3.0,30.0,21.0,89.59960174560547,41.625972747802734,0.30517578125,-0.5135498046875,0.766357421875,-0.9102783203125
2.361,296,2160,518,894,-3.0,30.0,21.0,30.456541061401367,20.385740280151367,-4.45556640625,-0.32568359375,0.110595703125,-0.5283203125
2.370,302,2330,627,1000,-3.0,30.0,21.0,-19.6533203125,-2.563476324081421,-4.638671875,-0.32568359375,0.110595703125,-0.5283203125
2.377,308,2647,738,987,-3.0,30.0,21.0,-54.809566497802734,-25.451658248901367,2.929687261581421,-0.237060546875,-0.017822265625,-0.32861328125
2.391,314,2908,726,986,-5.0,32.0,18.0,-68.29833984375,-46.691890716552734,10.986327171325684,-0.1278076171875,0.1026611328125,-0.190673828125
2.400,322,2944,758,1213,-5.0,32.0,18.0,-67.0166015625,-59.631343841552734,12.329100608825684,-0.1278076171875,0.1026611328125,-0.190673828125
2.407,321,3147,832,1103,-5.0,32.0,18.0,-64.88037109375,-56.579586029052734,8.48388671875,-0.228271484375,0.0633544921875,-0.2930908203125
2.452,351,3134,921,1318,-5.0,32.0,18.0,-58.898921966552734,-43.823238372802734,0.9155272841453552,-1.412353515625,0.0682373046875,-0.543212890625
2.453,371,3147,1151,1445,-5.0,32.0,18.0,-44.616695404052734,-38.2080078125,-11.596678733825684,-1.412353515625,0.0682373046875,-0.543212890625
2.453,383,3147,1217,1494,-5.0,32.0,18.0,-43.945308685302734,-51.696773529052734,-27.160642623901367,-1.7109375,0.2537841796875,-0.1048583984375
2.453,391,3147,1163,1514,-5.0,32.0,18.0,-64.453125,-74.5849609375,-37.90283203125,-1.45849609375,0.16796875,0.5306396484375
2.461,391,3147,1336,1562,-5.0,32.0,18.0,-67.9931640625,-80.74950408935547,-31.677244186401367,-1.2596435546875,0.1263427734375,0.680419921875
2.467,406,3147,1359,1595,-5.0,32.0,18.0,-31.799314498901367,-65.36865234375,-9.94873046875,-1.439697265625,0.5491943359375,0.40234375
2.481,388,3147,1289,1627,-4.0,27.0,19.0,4.69970703125,-46.325679779052734,6.469726085662842,-1.823486328125,1.0169677734375,0.1654052734375
2.491,384,3147,1440,1622,-4.0,27.0,19.0,7.812499523162842,-30.029294967651367,4.2724609375,-2.079345703125,1.0328369140625,0.0791015625
2.497,402,3147,1287,1608,-4.0,27.0,19.0,-1.03759765625,-14.465331077575684,-9.27734375,-1.8719482421875,0.597412109375,0.089599609375
2.511,391,3147,1282,1524,-4.0,27.0,19.0,8.60595703125,-5.615233898162842,-20.568845748901367,-1.2730712890625,0.2066650390625,0.1875
2.541,376,3147,1370,1469,-4.0,27.0,19.0,39.0625,-4.94384765625,-25.085447311401367,-0.8607177734375,0.396728515625,0.2081298828125
2.543,375,3147,1369,1386,-4.0,27.0,19.0,66.5283203125,-1.5869139432907104,-33.26416015625,-1.022216796875,0.8756103515625,0.0460205078125
2.543,363,3147,1282,1331,-4.0,27.0,19.0,68.29833984375,9.8876953125,-52.246089935302734,-1.5997314453125,1.037353515625,-0.252197265625
2.551,399,2985,1334,1380,-4.0,27.0,19.0,43.823238372802734,20.385740280151367,-72.32666015625,-2.0684814453125,0.7777099609375,-0.4873046875
2.558,391,2822,1326,1331,-4.0,27.0,19.0,10.803221702575684,20.690916061401367,-82.03124237060547,-2.124755859375,0.3900146484375,-0.4678955078125
2.571,398,2507,1216,1157,-4.0,27.0,19.0,-14.099120140075684,12.512206077575684,-77.69775390625,-1.875,0.275146484375,-0.2808837890625
2.581,391,2372,1283,1241,0.0,27.0,16.0,-29.235837936401367,5.554198741912842,-64.63623046875,-1.5458984375,0.3359375,-0.0904541015625
2.587,382,2244,1236,1157,0.0,27.0,16.0,-40.222164154052734,6.103515148162842,-52.978511810302734,-1.2706298828125,0.244873046875,0.0540771484375
2.601,356,2035,1063,986,0.0,27.0,16.0,-50.720211029052734,12.390135765075684,-42.480464935302734,-1.037841796875,-0.0245361328125,0.1671142578125
2.611,343,1945,1054,1014,0.0,27.0,16.0,-60.363765716552734,19.1650390625,-26.550291061401367,-0.8236083984375,-0.3756103515625,0.29833984375
2.642,324,1880,933,946,0.0,27.0,16.0,-63.537593841552734,25.390623092651367,-4.21142578125,-0.636474609375,-0.641845703125,0.3951416015625
2.642,305,1588,771,827,0.0,27.0,16.0,-55.358882904052734,33.99658203125,22.827146530151367,-0.4744873046875,-0.684326171875,0.40185546875
2.642,300,1386,673,748,0.0,27.0,16.0,-38.51318359375,42.602535247802734,50.598140716552734,-0.3157958984375,-0.6087646484375,0.4158935546875
2.650,294,1341,631,741,0.0,27.0,16.0,-16.845703125,47.424312591552734,71.59423828125,-0.211181640625,-0.55712890625,0.4532470703125
2.661,279,1160,598,702,0.0,27.0,16.0,9.27734375,48.645015716552734,83.43505096435547,-0.139892578125,-0.4488525390625,0.45703125
2.671,279,1185,600,673,0.0,27.0,16.0,41.076656341552734,49.255367279052734,91.24755096435547,-0.0411376953125,-0.150146484375,0.322509765625
2.677,277,1251,559,714,-3.0,28.0,17.0,74.64599609375,53.527828216552734,96.06932830810547,0.03759765625,0.2823486328125,0.060791015625
2.691,275,1447,481,706,-3.0,28.0,17.0,101.98973846435547,57.434078216552734,94.60448455810547,0.009033203125,0.664306640625,-0.1929931640625
2.700,277,1651,485,794,-3.0,28.0,17.0,117.24852752685547,57.617183685302734,88.25682830810547,-0.1878662109375,0.9002685546875,-0.464111328125
2.707,279,1824,456,835,-3.0,28.0,17.0,115.90575408935547,53.833003997802734,80.93260955810547,-0.4263916015625,0.9312744140625,-0.7547607421875
2.738,281,2155,398,883,-3.0,28.0,17.0,96.13036346435547,41.015621185302734,70.6787109375,-0.525390625,0.7650146484375,-0.8966064453125
2.738,291,2472,461,935,-3.0,28.0,17.0,62.622066497802734,17.333984375,55.847164154052734,-0.4306640625,0.59765625,-0.775390625
2.738,289,2525,578,832,-3.0,28.0,17.0,24.475095748901367,-12.817381858825684,38.26904296875,-0.263916015625,0.56103515625,-0.539306640625
2.751,321,2756,579,1078,-3.0,28.0,17.0,-6.408690929412842,-41.687007904052734,18.9208984375,-0.13037109375,0.570068359375,-0.3905029296875
2.761,324,2881,694,1222,-3.0,28.0,17.0,-22.949216842651367,-64.0869140625,-3.601073980331421,-0.049560546875,0.463623046875,-0.3262939453125
2.767,327,3045,680,1241,-3.0,28.0,17.0,-27.832029342651367,-74.951171875,-27.648923873901367,-0.03466796875,0.2523193359375,-0.3043212890625
2.784,328,3147,922,1287,-2.0,26.0,18.0,-19.10400390625,-70.37353515625,-45.288082122802734,-0.2393798828125,0.239501953125,-0.4822998046875
2.791,360,3147,1108,1411,-2.0,26.0,18.0,-10.681151390075684,-60.607906341552734,-53.222652435302734,-0.9610595703125,0.4788818359375,-0.8536376953125
2.797,371,3147,1294,1455,-2.0,26.0,18.0,-43.151851654052734,-67.9931640625,-58.105464935302734,-1.7978515625,0.572509765625,-0.74658203125
2.816,406,3147,1260,1443,-2.0,26.0,18.0,-115.17333221435547,-96.43553924560547,-67.87109375,-2.067626953125,0.2410888671875,0.093505859375
2.844,414,3147,1455,1462,-2.0,26.0,18.0,-161.86521911621094,-112.54882049560547,-76.72119140625,-1.917724609375,-0.188720703125,0.8109130859375
2.844,424,3147,1411,1456,-2.0,26.0,18.0,-136.65771484375,-95.21483612060547,-69.091796875,-1.779052734375,-0.1568603515625,0.910400390625
2.844,404,3147,1518,1469,-2.0,26.0,18.0,-64.63623046875,-63.232418060302734,-46.630855560302734,-1.7845458984375,0.335693359375,0.6497802734375
2.855,411,3147,1523,1504,-2.0,26.0,18.0,-1.5258787870407104,-37.2314453125,-28.259275436401367,-1.8280029296875,0.7801513671875,0.377197265625
2.857,418,3147,1761,1393,-2.0,26.0,18.0,27.893064498901367,-19.6533203125,-27.587888717651367,-1.5843505859375,0.6993408203125,0.3038330078125
2.873,414,3028,1382,1340,0.0,25.0,16.0,42.297359466552734,-5.0048828125,-42.114253997802734,-1.0885009765625,0.396728515625,0.3411865234375
2.883,411,2945,1483,1478,0.0,25.0,16.0,56.030269622802734,7.629394054412842,-56.152339935302734,-0.8154296875,0.424072265625,0.2576904296875
2.887,408,2899,1490,1464,0.0,25.0,16.0,57.983394622802734,18.49365234375,-64.208984375,-1.0469970703125,0.549560546875,0.031982421875
2.903,407,2746,1386,1278,0.0,25.0,16.0,42.419429779052734,26.672361373901367,-68.7255859375,-1.6956787109375,0.5291748046875,-0.21044921875
2.910,404,2672,1503,1370,0.0,25.0,16.0,14.953612327575684,28.503416061401367,-64.14794921875,-2.2716064453125,0.362060546875,-0.3797607421875
2.918,404,2673,1518,1280,0.0,25.0,16.0,14.953612327575684,28.503416061401367,-64.14794921875,-2.3900146484375,0.1033935546875,-0.374755859375
2.943,373,2527,1401,1067,0.0,25.0,16.0,-52.062984466552734,20.141599655151367,-22.766111373901367,-2.11572265625,0.014404296875,-0.221435546875
2.943,382,2382,1452,1129,0.0,25.0,16.0,-83.19091033935547,17.4560546875,8.72802734375,-1.7078857421875,0.0335693359375,-0.0345458984375
2.947,375,2205,1342,1151,0.0,25.0,16.0,-83.19091033935547,17.4560546875,8.72802734375,-1.3602294921875,-0.0377197265625,0.1177978515625
2.964,348,1989,1117,975,0.0,25.0,16.0,-123.84032440185547,27.282712936401367,66.162109375,-1.0823974609375,-0.181884765625,0.222412109375
2.970,336,1931,1050,1014,-2.0,27.0,15.0,-117.43163299560547,37.841796875,85.38817596435547,-0.8114013671875,-0.3658447265625,0.3133544921875
2.977,318,1838,882,939,-2.0,27.0,15.0,-117.43163299560547,37.841796875,85.38817596435547,-0.4776611328125,-0.4749755859375,0.3345947265625
2.991,295,1582,642,750,-2.0,27.0,15.0,-44.982906341552734,57.495113372802734,88.68407440185547,-0.134521484375,-0.370849609375,0.260498046875
3.000,289,1476,654,766,-2.0,27.0,15.0,6.713866710662842,57.739253997802734,70.12939453125,0.0548095703125,-0.1187744140625,0.236328125
3.009,282,1305,619,706,-2.0,27.0,15.0,6.713866710662842,57.739253997802734,70.12939453125,0.03857421875,0.1636962890625,0.31005859375
3.021,280,1062,579,644,-2.0,27.0,15.0,108.82567596435547,30.822751998901367,-5.737304210662842,-0.0457763671875,0.422607421875,0.344970703125
3.047,279,1066,585,675,-2.0,27.0,15.0,148.98681640625,23.559568405151367,-20.568845748901367,-0.111572265625,0.6358642578125,-0.163330078125
3.051,280,1169,601,687,-2.0,27.0,15.0,183.59373474121094,41.748043060302734,14.038084983825684,-0.3111572265625,0.89990234375,-0.55029296875
3.070,280,1260,586,723,-2.0,27.0,15.0,150.87890625,39.61181640625,16.66259765625,-0.569580078125,0.9505615234375,-0.765869140625
3.070,282,1386,561,740,-4.0,31.0,21.0,150.87890625,39.61181640625,16.66259765625,-0.7305908203125,0.6265869140625,-0.7247314453125
3.081,286,1523,551,738,-4.0,31.0,21.0,21.545408248901367,-2.50244140625,-20.141599655151367,-0.7015380859375,0.28076171875,-0.52490234375
3.091,298,1646,625,846,-4.0,31.0,21.0,-29.174802780151367,-20.324705123901367,-21.850584030151367,-0.602783203125,0.091552734375,-0.3265380859375
3.097,304,1798,679,883,-4.0,31.0,21.0,-29.174802780151367,-20.324705123901367,-21.850584030151367,-0.594970703125,0.031494140625,-0.19873046875
3.111,308,2070,667,871,-4.0,31.0,21.0,-87.03612518310547,-38.6962890625,5.798339366912842,-0.623046875,0.0574951171875,-0.103515625
3.121,321,2277,725,1026,-4.0,31.0,21.0,-91.43065643310547,-44.128414154052734,19.287109375,-0.568359375,0.06787109375,-0.0218505859375
3.150,318,2456,728,1103,-4.0,31.0,21.0,-91.43065643310547,-44.128414154052734,19.287109375,-0.568359375,0.06787109375,-0.0218505859375
3.151,318,2689,736,1078,-4.0,31.0,21.0,-59.387203216552734,-32.89794921875,29.907224655151367,-0.3516845703125,-0.1121826171875,-0.1474609375
3.151,336,2765,765,1239,-4.0,31.0,21.0,-59.387203216552734,-32.89794921875,29.907224655151367,-0.381103515625,-0.0699462890625,-0.33642578125
3.159,346,3121,899,1101,-4.0,31.0,21.0,-32.5927734375,-21.423337936401367,31.066892623901367,-0.381103515625,-0.0699462890625,-0.33642578125
3.175,371,3042,1081,1274,-1.0,25.0,15.0,-12.573241233825684,-41.687007904052734,24.108884811401367,-0.885009765625,0.386474609375,-0.0426025390625
3.179,377,3144,1280,1409,-1.0,25.0,15.0,-12.573241233825684,-41.687007904052734,24.108884811401367,-0.8062744140625,0.436279296875,0.4615478515625
3.187,370,3147,1358,1471,-1.0,25.0,15.0,-38.4521484375,-70.73974609375,11.108397483825684,-0.8062744140625,0.436279296875,0.4615478515625
3.201,379,3147,1452,1537,-1.0,25.0,15.0,-30.273435592651367,-65.00244140625,-26.977537155151367,-0.9356689453125,0.52685546875,0.38671875
3.210,387,3147,1560,1622,-1.0,25.0,15.0,-30.273435592651367,-65.00244140625,-26.977537155151367,-1.464599609375,0.931884765625,-0.0819091796875
3.217,385,3147,1582,1637,-1.0,25.0,15.0,16.90673828125,-43.334957122802734,-39.97802734375,-1.464599609375,0.931884765625,-0.0819091796875
3.250,377,3147,1560,1627,-1.0,25.0,15.0,12.390135765075684,-37.109375,-60.974117279052734,-2.3970947265625,0.9630126953125,-0.3212890625
3.250,391,3147,1638,1574,-1.0,25.0,15.0,12.390135765075684,-37.109375,-60.974117279052734,-2.40380859375,0.429931640625,-0.1380615234375
3.251,369,3147,1470,1514,-1.0,25.0,15.0,-17.51708984375,-38.75732421875,-74.5849609375,-2.40380859375,0.429931640625,-0.1380615234375
3.262,391,3147,1541,1383,-1.0,25.0,15.0,17.7001953125,-41.748043060302734,-73.974609375,-1.0191650390625,-0.11328125,0.4483642578125
3.270,390,3073,1625,1426,0.0,26.0,20.0,17.7001953125,-41.748043060302734,-73.974609375,-0.663818359375,0.3525390625,0.4979248046875
3.280,390,3061,1628,1395,0.0,26.0,20.0,57.739253997802734,-37.17041015625,-66.40625,-0.663818359375,0.3525390625,0.4979248046875
3.291,388,2976,1531,1225,0.0,26.0,20.0,29.113767623901367,6.469726085662842,-67.138671875,-1.520263671875,0.283447265625,0.0316162109375
3.299,389,2930,1627,1374,0.0,26.0,20.0,29.113767623901367,6.469726085662842,-67.138671875,-2.049072265625,-0.0462646484375,-0.122314453125
3.307,401,2813,1572,1397,0.0,26.0,20.0,-9.8876953125,20.141599655151367,-56.518550872802734,-2.049072265625,-0.0462646484375,-0.122314453125
3.321,400,2554,1379,1251,0.0,26.0,20.0,-59.997554779052734,20.935056686401367,3.662109136581421,-1.942138671875,-0.1072998046875,-0.1531982421875
3.329,391,2519,1452,1375,0.0,26.0,20.0,-59.997554779052734,20.935056686401367,3.662109136581421,-1.5670166015625,0.148193359375,-0.0687255859375
3.356,385,2394,1377,1302,0.0,26.0,20.0,-76.35498046875,18.4326171875,35.21728515625,-1.5670166015625,0.148193359375,-0.0687255859375
3.356,359,2203,1335,936,0.0,26.0,20.0,-116.45507049560547,28.686521530151367,73.05908203125,-1.0673828125,0.072265625,0.185791015625
3.362,371,2151,1231,1198,0.0,26.0,20.0,-116.45507049560547,28.686521530151367,73.05908203125,-0.967041015625,-0.1221923828125,0.3555908203125
3.367,334,2271,1237,1067,0.0,24.0,14.0,-127.19725799560547,41.381832122802734,85.99852752685547,-0.967041015625,-0.1221923828125,0.3555908203125
3.389,327,2012,910,951,0.0,24.0,14.0,-121.09374237060547,53.222652435302734,98.14452362060547,-0.731689453125,-0.373046875,0.5069580078125
3.390,310,2058,841,899,0.0,24.0,14.0,-95.15380096435547,60.729976654052734,105.83495330810547,-0.731689453125,-0.373046875,0.5069580078125
3.397,302,1870,694,917,0.0,24.0,14.0,-46.447750091552734,63.659664154052734,105.77391815185547,-0.5286865234375,-0.2371826171875,0.43212890625
3.411,286,1609,508,784,0.0,24.0,14.0,17.27294921875,59.814449310302734,95.21483612060547,-0.183349609375,0.159423828125,0.3309326171875
3.419,278,1492,555,740,0.0,24.0,14.0,81.05467987060547,53.161617279052734,71.35009765625,-0.183349609375,0.159423828125,0.3309326171875
3.427,286,1366,545,721,0.0,24.0,14.0,135.009765625,50.170894622802734,40.588375091552734,-0.0552978515625,0.267333984375,0.27490234375
3.462,275,1233,497,666,0.0,24.0,14.0,174.13328552246094,53.283687591552734,20.446775436401367,0.0020751953125,0.6529541015625,-0.1336669921875
3.463,274,1243,514,748,0.0,24.0,14.0,196.83836364746094,61.584468841552734,18.73779296875,0.0020751953125,0.6529541015625,-0.1336669921875
3.463,273,1315,494,785,0.0,24.0,14.0,197.38768005371094,65.673828125,25.756834030151367,-0.192138671875,0.888427734375,-0.450927734375
3.471,274,1453,456,763,-5.0,29.0,19.0,170.22703552246094,57.189937591552734,25.451658248901367,-0.6973876953125,0.9481201171875,-0.8487548828125
3.480,277,1508,482,849,-5.0,29.0,19.0,122.74169158935547,37.65869140625,8.60595703125,-0.6973876953125,0.9481201171875,-0.8487548828125
3.494,275,1616,470,887,-5.0,29.0,19.0,69.091796875,14.465331077575684,-15.869139671325684,-0.7408447265625,0.6136474609375,-0.7977294921875
3.501,282,1912,481,936,-5.0,29.0,19.0,18.85986328125,-6.774901866912842,-31.616209030151367,-0.57763671875,0.046142578125,-0.427490234375
3.509,291,2063,494,1000,-5.0,29.0,19.0,-23.986814498901367,-26.794431686401367,-31.921384811401367,-0.57763671875,0.046142578125,-0.427490234375
3.517,300,2230,531,1053,-5.0,29.0,19.0,-53.649898529052734,-46.569820404052734,-20.324705123901367,-0.519775390625,0.0592041015625,-0.280029296875
3.533,315,2507,526,1079,-5.0,29.0,19.0,-64.3310546875,-62.499996185302734,-7.507323741912842,-0.2789306640625,0.10986328125,-0.0771484375
3.557,317,2681,600,1216,-5.0,29.0,19.0,-60.729976654052734,-71.044921875,-2.0751953125,-0.2789306640625,0.10986328125,-0.0771484375
3.557,324,2830,619,1251,-5.0,29.0,19.0,-49.499507904052734,-68.66455078125,-0.7324218153953552,-0.1688232421875,0.055908203125,-0.0855712890625
3.561,344,3077,934,1318,-8.0,27.0,17.0,-31.860349655151367,-55.297847747802734,2.01416015625,-0.6181640625,0.2161865234375,-0.4356689453125
3.569,344,3147,1170,1294,-8.0,27.0,17.0,-17.76123046875,-42.297359466552734,0.9155272841453552,-0.6181640625,0.2161865234375,-0.4356689453125
3.579,371,3062,1228,1452,-8.0,27.0,17.0,-27.893064498901367,-44.433589935302734,-13.916014671325684,-1.27490234375,0.36572265625,-0.2784423828125
3.591,414,3080,1169,1453,-8.0,27.0,17.0,-70.61767578125,-62.499996185302734,-41.687007904052734,-1.515625,0.3145751953125,0.325927734375
3.599,423,3104,1341,1588,-8.0,27.0,17.0,-109.86327362060547,-73.05908203125,-66.22314453125,-1.309814453125,0.01953125,0.851806640625
3.607,428,3120,1355,1637,-8.0,27.0,17.0,-93.93309783935547,-58.532711029052734,-67.9931640625,-1.1865234375,0.001953125,0.7215576171875
3.621,418,3147,1387,1608,-8.0,27.0,17.0,-28.869626998901367,-34.97314453125,-49.865718841552734,-1.345458984375,0.478759765625,0.16796875
3.629,430,3147,1464,1700,-8.0,27.0,17.0,23.254392623901367,-25.817869186401367,-32.77587890625,-1.6708984375,0.884521484375,-0.143798828125
3.637,378,3147,1424,1675,-8.0,27.0,17.0,25.756834030151367,-30.273435592651367,-29.907224655151367,-1.994140625,0.826171875,-0.05078125
3.660,411,3147,1443,1629,-8.0,27.0,17.0,5.798339366912842,-29.602048873901367,-36.43798828125,-2.0479736328125,0.452392578125,0.0689697265625
3.660,411,3147,1452,1588,0.0,24.0,23.0,-2.44140625,-18.61572265625,-39.36767578125,-1.5810546875,0.0321044921875,0.1214599609375
3.670,418,3130,1419,1592,0.0,24.0,23.0,7.141112804412842,-9.1552734375,-33.75244140625,-0.998779296875,-0.072265625,0.2132568359375
3.685,411,3081,1349,1474,0.0,24.0,23.0,20.568845748901367,-5.615233898162842,-24.047849655151367,-0.9190673828125,0.230224609375,0.251708984375
3.689,414,2981,1402,1600,0.0,24.0,23.0,23.376462936401367,-0.3662109076976776,-19.10400390625,-1.3626708984375,0.5394287109375,0.114013671875
3.697,411,2922,1411,1552,0.0,24.0,23.0,13.977049827575684,9.82666015625,-21.118162155151367,-1.8759765625,0.576904296875,-0.1376953125
3.711,411,2765,1253,1336,0.0,24.0,23.0,-4.33349609375,17.4560546875,-22.827146530151367,-2.046142578125,0.4117431640625,-0.2845458984375
3.719,387,2744,1377,1380,0.0,24.0,23.0,-24.780271530151367,16.6015625,-17.51708984375,-1.862060546875,0.3045654296875,-0.24267578125
3.727,383,2627,1294,1351,0.0,24.0,23.0,-42.236324310302734,11.596678733825684,-5.798339366912842,-1.5201416015625,0.294921875,-0.102294921875
3.762,371,2404,1163,1107,0.0,24.0,23.0,-54.199214935302734,9.82666015625,5.0048828125,-1.1929931640625,0.2432861328125,0.0577392578125
3.762,346,2820,1303,1043,0.0,24.0,23.0,-60.791011810302734,14.892577171325684,12.451170921325684,-0.970947265625,0.127685546875,0.1876220703125
3.763,346,2194,1117,802,-2.0,25.0,19.0,-65.91796875,25.024412155151367,20.935056686401367,-0.8612060546875,-0.0386962890625,0.3077392578125
3.773,324,2167,999,895,-2.0,25.0,19.0,-70.6787109375,36.7431640625,32.958984375,-0.82666015625,-0.239501953125,0.3978271484375
3.780,316,2131,933,942,-2.0,25.0,19.0,-71.83837890625,49.072261810302734,49.621578216552734,-0.802734375,-0.42529296875,0.368896484375
3.787,304,1994,815,907,-2.0,25.0,19.0,-64.88037109375,59.692378997802734,69.51904296875,-0.7392578125,-0.525146484375,0.2724609375
3.801,290,1830,578,747,-2.0,25.0,19.0,-46.325679779052734,61.462398529052734,86.91405487060547,-0.609619140625,-0.478759765625,0.2408447265625
3.813,282,1745,582,766,-2.0,25.0,19.0,-11.230467796325684,53.344722747802734,94.48241424560547,-0.462646484375,-0.2940673828125,0.2413330078125
3.817,280,1527,527,785,-2.0,25.0,19.0,41.259761810302734,42.602535247802734,86.42577362060547,-0.344970703125,0.0400390625,0.1976318359375
3.831,277,1320,504,683,-2.0,25.0,19.0,94.23827362060547,32.65380859375,66.58935546875,-0.2445068359375,0.430908203125,0.118408203125
3.840,275,1306,518,710,-2.0,25.0,19.0,129.150390625,27.038572311401367,47.058101654052734,-0.19189453125,0.674072265625,0.005126953125
3.862,274,1262,513,728,-2.0,25.0,19.0,150.0244140625,30.029294967651367,36.62109375,-0.2354736328125,0.7264404296875,-0.1494140625
3.865,275,1443,490,702,-7.0,28.0,18.0,165.58836364746094,40.710445404052734,35.5224609375,-0.3612060546875,0.76513671875,-0.357666015625
3.869,277,1583,437,774,-7.0,28.0,18.0,162.35350036621094,49.438472747802734,35.82763671875,-0.5174560546875,0.866455078125,-0.567138671875
3.877,276,1632,485,788,-7.0,28.0,18.0,124.81688690185547,43.457027435302734,26.977537155151367,-0.6568603515625,0.844482421875,-0.684814453125
3.894,277,1908,414,808,-7.0,28.0,18.0,63.964839935302734,21.728513717651367,9.21630859375,-0.6402587890625,0.5882568359375,-0.634033203125
3.899,279,2111,414,920,-7.0,28.0,18.0,4.33349609375,-5.676269054412842,-4.57763671875,-0.4735107421875,0.230224609375,-0.447021484375
3.911,279,2337,388,963,-7.0,28.0,18.0,-38.02490234375,-29.296873092651367,-3.356933355331421,-0.3463134765625,0.0421142578125,-0.262939453125
3.923,289,2673,355,951,-7.0,28.0,18.0,-57.312007904052734,-46.447750091552734,10.375975608825684,-0.2921142578125,0.1414794921875,-0.135498046875
3.943,293,2782,424,1129,-7.0,28.0,18.0,-56.152339935302734,-57.189937591552734,21.545408248901367,-0.256103515625,0.322265625,-0.06298828125
3.978,300,2962,473,1157,-7.0,28.0,18.0,-43.945308685302734,-59.631343841552734,17.88330078125,-0.263427734375,0.357177734375,-0.048095703125
3.978,302,3133,456,1188,-4.0,26.0,19.0,-22.094724655151367,-52.734371185302734,2.01416015625,-0.3170166015625,0.3094482421875,-0.1217041015625
3.978,308,3147,721,1326,-4.0,26.0,19.0,8.056640625,-41.625972747802734,-15.441893577575684,-0.470458984375,0.313720703125,-0.3382568359375
3.978,330,3147,811,1456,-4.0,26.0,19.0,29.602048873901367,-37.78076171875,-28.198240280151367,-0.9364013671875,0.393310546875,-0.560791015625
3.981,356,3147,1151,1588,-4.0,26.0,19.0,23.986814498901367,-53.771968841552734,-37.4755859375,-1.5347900390625,0.4642333984375,-0.4051513671875
3.989,375,3147,1312,1669,-4.0,26.0,19.0,-16.29638671875,-83.86229705810547,-50.109859466552734,-1.640380859375,0.218994140625,0.210205078125
3.997,378,3147,1362,1700,-4.0,26.0,19.0,-59.875484466552734,-98.14452362060547,-64.453125,-1.331787109375,-0.2515869140625,0.6484375
4.011,376,3147,1384,1704,-4.0,26.0,19.0,-59.204097747802734,-82.76366424560547,-63.354488372802734,-1.173095703125,-0.211181640625,0.4808349609375
4.031,390,3147,1516,1746,-4.0,26.0,19.0,-23.986814498901367,-59.570308685302734,-40.832515716552734,-1.291259765625,0.4246826171875,0.0859375
4.032,401,3147,1551,1748,-4.0,26.0,19.0,-5.065917491912842,-48.400875091552734,-15.136717796325684,-1.575927734375,0.9464111328125,-0.076416015625
4.041,424,3147,1382,1791,-4.0,26.0,19.0,-17.27294921875,-46.142574310302734,-5.371093273162842,-1.7861328125,0.8475341796875,0.0955810546875
4.069,423,3147,1464,1813,-1.0,26.0,18.0,-31.738279342651367,-42.053218841552734,-10.803221702575684,-1.77978515625,0.4034423828125,0.2847900390625
4.069,434,3147,1914,1747,-1.0,26.0,18.0,-31.738279342651367,-42.053218841552734,-10.803221702575684,-1.5015869140625,0.1898193359375,0.247802734375
4.071,426,3147,1341,1687,-1.0,26.0,18.0,-6.652831554412842,-25.451658248901367,-12.390135765075684,-1.080322265625,0.35009765625,0.1534423828125
4.079,426,3000,1494,1662,-1.0,26.0,18.0,11.962889671325684,-19.83642578125,-18.49365234375,-0.84716796875,0.7362060546875,0.101318359375
4.088,428,2941,1490,1577,-1.0,26.0,18.0,11.962889671325684,-19.83642578125,-18.49365234375,-0.8736572265625,0.8951416015625,0.0711669921875
4.101,441,2788,1395,1494,-1.0,26.0,18.0,2.807616949081421,-3.234863042831421,-72.265625,-1.1630859375,0.6837158203125,0.06591796875
4.109,433,2684,1494,1595,-1.0,26.0,18.0,-9.94873046875,2.197265625,-91.61376190185547,-1.6070556640625,0.39697265625,0.0406494140625
4.117,439,2571,1490,1572,-1.0,26.0,18.0,-9.94873046875,2.197265625,-91.61376190185547,-1.8746337890625,0.1275634765625,0.018310546875
4.139,428,2473,1391,1357,-1.0,26.0,18.0,-30.090330123901367,1.8310545682907104,-74.15771484375,-1.8270263671875,-0.0570068359375,0.0360107421875
4.140,411,2514,1441,1404,-1.0,26.0,18.0,-40.405269622802734,5.065917491912842,-49.438472747802734,-1.5814208984375,-0.0513916015625,0.0882568359375
4.147,411,2395,1371,1382,0.0,26.0,20.0,-40.405269622802734,5.065917491912842,-49.438472747802734,-1.3033447265625,-0.0316162109375,0.1995849609375
4.170,383,2330,1209,1206,0.0,26.0,20.0,-63.964839935302734,19.34814453125,10.131834983825684,-1.115966796875,-0.13818359375,0.3291015625
4.171,352,2532,1428,1109,0.0,26.0,20.0,-73.974609375,29.846189498901367,38.0859375,-1.0399169921875,-0.2467041015625,0.3927001953125
4.177,359,2428,1107,1131,0.0,26.0,20.0,-73.974609375,29.846189498901367,38.0859375,-1.0155029296875,-0.318603515625,0.407470703125
4.191,338,2195,990,1005,0.0,26.0,20.0,-79.833984375,58.593746185302734,93.93309783935547,-0.9918212890625,-0.3994140625,0.42236328125
4.199,323,2242,957,1014,0.0,26.0,20.0,-77.1484375,73.486328125,121.82616424560547,-0.921630859375,-0.4854736328125,0.4053955078125
4.207,313,2135,754,989,0.0,26.0,20.0,-77.1484375,73.486328125,121.82616424560547,-0.75244140625,-0.52392578125,0.3297119140625
4.221,283,2076,441,879,0.0,26.0,20.0,-33.02001953125,84.96092987060547,163.08592224121094,-0.4810791015625,-0.4161376953125,0.2738037109375
4.229,279,2026,455,933,0.0,26.0,20.0,16.41845703125,71.533203125,162.53660583496094,-0.197509765625,-0.14306640625,0.3033447265625
4.238,275,1929,430,858,0.0,26.0,20.0,16.41845703125,71.533203125,162.53660583496094,-0.0526123046875,0.2740478515625,0.3095703125
4.251,275,1748,414,786,-4.0,27.0,15.0,165.28318786621094,50.781246185302734,98.20555877685547,-0.01171875,0.750244140625,0.148681640625
4.273,275,1753,437,865,-4.0,27.0,15.0,221.80174255371094,58.288570404052734,58.898921966552734,0.0469970703125,1.1292724609375,-0.1595458984375
4.273,279,1864,455,847,-4.0,27.0,15.0,221.80174255371094,58.288570404052734,58.898921966552734,-0.0931396484375,1.4012451171875,-0.6453857421875
4.282,280,1997,439,920,-4.0,27.0,15.0,178.28367614746094,77.45361328125,9.33837890625,-0.4532470703125,1.4901123046875,-1.09130859375
4.289,279,2063,415,966,-4.0,27.0,15.0,178.28367614746094,77.45361328125,9.33837890625,-0.668701171875,1.14404296875,-1.142578125
4.297,280,2172,418,1004,-4.0,27.0,15.0,87.03612518310547,55.603023529052734,-10.803221702575684,-0.668701171875,1.14404296875,-1.142578125
4.311,291,2386,415,998,-4.0,27.0,15.0,-33.02001953125,0.9155272841453552,-39.73388671875,-0.27783203125,0.0023193359375,-0.4827880859375
4.319,304,2538,546,1143,-4.0,27.0,15.0,-33.02001953125,0.9155272841453552,-39.73388671875,-0.1031494140625,-0.140380859375,-0.1678466796875
4.327,313,2616,600,1202,-4.0,27.0,15.0,-59.936519622802734,-22.644041061401367,-33.38623046875,-0.1031494140625,-0.140380859375,-0.1678466796875
4.346,318,2820,576,1159,-4.0,27.0,15.0,-70.25146484375,-60.485836029052734,-18.24951171875,-0.321533203125,0.1971435546875,-0.1763916015625
4.351,324,3022,661,1308,-4.0,30.0,19.0,-70.25146484375,-60.485836029052734,-18.24951171875,-0.42919921875,0.268310546875,-0.21728515625
4.376,330,3092,725,1363,-4.0,30.0,19.0,-68.9697265625,-65.4296875,-22.338865280151367,-0.42919921875,0.268310546875,-0.21728515625
4.376,354,3147,1050,1433,-4.0,30.0,19.0,-48.645015716552734,-47.607418060302734,-28.625486373901367,-0.9464111328125,0.4744873046875,-0.3475341796875
4.379,356,3147,1222,1536,-4.0,30.0,19.0,-48.645015716552734,-47.607418060302734,-28.625486373901367,-1.2623291015625,0.5982666015625,0.0638427734375
4.389,376,3147,1274,1634,-4.0,30.0,19.0,-56.030269622802734,-58.593746185302734,-27.038572311401367,-1.2623291015625,0.5982666015625,0.0638427734375
4.401,387,3147,1222,1733,-4.0,30.0,19.0,-94.17723846435547,-91.24755096435547,-55.725093841552734,-1.0185546875,-0.3681640625,0.944091796875
4.409,390,3147,1404,1801,-4.0,30.0,19.0,-94.17723846435547,-91.24755096435547,-55.725093841552734,-1.171630859375,-0.22607421875,0.5272216796875
4.417,402,3147,1422,1838,-4.0,30.0,19.0,-29.968259811401367,-65.673828125,-63.659664154052734,-1.171630859375,-0.22607421875,0.5272216796875
4.431,409,3147,1357,1840,-4.0,30.0,19.0,43.273921966552734,-24.475095748901367,-26.977537155151367,-1.966552734375,1.010986328125,-0.180419921875
4.439,416,3147,1473,1850,-4.0,30.0,19.0,43.273921966552734,-24.475095748901367,-26.977537155151367,-2.1585693359375,0.832275390625,-0.1185302734375
4.480,431,3147,1379,1862,0.0,27.0,19.0,4.39453125,-20.385740280151367,-21.240232467651367,-2.1585693359375,0.832275390625,-0.1185302734375
4.482,406,3147,1452,1808,0.0,27.0,19.0,-22.827146530151367,-7.568358898162842,-21.972654342651367,-1.274169921875,-0.084228515625,0.1165771484375
4.482,423,3147,1399,1759,0.0,27.0,19.0,-22.827146530151367,-7.568358898162842,-21.972654342651367,-0.8447265625,0.1376953125,0.21484375
4.482,410,3147,1719,1754,0.0,27.0,19.0,-1.4038084745407104,-8.1787109375,-12.084959983825684,-0.8447265625,0.1376953125,0.21484375
4.491,455,2974,1231,1656,0.0,27.0,19.0,23.315427780151367,-0.1831054538488388,-24.353025436401367,-1.1734619140625,0.9781494140625,-0.01025390625
4.499,465,2886,1340,1757,0.0,27.0,19.0,23.315427780151367,-0.1831054538488388,-24.353025436401367,-1.615234375,0.899169921875,-0.1666259765625
4.507,473,2867,1348,1735,0.0,27.0,19.0,7.568358898162842,11.413573265075684,-51.452632904052734,-1.615234375,0.899169921875,-0.1666259765625
4.520,456,2638,1269,1508,0.0,27.0,19.0,-21.728513717651367,16.29638671875,-69.2138671875,-1.80029296875,0.2733154296875,-0.1834716796875
4.529,439,2598,1341,1595,0.0,27.0,19.0,-48.522945404052734,13.671874046325684,-71.47216796875,-1.80029296875,0.2733154296875,-0.1834716796875
4.538,442,2399,1318,1572,0.0,27.0,19.0,-62.622066497802734,9.765625,-61.706539154052734,-1.570068359375,0.213134765625,-0.0521240234375
4.559,428,2398,1209,1188,2.0,29.0,15.0,-67.32177734375,9.09423828125,-46.752925872802734,-1.1455078125,0.120849609375,0.18896484375
4.587,389,2170,1281,1264,2.0,29.0,15.0,-76.7822265625,20.141599655151367,-16.6015625,-1.0595703125,-0.083740234375,0.2474365234375
4.588,388,1957,1125,1133,2.0,29.0,15.0,-83.49608612060547,28.808591842651367,3.662109136581421,-0.962890625,-0.4979248046875,0.372314453125
4.592,349,2105,975,1109,2.0,29.0,15.0,-83.06884002685547,36.56005859375,29.541013717651367,-0.962890625,-0.4979248046875,0.372314453125
4.597,344,1921,1018,1078,2.0,29.0,15.0,-67.93212890625,44.555660247802734,59.692378997802734,-0.9246826171875,-0.60400390625,0.4066162109375
4.612,314,1627,725,927,2.0,29.0,15.0,-38.330078125,54.260250091552734,91.85790252685547,-0.7125244140625,-0.5836181640625,0.394287109375
4.619,298,1600,600,912,2.0,29.0,15.0,-2.990722417831421,62.011714935302734,121.39891815185547,-0.7125244140625,-0.5836181640625,0.394287109375
4.627,280,1463,532,820,2.0,29.0,15.0,29.357908248901367,64.5751953125,142.27294921875,-0.487060546875,-0.515380859375,0.349609375
4.641,275,1386,465,713,-4.0,29.0,17.0,60.913082122802734,62.072750091552734,149.4140625,0.120361328125,0.0225830078125,0.318603515625
4.649,275,1365,467,737,-4.0,29.0,17.0,101.01317596435547,55.603023529052734,142.08984375,0.120361328125,0.0225830078125,0.318603515625
4.684,266,1173,466,780,-4.0,29.0,17.0,153.13720703125,51.696773529052734,123.71825408935547,0.36376953125,0.43798828125,0.25048828125
4.684,274,1409,452,844,-4.0,29.0,17.0,214.23338317871094,55.053707122802734,100.40282440185547,-0.20654296875,1.0450439453125,-0.4486083984375
4.685,272,1519,424,883,-4.0,29.0,17.0,277.7099609375,62.805171966552734,85.99852752685547,-0.20654296875,1.0450439453125,-0.4486083984375
4.687,274,1623,410,905,-4.0,29.0,17.0,313.1103515625,69.76318359375,79.4677734375,-0.578369140625,1.57763671875,-1.2171630859375
4.703,277,1860,359,878,-4.0,29.0,17.0,263.73291015625,63.903804779052734,53.405757904052734,-0.513671875,0.9486083984375,-1.302734375
4.710,277,1989,383,998,-4.0,29.0,17.0,127.07518768310547,33.8134765625,5.554198741912842,-0.513671875,0.9486083984375,-1.302734375
4.717,289,2119,416,1053,-4.0,29.0,17.0,-14.465331077575684,-7.873534679412842,-30.700681686401367,-0.27685546875,0.3370361328125,-0.578125
4.731,319,2310,564,1108,-4.0,29.0,17.0,-91.73583221435547,-40.344234466552734,-40.405269622802734,-0.135009765625,0.1417236328125,-0.195068359375
4.739,330,2381,689,1248,-7.0,28.0,18.0,-115.23436737060547,-60.363765716552734,-39.4287109375,-0.0977783203125,0.1805419921875,-0.152099609375
4.747,336,2479,693,1303,-7.0,28.0,18.0,-125.97655487060547,-71.044921875,-45.959468841552734,-0.1444091796875,0.1341552734375,-0.176025390625
4.761,338,2665,658,1243,-7.0,28.0,18.0,-132.87353515625,-68.29833984375,-58.410640716552734,-0.322021484375,0.0384521484375,-0.2659912109375
4.790,363,2760,829,1395,-7.0,28.0,18.0,-115.23436737060547,-51.757808685302734,-60.363765716552734,-0.5911865234375,0.2445068359375,-0.5029296875
4.791,363,2930,1148,1217,-7.0,28.0,18.0,-83.06884002685547,-37.7197265625,-51.330562591552734,-1.0509033203125,0.7799072265625,-0.744873046875
4.791,388,2659,1206,1318,-7.0,28.0,18.0,-92.83446502685547,-48.950191497802734,-45.959468841552734,-1.704345703125,1.3095703125,-0.5048828125
4.799,437,2599,1264,1499,-7.0,28.0,18.0,-177.97850036621094,-85.51024627685547,-54.565425872802734,-1.9833984375,1.042724609375,0.289794921875
4.811,439,2643,1276,1548,-7.0,28.0,18.0,-271.30126953125,-104.12596893310547,-80.56639862060547,-1.7901611328125,-0.327392578125,0.90625
4.821,472,2683,1209,1409,-7.0,28.0,18.0,-239.99021911621094,-75.3173828125,-96.25243377685547,-1.669189453125,-1.15869140625,0.866943359375
4.829,481,2713,1294,1529,-7.0,28.0,18.0,-86.66991424560547,-36.2548828125,-69.39697265625,-1.682861328125,-0.469482421875,0.5174560546875
4.837,445,2782,1306,1494,0.0,29.0,20.0,36.9873046875,-21.728513717651367,-25.024412155151367,-1.583984375,0.528564453125,0.309814453125
4.852,461,2664,1160,1393,0.0,29.0,20.0,63.781734466552734,-15.624999046325684,-3.051757574081421,-1.296630859375,0.7900390625,0.268798828125
4.860,433,2765,1429,1395,0.0,29.0,20.0,51.208492279052734,0.8544921278953552,-8.544921875,-0.990234375,0.5224609375,0.25830078125
4.904,437,2734,1268,1437,0.0,29.0,20.0,46.508785247802734,20.01953125,-23.315427780151367,-0.9112548828125,0.3604736328125,0.1485595703125
4.911,416,2580,1331,1422,0.0,29.0,20.0,43.579097747802734,29.907224655151367,-31.738279342651367,-1.1729736328125,0.4642333984375,-0.0767822265625
4.912,411,2512,1330,1397,0.0,29.0,20.0,28.015134811401367,30.822751998901367,-32.958984375,-1.6201171875,0.658447265625,-0.3394775390625
4.912,411,2407,1323,1375,0.0,29.0,20.0,-1.3427733182907104,27.282712936401367,-31.249998092651367,-1.8798828125,0.6707763671875,-0.45166015625
4.914,427,2213,1262,1236,0.0,29.0,20.0,-32.3486328125,20.812986373901367,-28.442380905151367,-1.8046875,0.4840087890625,-0.327880859375
4.924,426,2078,1254,1323,0.0,29.0,20.0,-51.574703216552734,13.183592796325684,-22.338865280151367,-1.555908203125,0.3333740234375,-0.11572265625
4.927,405,1967,1241,1282,0.0,29.0,20.0,-61.401363372802734,9.82666015625,-13.061522483825684,-1.321533203125,0.272705078125,0.0533447265625
4.941,402,1811,1111,1116,0.0,29.0,13.0,-66.2841796875,14.160155296325684,-2.868652105331421,-1.157470703125,0.1822509765625,0.1624755859375
4.949,379,1709,1125,1188,0.0,29.0,13.0,-63.415523529052734,23.254392623901367,8.23974609375,-1.0382080078125,-0.0191650390625,0.2623291015625
4.957,371,1623,1065,1131,0.0,29.0,13.0,-47.241207122802734,31.982419967651367,21.179197311401367,-0.93896484375,-0.264404296875,0.3616943359375
4.992,338,1516,864,951,0.0,29.0,13.0,-17.39501953125,39.24560546875,36.80419921875,-0.84912109375,-0.422119140625,0.3804931640625
4.992,328,1478,811,976,0.0,29.0,13.0,18.73779296875,46.020503997802734,54.565425872802734,-0.7520751953125,-0.4476318359375,0.3160400390625
4.992,310,1411,711,931,0.0,29.0,13.0,48.706050872802734,49.682613372802734,71.71630859375,-0.6217041015625,-0.39453125,0.2659912109375
5.001,287,1271,579,767,0.0,29.0,13.0,67.3828125,49.743648529052734,84.35057830810547,-0.4857177734375,-0.3154296875,0.2449951171875
5.009,286,1149,578,788,0.0,29.0,13.0,82.51952362060547,49.560543060302734,89.05028533935547,-0.3848876953125,-0.166015625,0.212158203125
5.017,277,1064,569,739,0.0,29.0,13.0,102.53905487060547,49.194332122802734,86.97509002685547,-0.2869873046875,0.117431640625,0.1663818359375
5.036,279,973,537,648,-3.0,29.0,10.0,129.39453125,48.217769622802734,83.31298065185547,-0.173095703125,0.439697265625,0.0933837890625
5.039,277,1026,540,693,-3.0,29.0,10.0,160.0341796875,50.231929779052734,77.94189453125,-0.0731201171875,0.648681640625,-0.0386962890625
5.047,273,1097,519,748,-3.0,29.0,10.0,184.14305114746094,59.753414154052734,67.138671875,-0.12744140625,0.7744140625,-0.2822265625
5.061,272,1278,479,785,-3.0,29.0,10.0,182.49510192871094,71.044921875,54.016109466552734,-0.4012451171875,0.92919921875,-0.6380615234375
5.069,277,1375,485,883,-3.0,29.0,10.0,142.27294921875,68.84765625,40.893550872802734,-0.66650390625,1.024169921875,-0.9566650390625
5.100,275,1559,473,900,-3.0,29.0,10.0,76.11083984375,47.668453216552734,23.132322311401367,-0.671875,0.85693359375,-1.0009765625
5.100,263,1808,464,872,-3.0,29.0,10.0,9.94873046875,15.991209983825684,2.50244140625,-0.470947265625,0.4927978515625,-0.749267578125
5.100,289,2001,423,1064,-3.0,29.0,10.0,-35.33935546875,-16.17431640625,-10.131834983825684,-0.24072265625,0.2584228515625,-0.4512939453125
5.107,302,2197,512,1050,-3.0,29.0,10.0,-52.978511810302734,-45.837398529052734,-11.657713890075684,-0.055908203125,0.285888671875,-0.2633056640625
5.121,321,2370,562,1137,-3.0,29.0,10.0,-57.312007904052734,-71.22802734375,-12.084959983825684,0.002197265625,0.3897705078125,-0.238037109375
5.129,328,2543,619,1228,-5.0,29.0,21.0,-72.021484375,-83.92333221435547,-20.568845748901367,-0.0855712890625,0.3765869140625,-0.2882080078125
5.137,334,2643,614,1274,-5.0,29.0,21.0,-92.77342987060547,-78.67431640625,-32.958984375,-0.2435302734375,0.31884765625,-0.31982421875
5.151,356,2760,841,1220,-5.0,29.0,21.0,-93.44481658935547,-59.753414154052734,-39.794921875,-0.5858154296875,0.436767578125,-0.4384765625
5.159,365,2622,1143,1386,-5.0,29.0,21.0,-85.44921112060547,-40.832515716552734,-40.161128997802734,-1.2689208984375,0.8856201171875,-0.5406494140625
5.167,400,2596,1214,1384,-5.0,29.0,21.0,-127.86864471435547,-42.053218841552734,-41.503902435302734,-1.95849609375,1.1778564453125,-0.2457275390625
5.202,403,2527,1276,1276,-5.0,29.0,21.0,-237.18260192871094,-58.654781341552734,-52.795406341552734,-2.0743408203125,0.3876953125,0.2161865234375
5.203,400,2610,1390,1401,-5.0,29.0,21.0,-311.4013671875,-59.448238372802734,-72.265625,-1.779541015625,-0.867919921875,0.4276123046875
5.203,401,3147,1398,1480,-5.0,29.0,21.0,-238.70848083496094,-42.053218841552734,-73.73046875,-1.610107421875,-0.9652099609375,0.4576416015625
5.211,419,2782,1357,1303,-5.0,29.0,21.0,-80.38329315185547,-32.470703125,-43.518062591552734,-1.6063232421875,0.04150390625,0.4659423828125
5.220,470,2622,1345,1536,-5.0,29.0,21.0,19.83642578125,-32.5927734375,-10.437010765075684,-1.569580078125,0.8345947265625,0.5623779296875
5.227,484,2647,1305,1523,0.0,29.0,18.0,19.83642578125,-32.5927734375,-10.437010765075684,-1.3421630859375,0.80126953125,0.585205078125
5.241,480,2574,1201,1340,0.0,29.0,18.0,51.635738372802734,3.906249761581421,-16.11328125,-1.006591796875,0.4388427734375,0.4451904296875
5.249,480,2551,1272,1467,0.0,29.0,18.0,77.63671875,24.658201217651367,-32.5927734375,-0.87109375,0.427001953125,0.2261962890625
5.261,481,2504,1280,1462,0.0,29.0,18.0,77.63671875,24.658201217651367,-32.5927734375,-1.1710205078125,0.7330322265625,-0.0953369140625
5.273,473,2364,1260,1289,0.0,29.0,18.0,73.42529296875,34.5458984375,-37.90283203125,-1.6849365234375,0.874755859375,-0.4554443359375
5.296,460,2345,1312,1334,0.0,29.0,18.0,29.846189498901367,32.8369140625,-34.60693359375,-1.9481201171875,0.6485595703125,-0.6182861328125
5.305,445,2296,1357,1258,0.0,29.0,18.0,29.846189498901367,32.8369140625,-34.60693359375,-1.8321533203125,0.3045654296875,-0.4678955078125
5.305,426,2012,1278,1078,0.0,29.0,18.0,-32.958984375,10.009765625,-11.535643577575684,-1.5355224609375,0.1129150390625,-0.1531982421875
5.309,438,1954,1138,1262,0.0,29.0,18.0,-37.65869140625,3.723144292831421,5.920409679412842,-1.255859375,0.029052734375,0.138916015625
5.317,418,1904,1122,1214,0.0,29.0,18.0,-37.65869140625,3.723144292831421,5.920409679412842,-1.0609130859375,-0.126953125,0.3465576171875
5.331,375,1820,935,1067,2.0,31.0,16.0,-10.620116233825684,17.9443359375,39.12353515625,-0.93359375,-0.3427734375,0.4366455078125
5.339,354,1803,883,1101,2.0,31.0,16.0,19.47021484375,28.625486373901367,59.448238372802734,-0.833251953125,-0.444580078125,0.3656005859375
5.347,334,1730,797,1039,2.0,31.0,16.0,19.47021484375,28.625486373901367,59.448238372802734,-0.712158203125,-0.3851318359375,0.2557373046875
5.361,310,1681,593,872,2.0,31.0,16.0,69.27490234375,38.57421875,104.24803924560547,-0.5382080078125,-0.2998046875,0.252197265625
5.375,304,1560,572,895,2.0,31.0,16.0,79.89501953125,37.41455078125,111.45018768310547,-0.382568359375,-0.2747802734375,0.2752685546875
5.378,291,1476,539,860,2.0,31.0,16.0,79.89501953125,37.41455078125,111.45018768310547,-0.2957763671875,-0.1724853515625,0.2568359375
5.399,280,1355,526,702,2.0,31.0,16.0,131.8359375,39.0625,88.43993377685547,-0.1707763671875,0.1529541015625,0.1793212890625
5.400,274,1268,526,744,2.0,31.0,16.0,181.21336364746094,43.945308685302734,70.37353515625,0.012451171875,0.57666015625,-0.021240234375
5.410,275,1303,518,759,2.0,31.0,16.0,181.21336364746094,43.945308685302734,70.37353515625,-0.0423583984375,0.8707275390625,-0.3896484375
5.421,275,1516,468,759,2.0,31.0,16.0,226.62351989746094,75.439453125,46.508785247802734,-0.4019775390625,1.1025390625,-0.8582763671875
5.429,279,1590,481,844,-8.0,33.0,13.0,183.77684020996094,75.62255859375,45.227046966552734,-0.7198486328125,1.303955078125,-1.18994140625
5.437,277,1611,464,898,-8.0,33.0,13.0,183.77684020996094,75.62255859375,45.227046966552734,-0.7198486328125,1.303955078125,-1.18994140625
5.451,275,1753,406,889,-8.0,33.0,13.0,14.953612327575684,26.550291061401367,7.812499523162842,-0.6865234375,0.718505859375,-0.8236083984375
5.459,279,1864,426,989,-8.0,33.0,13.0,14.953612327575684,26.550291061401367,7.812499523162842,-0.4189453125,0.2554931640625,-0.4224853515625
5.467,279,2000,406,1045,-8.0,33.0,13.0,-61.706539154052734,2.25830078125,-15.991209983825684,-0.4189453125,0.2554931640625,-0.4224853515625
5.507,296,2221,445,1041,-8.0,33.0,13.0,-122.55858612060547,-31.616209030151367,-28.808591842651367,-0.107177734375,0.066162109375,-0.1441650390625
5.507,279,2526,418,1163,-8.0,33.0,13.0,-122.55858612060547,-31.616209030151367,-28.808591842651367,-0.1103515625,0.2027587890625,-0.2086181640625
5.507,315,2418,529,1231,-8.0,33.0,13.0,-108.21532440185547,-49.438472747802734,-26.794431686401367,-0.1103515625,0.2027587890625,-0.2086181640625
5.517,322,2689,467,1129,-8.0,33.0,13.0,-46.691890716552734,-74.64599609375,-36.0107421875,-0.3026123046875,0.3685302734375,-0.334716796875
5.519,330,2748,705,1189,-8.0,33.0,13.0,-46.691890716552734,-74.64599609375,-36.0107421875,-0.5943603515625,0.5985107421875,-0.454345703125
5.527,348,2788,899,1318,-4.0,31.0,15.0,-15.380858421325684,-70.25146484375,-39.9169921875,-0.5943603515625,0.5985107421875,-0.454345703125
5.541,371,2599,1054,1243,-4.0,31.0,15.0,-103.75975799560547,-69.7021484375,-38.51318359375,-1.4351806640625,1.663818359375,-0.081787109375
5.549,385,2557,1266,1357,-4.0,31.0,15.0,-103.75975799560547,-69.7021484375,-38.51318359375,-1.4425048828125,1.146240234375,0.402587890625
5.574,387,2565,1289,1390,-4.0,31.0,15.0,-242.12644958496094,-80.81053924560547,-54.077144622802734,-1.4425048828125,1.146240234375,0.402587890625
5.574,416,2656,1248,1386,-4.0,31.0,15.0,-258.30078125,-41.442867279052734,-94.84862518310547,-1.6500244140625,-1.28662109375,0.50390625
5.581,438,2753,1316,1398,-4.0,31.0,15.0,-258.30078125,-41.442867279052734,-94.84862518310547,-1.7723388671875,-0.7119140625,0.3101806640625
5.608,490,2745,1255,1456,-4.0,31.0,15.0,-86.42577362060547,-21.301267623901367,-74.27978515625,-1.7723388671875,-0.7119140625,0.3101806640625
5.609,490,2692,1173,1294,-4.0,31.0,15.0,85.20507049560547,-25.207517623901367,-14.953612327575684,-1.5343017578125,0.7469482421875,0.2657470703125
5.609,465,2828,1377,1003,-4.0,31.0,15.0,85.20507049560547,-25.207517623901367,-14.953612327575684,-1.2132568359375,0.6910400390625,0.2972412109375
5.624,441,2736,1268,1321,-4.0,31.0,15.0,87.52440643310547,-11.779784202575684,-15.747069358825684,-1.2132568359375,0.6910400390625,0.2972412109375
5.632,445,2658,1173,1173,-2.0,30.0,19.0,118.53026580810547,26.062009811401367,-52.307125091552734,-0.9906005859375,0.579345703125,-0.00146484375
5.639,462,2587,1266,1306,-2.0,30.0,19.0,118.53026580810547,26.062009811401367,-52.307125091552734,-1.417236328125,0.83544921875,-0.3408203125
5.647,479,2435,1231,1333,-2.0,30.0,19.0,109.55809783935547,29.235837936401367,-54.687496185302734,-1.417236328125,0.83544921875,-0.3408203125
5.661,481,2220,1129,1209,-2.0,30.0,19.0,62.072750091552734,27.832029342651367,-48.706050872802734,-1.8321533203125,0.4898681640625,-0.556884765625
5.669,473,2131,1188,1289,-2.0,30.0,19.0,3.601073980331421,21.606443405151367,-39.97802734375,-1.8321533203125,0.4898681640625,-0.556884765625
5.677,457,2060,1170,1253,-2.0,30.0,19.0,-34.97314453125,10.681151390075684,-28.686521530151367,-1.59521484375,0.1527099609375,-0.2406005859375
5.713,406,1892,1085,1012,-2.0,30.0,19.0,-51.940914154052734,3.662109136581421,-13.366698265075684,-1.1124267578125,-0.1143798828125,0.2513427734375
5.714,401,1792,1042,960,-2.0,30.0,19.0,-60.119625091552734,6.591796398162842,5.676269054412842,-1.1124267578125,-0.1143798828125,0.2513427734375
5.714,382,1686,1055,1157,-2.0,30.0,19.0,-61.889644622802734,17.15087890625,27.160642623901367,-1.01513671875,-0.2708740234375,0.3197021484375
5.721,359,1537,933,994,-1.0,29.0,12.0,-50.720211029052734,30.822751998901367,50.720211029052734,-0.942138671875,-0.3590087890625,0.166748046875
5.732,336,1468,860,1029,-1.0,29.0,12.0,-28.259275436401367,43.395992279052734,75.98876953125,-0.942138671875,-0.3590087890625,0.166748046875
5.737,316,1433,733,963,-1.0,29.0,12.0,-6.225585460662842,50.476070404052734,97.47313690185547,-0.82666015625,-0.2730712890625,0.1307373046875
5.751,292,1278,577,818,-1.0,29.0,12.0,7.263183116912842,51.025386810302734,107.66600799560547,-0.4501953125,-0.1343994140625,0.1285400390625
5.759,282,1160,579,799,-1.0,29.0,12.0,19.71435546875,49.133296966552734,103.08837127685547,-0.4501953125,-0.1343994140625,0.1285400390625
5.767,278,1051,569,747,-1.0,29.0,12.0,46.386714935302734,46.203609466552734,84.96092987060547,-0.3194580078125,0.083251953125,0.1199951171875
5.781,274,905,579,659,-1.0,29.0,12.0,90.57616424560547,41.442867279052734,59.997554779052734,-0.1270751953125,0.631103515625,0.033203125
5.789,274,858,543,687,-1.0,29.0,12.0,139.6484375,38.75732421875,38.9404296875,-0.1270751953125,0.631103515625,0.033203125
5.810,268,883,539,713,-1.0,29.0,12.0,176.51365661621094,41.809078216552734,33.0810546875,-0.35302734375,0.7171630859375,-0.1329345703125
5.812,274,973,521,695,-1.0,29.0,12.0,186.09617614746094,44.189449310302734,34.7900390625,-0.6363525390625,0.936767578125,-0.4937744140625
5.825,274,1039,527,775,-8.0,31.0,17.0,158.02001953125,34.60693359375,17.822265625,-0.6363525390625,0.936767578125,-0.4937744140625
5.828,265,1198,482,799,-8.0,31.0,17.0,99.42626190185547,23.010251998901367,-8.23974609375,-0.3890380859375,0.881103515625,-0.514892578125
5.842,275,1357,466,820,-8.0,31.0,17.0,40.954586029052734,19.6533203125,-16.7236328125,-0.6143798828125,0.53857421875,-0.6334228515625
5.849,277,1474,479,912,-8.0,31.0,17.0,2.563476324081421,10.375975608825684,-15.319823265075684,-0.6143798828125,0.53857421875,-0.6334228515625
5.857,280,1595,473,944,-8.0,31.0,17.0,-24.291990280151367,-7.141112804412842,-14.953612327575684,-0.544677734375,0.3497314453125,-0.4908447265625
5.871,279,1834,406,958,-8.0,31.0,17.0,-48.889156341552734,-22.155759811401367,-12.573241233825684,-0.3740234375,0.196533203125,-0.2437744140625
5.879,298,1973,501,1097,-8.0,31.0,17.0,-69.15283203125,-34.60693359375,-7.202147960662842,-0.3740234375,0.196533203125,-0.2437744140625
5.888,304,2111,536,1156,-8.0,31.0,17.0,-79.345703125,-46.264644622802734,-2.990722417831421,-0.3216552734375,0.20458984375,-0.15185546875
5.913,308,2395,487,1081,-8.0,31.0,17.0,-76.84326171875,-53.344722747802734,-2.38037109375,-0.2802734375,0.1719970703125,-0.0867919921875
5.913,298,2552,426,1202,-8.0,31.0,17.0,-60.852046966552734,-52.734371185302734,-4.7607421875,-0.29248046875,0.0897216796875,-0.0523681640625
5.917,326,2633,535,1225,-6.0,31.0,13.0,-28.442380905151367,-46.142574310302734,-7.751464366912842,-0.3929443359375,0.1116943359375,-0.0631103515625
5.945,338,2734,654,1204,-6.0,31.0,13.0,12.634276390075684,-39.6728515625,-11.596678733825684,-0.65576171875,0.3974609375,-0.1690673828125
5.946,348,2763,853,1370,-6.0,31.0,13.0,32.71484375,-39.9169921875,-18.798828125,-1.0543212890625,0.93896484375,-0.3289794921875
5.947,323,3084,1112,1242,-6.0,31.0,13.0,-2.01416015625,-49.255367279052734,-32.53173828125,-1.286865234375,1.3785400390625,-0.3160400390625
5.961,378,2684,1018,1294,-6.0,31.0,13.0,-86.91405487060547,-58.410640716552734,-54.199214935302734,-1.334716796875,1.2457275390625,-0.115966796875
5.969,383,2677,1156,1453,-6.0,31.0,13.0,-164.91697692871094,-56.030269622802734,-75.50048828125,-1.4815673828125,0.53173828125,0.06591796875
5.977,399,2668,1213,1483,-6.0,31.0,13.0,-177.79539489746094,-44.677730560302734,-82.39745330810547,-1.7852783203125,-0.2103271484375,0.1285400390625
5.991,406,2610,1132,1422,-6.0,31.0,13.0,-127.13622283935547,-34.3017578125,-69.27490234375,-2.042236328125,-0.459228515625,0.1319580078125
6.015,440,2578,1134,1568,-6.0,31.0,13.0,-60.852046966552734,-30.700681686401367,-42.358394622802734,-1.997802734375,-0.235595703125,0.1766357421875
6.015,437,2571,1047,1426,-6.0,31.0,13.0,-8.48388671875,-30.395505905151367,-15.380858421325684,-1.529541015625,0.029052734375,0.301513671875
6.021,434,2612,1129,1497,2.0,28.0,22.0,36.62109375,-24.963376998901367,-0.1831054538488388,-0.9713134765625,0.23583984375,0.4088134765625
6.029,426,2560,1117,1545,2.0,28.0,22.0,72.20458984375,-12.695311546325684,2.990722417831421,-0.855712890625,0.60791015625,0.2982177734375
6.037,424,2494,1134,1531,2.0,28.0,22.0,74.03564453125,4.39453125,-0.54931640625,-1.23193359375,0.935546875,-0.072998046875
6.055,414,2384,1064,1390,2.0,28.0,22.0,37.41455078125,20.751951217651367,-8.23974609375,-1.6539306640625,0.8822021484375,-0.444580078125
6.059,413,2328,1138,1471,2.0,28.0,22.0,-10.498045921325684,25.939939498901367,-13.549803733825684,-1.7406005859375,0.556640625,-0.5003662109375
6.067,404,2292,1125,1437,2.0,28.0,22.0,-41.503902435302734,17.08984375,-10.437010765075684,-1.5250244140625,0.3056640625,-0.272705078125
6.081,386,2186,1010,1253,2.0,28.0,22.0,-50.659175872802734,5.249022960662842,-0.30517578125,-1.2568359375,0.239990234375,-0.0213623046875
6.089,390,2041,1062,1336,2.0,28.0,22.0,-47.485347747802734,2.44140625,10.375975608825684,-1.0972900390625,0.260498046875,0.1165771484375
6.116,375,1989,1014,1274,2.0,28.0,22.0,-39.36767578125,9.58251953125,18.310546875,-1.045654296875,0.2445068359375,0.1712646484375
6.116,364,1798,920,1109,-3.0,30.0,20.0,-28.564451217651367,20.507810592651367,24.841306686401367,-1.0316162109375,0.1409912109375,0.1998291015625
6.119,359,1704,906,1146,-3.0,30.0,20.0,-15.808104515075684,30.334470748901367,32.8369140625,-0.9957275390625,-0.015625,0.20166015625
6.127,338,1652,818,1117,-3.0,30.0,20.0,-1.8920897245407104,37.841796875,43.273921966552734,-0.8955078125,-0.171630859375,0.1793212890625
6.141,302,1659,600,934,-3.0,30.0,20.0,12.573241233825684,41.931148529052734,54.016109466552734,-0.7462158203125,-0.261474609375,0.1617431640625
6.164,296,1627,591,946,-3.0,30.0,20.0,25.268552780151367,39.4287109375,61.401363372802734,-0.590087890625,-0.22705078125,0.192626953125
6.164,280,1627,532,749,-3.0,30.0,20.0,40.527339935302734,30.517576217651367,60.546871185302734,-0.4810791015625,-0.0650634765625,0.2445068359375
6.171,280,1398,508,808,-3.0,30.0,20.0,72.509765625,23.010251998901367,47.485347747802734,-0.40625,0.187744140625,0.2232666015625
6.179,279,1341,519,842,-3.0,30.0,20.0,120.97167205810547,22.460935592651367,25.634763717651367,-0.3057861328125,0.455810546875,0.1065673828125
6.187,278,1306,526,829,-3.0,30.0,20.0,165.34422302246094,27.282712936401367,8.6669921875,-0.257568359375,0.6607666015625,-0.0615234375
6.219,277,1308,485,774,-3.0,30.0,20.0,186.40135192871094,33.14208984375,5.676269054412842,-0.3282470703125,0.8017578125,-0.2427978515625
6.220,277,1331,496,694,-7.0,29.0,16.0,173.15672302246094,36.80419921875,8.60595703125,-0.4501953125,0.89013671875,-0.4326171875
6.220,268,1456,455,846,-7.0,29.0,16.0,126.70897674560547,37.2314453125,4.39453125,-0.60595703125,0.855712890625,-0.608642578125
6.231,279,1478,473,834,-7.0,29.0,16.0,66.89453125,31.677244186401367,-8.544921875,-0.7462158203125,0.711669921875,-0.698974609375
6.239,279,1521,487,929,-7.0,29.0,16.0,15.197752952575684,18.98193359375,-21.972654342651367,-0.7242431640625,0.5267333984375,-0.6319580078125
6.247,280,1662,494,944,-7.0,29.0,16.0,-25.268552780151367,2.929687261581421,-28.503416061401367,-0.5712890625,0.2945556640625,-0.43994140625
6.262,282,1863,424,947,-7.0,29.0,16.0,-57.983394622802734,-12.390135765075684,-24.353025436401367,-0.4444580078125,0.0908203125,-0.268310546875
6.275,294,1983,462,1063,-7.0,29.0,16.0,-75.8056640625,-25.939939498901367,-10.314940452575684,-0.4102783203125,0.0460205078125,-0.2059326171875
6.277,296,2121,576,1012,-7.0,29.0,16.0,-74.70703125,-38.75732421875,6.225585460662842,-0.4437255859375,0.1295166015625,-0.1839599609375
6.291,305,2306,445,1107,-7.0,29.0,16.0,-65.97900390625,-49.316402435302734,16.17431640625,-0.47021484375,0.1802978515625,-0.1282958984375
6.299,300,2473,479,1201,-7.0,29.0,16.0,-54.626461029052734,-50.170894622802734,15.686034202575684,-0.46044921875,0.1278076171875,-0.1068115234375
6.310,308,2554,509,1216,-6.0,29.0,13.0,-34.72900390625,-37.78076171875,8.11767578125,-0.4818115234375,0.074462890625,-0.195556640625
6.321,330,2748,694,1146,-6.0,29.0,13.0,-12.207030296325684,-23.376462936401367,-0.8544921278953552,-0.6383056640625,0.17333984375,-0.3096923828125
6.329,351,2734,946,1340,-6.0,29.0,13.0,-6.225585460662842,-23.315427780151367,-10.742186546325684,-0.984130859375,0.4698486328125,-0.2672119140625
6.348,361,2736,1057,1362,-6.0,29.0,13.0,-33.50830078125,-40.771480560302734,-23.010251998901367,-1.2926025390625,0.718017578125,0.0328369140625
6.370,385,2765,1029,1294,-6.0,29.0,13.0,-81.84813690185547,-56.884761810302734,-36.19384765625,-1.3173828125,0.6328125,0.303466796875
6.375,388,2828,1160,1422,-6.0,29.0,13.0,-106.81151580810547,-50.781246185302734,-44.738765716552734,-1.2347412109375,0.2958984375,0.293212890625
6.396,406,2833,1213,1440,-6.0,29.0,13.0,-106.81151580810547,-50.781246185302734,-44.738765716552734,-1.322509765625,0.08154296875,0.1612548828125
6.396,414,2905,1145,1323,-6.0,29.0,13.0,-28.076169967651367,-17.39501953125,-34.85107421875,-1.497314453125,0.2281494140625,0.1043701171875
6.396,454,2760,1149,1583,-6.0,29.0,13.0,6.469726085662842,-18.5546875,-22.216794967651367,-1.5792236328125,0.50830078125,0.153076171875
6.399,469,2760,1125,1583,-6.0,29.0,13.0,6.469726085662842,-18.5546875,-22.216794967651367,-1.60302734375,0.7274169921875,0.1329345703125
6.425,499,2810,1000,1393,-1.0,30.0,17.0,31.433103561401367,-15.930174827575684,-12.512206077575684,-1.50830078125,0.7591552734375,0.0198974609375
6.425,485,2781,1265,1251,-1.0,30.0,17.0,39.48974609375,-8.056640625,-19.59228515625,-1.2032470703125,0.4891357421875,0.0067138671875
6.427,508,2877,985,1399,-1.0,30.0,17.0,39.48974609375,-8.056640625,-19.59228515625,-0.974365234375,0.3465576171875,0.056396484375
6.441,482,2627,1054,1417,-1.0,30.0,17.0,59.814449310302734,1.5258787870407104,-36.7431640625,-1.144775390625,0.5458984375,-0.008544921875
6.449,465,2557,1155,1552,-1.0,30.0,17.0,43.151851654052734,9.70458984375,-40.0390625,-1.56005859375,0.6881103515625,-0.2252197265625
6.457,466,2505,1155,1504,-1.0,30.0,17.0,43.151851654052734,9.70458984375,-40.0390625,-1.8153076171875,0.5587158203125,-0.4202880859375
6.476,445,2320,1101,1340,-1.0,30.0,17.0,-28.015134811401367,22.705076217651367,-34.66796875,-1.750732421875,0.3323974609375,-0.3985595703125
6.479,442,2287,1149,1399,-1.0,30.0,17.0,-50.476070404052734,16.54052734375,-21.057126998901367,-1.5107421875,0.2034912109375,-0.1964111328125
6.487,423,2178,1143,1369,-1.0,30.0,17.0,-50.476070404052734,16.54052734375,-21.057126998901367,-1.2828369140625,0.15869140625,0.029052734375
6.501,382,2119,1018,1145,-1.0,30.0,19.0,-71.044921875,14.099120140075684,11.718749046325684,-1.1455078125,0.096435546875,0.1778564453125
6.526,375,2010,1038,1182,-1.0,30.0,19.0,-69.2138671875,24.047849655151367,28.137205123901367,-1.0888671875,-0.0155029296875,0.2470703125
6.526,361,1850,971,1112,-1.0,30.0,19.0,-69.2138671875,24.047849655151367,28.137205123901367,-1.0545654296875,-0.124755859375,0.244873046875
6.531,330,1662,890,1018,-1.0,30.0,19.0,-33.3251953125,45.410152435302734,61.035152435302734,-0.9708251953125,-0.1866455078125,0.1715087890625
6.540,317,1529,767,968,-1.0,30.0,19.0,-7.690429210662842,52.429195404052734,72.57080078125,-0.8245849609375,-0.1864013671875,0.1290283203125
6.547,304,1362,666,944,-1.0,30.0,19.0,-7.690429210662842,52.429195404052734,72.57080078125,-0.643798828125,-0.1849365234375,0.189697265625
6.561,286,1143,579,772,-1.0,30.0,19.0,29.235837936401367,46.813961029052734,69.03076171875,-0.486572265625,-0.170654296875,0.2379150390625
6.569,280,1026,607,733,-1.0,30.0,19.0,55.053707122802734,42.907711029052734,51.940914154052734,-0.3043212890625,0.02783203125,0.211669921875
6.582,279,905,591,682,-1.0,30.0,19.0,55.053707122802734,42.907711029052734,51.940914154052734,-0.0904541015625,0.3963623046875,0.144287109375
6.591,272,784,548,593,-1.0,30.0,19.0,135.25390625,40.893550872802734,11.291502952575684,-0.0087890625,0.657470703125,0.0352783203125
6.599,272,805,555,636,-6.0,31.0,14.0,135.25390625,40.893550872802734,11.291502952575684,-0.0941162109375,0.7137451171875,-0.115966796875
6.627,272,858,551,644,-6.0,31.0,14.0,169.31150817871094,43.457027435302734,2.44140625,-0.0941162109375,0.7137451171875,-0.115966796875
6.628,261,1014,526,673,-6.0,31.0,14.0,165.77146911621094,43.945308685302734,13.244627952575684,-0.6402587890625,0.900390625,-0.6171875
6.629,267,1266,509,694,-6.0,31.0,14.0,165.77146911621094,43.945308685302734,13.244627952575684,-0.63623046875,0.7291259765625,-0.7440185546875
6.637,275,1170,531,815,-6.0,31.0,14.0,105.16356658935547,26.916501998901367,1.0986328125,-0.63623046875,0.7291259765625,-0.7440185546875
6.652,279,1413,484,840,-6.0,31.0,14.0,-16.845703125,-8.11767578125,-31.372068405151367,-0.56103515625,0.3057861328125,-0.57275390625
6.659,286,1580,496,958,-6.0,31.0,14.0,-16.845703125,-8.11767578125,-31.372068405151367,-0.4423828125,0.2158203125,-0.37890625
6.667,294,1794,485,1018,-6.0,31.0,14.0,-48.889156341552734,-26.184080123901367,-26.367185592651367,-0.4423828125,0.2158203125,-0.37890625
6.692,313,2068,525,1050,-6.0,31.0,14.0,-77.94189453125,-50.598140716552734,3.479003667831421,-0.27783203125,0.1458740234375,-0.173583984375
6.692,345,2473,508,1134,-6.0,31.0,14.0,-77.94189453125,-50.598140716552734,3.479003667831421,-0.2701416015625,0.1749267578125,-0.173828125
6.697,354,2384,642,1214,-1.0,33.0,15.0,-76.0498046875,-54.809566497802734,15.808104515075684,-0.2701416015625,0.1749267578125,-0.173828125
6.736,361,2578,574,1163,-1.0,33.0,15.0,-56.274410247802734,-42.480464935302734,6.103515148162842,-0.3780517578125,0.0623779296875,-0.2166748046875
6.736,384,2683,675,1281,-1.0,33.0,15.0,-56.274410247802734,-42.480464935302734,6.103515148162842,-0.627685546875,0.217529296875,-0.322021484375
6.736,401,2593,841,1313,-1.0,33.0,15.0,-40.344234466552734,-29.052732467651367,-7.019042491912842,-0.627685546875,0.217529296875,-0.322021484375
6.741,415,2689,1082,1386,-1.0,33.0,15.0,-57.189937591552734,-32.89794921875,-25.573728561401367,-1.556640625,0.9476318359375,-0.073486328125
6.749,461,2721,1116,1411,-1.0,33.0,15.0,-57.189937591552734,-32.89794921875,-25.573728561401367,-1.642578125,0.5611572265625,0.3680419921875
6.757,442,2733,1129,1456,-1.0,33.0,15.0,-115.35643768310547,-47.851558685302734,-41.320796966552734,-1.642578125,0.5611572265625,0.3680419921875
6.771,431,2734,1079,1380,-1.0,33.0,15.0,-106.50634002685547,-28.930662155151367,-49.865718841552734,-1.6353759765625,-0.1793212890625,0.266845703125
6.779,437,2744,1189,1529,-1.0,33.0,15.0,-106.50634002685547,-28.930662155151367,-49.865718841552734,-1.828857421875,0.374267578125,-0.013671875
6.794,425,2769,1173,1521,-1.0,33.0,15.0,-32.28759765625,-13.977049827575684,-27.099607467651367,-1.828857421875,0.374267578125,-0.013671875
6.801,473,2797,1138,1464,1.0,29.0,13.0,4.39453125,-10.070799827575684,7.690429210662842,-1.5731201171875,0.491455078125,0.0765380859375
6.809,482,2757,1079,1456,1.0,29.0,13.0,4.39453125,-10.070799827575684,7.690429210662842,-1.0997314453125,0.1802978515625,0.259521484375
6.841,484,2756,1083,1480,1.0,29.0,13.0,15.869139671325684,-6.469726085662842,7.141112804412842,-1.0997314453125,0.1802978515625,0.259521484375
6.841,468,2692,1091,1453,1.0,29.0,13.0,46.081539154052734,-3.051757574081421,3.417968511581421,-1.2928466796875,0.9576416015625,-0.1241455078125
6.842,473,2576,1112,1488,1.0,29.0,13.0,64.94140625,4.33349609375,-1.4648436307907104,-1.2928466796875,0.9576416015625,-0.1241455078125
6.847,463,2559,1125,1468,1.0,29.0,13.0,51.879878997802734,17.822265625,-13.671874046325684,-1.6922607421875,1.025390625,-0.5224609375
6.861,456,2391,1063,1316,1.0,29.0,13.0,17.88330078125,24.780271530151367,-27.770994186401367,-1.595947265625,0.4029541015625,-0.3814697265625
6.869,462,2348,1118,1380,1.0,29.0,13.0,-11.108397483825684,17.15087890625,-33.14208984375,-1.595947265625,0.4029541015625,-0.3814697265625
6.877,445,2180,1103,1345,1.0,29.0,13.0,-23.376462936401367,5.615233898162842,-29.602048873901367,-1.3170166015625,0.3646240234375,-0.128173828125
6.891,436,1985,1014,1162,1.0,29.0,13.0,-24.536130905151367,2.624511480331421,-24.658201217651367,-1.021728515625,0.275634765625,0.118896484375
6.903,418,1952,1025,1228,2.0,33.0,15.0,-21.545408248901367,8.6669921875,-21.545408248901367,-1.021728515625,0.275634765625,0.118896484375
6.907,414,1880,1081,1146,2.0,33.0,15.0,-16.29638671875,17.63916015625,-17.578125,-0.9744873046875,0.067626953125,0.191162109375
6.923,373,1687,849,1004,2.0,33.0,15.0,-7.690429210662842,25.390623092651367,-9.58251953125,-0.8577880859375,-0.2314453125,0.184814453125
6.939,356,1536,844,1042,2.0,33.0,15.0,5.432128429412842,31.921384811401367,3.051757574081421,-0.8577880859375,-0.2314453125,0.184814453125
6.939,338,1474,756,963,2.0,33.0,15.0,20.202634811401367,36.376953125,18.12744140625,-0.72705078125,-0.255126953125,0.1678466796875
6.957,300,1313,628,806,2.0,33.0,15.0,31.738279342651367,37.2314453125,31.066892623901367,-0.4932861328125,-0.337646484375,0.2489013671875
6.959,299,1214,619,818,2.0,33.0,15.0,41.320796966552734,37.41455078125,37.353515625,-0.4932861328125,-0.337646484375,0.2489013671875
6.967,289,1101,593,782,2.0,33.0,15.0,56.152339935302734,38.63525390625,37.7197265625,-0.4588623046875,-0.219482421875,0.2117919921875
6.981,274,946,540,695,2.0,33.0,15.0,79.89501953125,40.283199310302734,37.9638671875,-0.2674560546875,0.312255859375,-0.0623779296875
6.989,275,919,548,711,2.0,33.0,15.0,111.45018768310547,43.579097747802734,40.283199310302734,-0.2674560546875,0.312255859375,-0.0623779296875
6.997,272,936,542,731,-8.0,33.0,17.0,140.07568359375,49.377437591552734,43.090816497802734,-0.224365234375,0.5255126953125,-0.2127685546875
7.011,268,1067,495,731,-8.0,33.0,17.0,148.49853515625,57.189937591552734,46.020503997802734,-0.572265625,0.7777099609375,-0.5107421875
7.019,274,1175,508,790,-8.0,33.0,17.0,127.56346893310547,60.119625091552734,47.851558685302734,-0.572265625,0.7777099609375,-0.5107421875
7.040,274,1243,498,832,-8.0,33.0,17.0,85.57128143310547,50.292964935302734,43.579097747802734,-0.730712890625,0.7896728515625,-0.61767578125
7.042,264,1552,433,818,-8.0,33.0,17.0,42.236324310302734,30.456541061401367,31.005857467651367,-0.7847900390625,0.6785888671875,-0.698486328125
7.049,282,1557,473,894,-8.0,33.0,17.0,10.070799827575684,7.019042491912842,15.075682640075684,-0.7093505859375,0.528076171875,-0.6815185546875
7.064,287,1716,463,923,-8.0,33.0,17.0,-13.427733421325684,-15.563963890075684,2.3193359375,-0.5806884765625,0.386962890625,-0.5445556640625
7.072,292,1967,398,920,-8.0,33.0,17.0,-34.11865234375,-35.70556640625,-2.01416015625,-0.4771728515625,0.3245849609375,-0.3770751953125
7.079,300,2105,437,1057,-8.0,33.0,17.0,-52.856441497802734,-52.490230560302734,1.2817381620407104,-0.4053955078125,0.3602294921875,-0.2562255859375
7.087,315,2225,527,1129,-8.0,33.0,17.0,-68.359375,-62.866207122802734,4.5166015625,-0.3680419921875,0.3848876953125,-0.1959228515625
7.101,333,2391,548,1125,-8.0,33.0,19.0,-79.28466796875,-63.415523529052734,3.234863042831421,-0.35107421875,0.342041015625,-0.172119140625
7.115,347,2489,594,1266,-8.0,33.0,19.0,-84.28954315185547,-54.260250091552734,-1.8310545682907104,-0.377197265625,0.243408203125,-0.196044921875
7.119,347,2756,482,1149,-8.0,33.0,19.0,-81.23778533935547,-39.24560546875,-9.58251953125,-0.4501953125,0.1207275390625,-0.2552490234375
7.142,364,2676,713,897,-8.0,33.0,19.0,-66.89453125,-24.597166061401367,-16.357421875,-0.6204833984375,0.1422119140625,-0.3551025390625
7.142,377,2736,904,1292,-8.0,33.0,19.0,-50.842281341552734,-18.49365234375,-19.10400390625,-0.9744873046875,0.4337158203125,-0.4381103515625
7.147,400,2739,1026,1365,-8.0,33.0,19.0,-60.180660247802734,-28.625486373901367,-21.484373092651367,-1.405029296875,0.748046875,-0.2591552734375
7.161,468,2750,973,1310,-8.0,33.0,19.0,-106.68944549560547,-49.804683685302734,-27.648923873901367,-1.6207275390625,0.568115234375,0.19775390625
7.169,478,2850,1078,1422,-8.0,33.0,19.0,-147.705078125,-61.035152435302734,-35.7666015625,-1.519775390625,-0.090576171875,0.560302734375
7.177,512,2760,1050,1518,-8.0,33.0,19.0,-117.73680877685547,-51.757808685302734,-35.58349609375,-1.4241943359375,-0.354736328125,0.5423583984375
7.191,519,2813,980,1393,-2.0,32.0,19.0,-31.738279342651367,-35.33935546875,-19.8974609375,-1.5125732421875,0.138916015625,0.2989501953125
7.199,506,2810,1063,1518,-2.0,32.0,19.0,27.832029342651367,-24.902341842651367,-1.03759765625,-1.6253662109375,0.7274169921875,0.093505859375
7.207,512,2821,1022,1478,-2.0,32.0,19.0,33.935546875,-16.17431640625,6.835937023162842,-1.619140625,0.899169921875,-0.04150390625
7.221,509,2820,966,1336,-2.0,32.0,19.0,21.667478561401367,-4.69970703125,2.868652105331421,-1.3604736328125,0.589111328125,-0.0538330078125
7.245,509,2775,1026,1456,-2.0,32.0,19.0,23.864744186401367,3.173827886581421,-6.530761241912842,-1.0648193359375,0.291748046875,0.0198974609375
7.245,495,3147,1115,1441,-2.0,32.0,19.0,36.07177734375,4.33349609375,-10.498045921325684,-1.156494140625,0.514892578125,-0.0511474609375
7.251,485,2612,1055,1452,-2.0,32.0,19.0,29.785154342651367,7.019042491912842,-9.46044921875,-1.5115966796875,0.8221435546875,-0.278564453125
7.259,473,2534,1031,1440,-2.0,32.0,19.0,4.57763671875,13.977049827575684,-12.207030296325684,-1.709716796875,0.742919921875,-0.420654296875
7.267,473,2489,1025,1424,-2.0,32.0,19.0,-16.11328125,15.502928733825684,-15.258788108825684,-1.6129150390625,0.474609375,-0.3218994140625
7.281,470,2407,894,1224,-2.0,32.0,19.0,-20.324705123901367,7.690429210662842,-12.451170921325684,-1.3677978515625,0.309326171875,-0.0799560546875
7.289,445,2323,959,1268,0.0,31.0,17.0,-12.878417015075684,0.3662109076976776,-6.103515148162842,-1.1593017578125,0.279052734375,0.1168212890625
7.297,417,2308,888,1178,0.0,31.0,17.0,-1.2817381620407104,2.563476324081421,0.1220703050494194,-1.0538330078125,0.2783203125,0.1888427734375
7.311,400,2152,712,1055,0.0,31.0,17.0,11.718749046325684,12.573241233825684,4.7607421875,-1.0130615234375,0.225341796875,0.1812744140625
7.347,376,2108,711,1074,0.0,31.0,17.0,24.475095748901367,23.071287155151367,8.85009765625,-0.968994140625,0.1124267578125,0.145263671875
7.347,359,2039,638,992,0.0,31.0,17.0,35.888671875,30.273435592651367,14.160155296325684,-0.8818359375,-0.0191650390625,0.099609375
7.347,323,1978,523,864,0.0,31.0,17.0,45.715328216552734,34.24072265625,21.545408248901367,-0.751220703125,-0.14990234375,0.103515625
7.349,319,1757,532,832,0.0,31.0,17.0,52.185054779052734,34.912109375,29.174802780151367,-0.6204833984375,-0.2740478515625,0.2080078125
7.358,306,1492,568,890,0.0,31.0,17.0,56.945796966552734,33.99658203125,34.423828125,-0.5208740234375,-0.29638671875,0.3050537109375
7.371,291,1339,519,750,0.0,31.0,17.0,66.89453125,35.70556640625,36.80419921875,-0.4603271484375,-0.1455078125,0.253173828125
7.379,279,1229,523,740,0.0,31.0,17.0,83.55712127685547,41.564937591552734,37.90283203125,-0.4058837890625,0.09423828125,0.0657958984375
7.389,278,1131,531,707,-5.0,30.0,15.0,103.94286346435547,50.354000091552734,39.0625,-0.27978515625,0.3343505859375,-0.115234375
7.402,276,1108,508,639,-5.0,30.0,15.0,126.58690643310547,61.279293060302734,39.36767578125,-0.2001953125,0.4990234375,-0.26171875
7.409,272,1138,514,707,-5.0,30.0,15.0,142.4560546875,72.57080078125,38.63525390625,-0.3800048828125,0.623046875,-0.479248046875
7.417,274,1183,509,714,-5.0,30.0,15.0,135.19287109375,72.8759765625,37.59765625,-0.666259765625,0.810302734375,-0.6826171875
7.451,274,1303,466,739,-5.0,30.0,15.0,102.17284393310547,54.504390716552734,31.738279342651367,-0.8060302734375,0.9171142578125,-0.7711181640625
7.451,277,1397,473,814,-5.0,30.0,15.0,57.739253997802734,27.160642623901367,17.4560546875,-0.8134765625,0.7933349609375,-0.7515869140625
7.452,275,1613,411,820,-5.0,30.0,15.0,16.41845703125,0.0,0.9155272841453552,-0.7576904296875,0.57861328125,-0.6397705078125
7.462,280,1662,430,793,-5.0,30.0,15.0,-16.05224609375,-22.521970748901367,-10.620116233825684,-0.6414794921875,0.425537109375,-0.5076904296875
7.469,291,1852,402,865,-5.0,30.0,15.0,-39.306640625,-37.841796875,-15.869139671325684,-0.51708984375,0.32421875,-0.37353515625
7.477,286,1955,433,920,-5.0,30.0,15.0,-56.823726654052734,-48.095699310302734,-15.380858421325684,-0.43896484375,0.280029296875,-0.230224609375
7.491,292,2314,400,806,-5.0,30.0,14.0,-71.77734375,-53.833003997802734,-10.559081077575684,-0.4058837890625,0.284423828125,-0.1207275390625
7.499,298,2443,455,899,-5.0,30.0,14.0,-81.23778533935547,-52.978511810302734,-5.371093273162842,-0.428466796875,0.2633056640625,-0.0980224609375
7.507,299,2539,445,957,-5.0,30.0,14.0,-80.2001953125,-46.508785247802734,-1.9531248807907104,-0.4681396484375,0.1993408203125,-0.151123046875
7.521,308,2633,308,986,-5.0,30.0,14.0,-71.96044921875,-38.02490234375,-0.4882812201976776,-0.501953125,0.1116943359375,-0.2088623046875
7.529,315,2662,349,1085,-5.0,30.0,14.0,-62.805171966552734,-29.907224655151367,-1.5869139432907104,-0.5679931640625,0.0657958984375,-0.2371826171875
7.551,318,2749,360,1116,-5.0,30.0,14.0,-62.805171966552734,-29.907224655151367,-1.5869139432907104,-0.7451171875,0.1767578125,-0.22509765625
7.552,332,2978,653,1107,-5.0,30.0,14.0,-39.306640625,-25.024412155151367,-6.103515148162842,-1.0767822265625,0.4876708984375,-0.1055908203125
7.560,354,3046,802,1109,-5.0,30.0,14.0,-46.020503997802734,-34.912109375,-11.962889671325684,-1.360595703125,0.74951171875,0.1505126953125
7.567,386,3000,826,1231,-5.0,30.0,14.0,-46.020503997802734,-34.912109375,-11.962889671325684,-1.363037109375,0.5645751953125,0.3670654296875
7.581,391,3028,774,1173,-3.0,27.0,17.0,-88.37889862060547,-37.41455078125,-36.56005859375,-1.2274169921875,0.121826171875,0.3277587890625
7.589,401,3042,891,1316,-3.0,27.0,17.0,-61.035152435302734,-21.728513717651367,-35.15625,-1.27294921875,0.0787353515625,0.0888671875
7.597,404,3050,917,1328,-3.0,27.0,17.0,-61.035152435302734,-21.728513717651367,-35.15625,-1.4825439453125,0.43017578125,-0.0938720703125
7.611,401,3106,835,1213,-3.0,27.0,17.0,11.047362327575684,-10.498045921325684,-12.451170921325684,-1.6373291015625,0.6810302734375,-0.1239013671875
7.627,414,3078,838,1336,-3.0,27.0,17.0,14.770506858825684,-9.8876953125,-10.253905296325684,-1.6234130859375,0.6866455078125,-0.09375
7.628,400,3015,808,1351,-3.0,27.0,17.0,14.770506858825684,-9.8876953125,-10.253905296325684,-1.3446044921875,0.4771728515625,-0.0101318359375
7.656,398,2991,723,1231,-3.0,27.0,17.0,43.029781341552734,-5.0048828125,-18.24951171875,-1.029541015625,0.3267822265625,0.0755615234375
7.656,401,2976,757,1294,-3.0,27.0,17.0,63.903804779052734,-3.906249761581421,-20.935056686401367,-1.0782470703125,0.5400390625,-0.025146484375
7.657,359,3147,689,1318,-3.0,27.0,17.0,63.903804779052734,-3.906249761581421,-20.935056686401367,-1.39013671875,0.7642822265625,-0.27685546875
7.671,388,2830,669,1189,-3.0,27.0,17.0,26.977537155151367,10.986327171325684,-22.460935592651367,-1.6025390625,0.6439208984375,-0.427978515625
7.679,383,2758,733,1283,-4.0,30.0,20.0,-4.2724609375,14.526366233825684,-20.812986373901367,-1.5843505859375,0.3765869140625,-0.3646240234375
7.687,371,2708,698,1266,-4.0,30.0,20.0,-4.2724609375,14.526366233825684,-20.812986373901367,-1.434326171875,0.2083740234375,-0.201171875
7.701,359,2608,567,1108,-4.0,30.0,20.0,-26.794431686401367,9.94873046875,-1.2817381620407104,-1.274169921875,0.1773681640625,-0.0716552734375
7.710,348,2494,591,1173,-4.0,30.0,20.0,-27.954099655151367,12.512206077575684,12.023924827575684,-1.1624755859375,0.19287109375,-0.0025634765625
7.717,344,2344,572,1107,-4.0,30.0,20.0,-27.954099655151367,12.512206077575684,12.023924827575684,-1.0947265625,0.181884765625,0.0362548828125
7.731,333,2062,488,1018,-4.0,30.0,20.0,-21.301267623901367,25.085447311401367,31.433103561401367,-1.0054931640625,0.115234375,0.06640625
7.744,330,1959,543,1018,-4.0,30.0,20.0,-13.671874046325684,32.2265625,35.5224609375,-0.8572998046875,0.0247802734375,0.09619140625
7.762,329,1888,526,1000,-4.0,30.0,20.0,-13.671874046325684,32.2265625,35.5224609375,-0.8572998046875,0.0247802734375,0.09619140625
7.762,315,1689,533,805,-4.0,30.0,20.0,6.347655773162842,36.9873046875,34.7900390625,-0.5738525390625,-0.048828125,0.324951171875
7.769,308,1580,543,829,-4.0,30.0,20.0,6.347655773162842,36.9873046875,34.7900390625,-0.4737548828125,0.0350341796875,0.3251953125
7.777,302,1455,539,790,-6.0,29.0,19.0,22.521970748901367,33.38623046875,24.719236373901367,-0.4737548828125,0.0350341796875,0.3251953125
7.791,291,1292,510,691,-6.0,29.0,19.0,107.72704315185547,38.57421875,-4.39453125,-0.2784423828125,0.430908203125,-0.034423828125
7.799,289,1199,542,714,-6.0,29.0,19.0,107.72704315185547,38.57421875,-4.39453125,-0.2032470703125,0.580322265625,-0.2869873046875
7.807,282,1151,543,713,-6.0,29.0,19.0,148.62060546875,44.128414154052734,-7.507323741912842,-0.2032470703125,0.580322265625,-0.2869873046875
7.822,280,1253,507,689,-6.0,29.0,19.0,138.61083984375,43.579097747802734,-2.13623046875,-0.5323486328125,0.6859130859375,-0.66015625
7.829,274,1411,475,708,-6.0,29.0,19.0,138.61083984375,43.579097747802734,-2.13623046875,-0.746337890625,0.732421875,-0.6929931640625
7.870,280,1340,513,811,-6.0,29.0,19.0,103.88182830810547,29.235837936401367,-5.798339366912842,-0.746337890625,0.732421875,-0.6929931640625
7.872,282,1427,473,778,-6.0,29.0,19.0,31.311033248901367,-13.366698265075684,-26.855466842651367,-0.792236328125,0.479248046875,-0.51220703125
7.872,289,1524,495,838,-6.0,29.0,19.0,31.311033248901367,-13.366698265075684,-26.855466842651367,-0.60009765625,0.246826171875,-0.3360595703125
7.872,289,1611,483,891,-6.0,29.0,19.0,-3.417968511581421,-30.700681686401367,-32.16552734375,-0.60009765625,0.246826171875,-0.3360595703125
7.881,286,1854,433,899,-6.0,31.0,16.0,-45.349117279052734,-41.748043060302734,-12.878417015075684,-0.4029541015625,-0.0137939453125,-0.069580078125
7.889,291,2083,473,947,-6.0,31.0,16.0,-45.349117279052734,-41.748043060302734,-12.878417015075684,-0.496337890625,0.0889892578125,-0.12646484375
7.897,295,2217,423,998,-6.0,31.0,16.0,-49.194332122802734,-43.334957122802734,7.751464366912842,-0.496337890625,0.0889892578125,-0.12646484375
7.911,299,2417,382,957,-6.0,31.0,16.0,-58.166500091552734,-50.842281341552734,26.000974655151367,-0.590087890625,0.2900390625,-0.1903076171875
7.919,300,2530,426,1081,-6.0,31.0,16.0,-58.166500091552734,-50.842281341552734,26.000974655151367,-0.5875244140625,0.2166748046875,-0.186279296875
7.928,306,2643,419,1112,-6.0,31.0,16.0,-58.898921966552734,-49.072261810302734,17.15087890625,-0.5875244140625,0.2166748046875,-0.186279296875
7.966,321,2724,445,1067,-6.0,31.0,16.0,-40.588375091552734,-23.986814498901367,-6.713866710662842,-0.7567138671875,0.1875,-0.395751953125
7.966,348,2765,656,1189,-6.0,31.0,16.0,-40.588375091552734,-23.986814498901367,-6.713866710662842,-1.0579833984375,0.464111328125,-0.488037109375
7.966,386,2788,835,1253,-6.0,31.0,16.0,-29.907224655151367,-18.37158203125,-16.29638671875,-1.0579833984375,0.464111328125,-0.488037109375
7.972,402,2765,963,1175,-6.0,31.0,16.0,-43.029781341552734,-28.564451217651367,-27.282712936401367,-1.5115966796875,0.63916015625,0.0609130859375
7.979,411,2727,1116,1236,-1.0,29.0,19.0,-87.34130096435547,-44.311519622802734,-39.306640625,-1.5115966796875,0.63916015625,0.0609130859375
7.987,411,2782,1172,1331,-1.0,29.0,19.0,-130.2490234375,-47.180171966552734,-44.311519622802734,-1.4622802734375,0.26611328125,0.28466796875
8.001,428,2737,1112,1222,-1.0,29.0,19.0,-129.0283203125,-34.60693359375,-37.353515625,-1.4996337890625,0.119140625,0.2459716796875
8.009,428,2704,1209,1383,-1.0,29.0,19.0,-85.32714080810547,-19.53125,-24.536130905151367,-1.4996337890625,0.119140625,0.2459716796875
8.017,431,2738,1189,1365,-1.0,29.0,19.0,-39.85595703125,-11.840819358825684,-11.474608421325684,-1.527099609375,0.34033203125,0.206787109375
8.031,437,2756,1056,1236,-1.0,29.0,19.0,-12.451170921325684,-8.97216796875,-0.3662109076976776,-1.1090087890625,0.2950439453125,0.2706298828125
8.039,433,2757,1123,1223,-1.0,29.0,19.0,9.21630859375,-5.249022960662842,6.042479991912842,-1.1090087890625,0.2950439453125,0.2706298828125
8.062,423,2746,1108,1348,-1.0,29.0,19.0,34.66796875,-1.220703125,8.36181640625,-0.91455078125,0.2913818359375,0.2510986328125
8.062,402,2823,996,1330,-1.0,29.0,19.0,54.809566497802734,3.662109136581421,7.568358898162842,-1.34619140625,0.798828125,-0.2413330078125
8.081,425,2683,1065,1336,-1.0,29.0,19.0,59.265132904052734,12.695311546325684,1.7089842557907104,-1.34619140625,0.798828125,-0.2413330078125
8.083,419,2624,1042,1323,-1.0,31.0,14.0,43.518062591552734,23.071287155151367,-7.324218273162842,-1.6739501953125,0.9033203125,-0.5662841796875
8.092,405,2458,972,1148,-1.0,31.0,14.0,13.732909202575684,26.428220748901367,-15.991209983825684,-1.5478515625,0.3948974609375,-0.412109375
8.099,406,2359,1018,1249,-1.0,31.0,14.0,-10.803221702575684,20.324705123901367,-21.301267623901367,-1.5478515625,0.3948974609375,-0.412109375
8.107,400,2268,1003,1220,-1.0,31.0,14.0,-19.8974609375,10.986327171325684,-21.789548873901367,-1.3255615234375,0.27880859375,-0.152587890625
8.121,376,2060,844,1031,-1.0,31.0,14.0,-18.12744140625,6.652831554412842,-20.01953125,-1.044189453125,0.180419921875,0.128173828125
8.129,360,1989,827,1070,-1.0,31.0,14.0,-11.962889671325684,9.8876953125,-17.88330078125,-1.044189453125,0.180419921875,0.128173828125
8.137,349,1882,740,1014,-1.0,31.0,14.0,-4.45556640625,18.00537109375,-14.892577171325684,-0.933837890625,0.06494140625,0.140625
8.165,324,1768,603,859,-1.0,31.0,14.0,5.187987804412842,27.465818405151367,-10.192870140075684,-0.6763916015625,-0.20166015625,0.1845703125
8.165,313,1718,513,842,-1.0,31.0,14.0,15.686034202575684,34.60693359375,-4.150390625,-0.6763916015625,-0.20166015625,0.1845703125
8.167,309,1572,545,824,-1.0,31.0,14.0,23.559568405151367,38.6962890625,1.6479490995407104,-0.58251953125,-0.304443359375,0.2684326171875
8.193,298,1281,546,688,-6.0,30.0,15.0,31.799314498901367,42.602535247802734,6.713866710662842,-0.5115966796875,-0.1444091796875,0.208740234375
8.193,291,1120,548,738,-6.0,30.0,15.0,46.325679779052734,46.142574310302734,14.709471702575684,-0.5115966796875,-0.1444091796875,0.208740234375
8.197,279,1054,551,673,-6.0,30.0,15.0,66.162109375,48.034664154052734,29.296873092651367,-0.4317626953125,0.1099853515625,0.092041015625
8.211,275,919,518,605,-6.0,30.0,15.0,87.03612518310547,50.720211029052734,46.997066497802734,-0.3607177734375,0.3338623046875,-0.0469970703125
8.219,280,869,543,632,-6.0,30.0,15.0,101.37938690185547,55.175777435302734,60.180660247802734,-0.3887939453125,0.455322265625,-0.2059326171875
8.227,274,883,533,644,-6.0,30.0,15.0,99.85350799560547,59.509273529052734,64.94140625,-0.4498291015625,0.499755859375,-0.350341796875
8.245,273,1022,488,685,-6.0,30.0,15.0,82.94676971435547,60.424800872802734,61.950679779052734,-0.5115966796875,0.493896484375,-0.444580078125
8.267,274,1163,470,757,-6.0,30.0,15.0,59.204097747802734,54.565425872802734,54.626461029052734,-0.62890625,0.4830322265625,-0.51611328125
8.267,269,1302,590,750,-6.0,30.0,15.0,35.0341796875,40.10009765625,46.630855560302734,-0.748046875,0.51123046875,-0.595947265625
8.271,279,1523,465,788,-10.0,32.0,16.0,12.573241233825684,18.85986328125,38.26904296875,-0.7489013671875,0.541748046875,-0.6390380859375
8.286,276,1588,455,871,-10.0,32.0,16.0,-7.446288585662842,-4.45556640625,28.320310592651367,-0.6669921875,0.51416015625,-0.5880126953125
8.287,279,1742,426,933,-10.0,32.0,16.0,-22.521970748901367,-26.184080123901367,18.798828125,-0.608154296875,0.4786376953125,-0.48486328125
8.303,289,2007,351,943,-10.0,32.0,16.0,-32.71484375,-44.433589935302734,12.084959983825684,-0.5673828125,0.505615234375,-0.3994140625
8.309,296,2151,420,1038,-10.0,32.0,16.0,-44.189449310302734,-57.373043060302734,6.469726085662842,-0.503662109375,0.518310546875,-0.3255615234375
8.317,304,2242,445,1100,-10.0,32.0,16.0,-57.189937591552734,-62.255855560302734,-0.4272460639476776,-0.44189453125,0.4610595703125,-0.281005859375
8.331,308,2489,418,1003,-10.0,32.0,16.0,-64.453125,-58.410640716552734,-8.056640625,-0.406494140625,0.365478515625,-0.282958984375
8.339,318,2627,464,1101,-10.0,32.0,16.0,-65.12451171875,-48.645015716552734,-15.502928733825684,-0.4344482421875,0.215087890625,-0.3140869140625
8.348,304,3147,437,1083,-10.0,32.0,16.0,-59.631343841552734,-35.94970703125,-21.240232467651367,-0.5604248046875,0.1204833984375,-0.384033203125
8.373,359,2624,698,1117,-10.0,32.0,16.0,-50.598140716552734,-26.062009811401367,-22.827146530151367,-0.800048828125,0.2646484375,-0.4395751953125
8.373,404,2801,860,1199,-6.0,33.0,12.0,-54.626461029052734,-28.137205123901367,-22.583005905151367,-1.195068359375,0.6038818359375,-0.29541015625
8.381,410,2703,1010,1283,-6.0,33.0,12.0,-92.65135955810547,-44.128414154052734,-25.573728561401367,-1.5452880859375,0.7525634765625,0.1431884765625
8.392,417,2739,999,1237,-6.0,33.0,12.0,-148.13232421875,-57.861324310302734,-32.40966796875,-1.547119140625,0.2860107421875,0.5775146484375
8.400,424,2763,1071,1396,-6.0,33.0,12.0,-156.67724609375,-52.734371185302734,-35.2783203125,-1.3477783203125,-0.3641357421875,0.6287841796875
8.408,424,2790,1122,1413,-6.0,33.0,12.0,-86.97509002685547,-36.2548828125,-24.475095748901367,-1.30859375,-0.2950439453125,0.33935546875
8.422,428,2797,1038,1318,-6.0,33.0,12.0,-0.4272460639476776,-26.672361373901367,-3.723144292831421,-1.4083251953125,0.3656005859375,0.0623779296875
8.430,430,2777,1117,1439,-6.0,33.0,12.0,36.43798828125,-24.597166061401367,10.681151390075684,-1.489990234375,0.8812255859375,-0.082763671875
8.438,427,2799,1103,1399,-6.0,33.0,12.0,30.761716842651367,-17.822265625,8.97216796875,-1.445556640625,0.955078125,-0.1497802734375
8.452,424,2710,1026,1258,-6.0,33.0,12.0,18.4326171875,-6.958007335662842,-5.310058116912842,-1.18896484375,0.6556396484375,-0.07421875
8.473,426,2645,1125,1386,-6.0,33.0,12.0,18.310546875,-1.3427733182907104,-21.484373092651367,-0.978759765625,0.42626953125,0.041748046875
8.474,416,2758,1120,1042,-4.0,28.0,24.0,21.850584030151367,0.54931640625,-30.639646530151367,-1.1168212890625,0.539794921875,-0.006591796875
8.485,427,2504,1091,1228,-4.0,28.0,24.0,14.099120140075684,6.835937023162842,-33.3251953125,-1.4625244140625,0.7044677734375,-0.2105712890625
8.490,428,2472,1118,1306,-4.0,28.0,24.0,-4.8828125,15.624999046325684,-33.50830078125,-1.6650390625,0.62060546875,-0.3634033203125
8.499,419,2388,1104,1306,-4.0,28.0,24.0,-22.949216842651367,18.4326171875,-31.616209030151367,-1.6014404296875,0.383544921875,-0.3258056640625
8.512,406,2287,986,1151,-4.0,28.0,24.0,-31.494138717651367,13.916014671325684,-25.817869186401367,-1.3955078125,0.2388916015625,-0.1519775390625
8.520,404,2167,1009,1211,-4.0,28.0,24.0,-31.677244186401367,8.97216796875,-16.54052734375,-1.2060546875,0.1859130859375,0.045166015625
8.528,387,2122,949,1172,-4.0,28.0,24.0,-25.756834030151367,9.6435546875,-6.896972179412842,-1.1038818359375,0.1337890625,0.1640625
8.542,371,1985,784,1003,-4.0,28.0,24.0,-15.075682640075684,16.78466796875,1.8920897245407104,-1.049072265625,0.0693359375,0.169677734375
8.550,356,1892,780,1042,-4.0,28.0,24.0,-2.868652105331421,26.794431686401367,10.314940452575684,-0.9747314453125,-0.0140380859375,0.10791015625
8.558,338,1770,746,991,-4.0,28.0,24.0,8.6669921875,35.0341796875,18.73779296875,-0.8668212890625,-0.1180419921875,0.0927734375
8.615,328,1487,619,887,-4.0,33.0,16.0,17.51708984375,38.02490234375,27.160642623901367,-0.742919921875,-0.2142333984375,0.18212890625
8.616,310,1362,593,855,-4.0,33.0,16.0,22.827146530151367,38.0859375,34.60693359375,-0.6497802734375,-0.2486572265625,0.2476806640625
8.616,294,1196,572,806,-4.0,33.0,16.0,29.968259811401367,40.10009765625,39.6728515625,-0.5755615234375,-0.165771484375,0.19091796875
