time,compression0,compression1,compression2,compression3,magn_x,magn_y,magn_z,gyro_x,gyro_y,gyro_z,accel_x,accel_y,accel_z
0.026,306,1303,513,744,-10.0,36.0,9.0,1.7700194120407104,-2.3193359375,-1.03759765625,-0.78515625,0.355224609375,-0.496337890625
0.033,304,1241,555,748,-10.0,36.0,9.0,1.5869139432907104,-2.50244140625,-1.0986328125,-0.7889404296875,0.35595703125,-0.5040283203125
0.033,292,1317,518,705,-10.0,36.0,9.0,1.3427733182907104,-2.807616949081421,-1.0986328125,-0.7889404296875,0.35595703125,-0.5040283203125
0.034,308,1228,548,735,-10.0,36.0,9.0,0.9765624403953552,-3.173827886581421,-1.03759765625,-0.7911376953125,0.357666015625,-0.507080078125
0.047,304,1206,529,687,-10.0,36.0,9.0,0.6713866591453552,-3.662109136581421,-1.0986328125,-0.7911376953125,0.357177734375,-0.51025390625
0.056,305,1204,562,721,-10.0,36.0,9.0,0.4882812201976776,-4.45556640625,-1.2817381620407104,-0.7911376953125,0.357177734375,-0.51025390625
0.069,308,1189,562,724,-10.0,36.0,9.0,0.4272460639476776,-5.432128429412842,-1.5869139432907104,-0.7919921875,0.3582763671875,-0.5118408203125
0.084,308,1149,540,669,-10.0,36.0,9.0,0.4272460639476776,-6.530761241912842,-1.8920897245407104,-0.79345703125,0.3602294921875,-0.5140380859375
0.086,299,1163,539,689,-11.0,37.0,9.0,0.4272460639476776,-7.629394054412842,-2.197265625,-0.7952880859375,0.361083984375,-0.5150146484375
0.094,306,1098,573,698,-11.0,37.0,9.0,0.1831054538488388,-8.7890625,-2.685546636581421,-0.7984619140625,0.3590087890625,-0.5147705078125
0.123,304,1066,559,651,-11.0,37.0,9.0,-0.1220703050494194,-9.94873046875,-3.112792730331421,-0.8011474609375,0.35595703125,-0.513427734375
0.125,306,1026,586,679,-11.0,37.0,9.0,-0.30517578125,-11.291502952575684,-3.662109136581421,-0.802490234375,0.3558349609375,-0.5107421875
0.125,306,996,590,642,-11.0,37.0,9.0,-0.3662109076976776,-12.573241233825684,-4.150390625,-0.804443359375,0.3570556640625,-0.5084228515625
0.137,302,949,578,619,-11.0,37.0,9.0,-0.4882812201976776,-13.671874046325684,-4.7607421875,-0.8070068359375,0.357177734375,-0.5081787109375
0.146,301,922,600,639,-11.0,37.0,9.0,-0.6713866591453552,-14.587401390075684,-5.187987804412842,-0.8089599609375,0.35693359375,-0.5074462890625
0.154,302,890,604,631,-11.0,37.0,9.0,-0.8544921278953552,-15.502928733825684,-5.371093273162842,-0.8099365234375,0.355712890625,-0.5025634765625
0.167,300,837,590,590,-11.0,37.0,9.0,-0.9765624403953552,-16.41845703125,-5.371093273162842,-0.8099365234375,0.3525390625,-0.4942626953125
0.181,300,811,614,607,-11.0,37.0,9.0,-0.7324218153953552,-17.39501953125,-5.187987804412842,-0.809326171875,0.348388671875,-0.486083984375
0.189,302,788,617,603,-12.0,39.0,12.0,-0.4272460639476776,-18.1884765625,-4.94384765625,-0.81103515625,0.344970703125,-0.47998046875
0.198,300,759,604,571,-12.0,39.0,12.0,-0.1220703050494194,-18.798828125,-4.7607421875,-0.81396484375,0.344482421875,-0.4752197265625
0.224,298,757,614,593,-12.0,39.0,12.0,0.2441406100988388,-19.10400390625,-4.69970703125,-0.8125,0.3463134765625,-0.468994140625
0.226,300,753,617,588,-12.0,39.0,12.0,0.6713866591453552,-19.22607421875,-4.94384765625,-0.8057861328125,0.3489990234375,-0.4617919921875
0.228,300,737,617,531,-12.0,39.0,12.0,0.7324218153953552,-19.287109375,-5.310058116912842,-0.7945556640625,0.35302734375,-0.456787109375
0.236,299,731,621,585,-12.0,39.0,12.0,0.0610351525247097,-19.47021484375,-5.615233898162842,-0.781982421875,0.355712890625,-0.4490966796875
0.244,302,738,619,579,-12.0,39.0,12.0,-0.9765624403953552,-19.6533203125,-5.737304210662842,-0.7744140625,0.354248046875,-0.4317626953125
0.258,299,739,603,562,-12.0,39.0,12.0,-1.8310545682907104,-19.6533203125,-5.676269054412842,-0.7728271484375,0.346435546875,-0.4049072265625
0.266,300,755,619,582,-12.0,39.0,12.0,-2.0751953125,-19.1650390625,-5.126952648162842,-0.7740478515625,0.329345703125,-0.3770751953125
0.274,302,774,619,594,-12.0,39.0,12.0,-1.5869139432907104,-18.06640625,-4.150390625,-0.774169921875,0.3052978515625,-0.3599853515625
0.302,299,802,594,575,-8.0,36.0,12.0,-1.0986328125,-16.4794921875,-2.807616949081421,-0.769287109375,0.281494140625,-0.35302734375
0.302,304,900,661,582,-8.0,36.0,12.0,-1.4038084745407104,-14.526366233825684,-1.15966796875,-0.7550048828125,0.2646484375,-0.3472900390625
0.329,302,905,574,621,-8.0,36.0,12.0,-2.197265625,-12.451170921325684,1.03759765625,-0.7314453125,0.2564697265625,-0.338623046875
0.331,302,951,579,625,-8.0,36.0,12.0,-3.723144292831421,-10.375975608825684,3.784179449081421,-0.7103271484375,0.2520751953125,-0.32470703125
0.331,302,1095,567,678,-8.0,36.0,12.0,-6.591796398162842,-8.1787109375,7.019042491912842,-0.697265625,0.2525634765625,-0.3160400390625
0.335,304,1206,576,731,-8.0,36.0,12.0,-10.620116233825684,-6.042479991912842,10.437010765075684,-0.6710205078125,0.26171875,-0.3101806640625
0.348,305,1527,508,750,-8.0,36.0,12.0,-16.357421875,-4.08935546875,12.756346702575684,-0.6181640625,0.2520751953125,-0.2828369140625
0.356,305,1739,526,855,-8.0,36.0,12.0,-25.024412155151367,-2.624511480331421,11.840819358825684,-0.55859375,0.206298828125,-0.250244140625
0.364,316,1951,526,884,-8.0,36.0,12.0,-35.82763671875,-3.662109136581421,7.446288585662842,-0.4783935546875,0.1998291015625,-0.2276611328125
0.378,306,2230,543,872,-9.0,34.0,12.0,-38.87939453125,-12.329100608825684,-0.1220703050494194,-0.3662109375,0.310546875,-0.252685546875
0.386,306,2364,629,1012,-9.0,34.0,12.0,-22.094724655151367,-35.09521484375,-11.230467796325684,-0.23291015625,0.52490234375,-0.285400390625
0.394,315,2469,642,1123,-9.0,34.0,12.0,5.0048828125,-73.91357421875,-28.747556686401367,0.033935546875,0.6712646484375,-0.1251220703125
0.429,344,2636,757,1094,-9.0,34.0,12.0,11.230467796325684,-118.95751190185547,-55.969234466552734,0.3841552734375,0.4725341796875,0.199462890625
0.432,347,2879,1201,1328,-9.0,34.0,12.0,-15.380858421325684,-148.01025390625,-79.16259765625,0.41650390625,0.03759765625,0.3763427734375
0.432,356,2691,957,1241,-9.0,34.0,12.0,-34.11865234375,-143.5546875,-74.0966796875,-0.1026611328125,-0.0908203125,0.03564453125
0.438,383,2711,1237,1393,-9.0,34.0,12.0,-7.995604991912842,-111.63329315185547,-43.518062591552734,-0.9459228515625,0.359375,-0.7689208984375
0.446,390,2692,1290,1439,-9.0,34.0,12.0,29.113767623901367,-78.2470703125,-17.51708984375,-1.66357421875,0.9114990234375,-1.291259765625
0.454,382,2884,1401,1393,-9.0,34.0,12.0,24.291990280151367,-59.936519622802734,-13.366698265075684,-2.10400390625,1.017822265625,-1.1605224609375
0.468,383,2840,1312,1290,-9.0,34.0,12.0,-24.047849655151367,-51.208492279052734,-19.6533203125,-2.39111328125,0.68310546875,-0.8035888671875
0.476,383,2820,1386,1437,-5.0,31.0,19.0,-72.6318359375,-42.846675872802734,-19.71435546875,-2.57080078125,0.2071533203125,-0.50439453125
0.484,384,2843,1336,1422,-5.0,31.0,19.0,-84.77782440185547,-33.0810546875,-10.681151390075684,-2.4356689453125,-0.0692138671875,-0.268798828125
0.497,385,2769,1216,1254,-5.0,31.0,19.0,-61.218257904052734,-23.132322311401367,-6.164550304412842,-1.732177734375,-0.161376953125,-0.0076904296875
0.531,386,2734,1274,1447,-5.0,31.0,19.0,-24.047849655151367,-10.498045921325684,-13.183592796325684,-1.1182861328125,0.0859375,0.08642578125
0.532,387,2758,1264,1429,-5.0,31.0,19.0,8.9111328125,4.2724609375,-15.014647483825684,-1.2288818359375,0.669189453125,-0.2239990234375
0.533,364,2785,1237,1323,-5.0,31.0,19.0,20.080564498901367,17.15087890625,-5.249022960662842,-1.6405029296875,0.8760986328125,-0.573974609375
0.536,359,2803,1213,1287,-5.0,31.0,19.0,6.652831554412842,31.066892623901367,4.57763671875,-1.8759765625,0.6751708984375,-0.6556396484375
0.544,361,2611,1115,1275,-5.0,31.0,19.0,6.652831554412842,31.066892623901367,4.57763671875,-1.816162109375,0.4940185546875,-0.5166015625
0.569,356,2494,947,1125,-5.0,31.0,19.0,-33.203125,60.058589935302734,19.775390625,-1.5377197265625,0.33837890625,-0.3482666015625
0.587,354,2408,999,1217,-5.0,31.0,19.0,-42.602535247802734,67.68798828125,24.230955123901367,-1.1614990234375,0.179443359375,-0.3057861328125
0.595,354,2308,955,1217,-5.0,36.0,12.0,-42.602535247802734,67.68798828125,24.230955123901367,-0.8038330078125,0.0743408203125,-0.324462890625
0.602,344,2139,829,1054,-5.0,36.0,12.0,-4.39453125,37.9638671875,13.000487327575684,-0.572021484375,0.0689697265625,-0.314697265625
0.602,334,2037,845,1094,-5.0,36.0,12.0,32.1044921875,10.009765625,0.6713866591453552,-0.47509765625,0.13134765625,-0.287841796875
0.604,327,1904,794,1045,-5.0,36.0,12.0,32.1044921875,10.009765625,0.6713866591453552,-0.43896484375,0.14453125,-0.3262939453125
0.649,316,1648,725,859,-5.0,36.0,12.0,67.32177734375,-10.314940452575684,-21.179197311401367,-0.4114990234375,0.1173095703125,-0.4765625
0.650,310,1546,642,754,-5.0,36.0,12.0,57.983394622802734,-1.5258787870407104,-27.099607467651367,-0.383056640625,0.1566162109375,-0.56982421875
0.651,306,1527,702,848,-5.0,36.0,12.0,57.983394622802734,-1.5258787870407104,-27.099607467651367,-0.405517578125,0.2672119140625,-0.477294921875
0.651,300,1025,704,708,-5.0,36.0,12.0,13.732909202575684,1.7700194120407104,-24.719236373901367,-0.4801025390625,0.4144287109375,-0.3050537109375
0.656,300,867,722,697,-5.0,36.0,12.0,-3.540038824081421,-6.835937023162842,-19.04296875,-0.5343017578125,0.52294921875,-0.197998046875
0.664,299,744,721,651,-5.0,36.0,12.0,-3.540038824081421,-6.835937023162842,-19.04296875,-0.5721435546875,0.520263671875,-0.182373046875
0.678,292,678,673,593,-4.0,34.0,14.0,-30.761716842651367,-16.90673828125,-15.991209983825684,-0.6302490234375,0.4468994140625,-0.18212890625
0.687,290,651,687,614,-4.0,34.0,14.0,-38.57421875,-18.6767578125,-19.59228515625,-0.6998291015625,0.3548583984375,-0.147216796875
0.695,292,644,687,604,-4.0,34.0,14.0,-38.57421875,-18.6767578125,-19.59228515625,-0.7275390625,0.269775390625,-0.0948486328125
0.708,289,644,661,578,-4.0,34.0,14.0,-19.22607421875,-18.73779296875,-25.390623092651367,-0.7271728515625,0.197021484375,-0.0792236328125
0.745,290,642,684,607,-4.0,34.0,14.0,-5.371093273162842,-14.465331077575684,-21.911619186401367,-0.74072265625,0.1396484375,-0.0977783203125
0.746,291,653,684,614,-4.0,34.0,14.0,-5.371093273162842,-14.465331077575684,-21.911619186401367,-0.7430419921875,0.09228515625,-0.0982666015625
0.746,292,714,669,579,-4.0,34.0,14.0,-3.051757574081421,-3.906249761581421,-5.798339366912842,-0.7152099609375,0.027099609375,-0.0816650390625
0.747,293,797,667,636,-4.0,34.0,14.0,-8.1787109375,1.8920897245407104,2.13623046875,-0.6607666015625,-0.04052734375,-0.0657958984375
0.754,292,936,660,711,-4.0,34.0,14.0,-8.1787109375,1.8920897245407104,2.13623046875,-0.5838623046875,-0.076171875,-0.049072265625
0.768,298,1336,614,766,-3.0,32.0,9.0,-21.179197311401367,11.413573265075684,16.90673828125,-0.564453125,-0.039306640625,-0.065673828125
0.776,302,1516,631,883,-3.0,32.0,9.0,-21.179197311401367,11.413573265075684,16.90673828125,-0.6329345703125,0.144287109375,-0.1361083984375
0.784,306,1684,632,923,-3.0,32.0,9.0,-26.916501998901367,12.817381858825684,24.353025436401367,-0.6329345703125,0.144287109375,-0.1361083984375
0.799,315,2037,590,905,-3.0,32.0,9.0,-22.338865280151367,6.286620616912842,33.5693359375,-0.628662109375,0.53466796875,-0.319580078125
0.806,327,2170,654,1067,-3.0,32.0,9.0,-22.338865280151367,6.286620616912842,33.5693359375,-0.5460205078125,0.5927734375,-0.3138427734375
0.814,330,2280,725,1062,-3.0,32.0,9.0,-21.484373092651367,-4.0283203125,25.817869186401367,-0.5460205078125,0.5927734375,-0.3138427734375
0.840,354,2449,731,1093,-3.0,32.0,9.0,-14.465331077575684,-49.499507904052734,-0.1220703050494194,-0.1622314453125,0.3505859375,-0.088134765625
0.843,371,2486,883,1262,-3.0,32.0,9.0,-14.465331077575684,-49.499507904052734,-0.1220703050494194,-0.0098876953125,0.1070556640625,-0.0386962890625
0.844,388,2497,976,1239,-3.0,32.0,9.0,-2.50244140625,-81.11571502685547,-13.916014671325684,-0.0098876953125,0.1070556640625,-0.0386962890625
0.859,415,2579,1097,1323,-3.0,32.0,9.0,3.051757574081421,-106.87255096435547,-30.883787155151367,-0.261962890625,0.1282958984375,-0.0750732421875
0.866,430,2652,1283,1487,-4.0,30.0,24.0,3.051757574081421,-106.87255096435547,-30.883787155151367,-0.6488037109375,0.4456787109375,-0.2308349609375
0.874,444,2703,1397,1480,-4.0,30.0,24.0,1.6479490995407104,-94.11620330810547,-32.04345703125,-0.6488037109375,0.4456787109375,-0.2308349609375
0.888,458,2734,1357,1429,-4.0,30.0,24.0,-32.89794921875,-50.476070404052734,-26.062009811401367,-1.5394287109375,1.05078125,-0.7708740234375
0.896,462,2759,1499,1588,-4.0,30.0,24.0,-32.89794921875,-50.476070404052734,-26.062009811401367,-2.0220947265625,0.664794921875,-0.7913818359375
0.904,462,2793,1534,1595,-4.0,30.0,24.0,-58.532711029052734,-37.7197265625,-30.151365280151367,-2.0220947265625,0.664794921875,-0.7913818359375
0.918,475,2820,1483,1476,-4.0,30.0,24.0,-62.744136810302734,-45.776363372802734,-32.89794921875,-2.5513916015625,-0.2017822265625,-0.016845703125
0.945,456,2952,1428,1497,-4.0,30.0,24.0,-62.744136810302734,-45.776363372802734,-32.89794921875,-2.27587890625,-0.13134765625,0.0682373046875
0.946,475,2801,1546,1613,-4.0,30.0,24.0,-36.0107421875,-47.302242279052734,-20.812986373901367,-2.27587890625,-0.13134765625,0.0682373046875
0.949,416,3147,1527,1497,-4.0,30.0,24.0,34.85107421875,-27.648923873901367,-1.5258787870407104,-1.0238037109375,0.5457763671875,-0.249755859375
0.956,468,2754,1543,1598,-4.0,30.0,24.0,34.85107421875,-27.648923873901367,-1.5258787870407104,-1.139892578125,0.7860107421875,-0.3717041015625
0.970,468,2750,1529,1590,-1.0,33.0,15.0,40.0390625,-19.95849609375,-5.249022960662842,-1.139892578125,0.7860107421875,-0.3717041015625
0.978,462,2707,1381,1422,-1.0,33.0,15.0,0.1220703050494194,-11.840819358825684,-16.17431640625,-1.7181396484375,0.390380859375,-0.189697265625
0.986,464,2677,1453,1544,-1.0,33.0,15.0,0.1220703050494194,-11.840819358825684,-16.17431640625,-1.6732177734375,0.268310546875,-0.0552978515625
0.994,462,2662,1422,1529,-1.0,33.0,15.0,-9.521484375,-6.530761241912842,-13.366698265075684,-1.6732177734375,0.268310546875,-0.0552978515625
1.008,438,2580,1239,1336,-1.0,33.0,15.0,-8.11767578125,1.2817381620407104,-6.469726085662842,-1.332763671875,0.4312744140625,-0.1351318359375
1.016,426,2530,1265,1424,-1.0,33.0,15.0,-4.0283203125,9.33837890625,0.7934569716453552,-1.332763671875,0.4312744140625,-0.1351318359375
1.051,419,2484,1182,1386,-1.0,33.0,15.0,0.4272460639476776,14.648436546325684,4.5166015625,-1.2227783203125,0.43310546875,-0.1966552734375
1.053,404,2396,1318,1101,-1.0,33.0,15.0,7.080077648162842,17.63916015625,4.150390625,-1.0418701171875,0.2301025390625,-0.146240234375
1.053,398,2231,1026,1243,-1.0,33.0,15.0,14.648436546325684,20.141599655151367,2.685546636581421,-1.0418701171875,0.2301025390625,-0.146240234375
1.055,385,2105,1009,1195,-1.0,33.0,15.0,19.8974609375,22.155759811401367,1.6479490995407104,-0.9000244140625,0.0999755859375,-0.0980224609375
1.092,369,1782,938,985,-2.0,30.0,22.0,21.789548873901367,23.803709030151367,0.7324218153953552,-0.5477294921875,-0.173828125,-0.052001953125
1.096,359,1593,932,992,-2.0,30.0,22.0,22.949216842651367,28.076169967651367,1.220703125,-0.5477294921875,-0.173828125,-0.052001953125
1.104,348,1380,898,933,-2.0,30.0,22.0,23.864744186401367,32.65380859375,3.417968511581421,-0.4124755859375,-0.1697998046875,-0.0380859375
1.105,330,1042,859,788,-2.0,30.0,22.0,20.874021530151367,33.02001953125,4.150390625,-0.45849609375,-0.1376953125,-0.0843505859375
1.106,327,1014,919,579,-2.0,30.0,22.0,16.6015625,32.8369140625,3.356933355331421,-0.45849609375,-0.1376953125,-0.0843505859375
1.115,316,728,790,667,-2.0,30.0,22.0,15.319823265075684,33.5693359375,5.065917491912842,-0.5380859375,0.054931640625,-0.2310791015625
1.123,307,675,757,642,-2.0,30.0,22.0,12.878417015075684,32.77587890625,11.413573265075684,-0.5963134765625,0.3438720703125,-0.34521484375
1.157,296,629,673,584,-2.0,30.0,22.0,6.713866710662842,29.785154342651367,19.22607421875,-0.64404296875,0.5465087890625,-0.3497314453125
1.157,299,621,684,614,-2.0,30.0,22.0,3.845214605331421,25.085447311401367,20.507810592651367,-0.64111328125,0.519287109375,-0.26708984375
1.157,300,625,684,601,-2.0,30.0,22.0,9.70458984375,22.338865280151367,11.352538108825684,-0.6165771484375,0.343505859375,-0.20458984375
1.166,299,634,680,585,-4.0,34.0,22.0,16.90673828125,21.545408248901367,-0.6103515625,-0.6165771484375,0.2061767578125,-0.1707763671875
1.175,300,658,697,621,-4.0,34.0,22.0,17.08984375,18.00537109375,-5.981444835662842,-0.6290283203125,0.19873046875,-0.1273193359375
1.183,301,684,698,633,-4.0,34.0,22.0,12.817381858825684,10.864256858825684,-3.967284917831421,-0.642333984375,0.2808837890625,-0.0870361328125
1.196,302,754,694,630,-4.0,34.0,22.0,9.46044921875,3.356933355331421,0.9765624403953552,-0.65478515625,0.3687744140625,-0.0675048828125
1.206,313,829,744,697,-4.0,34.0,22.0,6.652831554412842,-1.220703125,5.065917491912842,-0.650146484375,0.402099609375,-0.05517578125
1.217,318,1024,750,765,-4.0,34.0,22.0,1.8310545682907104,-2.3193359375,6.225585460662842,-0.62109375,0.3544921875,-0.03564453125
1.229,327,1375,820,894,-4.0,34.0,22.0,-4.2724609375,-1.03759765625,5.615233898162842,-0.60009765625,0.2540283203125,-0.02587890625
1.257,342,1608,739,932,-4.0,34.0,22.0,-7.202147960662842,0.8544921278953552,6.530761241912842,-0.639892578125,0.1846923828125,-0.0584716796875
1.257,346,1676,816,1014,-4.0,34.0,22.0,-3.234863042831421,1.5258787870407104,10.070799827575684,-0.7081298828125,0.227294921875,-0.1295166015625
1.259,356,1934,793,1005,-4.0,34.0,22.0,3.356933355331421,0.30517578125,13.244627952575684,-0.727783203125,0.3173828125,-0.2005615234375
1.265,361,2074,833,1160,-5.0,35.0,21.0,2.868652105331421,-2.38037109375,12.695311546325684,-0.63623046875,0.349365234375,-0.213623046875
1.273,369,2223,854,1213,-5.0,35.0,21.0,-3.784179449081421,-7.324218273162842,9.8876953125,-0.41015625,0.3115234375,-0.1248779296875
1.286,378,2416,885,1175,-5.0,35.0,21.0,-7.202147960662842,-16.66259765625,7.324218273162842,-0.136962890625,0.1732177734375,0.017822265625
1.295,400,2514,1034,1341,-5.0,35.0,21.0,-5.187987804412842,-31.372068405151367,5.859374523162842,0.0584716796875,-0.0244140625,0.16455078125
1.308,428,2551,1149,1397,-5.0,35.0,21.0,1.8920897245407104,-49.133296966552734,4.82177734375,0.0552978515625,-0.10205078125,0.2484130859375
1.317,461,2620,1261,1336,-5.0,35.0,21.0,11.779784202575684,-62.011714935302734,0.7934569716453552,-0.173095703125,0.0284423828125,0.1666259765625
1.325,482,2648,1403,1509,-5.0,35.0,21.0,13.366698265075684,-60.363765716552734,-5.981444835662842,-0.54541015625,0.32861328125,-0.03564453125
1.352,497,2769,1464,1533,-5.0,35.0,21.0,0.7934569716453552,-43.457027435302734,-9.033203125,-0.9898681640625,0.740234375,-0.3426513671875
1.352,466,3055,1464,1531,-5.0,35.0,21.0,-18.12744140625,-20.935056686401367,-7.934569835662842,-1.547119140625,0.9688720703125,-0.8092041015625
1.363,513,2798,1555,1572,-5.0,35.0,21.0,-35.5224609375,-3.967284917831421,-10.009765625,-2.1571044921875,0.7237548828125,-1.042236328125
1.365,514,2820,1572,1616,-3.0,33.0,22.0,-52.429195404052734,-1.8920897245407104,-14.465331077575684,-2.54150390625,0.2196044921875,-0.712890625
1.377,517,2824,1474,1437,-3.0,33.0,22.0,-62.072750091552734,-9.58251953125,-11.657713890075684,-2.6046142578125,-0.0228271484375,-0.2197265625
1.385,490,2748,1519,1607,-3.0,33.0,22.0,-47.546382904052734,-14.160155296325684,0.1220703050494194,-2.3431396484375,0.1671142578125,-0.0360107421875
1.393,486,2769,1499,1607,-3.0,33.0,22.0,-12.634276390075684,-11.779784202575684,9.1552734375,-1.6363525390625,0.4361572265625,-0.13134765625
1.406,473,2750,1390,1455,-3.0,33.0,22.0,21.606443405151367,-4.150390625,5.859374523162842,-1.0625,0.7200927734375,-0.2750244140625
1.421,482,2753,1488,1602,-3.0,33.0,22.0,38.57421875,1.2817381620407104,-7.812499523162842,-1.1949462890625,0.8243408203125,-0.376708984375
1.423,484,2901,1341,1472,-3.0,33.0,22.0,34.48486328125,0.54931640625,-22.583005905151367,-1.6197509765625,0.5703125,-0.40087890625
1.444,484,2713,1377,1416,-3.0,33.0,22.0,20.080564498901367,-2.25830078125,-27.160642623901367,-1.8258056640625,0.3394775390625,-0.350341796875
1.454,481,2654,1387,1439,-3.0,33.0,22.0,7.751464366912842,-4.45556640625,-20.935056686401367,-1.703125,0.2681884765625,-0.2681884765625
1.454,437,3095,1198,1490,-3.0,33.0,22.0,2.624511480331421,-4.21142578125,-12.817381858825684,-1.428466796875,0.263427734375,-0.212890625
1.468,442,2573,1163,1339,-2.0,31.0,19.0,4.39453125,-0.4272460639476776,-7.507323741912842,-1.1771240234375,0.326904296875,-0.1905517578125
1.475,439,2521,1201,1437,-2.0,31.0,19.0,7.873534679412842,4.82177734375,-4.21142578125,-1.0223388671875,0.3897705078125,-0.1688232421875
1.483,430,2507,1125,1400,-2.0,31.0,19.0,8.48388671875,10.253905296325684,-2.685546636581421,-0.959228515625,0.35888671875,-0.1654052734375
1.497,411,2381,963,1220,-2.0,31.0,19.0,8.23974609375,15.502928733825684,-3.173827886581421,-0.9188232421875,0.267822265625,-0.1693115234375
1.505,409,2284,1022,1294,-2.0,31.0,19.0,9.58251953125,18.9208984375,-4.7607421875,-0.8690185546875,0.1719970703125,-0.1612548828125
1.513,401,2202,1003,1255,-2.0,31.0,19.0,12.573241233825684,19.83642578125,-6.347655773162842,-0.80078125,0.11767578125,-0.154052734375
1.544,398,1967,933,1064,-2.0,31.0,19.0,15.014647483825684,18.49365234375,-7.812499523162842,-0.6859130859375,0.029541015625,-0.1146240234375
1.556,385,1769,971,1108,-2.0,31.0,19.0,16.17431640625,17.39501953125,-9.27734375,-0.5675048828125,-0.0357666015625,-0.0830078125
1.556,376,1647,944,1043,-2.0,31.0,19.0,16.66259765625,17.63916015625,-10.009765625,-0.4888916015625,-0.0140380859375,-0.040283203125
1.557,364,1422,874,888,-4.0,31.0,25.0,14.831542015075684,16.2353515625,-11.230467796325684,-0.4764404296875,-0.028564453125,0.0411376953125
1.565,359,1281,890,912,-4.0,31.0,25.0,13.244627952575684,15.563963890075684,-11.718749046325684,-0.544189453125,-0.0521240234375,0.0089111328125
1.575,356,1191,887,859,-4.0,31.0,25.0,13.244627952575684,15.563963890075684,-11.718749046325684,-0.617431640625,0.010986328125,-0.122314453125
1.587,342,1024,829,753,-4.0,31.0,25.0,18.24951171875,18.49365234375,-1.15966796875,-0.6612548828125,0.146484375,-0.23193359375
1.595,334,939,841,761,-4.0,31.0,25.0,13.977049827575684,17.4560546875,7.629394054412842,-0.692138671875,0.2996826171875,-0.2691650390625
1.604,330,860,814,725,-4.0,31.0,25.0,13.977049827575684,17.4560546875,7.629394054412842,-0.7080078125,0.38720703125,-0.2286376953125
1.617,321,766,764,656,-4.0,31.0,25.0,-5.737304210662842,12.084959983825684,19.04296875,-0.728515625,0.36865234375,-0.1790771484375
1.625,321,744,780,682,-4.0,31.0,25.0,-15.075682640075684,10.009765625,17.4560546875,-0.7716064453125,0.302490234375,-0.1630859375
1.633,318,738,774,639,-4.0,31.0,25.0,-15.075682640075684,10.009765625,17.4560546875,-0.810302734375,0.274169921875,-0.1744384765625
1.658,316,784,733,652,-4.0,31.0,25.0,-23.803709030151367,4.2724609375,12.207030296325684,-0.80810546875,0.2861328125,-0.181640625
1.659,321,816,754,707,-5.0,31.0,18.0,-20.812986373901367,1.03759765625,9.8876953125,-0.7584228515625,0.2735595703125,-0.1614990234375
1.663,327,902,774,733,-5.0,31.0,18.0,-20.812986373901367,1.03759765625,9.8876953125,-0.6865234375,0.2347412109375,-0.1282958984375
1.681,328,1095,759,761,-5.0,31.0,18.0,-10.742186546325684,-0.7324218153953552,5.126952648162842,-0.6357421875,0.2188720703125,-0.09716796875
1.685,337,1236,802,858,-5.0,31.0,18.0,-6.896972179412842,0.0610351525247097,5.615233898162842,-0.6240234375,0.2288818359375,-0.07275390625
1.693,348,1370,830,910,-5.0,31.0,18.0,-6.896972179412842,0.0610351525247097,5.615233898162842,-0.6217041015625,0.2437744140625,-0.081298828125
1.707,363,1615,799,932,-5.0,31.0,18.0,-3.601073980331421,3.417968511581421,7.934569835662842,-0.609375,0.2498779296875,-0.13037109375
1.715,371,1798,867,1063,-5.0,31.0,18.0,-4.45556640625,4.57763671875,8.4228515625,-0.5650634765625,0.22509765625,-0.1494140625
1.723,375,1973,874,1129,-5.0,31.0,18.0,-4.45556640625,4.57763671875,8.4228515625,-0.4400634765625,0.1871337890625,-0.10498046875
1.737,387,2207,910,1129,-5.0,31.0,18.0,-2.01416015625,-3.051757574081421,9.6435546875,-0.213623046875,0.150634765625,-0.025390625
1.766,402,2312,1025,1289,-5.0,31.0,18.0,5.493163585662842,-14.526366233825684,9.58251953125,0.0364990234375,0.0452880859375,0.0892333984375
1.768,423,2347,1411,1116,-5.0,30.0,23.0,5.493163585662842,-14.526366233825684,9.58251953125,0.17041015625,-0.104736328125,0.2073974609375
1.770,438,2831,1209,1331,-5.0,30.0,23.0,8.056640625,-45.349117279052734,8.48388671875,0.05419921875,-0.1357421875,0.2589111328125
1.775,487,2573,1397,1504,-5.0,30.0,23.0,3.479003667831421,-49.377437591552734,9.70458984375,-0.283203125,0.0333251953125,0.140869140625
1.788,513,2697,1472,1516,-5.0,30.0,23.0,3.479003667831421,-49.377437591552734,9.70458984375,-0.670654296875,0.399658203125,-0.0888671875
1.797,521,2750,1447,1411,-5.0,30.0,23.0,-17.822265625,-22.216794967651367,6.774901866912842,-1.0667724609375,1.0086669921875,-0.4498291015625
1.805,519,2781,1583,1607,-5.0,30.0,23.0,-17.822265625,-22.216794967651367,6.774901866912842,-1.472412109375,1.2890625,-0.77978515625
1.813,523,2851,1590,1623,-5.0,30.0,23.0,-41.320796966552734,-6.469726085662842,5.493163585662842,-1.472412109375,1.2890625,-0.77978515625
1.827,512,2879,1519,1494,-5.0,30.0,23.0,-62.194820404052734,-0.0610351525247097,-17.27294921875,-2.454833984375,0.4627685546875,-0.622314453125
1.835,519,2901,1641,1660,-5.0,30.0,23.0,-62.194820404052734,-0.0610351525247097,-17.27294921875,-2.8065185546875,0.00634765625,-0.166015625
1.879,519,2859,1553,1655,-5.0,30.0,23.0,-55.786128997802734,-6.713866710662842,-23.925779342651367,-2.8065185546875,0.00634765625,-0.166015625
1.880,512,2832,1559,1546,-4.0,30.0,24.0,0.6713866591453552,-6.286620616912842,-6.591796398162842,-1.813232421875,0.149169921875,-0.177978515625
1.882,506,2970,1966,1564,-4.0,30.0,24.0,0.6713866591453552,-6.286620616912842,-6.591796398162842,-1.2861328125,0.61669921875,-0.423095703125
1.882,512,2818,1560,1687,-4.0,30.0,24.0,38.2080078125,-0.4272460639476776,3.356933355331421,-1.2861328125,0.61669921875,-0.423095703125
1.894,495,2813,1529,1648,-4.0,30.0,24.0,36.43798828125,-4.82177734375,-9.27734375,-1.6837158203125,0.6190185546875,-0.3046875
1.895,499,2916,1386,1600,-4.0,30.0,24.0,36.43798828125,-4.82177734375,-9.27734375,-1.778564453125,0.4176025390625,-0.1474609375
1.903,493,2736,1476,1602,-4.0,30.0,24.0,20.629880905151367,-2.3193359375,-14.465331077575684,-1.778564453125,0.4176025390625,-0.1474609375
1.917,470,2652,1316,1409,-4.0,30.0,24.0,6.896972179412842,13.793944358825684,-7.141112804412842,-1.5076904296875,0.285888671875,-0.218505859375
1.925,467,2621,1348,1494,-4.0,30.0,24.0,6.896972179412842,13.793944358825684,-7.141112804412842,-1.353759765625,0.32568359375,-0.2630615234375
1.933,462,2557,1274,1469,-4.0,30.0,24.0,7.507323741912842,20.874021530151367,-4.2724609375,-1.353759765625,0.32568359375,-0.2630615234375
1.953,423,2408,1055,1264,-3.0,33.0,20.0,5.615233898162842,30.578611373901367,0.9155272841453552,-1.0859375,0.3134765625,-0.1925048828125
1.969,411,2308,1050,1318,-3.0,33.0,20.0,5.615233898162842,30.578611373901367,0.9155272841453552,-0.935546875,0.1553955078125,-0.172607421875
1.970,408,2280,899,1175,-3.0,33.0,20.0,6.896972179412842,34.97314453125,1.8310545682907104,-0.935546875,0.1553955078125,-0.172607421875
1.977,383,1952,969,1127,-3.0,33.0,20.0,28.747556686401367,32.470703125,-0.0610351525247097,-0.4432373046875,-0.069091796875,-0.2542724609375
1.985,369,1750,883,1067,-3.0,33.0,20.0,28.747556686401367,32.470703125,-0.0610351525247097,-0.2921142578125,-0.0582275390625,-0.2520751953125
1.999,359,1552,860,978,-3.0,33.0,20.0,38.4521484375,26.489255905151367,-2.25830078125,-0.2921142578125,-0.0582275390625,-0.2520751953125
2.009,336,1199,748,780,-3.0,33.0,20.0,28.137205123901367,16.7236328125,-16.17431640625,-0.2852783203125,0.053466796875,-0.2554931640625
2.015,328,947,750,739,-3.0,33.0,20.0,28.137205123901367,16.7236328125,-16.17431640625,-0.3648681640625,0.2310791015625,-0.2471923828125
2.024,318,788,735,682,-3.0,33.0,20.0,16.54052734375,17.51708984375,-21.423337936401367,-0.3648681640625,0.2310791015625,-0.2471923828125
2.038,305,673,683,605,-3.0,33.0,20.0,3.051757574081421,16.90673828125,-23.254392623901367,-0.564453125,0.4171142578125,-0.0772705078125
2.068,302,654,678,624,-3.0,31.0,19.0,-9.82666015625,16.41845703125,-18.1884765625,-0.564453125,0.4171142578125,-0.0772705078125
2.068,302,646,642,606,-3.0,31.0,19.0,-15.869139671325684,16.41845703125,-9.21630859375,-0.6622314453125,0.4244384765625,-0.0982666015625
2.069,299,627,653,601,-3.0,31.0,19.0,-13.610838890075684,14.709471702575684,-4.57763671875,-0.7542724609375,0.2763671875,-0.1297607421875
2.077,301,631,654,607,-3.0,31.0,19.0,-10.681151390075684,9.94873046875,-6.896972179412842,-0.7542724609375,0.2763671875,-0.1297607421875
2.083,302,653,658,607,-3.0,31.0,19.0,-10.009765625,4.150390625,-13.183592796325684,-0.740234375,0.1531982421875,-0.0877685546875
2.097,304,693,654,601,-3.0,31.0,19.0,-8.97216796875,0.0,-17.08984375,-0.6658935546875,0.060302734375,-0.0413818359375
2.106,306,738,687,646,-3.0,31.0,19.0,-5.615233898162842,-1.8920897245407104,-13.793944358825684,-0.6658935546875,0.060302734375,-0.0413818359375
2.113,308,794,687,673,-3.0,31.0,19.0,-0.6713866591453552,-1.9531248807907104,-4.21142578125,-0.62548828125,0.095458984375,-0.034423828125
2.127,316,1078,689,737,-3.0,31.0,19.0,2.868652105331421,-0.9765624403953552,6.225585460662842,-0.5789794921875,0.1119384765625,-0.0543212890625
2.135,328,1294,728,853,-3.0,31.0,19.0,3.540038824081421,0.3662109076976776,12.939452171325684,-0.5789794921875,0.1119384765625,-0.0543212890625
2.143,336,1462,751,918,-4.0,31.0,19.0,4.08935546875,2.01416015625,16.9677734375,-0.625732421875,0.09423828125,-0.1131591796875
2.174,351,1743,747,955,-4.0,31.0,19.0,7.019042491912842,3.051757574081421,22.888181686401367,-0.69873046875,0.2791748046875,-0.2633056640625
2.175,360,1904,794,1105,-4.0,31.0,19.0,9.1552734375,2.197265625,29.907224655151367,-0.69873046875,0.2791748046875,-0.2633056640625
2.175,371,2058,813,1160,-4.0,31.0,19.0,5.126952648162842,-0.8544921278953552,33.3251953125,-0.6033935546875,0.30712890625,-0.26416015625
2.187,400,2310,848,1129,-4.0,31.0,19.0,-2.50244140625,-7.629394054412842,32.53173828125,-0.0955810546875,0.150146484375,0.0150146484375
2.195,416,2409,1014,1312,-4.0,31.0,19.0,-6.347655773162842,-20.507810592651367,26.855466842651367,-0.0955810546875,0.150146484375,0.0150146484375
2.216,461,2481,1170,1365,-4.0,31.0,19.0,-5.554198741912842,-38.818359375,16.17431640625,0.157470703125,-0.09521484375,0.1781005859375
2.217,506,2590,1369,1303,-4.0,31.0,19.0,-2.0751953125,-57.006832122802734,5.859374523162842,-0.012451171875,-0.1038818359375,0.0870361328125
2.225,513,2622,1506,1544,-4.0,31.0,19.0,2.50244140625,-66.46728515625,0.6713866591453552,-0.012451171875,-0.1038818359375,0.0870361328125
2.233,536,2709,1551,1575,-4.0,31.0,19.0,4.39453125,-62.255855560302734,-0.9765624403953552,-0.4351806640625,0.39306640625,-0.1627197265625
2.247,543,2777,1506,1472,-5.0,30.0,24.0,-4.82177734375,-44.372554779052734,-0.7934569716453552,-0.9234619140625,1.2005615234375,-0.59375
2.275,546,2831,1662,1648,-5.0,30.0,24.0,-35.15625,-22.705076217651367,-4.57763671875,-1.3719482421875,1.6009521484375,-0.935791015625
2.275,546,2844,1666,1681,-5.0,30.0,24.0,-74.52392578125,-12.390135765075684,-22.277830123901367,-1.90576171875,1.15576171875,-0.8861083984375
2.277,506,3112,1604,1659,-5.0,30.0,24.0,-93.62792205810547,-14.892577171325684,-45.532222747802734,-2.5626220703125,0.310791015625,-0.4112548828125
2.287,543,2891,1687,1677,-5.0,30.0,24.0,-80.62743377685547,-27.038572311401367,-57.006832122802734,-3.0059814453125,-0.3226318359375,0.070068359375
2.294,539,2954,1664,1666,-5.0,30.0,24.0,-41.748043060302734,-34.1796875,-46.081539154052734,-2.898193359375,-0.2872314453125,-0.029296875
2.307,527,2859,1543,1518,-5.0,30.0,24.0,6.408690929412842,-28.198240280151367,-22.033689498901367,-2.064453125,0.056884765625,-0.34228515625
2.328,531,2853,1653,1665,-5.0,30.0,24.0,38.818359375,-19.04296875,-5.859374523162842,-1.344970703125,0.4560546875,-0.3990478515625
2.328,533,2978,1514,1646,-5.0,30.0,24.0,42.175289154052734,-12.817381858825684,-4.2724609375,-1.4400634765625,0.6434326171875,-0.2672119140625
2.337,519,2772,1480,1483,1.0,28.0,22.0,26.489255905151367,-9.033203125,-8.6669921875,-1.819091796875,0.5189208984375,-0.1199951171875
2.345,516,2734,1529,1615,1.0,28.0,22.0,10.253905296325684,-2.624511480331421,-7.080077648162842,-1.942626953125,0.4635009765625,-0.0606689453125
2.361,505,2704,1480,1580,1.0,28.0,22.0,-0.2441406100988388,8.1787109375,-0.6713866591453552,-1.757568359375,0.3759765625,-0.06787109375
2.377,490,2632,1398,1516,1.0,28.0,22.0,-3.967284917831421,22.521970748901367,4.08935546875,-1.4764404296875,0.22265625,-0.070556640625
2.377,487,2698,1328,1494,1.0,28.0,22.0,-1.5869139432907104,36.56005859375,8.6669921875,-1.255615234375,0.2337646484375,-0.0645751953125
2.383,473,2532,1260,1433,1.0,28.0,22.0,2.624511480331421,43.762203216552734,15.075682640075684,-1.1053466796875,0.3419189453125,-0.0772705078125
2.422,431,2368,1041,1223,1.0,28.0,22.0,9.46044921875,43.090816497802734,19.22607421875,-0.9765625,0.306640625,-0.12890625
2.431,426,2233,1042,1267,1.0,28.0,22.0,22.399900436401367,39.4287109375,17.9443359375,-0.8167724609375,0.1314697265625,-0.1885986328125
2.433,416,2093,1022,1204,1.0,28.0,22.0,38.0859375,35.70556640625,13.061522483825684,-0.588134765625,-0.0264892578125,-0.2020263671875
2.434,393,1787,922,992,1.0,28.0,22.0,47.668453216552734,31.982419967651367,7.995604991912842,-0.3486328125,-0.09619140625,-0.185302734375
2.443,385,1610,919,1003,-2.0,33.0,17.0,45.715328216552734,30.212400436401367,5.432128429412842,-0.2498779296875,-0.044189453125,-0.1912841796875
2.443,369,1415,861,922,-2.0,33.0,17.0,34.60693359375,28.625486373901367,2.197265625,-0.2801513671875,0.028076171875,-0.1866455078125
2.482,344,1071,780,748,-2.0,33.0,17.0,19.47021484375,26.672361373901367,-5.859374523162842,-0.336669921875,0.0223388671875,-0.1845703125
2.482,334,939,766,725,-2.0,33.0,17.0,5.859374523162842,28.320310592651367,-13.793944358825684,-0.3995361328125,0.04931640625,-0.2281494140625
2.482,328,816,763,695,-2.0,33.0,17.0,-2.01416015625,31.555173873901367,-13.610838890075684,-0.465087890625,0.173095703125,-0.248779296875
2.488,323,786,749,682,-2.0,33.0,17.0,-7.690429210662842,31.372068405151367,-2.746581792831421,-0.5369873046875,0.3607177734375,-0.2159423828125
2.495,323,808,733,684,-2.0,33.0,17.0,-14.160155296325684,26.489255905151367,10.559081077575684,-0.592529296875,0.4736328125,-0.1563720703125
2.503,322,818,731,693,-2.0,33.0,17.0,-17.7001953125,19.4091796875,14.709471702575684,-0.6307373046875,0.4344482421875,-0.1148681640625
2.517,323,859,721,678,-2.0,33.0,17.0,-17.578125,13.671874046325684,9.27734375,-0.6544189453125,0.3292236328125,-0.0869140625
2.525,328,922,750,735,-2.0,33.0,17.0,-16.7236328125,9.46044921875,1.03759765625,-0.6724853515625,0.2452392578125,-0.0579833984375
2.534,328,973,753,750,-2.0,33.0,17.0,-16.05224609375,5.187987804412842,-5.187987804412842,-0.703857421875,0.21240234375,-0.0504150390625
2.548,328,1107,733,749,-4.0,31.0,22.0,-12.145995140075684,0.7934569716453552,-7.812499523162842,-0.7401123046875,0.2283935546875,-0.0770263671875
2.555,334,1336,707,790,-4.0,31.0,22.0,-2.624511480331421,-2.50244140625,-7.629394054412842,-0.76708984375,0.2591552734375,-0.1375732421875
2.582,344,1345,780,879,-4.0,31.0,22.0,8.36181640625,-4.69970703125,-6.103515148162842,-0.768798828125,0.2601318359375,-0.19921875
2.582,348,1555,816,962,-4.0,31.0,22.0,14.526366233825684,-6.774901866912842,-4.150390625,-0.7423095703125,0.2064208984375,-0.22509765625
2.585,359,1666,814,1004,-4.0,31.0,22.0,14.526366233825684,-8.97216796875,-1.2817381620407104,-0.713623046875,0.145751953125,-0.2249755859375
2.593,364,1820,837,1065,-4.0,31.0,22.0,10.803221702575684,-10.620116233825684,3.906249761581421,-0.68115234375,0.143310546875,-0.2164306640625
2.607,376,2047,816,1054,-4.0,31.0,22.0,7.263183116912842,-12.207030296325684,10.559081077575684,-0.6319580078125,0.1790771484375,-0.2080078125
2.616,388,2161,913,1217,-4.0,31.0,22.0,6.774901866912842,-16.78466796875,16.54052734375,-0.5050048828125,0.196044921875,-0.1446533203125
2.624,404,2284,958,1274,-4.0,31.0,22.0,8.9111328125,-25.878904342651367,20.568845748901367,-0.2708740234375,0.149169921875,-0.007080078125
2.639,428,2456,1000,1243,-2.0,32.0,19.0,12.634276390075684,-37.29248046875,22.277830123901367,-0.0518798828125,0.036376953125,0.154296875
2.646,455,2514,1201,1433,-2.0,32.0,19.0,15.563963890075684,-46.936031341552734,21.972654342651367,0.0283203125,-0.0601806640625,0.2828369140625
2.660,473,2573,1318,1483,-2.0,32.0,19.0,12.573241233825684,-49.072261810302734,19.59228515625,-0.0482177734375,-0.0654296875,0.312255859375
2.683,490,2665,1349,1428,-2.0,32.0,19.0,3.051757574081421,-40.466304779052734,15.014647483825684,-0.2662353515625,0.0252685546875,0.211669921875
2.684,510,3104,1798,1186,-2.0,32.0,19.0,-5.920409679412842,-25.817869186401367,11.291502952575684,-0.631591796875,0.2138671875,-0.089599609375
2.684,527,2785,1468,1610,-2.0,32.0,19.0,-9.33837890625,-10.131834983825684,11.108397483825684,-1.1290283203125,0.5338134765625,-0.705322265625
2.698,539,2850,1494,1506,-2.0,32.0,19.0,-16.78466796875,1.5869139432907104,11.291502952575684,-1.62939453125,0.8133544921875,-1.304443359375
2.706,527,2869,1643,1681,-2.0,32.0,19.0,-41.809078216552734,0.7934569716453552,7.934569835662842,-2.0343017578125,0.75390625,-1.2091064453125
2.714,543,2875,1655,1704,-2.0,32.0,19.0,-76.2939453125,-12.329100608825684,1.8920897245407104,-2.3148193359375,0.461669921875,-0.525634765625
2.728,533,2898,1540,1555,-2.0,32.0,19.0,-92.46825408935547,-23.803709030151367,-0.1831054538488388,-2.4637451171875,0.285888671875,0.0589599609375
2.737,518,2844,1602,1695,-4.0,29.0,15.0,-74.40185546875,-23.071287155151367,4.94384765625,-2.376953125,0.3701171875,0.1634521484375
2.747,514,2959,1610,1669,-4.0,29.0,15.0,-35.33935546875,-11.657713890075684,9.94873046875,-1.7908935546875,0.480224609375,-0.0284423828125
2.758,505,2887,1503,1516,-4.0,29.0,15.0,2.38037109375,1.8920897245407104,6.896972179412842,-1.2530517578125,0.6495361328125,-0.239013671875
2.793,490,2882,1582,1662,-4.0,29.0,15.0,21.301267623901367,7.995604991912842,-4.150390625,-1.354248046875,0.7734375,-0.410400390625
2.793,475,3147,1757,1721,-4.0,29.0,15.0,19.83642578125,5.187987804412842,-15.991209983825684,-1.7049560546875,0.624755859375,-0.43896484375
2.793,438,3047,1409,1596,-4.0,29.0,15.0,9.46044921875,0.1220703050494194,-20.080564498901367,-1.880859375,0.468505859375,-0.3505859375
2.797,491,2765,1445,1602,-4.0,29.0,15.0,0.2441406100988388,-1.4038084745407104,-16.4794921875,-1.805419921875,0.37548828125,-0.2421875
2.804,481,2716,1409,1561,-4.0,29.0,15.0,-1.7089842557907104,1.4648436307907104,-12.023924827575684,-1.5924072265625,0.31005859375,-0.147705078125
2.818,468,2605,1222,1377,-4.0,29.0,15.0,4.7607421875,8.056640625,-9.09423828125,-1.3472900390625,0.326416015625,-0.0537109375
2.826,463,2703,1112,1427,-4.0,29.0,15.0,13.427733421325684,15.441893577575684,-5.859374523162842,-1.140869140625,0.355712890625,0.01611328125
2.834,440,2472,1149,1422,-3.0,31.0,19.0,17.63916015625,22.766111373901367,-1.9531248807907104,-0.992919921875,0.260986328125,0.0
2.853,419,2321,944,1191,-3.0,31.0,19.0,22.033689498901367,29.968259811401367,1.7089842557907104,-0.8541259765625,0.1025390625,-0.0819091796875
2.858,416,2303,869,1146,-3.0,31.0,19.0,30.212400436401367,34.24072265625,4.150390625,-0.6690673828125,-0.0260009765625,-0.186279296875
2.866,389,2087,922,1173,-3.0,31.0,19.0,30.212400436401367,34.24072265625,4.150390625,-0.46875,-0.056884765625,-0.2860107421875
2.878,372,1798,797,968,-3.0,31.0,19.0,35.82763671875,33.26416015625,5.126952648162842,-0.3424072265625,-0.0284423828125,-0.2933349609375
2.895,361,1602,802,985,-3.0,31.0,19.0,26.672361373901367,28.747556686401367,0.2441406100988388,-0.2962646484375,-0.0679931640625,-0.2589111328125
2.895,360,1494,774,803,-3.0,31.0,19.0,26.672361373901367,28.747556686401367,0.2441406100988388,-0.2952880859375,-0.07177734375,-0.295654296875
2.920,338,1125,750,754,-3.0,31.0,19.0,9.033203125,30.212400436401367,-15.563963890075684,-0.34912109375,0.0625,-0.2919921875
2.920,334,1122,784,588,-3.0,31.0,19.0,-1.7700194120407104,30.639646530151367,-13.183592796325684,-0.441162109375,0.267822265625,-0.1923828125
2.925,328,934,742,739,-3.0,31.0,19.0,-15.624999046325684,28.259275436401367,-1.4648436307907104,-0.5146484375,0.4237060546875,-0.075439453125
2.933,323,902,737,737,-1.0,31.0,18.0,-15.624999046325684,28.259275436401367,-1.4648436307907104,-0.57373046875,0.452392578125,-0.02099609375
2.947,317,889,694,684,-1.0,31.0,18.0,-30.944822311401367,22.521970748901367,14.831542015075684,-0.6402587890625,0.4134521484375,-0.053955078125
2.961,322,884,711,725,-1.0,31.0,18.0,-30.944822311401367,22.521970748901367,14.831542015075684,-0.70458984375,0.3739013671875,-0.098876953125
2.963,321,949,673,693,-1.0,31.0,18.0,-28.686521530151367,20.202634811401367,10.314940452575684,-0.70458984375,0.3739013671875,-0.098876953125
3.002,317,991,683,711,-1.0,31.0,18.0,-18.61572265625,12.512206077575684,-5.126952648162842,-0.771240234375,0.3154296875,-0.096435546875
3.002,316,1153,652,675,-1.0,31.0,18.0,-18.61572265625,12.512206077575684,-5.126952648162842,-0.795654296875,0.28564453125,-0.1165771484375
3.002,323,1078,710,790,-1.0,31.0,18.0,-13.732909202575684,8.97216796875,-8.7890625,-0.8050537109375,0.2581787109375,-0.15234375
3.008,323,1189,710,818,-1.0,31.0,18.0,1.0986328125,2.563476324081421,-5.737304210662842,-0.79638671875,0.22119140625,-0.1922607421875
3.016,321,1268,705,852,-1.0,31.0,18.0,9.21630859375,-1.03759765625,-3.723144292831421,-0.781005859375,0.177001953125,-0.2230224609375
3.024,325,1365,706,889,-2.0,31.0,17.0,9.21630859375,-1.03759765625,-3.723144292831421,-0.77880859375,0.14501953125,-0.2459716796875
3.038,334,1531,692,885,-2.0,31.0,17.0,15.930174827575684,-7.812499523162842,2.25830078125,-0.78369140625,0.1435546875,-0.27099609375
3.046,346,1613,759,992,-2.0,31.0,17.0,13.427733421325684,-10.314940452575684,8.48388671875,-0.7628173828125,0.1708984375,-0.2896728515625
3.054,356,1722,813,1042,-2.0,31.0,17.0,13.427733421325684,-10.314940452575684,8.48388671875,-0.6824951171875,0.1844482421875,-0.2723388671875
3.068,376,1996,806,1065,-2.0,31.0,17.0,1.8310545682907104,-14.587401390075684,17.7001953125,-0.493408203125,0.1494140625,-0.2060546875
3.096,395,2139,923,1202,-2.0,31.0,17.0,1.8310545682907104,-14.587401390075684,17.7001953125,-0.212646484375,0.0531005859375,-0.099853515625
3.097,423,2468,1043,887,-2.0,31.0,17.0,-3.540038824081421,-18.6767578125,16.78466796875,-0.212646484375,0.0531005859375,-0.099853515625
3.098,462,2444,1370,1294,-2.0,31.0,17.0,-7.995604991912842,-41.320796966552734,13.671874046325684,0.3140869140625,-0.34423828125,0.2626953125
3.106,479,2490,1348,1464,-2.0,31.0,17.0,-7.995604991912842,-41.320796966552734,13.671874046325684,0.211669921875,-0.3216552734375,0.38671875
3.114,500,2573,1437,1518,-2.0,31.0,17.0,-4.94384765625,-51.757808685302734,18.798828125,0.211669921875,-0.3216552734375,0.38671875
3.128,513,2689,1413,1450,-3.0,26.0,21.0,4.39453125,-40.283199310302734,31.799314498901367,-0.6502685546875,0.6370849609375,-0.0299072265625
3.136,519,2734,1561,1637,-3.0,26.0,21.0,4.39453125,-40.283199310302734,31.799314498901367,-1.04931640625,1.38427734375,-0.5579833984375
3.144,533,2780,1588,1655,-3.0,26.0,21.0,-6.103515148162842,-26.672361373901367,28.625486373901367,-1.04931640625,1.38427734375,-0.5579833984375
3.158,536,2898,1534,1508,-3.0,26.0,21.0,-45.593257904052734,-23.559568405151367,-0.7934569716453552,-1.60986328125,1.2158203125,-0.8177490234375
3.197,533,2925,1675,1679,-3.0,26.0,21.0,-45.593257904052734,-23.559568405151367,-0.7934569716453552,-2.0888671875,0.5714111328125,-0.5546875
3.197,567,2981,1662,1660,-3.0,26.0,21.0,-55.297847747802734,-27.526853561401367,-19.34814453125,-2.0888671875,0.5714111328125,-0.5546875
3.198,519,3087,2091,1557,-3.0,26.0,21.0,-55.603023529052734,-26.855466842651367,-23.620603561401367,-2.6475830078125,0.079345703125,-0.2799072265625
3.198,527,2916,1627,1382,-3.0,26.0,21.0,-44.677730560302734,-30.944822311401367,-19.10400390625,-2.2567138671875,-0.0745849609375,-0.236328125
3.205,526,2887,1653,1695,-3.0,26.0,21.0,-15.930174827575684,-31.249998092651367,-13.305663108825684,-2.2567138671875,-0.0745849609375,-0.236328125
3.213,533,2922,1662,1686,-3.0,26.0,21.0,21.789548873901367,-27.465818405151367,-12.023924827575684,-1.4033203125,0.2039794921875,-0.35986328125
3.227,527,2875,1518,1533,-3.0,29.0,20.0,45.654293060302734,-25.634763717651367,-13.549803733825684,-1.6243896484375,0.7310791015625,-0.269775390625
3.235,525,2840,1615,1681,-3.0,29.0,20.0,43.762203216552734,-26.550291061401367,-14.648436546325684,-1.6243896484375,0.7310791015625,-0.269775390625
3.243,521,2818,1600,1662,-3.0,29.0,20.0,27.221677780151367,-25.634763717651367,-14.587401390075684,-1.8883056640625,0.6185302734375,-0.1373291015625
3.257,501,2715,1424,1464,-3.0,29.0,20.0,10.620116233825684,-17.63916015625,-11.413573265075684,-1.65673828125,0.4248046875,-0.1790771484375
3.265,504,2638,1494,1593,-3.0,29.0,20.0,1.0986328125,-5.920409679412842,-8.97216796875,-1.65673828125,0.4248046875,-0.1790771484375
3.299,499,2612,1428,1546,-3.0,29.0,20.0,0.1220703050494194,4.638671875,-7.873534679412842,-1.4244384765625,0.4346923828125,-0.2000732421875
3.299,433,2660,1241,1120,-3.0,29.0,20.0,0.6103515625,12.390135765075684,-5.798339366912842,-1.083251953125,0.417236328125,-0.09130859375
3.299,479,2850,1018,1343,-3.0,29.0,20.0,-2.807616949081421,19.47021484375,-3.295898199081421,-1.083251953125,0.417236328125,-0.09130859375
3.303,437,2374,996,1251,-3.0,29.0,20.0,-4.21142578125,28.442380905151367,-1.7700194120407104,-0.971435546875,0.17333984375,-0.070556640625
3.317,410,1996,973,1064,-3.0,29.0,20.0,2.563476324081421,36.4990234375,-0.6103515625,-0.5809326171875,-0.2930908203125,-0.000244140625
3.325,401,1774,973,1078,0.0,33.0,18.0,13.610838890075684,37.59765625,-0.0610351525247097,-0.5809326171875,-0.2930908203125,-0.000244140625
3.337,382,1564,936,1003,0.0,33.0,18.0,25.207517623901367,34.11865234375,1.4038084745407104,-0.353759765625,-0.3592529296875,0.0419921875
3.347,346,1092,797,751,0.0,33.0,18.0,34.7900390625,31.860349655151367,5.0048828125,-0.2928466796875,-0.0257568359375,-0.0677490234375
3.355,332,763,784,684,0.0,33.0,18.0,34.66796875,29.663084030151367,4.94384765625,-0.2928466796875,-0.0257568359375,-0.0677490234375
3.363,317,636,740,620,0.0,33.0,18.0,24.169919967651367,29.357908248901367,0.1831054538488388,-0.3125,0.1357421875,-0.168701171875
3.378,308,548,684,567,0.0,33.0,18.0,9.521484375,33.447265625,-2.25830078125,-0.4825439453125,0.4364013671875,-0.261962890625
3.402,304,526,673,571,0.0,33.0,18.0,-9.27734375,37.59765625,1.2817381620407104,-0.4825439453125,0.4364013671875,-0.261962890625
3.402,310,531,642,533,0.0,33.0,18.0,-24.902341842651367,38.0859375,9.1552734375,-0.671875,0.451171875,-0.2353515625
3.409,292,514,631,561,0.0,33.0,18.0,-23.010251998901367,34.912109375,11.901854515075684,-0.7701416015625,0.3826904296875,-0.2469482421875
3.415,294,517,630,553,0.0,33.0,18.0,-4.94384765625,30.090330123901367,2.624511480331421,-0.7845458984375,0.2635498046875,-0.281982421875
3.423,293,509,631,555,-3.0,32.0,21.0,12.939452171325684,23.315427780151367,-11.352538108825684,-0.7681884765625,0.2083740234375,-0.2647705078125
3.437,291,519,629,543,-3.0,32.0,21.0,18.61572265625,13.549803733825684,-19.59228515625,-0.7325439453125,0.2635498046875,-0.1763916015625
3.450,296,521,651,571,-3.0,32.0,21.0,13.427733421325684,3.112792730331421,-19.53125,-0.673583984375,0.3388671875,-0.07177734375
3.453,299,535,652,570,-3.0,32.0,21.0,7.568358898162842,-3.906249761581421,-14.404295921325684,-0.597412109375,0.3441162109375,-0.0081787109375
3.467,298,540,654,564,-3.0,32.0,21.0,7.812499523162842,-5.920409679412842,-7.324218273162842,-0.5299072265625,0.291748046875,0.0048828125
3.475,299,579,679,601,-3.0,32.0,21.0,12.207030296325684,-4.57763671875,-0.3662109076976776,-0.507080078125,0.2080078125,0.0081787109375
3.504,304,669,678,629,-3.0,32.0,21.0,15.869139671325684,-2.868652105331421,5.432128429412842,-0.5130615234375,0.0926513671875,0.03271484375
3.504,325,1107,799,643,-3.0,32.0,21.0,18.98193359375,-1.5258787870407104,10.986327171325684,-0.5281982421875,0.010009765625,0.029296875
3.506,314,1426,873,844,-3.0,32.0,21.0,23.437498092651367,-0.54931640625,17.88330078125,-0.55712890625,0.0457763671875,-0.0438232421875
3.513,351,1540,780,949,-3.0,32.0,21.0,26.916501998901367,-1.15966796875,25.695798873901367,-0.630859375,0.173095703125,-0.165771484375
3.527,364,1806,782,998,-5.0,30.0,18.0,31.738279342651367,-3.540038824081421,33.14208984375,-0.6624755859375,0.3624267578125,-0.3116455078125
3.535,383,1970,867,1138,-5.0,30.0,18.0,36.56005859375,-8.056640625,36.07177734375,-0.5504150390625,0.4580078125,-0.4141845703125
3.543,401,2102,932,1191,-5.0,30.0,18.0,26.794431686401367,-16.2353515625,31.738279342651367,-0.349853515625,0.3397216796875,-0.3387451171875
3.561,444,2279,1022,1173,-5.0,30.0,18.0,0.30517578125,-29.602048873901367,23.925779342651367,-0.1260986328125,0.0765380859375,-0.0552978515625
3.566,470,2359,1199,1357,-5.0,30.0,18.0,-22.338865280151367,-43.762203216552734,15.808104515075684,-0.03369140625,-0.1741943359375,0.2418212890625
3.573,490,2510,1289,1397,-5.0,30.0,18.0,-21.606443405151367,-50.659175872802734,10.742186546325684,-0.1776123046875,-0.154296875,0.3367919921875
3.607,514,2593,1341,1340,-5.0,30.0,18.0,-2.685546636581421,-48.522945404052734,9.27734375,-0.47509765625,0.1241455078125,0.17529296875
3.607,525,2734,1666,1483,-5.0,30.0,18.0,8.9111328125,-40.222164154052734,8.7890625,-0.803466796875,0.592041015625,-0.1593017578125
3.608,546,3147,1536,1529,-5.0,30.0,18.0,0.1831054538488388,-28.930662155151367,9.46044921875,-1.0791015625,1.21826171875,-0.564453125
3.618,526,2754,1543,1422,-2.0,30.0,24.0,-22.277830123901367,-20.202634811401367,5.065917491912842,-1.3482666015625,1.37158203125,-0.798583984375
3.625,531,2785,1634,1588,-2.0,30.0,24.0,-44.738765716552734,-16.29638671875,-9.033203125,-1.729248046875,0.93115234375,-0.7939453125
3.633,536,2756,1635,1643,-2.0,30.0,24.0,-57.250972747802734,-12.390135765075684,-19.4091796875,-2.2657470703125,0.3790283203125,-0.5364990234375
3.647,514,2750,1523,1508,-2.0,30.0,24.0,-58.837886810302734,-15.258788108825684,-18.98193359375,-2.6748046875,-0.0455322265625,-0.139404296875
3.656,523,2741,1600,1662,-2.0,30.0,24.0,-40.954586029052734,-20.629880905151367,-13.610838890075684,-2.598388671875,-0.0599365234375,-0.0933837890625
3.663,519,2726,1624,1662,-2.0,30.0,24.0,-3.723144292831421,-17.76123046875,-7.934569835662842,-1.896484375,0.1534423828125,-0.2874755859375
3.718,513,2734,1504,1504,-2.0,30.0,24.0,30.944822311401367,-14.831542015075684,-7.141112804412842,-1.232177734375,0.49755859375,-0.37353515625
3.720,524,2898,1478,1596,-2.0,30.0,24.0,43.457027435302734,-15.502928733825684,-11.535643577575684,-1.2886962890625,0.7542724609375,-0.322021484375
3.721,468,3011,1462,1494,-2.0,30.0,24.0,35.5224609375,-15.747069358825684,-18.6767578125,-1.6590576171875,0.6805419921875,-0.217041015625
3.721,513,3106,1411,1560,-2.0,30.0,24.0,21.423337936401367,-10.864256858825684,-21.972654342651367,-1.84521484375,0.5838623046875,-0.17578125
3.721,513,2654,1521,1579,-2.0,30.0,28.0,8.30078125,-2.01416015625,-19.4091796875,-1.7686767578125,0.50439453125,-0.2027587890625
3.723,498,2652,1476,1555,-2.0,30.0,28.0,0.7324218153953552,6.835937023162842,-17.63916015625,-1.5745849609375,0.4005126953125,-0.2576904296875
3.737,485,2479,1313,1359,-2.0,30.0,28.0,0.4272460639476776,13.854979515075684,-17.27294921875,-1.381103515625,0.4129638671875,-0.263916015625
3.745,479,2409,1334,1443,-2.0,30.0,28.0,0.4272460639476776,19.34814453125,-15.502928733825684,-1.220458984375,0.495849609375,-0.2039794921875
3.753,455,2330,1255,1390,-2.0,30.0,28.0,-5.493163585662842,25.817869186401367,-13.793944358825684,-1.0885009765625,0.4168701171875,-0.13232421875
3.767,426,2151,1018,1151,-2.0,30.0,28.0,-10.864256858825684,35.7666015625,-13.549803733825684,-0.9671630859375,0.166748046875,-0.08203125
3.775,424,2032,1003,1185,-2.0,30.0,28.0,-8.48388671875,45.654293060302734,-12.207030296325684,-0.826904296875,-0.0548095703125,-0.0540771484375
3.786,404,1798,968,1101,-2.0,30.0,28.0,0.3662109076976776,47.058101654052734,-9.70458984375,-0.6343994140625,-0.2298583984375,0.0350341796875
3.818,371,1387,869,869,-2.0,30.0,28.0,15.686034202575684,39.794921875,-8.60595703125,-0.4266357421875,-0.266845703125,0.1151123046875
3.819,359,1251,763,794,-2.0,30.0,28.0,34.60693359375,32.1044921875,-10.070799827575684,-0.3160400390625,-0.115478515625,0.0687255859375
3.819,324,827,750,698,-5.0,31.0,22.0,46.081539154052734,26.550291061401367,-16.11328125,-0.30859375,0.02880859375,-0.0498046875
3.827,306,582,679,572,-5.0,31.0,22.0,45.227046966552734,24.108884811401367,-25.146482467651367,-0.3380126953125,0.2086181640625,-0.2261962890625
3.835,300,554,667,584,-5.0,31.0,22.0,31.127927780151367,25.085447311401367,-28.564451217651367,-0.4222412109375,0.5015869140625,-0.3763427734375
3.843,300,533,653,573,-5.0,31.0,22.0,-2.38037109375,25.085447311401367,-20.385740280151367,-0.535888671875,0.7039794921875,-0.3890380859375
3.857,294,527,628,548,-5.0,31.0,22.0,-44.250484466552734,22.766111373901367,-8.23974609375,-0.578857421875,0.6705322265625,-0.31103515625
3.866,300,519,640,567,-5.0,31.0,22.0,-69.64111328125,20.324705123901367,-4.33349609375,-0.5614013671875,0.4884033203125,-0.217529296875
3.873,300,519,642,567,-5.0,31.0,22.0,-69.64111328125,20.324705123901367,-4.33349609375,-0.5611572265625,0.3138427734375,-0.145751953125
3.887,300,523,647,548,-5.0,31.0,22.0,-70.6787109375,16.66259765625,-14.221190452575684,-0.5845947265625,0.2542724609375,-0.1033935546875
3.920,300,535,660,572,-5.0,31.0,22.0,-71.35009765625,12.451170921325684,-15.869139671325684,-0.61279296875,0.2698974609375,-0.0667724609375
3.920,302,562,639,552,-5.0,31.0,22.0,-71.35009765625,12.451170921325684,-15.869139671325684,-0.6390380859375,0.2606201171875,-0.035888671875
3.921,302,561,673,563,-1.0,31.0,26.0,-80.50536346435547,2.25830078125,-16.11328125,-0.6475830078125,0.189453125,-0.0284423828125
3.926,304,593,689,594,-1.0,31.0,26.0,-75.74462890625,0.6713866591453552,-15.502928733825684,-0.6478271484375,0.0504150390625,-0.045166015625
3.934,308,651,684,631,-1.0,31.0,26.0,-75.74462890625,0.6713866591453552,-15.502928733825684,-0.64404296875,-0.13525390625,-0.06591796875
3.947,311,883,660,683,-1.0,31.0,26.0,-38.9404296875,2.929687261581421,-6.958007335662842,-0.6273193359375,-0.2855224609375,-0.0888671875
3.955,324,1101,691,800,-1.0,31.0,26.0,-11.962889671325684,3.845214605331421,0.1831054538488388,-0.6329345703125,-0.3056640625,-0.1513671875
3.963,332,1274,725,867,-1.0,31.0,26.0,-11.962889671325684,3.845214605331421,0.1831054538488388,-0.711669921875,-0.1527099609375,-0.267333984375
3.977,356,1506,759,900,-1.0,31.0,26.0,22.521970748901367,-2.746581792831421,23.071287155151367,-0.7828369140625,0.12255859375,-0.3770751953125
3.985,371,1676,842,1043,-1.0,31.0,26.0,17.822265625,-10.864256858825684,35.21728515625,-0.7305908203125,0.325439453125,-0.4195556640625
4.029,383,1838,898,1109,-1.0,31.0,26.0,17.822265625,-10.864256858825684,35.21728515625,-0.623046875,0.3294677734375,-0.366455078125
4.030,411,2047,985,1105,0.0,33.0,21.0,-17.76123046875,-33.8134765625,32.40966796875,-0.5274658203125,0.2293701171875,-0.2401123046875
4.030,439,2584,1143,1292,0.0,33.0,21.0,-24.841306686401367,-45.410152435302734,24.414060592651367,-0.4083251953125,0.1072998046875,-0.0906982421875
4.030,442,2230,1365,1095,0.0,33.0,21.0,-24.841306686401367,-45.410152435302734,24.414060592651367,-0.3485107421875,0.0980224609375,0.031982421875
4.037,473,2361,1336,1377,0.0,33.0,21.0,-8.30078125,-52.429195404052734,16.05224609375,-0.3974609375,0.3006591796875,0.046142578125
4.045,486,2394,1398,1469,0.0,33.0,21.0,-2.929687261581421,-49.560543060302734,10.070799827575684,-0.46337890625,0.50927734375,-0.0084228515625
4.053,507,2460,1463,1501,0.0,33.0,21.0,-2.929687261581421,-49.560543060302734,10.070799827575684,-0.5863037109375,0.6475830078125,-0.08642578125
4.067,512,2532,1469,1424,0.0,33.0,21.0,-19.10400390625,-42.785640716552734,-6.774901866912842,-0.8896484375,0.687255859375,-0.1336669921875
4.075,513,2574,1623,1600,0.0,33.0,21.0,-23.803709030151367,-41.381832122802734,-12.634276390075684,-1.38232421875,0.427001953125,-0.0946044921875
4.083,532,2625,1650,1623,0.0,33.0,21.0,-23.803709030151367,-41.381832122802734,-12.634276390075684,-1.8299560546875,0.1378173828125,-0.126953125
4.097,532,2695,1715,1693,0.0,33.0,21.0,-1.7089842557907104,-35.58349609375,-15.319823265075684,-2.06884765625,0.174072265625,-0.2861328125
4.139,532,3137,1516,1610,-7.0,31.0,17.0,-1.7089842557907104,-35.58349609375,-15.319823265075684,-2.183349609375,0.3485107421875,-0.4251708984375
4.140,542,3143,1569,1634,-7.0,31.0,17.0,7.873534679412842,-29.724119186401367,-4.57763671875,-2.211669921875,0.4420166015625,-0.408203125
4.140,535,2695,1634,1624,-7.0,31.0,17.0,6.469726085662842,-24.536130905151367,7.873534679412842,-1.925537109375,0.376953125,-0.1900634765625
4.140,540,2741,1637,1627,-7.0,31.0,17.0,12.084959983825684,-19.71435546875,5.249022960662842,-1.3131103515625,0.2603759765625,0.0625
4.144,539,2756,1641,1628,-7.0,31.0,17.0,12.084959983825684,-19.71435546875,5.249022960662842,-1.039306640625,0.4044189453125,0.0513916015625
4.158,527,2691,1501,1470,-7.0,31.0,17.0,24.841306686401367,8.36181640625,-0.7934569716453552,-1.3692626953125,0.614990234375,-0.1912841796875
4.166,521,2663,1597,1608,-7.0,31.0,17.0,10.742186546325684,17.333984375,-1.5869139432907104,-1.7698974609375,0.5919189453125,-0.3514404296875
4.174,523,2647,1580,1595,-7.0,31.0,17.0,10.742186546325684,17.333984375,-1.5869139432907104,-1.8521728515625,0.5115966796875,-0.3193359375
4.188,501,2569,1428,1411,-7.0,31.0,17.0,-12.268065452575684,13.305663108825684,0.54931640625,-1.67626953125,0.48046875,-0.2222900390625
4.219,495,2534,1474,1504,-7.0,31.0,17.0,-11.169432640075684,11.596678733825684,-0.6713866591453552,-1.4429931640625,0.50390625,-0.18505859375
4.220,497,2494,1415,1467,-1.0,33.0,22.0,-11.169432640075684,11.596678733825684,-0.6713866591453552,-1.2618408203125,0.5362548828125,-0.1929931640625
4.221,468,2359,1323,1303,-1.0,33.0,22.0,-6.164550304412842,16.41845703125,-7.324218273162842,-1.15283203125,0.476318359375,-0.188232421875
4.226,468,2445,1133,1315,-1.0,33.0,22.0,-6.164550304412842,16.41845703125,-7.324218273162842,-1.0899658203125,0.3421630859375,-0.17431640625
4.243,439,2188,1202,1287,-1.0,33.0,22.0,-4.08935546875,20.874021530151367,-10.437010765075684,-1.0899658203125,0.3421630859375,-0.17431640625
4.248,413,1954,1029,1070,-1.0,33.0,22.0,2.50244140625,27.465818405151367,-11.230467796325684,-0.8848876953125,-0.013427734375,-0.088134765625
4.256,411,1768,998,1065,-1.0,33.0,22.0,2.50244140625,27.465818405151367,-11.230467796325684,-0.7210693359375,-0.22314453125,0.0234375
4.264,402,1550,986,985,-1.0,33.0,22.0,7.873534679412842,26.794431686401367,-10.375975608825684,-0.7210693359375,-0.22314453125,0.0234375
4.278,371,1081,883,774,-1.0,33.0,22.0,30.334470748901367,23.498533248901367,-3.234863042831421,-0.471923828125,-0.22021484375,0.1007080078125
4.287,348,895,801,710,-1.0,33.0,22.0,30.334470748901367,23.498533248901367,-3.234863042831421,-0.4359130859375,-0.1292724609375,0.0836181640625
4.295,327,647,780,639,-1.0,33.0,22.0,33.50830078125,22.277830123901367,-1.4038084745407104,-0.4359130859375,-0.1292724609375,0.0836181640625
4.321,313,543,706,593,-2.0,30.0,18.0,24.902341842651367,31.433103561401367,-0.54931640625,-0.4112548828125,0.162109375,-0.211181640625
4.321,306,533,680,578,-2.0,30.0,18.0,24.902341842651367,31.433103561401367,-0.54931640625,-0.482177734375,0.331298828125,-0.3135986328125
4.324,306,514,683,570,-2.0,30.0,18.0,15.563963890075684,37.9638671875,7.568358898162842,-0.482177734375,0.331298828125,-0.3135986328125
4.350,302,517,668,548,-2.0,30.0,18.0,7.263183116912842,34.72900390625,15.624999046325684,-0.550537109375,0.336181640625,-0.20947265625
4.350,304,518,684,578,-2.0,30.0,18.0,7.263183116912842,34.72900390625,15.624999046325684,-0.543701171875,0.29833984375,-0.169921875
4.355,306,530,687,576,-2.0,30.0,18.0,14.282225608825684,30.578611373901367,12.756346702575684,-0.543701171875,0.29833984375,-0.169921875
4.368,304,543,678,562,-2.0,30.0,18.0,11.657713890075684,20.507810592651367,13.427733421325684,-0.5989990234375,0.3551025390625,-0.094970703125
4.376,304,561,689,592,-2.0,30.0,18.0,11.657713890075684,20.507810592651367,13.427733421325684,-0.626708984375,0.4129638671875,-0.0604248046875
4.384,308,613,694,607,-2.0,30.0,18.0,3.845214605331421,13.305663108825684,13.183592796325684,-0.626708984375,0.4129638671875,-0.0604248046875
4.398,308,758,673,617,-2.0,31.0,24.0,-6.591796398162842,5.493163585662842,8.97216796875,-0.6060791015625,0.3521728515625,-0.0372314453125
4.425,313,951,694,738,-2.0,31.0,24.0,-6.591796398162842,5.493163585662842,8.97216796875,-0.57177734375,0.2845458984375,-0.05078125
4.425,329,1175,713,833,-2.0,31.0,24.0,-4.45556640625,4.45556640625,5.920409679412842,-0.57177734375,0.2845458984375,-0.05078125
4.428,347,1516,778,949,-2.0,31.0,24.0,13.183592796325684,-0.4272460639476776,5.065917491912842,-0.6583251953125,0.168212890625,-0.19384765625
4.439,356,1681,788,1018,-2.0,31.0,24.0,13.183592796325684,-0.4272460639476776,5.065917491912842,-0.6583251953125,0.168212890625,-0.19384765625
4.450,371,1861,802,1083,-2.0,31.0,24.0,25.573728561401367,-5.065917491912842,9.82666015625,-0.6573486328125,0.23486328125,-0.3350830078125
4.462,390,2127,832,1083,-2.0,31.0,24.0,26.611326217651367,-12.451170921325684,14.160155296325684,-0.3399658203125,0.3289794921875,-0.273193359375
4.466,411,2254,954,1248,-2.0,31.0,24.0,10.925292015075684,-23.803709030151367,14.831542015075684,-0.3399658203125,0.3289794921875,-0.273193359375
4.474,431,2345,1071,1316,-2.0,31.0,24.0,-9.46044921875,-39.6728515625,11.169432640075684,-0.0850830078125,0.15869140625,-0.0465087890625
4.488,465,2473,1175,1292,-2.0,31.0,24.0,-19.1650390625,-55.175777435302734,5.126952648162842,-0.0032958984375,-0.2288818359375,0.3206787109375
4.496,495,2554,1357,1456,-3.0,29.0,18.0,-15.563963890075684,-63.110347747802734,1.03759765625,-0.0032958984375,-0.2288818359375,0.3206787109375
4.526,505,2619,1424,1501,-3.0,29.0,18.0,-5.798339366912842,-59.326168060302734,0.6103515625,-0.2677001953125,-0.0474853515625,0.3101806640625
4.527,526,2713,1456,1415,-3.0,29.0,18.0,1.7089842557907104,-46.874996185302734,1.5869139432907104,-1.03857421875,0.9647216796875,-0.2904052734375
4.528,562,3147,1669,1580,-3.0,29.0,18.0,-1.8920897245407104,-33.26416015625,2.868652105331421,-1.03857421875,0.9647216796875,-0.2904052734375
4.534,533,2753,1632,1616,-3.0,29.0,18.0,-21.179197311401367,-21.484373092651367,1.4648436307907104,-1.608154296875,1.11181640625,-0.7774658203125
4.548,533,2829,1547,1494,-3.0,29.0,18.0,-45.715328216552734,-13.793944358825684,-6.469726085662842,-2.545166015625,0.136962890625,-0.567626953125
4.556,527,2872,1694,1646,-3.0,29.0,18.0,-62.927242279052734,-14.526366233825684,-12.939452171325684,-2.545166015625,0.136962890625,-0.567626953125
4.564,545,2877,1681,1656,-3.0,29.0,18.0,-63.598628997802734,-20.874021530151367,-7.934569835662842,-2.6234130859375,-0.014892578125,-0.11279296875
4.578,526,2801,1527,1478,-3.0,29.0,18.0,-40.466304779052734,-25.024412155151367,4.638671875,-1.7193603515625,0.517333984375,-0.0592041015625
4.587,532,2795,1627,1636,-3.0,29.0,18.0,-6.042479991912842,-22.094724655151367,11.291502952575684,-1.7193603515625,0.517333984375,-0.0592041015625
4.594,531,2799,1608,1642,-1.0,34.0,22.0,20.629880905151367,-11.596678733825684,3.906249761581421,-1.0423583984375,0.597412109375,-0.109130859375
4.634,526,2792,1483,1490,-1.0,34.0,22.0,29.418943405151367,1.03759765625,-9.82666015625,-1.6060791015625,0.6048583984375,-0.2918701171875
4.634,531,2738,1588,1642,-1.0,34.0,22.0,21.423337936401367,8.544921875,-19.1650390625,-1.6060791015625,0.6048583984375,-0.2918701171875
4.635,525,2787,1550,1604,-1.0,34.0,22.0,8.9111328125,8.85009765625,-19.10400390625,-1.9305419921875,0.5098876953125,-0.2978515625
4.640,518,2677,1488,1564,-1.0,34.0,22.0,-0.2441406100988388,6.164550304412842,-12.145995140075684,-1.593017578125,0.4161376953125,-0.15234375
4.646,512,2622,1474,1533,-1.0,34.0,22.0,-5.432128429412842,6.652831554412842,-6.652831554412842,-1.593017578125,0.4161376953125,-0.15234375
4.654,499,2578,1428,1506,-1.0,34.0,22.0,-5.371093273162842,13.000487327575684,-6.103515148162842,-1.3853759765625,0.33349609375,-0.1270751953125
4.668,478,2479,1231,1317,-1.0,34.0,22.0,-0.7934569716453552,21.972654342651367,-6.652831554412842,-1.257080078125,0.3507080078125,-0.0899658203125
4.676,462,2412,1236,1386,-1.0,34.0,22.0,2.685546636581421,28.869626998901367,-4.21142578125,-1.17041015625,0.4161376953125,-0.053955078125
4.687,456,2391,1160,1336,-1.0,34.0,22.0,3.234863042831421,33.69140625,-1.0986328125,-1.07421875,0.3663330078125,-0.0753173828125
4.698,424,2144,980,1120,-1.0,32.0,17.0,6.408690929412842,37.109375,-1.03759765625,-0.92822265625,0.188232421875,-0.1204833984375
4.706,414,2065,973,1157,-1.0,32.0,17.0,15.808104515075684,37.4755859375,-2.44140625,-0.7381591796875,0.001708984375,-0.1455078125
4.732,403,1854,946,1095,-1.0,32.0,17.0,28.259275436401367,34.11865234375,-3.234863042831421,-0.5107421875,-0.142333984375,-0.1129150390625
4.733,373,1547,846,922,-1.0,32.0,17.0,37.53662109375,29.541013717651367,-3.234863042831421,-0.329345703125,-0.1754150390625,-0.0408935546875
4.736,361,1355,826,899,-1.0,32.0,17.0,40.0390625,27.648923873901367,-3.845214605331421,-0.266357421875,-0.1204833984375,-0.02734375
4.744,344,1160,790,826,-1.0,32.0,17.0,35.58349609375,29.541013717651367,-7.202147960662842,-0.3079833984375,-0.073486328125,-0.10791015625
4.758,327,912,725,693,-1.0,32.0,17.0,26.794431686401367,33.50830078125,-10.864256858825684,-0.3758544921875,0.039794921875,-0.2232666015625
4.769,323,819,721,694,-1.0,32.0,17.0,16.17431640625,36.0107421875,-11.108397483825684,-0.4310302734375,0.21728515625,-0.2830810546875
4.774,317,775,708,673,-1.0,32.0,17.0,2.746581792831421,35.5224609375,-4.5166015625,-0.5086669921875,0.395263671875,-0.2496337890625
4.791,310,785,674,645,-1.0,32.0,17.0,-12.268065452575684,31.921384811401367,8.7890625,-0.580322265625,0.4876708984375,-0.16357421875
4.818,313,808,689,684,-3.0,34.0,19.0,-22.033689498901367,26.000974655151367,18.798828125,-0.611572265625,0.4578857421875,-0.0980224609375
4.825,314,846,697,702,-3.0,34.0,19.0,-22.583005905151367,19.95849609375,18.798828125,-0.6229248046875,0.375732421875,-0.08349609375
4.837,308,1109,673,721,-3.0,34.0,19.0,-16.05224609375,14.831542015075684,11.901854515075684,-0.641357421875,0.318359375,-0.0936279296875
4.837,321,1104,653,763,-3.0,34.0,19.0,-7.751464366912842,9.521484375,3.540038824081421,-0.6729736328125,0.2952880859375,-0.096923828125
4.837,321,1129,671,725,-3.0,34.0,19.0,-1.8310545682907104,4.0283203125,-2.746581792831421,-0.7064208984375,0.282958984375,-0.10693359375
4.852,326,1294,710,813,-3.0,34.0,19.0,3.540038824081421,-0.1220703050494194,-5.249022960662842,-0.7239990234375,0.2769775390625,-0.14208984375
4.856,332,1411,750,914,-3.0,34.0,19.0,9.58251953125,-3.295898199081421,-4.638671875,-0.7244873046875,0.2650146484375,-0.1888427734375
4.864,343,1529,772,959,-3.0,34.0,19.0,13.916014671325684,-6.896972179412842,-2.197265625,-0.7083740234375,0.21435546875,-0.2271728515625
4.878,359,1743,757,973,-3.0,34.0,19.0,15.747069358825684,-11.474608421325684,2.13623046875,-0.6710205078125,0.15478515625,-0.2667236328125
4.886,371,1882,830,1103,-3.0,34.0,19.0,15.319823265075684,-16.90673828125,8.72802734375,-0.5927734375,0.1544189453125,-0.282470703125
4.894,382,2030,860,1163,-2.0,33.0,15.0,12.268065452575684,-23.437498092651367,15.319823265075684,-0.467529296875,0.1859130859375,-0.210205078125
4.937,391,2253,855,1132,-2.0,33.0,15.0,8.544921875,-31.066892623901367,18.61572265625,-0.2913818359375,0.171142578125,-0.030029296875
4.938,418,2344,1100,1047,-2.0,33.0,15.0,6.835937023162842,-38.87939453125,18.06640625,-0.052978515625,0.0606689453125,0.1895751953125
4.938,441,2430,1143,1387,-2.0,33.0,15.0,3.601073980331421,-44.616695404052734,13.671874046325684,0.164306640625,-0.0946044921875,0.355224609375
4.939,487,2621,1204,1384,-2.0,33.0,15.0,-5.065917491912842,-47.546382904052734,6.652831554412842,0.1842041015625,-0.19970703125,0.411865234375
4.947,497,2630,1413,1533,-2.0,33.0,15.0,-12.023924827575684,-45.959468841552734,2.01416015625,-0.05126953125,-0.139404296875,0.2978515625
4.954,521,2713,1469,1575,-2.0,33.0,15.0,-6.286620616912842,-36.80419921875,4.33349609375,-0.483642578125,0.1756591796875,-0.1181640625
4.968,505,2810,1456,1490,-2.0,33.0,15.0,8.11767578125,-21.423337936401367,11.718749046325684,-1.0592041015625,0.681640625,-0.8438720703125
4.983,525,2848,1613,1647,-2.0,33.0,15.0,6.286620616912842,-10.681151390075684,15.991209983825684,-1.599609375,0.9619140625,-1.34814453125
4.984,540,2928,1646,1683,-2.0,33.0,15.0,-26.062009811401367,-16.05224609375,13.244627952575684,-1.9736328125,0.738037109375,-1.02587890625
4.998,518,2963,1622,1568,-1.0,32.0,17.0,-67.44384765625,-33.203125,8.97216796875,-2.244140625,0.349365234375,-0.19580078125
5.006,504,3010,1762,1691,-1.0,32.0,17.0,-81.35985565185547,-42.785640716552734,10.131834983825684,-2.633544921875,0.425537109375,0.2398681640625
5.014,506,2984,1695,1669,-1.0,32.0,17.0,-64.14794921875,-33.935546875,21.179197311401367,-2.8203125,0.788818359375,0.1075439453125
5.038,513,2912,1545,1549,-1.0,32.0,17.0,-33.87451171875,-17.4560546875,23.376462936401367,-2.058349609375,0.622802734375,-0.05908203125
5.039,519,2898,1676,1700,-1.0,32.0,17.0,9.033203125,-6.835937023162842,1.5869139432907104,-1.0728759765625,0.43505859375,-0.1304931640625
5.044,523,2909,1649,1683,-1.0,32.0,17.0,43.640132904052734,-1.9531248807907104,-23.071287155151367,-0.9501953125,0.5362548828125,-0.331787109375
5.058,518,2858,1523,1521,-1.0,32.0,17.0,47.729488372802734,0.0,-34.85107421875,-1.3875732421875,0.49755859375,-0.4954833984375
5.066,521,2840,1634,1653,-1.0,32.0,17.0,32.2265625,-2.868652105331421,-32.958984375,-1.7650146484375,0.484375,-0.424560546875
5.074,519,2820,1611,1640,-1.0,32.0,17.0,10.803221702575684,-6.958007335662842,-23.437498092651367,-1.856201171875,0.5499267578125,-0.259033203125
5.088,513,2738,1453,1464,0.0,30.0,22.0,-7.629394054412842,-6.408690929412842,-16.7236328125,-1.7064208984375,0.568115234375,-0.140625
5.096,506,2676,1523,1575,0.0,30.0,22.0,-18.06640625,0.4882812201976776,-16.2353515625,-1.47900390625,0.478515625,-0.0699462890625
5.106,497,2627,1483,1546,0.0,30.0,22.0,-20.202634811401367,11.657713890075684,-19.04296875,-1.304931640625,0.3433837890625,-0.0126953125
5.147,468,2625,1173,1380,0.0,30.0,22.0,-9.6435546875,34.11865234375,-12.512206077575684,-1.10693359375,0.316162109375,0.063232421875
5.151,460,2388,1236,1398,0.0,30.0,22.0,-9.6435546875,34.11865234375,-12.512206077575684,-1.0115966796875,0.2569580078125,-0.0106201171875
5.151,426,2366,952,1101,0.0,30.0,22.0,-0.1831054538488388,43.457027435302734,2.13623046875,-0.86376953125,0.1328125,-0.1282958984375
5.156,423,2139,1014,1211,0.0,30.0,22.0,15.319823265075684,40.10009765625,2.44140625,-0.6962890625,0.042724609375,-0.2305908203125
5.164,411,2012,973,1151,0.0,30.0,22.0,15.319823265075684,40.10009765625,2.44140625,-0.509033203125,-0.03271484375,-0.245361328125
5.178,386,1709,860,957,0.0,30.0,22.0,40.771480560302734,27.465818405151367,-6.652831554412842,-0.355712890625,-0.0858154296875,-0.181396484375
5.187,371,1533,872,975,-2.0,33.0,19.0,42.785640716552734,26.306150436401367,-12.695311546325684,-0.308349609375,-0.095947265625,-0.17431640625
5.195,359,1373,829,912,-2.0,33.0,19.0,42.785640716552734,26.306150436401367,-12.695311546325684,-0.344482421875,-0.0748291015625,-0.209228515625
5.208,331,1103,728,749,-2.0,33.0,19.0,28.930662155151367,32.5927734375,-21.606443405151367,-0.4100341796875,0.0205078125,-0.1973876953125
5.218,328,962,759,748,-2.0,33.0,19.0,15.075682640075684,32.16552734375,-20.385740280151367,-0.4637451171875,0.1844482421875,-0.1834716796875
5.253,329,864,750,713,-2.0,33.0,19.0,15.075682640075684,32.16552734375,-20.385740280151367,-0.512939453125,0.3692626953125,-0.1676025390625
5.256,318,811,711,667,-2.0,33.0,19.0,-16.05224609375,26.123044967651367,2.0751953125,-0.5679931640625,0.4434814453125,-0.09912109375
5.257,321,841,721,702,-2.0,33.0,19.0,-30.090330123901367,22.033689498901367,12.756346702575684,-0.6138916015625,0.3695068359375,-0.0260009765625
5.257,323,936,636,698,-2.0,33.0,19.0,-30.090330123901367,22.033689498901367,12.756346702575684,-0.6539306640625,0.26904296875,-0.00634765625
5.268,323,996,713,721,-2.0,33.0,19.0,-27.343748092651367,18.49365234375,12.512206077575684,-0.689697265625,0.2100830078125,-0.0306396484375
5.276,325,1083,733,790,-2.0,33.0,19.0,-17.88330078125,16.2353515625,9.6435546875,-0.707275390625,0.1971435546875,-0.078369140625
5.284,328,1173,735,826,-2.0,33.0,19.0,-17.88330078125,16.2353515625,9.6435546875,-0.7122802734375,0.2313232421875,-0.1396484375
5.302,334,1336,714,832,-2.0,33.0,19.0,-3.112792730331421,6.774901866912842,9.82666015625,-0.706298828125,0.285400390625,-0.194091796875
5.306,347,1463,757,922,-2.0,33.0,19.0,2.807616949081421,1.5258787870407104,11.535643577575684,-0.692138671875,0.309326171875,-0.225830078125
5.314,346,1557,777,973,-2.0,33.0,19.0,2.807616949081421,1.5258787870407104,11.535643577575684,-0.6927490234375,0.2779541015625,-0.2386474609375
5.346,360,1735,785,966,-2.0,33.0,19.0,10.192870140075684,-6.347655773162842,11.779784202575684,-0.70361328125,0.234375,-0.24853515625
5.346,371,1826,835,1105,-2.0,33.0,19.0,10.437010765075684,-9.8876953125,12.878417015075684,-0.68115234375,0.2266845703125,-0.25634765625
5.347,371,1936,853,1155,-2.0,33.0,19.0,10.437010765075684,-9.8876953125,12.878417015075684,-0.6080322265625,0.244140625,-0.2259521484375
5.364,385,2165,842,1122,-2.0,33.0,19.0,2.929687261581421,-21.545408248901367,14.953612327575684,-0.471923828125,0.2210693359375,-0.128173828125
5.366,404,2261,934,1254,-2.0,33.0,19.0,2.929687261581421,-21.545408248901367,14.953612327575684,-0.2813720703125,0.1260986328125,0.0018310546875
5.374,418,2345,999,1343,-2.0,33.0,19.0,1.220703125,-31.555173873901367,14.709471702575684,-0.2813720703125,0.1260986328125,0.0018310546875
5.388,447,2484,1107,1308,-3.0,33.0,18.0,3.967284917831421,-52.062984466552734,14.831542015075684,-0.0308837890625,-0.0731201171875,0.2452392578125
5.396,479,2534,1321,1481,-3.0,33.0,18.0,3.967284917831421,-52.062984466552734,14.831542015075684,-0.115234375,-0.0623779296875,0.2017822265625
5.408,496,2608,1398,1529,-3.0,33.0,18.0,2.807616949081421,-55.053707122802734,12.878417015075684,-0.115234375,-0.0623779296875,0.2017822265625
5.418,510,2715,1419,1437,-3.0,33.0,18.0,1.0986328125,-38.9404296875,6.591796398162842,-0.70166015625,0.326904296875,-0.21728515625
5.447,509,2945,1442,1588,-3.0,33.0,18.0,1.0986328125,-38.9404296875,6.591796398162842,-1.150634765625,0.7420654296875,-0.758056640625
5.450,533,2801,1584,1681,-3.0,33.0,18.0,3.112792730331421,-22.460935592651367,7.568358898162842,-1.150634765625,0.7420654296875,-0.758056640625
5.450,533,2863,1584,1545,-3.0,33.0,18.0,-42.480464935302734,-15.991209983825684,5.249022960662842,-1.9344482421875,0.6751708984375,-0.8189697265625
5.458,526,2925,1678,1703,-3.0,33.0,18.0,-42.480464935302734,-15.991209983825684,5.249022960662842,-2.1363525390625,0.2978515625,-0.1546630859375
5.464,531,2925,1675,1718,-3.0,33.0,18.0,-76.96533203125,-26.550291061401367,4.150390625,-2.1363525390625,0.2978515625,-0.1546630859375
5.478,513,2938,1577,1550,0.0,31.0,15.0,-62.499996185302734,-21.362302780151367,16.4794921875,-2.2454833984375,0.4637451171875,0.22265625
5.486,499,2901,1665,1681,0.0,31.0,15.0,-62.499996185302734,-21.362302780151367,16.4794921875,-1.8648681640625,0.6385498046875,-0.038818359375
5.494,512,2938,1656,1689,0.0,31.0,15.0,-26.550291061401367,-6.286620616912842,17.39501953125,-1.8648681640625,0.6385498046875,-0.038818359375
5.516,509,2881,1518,1541,0.0,31.0,15.0,25.207517623901367,15.747069358825684,-13.549803733825684,-1.0826416015625,0.6070556640625,-0.233154296875
5.516,526,2858,1624,1702,0.0,31.0,15.0,25.207517623901367,15.747069358825684,-13.549803733825684,-1.5323486328125,0.643798828125,-0.377197265625
5.524,519,2843,1602,1687,0.0,31.0,15.0,27.404783248901367,18.6767578125,-23.925779342651367,-1.5323486328125,0.643798828125,-0.377197265625
5.554,535,2850,1441,1468,0.0,31.0,15.0,3.234863042831421,10.375975608825684,-17.88330078125,-1.9322509765625,0.5047607421875,-0.364501953125
5.554,483,2911,1377,1473,0.0,31.0,15.0,3.234863042831421,10.375975608825684,-17.88330078125,-1.6993408203125,0.483154296875,-0.23095703125
5.555,525,2742,1467,1386,0.0,31.0,15.0,-5.126952648162842,6.591796398162842,-13.061522483825684,-1.6993408203125,0.483154296875,-0.23095703125
5.568,499,2619,1294,1386,0.0,31.0,15.0,-3.051757574081421,14.587401390075684,-17.27294921875,-1.2760009765625,0.402587890625,-0.0263671875
5.576,493,2616,1312,1467,-1.0,29.0,18.0,-3.051757574081421,14.587401390075684,-17.27294921875,-1.158447265625,0.41748046875,-0.0067138671875
5.588,468,2504,1209,1409,-1.0,29.0,18.0,2.807616949081421,23.437498092651367,-17.822265625,-1.158447265625,0.41748046875,-0.0067138671875
5.598,430,2354,996,1175,-1.0,29.0,18.0,6.225585460662842,31.982419967651367,-13.732909202575684,-0.90966796875,0.1497802734375,-0.117919921875
5.606,411,2228,967,1222,-1.0,29.0,18.0,9.033203125,40.771480560302734,-7.629394054412842,-0.90966796875,0.1497802734375,-0.117919921875
5.621,400,2068,913,1173,-1.0,29.0,18.0,13.183592796325684,48.828121185302734,-1.2817381620407104,-0.7392578125,-0.044677734375,-0.1461181640625
5.628,371,1774,827,1038,-1.0,29.0,18.0,15.319823265075684,52.795406341552734,3.845214605331421,-0.3564453125,-0.2750244140625,-0.146484375
5.654,352,1588,777,966,-1.0,29.0,18.0,17.76123046875,50.170894622802734,6.835937023162842,-0.3564453125,-0.2750244140625,-0.146484375
5.654,338,1417,738,912,-1.0,29.0,18.0,25.817869186401367,42.724605560302734,4.94384765625,-0.26171875,-0.228515625,-0.1939697265625
5.658,318,1081,689,738,-1.0,29.0,18.0,35.58349609375,37.29248046875,-2.3193359375,-0.3243408203125,0.135009765625,-0.3736572265625
5.667,314,917,683,722,-1.0,29.0,18.0,35.33935546875,33.75244140625,-8.48388671875,-0.3243408203125,0.135009765625,-0.3736572265625
5.674,312,832,678,689,-3.0,33.0,17.0,20.141599655151367,27.832029342651367,-7.202147960662842,-0.4185791015625,0.38232421875,-0.34521484375
5.688,307,766,659,642,-3.0,33.0,17.0,-3.540038824081421,21.972654342651367,2.929687261581421,-0.499267578125,0.52685546875,-0.1661376953125
5.702,306,799,675,680,-3.0,33.0,17.0,-26.184080123901367,17.51708984375,14.770506858825684,-0.499267578125,0.52685546875,-0.1661376953125
5.710,302,944,631,642,-3.0,33.0,17.0,-39.0625,14.343260765075684,19.10400390625,-0.495361328125,0.468017578125,-0.102294921875
5.718,313,1043,683,766,-3.0,33.0,17.0,-41.076656341552734,11.535643577575684,15.136717796325684,-0.5093994140625,0.2783203125,-0.00830078125
5.727,316,1209,628,785,-3.0,33.0,17.0,-36.31591796875,6.958007335662842,6.469726085662842,-0.5093994140625,0.2783203125,-0.00830078125
5.745,324,1343,630,803,-3.0,33.0,17.0,-27.465818405151367,1.220703125,-1.6479490995407104,-0.537353515625,0.2216796875,-0.0155029296875
5.755,328,1541,693,944,-3.0,33.0,17.0,-16.11328125,-4.21142578125,-4.08935546875,-0.603515625,0.3096923828125,-0.1046142578125
5.758,318,1929,799,1004,-3.0,33.0,17.0,-4.7607421875,-9.82666015625,-1.4648436307907104,-0.603515625,0.3096923828125,-0.1046142578125
5.765,347,1845,656,1038,-3.0,33.0,17.0,4.69970703125,-15.319823265075684,2.50244140625,-0.57666015625,0.3297119140625,-0.1455078125
5.778,364,2087,725,1078,-1.0,32.0,15.0,10.803221702575684,-19.287109375,5.981444835662842,-0.357421875,0.1900634765625,-0.19580078125
5.786,375,2225,829,1224,-1.0,32.0,15.0,11.840819358825684,-22.644041061401367,9.21630859375,-0.357421875,0.1900634765625,-0.19580078125
5.794,402,2359,906,1278,-1.0,32.0,15.0,4.08935546875,-29.968259811401367,11.108397483825684,-0.1458740234375,0.1212158203125,-0.0771484375
5.814,439,2461,1053,1276,-1.0,32.0,15.0,-11.657713890075684,-43.640132904052734,7.446288585662842,0.0657958984375,-0.0469970703125,0.1484375
5.816,470,2587,1276,1474,-1.0,32.0,15.0,-25.329587936401367,-57.495113372802734,-2.13623046875,0.1373291015625,-0.2852783203125,0.37060546875
5.824,495,2621,1398,1534,-1.0,32.0,15.0,-25.146482467651367,-62.805171966552734,-9.521484375,-0.0189208984375,-0.38427734375,0.4329833984375
5.864,533,2919,1592,1624,-1.0,32.0,15.0,14.038084983825684,-47.546382904052734,6.408690929412842,-0.7720947265625,0.6461181640625,-0.0806884765625
5.865,526,2801,1643,1678,-1.0,32.0,15.0,20.751951217651367,-38.4521484375,18.12744140625,-1.2618408203125,1.2972412109375,-0.68115234375
5.870,551,2946,1691,1666,-1.0,32.0,15.0,2.563476324081421,-25.817869186401367,16.2353515625,-1.852783203125,1.2320556640625,-1.2232666015625
5.876,569,3010,1704,1700,0.0,30.0,16.0,-33.38623046875,-17.27294921875,7.568358898162842,-2.41650390625,0.7628173828125,-1.075439453125
5.884,548,3018,1768,1675,0.0,30.0,16.0,-71.10595703125,-23.498533248901367,1.6479490995407104,-2.761962890625,0.287109375,-0.3687744140625
5.898,546,2940,1582,1521,0.0,30.0,16.0,-80.078125,-34.0576171875,1.4648436307907104,-2.874755859375,0.1414794921875,0.0841064453125
5.906,545,2938,1704,1665,0.0,30.0,16.0,-45.471187591552734,-36.376953125,6.225585460662842,-2.2869873046875,0.1932373046875,0.0943603515625
5.914,548,2935,1697,1656,0.0,30.0,16.0,9.6435546875,-29.724119186401367,2.807616949081421,-1.286865234375,0.3804931640625,-0.0086669921875
5.928,537,2925,1560,1501,0.0,30.0,16.0,49.255367279052734,-19.53125,-8.97216796875,-0.9786376953125,0.72216796875,-0.171875
5.959,536,2925,1653,1635,0.0,30.0,16.0,54.931636810302734,-9.6435546875,-19.34814453125,-1.35791015625,0.7718505859375,-0.3619384765625
5.961,537,3147,1646,1638,0.0,30.0,16.0,36.92626953125,-3.540038824081421,-23.132322311401367,-1.7684326171875,0.5924072265625,-0.376708984375
5.961,521,2824,1595,1595,0.0,30.0,16.0,13.366698265075684,-1.8920897245407104,-17.63916015625,-1.86669921875,0.5223388671875,-0.2457275390625
5.967,521,2778,1529,1569,0.0,30.0,16.0,-4.69970703125,-0.4882812201976776,-9.8876953125,-1.689453125,0.5028076171875,-0.124267578125
5.976,505,2722,1483,1537,0.0,31.0,23.0,-12.695311546325684,4.638671875,-6.103515148162842,-1.4510498046875,0.415771484375,-0.0570068359375
5.988,487,2616,1251,1328,0.0,31.0,23.0,-10.437010765075684,13.305663108825684,-4.94384765625,-1.2716064453125,0.3214111328125,-0.02734375
5.996,473,2561,1243,1417,0.0,31.0,23.0,-2.13623046875,21.484373092651367,-1.03759765625,-1.1656494140625,0.342529296875,-0.0140380859375
6.004,465,2507,1149,1357,0.0,31.0,23.0,5.065917491912842,26.672361373901367,6.164550304412842,-1.0992431640625,0.3873291015625,-0.049560546875
6.018,430,2340,943,1160,0.0,31.0,23.0,12.023924827575684,30.334470748901367,10.559081077575684,-1.0018310546875,0.322021484375,-0.128662109375
6.026,407,2323,844,1157,0.0,31.0,23.0,22.521970748901367,32.8369140625,8.72802734375,-0.861328125,0.1962890625,-0.166259765625
6.065,401,2053,890,1131,0.0,31.0,23.0,33.26416015625,33.203125,2.624511480331421,-0.671630859375,0.051513671875,-0.1357421875
6.065,371,1715,762,932,0.0,31.0,23.0,39.24560546875,31.738279342651367,-6.103515148162842,-0.43994140625,-0.0919189453125,-0.071533203125
6.075,351,1521,731,922,0.0,31.0,23.0,38.87939453125,31.005857467651367,-14.587401390075684,-0.258056640625,-0.1671142578125,-0.038330078125
6.076,334,1341,702,864,0.0,31.0,23.0,33.3251953125,31.555173873901367,-19.95849609375,-0.1646728515625,-0.199951171875,-0.06103515625
6.078,319,1116,748,698,-2.0,30.0,18.0,25.756834030151367,31.921384811401367,-21.667478561401367,-0.213623046875,-0.19775390625,-0.1220703125
6.088,300,1018,733,682,-2.0,30.0,18.0,22.888181686401367,30.700681686401367,-17.08984375,-0.3916015625,-0.0985107421875,-0.189208984375
6.096,313,946,572,561,-2.0,30.0,18.0,27.648923873901367,27.343748092651367,-4.82177734375,-0.5343017578125,0.1478271484375,-0.245849609375
6.108,308,900,638,654,-2.0,30.0,18.0,29.357908248901367,23.193357467651367,12.329100608825684,-0.5579833984375,0.497314453125,-0.2330322265625
6.116,308,907,649,695,-2.0,30.0,18.0,16.90673828125,15.624999046325684,23.925779342651367,-0.5579833984375,0.677734375,-0.0867919921875
6.127,309,971,607,689,-2.0,30.0,18.0,0.1831054538488388,4.21142578125,21.362302780151367,-0.61767578125,0.5694580078125,0.0667724609375
6.138,304,1018,607,680,-2.0,30.0,18.0,-3.051757574081421,-2.807616949081421,11.474608421325684,-0.67822265625,0.4041748046875,0.088134765625
6.173,306,1079,620,738,-2.0,30.0,18.0,8.7890625,-4.2724609375,3.906249761581421,-0.724853515625,0.333740234375,-0.00537109375
6.173,305,1126,607,761,-2.0,30.0,18.0,22.766111373901367,-3.845214605331421,0.1831054538488388,-0.7945556640625,0.3115234375,-0.1671142578125
6.174,306,1253,687,766,-9.0,32.0,17.0,33.0810546875,-1.220703125,-0.0610351525247097,-0.8414306640625,0.3126220703125,-0.3424072265625
6.178,306,1380,574,803,-9.0,32.0,17.0,39.12353515625,-0.0610351525247097,1.5258787870407104,-0.8221435546875,0.3172607421875,-0.4415283203125
6.184,304,1453,567,842,-9.0,32.0,17.0,37.29248046875,-4.94384765625,2.0751953125,-0.76025390625,0.3028564453125,-0.4093017578125
6.198,313,1643,535,830,-9.0,32.0,17.0,28.808591842651367,-14.099120140075684,0.6103515625,-0.6854248046875,0.364501953125,-0.2464599609375
6.206,328,1745,601,936,-9.0,32.0,17.0,22.644041061401367,-26.306150436401367,-5.126952648162842,-0.6221923828125,0.4217529296875,-0.0728759765625
6.214,332,1826,636,971,-9.0,32.0,17.0,23.498533248901367,-38.818359375,-15.808104515075684,-0.63232421875,0.3018798828125,-0.0360107421875
6.231,354,1931,698,974,-9.0,32.0,17.0,19.59228515625,-45.349117279052734,-21.667478561401367,-0.7147216796875,0.1221923828125,-0.092529296875
6.236,359,2007,827,1117,-9.0,32.0,17.0,5.371093273162842,-43.640132904052734,-14.221190452575684,-0.7874755859375,0.04150390625,-0.125732421875
6.276,370,2068,912,1188,-9.0,32.0,17.0,-5.676269054412842,-38.14697265625,1.0986328125,-0.69384765625,-0.035400390625,-0.0157470703125
6.279,400,2220,1136,1263,-9.0,32.0,17.0,2.807616949081421,-33.26416015625,13.183592796325684,-0.348388671875,-0.144775390625,0.1123046875
6.279,424,2317,1170,1340,-2.0,31.0,22.0,19.775390625,-23.315427780151367,16.4794921875,-0.0299072265625,-0.0926513671875,0.0263671875
6.279,414,2489,1143,1365,-2.0,31.0,22.0,9.27734375,-11.108397483825684,12.878417015075684,-0.000244140625,0.052734375,0.0103759765625
6.288,445,2507,1355,1336,-2.0,31.0,22.0,-15.930174827575684,-10.314940452575684,9.521484375,-0.1776123046875,0.16064453125,0.13232421875
6.296,445,2580,1499,1514,-2.0,31.0,22.0,-13.671874046325684,-18.85986328125,12.451170921325684,-0.398193359375,0.334228515625,0.080810546875
6.304,445,2692,1608,1508,-2.0,31.0,22.0,-13.671874046325684,-18.85986328125,12.451170921325684,-0.6397705078125,0.6082763671875,-0.1337890625
6.318,445,2821,1604,1386,-2.0,31.0,22.0,19.04296875,-20.324705123901367,23.498533248901367,-1.0341796875,0.7587890625,-0.4449462890625
6.326,454,3035,1622,1555,-2.0,31.0,22.0,15.014647483825684,-11.352538108825684,20.324705123901367,-1.6265869140625,0.6463623046875,-0.7879638671875
6.335,478,2795,1718,1636,-2.0,31.0,22.0,15.014647483825684,-11.352538108825684,20.324705123901367,-2.14599609375,0.4373779296875,-0.8895263671875
6.348,479,2840,1650,1504,-2.0,31.0,22.0,-26.550291061401367,-6.225585460662842,8.4228515625,-2.359130859375,0.275390625,-0.6328125
6.385,479,2891,1790,1664,-2.0,31.0,22.0,-45.593257904052734,-17.88330078125,6.408690929412842,-2.3150634765625,0.2493896484375,-0.2515869140625
6.385,485,3104,2001,1732,-3.0,32.0,24.0,-45.593257904052734,-17.88330078125,6.408690929412842,-2.0777587890625,0.3870849609375,0.0059814453125
6.385,481,2810,1676,1501,-3.0,32.0,24.0,-21.118162155151367,-36.9873046875,5.310058116912842,-1.58935546875,0.4820556640625,0.05322265625
6.388,400,2939,1973,1529,-3.0,32.0,24.0,-0.8544921278953552,-26.367185592651367,-0.54931640625,-1.0433349609375,0.466064453125,0.040771484375
6.394,473,2769,1686,1656,-3.0,32.0,24.0,-0.8544921278953552,-26.367185592651367,-0.54931640625,-0.94189453125,0.5123291015625,0.0140380859375
6.408,470,2745,1557,1504,-3.0,32.0,24.0,20.751951217651367,6.835937023162842,-14.404295921325684,-1.3988037109375,0.58251953125,-0.1217041015625
6.417,473,2722,1640,1655,-3.0,32.0,24.0,16.2353515625,19.4091796875,-12.695311546325684,-1.9051513671875,0.5538330078125,-0.274169921875
6.425,456,2787,1665,1588,-3.0,32.0,24.0,16.2353515625,19.4091796875,-12.695311546325684,-2.003173828125,0.4697265625,-0.310546875
6.441,455,2638,1447,1443,-3.0,32.0,24.0,-4.150390625,23.193357467651367,0.6103515625,-1.7586669921875,0.397705078125,-0.2491455078125
6.446,433,2955,1575,1411,-3.0,32.0,24.0,-5.493163585662842,21.179197311401367,4.638671875,-1.433349609375,0.41748046875,-0.196533203125
6.479,434,2598,1449,1497,-3.0,32.0,24.0,-5.493163585662842,21.179197311401367,4.638671875,-1.1827392578125,0.51806640625,-0.169677734375
6.479,390,2638,1188,1395,-5.0,32.0,21.0,2.746581792831421,24.414060592651367,6.652831554412842,-1.047607421875,0.53125,-0.1502685546875
6.479,421,2430,1236,1323,-5.0,32.0,21.0,4.0283203125,29.602048873901367,5.432128429412842,-0.9840087890625,0.4267578125,-0.1634521484375
6.485,399,2375,1173,1281,-5.0,32.0,21.0,4.0283203125,29.602048873901367,5.432128429412842,-0.9190673828125,0.267822265625,-0.186767578125
6.498,388,2137,973,1103,-5.0,32.0,21.0,14.831542015075684,32.2265625,-0.54931640625,-0.80517578125,0.0853271484375,-0.157958984375
6.506,400,2024,1003,1103,-5.0,32.0,21.0,24.230955123901367,24.353025436401367,-7.141112804412842,-0.6495361328125,-0.0963134765625,-0.0540771484375
6.515,409,1824,922,1025,-5.0,32.0,21.0,24.230955123901367,24.353025436401367,-7.141112804412842,-0.6495361328125,-0.0963134765625,-0.0540771484375
6.528,376,1561,794,837,-5.0,32.0,21.0,47.119136810302734,14.221190452575684,-18.1884765625,-0.3218994140625,-0.221923828125,-0.004150390625
6.536,385,1336,788,827,-5.0,32.0,21.0,47.119136810302734,14.221190452575684,-18.1884765625,-0.2857666015625,-0.182861328125,-0.0272216796875
6.545,370,1149,774,759,-5.0,32.0,21.0,45.166011810302734,18.24951171875,-18.61572265625,-0.2857666015625,-0.182861328125,-0.0272216796875
6.584,371,855,746,625,-5.0,31.0,22.0,23.010251998901367,28.381345748901367,-9.70458984375,-0.458740234375,0.217529296875,-0.2379150390625
6.584,363,800,689,607,-5.0,31.0,22.0,23.010251998901367,28.381345748901367,-9.70458984375,-0.4947509765625,0.5478515625,-0.3673095703125
6.584,356,706,740,601,-5.0,31.0,22.0,6.835937023162842,27.038572311401367,-1.5258787870407104,-0.4947509765625,0.5478515625,-0.3673095703125
6.588,364,678,754,594,-5.0,31.0,22.0,-57.189937591552734,13.305663108825684,10.925292015075684,-0.6170654296875,0.4873046875,-0.1229248046875
6.602,369,702,761,605,-5.0,31.0,22.0,-57.189937591552734,13.305663108825684,10.925292015075684,-0.6239013671875,0.295166015625,-0.0067138671875
6.604,364,829,725,596,-5.0,31.0,22.0,-60.974117279052734,10.131834983825684,14.465331077575684,-0.6239013671875,0.295166015625,-0.0067138671875
6.618,378,865,750,630,-5.0,31.0,22.0,-26.916501998901367,14.709471702575684,15.380858421325684,-0.6767578125,0.194580078125,-0.076904296875
6.626,378,986,750,682,-5.0,31.0,22.0,-26.916501998901367,14.709471702575684,15.380858421325684,-0.7061767578125,0.23974609375,-0.1265869140625
6.636,390,1014,785,714,-5.0,31.0,22.0,-15.869139671325684,14.221190452575684,13.916014671325684,-0.7061767578125,0.23974609375,-0.1265869140625
6.648,400,1262,744,725,-5.0,31.0,22.0,-1.8310545682907104,9.765625,15.624999046325684,-0.6595458984375,0.299072265625,-0.208984375
6.688,391,1386,767,827,-6.0,29.0,16.0,-1.8310545682907104,9.765625,15.624999046325684,-0.6068115234375,0.293701171875,-0.234130859375
6.688,416,1745,780,648,-6.0,29.0,16.0,2.50244140625,6.591796398162842,16.7236328125,-0.6068115234375,0.293701171875,-0.234130859375
6.689,419,1759,723,859,-6.0,29.0,16.0,2.197265625,1.2817381620407104,16.7236328125,-0.5513916015625,0.2850341796875,-0.197265625
6.689,419,1918,902,1055,-6.0,29.0,16.0,-0.0610351525247097,-5.187987804412842,14.892577171325684,-0.450439453125,0.2432861328125,-0.1644287109375
6.695,428,2047,959,1122,-6.0,29.0,16.0,-4.150390625,-9.6435546875,11.230467796325684,-0.450439453125,0.2432861328125,-0.1644287109375
6.703,455,2129,1043,1202,-6.0,29.0,16.0,-15.197752952575684,-12.207030296325684,5.859374523162842,-0.3582763671875,0.1392822265625,-0.08984375
6.717,473,2280,1173,1223,-6.0,29.0,16.0,-33.87451171875,-15.258788108825684,-1.7089842557907104,0.1259765625,-0.3585205078125,0.33056640625
6.725,497,2345,1369,1415,-6.0,29.0,16.0,-51.574703216552734,-21.789548873901367,-8.85009765625,0.1259765625,-0.3585205078125,0.33056640625
6.733,507,2404,1463,1476,-6.0,29.0,16.0,-51.513668060302734,-32.65380859375,-6.835937023162842,0.12744140625,-0.4486083984375,0.478271484375
6.747,494,2507,1483,1415,-6.0,29.0,16.0,-21.301267623901367,-43.212886810302734,7.690429210662842,-0.574951171875,0.6690673828125,-0.11865234375
6.755,499,2590,1638,1577,-2.0,31.0,18.0,23.986814498901367,-45.654293060302734,25.573728561401367,-0.574951171875,0.6690673828125,-0.11865234375
6.783,508,2722,1641,1582,-2.0,31.0,18.0,50.415035247802734,-31.860349655151367,37.353515625,-1.2073974609375,1.524658203125,-1.001708984375
6.783,512,2735,1678,1608,-2.0,31.0,18.0,29.663084030151367,-13.549803733825684,32.89794921875,-2.18017578125,1.075439453125,-0.96533203125
6.792,496,2908,1573,1518,-2.0,31.0,18.0,-26.855466842651367,-8.6669921875,16.05224609375,-2.18017578125,1.075439453125,-0.96533203125
6.793,519,2741,1715,1683,-2.0,31.0,18.0,-78.7353515625,-15.624999046325684,3.112792730331421,-2.57666015625,0.4417724609375,-0.1689453125
6.807,508,2698,1548,1492,-2.0,31.0,18.0,-89.96581268310547,-23.681638717651367,-6.286620616912842,-2.4105224609375,0.1038818359375,-0.044189453125
6.815,514,2677,1665,1655,-2.0,31.0,18.0,-51.086421966552734,-23.559568405151367,-11.413573265075684,-2.4105224609375,0.1038818359375,-0.044189453125
6.827,512,2683,1669,1662,-2.0,31.0,18.0,3.723144292831421,-20.446775436401367,-14.282225608825684,-1.508056640625,0.3192138671875,-0.320068359375
6.837,505,2689,1568,1501,-2.0,31.0,18.0,41.076656341552734,-21.972654342651367,-21.423337936401367,-1.3228759765625,0.765625,-0.328857421875
6.845,508,2672,1643,1656,-2.0,31.0,18.0,48.461910247802734,-24.047849655151367,-27.404783248901367,-1.3228759765625,0.765625,-0.328857421875
6.853,508,2652,1627,1640,-2.0,30.0,20.0,32.53173828125,-21.118162155151367,-27.404783248901367,-1.783447265625,0.6522216796875,-0.226318359375
6.882,487,2613,1474,1434,-2.0,30.0,20.0,12.207030296325684,-13.610838890075684,-20.202634811401367,-1.905029296875,0.545166015625,-0.125
6.883,424,2876,1380,1516,-2.0,30.0,20.0,-3.479003667831421,-4.0283203125,-10.437010765075684,-1.733642578125,0.4510498046875,-0.083984375
6.883,495,2514,1557,986,-2.0,30.0,20.0,-10.742186546325684,7.263183116912842,-4.2724609375,-1.47998046875,0.35595703125,-0.0880126953125
6.902,455,2432,1326,1328,-2.0,30.0,20.0,-9.46044921875,19.22607421875,-0.2441406100988388,-1.2569580078125,0.37109375,-0.041015625
6.905,442,2407,1328,1390,-2.0,30.0,20.0,-6.958007335662842,29.846189498901367,5.737304210662842,-1.09521484375,0.4208984375,0.0576171875
6.913,424,2310,1251,1348,-2.0,30.0,20.0,-6.774901866912842,39.00146484375,12.390135765075684,-0.9891357421875,0.362060546875,0.0653076171875
6.927,411,2141,1034,1143,-2.0,30.0,20.0,-0.6713866591453552,45.471187591552734,15.258788108825684,-0.8831787109375,0.2342529296875,-0.0526123046875
6.940,404,2010,1064,1191,-2.0,30.0,20.0,15.624999046325684,44.189449310302734,12.695311546325684,-0.7313232421875,0.1258544921875,-0.1680908203125
6.943,400,1877,1014,1131,-2.0,30.0,20.0,34.912109375,34.11865234375,4.7607421875,-0.5289306640625,0.0565185546875,-0.2197265625
6.957,389,1627,879,927,-5.0,32.0,22.0,46.447750091552734,21.972654342651367,-5.981444835662842,-0.3333740234375,-0.032958984375,-0.2293701171875
6.986,404,1514,864,906,-5.0,32.0,22.0,48.461910247802734,15.808104515075684,-15.441893577575684,-0.2401123046875,-0.1427001953125,-0.29150390625
6.986,400,1553,757,864,-5.0,32.0,22.0,46.020503997802734,17.88330078125,-20.996091842651367,-0.254638671875,-0.1370849609375,-0.407958984375
6.987,359,1310,723,659,-5.0,32.0,22.0,36.1328125,21.179197311401367,-21.545408248901367,-0.3507080078125,0.0535888671875,-0.4124755859375
6.995,361,1014,778,757,-5.0,32.0,22.0,15.136717796325684,19.53125,-17.4560546875,-0.4947509765625,0.332275390625,-0.3077392578125
7.007,361,946,763,721,-5.0,32.0,22.0,-9.033203125,14.526366233825684,-10.681151390075684,-0.5787353515625,0.549072265625,-0.185791015625
7.017,360,904,735,658,-5.0,32.0,22.0,-31.738279342651367,9.58251953125,-4.5166015625,-0.576171875,0.5745849609375,-0.0623779296875
7.025,361,906,751,702,-5.0,32.0,22.0,-50.842281341552734,7.690429210662842,-2.624511480331421,-0.5909423828125,0.443359375,0.0225830078125
7.034,360,922,753,713,-5.0,32.0,22.0,-56.762691497802734,8.23974609375,-4.33349609375,-0.653076171875,0.2958984375,0.0557861328125
7.053,361,996,735,697,-3.0,31.0,14.0,-45.776363372802734,8.056640625,-6.408690929412842,-0.7296142578125,0.204345703125,0.0364990234375
7.055,371,1095,731,749,-3.0,31.0,14.0,-27.587888717651367,6.713866710662842,-6.225585460662842,-0.7977294921875,0.1873779296875,-0.0328369140625
7.065,364,1091,759,777,-3.0,31.0,14.0,-13.183592796325684,4.638671875,-3.417968511581421,-0.8314208984375,0.2261962890625,-0.09814453125
7.095,360,1199,758,757,-3.0,31.0,14.0,-5.554198741912842,1.8310545682907104,1.03759765625,-0.820068359375,0.268310546875,-0.122802734375
7.095,369,1264,803,837,-3.0,31.0,14.0,-2.25830078125,-1.15966796875,5.676269054412842,-0.7825927734375,0.276123046875,-0.127197265625
7.096,377,1557,871,902,-3.0,31.0,14.0,0.7934569716453552,-3.479003667831421,9.09423828125,-0.7298583984375,0.2584228515625,-0.1302490234375
7.114,385,1531,883,944,-3.0,31.0,14.0,6.286620616912842,-5.187987804412842,10.559081077575684,-0.665283203125,0.2308349609375,-0.14990234375
7.116,371,1978,848,934,-3.0,31.0,14.0,12.268065452575684,-6.469726085662842,10.131834983825684,-0.6143798828125,0.21337890625,-0.2108154296875
7.123,416,1816,906,1029,-3.0,31.0,14.0,11.718749046325684,-7.446288585662842,9.70458984375,-0.5614013671875,0.215087890625,-0.2506103515625
7.137,433,2060,913,1056,-3.0,31.0,14.0,3.417968511581421,-8.60595703125,10.314940452575684,-0.447265625,0.209716796875,-0.1785888671875
7.145,482,2192,1092,1236,-2.0,27.0,17.0,-3.295898199081421,-12.268065452575684,10.681151390075684,-0.1806640625,0.1728515625,0.0216064453125
7.153,490,2260,1255,1328,-2.0,27.0,17.0,-4.39453125,-22.949216842651367,6.713866710662842,0.246337890625,-0.048828125,0.29052734375
7.168,485,2364,1398,1336,-2.0,27.0,17.0,-5.676269054412842,-40.161128997802734,-1.8920897245407104,0.5411376953125,-0.441162109375,0.529052734375
7.190,506,2469,1557,1516,-2.0,27.0,17.0,-0.3662109076976776,-55.908199310302734,-2.624511480331421,0.3980712890625,-0.4515380859375,0.5802001953125
7.190,514,2689,1476,1173,-2.0,27.0,17.0,25.024412155151367,-63.964839935302734,9.1552734375,-0.1014404296875,0.120361328125,0.280029296875
7.197,497,2668,1572,1492,-2.0,27.0,17.0,56.884761810302734,-56.701656341552734,19.287109375,-0.822021484375,1.0010986328125,-0.5753173828125
7.205,499,2721,1732,1669,-2.0,27.0,17.0,61.157222747802734,-31.677244186401367,21.301267623901367,-1.4925537109375,1.66015625,-1.54296875
7.219,499,2782,1743,1679,-2.0,27.0,17.0,14.465331077575684,-16.78466796875,10.253905296325684,-1.870361328125,1.3814697265625,-1.4967041015625
7.227,508,2851,1770,1703,-2.0,27.0,17.0,-56.762691497802734,-23.376462936401367,-5.615233898162842,-2.241943359375,0.62158203125,-0.6146240234375
7.265,498,2880,1794,1709,-2.0,27.0,17.0,-102.11180877685547,-35.58349609375,-10.375975608825684,-2.6610107421875,0.077392578125,0.1412353515625
7.284,508,2823,1750,1715,-1.0,30.0,20.0,-95.88622283935547,-43.029781341552734,-7.568358898162842,-2.91357421875,0.0098876953125,0.2530517578125
7.284,497,2792,1615,1516,-1.0,30.0,20.0,-49.865718841552734,-39.4287109375,-0.7324218153953552,-2.4814453125,0.2940673828125,-0.0350341796875
7.284,493,2797,1741,1501,-1.0,30.0,20.0,-0.6103515625,-31.921384811401367,-2.25830078125,-1.463623046875,0.450439453125,-0.11376953125
7.295,507,2821,1715,1681,-1.0,30.0,20.0,31.982419967651367,-25.939939498901367,-14.526366233825684,-1.033935546875,0.5908203125,-0.030029296875
7.295,487,2928,1534,1640,-1.0,30.0,20.0,40.466304779052734,-17.822265625,-21.118162155151367,-1.413330078125,0.6551513671875,-0.01025390625
7.295,496,3147,1467,1627,-1.0,30.0,20.0,31.433103561401367,-6.408690929412842,-17.578125,-1.8519287109375,0.5985107421875,-0.075927734375
7.303,495,2679,1640,1664,-1.0,30.0,20.0,15.624999046325684,4.57763671875,-7.629394054412842,-1.9168701171875,0.57470703125,-0.1300048828125
7.317,479,2621,1481,1452,-1.0,30.0,20.0,-2.0751953125,14.648436546325684,0.8544921278953552,-1.7113037109375,0.490234375,-0.138916015625
7.325,473,2580,1557,1564,-1.0,30.0,20.0,-13.916014671325684,25.573728561401367,4.08935546875,-1.4652099609375,0.387451171875,-0.0926513671875
7.333,464,2534,1518,1518,-1.0,30.0,20.0,-13.916014671325684,25.573728561401367,4.08935546875,-1.2647705078125,0.399658203125,-0.00439453125
7.347,439,2421,1318,1294,-3.0,31.0,19.0,-13.671874046325684,40.466304779052734,9.1552734375,-1.1141357421875,0.4359130859375,0.0523681640625
7.355,442,2360,1287,1363,-3.0,31.0,19.0,-4.08935546875,40.161128997802734,10.253905296325684,-0.990234375,0.3680419921875,0.01123046875
7.364,434,2233,1204,1315,-3.0,31.0,19.0,-4.08935546875,40.161128997802734,10.253905296325684,-0.8724365234375,0.23291015625,-0.102783203125
7.400,391,1989,1022,1063,-3.0,31.0,19.0,34.24072265625,31.738279342651367,-3.295898199081421,-0.7008056640625,0.122314453125,-0.1942138671875
7.400,389,1929,1228,1010,-3.0,31.0,19.0,44.250484466552734,25.512693405151367,-12.390135765075684,-0.4437255859375,0.00927734375,-0.247802734375
7.400,393,1624,980,1025,-3.0,31.0,19.0,44.250484466552734,25.512693405151367,-12.390135765075684,-0.23681640625,-0.1290283203125,-0.3099365234375
7.407,390,1321,894,840,-3.0,31.0,19.0,36.865234375,24.841306686401367,-20.507810592651367,-0.1944580078125,-0.1851806640625,-0.3902587890625
7.415,387,1132,827,788,-3.0,31.0,19.0,30.090330123901367,28.015134811401367,-20.01953125,-0.2763671875,-0.071533203125,-0.4278564453125
7.424,362,917,792,714,-3.0,31.0,19.0,30.090330123901367,28.015134811401367,-20.01953125,-0.388916015625,0.2005615234375,-0.35791015625
7.437,346,691,737,607,-3.0,31.0,19.0,-7.873534679412842,19.775390625,-17.9443359375,-0.4603271484375,0.4619140625,-0.2042236328125
7.445,344,674,735,630,-3.0,33.0,18.0,-37.109375,13.671874046325684,-13.366698265075684,-0.4967041015625,0.534423828125,-0.0369873046875
7.453,338,658,724,619,-3.0,33.0,18.0,-37.109375,13.671874046325684,-13.366698265075684,-0.560546875,0.4259033203125,0.0604248046875
7.467,336,646,698,582,-3.0,33.0,18.0,-60.363765716552734,14.953612327575684,-5.615233898162842,-0.6500244140625,0.2955322265625,0.0657958984375
7.487,334,675,710,618,-3.0,33.0,18.0,-48.767086029052734,17.822265625,-3.906249761581421,-0.7149658203125,0.225830078125,0.0516357421875
7.496,338,695,708,627,-3.0,33.0,18.0,-48.767086029052734,17.822265625,-3.906249761581421,-0.7437744140625,0.1859130859375,0.059814453125
7.503,342,788,695,591,-3.0,33.0,18.0,-27.282712936401367,15.014647483825684,-0.7324218153953552,-0.75537109375,0.1654052734375,0.0557861328125
7.505,352,944,669,671,-3.0,33.0,18.0,-20.263669967651367,11.596678733825684,2.685546636581421,-0.7596435546875,0.1846923828125,0.021240234375
7.513,345,942,721,698,-3.0,33.0,18.0,-20.263669967651367,11.596678733825684,2.685546636581421,-0.7554931640625,0.2249755859375,-0.024658203125
7.527,348,1129,698,710,-3.0,33.0,18.0,1.7700194120407104,4.7607421875,13.854979515075684,-0.73828125,0.2493896484375,-0.0784912109375
7.538,361,1233,749,808,-3.0,33.0,18.0,14.465331077575684,2.3193359375,17.02880859375,-0.7183837890625,0.2564697265625,-0.1474609375
7.543,364,1358,787,856,-2.0,31.0,20.0,14.465331077575684,2.3193359375,17.02880859375,-0.7183837890625,0.2564697265625,-0.1474609375
7.557,375,1536,808,865,-2.0,31.0,20.0,23.620603561401367,-1.6479490995407104,18.73779296875,-0.7447509765625,0.3038330078125,-0.26123046875
7.565,383,1650,887,987,-2.0,31.0,20.0,23.620603561401367,-1.6479490995407104,18.73779296875,-0.707763671875,0.329345703125,-0.2686767578125
7.573,411,1891,844,1022,-2.0,31.0,20.0,17.76123046875,-4.638671875,20.385740280151367,-0.707763671875,0.329345703125,-0.2686767578125
7.600,430,2122,913,1076,-2.0,31.0,20.0,2.3193359375,-12.573241233825684,18.24951171875,-0.2086181640625,0.166015625,0.042724609375
7.600,441,2207,1026,1255,-2.0,31.0,20.0,2.3193359375,-12.573241233825684,18.24951171875,0.268310546875,-0.0792236328125,0.298583984375
7.603,473,2379,1274,1357,-2.0,31.0,20.0,6.225585460662842,-23.010251998901367,12.023924827575684,0.268310546875,-0.0792236328125,0.298583984375
7.619,508,2477,1398,1336,-2.0,31.0,20.0,18.5546875,-64.697265625,-6.530761241912842,0.62158203125,-0.567626953125,0.5948486328125
7.625,498,2516,1577,1548,-2.0,31.0,20.0,18.5546875,-64.697265625,-6.530761241912842,0.1182861328125,-0.0936279296875,0.3104248046875
7.633,519,2626,1634,1580,-2.0,31.0,20.0,31.066892623901367,-74.03564453125,0.9155272841453552,0.1182861328125,-0.0936279296875,0.3104248046875
7.647,497,2721,1595,1488,-6.0,31.0,22.0,56.518550872802734,-24.414060592651367,25.451658248901367,-1.438232421875,1.753173828125,-1.714111328125
7.655,509,2830,1759,1647,-6.0,31.0,22.0,56.518550872802734,-24.414060592651367,25.451658248901367,-1.722900390625,1.5625,-1.4173583984375
7.663,481,2993,1865,1590,-6.0,31.0,22.0,1.3427733182907104,-12.084959983825684,13.122557640075684,-1.722900390625,1.5625,-1.4173583984375
7.706,526,2932,1687,1561,-6.0,31.0,22.0,-125.18309783935547,-33.99658203125,-23.803709030151367,-2.6829833984375,0.270263671875,0.2315673828125
7.706,466,3147,1656,1648,-6.0,31.0,22.0,-125.18309783935547,-33.99658203125,-23.803709030151367,-3.3641357421875,0.3304443359375,0.20654296875
7.706,481,3147,1609,1540,-6.0,31.0,22.0,-117.24852752685547,-37.17041015625,-18.06640625,-3.3641357421875,0.3304443359375,0.20654296875
7.707,512,2823,1732,1367,-6.0,31.0,22.0,-18.37158203125,-30.090330123901367,-8.23974609375,-1.694091796875,0.1046142578125,-0.1317138671875
7.715,485,2943,1826,1602,-6.0,31.0,22.0,-18.37158203125,-30.090330123901367,-8.23974609375,-1.02978515625,0.2877197265625,-0.0150146484375
7.728,514,2808,1713,1673,-6.0,31.0,22.0,38.2080078125,-31.433103561401367,-25.573728561401367,-1.02978515625,0.2877197265625,-0.0150146484375
7.737,499,2792,1607,1494,-3.0,30.0,16.0,59.936519622802734,-20.01953125,-25.451658248901367,-1.6173095703125,0.622802734375,-0.1165771484375
7.752,508,2758,1662,1640,-3.0,30.0,16.0,59.936519622802734,-20.01953125,-25.451658248901367,-1.8096923828125,0.7271728515625,-0.1748046875
7.753,537,2750,1615,1185,-3.0,30.0,16.0,36.80419921875,-9.94873046875,-11.230467796325684,-1.8096923828125,0.7271728515625,-0.1748046875
7.767,481,2648,1474,1422,-3.0,30.0,16.0,7.019042491912842,-0.9765624403953552,-2.624511480331421,-1.45263671875,0.4052734375,-0.1083984375
7.775,490,2567,1531,1557,-3.0,30.0,16.0,-13.305663108825684,8.6669921875,-2.929687261581421,-1.45263671875,0.4052734375,-0.1083984375
7.808,481,2538,1813,872,-3.0,30.0,16.0,-18.06640625,18.24951171875,-4.08935546875,-1.2369384765625,0.2923583984375,-0.0399169921875
7.809,455,2435,1348,1401,-3.0,30.0,16.0,-11.230467796325684,29.052732467651367,6.652831554412842,-0.986083984375,0.353759765625,0.051025390625
7.809,454,2391,1289,1357,-3.0,30.0,16.0,-11.230467796325684,29.052732467651367,6.652831554412842,-0.876708984375,0.2635498046875,0.0272216796875
7.815,430,2296,1189,1302,-3.0,30.0,16.0,-4.150390625,32.40966796875,11.535643577575684,-0.876708984375,0.2635498046875,0.0272216796875
7.828,401,2162,1018,1064,-3.0,30.0,16.0,19.287109375,35.09521484375,9.09423828125,-0.707763671875,0.080810546875,-0.0787353515625
7.841,406,1912,1045,1125,-2.0,31.0,19.0,19.287109375,35.09521484375,9.09423828125,-0.580322265625,-0.0159912109375,-0.1397705078125
7.844,400,1792,994,1058,-2.0,31.0,19.0,24.658201217651367,32.958984375,4.0283203125,-0.580322265625,-0.0159912109375,-0.1397705078125
7.858,378,1487,858,860,-2.0,31.0,19.0,24.047849655151367,33.203125,-5.493163585662842,-0.3399658203125,-0.000732421875,-0.244384765625
7.866,371,1346,846,869,-2.0,31.0,19.0,24.047849655151367,33.203125,-5.493163585662842,-0.3651123046875,0.0380859375,-0.279541015625
7.874,364,1184,818,813,-2.0,31.0,19.0,22.888181686401367,35.82763671875,-9.82666015625,-0.3651123046875,0.0380859375,-0.279541015625
7.907,348,931,739,667,-2.0,31.0,19.0,15.930174827575684,36.07177734375,-15.075682640075684,-0.5101318359375,0.2723388671875,-0.224853515625
7.907,346,938,780,687,-2.0,31.0,19.0,2.563476324081421,33.75244140625,-17.27294921875,-0.5101318359375,0.2723388671875,-0.224853515625
7.908,331,864,707,667,-2.0,31.0,19.0,-14.038084983825684,29.663084030151367,-13.183592796325684,-0.53271484375,0.41064453125,-0.1365966796875
7.918,331,829,714,639,-2.0,31.0,19.0,-31.433103561401367,25.451658248901367,-4.21142578125,-0.5919189453125,0.353759765625,0.046630859375
7.927,328,891,692,683,-2.0,31.0,19.0,-41.992183685302734,22.460935592651367,2.44140625,-0.5919189453125,0.353759765625,0.046630859375
7.934,331,874,725,698,-1.0,31.0,24.0,-40.0390625,20.507810592651367,3.540038824081421,-0.662353515625,0.2681884765625,0.0589599609375
7.956,334,963,698,683,-1.0,31.0,24.0,-30.029294967651367,19.04296875,2.50244140625,-0.7799072265625,0.2896728515625,-0.007080078125
7.956,323,1063,682,710,-1.0,31.0,24.0,-19.59228515625,16.357421875,1.9531248807907104,-0.7799072265625,0.2896728515625,-0.007080078125
7.964,338,1079,725,765,-1.0,31.0,24.0,-11.596678733825684,12.084959983825684,2.25830078125,-0.7978515625,0.317626953125,-0.029296875
7.978,354,1213,720,754,-1.0,31.0,24.0,-3.662109136581421,7.995604991912842,3.479003667831421,-0.7596435546875,0.280517578125,-0.1068115234375
7.987,357,1320,785,844,-1.0,31.0,24.0,5.737304210662842,5.554198741912842,5.187987804412842,-0.7596435546875,0.280517578125,-0.1068115234375
8.010,344,1610,684,827,-1.0,31.0,24.0,13.977049827575684,4.2724609375,6.774901866912842,-0.71240234375,0.22021484375,-0.1517333984375
8.010,371,1590,869,958,-1.0,31.0,24.0,17.7001953125,2.746581792831421,8.544921875,-0.678955078125,0.1827392578125,-0.2098388671875
8.015,387,1681,905,1011,-1.0,31.0,24.0,15.441893577575684,-0.6103515625,11.535643577575684,-0.662841796875,0.203369140625,-0.2724609375
8.023,411,1848,944,1056,-1.0,31.0,24.0,7.568358898162842,-6.591796398162842,14.953612327575684,-0.609619140625,0.2418212890625,-0.2802734375
8.037,460,2130,986,1051,-2.0,31.0,16.0,-1.2817381620407104,-13.488768577575684,16.66259765625,-0.48291015625,0.263916015625,-0.1875
8.045,495,2238,1166,1248,-2.0,31.0,16.0,-6.042479991912842,-21.240232467651367,14.587401390075684,-0.1834716796875,0.2076416015625,0.017333984375
8.054,497,2317,1318,1370,-2.0,31.0,16.0,-7.385253429412842,-30.944822311401367,5.493163585662842,0.296875,-0.18310546875,0.2950439453125
8.082,518,2442,1422,1348,-2.0,31.0,16.0,-2.38037109375,-40.710445404052734,-4.5166015625,0.6060791015625,-0.619873046875,0.516357421875
8.082,536,2587,1569,1503,-2.0,31.0,16.0,16.4794921875,-50.720211029052734,-0.1220703050494194,0.443359375,-0.4508056640625,0.4747314453125
8.084,527,2821,1503,1412,-2.0,31.0,16.0,43.762203216552734,-61.523433685302734,15.014647483825684,-0.0909423828125,0.2373046875,0.13720703125
8.116,526,2869,1624,1393,-2.0,31.0,16.0,59.753414154052734,-58.471675872802734,26.062009811401367,-0.8551025390625,1.20361328125,-0.6021728515625
8.116,487,3140,1600,1494,-2.0,31.0,16.0,44.494625091552734,-32.5927734375,27.221677780151367,-1.518798828125,1.8177490234375,-1.3460693359375
8.116,582,3147,2035,1704,-2.0,31.0,16.0,-13.671874046325684,-12.207030296325684,13.000487327575684,-1.88623046875,1.34814453125,-1.139892578125
8.127,537,3017,1746,1529,-1.0,30.0,22.0,-85.38817596435547,-9.8876953125,-2.563476324081421,-2.28857421875,0.41943359375,-0.2689208984375
8.145,521,2996,1831,1700,-1.0,30.0,22.0,-120.17821502685547,-14.099120140075684,-5.737304210662842,-2.7730712890625,-0.096435546875,0.286376953125
8.149,516,2925,1772,1462,-1.0,30.0,22.0,-96.31346893310547,-18.49365234375,0.30517578125,-3.05859375,0.0712890625,0.2059326171875
8.166,519,2916,1637,1535,-1.0,30.0,22.0,-36.0107421875,-17.39501953125,10.559081077575684,-2.471923828125,0.34765625,-0.07666015625
8.166,523,3147,2080,1753,-1.0,30.0,22.0,24.230955123901367,-16.17431640625,6.530761241912842,-1.420166015625,0.4530029296875,-0.1624755859375
8.182,521,2911,1727,1686,-1.0,30.0,22.0,58.288570404052734,-15.930174827575684,-8.544921875,-1.1070556640625,0.6572265625,-0.1717529296875
8.187,512,3090,1833,1715,-1.0,30.0,22.0,54.016109466552734,-8.72802734375,-16.54052734375,-1.4315185546875,0.7288818359375,-0.22802734375
8.216,518,2831,1655,1664,-1.0,30.0,22.0,29.357908248901367,2.3193359375,-14.892577171325684,-1.784912109375,0.72021484375,-0.26025390625
8.217,536,3130,1541,1595,-1.0,30.0,22.0,4.150390625,8.30078125,-8.23974609375,-1.8494873046875,0.6947021484375,-0.2022705078125
8.218,473,2978,1533,1540,-1.0,30.0,22.0,-12.268065452575684,11.230467796325684,-6.103515148162842,-1.66162109375,0.563232421875,-0.1475830078125
8.226,508,2877,1419,1497,0.0,29.0,18.0,-15.563963890075684,14.953612327575684,-9.8876953125,-1.4053955078125,0.4139404296875,-0.1051025390625
8.234,493,2610,1494,1497,0.0,29.0,18.0,-9.46044921875,18.49365234375,-13.305663108825684,-1.19970703125,0.356201171875,-0.02734375
8.248,487,2473,1278,1289,0.0,29.0,18.0,0.0610351525247097,20.935056686401367,-11.596678733825684,-1.0599365234375,0.3759765625,0.04150390625
8.256,458,2375,1276,1384,0.0,29.0,18.0,9.33837890625,24.414060592651367,-6.164550304412842,-0.9447021484375,0.359619140625,0.020751953125
8.264,470,2306,1163,1290,0.0,29.0,18.0,17.02880859375,30.700681686401367,-1.6479490995407104,-0.8370361328125,0.24462890625,-0.0396728515625
8.299,423,2041,986,1065,0.0,29.0,18.0,23.010251998901367,36.62109375,0.1220703050494194,-0.7222900390625,0.0936279296875,-0.081298828125
8.321,388,2178,1096,1070,0.0,29.0,18.0,24.719236373901367,38.63525390625,-0.7324218153953552,-0.5452880859375,-0.0657958984375,-0.1092529296875
8.322,411,1718,932,1012,0.0,29.0,18.0,24.658201217651367,37.2314453125,-3.662109136581421,-0.3533935546875,-0.149658203125,-0.1337890625
8.322,385,1629,750,867,0.0,29.0,18.0,27.343748092651367,34.97314453125,-6.591796398162842,-0.2442626953125,-0.135009765625,-0.191162109375
8.323,371,1336,939,678,0.0,29.0,18.0,29.846189498901367,34.72900390625,-11.230467796325684,-0.238525390625,-0.088623046875,-0.2744140625
8.324,359,1143,749,750,-2.0,33.0,22.0,25.390623092651367,36.2548828125,-16.9677734375,-0.33154296875,0.065673828125,-0.3167724609375
8.338,330,906,733,689,-2.0,33.0,22.0,11.901854515075684,34.85107421875,-17.51708984375,-0.4554443359375,0.314697265625,-0.275146484375
8.346,332,872,742,702,-2.0,33.0,22.0,-7.141112804412842,28.442380905151367,-11.291502952575684,-0.5306396484375,0.4974365234375,-0.170166015625
8.354,332,869,735,706,-2.0,33.0,22.0,-26.489255905151367,20.812986373901367,-2.13623046875,-0.5806884765625,0.5128173828125,-0.0533447265625
8.368,333,887,697,661,-2.0,33.0,22.0,-37.2314453125,15.747069358825684,3.784179449081421,-0.6485595703125,0.4200439453125,0.0050048828125
8.376,332,906,723,711,-2.0,33.0,22.0,-33.99658203125,13.610838890075684,4.0283203125,-0.7066650390625,0.3450927734375,-0.0042724609375
8.391,332,952,725,731,-2.0,33.0,22.0,-22.521970748901367,12.390135765075684,0.7324218153953552,-0.7208251953125,0.3135986328125,-0.0224609375
8.420,342,1063,735,761,-2.0,33.0,22.0,-12.207030296325684,9.8876953125,-4.0283203125,-0.7177734375,0.2852783203125,-0.025146484375
8.420,331,1331,777,806,-2.0,33.0,22.0,-5.065917491912842,6.835937023162842,-7.690429210662842,-0.7265625,0.2626953125,-0.036865234375
8.420,349,1236,750,784,-2.0,33.0,22.0,2.38037109375,3.967284917831421,-7.324218273162842,-0.7366943359375,0.2451171875,-0.067626953125
8.428,360,1393,813,894,-1.0,30.0,16.0,10.803221702575684,1.3427733182907104,-3.173827886581421,-0.7247314453125,0.209716796875,-0.1143798828125
8.436,364,1504,829,954,-1.0,30.0,16.0,17.7001953125,-1.0986328125,2.685546636581421,-0.689453125,0.1627197265625,-0.172607421875
8.444,382,1624,846,996,-1.0,30.0,16.0,19.8974609375,-3.662109136581421,9.1552734375,-0.6669921875,0.1494140625,-0.2362060546875
8.458,401,1874,794,971,-1.0,30.0,16.0,15.747069358825684,-7.324218273162842,15.624999046325684,-0.65869140625,0.200927734375,-0.2708740234375
8.466,406,2048,867,1115,-1.0,30.0,16.0,8.48388671875,-12.634276390075684,20.385740280151367,-0.5985107421875,0.2442626953125,-0.1943359375
8.474,419,2172,920,1189,-1.0,30.0,16.0,7.019042491912842,-18.98193359375,21.911619186401367,-0.4052734375,0.2239990234375,0.027099609375
8.488,482,2430,980,1167,-1.0,30.0,16.0,15.319823265075684,-26.367185592651367,20.629880905151367,-0.0762939453125,0.095458984375,0.3121337890625
8.528,512,2492,1217,1370,-1.0,30.0,16.0,25.695798873901367,-35.94970703125,15.686034202575684,0.2471923828125,-0.1859130859375,0.5738525390625
8.529,532,2699,1395,1048,-1.0,30.0,16.0,34.11865234375,-47.790523529052734,7.568358898162842,0.356201171875,-0.38623046875,0.7138671875
8.529,497,2704,1533,1582,-5.0,30.0,19.0,43.884273529052734,-56.762691497802734,3.112792730331421,0.0972900390625,-0.2266845703125,0.5662841796875
8.529,497,2946,1428,1582,-5.0,30.0,19.0,63.293453216552734,-46.264644622802734,8.4228515625,-0.5135498046875,0.4002685546875,-0.340576171875
8.534,506,2859,1590,1615,-5.0,30.0,19.0,78.18603515625,-12.512206077575684,19.59228515625,-1.1800537109375,1.22998046875,-1.6739501953125
8.548,495,2973,1564,1499,-5.0,30.0,19.0,41.992183685302734,7.080077648162842,22.399900436401367,-1.5096435546875,1.3310546875,-1.9334716796875
8.556,521,2985,1701,1653,-5.0,30.0,19.0,-41.137691497802734,-8.1787109375,12.207030296325684,-1.6767578125,0.704345703125,-0.994384765625
8.564,538,2993,1705,1673,-5.0,30.0,19.0,-102.05077362060547,-30.273435592651367,4.39453125,-2.0408935546875,0.30712890625,-0.0556640625
8.578,524,3048,1624,1574,-5.0,30.0,19.0,-107.42186737060547,-42.114253997802734,3.112792730331421,-2.4681396484375,0.2984619140625,0.2938232421875
8.586,522,2990,1709,1697,-5.0,30.0,19.0,-76.416015625,-42.053218841552734,0.8544921278953552,-2.7198486328125,0.4715576171875,0.126220703125
8.594,531,2925,1662,1697,-5.0,30.0,19.0,-76.416015625,-42.053218841552734,0.8544921278953552,-2.356689453125,0.55224609375,-0.095703125
8.635,532,3062,1541,1662,0.0,29.0,27.0,22.705076217651367,-16.78466796875,-19.22607421875,-1.1312255859375,0.5660400390625,-0.1859130859375
