time,compression0,compression1,compression2,compression3,magn_x,magn_y,magn_z,gyro_x,gyro_y,gyro_z,accel_x,accel_y,accel_z
0.004,282,1914,661,548,16.0,30.0,13.0,0.30517578125,0.1831054538488388,0.4272460639476776,-0.896728515625,0.3812255859375,0.186767578125
0.012,286,1920,678,591,16.0,30.0,13.0,0.30517578125,0.2441406100988388,0.3662109076976776,-0.8966064453125,0.3818359375,0.1875
0.019,287,1959,636,600,16.0,30.0,13.0,0.30517578125,0.2441406100988388,0.3662109076976776,-0.8961181640625,0.3807373046875,0.186767578125
0.043,289,1914,639,546,15.0,32.0,12.0,0.2441406100988388,0.4272460639476776,0.2441406100988388,-0.8963623046875,0.3797607421875,0.1856689453125
0.044,281,1906,678,601,15.0,32.0,12.0,0.2441406100988388,0.4272460639476776,0.2441406100988388,-0.89697265625,0.3802490234375,0.184814453125
0.049,286,1914,679,591,15.0,32.0,12.0,0.1220703050494194,0.54931640625,0.2441406100988388,-0.89697265625,0.3802490234375,0.184814453125
0.064,289,1914,639,541,15.0,32.0,12.0,0.1831054538488388,0.54931640625,0.1831054538488388,-0.8966064453125,0.3802490234375,0.18359375
0.071,282,1914,678,593,15.0,32.0,12.0,0.1831054538488388,0.54931640625,0.1831054538488388,-0.8955078125,0.380615234375,0.1854248046875
0.088,283,1915,682,591,15.0,32.0,12.0,0.2441406100988388,0.4882812201976776,0.1831054538488388,-0.8955078125,0.380615234375,0.1854248046875
0.093,281,1920,644,543,15.0,32.0,12.0,0.3662109076976776,0.4272460639476776,0.0,-0.895263671875,0.381591796875,0.1837158203125
0.101,282,1918,679,593,15.0,32.0,12.0,0.3662109076976776,0.4272460639476776,0.0,-0.896240234375,0.381103515625,0.1812744140625
0.110,282,1920,675,594,15.0,32.0,12.0,0.1831054538488388,0.4882812201976776,-0.1220703050494194,-0.896240234375,0.381103515625,0.1812744140625
0.123,287,1920,640,541,15.0,32.0,12.0,-0.1831054538488388,0.30517578125,-0.0610351525247097,-0.8966064453125,0.3778076171875,0.1759033203125
0.147,282,1920,683,590,12.0,31.0,14.0,-0.1831054538488388,0.30517578125,-0.0610351525247097,-0.898193359375,0.3765869140625,0.17724609375
0.147,283,1934,683,601,12.0,31.0,14.0,-0.30517578125,0.0610351525247097,0.0610351525247097,-0.898193359375,0.3765869140625,0.17724609375
0.153,286,1918,687,594,12.0,31.0,14.0,-0.3662109076976776,-0.4882812201976776,0.2441406100988388,-0.8997802734375,0.37841796875,0.182861328125
0.161,286,1918,688,593,12.0,31.0,14.0,-0.3662109076976776,-0.4882812201976776,0.2441406100988388,-0.898193359375,0.38037109375,0.18408203125
0.169,286,1920,682,594,12.0,31.0,14.0,-0.3662109076976776,-0.6103515625,0.1831054538488388,-0.898193359375,0.38037109375,0.18408203125
0.188,286,1920,648,541,12.0,31.0,14.0,-0.30517578125,-0.54931640625,0.2441406100988388,-0.89697265625,0.3798828125,0.1856689453125
0.198,286,1918,683,594,12.0,31.0,14.0,-0.30517578125,-0.54931640625,0.2441406100988388,-0.8970947265625,0.37841796875,0.1866455078125
0.199,289,1920,689,591,12.0,31.0,14.0,-0.2441406100988388,-0.54931640625,0.3662109076976776,-0.8970947265625,0.37841796875,0.1866455078125
0.214,282,1918,648,569,12.0,31.0,14.0,0.1831054538488388,-0.4882812201976776,0.4272460639476776,-0.897216796875,0.380126953125,0.189208984375
0.221,286,1918,687,593,12.0,31.0,14.0,0.1831054538488388,-0.4882812201976776,0.4272460639476776,-0.896728515625,0.3817138671875,0.1881103515625
0.229,286,1920,687,593,10.0,32.0,12.0,0.30517578125,-0.30517578125,0.30517578125,-0.896728515625,0.3817138671875,0.1881103515625
0.249,287,1920,644,543,10.0,32.0,12.0,0.2441406100988388,-0.1220703050494194,0.1220703050494194,-0.89453125,0.3828125,0.184326171875
0.251,286,1921,684,593,10.0,32.0,12.0,0.2441406100988388,0.0610351525247097,0.0,-0.89453125,0.3828125,0.184326171875
0.259,289,1920,689,593,10.0,32.0,12.0,0.3662109076976776,0.0610351525247097,-0.1220703050494194,-0.894775390625,0.3831787109375,0.1844482421875
0.273,286,1922,648,543,10.0,32.0,12.0,0.54931640625,0.0610351525247097,-0.3662109076976776,-0.8980712890625,0.381103515625,0.180419921875
0.281,286,1922,689,593,10.0,32.0,12.0,0.54931640625,0.0,-0.6103515625,-0.8980712890625,0.381103515625,0.180419921875
0.294,287,1922,689,594,10.0,32.0,12.0,0.1220703050494194,-0.0610351525247097,-0.6713866591453552,-0.8988037109375,0.379150390625,0.1790771484375
0.303,282,1920,656,547,10.0,32.0,12.0,-0.30517578125,-0.1220703050494194,-0.6103515625,-0.8990478515625,0.3787841796875,0.181396484375
0.312,286,1922,691,594,10.0,32.0,12.0,-0.54931640625,-0.2441406100988388,-0.4882812201976776,-0.8990478515625,0.3787841796875,0.181396484375
0.319,286,1920,682,596,10.0,32.0,12.0,-0.54931640625,-0.4272460639476776,-0.3662109076976776,-0.89892578125,0.377685546875,0.1817626953125
0.333,282,1920,648,546,11.0,31.0,15.0,-0.4882812201976776,-0.6713866591453552,-0.1831054538488388,-0.8992919921875,0.3787841796875,0.1842041015625
0.351,286,1914,683,594,11.0,31.0,15.0,-0.4272460639476776,-0.8544921278953552,-0.1220703050494194,-0.8992919921875,0.3787841796875,0.1842041015625
0.351,286,1905,689,604,11.0,31.0,15.0,-0.4272460639476776,-0.7934569716453552,-0.1220703050494194,-0.8983154296875,0.380126953125,0.1866455078125
0.363,282,1904,648,551,11.0,31.0,15.0,-0.4272460639476776,-0.6103515625,-0.2441406100988388,-0.894775390625,0.3809814453125,0.19189453125
0.372,282,1912,683,594,11.0,31.0,15.0,-0.3662109076976776,-0.3662109076976776,-0.4272460639476776,-0.894775390625,0.3809814453125,0.19189453125
0.380,286,1931,684,594,11.0,31.0,15.0,-0.30517578125,-0.1220703050494194,-0.6103515625,-0.89404296875,0.3792724609375,0.1920166015625
0.393,282,1914,649,541,11.0,31.0,15.0,-0.0610351525247097,0.0610351525247097,-0.7324218153953552,-0.89599609375,0.3779296875,0.18896484375
0.402,280,1920,689,588,11.0,31.0,15.0,0.1831054538488388,0.1831054538488388,-0.7934569716453552,-0.89599609375,0.3779296875,0.18896484375
0.410,286,1922,683,589,11.0,31.0,15.0,0.4272460639476776,0.30517578125,-0.9155272841453552,-0.89599609375,0.379638671875,0.1876220703125
0.423,286,1915,653,548,13.0,32.0,15.0,0.7934569716453552,0.30517578125,-1.03759765625,-0.9000244140625,0.38623046875,0.1884765625
0.432,282,1918,684,590,13.0,32.0,15.0,1.220703125,0.3662109076976776,-1.220703125,-0.9000244140625,0.38623046875,0.1884765625
0.454,282,1914,682,591,13.0,32.0,15.0,1.4038084745407104,0.4882812201976776,-1.5258787870407104,-0.90283203125,0.387451171875,0.1875
0.454,289,1900,633,548,13.0,32.0,15.0,1.3427733182907104,0.7324218153953552,-1.8310545682907104,-0.9027099609375,0.3828125,0.1878662109375
0.461,282,1904,675,593,13.0,32.0,15.0,1.4038084745407104,0.9155272841453552,-2.197265625,-0.9027099609375,0.3828125,0.1878662109375
0.469,282,1904,666,593,13.0,32.0,15.0,1.7089842557907104,1.0986328125,-2.563476324081421,-0.899658203125,0.3779296875,0.1883544921875
0.483,289,1900,630,545,13.0,32.0,15.0,2.13623046875,1.4038084745407104,-2.868652105331421,-0.8973388671875,0.3741455078125,0.189208984375
0.491,286,1904,666,590,13.0,32.0,15.0,2.50244140625,1.5869139432907104,-3.112792730331421,-0.89599609375,0.37158203125,0.1888427734375
0.499,286,1908,673,582,13.0,32.0,15.0,2.807616949081421,1.6479490995407104,-3.295898199081421,-0.8955078125,0.3701171875,0.18505859375
0.514,289,1907,631,536,13.0,32.0,15.0,2.990722417831421,1.5869139432907104,-3.234863042831421,-0.8958740234375,0.36865234375,0.18212890625
0.521,286,1927,673,577,14.0,33.0,10.0,3.295898199081421,1.4038084745407104,-3.051757574081421,-0.89599609375,0.367431640625,0.18310546875
0.536,286,1912,673,578,14.0,33.0,10.0,3.479003667831421,1.15966796875,-2.868652105331421,-0.89697265625,0.3707275390625,0.1812744140625
0.560,282,1914,630,533,14.0,33.0,10.0,3.356933355331421,0.9155272841453552,-2.563476324081421,-0.8985595703125,0.37255859375,0.1768798828125
0.560,289,1922,660,590,14.0,33.0,10.0,2.990722417831421,0.6103515625,-2.3193359375,-0.9007568359375,0.3692626953125,0.1732177734375
0.560,287,1918,666,531,14.0,33.0,10.0,2.50244140625,0.1831054538488388,-1.8310545682907104,-0.904052734375,0.3702392578125,0.1680908203125
0.573,287,1918,625,532,14.0,33.0,10.0,2.0751953125,-0.2441406100988388,-1.3427733182907104,-0.9049072265625,0.375,0.169189453125
0.581,282,1920,667,570,14.0,33.0,10.0,1.4038084745407104,-0.6713866591453552,-1.03759765625,-0.9024658203125,0.37890625,0.1781005859375
0.589,289,1941,680,553,14.0,33.0,10.0,0.4882812201976776,-0.6713866591453552,-0.9155272841453552,-0.9024658203125,0.3912353515625,0.1827392578125
0.603,289,1929,636,519,14.0,33.0,10.0,-0.3662109076976776,-0.54931640625,-1.3427733182907104,-0.9053955078125,0.4034423828125,0.1812744140625
0.615,286,1925,667,562,14.0,33.0,10.0,-1.220703125,-0.4272460639476776,-2.3193359375,-0.9058837890625,0.3997802734375,0.1749267578125
0.620,286,1935,660,562,14.0,30.0,10.0,-1.9531248807907104,-0.4272460639476776,-3.479003667831421,-0.9049072265625,0.3897705078125,0.1661376953125
0.633,289,1914,667,561,14.0,30.0,10.0,-2.38037109375,-0.6713866591453552,-4.150390625,-0.9049072265625,0.383056640625,0.1630859375
0.658,286,1914,656,561,14.0,30.0,10.0,-3.051757574081421,-0.9765624403953552,-4.33349609375,-0.90185546875,0.3756103515625,0.171875
0.658,287,1920,653,559,14.0,30.0,10.0,-4.2724609375,-0.7934569716453552,-4.08935546875,-0.894287109375,0.3648681640625,0.1907958984375
0.663,289,1922,631,518,14.0,30.0,10.0,-6.042479991912842,0.0610351525247097,-3.784179449081421,-0.8880615234375,0.3568115234375,0.20654296875
0.672,286,1929,656,559,14.0,30.0,10.0,-7.873534679412842,1.4038084745407104,-3.662109136581421,-0.886962890625,0.357666015625,0.20703125
0.681,286,1931,658,561,14.0,30.0,10.0,-9.09423828125,2.563476324081421,-3.845214605331421,-0.890869140625,0.3648681640625,0.1942138671875
0.693,286,1943,625,516,14.0,30.0,10.0,-8.97216796875,2.868652105331421,-4.39453125,-0.8990478515625,0.372314453125,0.1785888671875
0.701,286,1936,660,572,14.0,30.0,10.0,-8.056640625,2.44140625,-5.0048828125,-0.907470703125,0.3798828125,0.1639404296875
0.710,286,1929,654,578,14.0,30.0,10.0,-6.835937023162842,1.5258787870407104,-5.554198741912842,-0.912353515625,0.3807373046875,0.1563720703125
0.723,287,1941,631,525,12.0,34.0,11.0,-5.737304210662842,0.3662109076976776,-6.164550304412842,-0.916015625,0.370849609375,0.158203125
0.731,286,1927,660,579,12.0,34.0,11.0,-5.0048828125,-0.9155272841453552,-6.591796398162842,-0.9183349609375,0.35888671875,0.16357421875
0.740,286,1931,671,572,12.0,34.0,11.0,-4.7607421875,-1.9531248807907104,-6.469726085662842,-0.9176025390625,0.3480224609375,0.17138671875
0.765,287,1920,631,527,12.0,34.0,11.0,-5.187987804412842,-2.563476324081421,-5.920409679412842,-0.913330078125,0.3409423828125,0.18017578125
0.765,286,1905,667,586,12.0,34.0,11.0,-6.164550304412842,-2.685546636581421,-5.187987804412842,-0.9068603515625,0.3402099609375,0.1884765625
0.769,289,1914,673,578,12.0,34.0,11.0,-6.774901866912842,-2.563476324081421,-4.5166015625,-0.90185546875,0.3416748046875,0.196533203125
0.783,287,1908,630,533,12.0,34.0,11.0,-6.408690929412842,-2.685546636581421,-4.150390625,-0.901123046875,0.3448486328125,0.1978759765625
0.791,289,1912,667,585,12.0,34.0,11.0,-4.94384765625,-3.112792730331421,-3.845214605331421,-0.9039306640625,0.3494873046875,0.192626953125
0.799,289,1908,660,587,12.0,34.0,11.0,-2.807616949081421,-4.08935546875,-3.723144292831421,-0.9049072265625,0.3521728515625,0.1904296875
0.814,289,1888,605,571,12.0,34.0,11.0,-0.6713866591453552,-5.187987804412842,-3.784179449081421,-0.901123046875,0.350830078125,0.1954345703125
0.827,282,1904,625,646,14.0,30.0,8.0,1.0986328125,-5.920409679412842,-4.150390625,-0.8936767578125,0.3519287109375,0.2027587890625
0.832,286,1902,642,639,14.0,30.0,8.0,2.3193359375,-6.103515148162842,-4.5166015625,-0.8892822265625,0.362060546875,0.2052001953125
0.843,282,1869,614,588,14.0,30.0,8.0,2.746581792831421,-5.981444835662842,-4.8828125,-0.88623046875,0.3651123046875,0.2001953125
0.865,286,1891,654,631,14.0,30.0,8.0,2.746581792831421,-5.920409679412842,-5.065917491912842,-0.8792724609375,0.3521728515625,0.1903076171875
0.866,280,1890,644,657,14.0,30.0,8.0,2.624511480331421,-5.920409679412842,-4.94384765625,-0.8721923828125,0.33544921875,0.184326171875
0.874,281,1891,601,619,14.0,30.0,8.0,2.50244140625,-6.164550304412842,-4.82177734375,-0.8681640625,0.324462890625,0.188720703125
0.882,286,1920,654,660,14.0,30.0,8.0,2.25830078125,-6.347655773162842,-4.94384765625,-0.868408203125,0.3248291015625,0.193359375
0.889,289,1967,654,654,14.0,30.0,8.0,1.220703125,-6.591796398162842,-5.310058116912842,-0.872314453125,0.341552734375,0.1826171875
0.909,290,2021,667,561,14.0,30.0,8.0,-1.03759765625,-7.263183116912842,-5.554198741912842,-0.871337890625,0.357421875,0.1639404296875
0.937,291,2066,737,591,14.0,30.0,8.0,-3.906249761581421,-8.60595703125,-5.554198741912842,-0.8602294921875,0.362548828125,0.14892578125
0.963,290,2058,731,628,13.0,33.0,10.0,-6.652831554412842,-10.375975608825684,-5.126952648162842,-0.843505859375,0.367431640625,0.134033203125
0.963,290,2091,697,586,13.0,33.0,10.0,-9.1552734375,-12.695311546325684,-4.45556640625,-0.821044921875,0.37646484375,0.1251220703125
0.963,294,2266,706,673,13.0,33.0,10.0,-12.145995140075684,-15.930174827575684,-4.45556640625,-0.7911376953125,0.37451171875,0.139892578125
0.965,291,2104,749,698,13.0,33.0,10.0,-12.145995140075684,-15.930174827575684,-4.45556640625,-0.7606201171875,0.349365234375,0.1630859375
0.966,292,2233,736,603,13.0,33.0,10.0,-16.11328125,-22.766111373901367,-7.873534679412842,-0.7349853515625,0.33251953125,0.1693115234375
0.971,292,2320,788,673,13.0,33.0,10.0,-15.808104515075684,-23.925779342651367,-9.3994140625,-0.712158203125,0.348388671875,0.1856689453125
0.981,294,2328,794,698,13.0,33.0,10.0,-15.808104515075684,-23.925779342651367,-9.3994140625,-0.68017578125,0.3857421875,0.2132568359375
0.993,296,2461,786,639,13.0,33.0,10.0,-16.54052734375,-25.085447311401367,-15.014647483825684,-0.6312255859375,0.425537109375,0.2154541015625
1.001,298,2461,859,759,13.0,33.0,10.0,-19.6533203125,-24.963376998901367,-22.094724655151367,-0.560546875,0.4541015625,0.216064453125
1.009,306,2364,800,913,13.0,33.0,10.0,-19.6533203125,-24.963376998901367,-22.094724655151367,-0.469970703125,0.4647216796875,0.26025390625
1.024,313,2449,827,816,15.0,28.0,18.0,-31.921384811401367,-26.855466842651367,-41.992183685302734,-0.4105224609375,0.4891357421875,0.3095703125
1.031,308,2557,962,842,15.0,28.0,18.0,-39.0625,-25.329587936401367,-50.659175872802734,-0.416259765625,0.54052734375,0.3140869140625
1.039,318,2560,1083,944,15.0,28.0,18.0,-39.0625,-25.329587936401367,-50.659175872802734,-0.575927734375,0.6568603515625,0.2919921875
1.067,330,2749,1393,814,15.0,28.0,18.0,-43.395992279052734,-17.333984375,-65.3076171875,-0.9613037109375,0.7882080078125,0.3226318359375
1.067,336,2653,1544,1005,15.0,28.0,18.0,-59.997554779052734,-22.399900436401367,-80.93260955810547,-1.3170166015625,0.572509765625,0.4075927734375
1.069,324,2962,1920,832,15.0,28.0,18.0,-59.997554779052734,-22.399900436401367,-80.93260955810547,-1.43505859375,0.0028076171875,0.384521484375
1.084,330,3028,1747,864,15.0,28.0,18.0,-140.07568359375,-13.793944358825684,-94.05516815185547,-1.423583984375,-0.4324951171875,0.2176513671875
1.091,348,3056,1641,1118,15.0,28.0,18.0,-131.65283203125,2.01416015625,-74.40185546875,-1.39111328125,-0.536865234375,0.0858154296875
1.099,351,2957,1803,1125,15.0,28.0,18.0,-131.65283203125,2.01416015625,-74.40185546875,-1.3792724609375,-0.43017578125,0.1383056640625
1.113,348,3015,1669,1091,17.0,27.0,11.0,-11.840819358825684,-5.493163585662842,-35.7666015625,-1.3724365234375,-0.22265625,0.3492431640625
1.121,359,3099,1785,1155,17.0,27.0,11.0,24.780271530151367,-12.939452171325684,-23.071287155151367,-1.3275146484375,0.0252685546875,0.5299072265625
1.130,355,3039,1786,1213,17.0,27.0,11.0,24.780271530151367,-12.939452171325684,-23.071287155151367,-1.22802734375,0.264892578125,0.5491943359375
1.147,357,2981,1713,1241,17.0,27.0,11.0,14.282225608825684,7.019042491912842,-7.263183116912842,-1.068603515625,0.385498046875,0.453125
1.151,361,2981,1686,1216,17.0,27.0,11.0,5.554198741912842,18.5546875,-7.263183116912842,-0.932373046875,0.3470458984375,0.356201171875
1.171,357,2851,1610,1241,17.0,27.0,11.0,5.554198741912842,18.5546875,-7.263183116912842,-0.932373046875,0.3470458984375,0.356201171875
1.173,361,3147,1693,1146,17.0,27.0,11.0,5.554198741912842,28.076169967651367,-15.380858421325684,-0.922119140625,0.244140625,0.3026123046875
1.181,330,2993,1761,994,17.0,27.0,11.0,5.554198741912842,28.076169967651367,-15.380858421325684,-0.943603515625,0.233642578125,0.284912109375
1.192,328,2955,1761,957,17.0,27.0,11.0,-1.4038084745407104,31.799314498901367,-19.34814453125,-0.943603515625,0.233642578125,0.284912109375
1.203,347,2840,1610,1038,17.0,27.0,11.0,-10.803221702575684,38.14697265625,-27.282712936401367,-1.006103515625,0.1727294921875,0.2760009765625
1.212,346,2664,1592,1134,18.0,24.0,9.0,-10.803221702575684,38.14697265625,-27.282712936401367,-1.16015625,0.1844482421875,0.3233642578125
1.219,345,2624,1590,1143,18.0,24.0,9.0,-9.1552734375,36.80419921875,-27.526853561401367,-1.16015625,0.1844482421875,0.3233642578125
1.233,344,2611,1494,907,18.0,24.0,9.0,-17.51708984375,24.230955123901367,-14.282225608825684,-1.4173583984375,0.2000732421875,0.3238525390625
1.241,331,2514,1497,1013,18.0,24.0,9.0,-17.51708984375,24.230955123901367,-14.282225608825684,-1.3822021484375,0.103271484375,0.275146484375
1.254,332,2442,1497,1022,18.0,24.0,9.0,-20.01953125,17.08984375,-6.530761241912842,-1.3822021484375,0.103271484375,0.275146484375
1.274,322,2407,1344,849,18.0,24.0,9.0,-1.5869139432907104,2.3193359375,11.108397483825684,-1.2291259765625,-0.1021728515625,0.212646484375
1.276,321,2492,1572,748,18.0,24.0,9.0,-1.5869139432907104,2.3193359375,11.108397483825684,-1.1708984375,-0.144287109375,0.1876220703125
1.281,315,2340,1287,917,18.0,24.0,9.0,6.225585460662842,-5.065917491912842,23.681638717651367,-1.1708984375,-0.144287109375,0.1876220703125
1.294,308,2192,1134,757,18.0,24.0,9.0,17.88330078125,-15.747069358825684,49.865718841552734,-1.0560302734375,-0.0775146484375,0.1553955078125
1.301,308,2130,1148,797,18.0,24.0,9.0,17.88330078125,-15.747069358825684,49.865718841552734,-0.983154296875,-0.1126708984375,0.1845703125
1.309,304,2078,1101,691,18.0,28.0,12.0,24.169919967651367,-18.06640625,57.067867279052734,-0.983154296875,-0.1126708984375,0.1845703125
1.325,304,1849,868,660,18.0,28.0,12.0,43.701168060302734,-11.291502952575684,61.645503997802734,-0.8433837890625,-0.09033203125,0.167236328125
1.331,299,1757,871,659,18.0,28.0,12.0,43.701168060302734,-11.291502952575684,61.645503997802734,-0.7198486328125,0.010009765625,0.1964111328125
1.339,291,1681,761,673,18.0,28.0,12.0,58.471675872802734,-1.8310545682907104,61.096187591552734,-0.7198486328125,0.010009765625,0.1964111328125
1.375,286,1502,644,538,18.0,28.0,12.0,90.88134002685547,13.000487327575684,48.950191497802734,-0.5709228515625,0.313720703125,0.3251953125
1.376,281,1434,614,540,18.0,28.0,12.0,90.88134002685547,13.000487327575684,48.950191497802734,-0.5185546875,0.4913330078125,0.3416748046875
1.376,286,1305,601,546,18.0,28.0,12.0,97.41210174560547,17.578125,42.358394622802734,-0.5185546875,0.4913330078125,0.3416748046875
1.383,286,1214,625,533,18.0,28.0,12.0,73.42529296875,29.235837936401367,33.14208984375,-0.3890380859375,0.6732177734375,0.3096923828125
1.391,286,1251,625,554,18.0,28.0,12.0,73.42529296875,29.235837936401367,33.14208984375,-0.3890380859375,0.6732177734375,0.3096923828125
1.399,286,1317,625,567,18.0,28.0,12.0,55.175777435302734,32.71484375,28.320310592651367,-0.453369140625,0.74560546875,0.25927734375
1.413,289,1415,600,537,15.0,30.0,8.0,38.02490234375,30.700681686401367,18.00537109375,-0.690673828125,0.6361083984375,0.1396484375
1.421,282,1474,628,588,15.0,30.0,8.0,21.301267623901367,24.597166061401367,0.6713866591453552,-0.690673828125,0.6361083984375,0.1396484375
1.429,286,1561,654,582,15.0,30.0,8.0,7.568358898162842,16.41845703125,-17.27294921875,-0.72021484375,0.438720703125,0.0970458984375
1.446,290,1709,636,564,15.0,30.0,8.0,-2.563476324081421,9.33837890625,-27.648923873901367,-0.708740234375,0.1392822265625,0.003173828125
1.451,291,1796,682,639,15.0,30.0,8.0,-11.230467796325684,3.845214605331421,-27.770994186401367,-0.708740234375,0.1392822265625,0.003173828125
1.479,289,1908,710,640,15.0,30.0,8.0,-19.71435546875,-3.051757574081421,-20.996091842651367,-0.7386474609375,0.102783203125,0.0078125
1.479,292,2054,706,695,15.0,30.0,8.0,-29.968259811401367,-12.268065452575684,-12.634276390075684,-0.70947265625,0.0919189453125,0.04150390625
1.482,296,2263,748,754,15.0,30.0,8.0,-40.527339935302734,-22.094724655151367,-6.408690929412842,-0.70947265625,0.0919189453125,0.04150390625
1.489,299,2281,788,818,15.0,30.0,8.0,-46.874996185302734,-31.677244186401367,-4.39453125,-0.66162109375,0.1357421875,0.0682373046875
1.503,321,2398,793,853,16.0,26.0,12.0,-46.997066497802734,-41.015621185302734,-8.7890625,-0.5233154296875,0.287841796875,0.195556640625
1.511,321,2481,991,962,16.0,26.0,12.0,-41.015621185302734,-46.997066497802734,-20.996091842651367,-0.5233154296875,0.287841796875,0.195556640625
1.519,329,2554,1070,1025,16.0,26.0,12.0,-31.616209030151367,-45.715328216552734,-35.82763671875,-0.45068359375,0.4307861328125,0.23681640625
1.534,348,2671,1167,897,16.0,26.0,12.0,-27.343748092651367,-37.29248046875,-47.729488372802734,-0.344970703125,0.793701171875,0.37255859375
1.541,345,2921,1557,1042,16.0,26.0,12.0,-33.3251953125,-25.085447311401367,-59.692378997802734,-0.344970703125,0.793701171875,0.37255859375
1.550,356,2854,1664,1160,16.0,26.0,12.0,-52.124019622802734,-14.953612327575684,-76.66015625,-0.6146240234375,0.805419921875,0.405517578125
1.563,346,3144,1840,1054,16.0,26.0,12.0,-93.44481658935547,-10.620116233825684,-97.22899627685547,-1.248291015625,-0.252685546875,0.2332763671875
1.581,356,3102,1904,1313,16.0,26.0,12.0,-146.91162109375,-3.601073980331421,-108.15428924560547,-1.248291015625,-0.252685546875,0.2332763671875
1.581,373,3147,1931,1373,16.0,26.0,12.0,-166.25975036621094,8.36181640625,-100.46385955810547,-1.300537109375,-0.5631103515625,0.102783203125
1.593,375,3137,1914,1348,16.0,26.0,12.0,-129.638671875,14.892577171325684,-82.70262908935547,-1.2156982421875,-0.3170166015625,0.2646484375
1.603,371,3147,2111,1416,23.0,24.0,7.0,-67.19970703125,12.390135765075684,-66.83349609375,-1.2156982421875,-0.3170166015625,0.2646484375
1.609,375,3147,2087,1464,23.0,24.0,7.0,-18.5546875,7.507323741912842,-56.945796966552734,-1.3192138671875,-0.048095703125,0.5078125
1.623,401,3147,1892,1474,23.0,24.0,7.0,-5.371093273162842,8.544921875,-48.522945404052734,-1.5496826171875,0.1318359375,0.624267578125
1.631,390,3147,2035,1540,23.0,24.0,7.0,-15.808104515075684,15.258788108825684,-39.24560546875,-1.7794189453125,0.146240234375,0.5872802734375
1.639,385,3147,2037,1529,23.0,24.0,7.0,-22.949216842651367,20.01953125,-31.066892623901367,-1.8519287109375,0.0885009765625,0.4583740234375
1.654,411,3071,2160,1413,23.0,24.0,7.0,-14.709471702575684,20.751951217651367,-25.085447311401367,-1.568359375,-0.0355224609375,0.2786865234375
1.671,390,3147,1980,1500,23.0,24.0,7.0,10.375975608825684,21.240232467651367,-22.521970748901367,-1.1126708984375,-0.1295166015625,0.1756591796875
1.685,387,3147,1987,1450,23.0,24.0,7.0,37.841796875,22.644041061401367,-21.362302780151367,-0.8836669921875,-0.0506591796875,0.1834716796875
1.688,361,3147,2260,1331,23.0,24.0,7.0,39.794921875,24.230955123901367,-16.845703125,-0.996826171875,0.16845703125,0.178466796875
1.692,361,3147,1862,1241,23.0,24.0,7.0,17.15087890625,26.428220748901367,-10.253905296325684,-0.996826171875,0.16845703125,0.178466796875
1.701,376,2937,1860,1382,21.0,25.0,1.0,-4.45556640625,28.747556686401367,-6.896972179412842,-1.0361328125,0.1251220703125,0.16015625
1.714,361,3022,1838,1104,21.0,25.0,1.0,-14.892577171325684,29.968259811401367,-6.835937023162842,-1.2943115234375,0.0535888671875,0.2236328125
1.722,348,3061,1978,1178,21.0,25.0,1.0,-20.141599655151367,27.160642623901367,-4.82177734375,-1.2943115234375,0.0535888671875,0.2236328125
1.730,338,3033,1931,1097,21.0,25.0,1.0,-27.587888717651367,17.2119140625,2.624511480331421,-1.528564453125,0.0899658203125,0.2767333984375
1.744,327,3115,1815,860,21.0,25.0,1.0,-34.7900390625,3.295898199081421,13.122557640075684,-1.58203125,0.0096435546875,0.306640625
1.755,330,2920,1691,1058,21.0,25.0,1.0,-29.541013717651367,-8.85009765625,23.437498092651367,-1.4830322265625,-0.1314697265625,0.3223876953125
1.760,326,3044,1598,978,21.0,25.0,1.0,-12.084959983825684,-17.578125,34.912109375,-1.35791015625,-0.2418212890625,0.3270263671875
1.793,332,2637,1280,963,21.0,25.0,1.0,6.713866710662842,-23.864744186401367,49.255367279052734,-1.2725830078125,-0.2923583984375,0.330078125
1.798,328,2957,1359,828,21.0,25.0,1.0,22.094724655151367,-28.320310592651367,65.73486328125,-1.203369140625,-0.2520751953125,0.357421875
1.803,313,2937,1115,975,21.0,25.0,1.0,34.1796875,-30.700681686401367,81.66503143310547,-1.10986328125,-0.156005859375,0.4166259765625
1.822,308,2787,1007,598,22.0,27.0,8.0,44.860836029052734,-29.846189498901367,91.91893768310547,-1.0277099609375,-0.070068359375,0.4376220703125
1.822,306,2727,1038,785,22.0,27.0,8.0,58.227535247802734,-24.963376998901367,92.34618377685547,-0.9935302734375,-0.0125732421875,0.4041748046875
1.823,308,2561,872,816,22.0,27.0,8.0,79.7119140625,-17.822265625,84.59471893310547,-0.9632568359375,0.0428466796875,0.38330078125
1.834,302,2328,696,697,22.0,27.0,8.0,107.42186737060547,-9.3994140625,74.40185546875,-0.891845703125,0.14404296875,0.365966796875
1.843,300,2175,693,732,22.0,27.0,8.0,131.591796875,1.0986328125,64.39208984375,-0.74853515625,0.21142578125,0.3323974609375
1.850,299,1994,705,666,22.0,27.0,8.0,147.27783203125,16.11328125,51.757808685302734,-0.57275390625,0.1585693359375,0.2823486328125
1.864,292,1755,673,551,22.0,27.0,8.0,153.564453125,37.9638671875,35.82763671875,-0.3809814453125,0.102783203125,0.1737060546875
1.900,291,1662,705,586,22.0,27.0,8.0,151.611328125,62.499996185302734,19.71435546875,-0.274169921875,0.158203125,0.01611328125
1.900,291,1573,728,559,22.0,27.0,8.0,155.21240234375,77.5146484375,5.798339366912842,-0.3931884765625,0.2886962890625,-0.1048583984375
1.901,283,1318,662,461,16.0,27.0,14.0,168.70115661621094,72.1435546875,-1.2817381620407104,-0.6204833984375,0.5032958984375,-0.14990234375
1.902,281,1323,667,561,16.0,27.0,14.0,171.02049255371094,49.560543060302734,1.5258787870407104,-0.7489013671875,0.7313232421875,-0.106201171875
1.910,282,1206,689,591,16.0,27.0,14.0,147.3388671875,23.559568405151367,9.09423828125,-0.72216796875,0.8099365234375,0.0048828125
1.924,280,1206,658,548,16.0,27.0,14.0,104.49217987060547,5.920409679412842,10.925292015075684,-0.627197265625,0.660400390625,0.0926513671875
1.932,280,1305,679,593,16.0,27.0,14.0,55.603023529052734,1.3427733182907104,2.3193359375,-0.5811767578125,0.3878173828125,0.0162353515625
1.942,282,1361,666,600,16.0,27.0,14.0,3.173827886581421,6.469726085662842,-10.009765625,-0.6497802734375,0.1881103515625,-0.176025390625
1.954,280,1497,628,591,16.0,27.0,14.0,-53.039546966552734,10.375975608825684,-17.578125,-0.738037109375,0.0517578125,-0.2086181640625
1.962,282,1597,646,634,16.0,27.0,14.0,-89.11132049560547,4.150390625,-16.11328125,-0.77001953125,0.0052490234375,-0.04345703125
1.970,282,1676,654,649,16.0,27.0,14.0,-86.66991424560547,-8.7890625,-7.568358898162842,-0.7540283203125,0.1002197265625,0.1292724609375
1.989,282,1860,614,621,16.0,27.0,14.0,-61.706539154052734,-21.362302780151367,0.1831054538488388,-0.7164306640625,0.2515869140625,0.1798095703125
1.992,289,1959,656,695,15.0,29.0,8.0,-44.372554779052734,-29.174802780151367,2.25830078125,-0.6805419921875,0.3426513671875,0.1607666015625
2.006,289,2083,693,695,15.0,29.0,8.0,-49.560543060302734,-31.982419967651367,-0.4272460639476776,-0.6522216796875,0.2882080078125,0.177978515625
2.014,291,2320,702,653,15.0,29.0,8.0,-65.4296875,-33.26416015625,-5.126952648162842,-0.6519775390625,0.1513671875,0.1881103515625
2.023,296,2507,888,693,15.0,29.0,8.0,-76.2939453125,-34.7900390625,-9.8876953125,-0.686279296875,0.0770263671875,0.14794921875
2.030,300,2658,1095,582,15.0,29.0,8.0,-81.05467987060547,-37.53662109375,-13.061522483825684,-0.6439208984375,0.1124267578125,0.12744140625
2.044,304,2844,1188,589,15.0,29.0,8.0,-86.48680877685547,-40.527339935302734,-15.075682640075684,-0.516845703125,0.1910400390625,0.1484375
2.052,324,2658,1163,1012,15.0,29.0,8.0,-96.61864471435547,-40.466304779052734,-16.7236328125,-0.4368896484375,0.2744140625,0.2093505859375
2.061,328,2777,1269,1058,15.0,29.0,8.0,-103.51561737060547,-36.9873046875,-18.6767578125,-0.490234375,0.3238525390625,0.25830078125
2.074,321,3147,1536,879,15.0,29.0,8.0,-95.33690643310547,-30.944822311401367,-23.803709030151367,-0.6734619140625,0.25048828125,0.15380859375
2.091,332,3147,1643,1074,15.0,29.0,8.0,-74.03564453125,-21.362302780151367,-32.16552734375,-0.8431396484375,0.0648193359375,0.0155029296875
2.092,346,3147,1742,1045,19.0,26.0,9.0,-44.372554779052734,-15.197752952575684,-40.649410247802734,-0.9063720703125,-0.029052734375,0.04150390625
2.104,365,3147,1709,1245,19.0,26.0,9.0,-13.549803733825684,-20.324705123901367,-49.316402435302734,-0.9176025390625,0.0609130859375,0.2393798828125
2.114,371,3147,1855,1366,19.0,26.0,9.0,2.868652105331421,-28.625486373901367,-57.678218841552734,-0.9862060546875,0.1981201171875,0.470703125
2.120,349,3147,2041,1365,19.0,26.0,9.0,1.6479490995407104,-24.780271530151367,-63.415523529052734,-1.151611328125,0.296142578125,0.537353515625
2.168,353,3147,2019,1409,19.0,26.0,9.0,-8.1787109375,-7.446288585662842,-65.73486328125,-1.4324951171875,0.3604736328125,0.4449462890625
2.170,369,3147,1951,1437,19.0,26.0,9.0,-21.606443405151367,7.568358898162842,-63.903804779052734,-1.7586669921875,0.3414306640625,0.357421875
2.215,348,3147,2142,1474,19.0,26.0,9.0,-35.70556640625,8.48388671875,-57.373043060302734,-1.993408203125,0.2144775390625,0.369140625
2.240,373,3147,2060,1499,19.0,26.0,9.0,-43.884273529052734,-0.7934569716453552,-47.607418060302734,-2.054443359375,0.0037841796875,0.437744140625
2.242,371,3147,2047,1523,19.0,26.0,9.0,-37.41455078125,-9.70458984375,-37.4755859375,-1.76171875,-0.3192138671875,0.4329833984375
2.253,354,3147,1943,1488,19.0,26.0,9.0,-8.36181640625,-11.962889671325684,-27.526853561401367,-1.2144775390625,-0.5216064453125,0.39794921875
2.254,371,3147,1897,1427,20.0,25.0,11.0,33.63037109375,-8.544921875,-16.05224609375,-0.8673095703125,-0.2275390625,0.447509765625
2.256,363,3147,1835,1336,20.0,25.0,11.0,53.710933685302734,3.540038824081421,-6.835937023162842,-0.830810546875,0.359130859375,0.4813232421875
2.276,401,3065,2175,1255,20.0,25.0,11.0,53.710933685302734,3.540038824081421,-6.835937023162842,-0.896728515625,0.7138671875,0.4134521484375
2.326,439,2777,1564,1443,20.0,25.0,11.0,3.784179449081421,60.974117279052734,-28.808591842651367,-1.0406494140625,0.664306640625,0.356201171875
2.327,420,3134,1611,1409,20.0,25.0,11.0,-21.728513717651367,77.63671875,-51.330562591552734,-1.3643798828125,0.4278564453125,0.3399658203125
2.328,446,2676,1677,1569,20.0,25.0,11.0,-21.728513717651367,77.63671875,-51.330562591552734,-1.655517578125,0.1917724609375,0.2694091796875
2.328,433,2601,1632,1523,20.0,25.0,11.0,-51.208492279052734,64.14794921875,-64.3310546875,-1.6556396484375,-0.035888671875,0.195556640625
2.329,425,2722,1546,1328,20.0,25.0,11.0,-41.259761810302734,50.170894622802734,-59.875484466552734,-1.4532470703125,-0.1865234375,0.196533203125
2.329,400,2785,2060,1336,20.0,25.0,11.0,-41.259761810302734,50.170894622802734,-59.875484466552734,-1.234619140625,-0.26708984375,0.2091064453125
2.329,376,2504,1641,1079,20.0,25.0,11.0,-8.30078125,23.193357467651367,-30.029294967651367,-1.067626953125,-0.359619140625,0.164306640625
2.329,359,2569,1580,1173,23.0,23.0,9.0,-0.3662109076976776,13.671874046325684,-6.347655773162842,-0.9512939453125,-0.4791259765625,0.1065673828125
2.330,359,2605,1494,1101,23.0,23.0,9.0,-0.3662109076976776,13.671874046325684,-6.347655773162842,-0.8907470703125,-0.541748046875,0.085693359375
2.330,334,2710,1308,957,23.0,23.0,9.0,30.700681686401367,-7.812499523162842,37.59765625,-0.870849609375,-0.4459228515625,0.07958984375
2.339,333,2663,1276,1051,23.0,23.0,9.0,44.494625091552734,-20.629880905151367,55.908199310302734,-0.86572265625,-0.2554931640625,0.07470703125
2.339,327,3040,1411,683,23.0,23.0,9.0,44.494625091552734,-20.629880905151367,55.908199310302734,-0.867919921875,-0.0810546875,0.0960693359375
2.340,327,2648,1176,978,23.0,23.0,9.0,51.574703216552734,-30.700681686401367,69.64111328125,-0.867919921875,-0.0810546875,0.0960693359375
2.354,323,2608,1039,894,23.0,23.0,9.0,54.809566497802734,-33.8134765625,74.64599609375,-0.8680419921875,0.21826171875,0.19091796875
2.377,316,2601,1095,973,23.0,23.0,9.0,54.809566497802734,-33.8134765625,74.64599609375,-0.849853515625,0.3458251953125,0.208740234375
2.402,317,2527,1095,910,23.0,23.0,9.0,45.288082122802734,-27.832029342651367,68.2373046875,-0.849853515625,0.3458251953125,0.208740234375
2.402,304,2608,1198,766,23.0,23.0,9.0,10.986327171325684,-11.901854515075684,48.706050872802734,-0.81787109375,0.3931884765625,0.1673583984375
2.403,311,2477,1163,841,20.0,27.0,13.0,10.986327171325684,-11.901854515075684,48.706050872802734,-0.83740234375,0.2734375,0.166259765625
2.403,304,2410,1222,498,20.0,27.0,13.0,-3.295898199081421,-6.286620616912842,39.0625,-0.83740234375,0.2734375,0.166259765625
2.413,302,2247,1053,661,20.0,27.0,13.0,-17.02880859375,-4.150390625,28.564451217651367,-0.850341796875,-0.0618896484375,0.0965576171875
2.430,300,2467,1249,438,20.0,27.0,13.0,-17.02880859375,-4.150390625,28.564451217651367,-0.816162109375,-0.125,-0.021728515625
2.430,299,2195,1009,720,20.0,27.0,13.0,-15.014647483825684,-3.173827886581421,32.3486328125,-0.816162109375,-0.125,-0.021728515625
2.443,296,2202,853,575,20.0,27.0,13.0,1.6479490995407104,-9.6435546875,49.560543060302734,-0.71728515625,0.0186767578125,-0.009033203125
2.455,292,2235,883,695,20.0,27.0,13.0,1.6479490995407104,-9.6435546875,49.560543060302734,-0.623779296875,0.1669921875,0.0987548828125
2.460,296,2233,865,714,20.0,27.0,13.0,5.737304210662842,-21.118162155151367,54.992671966552734,-0.623779296875,0.1669921875,0.0987548828125
2.474,294,2519,1024,572,20.0,27.0,13.0,5.798339366912842,-35.888671875,42.724605560302734,-0.4813232421875,0.3961181640625,0.3663330078125
2.482,300,2409,957,749,20.0,27.0,13.0,5.798339366912842,-35.888671875,42.724605560302734,-0.4412841796875,0.440673828125,0.43408203125
2.501,306,2325,936,858,16.0,27.0,9.0,1.220703125,-32.77587890625,28.625486373901367,-0.4412841796875,0.440673828125,0.43408203125
2.503,302,2507,879,984,16.0,27.0,9.0,-22.827146530151367,-22.827146530151367,7.385253429412842,-0.4356689453125,0.3699951171875,0.3028564453125
2.512,322,2419,986,1022,16.0,27.0,9.0,-22.827146530151367,-22.827146530151367,7.385253429412842,-0.4239501953125,0.3094482421875,0.2061767578125
2.520,319,2552,1058,991,16.0,27.0,9.0,-28.808591842651367,-21.728513717651367,0.1831054538488388,-0.4239501953125,0.3094482421875,0.2061767578125
2.533,332,2668,1054,958,16.0,27.0,9.0,-27.893064498901367,-25.390623092651367,-5.615233898162842,-0.388427734375,0.2919921875,0.139892578125
2.541,324,2920,1397,973,16.0,27.0,9.0,-22.644041061401367,-32.71484375,-10.192870140075684,-0.5042724609375,0.33251953125,0.1806640625
2.550,337,2974,1516,1104,16.0,27.0,9.0,-15.991209983825684,-41.381832122802734,-14.465331077575684,-0.5042724609375,0.33251953125,0.1806640625
2.563,354,3032,1610,1069,16.0,27.0,9.0,-14.404295921325684,-48.706050872802734,-21.850584030151367,-1.0157470703125,0.0521240234375,0.0367431640625
2.572,360,3147,1852,1173,16.0,27.0,9.0,-23.132322311401367,-46.508785247802734,-35.5224609375,-1.0157470703125,0.0521240234375,0.0367431640625
2.579,364,3147,1905,1231,16.0,27.0,9.0,-33.50830078125,-33.447265625,-49.743648529052734,-0.9822998046875,-0.1829833984375,-0.0570068359375
2.606,388,3044,1766,1278,19.0,24.0,11.0,-34.3017578125,-23.376462936401367,-54.199214935302734,-0.818603515625,-0.116455078125,0.18115234375
2.606,414,2993,1821,1529,19.0,24.0,11.0,-24.902341842651367,-24.230955123901367,-46.813961029052734,-0.818603515625,-0.116455078125,0.18115234375
2.609,423,2944,1792,1533,19.0,24.0,11.0,-13.000487327575684,-30.029294967651367,-35.94970703125,-0.9149169921875,0.038330078125,0.450927734375
2.623,418,3040,1739,1399,19.0,24.0,11.0,-8.30078125,-30.395505905151367,-28.015134811401367,-1.2850341796875,0.312744140625,0.7623291015625
2.637,411,3081,1931,1583,19.0,24.0,11.0,-14.221190452575684,-23.193357467651367,-21.789548873901367,-1.2850341796875,0.312744140625,0.7623291015625
2.640,423,3147,2233,1490,19.0,24.0,11.0,-26.672361373901367,-16.2353515625,-16.29638671875,-1.5264892578125,0.438232421875,0.7750244140625
2.653,455,3126,1792,1580,19.0,24.0,11.0,-36.62109375,-13.793944358825684,-14.282225608825684,-1.7276611328125,0.1578369140625,0.65673828125
2.661,426,3147,2128,1604,19.0,24.0,11.0,-33.26416015625,-14.160155296325684,-17.333984375,-1.7276611328125,0.1578369140625,0.65673828125
2.676,411,3147,2068,1640,19.0,24.0,11.0,-12.084959983825684,-15.747069358825684,-21.240232467651367,-1.56787109375,-0.1265869140625,0.5880126953125
2.683,424,3147,1852,1641,23.0,20.0,16.0,19.6533203125,-15.686034202575684,-21.057126998901367,-0.9324951171875,-0.0042724609375,0.4674072265625
2.706,416,3147,1961,1655,23.0,20.0,16.0,49.865718841552734,-9.94873046875,-17.08984375,-0.9324951171875,-0.0042724609375,0.4674072265625
2.706,444,3064,1890,1722,23.0,20.0,16.0,60.852046966552734,4.0283203125,-15.258788108825684,-0.87353515625,0.4259033203125,0.43212890625
2.713,462,2932,1913,1675,23.0,20.0,16.0,41.931148529052734,26.489255905151367,-22.827146530151367,-1.00146484375,0.6685791015625,0.2811279296875
2.722,455,2869,1824,1686,23.0,20.0,16.0,6.286620616912842,52.124019622802734,-40.954586029052734,-1.00146484375,0.6685791015625,0.2811279296875
2.730,487,2754,1808,1588,23.0,20.0,16.0,-27.038572311401367,72.93701171875,-64.02587890625,-0.99560546875,0.4920654296875,0.2518310546875
2.743,497,2561,1744,1452,23.0,20.0,16.0,-50.659175872802734,85.14403533935547,-84.77782440185547,-1.0859375,0.1651611328125,0.3250732421875
2.751,456,2569,1952,1508,23.0,20.0,16.0,-64.208984375,88.68407440185547,-98.93798065185547,-1.0859375,0.1651611328125,0.3250732421875
2.759,487,2362,1920,1526,23.0,20.0,16.0,-72.021484375,84.77782440185547,-104.00389862060547,-1.3292236328125,0.0416259765625,0.3233642578125
2.773,441,2295,1889,1303,23.0,20.0,16.0,-78.2470703125,75.25634765625,-99.54833221435547,-1.481201171875,-0.1356201171875,0.2271728515625
2.781,391,2456,2087,1268,27.0,20.0,8.0,-76.47705078125,62.561031341552734,-88.13475799560547,-1.383544921875,-0.4049072265625,0.161865234375
2.789,360,2437,2167,1143,27.0,20.0,8.0,-62.927242279052734,48.339839935302734,-68.84765625,-1.152587890625,-0.641357421875,0.1676025390625
2.808,373,2489,2074,932,27.0,20.0,8.0,-44.860836029052734,32.53173828125,-39.55078125,-0.9716796875,-0.7374267578125,0.1866455078125
2.811,354,2621,2183,1004,27.0,20.0,8.0,-29.052732467651367,15.014647483825684,-3.601073980331421,-0.9248046875,-0.7001953125,0.16796875
2.820,348,2587,2135,999,27.0,20.0,8.0,-15.014647483825684,-2.01416015625,30.822751998901367,-0.992431640625,-0.5748291015625,0.140625
2.833,348,2645,2012,837,27.0,20.0,8.0,-3.234863042831421,-15.502928733825684,58.044429779052734,-1.1234130859375,-0.4007568359375,0.125
2.841,327,2722,2170,811,27.0,20.0,8.0,2.624511480331421,-24.963376998901367,78.18603515625,-1.2554931640625,-0.2265625,0.1419677734375
2.850,334,2599,1948,944,27.0,20.0,8.0,2.746581792831421,-32.2265625,93.20067596435547,-1.3485107421875,-0.07763671875,0.2169189453125
2.864,330,2435,1640,841,27.0,20.0,8.0,0.4882812201976776,-37.353515625,104.06493377685547,-1.37939453125,0.048828125,0.322265625
2.871,323,2407,1650,919,27.0,20.0,8.0,-2.868652105331421,-36.80419921875,109.92430877685547,-1.3226318359375,0.1297607421875,0.433349609375
2.880,318,2348,1582,873,23.0,26.0,11.0,-4.150390625,-28.198240280151367,108.70360565185547,-1.193359375,0.1500244140625,0.53564453125
2.893,317,2207,1398,673,23.0,26.0,11.0,1.03759765625,-13.061522483825684,99.36522674560547,-1.0703125,0.158447265625,0.551025390625
2.910,306,2113,1365,757,23.0,26.0,11.0,12.207030296325684,2.868652105331421,83.92333221435547,-0.96044921875,0.162109375,0.4486083984375
2.911,306,1978,1260,708,23.0,26.0,11.0,30.212400436401367,14.892577171325684,66.22314453125,-0.763671875,0.0738525390625,0.2840576171875
2.924,300,1861,1115,499,23.0,26.0,11.0,59.814449310302734,24.597166061401367,49.255367279052734,-0.5150146484375,-0.105712890625,0.133056640625
2.933,299,1759,1050,493,23.0,26.0,11.0,101.13524627685547,34.85107421875,32.8369140625,-0.32373046875,-0.1962890625,0.08740234375
2.940,294,1514,917,568,23.0,26.0,11.0,140.2587890625,45.715328216552734,16.9677734375,-0.2618408203125,-0.0491943359375,0.09423828125
2.956,296,1422,853,485,23.0,26.0,11.0,156.494140625,55.969234466552734,4.8828125,-0.3165283203125,0.2281494140625,0.0458984375
2.962,296,1334,811,532,23.0,26.0,11.0,145.08056640625,59.936519622802734,-0.1831054538488388,-0.426025390625,0.46533203125,-0.0137939453125
2.970,294,1294,787,569,23.0,26.0,11.0,116.88231658935547,51.696773529052734,3.967284917831421,-0.5679931640625,0.6390380859375,0.00439453125
2.983,293,1386,785,600,19.0,27.0,15.0,79.1015625,32.77587890625,14.099120140075684,-0.6370849609375,0.6729736328125,0.0797119140625
2.991,295,1393,802,603,19.0,27.0,15.0,35.400390625,13.244627952575684,19.4091796875,-0.6151123046875,0.49365234375,0.11279296875
3.018,294,1434,827,620,19.0,27.0,15.0,-3.662109136581421,2.563476324081421,14.892577171325684,-0.604736328125,0.254638671875,0.0709228515625
3.018,298,1550,848,593,19.0,27.0,15.0,-25.512693405151367,-1.5258787870407104,6.164550304412842,-0.61279296875,0.1143798828125,0.031494140625
3.022,298,1811,1000,564,19.0,27.0,15.0,-30.822751998901367,-5.981444835662842,-1.220703125,-0.6142578125,0.0560302734375,0.0384521484375
3.029,299,2047,1104,518,19.0,27.0,15.0,-30.151365280151367,-13.305663108825684,-5.371093273162842,-0.6204833984375,0.0592041015625,0.073974609375
3.043,306,2207,1098,599,19.0,27.0,15.0,-31.982419967651367,-22.705076217651367,-5.859374523162842,-0.633056640625,0.1221923828125,0.1220703125
3.051,306,2286,1215,865,19.0,27.0,15.0,-39.85595703125,-31.188962936401367,-3.723144292831421,-0.634765625,0.208984375,0.1302490234375
3.064,316,2221,1173,897,19.0,27.0,15.0,-56.518550872802734,-35.7666015625,-0.9765624403953552,-0.617919921875,0.275146484375,0.090576171875
3.074,328,2359,1219,900,20.0,28.0,9.0,-80.2001953125,-37.90283203125,-0.4882812201976776,-0.5447998046875,0.29345703125,0.0650634765625
3.081,328,2551,1434,936,20.0,28.0,9.0,-100.64696502685547,-38.75732421875,-3.906249761581421,-0.4210205078125,0.2921142578125,0.0841064453125
3.089,328,2578,1529,1025,20.0,28.0,9.0,-106.75048065185547,-39.1845703125,-9.521484375,-0.3316650390625,0.3602294921875,0.1441650390625
3.117,360,2760,1561,1085,20.0,28.0,9.0,-97.04589080810547,-41.748043060302734,-16.66259765625,-0.4130859375,0.490234375,0.2481689453125
3.117,362,3000,1813,1253,20.0,28.0,9.0,-84.77782440185547,-46.447750091552734,-29.479978561401367,-0.689208984375,0.4302978515625,0.322021484375
3.120,342,3147,2005,1157,20.0,28.0,9.0,-82.45848846435547,-47.180171966552734,-49.316402435302734,-0.951904296875,0.02783203125,0.3641357421875
3.136,360,3147,1952,1211,20.0,28.0,9.0,-77.57568359375,-39.0625,-67.0166015625,-1.072265625,-0.3770751953125,0.4156494140625
3.141,359,3147,2153,1302,20.0,28.0,9.0,-52.246089935302734,-27.770994186401367,-70.4345703125,-1.132568359375,-0.4130859375,0.4056396484375
3.149,378,3147,2087,1409,20.0,28.0,9.0,-17.76123046875,-20.080564498901367,-59.936519622802734,-1.2318115234375,-0.2470703125,0.3626708984375
3.172,376,3147,2035,1401,20.0,28.0,9.0,8.30078125,-15.014647483825684,-48.156734466552734,-1.3648681640625,-0.1138916015625,0.3804931640625
3.173,382,3147,2194,1463,22.0,23.0,2.0,20.996091842651367,-10.375975608825684,-40.954586029052734,-1.5216064453125,0.030029296875,0.44140625
3.179,384,3147,2128,1478,22.0,23.0,2.0,18.24951171875,-4.638671875,-35.2783203125,-1.7442626953125,0.1517333984375,0.4959716796875
3.193,371,3147,2254,1382,22.0,23.0,2.0,3.601073980331421,2.685546636581421,-29.418943405151367,-1.9794921875,0.2259521484375,0.484375
3.201,371,3147,2195,1413,22.0,23.0,2.0,-14.160155296325684,7.019042491912842,-23.376462936401367,-1.9564208984375,0.1824951171875,0.3795166015625
3.221,371,3147,2195,1377,22.0,23.0,2.0,-21.118162155151367,8.056640625,-20.568845748901367,-1.503662109375,-0.1287841796875,0.28369140625
3.223,356,3147,2080,1275,22.0,23.0,2.0,-5.615233898162842,11.047362327575684,-20.385740280151367,-1.00830078125,-0.4078369140625,0.3033447265625
3.232,375,3087,2086,1289,22.0,23.0,2.0,14.953612327575684,17.822265625,-13.671874046325684,-0.8409423828125,-0.313720703125,0.396240234375
3.243,373,3011,2074,1339,22.0,23.0,2.0,14.953612327575684,17.822265625,-13.671874046325684,-0.8843994140625,-0.01953125,0.4246826171875
3.253,359,3056,2113,1078,22.0,23.0,2.0,4.2724609375,47.424312591552734,6.164550304412842,-1.058837890625,0.2198486328125,0.412841796875
3.261,363,2912,2084,1264,22.0,23.0,2.0,-10.192870140075684,58.410640716552734,4.7607421875,-1.4046630859375,0.389892578125,0.396484375
3.279,345,2958,2167,1122,23.0,24.0,7.0,-10.192870140075684,58.410640716552734,4.7607421875,-1.712646484375,0.4066162109375,0.319091796875
3.283,354,2660,2024,1083,23.0,24.0,7.0,-60.485836029052734,48.095699310302734,-1.5869139432907104,-1.74951171875,0.2171630859375,0.2359619140625
3.291,351,2580,1961,1138,23.0,24.0,7.0,-65.24658203125,34.11865234375,-1.8310545682907104,-1.5797119140625,0.006591796875,0.22705078125
3.299,336,2503,1967,1078,23.0,24.0,7.0,-65.24658203125,34.11865234375,-1.8310545682907104,-1.3470458984375,-0.168212890625,0.240478515625
3.322,326,2561,1880,802,23.0,24.0,7.0,-37.9638671875,6.774901866912842,16.41845703125,-1.1524658203125,-0.3297119140625,0.2174072265625
3.330,330,2419,1890,806,23.0,24.0,7.0,-23.864744186401367,-0.6103515625,32.71484375,-1.044677734375,-0.38818359375,0.1851806640625
3.343,318,2469,1865,808,23.0,24.0,7.0,-23.864744186401367,-0.6103515625,32.71484375,-1.00244140625,-0.3568115234375,0.165283203125
3.374,310,2552,1637,620,23.0,24.0,7.0,2.929687261581421,-15.624999046325684,65.91796875,-0.97705078125,-0.346923828125,0.17236328125
3.375,310,2519,1595,697,23.0,24.0,7.0,17.9443359375,-20.507810592651367,76.0498046875,-0.947021484375,-0.3280029296875,0.2032470703125
3.375,310,2347,1361,849,23.0,24.0,7.0,17.9443359375,-20.507810592651367,76.0498046875,-0.9005126953125,-0.2022705078125,0.244384765625
3.375,302,2337,1050,695,20.0,26.0,10.0,59.997554779052734,-23.803709030151367,80.99364471435547,-0.8082275390625,-0.0089111328125,0.301025390625
3.382,300,2266,999,767,20.0,26.0,10.0,85.75438690185547,-19.71435546875,75.1953125,-0.6676025390625,0.1044921875,0.3448486328125
3.391,298,2202,891,738,20.0,26.0,10.0,85.75438690185547,-19.71435546875,75.1953125,-0.5296630859375,0.087890625,0.35888671875
3.403,291,2012,738,677,20.0,26.0,10.0,135.07080078125,17.08984375,41.809078216552734,-0.4522705078125,0.0531005859375,0.343994140625
3.425,291,1941,723,723,20.0,26.0,10.0,145.99609375,42.053218841552734,24.902341842651367,-0.4442138671875,0.1346435546875,0.245849609375
3.425,291,1820,713,706,20.0,26.0,10.0,145.99609375,42.053218841552734,24.902341842651367,-0.51025390625,0.3197021484375,0.066650390625
3.433,292,1803,713,574,20.0,26.0,10.0,124.45067596435547,64.88037109375,17.7001953125,-0.58984375,0.4395751953125,-0.0767822265625
3.442,292,1770,707,619,20.0,26.0,10.0,101.56249237060547,56.945796966552734,21.484373092651367,-0.673828125,0.4981689453125,-0.131591796875
3.449,292,1757,697,607,20.0,26.0,10.0,101.56249237060547,56.945796966552734,21.484373092651367,-0.7496337890625,0.562255859375,-0.1171875
3.465,294,1817,658,540,20.0,26.0,10.0,40.954586029052734,19.287109375,32.1044921875,-0.7469482421875,0.52197265625,-0.0625
3.471,292,1838,666,643,17.0,28.0,11.0,40.954586029052734,19.287109375,32.1044921875,-0.7071533203125,0.362548828125,-0.00390625
3.480,291,1874,654,660,17.0,28.0,11.0,7.812499523162842,1.8920897245407104,30.944822311401367,-0.7071533203125,0.362548828125,-0.00390625
3.493,289,1978,634,645,17.0,28.0,11.0,-29.479978561401367,-16.41845703125,24.719236373901367,-0.631103515625,0.1121826171875,0.0711669921875
3.501,290,2217,728,588,17.0,28.0,11.0,-29.479978561401367,-16.41845703125,24.719236373901367,-0.6136474609375,0.0604248046875,0.06689453125
3.526,282,2129,619,765,17.0,28.0,11.0,-42.419429779052734,-22.949216842651367,26.916501998901367,-0.6136474609375,0.0604248046875,0.06689453125
3.526,289,2460,673,592,17.0,28.0,11.0,-77.33154296875,-40.771480560302734,44.616695404052734,-0.6297607421875,0.083251953125,0.0423583984375
3.531,294,2717,787,576,17.0,28.0,11.0,-77.33154296875,-40.771480560302734,44.616695404052734,-0.69287109375,0.150634765625,0.1221923828125
3.539,292,2514,689,801,17.0,28.0,11.0,-88.92821502685547,-52.795406341552734,52.124019622802734,-0.69287109375,0.150634765625,0.1221923828125
3.554,300,2514,620,830,17.0,28.0,11.0,-92.22411346435547,-67.2607421875,43.701168060302734,-0.7135009765625,0.2476806640625,0.324462890625
3.561,302,2557,698,958,17.0,28.0,11.0,-92.22411346435547,-67.2607421875,43.701168060302734,-0.7001953125,0.3370361328125,0.3250732421875
3.569,300,2753,755,946,16.0,26.0,11.0,-91.67479705810547,-58.410640716552734,32.8369140625,-0.7001953125,0.3370361328125,0.3250732421875
3.583,310,2906,731,895,16.0,26.0,11.0,-76.416015625,-30.090330123901367,11.901854515075684,-0.5313720703125,0.455810546875,0.2896728515625
3.596,310,3019,947,975,16.0,26.0,11.0,-76.416015625,-30.090330123901367,11.901854515075684,-0.4669189453125,0.4127197265625,0.291259765625
3.599,323,2981,1045,1163,16.0,26.0,11.0,-64.8193359375,-22.094724655151367,0.8544921278953552,-0.4669189453125,0.4127197265625,0.291259765625
3.631,348,3092,1287,1163,16.0,26.0,11.0,-40.161128997802734,-31.860349655151367,-41.687007904052734,-0.716796875,0.0816650390625,0.30615234375
3.631,347,3147,1931,1214,16.0,26.0,11.0,-40.161128997802734,-31.860349655151367,-41.687007904052734,-0.8076171875,0.017578125,0.3369140625
3.631,359,3147,1649,1326,16.0,26.0,11.0,-35.21728515625,-36.7431640625,-61.218257904052734,-0.8076171875,0.017578125,0.3369140625
3.644,371,3147,1669,1365,16.0,26.0,11.0,-28.381345748901367,-23.681638717651367,-56.823726654052734,-1.1754150390625,0.4150390625,0.1397705078125
3.652,373,3147,1840,1415,16.0,26.0,11.0,-28.381345748901367,-23.681638717651367,-56.823726654052734,-1.45654296875,0.4434814453125,0.1322021484375
3.661,388,3141,1848,1478,19.0,25.0,10.0,-43.212886810302734,-14.160155296325684,-46.936031341552734,-1.45654296875,0.4434814453125,0.1322021484375
3.674,386,3106,1803,1383,19.0,25.0,10.0,-100.15868377685547,-10.009765625,-36.7431640625,-1.817138671875,0.202880859375,0.4345703125
3.689,404,3073,1855,1501,19.0,25.0,10.0,-100.15868377685547,-10.009765625,-36.7431640625,-1.8408203125,0.1043701171875,0.587158203125
3.690,400,3018,1806,1533,19.0,25.0,10.0,-112.73192596435547,-13.061522483825684,-29.296873092651367,-1.8408203125,0.1043701171875,0.587158203125
3.704,404,3121,1703,1527,19.0,25.0,10.0,-80.2001953125,-17.63916015625,-18.98193359375,-1.257568359375,-0.1898193359375,0.73046875
3.712,410,2950,1809,1521,19.0,25.0,10.0,-80.2001953125,-17.63916015625,-18.98193359375,-0.82080078125,-0.2645263671875,0.7796630859375
3.730,404,2901,1757,1497,19.0,25.0,10.0,-37.7197265625,-5.615233898162842,-20.385740280151367,-0.82080078125,-0.2645263671875,0.7796630859375
3.734,379,2848,1675,1265,19.0,25.0,10.0,29.479978561401367,40.893550872802734,-20.996091842651367,-0.778564453125,0.1351318359375,0.69189453125
3.742,379,2813,1753,1411,19.0,25.0,10.0,29.479978561401367,40.893550872802734,-20.996091842651367,-1.0068359375,0.2548828125,0.5572509765625
3.752,375,2795,1756,1386,19.0,25.0,10.0,28.198240280151367,69.51904296875,-21.606443405151367,-1.0068359375,0.2548828125,0.5572509765625
3.764,364,2717,1684,1162,21.0,23.0,4.0,-11.535643577575684,91.97997283935547,-22.094724655151367,-1.8355712890625,0.508544921875,0.317626953125
3.772,364,2514,1759,1303,21.0,23.0,4.0,-11.535643577575684,91.97997283935547,-22.094724655151367,-1.901611328125,0.383544921875,0.2083740234375
3.781,348,2492,1770,1170,21.0,23.0,4.0,-48.889156341552734,83.00780487060547,-18.61572265625,-1.901611328125,0.383544921875,0.2083740234375
3.794,336,2379,1659,922,21.0,23.0,4.0,-54.992671966552734,48.278804779052734,-11.779784202575684,-1.4183349609375,-0.08837890625,0.2127685546875
3.811,344,2207,1608,1009,21.0,23.0,4.0,-54.992671966552734,48.278804779052734,-11.779784202575684,-1.2374267578125,-0.2889404296875,0.1978759765625
3.811,323,2290,1456,936,21.0,23.0,4.0,-36.92626953125,32.470703125,-1.5869139432907104,-1.2374267578125,-0.2889404296875,0.1978759765625
3.832,318,2060,1274,800,21.0,23.0,4.0,-24.291990280151367,20.751951217651367,18.00537109375,-1.1055908203125,-0.5037841796875,0.0335693359375
3.833,308,2127,1260,842,21.0,23.0,4.0,-15.502928733825684,8.30078125,44.616695404052734,-1.1055908203125,-0.5037841796875,0.0335693359375
3.840,306,2035,1050,813,21.0,23.0,4.0,0.2441406100988388,-7.019042491912842,70.556640625,-1.064208984375,-0.5784912109375,-0.0155029296875
3.855,291,2062,855,522,21.0,23.0,4.0,29.907224655151367,-23.559568405151367,90.33202362060547,-0.848388671875,-0.4447021484375,0.09765625
3.862,289,2068,808,601,20.0,27.0,7.0,67.32177734375,-38.2080078125,103.08837127685547,-0.848388671875,-0.4447021484375,0.09765625
3.870,289,1853,653,707,20.0,27.0,7.0,102.78319549560547,-43.701168060302734,107.91014862060547,-0.6546630859375,-0.3587646484375,0.2247314453125
3.884,280,1629,527,673,20.0,27.0,7.0,135.498046875,-32.28759765625,102.35594940185547,-0.238037109375,-0.2225341796875,0.30517578125
3.893,282,1529,535,669,20.0,27.0,7.0,169.06736755371094,-3.906249761581421,85.38817596435547,-0.238037109375,-0.2225341796875,0.30517578125
3.904,290,1440,509,667,20.0,27.0,7.0,201.29393005371094,30.517576217651367,63.720699310302734,-0.097900390625,0.0740966796875,0.263671875
3.935,278,1241,495,593,20.0,27.0,7.0,219.23826599121094,58.410640716552734,48.645015716552734,-0.1800537109375,0.853759765625,0.058837890625
3.936,277,1159,508,526,20.0,27.0,7.0,208.31297302246094,71.71630859375,45.898433685302734,-0.1800537109375,0.853759765625,0.058837890625
3.936,278,1274,506,661,20.0,27.0,7.0,166.80906677246094,66.40625,54.809566497802734,-0.4510498046875,1.08203125,0.005859375
3.944,277,1323,482,632,20.0,27.0,7.0,112.12157440185547,45.288082122802734,62.438961029052734,-0.852783203125,1.1268310546875,-0.025390625
3.954,277,1384,513,666,20.0,27.0,7.0,67.68798828125,19.47021484375,51.635738372802734,-0.852783203125,1.1268310546875,-0.025390625
3.960,280,1433,521,659,16.0,32.0,10.0,45.043941497802734,0.2441406100988388,23.803709030151367,-0.840576171875,0.854248046875,-0.04638671875
3.974,279,1643,505,540,16.0,32.0,10.0,41.076656341552734,-10.925292015075684,-4.8828125,-0.6165771484375,0.2525634765625,0.025390625
3.982,282,1785,553,572,16.0,32.0,10.0,41.381832122802734,-19.22607421875,-20.263669967651367,-0.6165771484375,0.2525634765625,0.025390625
3.991,280,1861,548,598,16.0,32.0,10.0,31.616209030151367,-27.221677780151367,-19.1650390625,-0.509521484375,0.076416015625,0.11279296875
4.007,277,1918,481,643,16.0,32.0,10.0,11.474608421325684,-33.14208984375,-8.1787109375,-0.6158447265625,0.18017578125,0.216064453125
4.012,278,1983,466,797,16.0,32.0,10.0,-11.962889671325684,-35.888671875,2.3193359375,-0.6158447265625,0.18017578125,0.216064453125
4.038,279,2117,508,765,16.0,32.0,10.0,-36.0107421875,-36.1328125,5.920409679412842,-0.7376708984375,0.298828125,0.2286376953125
4.038,281,2217,411,803,16.0,32.0,10.0,-62.805171966552734,-34.97314453125,2.929687261581421,-0.783203125,0.2938232421875,0.2265625
4.042,291,2296,473,864,16.0,32.0,10.0,-89.47753143310547,-33.26416015625,-2.50244140625,-0.78515625,0.211669921875,0.1981201171875
4.050,289,2230,423,1014,16.0,32.0,10.0,-106.44530487060547,-31.249998092651367,-5.920409679412842,-0.779296875,0.1680908203125,0.139892578125
4.064,291,2360,379,952,15.0,33.0,11.0,-108.33739471435547,-29.418943405151367,-7.324218273162842,-0.781982421875,0.2083740234375,0.0985107421875
4.072,289,2419,454,1078,15.0,33.0,11.0,-99.24315643310547,-28.869626998901367,-9.21630859375,-0.8131103515625,0.2921142578125,0.1090087890625
4.080,296,2445,442,1160,15.0,33.0,11.0,-86.30370330810547,-28.808591842651367,-11.901854515075684,-0.9051513671875,0.3975830078125,0.153564453125
4.094,302,2579,482,1101,15.0,33.0,11.0,-78.9794921875,-27.893064498901367,-15.991209983825684,-1.015380859375,0.401611328125,0.15673828125
4.102,313,2569,572,1278,15.0,33.0,11.0,-82.15331268310547,-24.475095748901367,-22.583005905151367,-1.06005859375,0.251220703125,0.0908203125
4.110,326,2587,628,1328,15.0,33.0,11.0,-82.03124237060547,-22.277830123901367,-28.869626998901367,-1.009521484375,0.129150390625,0.062255859375
4.145,328,2788,710,1204,15.0,33.0,11.0,-67.87109375,-27.832029342651367,-32.53173828125,-0.8765869140625,0.0767822265625,0.161865234375
4.145,346,2793,865,1355,15.0,33.0,11.0,-49.499507904052734,-37.17041015625,-35.94970703125,-0.7606201171875,0.0858154296875,0.3310546875
4.146,354,2830,944,1390,15.0,33.0,11.0,-38.63525390625,-40.222164154052734,-39.73388671875,-0.7890625,0.1807861328125,0.466796875
4.154,373,2788,1050,1349,19.0,30.0,2.0,-37.41455078125,-31.799314498901367,-41.809078216552734,-0.961669921875,0.2791748046875,0.5162353515625
4.163,373,2831,1147,1500,19.0,30.0,2.0,-42.968746185302734,-14.831542015075684,-41.442867279052734,-1.1783447265625,0.3326416015625,0.4996337890625
4.170,378,2787,1137,1583,19.0,30.0,2.0,-52.490230560302734,0.4272460639476776,-39.794921875,-1.35595703125,0.3087158203125,0.48388671875
4.184,402,2785,1109,1453,19.0,30.0,2.0,-58.410640716552734,6.774901866912842,-37.17041015625,-1.46923828125,0.2144775390625,0.485107421875
4.193,414,2753,1213,1648,19.0,30.0,2.0,-51.696773529052734,4.57763671875,-32.470703125,-1.5355224609375,0.137939453125,0.475341796875
4.200,414,2777,1204,1640,19.0,30.0,2.0,-33.75244140625,-0.7324218153953552,-26.489255905151367,-1.518798828125,0.0706787109375,0.4501953125
4.214,405,2746,1097,1487,19.0,30.0,2.0,-13.183592796325684,-2.624511480331421,-21.179197311401367,-1.3126220703125,-0.0360107421875,0.41552734375
4.222,401,2733,1156,1604,19.0,30.0,2.0,7.995604991912842,1.8920897245407104,-16.6015625,-1.0303955078125,-0.0186767578125,0.399169921875
4.243,388,2726,1170,1543,19.0,30.0,2.0,24.536130905151367,10.375975608825684,-12.695311546325684,-0.8846435546875,0.17236328125,0.4205322265625
4.244,401,2578,1101,1251,19.0,30.0,2.0,25.451658248901367,22.583005905151367,-11.413573265075684,-0.8748779296875,0.321044921875,0.4395751953125
4.253,387,2587,1138,1519,22.0,27.0,8.0,15.258788108825684,39.00146484375,-14.465331077575684,-0.9454345703125,0.3370361328125,0.439453125
4.263,373,2612,1175,1456,22.0,27.0,8.0,7.019042491912842,53.161617279052734,-20.080564498901367,-1.1558837890625,0.3616943359375,0.44384765625
4.274,360,2555,1058,1251,22.0,27.0,8.0,-2.990722417831421,56.518550872802734,-22.460935592651367,-1.4591064453125,0.4305419921875,0.41943359375
4.282,334,2708,1228,1222,22.0,27.0,8.0,-22.460935592651367,49.194332122802734,-19.1650390625,-1.625732421875,0.372802734375,0.3292236328125
4.290,332,2638,1175,1178,22.0,27.0,8.0,-36.68212890625,37.53662109375,-12.512206077575684,-1.5919189453125,0.1746826171875,0.2353515625
4.306,316,2510,963,988,22.0,27.0,8.0,-32.3486328125,24.902341842651367,-3.723144292831421,-1.4664306640625,-0.0458984375,0.1959228515625
4.313,305,2581,962,920,22.0,27.0,8.0,-19.775390625,12.451170921325684,9.82666015625,-1.3516845703125,-0.2073974609375,0.1795654296875
4.320,302,2507,818,939,22.0,27.0,8.0,-9.58251953125,-0.4882812201976776,30.883787155151367,-1.277099609375,-0.3062744140625,0.15087890625
4.349,292,2409,617,788,22.0,27.0,8.0,3.845214605331421,-14.404295921325684,55.969234466552734,-1.220947265625,-0.3704833984375,0.126953125
4.349,279,2381,516,883,22.0,27.0,8.0,30.151365280151367,-26.611326217651367,76.47705078125,-1.1602783203125,-0.352294921875,0.1492919921875
4.350,293,2471,499,832,16.0,27.0,5.0,67.2607421875,-33.3251953125,86.79198455810547,-1.0545654296875,-0.2117919921875,0.228515625
4.371,280,2128,506,710,16.0,27.0,5.0,103.45458221435547,-31.188962936401367,87.46337127685547,-0.8756103515625,-0.0406494140625,0.31884765625
4.374,282,2106,599,601,16.0,27.0,5.0,132.9345703125,-17.27294921875,79.77294921875,-0.667236328125,0.0362548828125,0.3548583984375
4.380,282,1929,526,660,16.0,27.0,5.0,158.02001953125,7.751464366912842,64.5751953125,-0.49462890625,0.0279541015625,0.3470458984375
4.394,279,1608,485,591,16.0,27.0,5.0,177.61228942871094,35.2783203125,44.494625091552734,-0.4005126953125,0.0511474609375,0.3231201171875
4.403,282,1488,508,603,16.0,27.0,5.0,184.93650817871094,54.321285247802734,26.550291061401367,-0.4039306640625,0.160400390625,0.2122802734375
4.412,289,1413,539,518,16.0,27.0,5.0,184.44822692871094,62.499996185302734,19.4091796875,-0.44287109375,0.30224609375,0.0389404296875
4.424,280,1172,509,525,16.0,27.0,5.0,186.46238708496094,63.476558685302734,24.597166061401367,-0.4490966796875,0.4520263671875,-0.053955078125
4.454,274,1050,514,590,16.0,27.0,5.0,182.55613708496094,60.180660247802734,38.63525390625,-0.4827880859375,0.5970458984375,-0.041015625
4.454,273,1026,519,582,16.0,27.0,5.0,161.43797302246094,55.969234466552734,55.236812591552734,-0.5784912109375,0.68212890625,-0.0357666015625
4.454,272,1083,525,495,13.0,32.0,10.0,131.65283203125,48.645015716552734,60.058589935302734,-0.6241455078125,0.8212890625,-0.140380859375
4.464,276,1138,526,586,13.0,32.0,10.0,91.36962127685547,33.87451171875,38.6962890625,-0.6390380859375,0.90478515625,-0.172119140625
4.478,275,1222,519,564,13.0,32.0,10.0,35.400390625,15.441893577575684,0.3662109076976776,-0.73779296875,0.5811767578125,0.01220703125
4.484,275,1370,499,582,13.0,32.0,10.0,1.8920897245407104,-0.4882812201976776,-24.169919967651367,-0.7939453125,0.140869140625,0.1964111328125
4.492,281,1519,537,519,13.0,32.0,10.0,16.17431640625,-10.314940452575684,-20.751951217651367,-0.75244140625,0.0111083984375,0.2608642578125
4.504,278,1564,521,540,13.0,32.0,10.0,47.973628997802734,-17.08984375,-2.563476324081421,-0.70361328125,0.1463623046875,0.204345703125
4.522,279,1721,472,526,13.0,32.0,10.0,60.363765716552734,-22.644041061401367,12.878417015075684,-0.678466796875,0.3931884765625,0.06201171875
4.523,280,1891,440,535,13.0,32.0,10.0,38.14697265625,-26.184080123901367,14.343260765075684,-0.677001953125,0.548095703125,-0.007568359375
4.531,277,1973,546,590,13.0,32.0,10.0,38.14697265625,-26.184080123901367,14.343260765075684,-0.6920166015625,0.533447265625,0.022705078125
4.556,273,1900,383,658,13.0,32.0,10.0,-6.164550304412842,-29.907224655151367,2.38037109375,-0.728515625,0.4578857421875,0.070556640625
4.556,268,2110,267,780,12.0,31.0,10.0,-75.74462890625,-35.888671875,-21.606443405151367,-0.77001953125,0.4005126953125,0.1263427734375
4.564,270,2058,332,754,12.0,31.0,10.0,-90.39305877685547,-37.41455078125,-25.512693405151367,-0.8055419921875,0.38232421875,0.1978759765625
4.570,269,2144,348,772,12.0,31.0,10.0,-90.39305877685547,-37.41455078125,-25.512693405151367,-0.8526611328125,0.391357421875,0.2200927734375
4.583,280,2410,382,698,12.0,31.0,10.0,-96.74071502685547,-37.109375,-25.024412155151367,-0.8741455078125,0.401123046875,0.1129150390625
4.591,286,2419,514,797,12.0,31.0,10.0,-105.04149627685547,-31.860349655151367,-22.766111373901367,-0.8052978515625,0.4251708984375,-0.0772705078125
4.599,280,2404,481,916,12.0,31.0,10.0,-105.04149627685547,-31.860349655151367,-22.766111373901367,-0.71435546875,0.4527587890625,-0.19384765625
4.613,289,2503,423,887,12.0,31.0,10.0,-175.90330505371094,-24.414060592651367,-26.794431686401367,-0.6910400390625,0.380126953125,-0.1097412109375
4.621,286,2683,594,874,12.0,31.0,10.0,-175.90330505371094,-24.414060592651367,-26.794431686401367,-0.7454833984375,0.2310791015625,0.0799560546875
4.629,291,2526,513,1081,12.0,31.0,10.0,-208.86228942871094,-26.367185592651367,-30.090330123901367,-0.7454833984375,0.2310791015625,0.0799560546875
4.652,310,2581,562,1104,18.0,29.0,5.0,-154.72412109375,-27.038572311401367,-29.602048873901367,-1.1494140625,0.1822509765625,0.2926025390625
4.661,290,3128,679,1000,18.0,29.0,5.0,-154.72412109375,-27.038572311401367,-29.602048873901367,-1.333984375,0.084228515625,0.322021484375
4.661,308,2853,794,1160,18.0,29.0,5.0,-112.42675018310547,-29.418943405151367,-30.822751998901367,-1.333984375,0.084228515625,0.322021484375
4.675,324,2820,738,1167,18.0,29.0,5.0,-70.86181640625,-43.762203216552734,-34.66796875,-1.0037841796875,-0.403076171875,0.491943359375
4.681,334,2825,806,1328,18.0,29.0,5.0,-70.86181640625,-43.762203216552734,-34.66796875,-0.7027587890625,-0.4324951171875,0.5076904296875
4.689,338,2825,879,1362,18.0,29.0,5.0,-37.353515625,-48.339839935302734,-32.65380859375,-0.7027587890625,-0.4324951171875,0.5076904296875
4.704,369,2776,852,1348,18.0,29.0,5.0,51.086421966552734,-32.958984375,-25.939939498901367,-0.608642578125,0.23388671875,0.3365478515625
4.711,360,2898,1014,1487,18.0,29.0,5.0,51.086421966552734,-32.958984375,-25.939939498901367,-0.84912109375,0.595458984375,0.2939453125
4.719,371,2890,1047,1518,18.0,29.0,5.0,55.847164154052734,-20.202634811401367,-24.902341842651367,-0.84912109375,0.595458984375,0.2939453125
4.733,365,2936,1042,1401,18.0,29.0,5.0,-25.207517623901367,-0.6713866591453552,-21.484373092651367,-1.5274658203125,0.7606201171875,0.26513671875
4.756,376,2922,1153,1557,19.0,26.0,8.0,-25.207517623901367,-0.6713866591453552,-21.484373092651367,-1.6668701171875,0.4935302734375,0.3065185546875
4.756,332,3147,1005,1560,19.0,26.0,8.0,-64.63623046875,0.7934569716453552,-22.399900436401367,-1.6668701171875,0.4935302734375,0.3065185546875
4.776,411,2765,1108,1675,19.0,26.0,8.0,-69.27490234375,-11.047362327575684,-23.925779342651367,-1.312255859375,-0.201171875,0.4542236328125
4.777,411,2870,1067,1328,19.0,26.0,8.0,-69.27490234375,-11.047362327575684,-23.925779342651367,-0.9630126953125,-0.2921142578125,0.5208740234375
4.779,411,2737,1054,1653,19.0,26.0,8.0,-33.5693359375,-12.145995140075684,-22.155759811401367,-0.9630126953125,-0.2921142578125,0.5208740234375
4.793,411,2652,951,1506,19.0,26.0,8.0,24.414060592651367,6.164550304412842,-14.465331077575684,-0.83251953125,0.2119140625,0.521728515625
4.801,398,2627,1012,1600,19.0,26.0,8.0,24.414060592651367,6.164550304412842,-14.465331077575684,-0.9058837890625,0.360595703125,0.402587890625
4.809,391,2559,1003,1604,19.0,26.0,8.0,16.9677734375,23.010251998901367,-9.6435546875,-0.9058837890625,0.360595703125,0.402587890625
4.825,375,2601,966,1401,19.0,26.0,8.0,-5.920409679412842,40.466304779052734,-11.535643577575684,-1.1163330078125,0.306396484375,0.2987060546875
4.831,390,2504,1010,1561,19.0,26.0,8.0,-5.920409679412842,40.466304779052734,-11.535643577575684,-1.321044921875,0.3089599609375,0.3189697265625
4.839,377,2479,989,1555,20.0,30.0,9.0,-13.488768577575684,37.41455078125,-13.610838890075684,-1.321044921875,0.3089599609375,0.3189697265625
4.862,376,2456,853,1386,20.0,30.0,9.0,-25.329587936401367,28.991697311401367,-10.803221702575684,-1.3760986328125,0.0665283203125,0.2960205078125
4.862,369,2478,833,1472,20.0,30.0,9.0,-32.40966796875,18.12744140625,-4.39453125,-1.3760986328125,0.0665283203125,0.2960205078125
4.874,348,2471,765,1433,20.0,30.0,9.0,-24.902341842651367,5.981444835662842,4.69970703125,-1.2947998046875,-0.075439453125,0.2589111328125
4.883,328,2471,567,1269,20.0,30.0,9.0,-10.070799827575684,-6.164550304412842,17.2119140625,-1.2523193359375,-0.118408203125,0.2672119140625
4.891,315,2445,543,1363,20.0,30.0,9.0,1.4648436307907104,-16.90673828125,33.02001953125,-1.2523193359375,-0.118408203125,0.2672119140625
4.899,305,2428,479,1323,20.0,30.0,9.0,10.375975608825684,-24.719236373901367,48.583980560302734,-1.2283935546875,-0.0765380859375,0.3040771484375
4.915,299,2330,388,1189,20.0,30.0,9.0,20.629880905151367,-27.038572311401367,59.631343841552734,-1.081787109375,-0.0146484375,0.3333740234375
4.922,294,2279,418,1237,20.0,30.0,9.0,32.77587890625,-21.728513717651367,65.24658203125,-1.081787109375,-0.0146484375,0.3333740234375
4.929,289,2131,419,1209,20.0,30.0,9.0,44.555660247802734,-10.864256858825684,66.71142578125,-0.9580078125,0.080810546875,0.325439453125
4.948,289,1980,391,1063,16.0,29.0,6.0,53.955074310302734,2.01416015625,62.927242279052734,-0.5135498046875,-0.007080078125,0.3770751953125
4.961,286,1882,456,1095,16.0,29.0,6.0,66.58935546875,15.319823265075684,52.124019622802734,-0.5135498046875,-0.007080078125,0.3770751953125
4.961,279,1850,347,954,16.0,29.0,6.0,85.87645721435547,27.526853561401367,38.14697265625,-0.4034423828125,-0.0833740234375,0.4276123046875
4.980,304,1676,427,904,16.0,29.0,6.0,101.98973846435547,38.4521484375,31.372068405151367,-0.56884765625,0.3883056640625,0.099609375
4.983,338,1681,423,902,16.0,29.0,6.0,99.73143768310547,50.292964935302734,33.935546875,-0.56884765625,0.3883056640625,0.099609375
4.989,318,1561,428,890,16.0,29.0,6.0,78.125,57.678218841552734,36.43798828125,-0.690673828125,0.5360107421875,-0.0341796875
5.003,302,1419,411,816,16.0,29.0,6.0,53.649898529052734,53.649898529052734,35.888671875,-0.695068359375,0.5516357421875,-0.0115966796875
5.012,302,1393,430,859,16.0,29.0,6.0,34.85107421875,42.785640716552734,36.376953125,-0.695068359375,0.5516357421875,-0.0115966796875
5.019,308,1395,437,859,16.0,29.0,6.0,16.05224609375,31.311033248901367,38.4521484375,-0.6397705078125,0.535400390625,0.058837890625
5.033,304,1437,433,894,16.0,29.0,6.0,-4.69970703125,21.118162155151367,38.63525390625,-0.6717529296875,0.398681640625,0.2117919921875
5.042,306,1463,444,910,17.0,33.0,9.0,-18.1884765625,12.573241233825684,33.14208984375,-0.6717529296875,0.398681640625,0.2117919921875
5.063,294,1494,439,934,17.0,33.0,9.0,-18.5546875,5.249022960662842,23.254392623901367,-0.6968994140625,0.3359375,0.243408203125
5.063,299,1557,427,912,17.0,33.0,9.0,-12.329100608825684,-2.13623046875,12.939452171325684,-0.6912841796875,0.3284912109375,0.22509765625
5.072,304,1592,447,999,17.0,33.0,9.0,-8.1787109375,-9.033203125,4.150390625,-0.6912841796875,0.3284912109375,0.22509765625
5.089,302,1634,445,1024,17.0,33.0,9.0,-9.521484375,-12.817381858825684,-2.3193359375,-0.6370849609375,0.31103515625,0.1802978515625
5.093,309,1744,462,1070,17.0,33.0,9.0,-14.160155296325684,-14.587401390075684,-7.080077648162842,-0.6082763671875,0.31787109375,0.1549072265625
5.102,313,1830,465,1109,17.0,33.0,9.0,-19.22607421875,-17.88330078125,-12.451170921325684,-0.603515625,0.34423828125,0.1407470703125
5.109,321,1973,462,1078,17.0,33.0,9.0,-25.756834030151367,-22.888181686401367,-19.287109375,-0.6307373046875,0.3868408203125,0.1326904296875
5.123,327,2087,441,1038,17.0,33.0,9.0,-36.07177734375,-29.602048873901367,-26.367185592651367,-0.646240234375,0.4503173828125,0.139892578125
5.132,321,2167,512,1146,17.0,33.0,9.0,-53.466793060302734,-36.92626953125,-32.8369140625,-0.607421875,0.4398193359375,0.1776123046875
5.140,318,2223,531,1183,16.0,34.0,7.0,-74.64599609375,-41.198726654052734,-37.90283203125,-0.5926513671875,0.3487548828125,0.240966796875
5.165,323,2287,526,1149,16.0,34.0,7.0,-88.92821502685547,-41.503902435302734,-39.61181640625,-0.616455078125,0.2567138671875,0.2877197265625
5.165,318,2430,564,1278,16.0,34.0,7.0,-89.35546112060547,-38.26904296875,-36.43798828125,-0.6610107421875,0.2371826171875,0.282958984375
5.169,321,2404,566,1316,16.0,34.0,7.0,-77.2705078125,-33.0810546875,-29.357908248901367,-0.762939453125,0.3203125,0.2490234375
5.183,333,2487,599,1276,16.0,34.0,7.0,-63.415523529052734,-30.151365280151367,-22.888181686401367,-0.9390869140625,0.41748046875,0.2562255859375
5.197,338,2543,733,1401,16.0,34.0,7.0,-59.387203216552734,-31.921384811401367,-21.850584030151367,-1.2215576171875,0.45556640625,0.2755126953125
5.201,354,2785,653,1382,16.0,34.0,7.0,-68.115234375,-36.07177734375,-26.123044967651367,-1.4986572265625,0.2916259765625,0.240966796875
5.213,359,2733,767,1357,16.0,34.0,7.0,-78.2470703125,-37.78076171875,-32.53173828125,-1.4869384765625,-0.1055908203125,0.2021484375
5.221,364,2756,840,1527,16.0,34.0,7.0,-69.9462890625,-35.70556640625,-36.56005859375,-1.191162109375,-0.424072265625,0.2296142578125
5.229,371,2789,853,1543,16.0,34.0,7.0,-38.330078125,-33.26416015625,-33.63037109375,-0.8936767578125,-0.390869140625,0.320556640625
5.245,377,2842,818,1440,21.0,29.0,7.0,-1.5258787870407104,-31.372068405151367,-25.024412155151367,-0.7596435546875,-0.07861328125,0.4259033203125
5.274,383,2890,939,1580,21.0,29.0,7.0,19.1650390625,-26.672361373901367,-17.578125,-0.803466796875,0.2330322265625,0.5096435546875
5.275,345,3147,868,1550,21.0,29.0,7.0,15.747069358825684,-17.333984375,-14.160155296325684,-1.004150390625,0.4429931640625,0.5745849609375
5.275,388,2867,935,1506,21.0,29.0,7.0,-3.601073980331421,-6.469726085662842,-12.939452171325684,-1.28369140625,0.57763671875,0.6123046875
5.281,389,2875,1031,1616,21.0,29.0,7.0,-25.207517623901367,1.4038084745407104,-13.732909202575684,-1.4703369140625,0.5521240234375,0.59228515625
5.289,388,2795,1050,1627,21.0,29.0,7.0,-38.0859375,4.2724609375,-15.930174827575684,-1.39453125,0.3154296875,0.515380859375
5.303,399,2750,972,1483,21.0,29.0,7.0,-33.26416015625,4.08935546875,-17.88330078125,-1.1070556640625,-0.0047607421875,0.4464111328125
5.311,391,2728,1043,1616,21.0,29.0,7.0,-12.023924827575684,4.94384765625,-17.88330078125,-0.8941650390625,-0.1253662109375,0.4365234375
5.319,382,2701,1024,1597,21.0,29.0,7.0,6.958007335662842,9.82666015625,-14.587401390075684,-0.8612060546875,-0.0120849609375,0.44775390625
5.333,378,2621,933,1483,21.0,26.0,3.0,10.925292015075684,20.935056686401367,-9.94873046875,-0.8970947265625,0.1292724609375,0.4342041015625
5.342,381,2593,1004,1550,21.0,26.0,3.0,4.82177734375,35.70556640625,-7.019042491912842,-0.9443359375,0.203125,0.4063720703125
5.350,376,2569,1018,1541,21.0,26.0,3.0,-3.234863042831421,47.607418060302734,-6.652831554412842,-1.048583984375,0.2562255859375,0.402587890625
5.370,383,2521,947,1393,21.0,26.0,3.0,-11.352538108825684,51.879878997802734,-6.835937023162842,-1.2601318359375,0.364013671875,0.4090576171875
5.371,362,2716,855,1472,21.0,26.0,3.0,-24.414060592651367,46.874996185302734,-5.187987804412842,-1.4501953125,0.4114990234375,0.3797607421875
5.379,370,2464,996,1494,21.0,26.0,3.0,-38.4521484375,34.97314453125,-1.7700194120407104,-1.471435546875,0.28662109375,0.32080078125
5.394,364,2424,858,1313,21.0,26.0,3.0,-40.527339935302734,20.507810592651367,2.807616949081421,-1.3643798828125,0.0760498046875,0.2713623046875
5.407,359,2394,856,1398,21.0,26.0,3.0,-30.212400436401367,7.080077648162842,9.765625,-1.251953125,-0.0809326171875,0.2569580078125
5.409,346,2400,805,1343,21.0,26.0,3.0,-17.7001953125,-3.967284917831421,21.484373092651367,-1.1876220703125,-0.1337890625,0.274169921875
5.423,332,2350,666,1199,21.0,26.0,3.0,-8.1787109375,-12.268065452575684,36.68212890625,-1.1458740234375,-0.1258544921875,0.300537109375
5.431,323,2298,653,1282,19.0,30.0,7.0,1.7700194120407104,-16.78466796875,49.865718841552734,-1.10791015625,-0.1114501953125,0.3243408203125
5.439,306,2321,575,1206,19.0,30.0,7.0,17.2119140625,-15.869139671325684,56.945796966552734,-1.0802001953125,-0.082763671875,0.3382568359375
5.453,300,2118,481,1056,19.0,30.0,7.0,38.02490234375,-9.46044921875,59.509273529052734,-1.0269775390625,-0.01416015625,0.344970703125
5.474,294,2024,525,1095,19.0,30.0,7.0,57.922359466552734,0.9765624403953552,59.204097747802734,-0.898681640625,-0.0081787109375,0.34033203125
5.474,292,1931,493,1042,19.0,30.0,7.0,74.70703125,14.465331077575684,53.588863372802734,-0.7171630859375,-0.1300048828125,0.3173828125
5.485,280,1744,438,883,19.0,30.0,7.0,94.36034393310547,29.663084030151367,43.518062591552734,-0.570556640625,-0.1971435546875,0.2838134765625
5.492,282,1635,437,887,19.0,30.0,7.0,116.69921112060547,42.602535247802734,37.17041015625,-0.5064697265625,-0.0616455078125,0.20068359375
5.499,287,1580,430,848,19.0,30.0,7.0,134.33837890625,51.818843841552734,39.9169921875,-0.530029296875,0.200439453125,0.0777587890625
5.554,294,1336,417,705,19.0,30.0,7.0,142.02880859375,55.419918060302734,47.058101654052734,-0.5447998046875,0.3970947265625,0.00439453125
5.570,299,1262,460,714,19.0,30.0,7.0,135.8642578125,51.574703216552734,55.114742279052734,-0.4903564453125,0.503173828125,0.001708984375
5.574,304,1225,470,697,17.0,31.0,13.0,116.88231658935547,43.029781341552734,64.697265625,-0.4871826171875,0.64111328125,0.050048828125
5.574,304,1323,468,702,17.0,31.0,13.0,89.53856658935547,29.846189498901367,68.84765625,-0.5565185546875,0.775146484375,0.1229248046875
5.574,304,1290,462,737,17.0,31.0,13.0,59.326168060302734,13.732909202575684,58.959957122802734,-0.6292724609375,0.8092041015625,0.1646728515625
5.575,295,1336,454,753,17.0,31.0,13.0,59.326168060302734,13.732909202575684,58.959957122802734,-0.6708984375,0.7117919921875,0.1768798828125
5.575,292,1422,402,730,17.0,31.0,13.0,18.24951171875,-8.7890625,17.39501953125,-0.6944580078125,0.55419921875,0.196044921875
5.585,282,1478,426,767,17.0,31.0,13.0,9.33837890625,-15.686034202575684,1.4648436307907104,-0.7022705078125,0.4342041015625,0.2303466796875
5.589,286,1503,427,808,17.0,31.0,13.0,9.33837890625,-15.686034202575684,1.4648436307907104,-0.6617431640625,0.3348388671875,0.2490234375
5.605,289,1616,383,800,17.0,31.0,13.0,-3.479003667831421,-23.986814498901367,-16.11328125,-0.6229248046875,0.2635498046875,0.2467041015625
5.611,289,1702,411,887,17.0,31.0,13.0,-11.901854515075684,-23.620603561401367,-19.1650390625,-0.6253662109375,0.2857666015625,0.239013671875
5.619,292,1772,414,919,17.0,31.0,13.0,-11.901854515075684,-23.620603561401367,-19.1650390625,-0.6224365234375,0.34716796875,0.20947265625
5.633,294,1856,373,917,17.0,32.0,11.0,-36.1328125,-23.498533248901367,-20.935056686401367,-0.634765625,0.4012451171875,0.154541015625
5.642,292,1927,391,1013,17.0,32.0,11.0,-51.696773529052734,-27.221677780151367,-22.155759811401367,-0.659423828125,0.4381103515625,0.126220703125
5.649,291,2037,404,1000,17.0,32.0,11.0,-51.696773529052734,-27.221677780151367,-22.155759811401367,-0.6473388671875,0.4034423828125,0.1688232421875
5.677,292,2087,385,1026,17.0,32.0,11.0,-83.98436737060547,-41.992183685302734,-28.869626998901367,-0.6304931640625,0.326416015625,0.2347412109375
5.678,289,2361,310,1085,17.0,32.0,11.0,-96.06932830810547,-44.555660247802734,-32.65380859375,-0.6114501953125,0.2479248046875,0.27734375
5.679,304,2284,478,1178,17.0,32.0,11.0,-96.06932830810547,-44.555660247802734,-32.65380859375,-0.5494384765625,0.172119140625,0.2818603515625
5.694,314,2323,493,1143,17.0,32.0,11.0,-87.89061737060547,-34.66796875,-35.64453125,-0.5225830078125,0.189208984375,0.2445068359375
5.701,318,2421,601,1292,17.0,32.0,11.0,-72.998046875,-27.038572311401367,-35.0341796875,-0.663330078125,0.32861328125,0.1903076171875
5.709,327,2486,658,1343,17.0,32.0,11.0,-72.998046875,-27.038572311401367,-35.0341796875,-0.9346923828125,0.3492431640625,0.1070556640625
5.726,347,2612,689,1303,15.0,28.0,7.0,-79.4677734375,-20.568845748901367,-38.818359375,-1.1259765625,0.1788330078125,0.03515625
5.732,354,2717,813,1452,15.0,28.0,7.0,-80.50536346435547,-18.6767578125,-46.447750091552734,-1.066162109375,0.0491943359375,0.063232421875
5.758,364,2695,891,1516,15.0,28.0,7.0,-80.50536346435547,-18.6767578125,-46.447750091552734,-0.896484375,0.040283203125,0.170654296875
5.758,376,2795,998,1550,15.0,28.0,7.0,-58.044429779052734,-21.606443405151367,-62.927242279052734,-0.8892822265625,0.0440673828125,0.319580078125
5.761,398,2798,1050,1599,15.0,28.0,7.0,-51.330562591552734,-20.751951217651367,-61.523433685302734,-1.10498046875,0.028076171875,0.5133056640625
5.783,398,2777,1122,1653,15.0,28.0,7.0,-51.330562591552734,-20.751951217651367,-61.523433685302734,-1.10498046875,0.028076171875,0.5133056640625
5.784,403,2833,1103,1492,15.0,28.0,7.0,-36.92626953125,-8.9111328125,-46.081539154052734,-1.6416015625,0.1494140625,0.8179931640625
5.791,404,2810,1213,1683,15.0,28.0,7.0,-36.92626953125,-8.9111328125,-46.081539154052734,-1.794189453125,0.2711181640625,0.8497314453125
5.799,405,2776,1199,1693,15.0,28.0,7.0,-35.33935546875,0.0,-34.66796875,-1.794189453125,0.2711181640625,0.8497314453125
5.813,409,2748,1108,1521,15.0,28.0,7.0,-15.563963890075684,17.15087890625,-23.315427780151367,-1.3558349609375,0.067138671875,0.54736328125
5.821,414,2665,1183,1681,19.0,28.0,5.0,-15.563963890075684,17.15087890625,-23.315427780151367,-0.9720458984375,-0.0450439453125,0.4532470703125
5.838,404,2607,1173,1643,19.0,28.0,5.0,12.939452171325684,29.541013717651367,-29.663084030151367,-0.9720458984375,-0.0450439453125,0.4532470703125
5.843,407,2505,1222,1641,19.0,28.0,5.0,24.719236373901367,60.241695404052734,-33.50830078125,-0.92724609375,0.306640625,0.4375
5.852,414,2473,1222,1616,19.0,28.0,5.0,24.719236373901367,60.241695404052734,-33.50830078125,-1.2572021484375,0.4864501953125,0.435791015625
5.859,426,2368,1269,1638,19.0,28.0,5.0,3.051757574081421,73.486328125,-30.273435592651367,-1.2572021484375,0.4864501953125,0.435791015625
5.882,423,2281,1214,1463,19.0,28.0,5.0,-57.495113372802734,63.232418060302734,-23.986814498901367,-1.8731689453125,0.500732421875,0.375
5.882,385,2266,1266,1540,19.0,28.0,5.0,-57.495113372802734,63.232418060302734,-23.986814498901367,-1.7139892578125,0.226806640625,0.295654296875
5.889,385,2178,1258,1487,19.0,28.0,5.0,-74.76806640625,47.485347747802734,-22.338865280151367,-1.7139892578125,0.226806640625,0.295654296875
5.906,385,2076,1079,1294,19.0,28.0,5.0,-39.12353515625,17.822265625,-12.756346702575684,-1.1539306640625,-0.297119140625,0.2301025390625
5.911,371,2041,1054,1323,19.0,28.0,5.0,-39.12353515625,17.822265625,-12.756346702575684,-1.0115966796875,-0.4124755859375,0.190673828125
5.919,356,1948,975,1290,22.0,28.0,2.0,-19.22607421875,8.1787109375,3.601073980331421,-1.0115966796875,-0.4124755859375,0.190673828125
5.946,334,1943,748,1131,22.0,28.0,2.0,9.765625,-7.507323741912842,45.776363372802734,-0.92431640625,-0.462158203125,0.0855712890625
5.946,318,1948,703,1173,22.0,28.0,2.0,9.765625,-7.507323741912842,45.776363372802734,-0.8819580078125,-0.3642578125,0.0556640625
5.951,311,1904,630,1125,22.0,28.0,2.0,31.860349655151367,-13.122557640075684,58.837886810302734,-0.8819580078125,-0.3642578125,0.0556640625
5.963,292,1716,535,978,22.0,28.0,2.0,79.28466796875,-13.122557640075684,68.05419921875,-0.708984375,-0.1575927734375,0.117919921875
5.985,291,1652,547,988,22.0,28.0,2.0,79.28466796875,-13.122557640075684,68.05419921875,-0.5899658203125,-0.210205078125,0.1693115234375
5.985,287,1615,497,934,22.0,28.0,2.0,97.04589080810547,-4.8828125,64.453125,-0.5899658203125,-0.210205078125,0.1693115234375
5.998,279,1521,458,872,22.0,28.0,2.0,142.88330078125,19.4091796875,53.283687591552734,-0.4056396484375,-0.0191650390625,0.2130126953125
6.003,286,1480,455,844,22.0,28.0,2.0,142.88330078125,19.4091796875,53.283687591552734,-0.4056396484375,-0.0191650390625,0.2130126953125
6.009,298,1437,430,785,22.0,28.0,2.0,157.16552734375,26.367185592651367,53.894039154052734,-0.4378662109375,0.2733154296875,0.15478515625
6.023,294,1328,428,698,17.0,30.0,8.0,156.18896484375,26.367185592651367,59.143062591552734,-0.482666015625,0.6240234375,0.1146240234375
6.032,292,1335,456,753,17.0,30.0,8.0,140.19775390625,19.95849609375,65.3076171875,-0.482666015625,0.6240234375,0.1146240234375
6.057,292,1401,468,731,17.0,30.0,8.0,116.76024627685547,10.986327171325684,71.77734375,-0.5052490234375,0.7032470703125,0.1309814453125
6.057,298,1501,433,736,17.0,30.0,8.0,91.24755096435547,-0.54931640625,73.79150390625,-0.640869140625,0.7353515625,0.208984375
6.061,300,1531,426,792,17.0,30.0,8.0,62.927242279052734,-13.977049827575684,64.0869140625,-0.640869140625,0.7353515625,0.208984375
6.088,292,1588,432,814,17.0,30.0,8.0,35.33935546875,-24.353025436401367,44.250484466552734,-0.677001953125,0.630615234375,0.2479248046875
6.088,275,1713,371,826,17.0,30.0,8.0,12.207030296325684,-28.381345748901367,21.850584030151367,-0.6060791015625,0.3785400390625,0.2425537109375
6.092,292,1781,419,906,17.0,30.0,8.0,-6.774901866912842,-26.977537155151367,3.112792730331421,-0.6060791015625,0.3785400390625,0.2425537109375
6.099,294,1779,445,938,17.0,30.0,8.0,-22.827146530151367,-23.681638717651367,-9.033203125,-0.5888671875,0.3631591796875,0.19189453125
6.113,294,1848,419,938,17.0,30.0,8.0,-38.14697265625,-20.935056686401367,-15.075682640075684,-0.658447265625,0.465087890625,0.119873046875
6.122,296,1922,473,1022,16.0,30.0,11.0,-56.762691497802734,-19.287109375,-17.63916015625,-0.658447265625,0.465087890625,0.119873046875
6.130,300,1971,497,1067,16.0,30.0,11.0,-80.56639862060547,-20.629880905151367,-18.98193359375,-0.7108154296875,0.4591064453125,0.1544189453125
6.143,306,2073,485,1043,16.0,30.0,11.0,-104.18700408935547,-25.451658248901367,-20.751951217651367,-0.633056640625,0.219970703125,0.219482421875
6.152,302,2156,525,1132,16.0,30.0,11.0,-117.49266815185547,-30.883787155151367,-22.705076217651367,-0.633056640625,0.219970703125,0.219482421875
6.159,301,2233,513,1163,16.0,30.0,11.0,-111.69432830810547,-34.912109375,-23.071287155151367,-0.5556640625,0.1153564453125,0.180908203125
6.189,315,2308,523,1160,16.0,30.0,11.0,-86.73094940185547,-37.41455078125,-20.996091842651367,-0.4989013671875,0.21923828125,0.238037109375
6.189,323,2409,614,1317,16.0,30.0,11.0,-56.823726654052734,-40.0390625,-19.47021484375,-0.4989013671875,0.21923828125,0.238037109375
6.190,334,2530,679,1351,16.0,30.0,11.0,-43.518062591552734,-43.762203216552734,-25.146482467651367,-0.7156982421875,0.2677001953125,0.3226318359375
6.203,356,2647,754,1335,16.0,30.0,11.0,-56.640621185302734,-43.151851654052734,-40.649410247802734,-0.996337890625,-0.2012939453125,0.357666015625
6.212,363,2713,867,1506,16.0,30.0,11.0,-71.2890625,-31.249998092651367,-58.288570404052734,-0.996337890625,-0.2012939453125,0.357666015625
6.220,364,2772,910,1548,16.0,27.0,4.0,-57.373043060302734,-13.732909202575684,-63.842769622802734,-0.94580078125,-0.111572265625,0.355224609375
6.233,409,2683,917,1548,16.0,27.0,4.0,-29.968259811401367,-1.0986328125,-54.565425872802734,-1.0006103515625,0.125,0.3128662109375
6.242,411,2704,1050,1727,16.0,27.0,4.0,-15.014647483825684,3.234863042831421,-42.724605560302734,-1.1510009765625,0.2139892578125,0.289306640625
6.249,420,2713,1079,1757,16.0,27.0,4.0,-10.070799827575684,0.7934569716453552,-36.43798828125,-1.3369140625,0.2215576171875,0.3651123046875
6.263,426,2713,1078,1636,16.0,27.0,4.0,-8.9111328125,-3.051757574081421,-33.203125,-1.5362548828125,0.3177490234375,0.5023193359375
6.271,411,2799,1195,1739,16.0,27.0,4.0,-15.747069358825684,-4.57763671875,-28.564451217651367,-1.711181640625,0.419189453125,0.607666015625
6.292,411,2803,1184,1735,16.0,27.0,4.0,-26.977537155151367,-4.150390625,-22.644041061401367,-1.811767578125,0.384521484375,0.6483154296875
6.294,355,2922,992,1700,16.0,27.0,4.0,-31.311033248901367,-1.4038084745407104,-19.04296875,-1.606201171875,0.125244140625,0.6051025390625
6.301,416,2704,1184,1698,16.0,27.0,4.0,-17.7001953125,7.812499523162842,-20.629880905151367,-1.150634765625,-0.123046875,0.5467529296875
6.310,404,2683,1199,1676,16.0,27.0,4.0,9.33837890625,23.376462936401367,-24.658201217651367,-0.8497314453125,-0.0191650390625,0.5438232421875
6.323,437,2432,1156,1553,21.0,30.0,10.0,22.399900436401367,42.846675872802734,-27.709959030151367,-0.807861328125,0.2425537109375,0.526611328125
6.331,445,2337,1251,1735,21.0,30.0,10.0,12.268065452575684,64.5751953125,-31.249998092651367,-0.9261474609375,0.3939208984375,0.4888916015625
6.339,452,2279,1292,1735,21.0,30.0,10.0,-2.929687261581421,82.64159393310547,-37.353515625,-1.2313232421875,0.5228271484375,0.5111083984375
6.353,445,2212,1268,1569,21.0,30.0,10.0,-21.545408248901367,90.88134002685547,-43.579097747802734,-1.63818359375,0.650634765625,0.5308837890625
6.366,445,2113,1343,1678,21.0,30.0,10.0,-50.109859466552734,88.92821502685547,-47.241207122802734,-1.82373046875,0.5615234375,0.4530029296875
6.369,430,2142,1397,1555,21.0,30.0,10.0,-66.95556640625,79.52880859375,-49.072261810302734,-1.6856689453125,0.2679443359375,0.3438720703125
6.399,418,1951,1312,1331,21.0,30.0,10.0,-57.495113372802734,65.97900390625,-47.607418060302734,-1.4002685546875,-0.0421142578125,0.2669677734375
6.399,396,1936,1592,1231,21.0,30.0,10.0,-38.39111328125,52.062984466552734,-38.14697265625,-1.163330078125,-0.278564453125,0.193359375
6.400,371,1848,1213,1265,21.0,30.0,10.0,-25.878904342651367,38.57421875,-17.63916015625,-1.0413818359375,-0.4222412109375,0.0841064453125
6.418,364,1801,1067,1112,22.0,29.0,1.0,-19.83642578125,23.254392623901367,11.169432640075684,-0.9903564453125,-0.537109375,-0.0440673828125
6.421,351,1889,913,1136,22.0,29.0,1.0,-7.568358898162842,6.347655773162842,39.24560546875,-0.9808349609375,-0.631103515625,-0.134765625
6.429,334,1786,933,1129,22.0,29.0,1.0,19.1650390625,-9.765625,60.424800872802734,-0.99072265625,-0.5753173828125,-0.1453857421875
6.444,316,1727,748,944,22.0,29.0,1.0,48.767086029052734,-23.193357467651367,75.37841796875,-0.9664306640625,-0.3734130859375,-0.059814453125
6.453,300,1744,754,888,22.0,29.0,1.0,66.22314453125,-31.555173873901367,85.63231658935547,-0.8853759765625,-0.201171875,0.0611572265625
6.497,294,1546,629,883,22.0,29.0,1.0,71.59423828125,-31.494138717651367,91.12548065185547,-0.76904296875,-0.1710205078125,0.1173095703125
6.497,280,1373,537,829,22.0,29.0,1.0,77.94189453125,-21.423337936401367,92.16307830810547,-0.6600341796875,-0.22900390625,0.130615234375
6.498,274,1341,473,799,22.0,29.0,1.0,95.45897674560547,-5.798339366912842,88.98925018310547,-0.54248046875,-0.2218017578125,0.1451416015625
6.498,272,1266,465,738,22.0,29.0,1.0,122.37548065185547,9.70458984375,84.22850799560547,-0.4017333984375,-0.0623779296875,0.127197265625
6.507,265,1026,472,644,22.0,29.0,1.0,150.08544921875,23.498533248901367,81.90917205810547,-0.318359375,0.208984375,0.11181640625
6.511,274,853,491,607,16.0,29.0,11.0,163.02488708496094,33.447265625,83.67919158935547,-0.3363037109375,0.5323486328125,0.165771484375
6.519,273,891,493,636,16.0,29.0,11.0,145.5078125,36.0107421875,88.31786346435547,-0.4752197265625,0.8656005859375,0.259033203125
6.533,275,936,473,614,16.0,29.0,11.0,98.26659393310547,29.663084030151367,83.31298065185547,-0.6881103515625,1.029541015625,0.2724609375
6.541,275,973,490,661,16.0,29.0,11.0,42.297359466552734,17.51708984375,51.391597747802734,-0.683837890625,0.844482421875,0.254638671875
6.551,275,1047,481,673,16.0,29.0,11.0,2.563476324081421,8.36181640625,13.427733421325684,-0.553955078125,0.655029296875,0.2862548828125
6.566,273,1157,456,673,16.0,29.0,11.0,-16.54052734375,3.662109136581421,-1.2817381620407104,-0.5985107421875,0.6829833984375,0.237548828125
6.578,274,1217,479,724,16.0,29.0,11.0,-24.658201217651367,-0.9765624403953552,-5.554198741912842,-0.696044921875,0.6641845703125,0.1162109375
6.579,268,1441,521,731,16.0,29.0,11.0,-31.616209030151367,-7.690429210662842,-14.343260765075684,-0.704345703125,0.53857421875,0.06396484375
6.598,277,1372,468,759,16.0,29.0,11.0,-43.090816497802734,-15.808104515075684,-22.583005905151367,-0.6519775390625,0.4052734375,0.0867919921875
6.602,280,1494,500,800,16.0,29.0,11.0,-58.532711029052734,-23.193357467651367,-24.658201217651367,-0.624267578125,0.3104248046875,0.11376953125
6.610,279,1529,519,874,18.0,33.0,3.0,-77.63671875,-30.090330123901367,-21.179197311401367,-0.633544921875,0.242919921875,0.123046875
6.624,289,1681,501,846,18.0,33.0,3.0,-98.81591033935547,-36.2548828125,-14.648436546325684,-0.677001953125,0.160888671875,0.13720703125
6.631,291,1698,548,966,18.0,33.0,3.0,-112.48778533935547,-39.4287109375,-7.324218273162842,-0.762939453125,0.1248779296875,0.1773681640625
6.640,292,1770,555,998,18.0,33.0,3.0,-111.02294158935547,-41.381832122802734,-1.6479490995407104,-0.8177490234375,0.1424560546875,0.2459716796875
6.653,299,1892,532,947,18.0,33.0,3.0,-97.22899627685547,-43.457027435302734,-0.4882812201976776,-0.806640625,0.1322021484375,0.3148193359375
6.661,298,1959,576,1055,18.0,33.0,3.0,-74.27978515625,-42.968746185302734,-2.624511480331421,-0.7786865234375,0.104248046875,0.35205078125
6.670,300,2012,598,1069,18.0,33.0,3.0,-46.447750091552734,-39.00146484375,-4.150390625,-0.697998046875,0.087646484375,0.3731689453125
6.701,306,2117,487,1097,18.0,33.0,3.0,-23.071287155151367,-34.11865234375,-5.615233898162842,-0.54736328125,0.111572265625,0.37109375
6.702,308,2242,684,1095,18.0,33.0,3.0,-12.390135765075684,-31.311033248901367,-10.742186546325684,-0.3717041015625,0.1458740234375,0.3526611328125
6.702,313,2347,593,1195,18.0,33.0,3.0,-12.390135765075684,-31.311033248901367,-10.742186546325684,-0.3140869140625,0.19873046875,0.3687744140625
6.713,336,2395,710,1213,18.0,30.0,9.0,-19.6533203125,-31.372068405151367,-40.222164154052734,-0.5096435546875,0.2855224609375,0.381103515625
6.722,351,2467,874,1399,18.0,30.0,9.0,-28.320310592651367,-26.306150436401367,-59.570308685302734,-0.798583984375,0.282958984375,0.3187255859375
6.732,373,2442,951,1467,18.0,30.0,9.0,-28.320310592651367,-26.306150436401367,-59.570308685302734,-1.0025634765625,0.2547607421875,0.144287109375
6.744,383,2525,1034,1404,18.0,30.0,9.0,-33.14208984375,3.601073980331421,-71.22802734375,-1.150390625,0.3609619140625,-0.05810546875
6.752,400,2593,1249,1543,18.0,30.0,9.0,-24.841306686401367,8.23974609375,-61.401363372802734,-1.3255615234375,0.41064453125,-0.1290283203125
6.759,407,2568,1260,1627,18.0,30.0,9.0,-24.841306686401367,8.23974609375,-61.401363372802734,-1.5474853515625,0.191650390625,0.0269775390625
6.773,414,2677,1253,1478,18.0,30.0,9.0,-36.43798828125,-11.718749046325684,-52.551265716552734,-1.7213134765625,-0.0679931640625,0.359375
6.781,423,2717,1379,1675,18.0,30.0,9.0,-42.297359466552734,-19.47021484375,-44.677730560302734,-1.767578125,-0.1552734375,0.6446533203125
6.804,413,2753,1411,1669,18.0,30.0,9.0,-42.297359466552734,-19.47021484375,-44.677730560302734,-1.7061767578125,-0.0726318359375,0.7760009765625
6.804,413,2794,1343,1509,20.0,27.0,2.0,-20.629880905151367,-14.892577171325684,-18.310546875,-1.524658203125,0.074951171875,0.7984619140625
6.812,409,2780,1372,1636,20.0,27.0,2.0,-1.5869139432907104,-7.446288585662842,-9.33837890625,-1.1947021484375,0.112060546875,0.7210693359375
6.820,402,2717,1357,1632,20.0,27.0,2.0,-1.5869139432907104,-7.446288585662842,-9.33837890625,-0.9232177734375,0.1790771484375,0.60400390625
6.833,404,2591,1253,1430,20.0,27.0,2.0,37.841796875,25.146482467651367,-15.136717796325684,-0.8680419921875,0.36474609375,0.5152587890625
6.844,400,2525,1386,1569,20.0,27.0,2.0,35.70556640625,47.485347747802734,-26.000974655151367,-0.9498291015625,0.4696044921875,0.4500732421875
6.849,406,2478,1452,1550,20.0,27.0,2.0,35.70556640625,47.485347747802734,-26.000974655151367,-1.2327880859375,0.5101318359375,0.4560546875
6.863,420,2258,1415,1473,20.0,27.0,2.0,0.3662109076976776,81.29882049560547,-49.743648529052734,-1.671630859375,0.5467529296875,0.4754638671875
6.873,423,2201,1516,1574,20.0,27.0,2.0,-29.968259811401367,81.11571502685547,-53.283687591552734,-1.92333984375,0.4664306640625,0.4129638671875
6.880,426,2131,1518,1550,20.0,27.0,2.0,-29.968259811401367,81.11571502685547,-53.283687591552734,-1.8314208984375,0.2679443359375,0.3377685546875
6.908,428,1973,1387,1380,20.0,27.0,2.0,-45.166011810302734,57.006832122802734,-51.269527435302734,-1.533447265625,0.0372314453125,0.30126953125
6.908,402,1922,1540,1081,22.0,27.0,0.0,-31.433103561401367,41.809078216552734,-42.968746185302734,-1.2291259765625,-0.1934814453125,0.26171875
6.914,318,1921,1399,1274,22.0,27.0,0.0,-31.433103561401367,41.809078216552734,-42.968746185302734,-1.0284423828125,-0.3624267578125,0.16552734375
6.928,359,1679,1178,1047,22.0,27.0,0.0,-6.835937023162842,20.629880905151367,-3.540038824081421,-0.9100341796875,-0.4835205078125,0.027099609375
6.932,351,1766,1074,1050,22.0,27.0,0.0,-6.835937023162842,20.629880905151367,-3.540038824081421,-0.8370361328125,-0.6102294921875,-0.09814453125
6.939,346,1634,1078,1076,22.0,27.0,0.0,4.2724609375,8.4228515625,21.301267623901367,-0.8370361328125,-0.6102294921875,-0.09814453125
6.956,318,1665,784,923,22.0,27.0,0.0,48.400875091552734,-18.24951171875,61.035152435302734,-0.781494140625,-0.4827880859375,-0.1162109375
6.961,304,1641,725,971,22.0,27.0,0.0,48.400875091552734,-18.24951171875,61.035152435302734,-0.701416015625,-0.30078125,0.0103759765625
6.969,300,1592,667,951,22.0,27.0,0.0,71.10595703125,-30.578611373901367,74.15771484375,-0.701416015625,-0.30078125,0.0103759765625
6.983,292,1543,548,835,22.0,27.0,0.0,105.10253143310547,-28.869626998901367,78.43017578125,-0.4715576171875,-0.171630859375,0.17822265625
7.012,280,1560,548,837,22.0,27.0,0.0,105.10253143310547,-28.869626998901367,78.43017578125,-0.3841552734375,-0.035888671875,0.22021484375
7.012,280,1521,481,816,18.0,28.0,7.0,126.03759002685547,-13.183592796325684,69.88525390625,-0.3841552734375,-0.035888671875,0.22021484375
7.013,286,1595,431,840,18.0,28.0,7.0,142.333984375,17.88330078125,55.053707122802734,-0.4830322265625,0.599365234375,0.1588134765625
7.022,280,1514,456,838,18.0,28.0,7.0,142.333984375,17.88330078125,55.053707122802734,-0.62060546875,0.8260498046875,0.141845703125
7.030,280,1490,464,813,18.0,28.0,7.0,124.93895721435547,23.498533248901367,50.415035247802734,-0.62060546875,0.8260498046875,0.141845703125
7.043,282,1494,439,766,18.0,28.0,7.0,46.020503997802734,6.835937023162842,36.56005859375,-0.7249755859375,0.7913818359375,0.2017822265625
7.051,286,1564,501,784,18.0,28.0,7.0,46.020503997802734,6.835937023162842,36.56005859375,-0.7127685546875,0.6103515625,0.277587890625
7.059,289,1652,549,711,18.0,28.0,7.0,7.629394054412842,-5.126952648162842,29.418943405151367,-0.7127685546875,0.6103515625,0.277587890625
7.073,291,1675,585,579,18.0,28.0,7.0,-31.249998092651367,-16.9677734375,15.563963890075684,-0.7607421875,0.2855224609375,0.2332763671875
7.081,292,1683,619,687,18.0,28.0,7.0,-31.249998092651367,-16.9677734375,15.563963890075684,-0.8043212890625,0.176513671875,0.1495361328125
7.089,291,1722,634,679,18.0,28.0,7.0,-38.9404296875,-16.05224609375,14.831542015075684,-0.8043212890625,0.176513671875,0.1495361328125
7.115,292,1718,598,695,17.0,27.0,0.0,-60.607906341552734,-22.949216842651367,27.587888717651367,-0.8592529296875,0.0335693359375,0.0858154296875
7.115,291,1783,746,723,17.0,27.0,0.0,-60.607906341552734,-22.949216842651367,27.587888717651367,-0.8927001953125,0.020751953125,0.1068115234375
7.119,291,1745,631,827,17.0,27.0,0.0,-67.93212890625,-31.311033248901367,34.60693359375,-0.8927001953125,0.020751953125,0.1068115234375
7.134,292,1896,630,714,17.0,27.0,0.0,-66.40625,-44.128414154052734,40.222164154052734,-0.9224853515625,0.07861328125,0.2061767578125
7.141,289,1897,639,835,17.0,27.0,0.0,-66.40625,-44.128414154052734,40.222164154052734,-0.929443359375,0.1199951171875,0.3092041015625
7.150,293,1854,606,900,17.0,27.0,0.0,-57.800289154052734,-42.114253997802734,39.24560546875,-0.929443359375,0.1199951171875,0.3092041015625
7.163,298,1904,566,902,17.0,27.0,0.0,-43.151851654052734,-35.64453125,35.2783203125,-0.865234375,0.1900634765625,0.4749755859375
7.171,294,1954,628,918,17.0,27.0,0.0,-24.108884811401367,-26.550291061401367,27.038572311401367,-0.865234375,0.1900634765625,0.4749755859375
7.182,294,1987,614,1009,17.0,27.0,0.0,-4.82177734375,-16.54052734375,16.90673828125,-0.817138671875,0.22412109375,0.429931640625
7.193,300,2085,551,974,17.0,27.0,0.0,10.498045921325684,-9.6435546875,9.94873046875,-0.5960693359375,0.2132568359375,0.436767578125
7.219,300,2172,603,1079,15.0,28.0,2.0,22.277830123901367,-9.09423828125,6.347655773162842,-0.5960693359375,0.2132568359375,0.436767578125
7.219,306,2279,579,1105,15.0,28.0,2.0,32.65380859375,-13.244627952575684,3.356933355331421,-0.3372802734375,0.1575927734375,0.4593505859375
7.223,313,2412,628,1182,15.0,28.0,2.0,41.198726654052734,-17.333984375,-2.25830078125,0.2666015625,0.0673828125,0.27685546875
7.233,321,2486,679,1266,15.0,28.0,2.0,47.058101654052734,-18.310546875,-14.831542015075684,0.2666015625,0.0673828125,0.27685546875
7.239,332,2624,792,1323,15.0,28.0,2.0,49.133296966552734,-19.34814453125,-35.2783203125,0.2584228515625,0.2027587890625,0.2530517578125
7.253,356,2736,740,1317,15.0,28.0,2.0,42.297359466552734,-21.972654342651367,-52.490230560302734,-0.832763671875,1.21533203125,-0.0706787109375
7.261,364,2770,905,1487,15.0,28.0,2.0,18.9208984375,-16.11328125,-57.189937591552734,-0.832763671875,1.21533203125,-0.0706787109375
7.269,375,2798,1053,1545,15.0,28.0,2.0,-5.737304210662842,1.8920897245407104,-61.218257904052734,-1.39111328125,1.31103515625,-0.424072265625
7.284,402,2904,1249,1622,15.0,28.0,2.0,-25.634763717651367,12.756346702575684,-74.03564453125,-1.668212890625,0.0579833984375,-0.0699462890625
7.295,411,3006,1318,1623,15.0,28.0,2.0,-64.75830078125,3.540038824081421,-86.73094940185547,-1.668212890625,0.0579833984375,-0.0699462890625
7.325,414,2959,1343,1700,18.0,27.0,6.0,-103.27147674560547,-14.770506858825684,-86.48680877685547,-1.6707763671875,-0.6737060546875,0.3846435546875
7.325,414,3039,1372,1715,18.0,27.0,6.0,-96.86278533935547,-26.550291061401367,-69.580078125,-1.8505859375,-0.4451904296875,0.9329833984375
7.325,456,3147,1224,1709,18.0,27.0,6.0,-56.579586029052734,-29.418943405151367,-42.785640716552734,-1.8505859375,-0.4451904296875,0.9329833984375
7.331,413,3073,1266,1739,18.0,27.0,6.0,-22.338865280151367,-27.709959030151367,-13.183592796325684,-1.856689453125,-0.024169921875,0.90673828125
7.343,414,3062,1116,1641,18.0,27.0,6.0,-0.4882812201976776,-23.010251998901367,10.620116233825684,-1.0093994140625,0.230712890625,0.5179443359375
7.351,404,3059,1225,1713,18.0,27.0,6.0,26.184080123901367,-16.11328125,20.324705123901367,-1.0093994140625,0.230712890625,0.5179443359375
7.359,402,3020,1224,1704,18.0,27.0,6.0,48.095699310302734,-6.530761241912842,17.333984375,-0.76025390625,0.6368408203125,0.5531005859375
7.373,411,2935,1188,1540,18.0,27.0,6.0,41.564937591552734,12.695311546325684,2.197265625,-0.7694091796875,0.9278564453125,0.5914306640625
7.382,440,2760,1289,1757,18.0,27.0,6.0,16.90673828125,42.907711029052734,-26.428220748901367,-0.876953125,0.848876953125,0.56689453125
7.389,414,2801,1399,1678,18.0,27.0,6.0,-2.25830078125,72.509765625,-59.570308685302734,-1.107666015625,0.6494140625,0.5604248046875
7.418,430,2608,1388,1518,22.0,24.0,0.0,-15.686034202575684,91.43065643310547,-84.04540252685547,-1.492919921875,0.549072265625,0.548095703125
7.419,413,2590,1904,1344,22.0,24.0,0.0,-33.5693359375,99.67040252685547,-95.76415252685547,-1.7667236328125,0.3994140625,0.47314453125
7.419,440,2645,1387,1575,22.0,24.0,0.0,-45.959468841552734,102.29491424560547,-99.60936737060547,-1.7750244140625,0.1634521484375,0.3857421875
7.435,416,2172,1483,1422,22.0,24.0,0.0,-41.259761810302734,101.37938690185547,-99.18212127685547,-1.620849609375,0.0223388671875,0.386474609375
7.445,373,2763,1541,1398,22.0,24.0,0.0,-32.470703125,97.59520721435547,-93.81102752685547,-1.410888671875,-0.0076904296875,0.410400390625
7.451,409,2008,1463,1377,22.0,24.0,0.0,-32.2265625,91.97997283935547,-81.35985565185547,-1.20751953125,-0.1070556640625,0.328369140625
7.491,362,1757,1243,1120,22.0,24.0,0.0,-30.639646530151367,81.29882049560547,-61.401363372802734,-0.963623046875,-0.60791015625,-0.0892333984375
7.495,327,1945,1387,989,22.0,24.0,0.0,-20.202634811401367,61.035152435302734,-33.447265625,-0.963623046875,-0.60791015625,-0.0892333984375
7.499,365,1709,1269,899,22.0,24.0,0.0,-1.3427733182907104,34.423828125,1.220703125,-0.90478515625,-0.89013671875,-0.299560546875
7.501,336,1806,917,987,23.0,23.0,1.0,31.249998092651367,9.21630859375,35.5224609375,-0.904296875,-0.9713134765625,-0.3624267578125
7.526,314,1801,763,888,23.0,23.0,1.0,70.49560546875,-10.742186546325684,62.622066497802734,-0.9102783203125,-0.728271484375,-0.2669677734375
7.528,316,1559,828,784,23.0,23.0,1.0,93.32274627685547,-23.742673873901367,81.78710174560547,-0.8267822265625,-0.3680419921875,-0.1075439453125
7.543,300,1469,563,800,23.0,23.0,1.0,90.63719940185547,-28.686521530151367,93.93309783935547,-0.6546630859375,-0.2200927734375,-0.0103759765625
7.543,300,1317,571,794,23.0,23.0,1.0,80.13916015625,-24.536130905151367,99.24315643310547,-0.4638671875,-0.29638671875,-0.044677734375
7.543,292,1289,519,757,23.0,23.0,1.0,87.21923065185547,-12.390135765075684,99.30419158935547,-0.32421875,-0.31396484375,-0.1112060546875
7.550,291,1294,481,731,23.0,23.0,1.0,118.65233612060547,1.15966796875,97.16796112060547,-0.2874755859375,-0.102783203125,-0.0853271484375
7.563,279,1131,428,653,23.0,23.0,1.0,151.7333984375,8.4228515625,96.55760955810547,-0.3585205078125,0.3114013671875,0.009521484375
7.572,275,1115,435,691,23.0,23.0,1.0,156.43310546875,6.164550304412842,99.79247283935547,-0.4232177734375,0.7308349609375,0.0880126953125
7.580,279,1173,455,702,23.0,23.0,1.0,124.45067596435547,-2.807616949081421,105.16356658935547,-0.4344482421875,0.935791015625,0.1026611328125
7.594,280,1355,431,735,15.0,29.0,8.0,74.40185546875,-13.854979515075684,105.77391815185547,-0.521728515625,0.946044921875,0.1280517578125
7.601,275,1434,414,731,15.0,29.0,8.0,34.11865234375,-29.296873092651367,94.60448455810547,-0.6488037109375,0.865234375,0.2427978515625
7.622,275,1533,423,707,15.0,29.0,8.0,16.41845703125,-47.424312591552734,70.73974609375,-0.67724609375,0.734619140625,0.3253173828125
7.623,277,1560,411,725,15.0,29.0,8.0,12.939452171325684,-57.922359466552734,39.9169921875,-0.6103515625,0.6007080078125,0.2928466796875
7.632,279,1656,456,826,15.0,29.0,8.0,6.225585460662842,-57.861324310302734,11.718749046325684,-0.524658203125,0.489990234375,0.267578125
7.647,289,1796,382,841,15.0,29.0,8.0,-11.901854515075684,-52.001949310302734,-7.873534679412842,-0.4903564453125,0.4139404296875,0.310546875
7.654,283,1865,461,859,15.0,29.0,8.0,-37.78076171875,-44.372554779052734,-19.59228515625,-0.524169921875,0.359375,0.3465576171875
7.661,286,1981,484,943,15.0,29.0,8.0,-63.903804779052734,-35.70556640625,-25.817869186401367,-0.5889892578125,0.3197021484375,0.3057861328125
7.670,286,2023,465,1000,15.0,29.0,8.0,-87.52440643310547,-27.099607467651367,-28.442380905151367,-0.5745849609375,0.23388671875,0.2276611328125
7.685,294,2190,410,1018,15.0,29.0,8.0,-106.56737518310547,-22.094724655151367,-30.090330123901367,-0.4403076171875,0.034423828125,0.2469482421875
7.692,300,2308,465,1138,18.0,28.0,7.0,-107.29979705810547,-22.827146530151367,-31.127927780151367,-0.2667236328125,-0.165771484375,0.351318359375
7.700,315,2319,512,1268,18.0,28.0,7.0,-77.33154296875,-24.169919967651367,-32.77587890625,-0.2103271484375,-0.122314453125,0.4044189453125
7.725,354,2464,591,1316,18.0,28.0,7.0,-28.503416061401367,-19.95849609375,-40.588375091552734,-0.4268798828125,0.1422119140625,0.3514404296875
7.725,373,2551,714,1494,18.0,28.0,7.0,11.596678733825684,-7.568358898162842,-60.974117279052734,-0.8232421875,0.298095703125,0.104736328125
7.730,382,2621,797,1547,18.0,28.0,7.0,30.212400436401367,11.657713890075684,-83.37401580810547,-1.0941162109375,0.3402099609375,-0.227783203125
7.753,402,2823,938,1452,18.0,28.0,7.0,30.944822311401367,22.521970748901367,-89.59960174560547,-1.0491943359375,0.3359375,-0.383544921875
7.754,411,3079,1105,1555,18.0,28.0,7.0,18.1884765625,15.502928733825684,-84.96092987060547,-0.886962890625,0.2049560546875,-0.2867431640625
7.760,416,2948,1231,1681,18.0,28.0,7.0,-4.08935546875,2.25830078125,-80.74950408935547,-0.951416015625,0.091796875,0.0113525390625
7.773,417,3017,1264,1636,18.0,28.0,7.0,-37.17041015625,-4.0283203125,-74.0966796875,-1.361572265625,0.2059326171875,0.3973388671875
7.782,417,3046,1488,1742,18.0,28.0,7.0,-83.12987518310547,-3.356933355331421,-62.316890716552734,-1.9158935546875,0.3447265625,0.683837890625
7.789,419,3078,1550,1753,19.0,27.0,10.0,-121.21581268310547,-2.38037109375,-50.903316497802734,-2.275634765625,0.19287109375,0.763427734375
7.803,437,3082,1443,1722,19.0,27.0,10.0,-116.63817596435547,-5.310058116912842,-42.541500091552734,-2.2789306640625,-0.09619140625,0.7039794921875
7.817,445,3147,1557,1791,19.0,27.0,10.0,-65.24658203125,-13.366698265075684,-32.958984375,-1.8419189453125,-0.3602294921875,0.552001953125
7.831,419,3130,1534,1798,19.0,27.0,10.0,7.080077648162842,-20.690916061401367,-20.935056686401367,-1.1728515625,-0.4315185546875,0.4439697265625
7.834,438,3016,1363,1684,19.0,27.0,10.0,69.51904296875,-20.751951217651367,-9.33837890625,-0.7928466796875,-0.0086669921875,0.491455078125
7.841,424,2952,1476,1739,19.0,27.0,10.0,84.04540252685547,-7.141112804412842,-3.845214605331421,-0.7972412109375,0.5821533203125,0.540771484375
7.864,455,2859,1485,1790,19.0,27.0,10.0,84.04540252685547,-7.141112804412842,-3.845214605331421,-0.9769287109375,0.7923583984375,0.509033203125
7.865,438,2724,1546,1590,19.0,27.0,10.0,2.624511480331421,57.189937591552734,-38.02490234375,-1.366455078125,0.7176513671875,0.49658203125
7.872,455,2647,1636,1691,19.0,27.0,10.0,-36.0107421875,81.97020721435547,-63.537593841552734,-1.8345947265625,0.5655517578125,0.4622802734375
7.886,442,2516,1669,1689,19.0,27.0,10.0,-36.0107421875,81.97020721435547,-63.537593841552734,-2.0198974609375,0.3548583984375,0.35888671875
7.931,466,2233,1585,1611,26.0,25.0,3.0,-72.20458984375,95.64208221435547,-91.49169158935547,-1.8668212890625,0.11328125,0.2879638671875
7.933,442,2213,1665,1574,26.0,25.0,3.0,-58.044429779052734,90.63719940185547,-94.90966033935547,-1.579345703125,-0.0911865234375,0.25732421875
7.936,411,2168,1676,1474,26.0,25.0,3.0,-58.044429779052734,90.63719940185547,-94.90966033935547,-1.327880859375,-0.19775390625,0.177001953125
7.936,378,2233,1468,1189,26.0,25.0,3.0,-43.334957122802734,57.861324310302734,-64.3310546875,-1.1290283203125,-0.35693359375,-0.021240234375
7.936,353,2345,1313,1173,26.0,25.0,3.0,-43.273921966552734,23.193357467651367,-25.573728561401367,-0.950439453125,-0.6944580078125,-0.20361328125
7.939,371,2058,1294,1278,26.0,25.0,3.0,-43.273921966552734,23.193357467651367,-25.573728561401367,-0.8187255859375,-0.93798828125,-0.2213134765625
7.953,359,2001,1064,1067,26.0,25.0,3.0,13.977049827575684,-30.883787155151367,46.874996185302734,-0.7578125,-0.8824462890625,-0.1405029296875
7.961,351,1943,1010,1163,26.0,25.0,3.0,44.738765716552734,-33.8134765625,67.56591796875,-0.764404296875,-0.60791015625,-0.055419921875
7.971,324,1920,820,1098,26.0,25.0,3.0,44.738765716552734,-33.8134765625,67.56591796875,-0.7861328125,-0.254150390625,0.004150390625
7.984,300,1826,578,842,23.0,27.0,5.0,71.1669921875,-38.330078125,95.76415252685547,-0.73046875,-0.0440673828125,0.0250244140625
7.992,292,1713,564,849,23.0,27.0,5.0,77.0263671875,-48.339839935302734,105.46874237060547,-0.6182861328125,-0.1102294921875,0.028564453125
7.999,291,1719,533,818,23.0,27.0,5.0,77.0263671875,-48.339839935302734,105.46874237060547,-0.5531005859375,-0.280029296875,0.0576171875
8.013,298,1494,493,725,23.0,27.0,5.0,108.21532440185547,-39.306640625,110.59569549560547,-0.5244140625,-0.29052734375,0.076904296875
8.032,292,1422,509,736,23.0,27.0,5.0,129.0283203125,-20.751951217651367,106.32323455810547,-0.5303955078125,-0.0570068359375,0.058837890625
8.032,282,1429,514,702,23.0,27.0,5.0,129.0283203125,-20.751951217651367,106.32323455810547,-0.5712890625,0.2991943359375,0.0963134765625
8.043,287,1224,501,625,23.0,27.0,5.0,153.564453125,9.94873046875,82.21434783935547,-0.5687255859375,0.6171875,0.267822265625
8.054,293,1167,524,654,23.0,27.0,5.0,149.2919921875,11.413573265075684,63.598628997802734,-0.50341796875,0.809814453125,0.4547119140625
8.059,289,1115,512,669,23.0,27.0,5.0,149.2919921875,11.413573265075684,63.598628997802734,-0.431640625,0.8536376953125,0.47119140625
8.073,292,1138,487,667,23.0,27.0,5.0,84.16747283935547,14.221190452575684,27.770994186401367,-0.445556640625,0.816650390625,0.345947265625
8.084,299,1199,512,735,17.0,30.0,10.0,84.16747283935547,14.221190452575684,27.770994186401367,-0.561767578125,0.7320556640625,0.2471923828125
8.090,304,1266,508,746,17.0,30.0,10.0,46.264644622802734,15.624999046325684,10.009765625,-0.561767578125,0.7320556640625,0.2471923828125
8.104,306,1424,509,779,17.0,30.0,10.0,4.45556640625,-0.0610351525247097,-24.353025436401367,-0.750244140625,0.364990234375,0.1517333984375
8.112,299,1443,513,829,17.0,30.0,10.0,4.45556640625,-0.0610351525247097,-24.353025436401367,-0.7030029296875,0.131591796875,0.0777587890625
8.136,294,1506,519,853,17.0,30.0,10.0,-6.591796398162842,-8.30078125,-32.958984375,-0.7030029296875,0.131591796875,0.0777587890625
8.137,299,1660,536,827,17.0,30.0,10.0,-34.5458984375,-19.53125,-16.7236328125,-0.7493896484375,0.012939453125,-0.0450439453125
8.141,304,1800,588,917,17.0,30.0,10.0,-34.5458984375,-19.53125,-16.7236328125,-0.798095703125,0.114013671875,-0.01953125
8.153,307,1867,631,949,17.0,30.0,10.0,-52.001949310302734,-28.564451217651367,-1.8920897245407104,-0.798095703125,0.114013671875,-0.01953125
8.163,308,2039,675,895,17.0,30.0,10.0,-103.39354705810547,-42.907711029052734,7.751464366912842,-0.8731689453125,0.14794921875,0.0240478515625
8.176,318,2032,723,1074,17.0,30.0,10.0,-103.39354705810547,-42.907711029052734,7.751464366912842,-0.978515625,0.0994873046875,0.0506591796875
8.179,324,2080,726,1108,22.0,29.0,8.0,-132.8125,-44.860836029052734,6.469726085662842,-0.978515625,0.0994873046875,0.0506591796875
8.196,323,2221,705,1014,22.0,29.0,8.0,-132.38525390625,-41.931148529052734,6.469726085662842,-0.923583984375,-0.0657958984375,0.2779541015625
8.204,325,2296,758,1148,22.0,29.0,8.0,-132.38525390625,-41.931148529052734,6.469726085662842,-0.759765625,-0.052734375,0.4158935546875
8.209,336,2348,765,1213,22.0,29.0,8.0,-92.28514862060547,-40.161128997802734,5.310058116912842,-0.759765625,-0.052734375,0.4158935546875
8.240,359,2435,765,1167,22.0,29.0,8.0,6.835937023162842,-26.184080123901367,-12.023924827575684,-0.4560546875,0.1304931640625,0.508056640625
8.240,389,2582,885,913,22.0,29.0,8.0,6.835937023162842,-26.184080123901367,-12.023924827575684,-0.2845458984375,0.15234375,0.5274658203125
8.241,454,2648,832,1269,22.0,29.0,8.0,31.127927780151367,-16.17431640625,-26.367185592651367,-0.2845458984375,0.15234375,0.5274658203125
8.255,561,2658,963,1447,22.0,29.0,8.0,48.034664154052734,-2.44140625,-51.574703216552734,-0.302490234375,0.32470703125,0.4027099609375
8.262,593,2867,1085,1574,22.0,29.0,8.0,48.034664154052734,-2.44140625,-51.574703216552734,-0.60888671875,0.4339599609375,0.1429443359375
8.269,576,2901,1173,1636,22.0,29.0,8.0,49.255367279052734,-2.563476324081421,-55.236812591552734,-0.60888671875,0.4339599609375,0.1429443359375
8.283,588,2944,1189,1607,22.0,29.0,6.0,47.607418060302734,-3.479003667831421,-60.058589935302734,-1.2098388671875,0.3673095703125,-0.333984375
8.291,568,2938,1340,1791,22.0,29.0,6.0,47.607418060302734,-3.479003667831421,-60.058589935302734,-1.423583984375,0.22314453125,-0.1964111328125
8.300,555,2954,1415,1837,22.0,29.0,6.0,25.573728561401367,-6.164550304412842,-63.659664154052734,-1.423583984375,0.22314453125,-0.1964111328125
8.313,537,2965,1373,1785,22.0,29.0,6.0,-22.216794967651367,-10.192870140075684,-60.729976654052734,-1.924560546875,0.109619140625,0.4083251953125
8.322,548,3008,1516,1900,22.0,29.0,6.0,-71.71630859375,-17.822265625,-50.415035247802734,-1.924560546875,0.109619140625,0.4083251953125
8.338,531,3105,1582,1837,22.0,29.0,6.0,-96.43553924560547,-28.320310592651367,-38.57421875,-2.10107421875,-0.0953369140625,0.513427734375
8.343,529,3140,1516,1826,22.0,29.0,6.0,-88.74510955810547,-40.710445404052734,-25.817869186401367,-1.65185546875,-0.5927734375,0.595703125
8.352,537,3147,1604,1880,22.0,29.0,6.0,-54.992671966552734,-53.100582122802734,-7.873534679412842,-1.65185546875,-0.5927734375,0.595703125
8.360,536,3141,1604,1882,22.0,29.0,6.0,-3.540038824081421,-55.358882904052734,10.986327171325684,-0.992919921875,-0.3109130859375,0.7510986328125
8.373,579,3018,1411,1820,23.0,22.0,6.0,42.968746185302734,-36.68212890625,17.88330078125,-0.7008056640625,1.026611328125,0.7547607421875
8.389,597,2910,1509,1890,23.0,22.0,6.0,49.194332122802734,1.220703125,2.0751953125,-0.7008056640625,1.026611328125,0.7547607421875
8.391,548,2823,1569,1865,23.0,22.0,6.0,18.73779296875,43.457027435302734,-32.53173828125,-0.8572998046875,0.8941650390625,0.5706787109375
8.404,495,2676,1596,1666,23.0,22.0,6.0,-10.986327171325684,74.70703125,-68.7255859375,-1.120849609375,0.334716796875,0.392578125
8.412,508,2624,1748,1837,23.0,22.0,6.0,-23.559568405151367,94.11620330810547,-96.74071502685547,-1.120849609375,0.334716796875,0.392578125
8.421,514,2443,1773,1798,23.0,22.0,6.0,-29.479978561401367,108.70360565185547,-116.69921112060547,-1.4193115234375,0.3447265625,0.42236328125
8.442,500,2176,1757,1552,23.0,22.0,6.0,-48.156734466552734,119.62889862060547,-129.39453125,-1.7301025390625,0.0670166015625,0.204345703125
8.444,461,2280,1772,1494,23.0,22.0,6.0,-73.30322265625,122.13134002685547,-136.3525390625,-1.7301025390625,0.0670166015625,0.204345703125
8.450,447,2372,1798,1399,23.0,22.0,6.0,-79.7119140625,107.42186737060547,-134.21630859375,-1.5506591796875,-0.3310546875,-0.0400390625
8.463,456,2091,1750,1328,23.0,22.0,6.0,-66.46728515625,69.27490234375,-112.06053924560547,-1.1766357421875,-1.283447265625,-0.4151611328125
8.472,445,2111,1811,1453,26.0,20.0,4.0,-45.043941497802734,13.671874046325684,-63.720699310302734,-1.1766357421875,-1.283447265625,-0.4151611328125
8.480,465,2032,1753,1455,26.0,20.0,4.0,-26.611326217651367,-34.423828125,-1.03759765625,-1.07421875,-1.3155517578125,-0.1893310546875
8.495,441,2078,1494,1303,26.0,20.0,4.0,-19.8974609375,-51.879878997802734,52.917476654052734,-0.9644775390625,-0.473876953125,0.2386474609375
8.502,426,2127,1442,1397,26.0,20.0,4.0,-16.78466796875,-46.569820404052734,85.87645721435547,-0.9644775390625,-0.473876953125,0.2386474609375
8.512,406,2156,1260,1349,26.0,20.0,4.0,-8.85009765625,-43.457027435302734,102.72216033935547,-0.957763671875,-0.0692138671875,0.222412109375
8.523,354,2295,1037,1063,26.0,20.0,4.0,6.042479991912842,-52.551265716552734,111.38915252685547,-0.8116455078125,0.0531005859375,0.254150390625
8.545,354,2165,920,1191,26.0,20.0,4.0,28.686521530151367,-64.0869140625,114.19676971435547,-0.8116455078125,0.0531005859375,0.254150390625
8.545,359,2104,840,1175,26.0,20.0,4.0,57.556148529052734,-65.0634765625,111.08397674560547,-0.7021484375,-0.0206298828125,0.39306640625
8.553,334,1983,748,1064,26.0,20.0,4.0,87.34130096435547,-53.100582122802734,102.29491424560547,-0.5867919921875,0.03076171875,0.530029296875
8.562,332,1860,713,1029,26.0,20.0,4.0,107.60497283935547,-31.616209030151367,86.91405487060547,-0.509765625,0.1639404296875,0.528564453125
8.569,338,1837,704,1000,20.0,24.0,7.0,115.96678924560547,-3.051757574081421,63.598628997802734,-0.494384765625,0.2257080078125,0.4244384765625
8.583,342,1678,653,869,20.0,24.0,7.0,119.68993377685547,24.353025436401367,34.912109375,-0.512939453125,0.2178955078125,0.330322265625
8.591,354,1702,721,858,20.0,24.0,7.0,118.46923065185547,40.466304779052734,9.33837890625,-0.567138671875,0.2725830078125,0.191650390625
8.601,359,1643,740,853,20.0,24.0,7.0,109.43602752685547,44.067378997802734,-6.347655773162842,-0.63134765625,0.384033203125,-0.0096435546875
