time,compression0,compression1,compression2,compression3,magn_x,magn_y,magn_z,gyro_x,gyro_y,gyro_z,accel_x,accel_y,accel_z
0.000,310,614,685,309,-3.0,35.0,34.0,0.9155272841453552,0.2441406100988388,0.4882812201976776,-0.87060546875,0.47607421875,-0.0191650390625
0.028,309,607,683,311,-3.0,35.0,34.0,1.4648436307907104,0.0610351525247097,-0.1220703050494194,-0.8731689453125,0.4832763671875,-0.0218505859375
0.028,310,603,680,309,-3.0,35.0,34.0,2.01416015625,-0.2441406100988388,-0.9155272841453552,-0.873779296875,0.4864501953125,-0.0240478515625
0.030,309,598,675,311,-3.0,35.0,34.0,2.44140625,-0.4882812201976776,-1.8920897245407104,-0.8731689453125,0.4840087890625,-0.025390625
0.049,309,591,679,310,-3.0,35.0,30.0,2.868652105331421,-0.8544921278953552,-2.746581792831421,-0.872314453125,0.4813232421875,-0.0247802734375
0.052,310,588,669,310,-3.0,35.0,30.0,3.234863042831421,-1.2817381620407104,-3.601073980331421,-0.87158203125,0.4808349609375,-0.0225830078125
0.060,309,575,666,310,-3.0,35.0,30.0,3.479003667831421,-1.5869139432907104,-4.39453125,-0.8717041015625,0.4805908203125,-0.0223388671875
0.068,310,567,664,311,-3.0,35.0,30.0,3.723144292831421,-1.7089842557907104,-5.371093273162842,-0.8719482421875,0.478759765625,-0.0238037109375
0.082,309,552,664,311,-3.0,35.0,30.0,4.0283203125,-1.8310545682907104,-6.347655773162842,-0.8720703125,0.4752197265625,-0.023681640625
0.091,308,547,662,310,-3.0,35.0,30.0,4.57763671875,-1.9531248807907104,-7.324218273162842,-0.871337890625,0.4710693359375,-0.0216064453125
0.098,310,533,659,309,-3.0,35.0,30.0,5.187987804412842,-2.197265625,-8.23974609375,-0.8685302734375,0.4678955078125,-0.0201416015625
0.124,309,519,657,309,-3.0,35.0,30.0,5.615233898162842,-2.38037109375,-9.1552734375,-0.8646240234375,0.4659423828125,-0.021484375
0.124,309,516,650,310,-3.0,35.0,30.0,5.615233898162842,-2.563476324081421,-10.009765625,-0.8626708984375,0.464111328125,-0.02490234375
0.128,313,506,638,310,-3.0,35.0,30.0,5.249022960662842,-2.746581792831421,-10.742186546325684,-0.8631591796875,0.460693359375,-0.02685546875
0.152,309,500,636,309,-1.0,35.0,38.0,4.57763671875,-2.868652105331421,-11.352538108825684,-0.8643798828125,0.4542236328125,-0.0245361328125
0.153,291,500,631,309,-1.0,35.0,38.0,3.967284917831421,-2.868652105331421,-11.840819358825684,-0.8636474609375,0.446533203125,-0.0185546875
0.178,309,494,630,310,-1.0,35.0,38.0,3.479003667831421,-2.746581792831421,-12.145995140075684,-0.860107421875,0.4403076171875,-0.0101318359375
0.179,309,488,631,309,-1.0,35.0,38.0,3.112792730331421,-2.50244140625,-12.390135765075684,-0.8585205078125,0.4376220703125,-0.003662109375
0.182,309,483,629,309,-1.0,35.0,38.0,2.990722417831421,-2.3193359375,-12.512206077575684,-0.8597412109375,0.4371337890625,-0.0029296875
0.188,311,481,630,310,-1.0,35.0,38.0,2.929687261581421,-2.3193359375,-12.573241233825684,-0.863037109375,0.4354248046875,-0.0062255859375
0.202,309,473,627,309,-1.0,35.0,38.0,3.051757574081421,-2.50244140625,-12.512206077575684,-0.8697509765625,0.433349609375,-0.0125732421875
0.226,310,465,620,311,-1.0,35.0,38.0,3.356933355331421,-2.746581792831421,-12.329100608825684,-0.8778076171875,0.4327392578125,-0.0198974609375
0.226,309,455,629,308,-1.0,35.0,38.0,3.540038824081421,-2.929687261581421,-11.962889671325684,-0.883056640625,0.4312744140625,-0.02392578125
0.232,309,449,625,309,-1.0,37.0,38.0,3.479003667831421,-2.929687261581421,-11.596678733825684,-0.885498046875,0.427734375,-0.0235595703125
0.243,309,447,617,310,-1.0,37.0,38.0,2.990722417831421,-2.807616949081421,-11.230467796325684,-0.8841552734375,0.4237060546875,-0.0216064453125
0.262,307,439,613,309,-1.0,37.0,38.0,2.13623046875,-2.746581792831421,-10.925292015075684,-0.8790283203125,0.4183349609375,-0.0208740234375
0.262,309,439,582,293,-1.0,37.0,38.0,1.0986328125,-2.868652105331421,-10.620116233825684,-0.8748779296875,0.412109375,-0.0201416015625
0.270,310,437,601,308,-1.0,37.0,38.0,0.54931640625,-3.479003667831421,-10.253905296325684,-0.8760986328125,0.4088134765625,-0.021240234375
0.280,308,423,590,309,-1.0,37.0,38.0,0.7324218153953552,-4.2724609375,-9.82666015625,-0.883056640625,0.40771484375,-0.028564453125
0.294,309,426,586,309,-1.0,37.0,38.0,1.7089842557907104,-5.0048828125,-9.70458984375,-0.8907470703125,0.40380859375,-0.0390625
0.300,309,423,588,309,-1.0,37.0,38.0,3.051757574081421,-5.432128429412842,-10.070799827575684,-0.893798828125,0.3988037109375,-0.045654296875
0.308,310,424,586,310,-1.0,37.0,38.0,4.69970703125,-5.493163585662842,-10.864256858825684,-0.8876953125,0.3968505859375,-0.0423583984375
0.362,309,428,585,310,-1.0,37.0,38.0,6.530761241912842,-5.187987804412842,-11.840819358825684,-0.8736572265625,0.399169921875,-0.03125
0.362,309,434,583,309,0.0,35.0,33.0,8.1787109375,-4.7607421875,-12.817381858825684,-0.859130859375,0.404541015625,-0.019287109375
0.363,309,435,583,309,0.0,35.0,33.0,9.1552734375,-4.33349609375,-13.488768577575684,-0.8486328125,0.4136962890625,-0.0108642578125
0.363,307,441,583,311,0.0,35.0,33.0,8.544921875,-4.5166015625,-13.671874046325684,-0.836669921875,0.414306640625,-0.000732421875
0.367,309,449,588,310,0.0,35.0,33.0,6.042479991912842,-5.126952648162842,-13.366698265075684,-0.826904296875,0.3968505859375,0.0115966796875
0.368,309,451,591,310,0.0,35.0,33.0,3.112792730331421,-5.676269054412842,-12.451170921325684,-0.827392578125,0.3785400390625,0.0169677734375
0.383,309,465,600,309,0.0,35.0,33.0,0.7934569716453552,-6.347655773162842,-11.108397483825684,-0.8345947265625,0.3687744140625,0.0169677734375
0.391,309,473,603,309,0.0,35.0,33.0,-1.220703125,-7.324218273162842,-9.58251953125,-0.84326171875,0.357666015625,0.0147705078125
0.398,309,488,616,310,0.0,35.0,33.0,-2.563476324081421,-8.11767578125,-8.056640625,-0.8492431640625,0.3448486328125,0.0081787109375
0.428,309,509,619,311,0.0,35.0,33.0,-3.112792730331421,-8.4228515625,-6.225585460662842,-0.8505859375,0.3404541015625,-0.0003662109375
0.429,310,507,628,309,0.0,35.0,33.0,-3.723144292831421,-8.6669921875,-3.967284917831421,-0.8468017578125,0.340087890625,-0.0018310546875
0.430,309,518,629,309,-3.0,37.0,36.0,-4.7607421875,-9.1552734375,-1.4648436307907104,-0.8406982421875,0.3367919921875,0.000732421875
0.446,309,547,639,310,-3.0,37.0,36.0,-5.859374523162842,-9.58251953125,1.2817381620407104,-0.84033203125,0.3367919921875,-0.005126953125
0.450,304,556,640,310,-3.0,37.0,36.0,-7.019042491912842,-10.131834983825684,4.33349609375,-0.849365234375,0.3428955078125,-0.01904296875
0.458,309,575,654,310,-3.0,37.0,36.0,-8.4228515625,-11.230467796325684,7.507323741912842,-0.8590087890625,0.35009765625,-0.03076171875
0.474,309,620,659,310,-3.0,37.0,36.0,-10.192870140075684,-12.817381858825684,10.437010765075684,-0.8553466796875,0.3519287109375,-0.034423828125
0.480,309,656,654,310,-3.0,37.0,36.0,-12.756346702575684,-14.221190452575684,13.244627952575684,-0.8353271484375,0.34912109375,-0.03125
0.492,311,691,669,310,-3.0,37.0,36.0,-16.54052734375,-15.014647483825684,16.29638671875,-0.8067626953125,0.34765625,-0.023681640625
0.504,309,755,697,310,-3.0,37.0,36.0,-21.667478561401367,-15.319823265075684,19.71435546875,-0.770263671875,0.3316650390625,-0.0203857421875
0.510,311,816,722,311,-3.0,37.0,36.0,-27.526853561401367,-15.136717796325684,23.071287155151367,-0.6934814453125,0.290771484375,-0.031005859375
0.531,309,918,774,311,-3.0,37.0,36.0,-34.5458984375,-14.953612327575684,25.573728561401367,-0.5369873046875,0.2518310546875,-0.017822265625
0.533,311,1115,943,296,-1.0,32.0,37.0,-41.625972747802734,-17.15087890625,24.963376998901367,-0.3330078125,0.2476806640625,0.050048828125
0.542,309,1219,1104,312,-1.0,32.0,37.0,-44.799800872802734,-23.498533248901367,17.4560546875,-0.13037109375,0.25244140625,0.1260986328125
0.551,311,1303,1303,311,-1.0,32.0,37.0,-40.710445404052734,-31.677244186401367,0.3662109076976776,0.1021728515625,0.1529541015625,0.20458984375
0.563,311,1480,1607,312,-1.0,32.0,37.0,-27.343748092651367,-38.26904296875,-24.536130905151367,0.3577880859375,-0.0733642578125,0.3485107421875
0.578,311,1588,1739,313,-1.0,32.0,37.0,1.0986328125,-41.809078216552734,-47.912593841552734,0.44580078125,-0.2593994140625,0.4036865234375
0.578,311,1676,1880,301,-1.0,32.0,37.0,45.471187591552734,-42.297359466552734,-56.396480560302734,0.18798828125,-0.22021484375,0.1539306640625
0.594,311,1777,2098,314,-1.0,32.0,37.0,81.17675018310547,-47.851558685302734,-43.029781341552734,-0.4561767578125,0.34619140625,-0.121337890625
0.602,311,1831,2192,314,-1.0,32.0,37.0,79.89501953125,-61.035152435302734,-15.380858421325684,-1.2119140625,1.3773193359375,-0.0970458984375
0.610,312,1874,2296,315,-1.0,32.0,37.0,40.954586029052734,-61.584468841552734,-2.563476324081421,-1.6346435546875,1.920166015625,0.1495361328125
0.635,311,1894,2456,314,-1.0,32.0,37.0,-13.732909202575684,-40.405269622802734,-23.681638717651367,-1.805419921875,1.49853515625,0.3082275390625
0.636,311,1892,2541,314,0.0,34.0,38.0,-48.522945404052734,-10.314940452575684,-52.490230560302734,-2.2005615234375,0.8583984375,0.1793212890625
0.638,312,1873,2607,316,0.0,34.0,38.0,-56.945796966552734,10.131834983825684,-61.584468841552734,-2.724853515625,0.371826171875,0.0419921875
0.653,311,1834,2532,315,0.0,34.0,38.0,-60.974117279052734,13.000487327575684,-50.292964935302734,-2.8365478515625,-0.0084228515625,0.047119140625
0.660,312,1852,2555,316,0.0,34.0,38.0,-54.748531341552734,10.009765625,-25.695798873901367,-2.130859375,-0.155029296875,0.0638427734375
0.669,311,1870,2561,315,0.0,34.0,38.0,-25.939939498901367,9.27734375,-4.69970703125,-1.358642578125,0.1326904296875,0.073486328125
0.682,311,1874,2532,316,0.0,34.0,38.0,9.58251953125,7.202147960662842,2.38037109375,-1.384521484375,0.6275634765625,0.1297607421875
0.690,311,1861,2490,314,0.0,34.0,38.0,25.817869186401367,5.432128429412842,2.25830078125,-1.7264404296875,0.798828125,0.25048828125
0.699,311,1845,2435,319,0.0,34.0,38.0,25.817869186401367,5.432128429412842,2.25830078125,-1.870361328125,0.7569580078125,0.32666015625
0.713,312,1763,2296,314,0.0,34.0,38.0,15.747069358825684,10.253905296325684,2.624511480331421,-1.7587890625,0.6988525390625,0.275146484375
0.739,311,1711,2200,318,0.0,34.0,38.0,14.282225608825684,12.939452171325684,-0.30517578125,-1.5106201171875,0.59814453125,0.1826171875
0.739,310,1613,2035,316,2.0,32.0,40.0,14.282225608825684,12.939452171325684,-0.30517578125,-1.28125,0.4476318359375,0.14453125
0.743,311,1538,1858,314,2.0,32.0,40.0,19.34814453125,14.343260765075684,-13.488768577575684,-1.1116943359375,0.34228515625,0.1116943359375
0.757,312,1469,1754,316,2.0,32.0,40.0,24.597166061401367,15.686034202575684,-15.502928733825684,-0.9578857421875,0.3525390625,0.0233154296875
0.760,311,1387,1628,313,2.0,32.0,40.0,24.597166061401367,15.686034202575684,-15.502928733825684,-0.8375244140625,0.41845703125,-0.0802001953125
0.772,311,1201,1348,312,2.0,32.0,40.0,33.87451171875,26.123044967651367,-14.343260765075684,-0.7086181640625,0.4305419921875,-0.1298828125
0.787,309,1034,1183,313,2.0,32.0,40.0,29.602048873901367,32.16552734375,-18.1884765625,-0.5205078125,0.36572265625,-0.1436767578125
0.790,311,883,985,312,2.0,32.0,40.0,29.602048873901367,32.16552734375,-18.1884765625,-0.3463134765625,0.304931640625,-0.176025390625
0.817,310,598,782,311,2.0,32.0,40.0,12.878417015075684,42.297359466552734,-28.442380905151367,-0.2437744140625,0.2152099609375,-0.2281494140625
0.817,310,491,725,310,2.0,32.0,40.0,3.356933355331421,44.250484466552734,-36.7431640625,-0.1986083984375,0.1585693359375,-0.2496337890625
0.819,308,464,669,311,2.0,32.0,40.0,3.356933355331421,44.250484466552734,-36.7431640625,-0.2352294921875,0.247314453125,-0.1519775390625
0.840,309,411,590,309,-2.0,32.0,41.0,-18.49365234375,31.188962936401367,-51.635738372802734,-0.390625,0.345703125,0.0194091796875
0.842,309,406,556,310,-2.0,32.0,41.0,-35.21728515625,14.465331077575684,-55.480953216552734,-0.5966796875,0.356201171875,0.1485595703125
0.850,309,410,555,310,-2.0,32.0,41.0,-48.400875091552734,2.197265625,-56.335445404052734,-0.7431640625,0.284912109375,0.20654296875
0.864,309,410,529,310,-2.0,32.0,41.0,-51.513668060302734,-1.15966796875,-55.908199310302734,-0.801513671875,0.1807861328125,0.1834716796875
0.871,307,409,551,309,-2.0,32.0,41.0,-45.227046966552734,2.3193359375,-53.222652435302734,-0.7998046875,0.1063232421875,0.123046875
0.880,308,405,548,310,-2.0,32.0,41.0,-35.7666015625,6.835937023162842,-46.936031341552734,-0.786376953125,0.078857421875,0.081298828125
0.896,309,400,555,309,-2.0,32.0,41.0,-28.442380905151367,8.4228515625,-37.90283203125,-0.78955078125,0.0850830078125,0.072021484375
0.901,309,396,563,309,-2.0,32.0,41.0,-23.681638717651367,6.774901866912842,-28.015134811401367,-0.8160400390625,0.107421875,0.07763671875
0.910,308,396,575,310,-2.0,32.0,41.0,-18.37158203125,3.601073980331421,-19.287109375,-0.8656005859375,0.1483154296875,0.075439453125
0.941,309,395,573,309,5.0,32.0,35.0,-11.474608421325684,-0.2441406100988388,-12.756346702575684,-0.924560546875,0.200927734375,0.067138671875
0.942,311,388,589,309,5.0,32.0,35.0,-6.164550304412842,-4.45556640625,-8.23974609375,-0.9625244140625,0.2376708984375,0.0675048828125
0.943,310,386,576,297,5.0,32.0,35.0,-6.164550304412842,-4.45556640625,-8.23974609375,-0.964599609375,0.241943359375,0.0760498046875
0.955,308,391,599,309,5.0,32.0,35.0,-2.50244140625,-7.690429210662842,-2.50244140625,-0.947021484375,0.220458984375,0.0745849609375
0.963,309,389,603,309,5.0,32.0,35.0,-0.8544921278953552,-5.981444835662842,-0.6103515625,-0.924560546875,0.1917724609375,0.057373046875
0.969,309,395,603,310,5.0,32.0,35.0,-0.8544921278953552,-5.981444835662842,-0.6103515625,-0.8939208984375,0.1697998046875,0.03564453125
0.985,309,398,614,309,5.0,32.0,35.0,0.9155272841453552,-3.967284917831421,2.0751953125,-0.8538818359375,0.1556396484375,0.015625
0.991,307,395,616,308,5.0,32.0,35.0,2.0751953125,-5.126952648162842,1.8920897245407104,-0.8092041015625,0.1497802734375,-0.0025634765625
1.001,309,396,620,309,5.0,32.0,35.0,2.0751953125,-5.126952648162842,1.8920897245407104,-0.768798828125,0.154052734375,-0.015625
1.019,309,401,616,309,5.0,32.0,35.0,7.507323741912842,-11.108397483825684,-1.7089842557907104,-0.7391357421875,0.1702880859375,-0.0247802734375
1.023,309,405,609,310,3.0,31.0,36.0,9.82666015625,-14.587401390075684,-2.868652105331421,-0.7081298828125,0.1954345703125,-0.02783203125
1.045,309,405,607,309,3.0,31.0,36.0,9.82666015625,-14.587401390075684,-2.868652105331421,-0.6644287109375,0.2159423828125,-0.019287109375
1.046,310,408,587,309,3.0,31.0,36.0,4.82177734375,-18.798828125,-3.662109136581421,-0.6251220703125,0.2147216796875,0.0003662109375
1.051,309,417,574,309,3.0,31.0,36.0,-3.479003667831421,-18.9208984375,-5.493163585662842,-0.607177734375,0.190185546875,0.0267333984375
1.067,309,437,574,310,3.0,31.0,36.0,-3.479003667831421,-18.9208984375,-5.493163585662842,-0.6407470703125,0.1495361328125,0.0447998046875
1.068,294,451,563,297,3.0,31.0,36.0,-12.390135765075684,-17.9443359375,-6.591796398162842,-0.6407470703125,0.1495361328125,0.0447998046875
1.081,309,598,589,311,3.0,31.0,36.0,-15.136717796325684,-16.41845703125,1.4648436307907104,-0.6959228515625,0.0770263671875,0.0537109375
1.090,311,740,598,311,3.0,31.0,36.0,-15.136717796325684,-16.41845703125,1.4648436307907104,-0.692626953125,0.144775390625,0.036376953125
1.127,309,889,687,309,3.0,31.0,36.0,-1.4038084745407104,-22.705076217651367,22.155759811401367,-0.7764892578125,0.284912109375,0.0709228515625
1.153,293,971,726,311,3.0,31.0,36.0,3.112792730331421,-33.8134765625,28.625486373901367,-0.85107421875,0.4229736328125,0.1107177734375
1.154,309,1100,810,298,0.0,30.0,38.0,3.112792730331421,-33.8134765625,28.625486373901367,-0.7376708984375,0.4688720703125,0.097900390625
1.154,311,1196,1066,297,0.0,30.0,38.0,7.202147960662842,-41.381832122802734,26.672361373901367,-0.7376708984375,0.4688720703125,0.097900390625
1.155,311,1386,1516,311,0.0,30.0,38.0,-17.7001953125,-45.532222747802734,-11.413573265075684,0.4036865234375,-0.0865478515625,0.02978515625
1.155,310,1471,1742,313,0.0,30.0,38.0,-43.457027435302734,-46.874996185302734,-35.15625,0.670654296875,-0.560546875,-0.0125732421875
1.160,311,1559,1954,314,0.0,30.0,38.0,-43.457027435302734,-46.874996185302734,-35.15625,0.337890625,-0.6673583984375,0.1622314453125
1.173,311,1721,2280,314,0.0,30.0,38.0,19.6533203125,-76.171875,-25.634763717651367,-0.4072265625,-0.080078125,0.30029296875
1.181,311,1778,2389,316,0.0,30.0,38.0,73.8525390625,-75.37841796875,-2.929687261581421,-1.161865234375,1.14501953125,0.251220703125
1.189,312,1844,2480,315,0.0,30.0,38.0,73.8525390625,-75.37841796875,-2.929687261581421,-1.161865234375,1.14501953125,0.251220703125
1.203,312,1914,2677,316,0.0,30.0,38.0,-3.784179449081421,-56.335445404052734,-12.023924827575684,-1.6312255859375,1.6029052734375,0.537841796875
1.213,311,1991,2830,319,0.0,30.0,38.0,-3.784179449081421,-56.335445404052734,-12.023924827575684,-2.26416015625,0.5765380859375,0.569580078125
1.221,312,2002,2894,319,7.0,27.0,34.0,-48.217769622802734,-41.564937591552734,-47.729488372802734,-2.26416015625,0.5765380859375,0.569580078125
1.251,311,1957,2813,316,7.0,27.0,34.0,-11.108397483825684,-23.620603561401367,-66.7724609375,-3.409423828125,-0.439697265625,0.3511962890625
1.251,311,1965,2792,304,7.0,27.0,34.0,-11.108397483825684,-23.620603561401367,-66.7724609375,-2.230712890625,-0.37158203125,-0.0732421875
1.252,311,1960,2763,321,7.0,27.0,34.0,25.146482467651367,-16.4794921875,-40.222164154052734,-2.230712890625,-0.37158203125,-0.0732421875
1.263,312,1954,2710,316,7.0,27.0,34.0,55.297847747802734,6.469726085662842,-4.0283203125,-1.2559814453125,0.3173828125,0.1031494140625
1.271,312,1933,2686,319,7.0,27.0,34.0,55.297847747802734,6.469726085662842,-4.0283203125,-1.64306640625,0.369384765625,0.4349365234375
1.278,312,1904,2635,319,7.0,27.0,34.0,33.02001953125,4.7607421875,0.7324218153953552,-1.64306640625,0.369384765625,0.4349365234375
1.295,311,1833,2512,316,7.0,27.0,34.0,-1.5869139432907104,1.0986328125,11.291502952575684,-1.826416015625,0.4613037109375,0.5389404296875
1.304,311,1769,2419,317,7.0,27.0,34.0,-1.5869139432907104,1.0986328125,11.291502952575684,-1.5665283203125,0.316162109375,0.379638671875
1.310,311,1698,2310,316,7.0,27.0,34.0,-9.8876953125,6.835937023162842,10.803221702575684,-1.5665283203125,0.316162109375,0.379638671875
1.324,311,1573,2102,314,5.0,29.0,39.0,-3.967284917831421,21.606443405151367,9.70458984375,-1.1488037109375,0.10107421875,0.3082275390625
1.331,311,1496,1944,315,5.0,29.0,39.0,-3.967284917831421,21.606443405151367,9.70458984375,-1.0408935546875,0.182373046875,0.24267578125
1.351,310,1417,1798,314,5.0,29.0,39.0,5.615233898162842,26.123044967651367,14.709471702575684,-1.0408935546875,0.182373046875,0.24267578125
1.356,310,1204,1533,313,5.0,29.0,39.0,17.15087890625,33.447265625,18.85986328125,-0.807373046875,0.2457275390625,-0.0731201171875
1.360,311,1057,1358,314,5.0,29.0,39.0,17.15087890625,33.447265625,18.85986328125,-0.6334228515625,0.2041015625,-0.161376953125
1.375,311,916,1194,313,5.0,29.0,39.0,21.118162155151367,34.3017578125,10.192870140075684,-0.6334228515625,0.2041015625,-0.161376953125
1.383,309,613,861,310,5.0,29.0,39.0,19.4091796875,34.5458984375,-4.0283203125,-0.327880859375,0.2503662109375,-0.22265625
1.392,310,519,774,310,5.0,29.0,39.0,19.4091796875,34.5458984375,-4.0283203125,-0.288818359375,0.1910400390625,-0.227783203125
1.399,309,431,682,311,5.0,29.0,39.0,12.084959983825684,36.376953125,-11.535643577575684,-0.288818359375,0.1910400390625,-0.227783203125
1.412,309,393,575,309,5.0,29.0,36.0,-18.06640625,35.33935546875,-24.536130905151367,-0.4820556640625,0.3109130859375,-0.0455322265625
1.428,309,384,542,309,5.0,29.0,36.0,-18.06640625,35.33935546875,-24.536130905151367,-0.625,0.32958984375,0.1246337890625
1.429,309,381,533,309,5.0,29.0,36.0,-39.97802734375,23.132322311401367,-26.855466842651367,-0.625,0.32958984375,0.1246337890625
1.454,309,382,529,309,5.0,29.0,36.0,-61.157222747802734,8.11767578125,-35.888671875,-0.7099609375,0.14208984375,0.1990966796875
1.455,309,381,529,309,5.0,29.0,36.0,-61.157222747802734,8.11767578125,-35.888671875,-0.695556640625,0.0640869140625,0.1634521484375
1.458,309,386,538,310,5.0,29.0,36.0,-52.246089935302734,10.437010765075684,-37.7197265625,-0.695556640625,0.0640869140625,0.1634521484375
1.474,309,388,548,310,5.0,29.0,36.0,-28.869626998901367,9.1552734375,-23.620603561401367,-0.7032470703125,0.0289306640625,0.20751953125
1.480,309,384,562,309,5.0,29.0,36.0,-28.869626998901367,9.1552734375,-23.620603561401367,-0.740478515625,0.030029296875,0.2222900390625
1.488,309,386,569,311,5.0,29.0,36.0,-22.583005905151367,6.713866710662842,-13.488768577575684,-0.740478515625,0.030029296875,0.2222900390625
1.524,309,383,591,310,5.0,29.0,36.0,-12.756346702575684,7.751464366912842,1.7700194120407104,-0.803466796875,0.0670166015625,0.215087890625
1.528,309,384,596,310,7.0,27.0,36.0,-12.756346702575684,7.751464366912842,1.7700194120407104,-0.8172607421875,0.0994873046875,0.2052001953125
1.528,309,389,607,310,7.0,27.0,36.0,-8.11767578125,8.1787109375,7.019042491912842,-0.8172607421875,0.0994873046875,0.2052001953125
1.569,309,391,619,310,7.0,27.0,36.0,-2.50244140625,5.737304210662842,14.038084983825684,-0.8245849609375,0.1063232421875,0.136962890625
1.575,310,395,629,310,7.0,27.0,36.0,-2.50244140625,5.737304210662842,14.038084983825684,-0.8233642578125,0.0870361328125,0.0926513671875
1.575,309,399,613,309,7.0,27.0,36.0,-1.3427733182907104,4.45556640625,16.41845703125,-0.8233642578125,0.0870361328125,0.0926513671875
1.575,309,404,620,308,7.0,27.0,36.0,2.990722417831421,0.8544921278953552,20.812986373901367,-0.7896728515625,0.091796875,0.06591796875
1.576,309,408,620,310,7.0,27.0,36.0,2.990722417831421,0.8544921278953552,20.812986373901367,-0.7708740234375,0.122314453125,0.070556640625
1.579,308,409,620,309,7.0,27.0,36.0,6.896972179412842,-1.15966796875,22.216794967651367,-0.7708740234375,0.122314453125,0.070556640625
1.592,309,425,582,309,7.0,27.0,36.0,15.197752952575684,-4.08935546875,23.254392623901367,-0.79248046875,0.1417236328125,0.0699462890625
1.615,310,446,564,310,7.0,27.0,36.0,15.197752952575684,-4.08935546875,23.254392623901367,-0.78564453125,0.151123046875,0.078857421875
1.623,309,461,582,309,4.0,28.0,35.0,20.935056686401367,-5.737304210662842,24.536130905151367,-0.78564453125,0.151123046875,0.078857421875
1.630,309,561,644,309,4.0,28.0,35.0,29.357908248901367,-8.36181640625,28.564451217651367,-0.76708984375,0.224609375,0.0728759765625
1.636,309,666,660,311,4.0,28.0,35.0,29.357908248901367,-8.36181640625,28.564451217651367,-0.7724609375,0.2509765625,0.0841064453125
1.647,309,745,685,310,4.0,28.0,35.0,25.085447311401367,-10.620116233825684,29.907224655151367,-0.7724609375,0.2509765625,0.0841064453125
1.666,309,860,738,309,4.0,28.0,35.0,13.977049827575684,-11.474608421325684,34.1796875,-0.8707275390625,0.3817138671875,0.02783203125
1.666,310,935,788,309,4.0,28.0,35.0,13.977049827575684,-11.474608421325684,34.1796875,-0.8203125,0.437255859375,-0.0087890625
1.668,310,1017,869,311,4.0,28.0,35.0,7.873534679412842,-9.09423828125,34.60693359375,-0.8203125,0.437255859375,-0.0087890625
1.686,311,1173,1151,312,4.0,28.0,35.0,-4.5166015625,-9.765625,28.747556686401367,-0.3837890625,0.1539306640625,0.1025390625
1.691,309,1279,1369,312,4.0,28.0,35.0,-14.648436546325684,-16.4794921875,15.563963890075684,-0.3837890625,0.1539306640625,0.1025390625
1.731,311,1370,1627,311,4.0,28.0,35.0,-12.145995140075684,-28.747556686401367,-2.746581792831421,0.1116943359375,-0.1456298828125,0.23388671875
1.731,310,1502,2009,312,4.0,32.0,38.0,7.141112804412842,-44.006343841552734,-21.362302780151367,0.76708984375,-0.5069580078125,0.2115478515625
1.731,311,1590,2206,314,4.0,32.0,38.0,42.663570404052734,-59.020992279052734,-32.470703125,0.76708984375,-0.5069580078125,0.2115478515625
1.731,310,1684,2325,314,4.0,32.0,38.0,81.23778533935547,-73.486328125,-28.930662155151367,0.242431640625,-0.04052734375,0.0364990234375
1.765,311,1820,2505,314,4.0,32.0,38.0,101.07421112060547,-81.48192596435547,-13.183592796325684,-1.4544677734375,2.14599609375,-0.24658203125
1.765,312,1874,2611,316,4.0,32.0,38.0,78.9794921875,-71.8994140625,-3.417968511581421,-1.4544677734375,2.14599609375,-0.24658203125
1.766,311,1954,2759,316,4.0,32.0,38.0,10.009765625,-52.795406341552734,-22.521970748901367,-1.9078369140625,1.775146484375,-0.081298828125
1.772,312,2068,2930,316,4.0,32.0,38.0,-61.401363372802734,-37.109375,-64.88037109375,-3.326904296875,-0.595703125,0.8548583984375
1.781,311,2041,2840,314,4.0,32.0,38.0,-86.60887908935547,-36.56005859375,-96.86278533935547,-3.326904296875,-0.595703125,0.8548583984375
1.788,311,2039,2815,316,4.0,32.0,38.0,-58.837886810302734,-53.466793060302734,-89.05028533935547,-3.353759765625,-0.682373046875,0.913818359375
1.802,311,2014,2765,315,8.0,25.0,42.0,2.197265625,-48.339839935302734,-53.344722747802734,-1.2071533203125,0.256591796875,0.1785888671875
1.810,311,2007,2741,318,8.0,25.0,42.0,53.527828216552734,-13.977049827575684,-27.832029342651367,-1.2071533203125,0.256591796875,0.1785888671875
1.826,311,2000,2713,316,8.0,25.0,42.0,64.5751953125,14.221190452575684,-20.690916061401367,-1.080810546875,0.22998046875,0.3873291015625
1.836,326,1959,2621,315,8.0,25.0,42.0,49.255367279052734,24.841306686401367,-15.441893577575684,-1.9210205078125,0.3511962890625,0.49755859375
1.840,312,1912,2538,318,8.0,25.0,42.0,26.611326217651367,23.010251998901367,-4.39453125,-1.9210205078125,0.3511962890625,0.49755859375
1.866,312,1848,2465,314,8.0,25.0,42.0,2.0751953125,19.10400390625,5.432128429412842,-1.9151611328125,0.4134521484375,0.381103515625
1.867,311,1729,2275,314,8.0,25.0,42.0,-16.66259765625,20.263669967651367,8.60595703125,-1.3824462890625,0.094970703125,0.315185546875
1.871,311,1641,2156,315,8.0,25.0,42.0,-23.498533248901367,26.794431686401367,8.544921875,-1.3824462890625,0.094970703125,0.315185546875
1.884,311,1562,2012,314,8.0,25.0,42.0,-20.324705123901367,34.1796875,10.498045921325684,-1.236328125,-0.0008544921875,0.38818359375
1.892,310,1413,1721,314,8.0,25.0,42.0,-9.58251953125,40.10009765625,17.4560546875,-1.04345703125,0.1806640625,0.170654296875
1.900,311,1278,1562,314,6.0,27.0,42.0,5.371093273162842,46.081539154052734,25.329587936401367,-1.04345703125,0.1806640625,0.170654296875
1.910,311,1104,1395,312,6.0,27.0,42.0,19.10400390625,51.940914154052734,25.573728561401367,-0.8621826171875,0.2120361328125,-0.028564453125
1.922,309,794,1079,312,6.0,27.0,42.0,25.512693405151367,54.016109466552734,17.15087890625,-0.386474609375,0.236328125,-0.2183837890625
1.941,310,609,872,311,6.0,27.0,42.0,22.705076217651367,53.283687591552734,6.774901866912842,-0.386474609375,0.236328125,-0.2183837890625
1.941,310,482,725,311,6.0,27.0,42.0,14.526366233825684,53.039546966552734,-2.624511480331421,-0.227783203125,0.21533203125,-0.2274169921875
1.970,311,381,583,309,6.0,27.0,42.0,4.8828125,52.856441497802734,-14.160155296325684,-0.292724609375,0.2578125,-0.1163330078125
1.970,309,371,556,309,6.0,27.0,42.0,-6.286620616912842,50.903316497802734,-24.108884811401367,-0.292724609375,0.2578125,-0.1163330078125
1.971,287,371,523,309,6.0,27.0,42.0,-20.812986373901367,43.334957122802734,-29.113767623901367,-0.483642578125,0.40576171875,0.002685546875
1.985,307,377,519,309,6.0,27.0,42.0,-39.6728515625,30.273435592651367,-33.50830078125,-0.655029296875,0.3087158203125,0.166748046875
1.990,307,380,518,309,6.0,27.0,42.0,-57.373043060302734,20.996091842651367,-38.51318359375,-0.655029296875,0.3087158203125,0.166748046875
1.999,309,378,522,309,7.0,28.0,40.0,-62.316890716552734,20.507810592651367,-41.625972747802734,-0.6663818359375,0.171142578125,0.13720703125
2.012,310,376,548,309,7.0,28.0,40.0,-54.199214935302734,22.888181686401367,-40.466304779052734,-0.6785888671875,-0.0067138671875,0.14208984375
2.022,309,379,547,310,7.0,28.0,40.0,-44.006343841552734,21.972654342651367,-34.912109375,-0.6785888671875,-0.0067138671875,0.14208984375
2.028,309,379,557,309,7.0,28.0,40.0,-36.4990234375,17.9443359375,-27.221677780151367,-0.6829833984375,-0.0474853515625,0.1893310546875
2.085,309,391,573,310,7.0,28.0,40.0,-28.869626998901367,14.221190452575684,-19.59228515625,-0.7445068359375,-0.057373046875,0.2344970703125
2.087,657,395,583,309,7.0,28.0,40.0,-19.6533203125,12.268065452575684,-12.390135765075684,-0.7445068359375,-0.057373046875,0.2344970703125
2.090,309,399,587,311,7.0,28.0,40.0,-11.169432640075684,11.596678733825684,-4.94384765625,-0.7965087890625,-0.0093994140625,0.2215576171875
2.094,309,401,591,309,7.0,28.0,40.0,-4.45556640625,11.535643577575684,2.0751953125,-0.881103515625,0.099853515625,0.1678466796875
2.094,309,407,590,310,7.0,28.0,40.0,0.8544921278953552,11.535643577575684,6.713866710662842,-0.881103515625,0.099853515625,0.1678466796875
2.095,309,406,601,308,7.0,28.0,40.0,3.601073980331421,11.535643577575684,9.033203125,-0.877685546875,0.108642578125,0.12841796875
2.098,309,411,605,311,6.0,30.0,42.0,2.868652105331421,11.291502952575684,10.375975608825684,-0.8546142578125,0.0921630859375,0.0833740234375
2.111,309,416,603,308,6.0,30.0,42.0,-0.1831054538488388,10.192870140075684,11.718749046325684,-0.8211669921875,0.0543212890625,0.0443115234375
2.119,309,417,609,310,6.0,30.0,42.0,-2.50244140625,8.36181640625,13.244627952575684,-0.787109375,0.0072021484375,0.00439453125
2.133,310,452,593,309,6.0,30.0,42.0,-0.6103515625,6.958007335662842,14.709471702575684,-0.7744140625,-0.0374755859375,-0.0736083984375
2.143,311,450,600,309,6.0,30.0,42.0,7.080077648162842,5.554198741912842,16.41845703125,-0.7744140625,-0.0374755859375,-0.0736083984375
2.149,309,473,617,311,6.0,30.0,42.0,19.287109375,3.051757574081421,19.34814453125,-0.7872314453125,-0.0089111328125,-0.072509765625
2.178,309,529,654,310,6.0,30.0,42.0,32.53173828125,-1.220703125,24.414060592651367,-0.76708984375,0.0882568359375,-0.0443115234375
2.178,309,603,662,310,6.0,30.0,42.0,41.931148529052734,-6.164550304412842,31.127927780151367,-0.76708984375,0.0882568359375,-0.0443115234375
2.180,310,659,691,309,6.0,30.0,42.0,44.738765716552734,-10.925292015075684,38.63525390625,-0.781494140625,0.1556396484375,-0.0626220703125
2.196,309,792,736,309,5.0,27.0,36.0,39.12353515625,-17.2119140625,45.959468841552734,-0.8568115234375,0.3546142578125,-0.1102294921875
2.202,310,869,792,311,5.0,27.0,36.0,26.062009811401367,-24.414060592651367,52.246089935302734,-0.8568115234375,0.3546142578125,-0.1102294921875
2.210,310,991,861,311,5.0,27.0,36.0,9.09423828125,-28.686521530151367,54.931636810302734,-0.8016357421875,0.4906005859375,-0.1649169921875
2.224,310,1194,1073,312,5.0,27.0,36.0,-11.962889671325684,-31.555173873901367,48.767086029052734,-0.19873046875,0.1312255859375,0.0306396484375
2.231,311,1239,1302,312,5.0,27.0,36.0,-32.16552734375,-38.26904296875,35.2783203125,-0.19873046875,0.1312255859375,0.0306396484375
2.241,311,1343,1540,314,5.0,27.0,36.0,-35.09521484375,-47.912593841552734,22.827146530151367,0.189453125,-0.158935546875,0.074462890625
2.253,312,1456,1953,313,5.0,27.0,36.0,-17.88330078125,-59.265132904052734,12.390135765075684,0.3828125,-0.268798828125,0.223388671875
2.288,312,1547,2160,314,5.0,27.0,36.0,2.13623046875,-70.80078125,-2.685546636581421,0.3828125,-0.268798828125,0.223388671875
2.289,311,1649,2325,314,5.0,27.0,36.0,13.610838890075684,-72.509765625,-20.874021530151367,-0.112060546875,0.0272216796875,0.3857421875
2.294,311,1757,2527,314,5.0,27.0,36.0,16.54052734375,-59.326168060302734,-27.648923873901367,-1.4464111328125,1.677978515625,0.1866455078125
2.294,298,1837,2671,299,4.0,27.0,39.0,5.187987804412842,-41.687007904052734,-20.141599655151367,-1.4464111328125,1.677978515625,0.1866455078125
2.300,311,1929,2830,316,4.0,27.0,39.0,-28.869626998901367,-32.16552734375,-23.071287155151367,-1.789794921875,1.5804443359375,0.2215576171875
2.309,312,2017,2959,319,4.0,27.0,39.0,-60.363765716552734,-29.479978561401367,-51.330562591552734,-2.3216552734375,0.3079833984375,0.5533447265625
2.323,311,2020,2887,319,4.0,27.0,39.0,-51.696773529052734,-29.541013717651367,-80.26123046875,-3.1629638671875,-0.568359375,0.8199462890625
2.331,311,2035,2859,318,4.0,27.0,39.0,-10.620116233825684,-35.2783203125,-74.52392578125,-3.328125,-0.4661865234375,0.6009521484375
2.339,311,2035,2827,318,4.0,27.0,39.0,34.66796875,-26.550291061401367,-43.151851654052734,-2.2923583984375,-0.019775390625,0.009033203125
2.354,312,2010,2762,314,4.0,27.0,39.0,57.800289154052734,-2.13623046875,-21.728513717651367,-1.3201904296875,0.2647705078125,-0.12255859375
2.377,311,1994,2735,316,4.0,27.0,39.0,48.461910247802734,14.221190452575684,-15.747069358825684,-1.1982421875,0.1728515625,0.2047119140625
2.391,311,1971,2677,316,4.0,27.0,39.0,30.334470748901367,19.775390625,-10.803221702575684,-1.6009521484375,0.1322021484375,0.4659423828125
2.393,311,1927,2543,316,4.0,27.0,39.0,17.08984375,18.1884765625,-1.4038084745407104,-1.943603515625,0.3184814453125,0.51611328125
2.394,311,1865,2440,316,6.0,29.0,36.0,1.4648436307907104,17.2119140625,6.286620616912842,-1.9188232421875,0.4158935546875,0.4127197265625
2.399,311,1798,2319,316,6.0,29.0,36.0,-13.183592796325684,21.362302780151367,8.11767578125,-1.6439208984375,0.2828369140625,0.315185546875
2.414,311,1674,2098,314,6.0,29.0,36.0,-16.6015625,28.625486373901367,7.690429210662842,-1.3701171875,0.0802001953125,0.30615234375
2.421,311,1602,1934,318,6.0,29.0,36.0,-8.056640625,34.60693359375,9.82666015625,-1.2105712890625,0.0428466796875,0.3167724609375
2.430,311,1506,1785,314,6.0,29.0,36.0,4.8828125,37.41455078125,15.197752952575684,-1.103759765625,0.177001953125,0.2249755859375
2.444,311,1315,1533,312,6.0,29.0,36.0,13.916014671325684,39.61181640625,19.83642578125,-0.9805908203125,0.2607421875,0.0504150390625
2.451,310,1116,1357,312,6.0,29.0,36.0,17.9443359375,42.968746185302734,18.4326171875,-0.8375244140625,0.2205810546875,-0.092041015625
2.458,311,913,1172,312,6.0,29.0,36.0,19.04296875,45.532222747802734,10.314940452575684,-0.6512451171875,0.144287109375,-0.150390625
2.477,311,630,861,311,6.0,29.0,36.0,16.29638671875,45.593257904052734,0.4882812201976776,-0.42529296875,0.0758056640625,-0.1512451171875
2.481,310,509,749,311,6.0,29.0,36.0,10.925292015075684,44.921871185302734,-7.629394054412842,-0.261474609375,0.0186767578125,-0.1014404296875
2.491,309,399,662,311,6.0,29.0,40.0,6.225585460662842,44.799800872802734,-15.930174827575684,-0.23828125,-0.032958984375,-0.05029296875
2.508,310,377,589,309,6.0,29.0,40.0,3.051757574081421,45.959468841552734,-23.742673873901367,-0.342041015625,0.011474609375,-0.06689453125
2.511,310,365,563,309,6.0,29.0,40.0,-1.8310545682907104,45.288082122802734,-26.245115280151367,-0.5361328125,0.211181640625,-0.0694580078125
2.519,309,361,547,309,6.0,29.0,40.0,-15.136717796325684,35.58349609375,-23.864744186401367,-0.6993408203125,0.3822021484375,0.0330810546875
2.533,307,365,536,309,6.0,29.0,40.0,-34.60693359375,20.568845748901367,-22.949216842651367,-0.7452392578125,0.36474609375,0.1544189453125
2.542,311,781,546,309,6.0,29.0,40.0,-44.433589935302734,13.061522483825684,-26.306150436401367,-0.7384033203125,0.23681640625,0.161865234375
2.549,311,775,555,309,6.0,29.0,40.0,-37.90283203125,16.357421875,-30.395505905151367,-0.7333984375,0.1456298828125,0.0853271484375
2.562,311,381,574,309,6.0,29.0,40.0,-25.695798873901367,21.911619186401367,-32.04345703125,-0.7352294921875,0.1185302734375,0.0467529296875
2.583,309,375,582,309,6.0,29.0,40.0,-19.71435546875,21.850584030151367,-31.738279342651367,-0.7353515625,0.112548828125,0.084716796875
2.583,308,379,593,309,6.0,29.0,40.0,-20.751951217651367,17.15087890625,-30.639646530151367,-0.74609375,0.09423828125,0.1414794921875
2.598,309,382,606,309,7.0,28.0,36.0,-21.545408248901367,12.817381858825684,-27.893064498901367,-0.7747802734375,0.0626220703125,0.16796875
2.604,311,372,607,310,7.0,28.0,36.0,-18.798828125,10.192870140075684,-22.277830123901367,-0.8087158203125,0.0343017578125,0.1624755859375
2.614,309,372,603,310,7.0,28.0,36.0,-14.282225608825684,8.48388671875,-14.709471702575684,-0.8349609375,0.0205078125,0.1427001953125
2.622,309,377,603,308,7.0,28.0,36.0,-8.9111328125,7.202147960662842,-7.568358898162842,-0.83984375,0.015380859375,0.13134765625
2.631,309,380,612,309,7.0,28.0,36.0,-3.417968511581421,6.225585460662842,-1.9531248807907104,-0.8199462890625,0.0072021484375,0.1300048828125
2.640,309,381,614,309,7.0,28.0,36.0,-0.54931640625,5.432128429412842,2.44140625,-0.7880859375,-0.0111083984375,0.125732421875
2.656,309,383,613,309,7.0,28.0,36.0,-0.30517578125,4.2724609375,6.347655773162842,-0.753173828125,-0.0374755859375,0.108154296875
2.661,309,386,603,309,7.0,28.0,36.0,0.1220703050494194,2.990722417831421,10.437010765075684,-0.719482421875,-0.057373046875,0.074951171875
2.684,309,391,600,309,7.0,28.0,36.0,3.295898199081421,1.9531248807907104,14.587401390075684,-0.6912841796875,-0.0679931640625,0.0352783203125
2.684,305,381,596,309,7.0,28.0,36.0,9.3994140625,0.9765624403953552,18.61572265625,-0.6741943359375,-0.075927734375,-0.00244140625
2.691,309,428,592,309,8.0,29.0,31.0,17.27294921875,-0.2441406100988388,22.521970748901367,-0.68359375,-0.085693359375,-0.03662109375
2.707,309,439,603,309,8.0,29.0,31.0,27.709959030151367,-2.13623046875,26.855466842651367,-0.70654296875,-0.0780029296875,-0.055908203125
2.712,309,488,658,309,8.0,29.0,31.0,40.771480560302734,-5.187987804412842,32.77587890625,-0.72119140625,-0.0345458984375,-0.055908203125
2.726,309,614,710,310,8.0,29.0,31.0,52.062984466552734,-8.72802734375,41.015621185302734,-0.7564697265625,0.03515625,-0.05517578125
2.729,309,714,739,310,8.0,29.0,31.0,56.213375091552734,-12.695311546325684,50.781246185302734,-0.8682861328125,0.1558837890625,-0.0570068359375
2.742,309,837,793,310,8.0,29.0,31.0,49.194332122802734,-19.95849609375,59.875484466552734,-0.990966796875,0.3321533203125,-0.0433349609375
2.750,309,906,861,310,8.0,29.0,31.0,31.799314498901367,-28.320310592651367,64.39208984375,-1.0179443359375,0.510986328125,-0.075927734375
2.759,310,989,935,311,8.0,29.0,31.0,5.737304210662842,-32.40966796875,59.020992279052734,-0.970947265625,0.554931640625,-0.14013671875
2.785,311,1139,1125,311,8.0,29.0,31.0,-26.977537155151367,-36.19384765625,43.579097747802734,-0.8653564453125,0.3717041015625,-0.0994873046875
2.786,309,1228,1260,311,8.0,29.0,31.0,-55.236812591552734,-41.931148529052734,27.282712936401367,-0.640869140625,0.0457763671875,0.0137939453125
2.789,309,1321,1437,312,4.0,32.0,37.0,-64.39208984375,-45.593257904052734,17.76123046875,-0.2626953125,-0.2794189453125,0.108154296875
2.813,310,1483,1773,312,4.0,32.0,37.0,-45.166011810302734,-50.170894622802734,14.648436546325684,0.1241455078125,-0.441162109375,0.192138671875
2.814,294,1553,1981,312,4.0,32.0,37.0,1.8920897245407104,-62.561031341552734,14.526366233825684,0.3055419921875,-0.3853759765625,0.304931640625
2.819,311,1648,2157,313,4.0,32.0,37.0,52.429195404052734,-78.67431640625,14.282225608825684,0.21337890625,-0.12060546875,0.4619140625
2.839,311,1785,2354,314,4.0,32.0,37.0,71.533203125,-79.77294921875,15.380858421325684,-0.279052734375,0.506591796875,0.47021484375
2.841,311,1877,2450,316,4.0,32.0,37.0,49.865718841552734,-55.603023529052734,19.4091796875,-1.0009765625,1.430419921875,0.105712890625
2.849,311,1955,2526,314,4.0,32.0,37.0,0.6713866591453552,-22.644041061401367,13.610838890075684,-1.4820556640625,1.7322998046875,-0.1500244140625
2.862,311,2052,2684,315,4.0,32.0,37.0,-43.334957122802734,-3.234863042831421,-14.831542015075684,-1.793701171875,1.117431640625,-0.0516357421875
2.870,312,2130,2800,316,4.0,32.0,37.0,-54.077144622802734,-0.7324218153953552,-49.133296966552734,-2.25048828125,0.26123046875,0.1754150390625
2.889,311,2203,2831,316,4.0,32.0,37.0,-34.48486328125,-9.70458984375,-68.2373046875,-2.9434814453125,-0.2913818359375,0.47216796875
2.893,312,2210,2757,314,5.0,31.0,40.0,-1.2817381620407104,-22.888181686401367,-63.293453216552734,-3.125732421875,-0.3519287109375,0.5364990234375
2.901,311,2178,2727,316,5.0,31.0,40.0,25.817869186401367,-22.766111373901367,-39.24560546875,-2.28271484375,-0.1402587890625,0.2613525390625
2.917,311,2273,2701,316,5.0,31.0,40.0,34.85107421875,-9.033203125,-16.41845703125,-1.4842529296875,0.1424560546875,0.136962890625
2.923,311,2076,2626,316,5.0,31.0,40.0,29.724119186401367,3.173827886581421,-4.69970703125,-1.443359375,0.3114013671875,0.2813720703125
2.931,311,2052,2571,316,5.0,31.0,40.0,18.12744140625,10.437010765075684,1.2817381620407104,-1.7745361328125,0.3538818359375,0.4073486328125
2.939,311,2024,2507,315,5.0,31.0,40.0,5.432128429412842,12.878417015075684,7.019042491912842,-2.0023193359375,0.3428955078125,0.467529296875
2.952,311,1949,2344,314,5.0,31.0,40.0,-3.662109136581421,14.831542015075684,10.986327171325684,-1.9429931640625,0.2333984375,0.407470703125
2.962,312,1831,2210,316,5.0,31.0,40.0,-5.310058116912842,20.080564498901367,12.573241233825684,-1.6839599609375,0.0589599609375,0.3209228515625
2.969,311,1743,2074,314,5.0,31.0,40.0,1.5258787870407104,24.597166061401367,14.709471702575684,-1.379150390625,-0.0838623046875,0.30078125
2.989,311,1567,1788,313,6.0,27.0,40.0,15.747069358825684,27.282712936401367,18.06640625,-1.13037109375,-0.0751953125,0.2718505859375
2.991,310,1404,1627,312,6.0,27.0,40.0,33.50830078125,30.334470748901367,22.888181686401367,-0.959716796875,0.1619873046875,0.1346435546875
2.999,311,1292,1454,314,6.0,27.0,40.0,47.546382904052734,33.99658203125,25.268552780151367,-0.8243408203125,0.442138671875,-0.0753173828125
3.013,310,980,1139,312,6.0,27.0,40.0,49.987789154052734,36.4990234375,18.9208984375,-0.664794921875,0.5501708984375,-0.2330322265625
3.024,310,756,919,311,6.0,27.0,40.0,39.6728515625,36.865234375,5.310058116912842,-0.48046875,0.5438232421875,-0.2989501953125
3.029,311,572,749,311,6.0,27.0,40.0,21.545408248901367,36.80419921875,-11.108397483825684,-0.31640625,0.4429931640625,-0.3275146484375
3.042,309,382,590,309,6.0,27.0,40.0,2.0751953125,39.4287109375,-27.587888717651367,-0.244873046875,0.322998046875,-0.348876953125
3.052,309,381,572,310,6.0,27.0,40.0,-14.648436546325684,41.442867279052734,-39.6728515625,-0.278076171875,0.329345703125,-0.24462890625
3.068,308,368,562,310,6.0,27.0,40.0,-31.127927780151367,35.0341796875,-48.889156341552734,-0.4261474609375,0.345458984375,-0.010009765625
3.072,309,362,561,309,6.0,27.0,40.0,-49.011226654052734,23.498533248901367,-60.485836029052734,-0.6019287109375,0.2470703125,0.17724609375
3.094,309,367,564,310,8.0,30.0,37.0,-64.0869140625,16.54052734375,-70.98388671875,-0.6983642578125,0.0718994140625,0.25341796875
3.094,309,369,579,309,8.0,30.0,37.0,-68.90869140625,15.747069358825684,-71.71630859375,-0.7410888671875,-0.0546875,0.25634765625
3.102,309,368,588,309,8.0,30.0,37.0,-61.523433685302734,15.808104515075684,-59.997554779052734,-0.742431640625,-0.0704345703125,0.2298583984375
3.112,309,372,592,309,8.0,30.0,37.0,-47.790523529052734,14.465331077575684,-42.236324310302734,-0.726318359375,-0.0296630859375,0.1954345703125
3.118,1590,372,596,309,8.0,30.0,37.0,-35.09521484375,13.000487327575684,-26.855466842651367,-0.724365234375,-0.0152587890625,0.166259765625
3.132,309,375,627,309,8.0,30.0,37.0,-28.198240280151367,11.779784202575684,-17.08984375,-0.739990234375,-0.04638671875,0.1619873046875
3.141,308,378,633,309,8.0,30.0,37.0,-24.902341842651367,10.314940452575684,-11.840819358825684,-0.75830078125,-0.079833984375,0.1756591796875
3.150,309,380,640,309,8.0,30.0,37.0,-19.53125,8.7890625,-8.1787109375,-0.766357421875,-0.0748291015625,0.1715087890625
3.169,309,378,657,309,8.0,30.0,37.0,-11.352538108825684,7.690429210662842,-3.784179449081421,-0.7503662109375,-0.032470703125,0.1343994140625
3.197,309,381,654,309,8.0,30.0,37.0,-5.615233898162842,6.530761241912842,1.6479490995407104,-0.7137451171875,0.01806640625,0.0867919921875
3.197,310,384,647,307,8.0,28.0,36.0,-5.0048828125,4.8828125,6.835937023162842,-0.6844482421875,0.043701171875,0.05615234375
3.197,309,382,645,309,8.0,28.0,36.0,-6.591796398162842,2.746581792831421,10.375975608825684,-0.6773681640625,0.028564453125,0.053955078125
3.201,310,386,643,309,8.0,28.0,36.0,-7.385253429412842,0.2441406100988388,12.084959983825684,-0.67822265625,-0.0147705078125,0.0760498046875
3.210,309,391,633,309,8.0,28.0,36.0,-6.225585460662842,-2.197265625,13.183592796325684,-0.6739501953125,-0.0574951171875,0.1044921875
3.223,309,404,625,310,8.0,28.0,36.0,-3.051757574081421,-4.33349609375,14.770506858825684,-0.6629638671875,-0.0791015625,0.1180419921875
3.238,309,411,617,309,8.0,28.0,36.0,1.9531248807907104,-5.920409679412842,17.88330078125,-0.640380859375,-0.078125,0.1099853515625
3.239,289,402,589,308,8.0,28.0,36.0,1.9531248807907104,-5.920409679412842,17.88330078125,-0.6014404296875,-0.0760498046875,0.087890625
3.256,310,465,598,309,8.0,28.0,36.0,14.343260765075684,-8.4228515625,28.869626998901367,-0.5755615234375,-0.12158203125,0.0416259765625
3.264,309,477,614,310,8.0,28.0,36.0,25.817869186401367,-8.48388671875,36.92626953125,-0.5511474609375,-0.1959228515625,-0.03759765625
3.269,309,636,653,310,8.0,28.0,36.0,25.817869186401367,-8.48388671875,36.92626953125,-0.5228271484375,-0.1639404296875,-0.1346435546875
3.299,309,951,745,310,5.0,30.0,38.0,67.56591796875,-14.709471702575684,67.07763671875,-0.57958984375,0.0692138671875,-0.15234375
3.302,309,1063,907,311,5.0,30.0,38.0,77.392578125,-36.80419921875,82.51952362060547,-0.5870361328125,0.4061279296875,-0.040771484375
3.303,310,1186,1129,311,5.0,30.0,38.0,77.392578125,-36.80419921875,82.51952362060547,-0.2509765625,0.561767578125,-0.0057373046875
3.313,311,1338,1643,312,5.0,30.0,38.0,66.7724609375,-91.30858612060547,63.049312591552734,0.3165283203125,0.2847900390625,-0.013916015625
3.321,311,1457,1884,314,5.0,30.0,38.0,43.884273529052734,-107.29979705810547,23.864744186401367,0.642822265625,-0.2547607421875,0.1693115234375
3.332,311,1607,2098,314,5.0,30.0,38.0,43.884273529052734,-107.29979705810547,23.864744186401367,0.352783203125,-0.4002685546875,0.4248046875
3.342,311,1805,2382,314,5.0,30.0,38.0,41.076656341552734,-84.53368377685547,-10.070799827575684,-0.528076171875,0.388671875,0.30224609375
3.351,311,1875,2524,314,5.0,30.0,38.0,48.339839935302734,-36.31591796875,0.6103515625,-1.467041015625,1.7432861328125,-0.226318359375
3.358,311,1973,2612,316,5.0,30.0,38.0,48.339839935302734,-36.31591796875,0.6103515625,-1.9676513671875,2.0511474609375,-0.3948974609375
3.373,312,2186,2869,316,5.0,26.0,34.0,-59.753414154052734,-0.9765624403953552,-32.16552734375,-2.2978515625,1.0648193359375,-0.063720703125
3.381,312,2220,2970,318,5.0,26.0,34.0,-78.857421875,-14.648436546325684,-71.59423828125,-2.985595703125,0.04443359375,0.567138671875
3.408,312,2122,2885,319,5.0,26.0,34.0,-78.857421875,-14.648436546325684,-71.59423828125,-3.4354248046875,-0.565673828125,1.1402587890625
3.408,311,2096,2833,316,5.0,26.0,34.0,-8.36181640625,-51.513668060302734,-69.82421875,-2.630615234375,-0.523681640625,0.6278076171875
3.418,311,2076,2797,318,5.0,26.0,34.0,28.808591842651367,-22.827146530151367,-36.2548828125,-1.332275390625,-0.046630859375,-0.125732421875
3.420,297,2020,2760,319,5.0,26.0,34.0,28.808591842651367,-22.827146530151367,-36.2548828125,-0.88525390625,0.10791015625,0.019287109375
3.437,311,2024,2716,316,5.0,26.0,34.0,-2.929687261581421,15.136717796325684,-5.432128429412842,-1.2310791015625,0.0067138671875,0.4241943359375
3.441,311,2002,2686,316,5.0,26.0,34.0,-10.253905296325684,10.925292015075684,3.417968511581421,-1.6781005859375,0.1689453125,0.5975341796875
3.449,312,1983,2630,318,5.0,26.0,34.0,-10.253905296325684,10.925292015075684,3.417968511581421,-1.8260498046875,0.4249267578125,0.5252685546875
3.465,312,1927,2518,316,5.0,26.0,34.0,-8.11767578125,4.638671875,8.97216796875,-1.6796875,0.4344482421875,0.3316650390625
3.471,311,1874,2421,315,9.0,28.0,41.0,-15.502928733825684,11.474608421325684,2.38037109375,-1.425048828125,0.28466796875,0.196044921875
3.479,311,1819,2325,319,9.0,28.0,41.0,-15.502928733825684,11.474608421325684,2.38037109375,-1.235595703125,0.1488037109375,0.2423095703125
3.502,311,1713,2146,314,9.0,28.0,41.0,-10.864256858825684,20.812986373901367,-1.6479490995407104,-1.1490478515625,0.08447265625,0.349609375
3.503,311,1659,2034,314,9.0,28.0,41.0,-3.295898199081421,23.315427780151367,3.051757574081421,-1.091796875,0.1221923828125,0.335205078125
3.519,311,1643,1904,314,9.0,28.0,41.0,-3.295898199081421,23.315427780151367,3.051757574081421,-1.01318359375,0.1754150390625,0.190673828125
3.524,311,1371,1681,315,9.0,28.0,41.0,3.234863042831421,32.2265625,9.94873046875,-0.91259765625,0.12939453125,0.025634765625
3.531,311,1232,1538,313,9.0,28.0,41.0,3.601073980331421,37.2314453125,8.97216796875,-0.7989501953125,0.0152587890625,-0.0848388671875
3.539,311,1086,1372,312,9.0,28.0,41.0,3.601073980331421,37.2314453125,8.97216796875,-0.661865234375,-0.054931640625,-0.1346435546875
3.558,309,846,1098,312,9.0,28.0,41.0,1.03759765625,39.73388671875,3.906249761581421,-0.507080078125,-0.062744140625,-0.1212158203125
3.562,311,710,922,312,9.0,28.0,41.0,-2.746581792831421,36.376953125,2.563476324081421,-0.4072265625,-0.0374755859375,-0.080810546875
3.570,309,604,833,311,5.0,27.0,36.0,-2.746581792831421,36.376953125,2.563476324081421,-0.4066162109375,-0.026611328125,-0.0557861328125
3.583,309,461,683,310,5.0,27.0,36.0,-4.94384765625,34.1796875,-3.112792730331421,-0.4608154296875,0.005615234375,-0.0423583984375
3.606,309,419,631,311,5.0,27.0,36.0,-6.774901866912842,34.48486328125,-4.45556640625,-0.52392578125,0.1322021484375,-0.017578125
3.606,309,395,593,310,5.0,27.0,36.0,-6.774901866912842,34.48486328125,-4.45556640625,-0.59033203125,0.265380859375,0.0487060546875
3.615,309,381,585,308,5.0,27.0,36.0,-24.719236373901367,21.667478561401367,2.624511480331421,-0.669921875,0.3115234375,0.1485595703125
3.633,309,384,583,310,5.0,27.0,36.0,-27.832029342651367,13.610838890075684,2.25830078125,-0.747314453125,0.2908935546875,0.218017578125
3.634,308,376,588,309,5.0,27.0,36.0,-27.832029342651367,13.610838890075684,2.25830078125,-0.807861328125,0.25537109375,0.2093505859375
3.650,310,361,578,310,5.0,27.0,36.0,-11.108397483825684,13.427733421325684,-11.352538108825684,-0.84326171875,0.233642578125,0.169189453125
3.663,310,365,571,309,5.0,27.0,36.0,-9.521484375,15.747069358825684,-16.05224609375,-0.8553466796875,0.2119140625,0.1611328125
3.672,309,368,570,309,5.0,27.0,36.0,-9.521484375,15.747069358825684,-16.05224609375,-0.8555908203125,0.1688232421875,0.1812744140625
3.680,309,371,573,310,6.0,30.0,35.0,-19.4091796875,12.329100608825684,-15.380858421325684,-0.8489990234375,0.1171875,0.1944580078125
3.684,309,376,577,309,6.0,30.0,35.0,-18.98193359375,9.765625,-10.742186546325684,-0.8443603515625,0.0853271484375,0.177001953125
3.688,310,377,590,309,6.0,30.0,35.0,-18.98193359375,9.765625,-10.742186546325684,-0.8460693359375,0.07666015625,0.1385498046875
3.707,309,377,601,309,6.0,30.0,35.0,-2.807616949081421,7.080077648162842,1.15966796875,-0.84814453125,0.07080078125,0.1063232421875
3.713,311,381,606,311,6.0,30.0,35.0,5.737304210662842,5.432128429412842,5.371093273162842,-0.845458984375,0.0611572265625,0.0888671875
3.720,309,382,616,309,6.0,30.0,35.0,5.737304210662842,5.432128429412842,5.371093273162842,-0.845458984375,0.0611572265625,0.0888671875
3.733,309,383,629,309,6.0,30.0,35.0,15.747069358825684,0.1220703050494194,10.131834983825684,-0.822509765625,0.0692138671875,0.0631103515625
3.741,308,391,625,310,6.0,30.0,35.0,15.747069358825684,0.1220703050494194,10.131834983825684,-0.8046875,0.0838623046875,0.04638671875
3.749,309,399,620,310,6.0,30.0,35.0,17.2119140625,-2.44140625,11.962889671325684,-0.8046875,0.0838623046875,0.04638671875
3.774,309,411,607,310,6.0,30.0,35.0,17.51708984375,-4.5166015625,14.587401390075684,-0.7843017578125,0.0703125,0.0133056640625
3.774,309,423,609,309,7.0,32.0,38.0,17.51708984375,-4.5166015625,14.587401390075684,-0.7764892578125,0.0396728515625,0.01171875
3.781,308,438,612,309,7.0,32.0,38.0,17.822265625,-4.82177734375,16.66259765625,-0.7764892578125,0.0396728515625,0.01171875
3.809,310,488,650,310,7.0,32.0,38.0,21.850584030151367,-7.873534679412842,25.817869186401367,-0.76318359375,0.0169677734375,0.044677734375
3.810,309,547,656,295,7.0,32.0,38.0,21.850584030151367,-7.873534679412842,25.817869186401367,-0.765869140625,0.072509765625,0.0657958984375
3.810,309,630,720,311,7.0,32.0,38.0,23.620603561401367,-11.352538108825684,32.28759765625,-0.765869140625,0.072509765625,0.0657958984375
3.830,310,769,788,311,7.0,32.0,38.0,15.502928733825684,-18.4326171875,43.701168060302734,-0.81103515625,0.152099609375,0.046630859375
3.831,310,814,873,311,7.0,32.0,38.0,15.502928733825684,-18.4326171875,43.701168060302734,-0.804931640625,0.242919921875,-0.0372314453125
3.839,310,932,976,311,7.0,32.0,38.0,10.314940452575684,-17.88330078125,48.950191497802734,-0.804931640625,0.242919921875,-0.0372314453125
3.853,310,1131,1249,312,7.0,32.0,38.0,-24.291990280151367,-19.83642578125,43.151851654052734,-0.4276123046875,0.1875,-0.0533447265625
3.861,311,1248,1417,312,7.0,32.0,38.0,-24.291990280151367,-19.83642578125,43.151851654052734,-0.0166015625,-0.207763671875,0.1282958984375
3.869,311,1365,1602,313,4.0,28.0,40.0,-48.217769622802734,-28.259275436401367,31.982419967651367,-0.0166015625,-0.207763671875,0.1282958984375
3.886,311,1526,1967,313,4.0,28.0,40.0,-14.099120140075684,-45.654293060302734,29.235837936401367,0.6043701171875,-0.7928466796875,0.51708984375
3.891,311,1635,2119,314,4.0,28.0,40.0,-14.099120140075684,-45.654293060302734,29.235837936401367,0.2484130859375,-0.382080078125,0.530517578125
3.913,312,1730,2224,314,4.0,28.0,40.0,41.015621185302734,-55.053707122802734,39.1845703125,0.2484130859375,-0.382080078125,0.530517578125
3.913,295,1850,2386,313,4.0,28.0,40.0,86.91405487060547,-55.725093841552734,55.236812591552734,-1.4093017578125,2.0955810546875,-0.1478271484375
3.921,311,1927,2479,316,4.0,28.0,40.0,86.91405487060547,-55.725093841552734,55.236812591552734,-1.6827392578125,2.2874755859375,-0.268798828125
3.936,314,1996,2552,315,4.0,28.0,40.0,48.950191497802734,-31.738279342651367,37.78076171875,-1.6827392578125,2.2874755859375,-0.268798828125
3.943,312,2178,2679,316,4.0,28.0,40.0,-44.433589935302734,-7.385253429412842,-52.307125091552734,-2.1585693359375,0.1446533203125,0.279052734375
3.951,312,2249,2748,317,4.0,28.0,40.0,-44.433589935302734,-7.385253429412842,-52.307125091552734,-2.7886962890625,-0.1839599609375,0.4732666015625
3.971,311,2212,2692,316,4.0,28.0,40.0,-44.311519622802734,-11.596678733825684,-64.14794921875,-2.7886962890625,-0.1839599609375,0.4732666015625
3.974,311,2197,2683,315,4.0,28.0,37.0,10.925292015075684,-13.244627952575684,-34.48486328125,-2.3046875,0.0809326171875,0.2354736328125
3.984,311,2152,2671,315,4.0,28.0,37.0,10.925292015075684,-13.244627952575684,-34.48486328125,-1.3890380859375,0.115478515625,0.0767822265625
3.989,311,2170,2659,322,4.0,28.0,37.0,17.51708984375,6.896972179412842,-23.742673873901367,-1.3890380859375,0.115478515625,0.0767822265625
4.015,311,2135,2627,316,4.0,28.0,37.0,20.751951217651367,13.854979515075684,-12.939452171325684,-1.5509033203125,0.3697509765625,0.263671875
4.015,310,2126,2587,316,4.0,28.0,37.0,20.751951217651367,13.854979515075684,-12.939452171325684,-1.790771484375,0.4368896484375,0.3421630859375
4.019,310,2035,2532,314,4.0,28.0,37.0,10.192870140075684,10.253905296325684,-7.263183116912842,-1.790771484375,0.4368896484375,0.3421630859375
4.038,311,1953,2410,315,4.0,28.0,37.0,-16.41845703125,14.709471702575684,-7.385253429412842,-1.5557861328125,0.234619140625,0.3563232421875
4.041,312,1907,2334,316,4.0,28.0,37.0,-16.41845703125,14.709471702575684,-7.385253429412842,-1.3094482421875,0.136474609375,0.334716796875
4.049,312,1912,2259,313,4.0,28.0,37.0,-7.934569835662842,20.202634811401367,-9.6435546875,-1.3094482421875,0.136474609375,0.334716796875
4.095,311,1695,2048,314,6.0,30.0,40.0,20.690916061401367,30.578611373901367,-5.371093273162842,-1.1109619140625,0.0816650390625,0.2137451171875
4.095,311,1533,1914,314,6.0,30.0,40.0,20.690916061401367,30.578611373901367,-5.371093273162842,-1.07666015625,0.175048828125,0.0465087890625
4.096,311,1476,1795,315,6.0,30.0,40.0,30.761716842651367,38.02490234375,0.3662109076976776,-1.07666015625,0.175048828125,0.0465087890625
4.096,311,1236,1478,313,6.0,30.0,40.0,25.939939498901367,43.762203216552734,7.324218273162842,-0.79296875,0.3553466796875,-0.1265869140625
4.125,311,1100,1358,313,6.0,30.0,40.0,25.939939498901367,43.762203216552734,7.324218273162842,-0.64208984375,0.3289794921875,-0.1131591796875
4.126,305,891,1209,309,6.0,30.0,40.0,8.72802734375,41.503902435302734,6.347655773162842,-0.64208984375,0.3289794921875,-0.1131591796875
4.126,310,614,871,308,6.0,30.0,40.0,-23.193357467651367,45.104976654052734,-4.8828125,-0.3359375,0.1971435546875,-0.15673828125
4.134,309,479,734,311,6.0,30.0,40.0,-23.193357467651367,45.104976654052734,-4.8828125,-0.2763671875,0.1839599609375,-0.158935546875
4.139,309,393,668,310,6.0,30.0,40.0,-32.53173828125,48.828121185302734,-13.488768577575684,-0.2763671875,0.1839599609375,-0.158935546875
4.156,309,376,603,309,6.0,30.0,40.0,-43.212886810302734,37.29248046875,-28.930662155151367,-0.4698486328125,0.256591796875,0.1168212890625
4.161,309,372,582,311,5.0,32.0,34.0,-43.212886810302734,37.29248046875,-28.930662155151367,-0.70166015625,0.2537841796875,0.1658935546875
4.168,309,372,556,308,5.0,32.0,34.0,-48.828121185302734,27.648923873901367,-35.5224609375,-0.70166015625,0.2537841796875,0.1658935546875
4.184,308,381,569,309,5.0,32.0,34.0,-61.218257904052734,23.315427780151367,-40.222164154052734,-0.82666015625,0.1722412109375,0.1009521484375
4.219,311,379,562,309,5.0,32.0,34.0,-61.218257904052734,23.315427780151367,-40.222164154052734,-0.791748046875,0.098876953125,0.08251953125
4.219,310,377,574,309,5.0,32.0,34.0,-64.88037109375,24.353025436401367,-37.78076171875,-0.791748046875,0.098876953125,0.08251953125
4.219,309,379,591,309,5.0,32.0,34.0,-54.443355560302734,20.141599655151367,-24.658201217651367,-0.8070068359375,0.031005859375,0.14111328125
4.221,307,381,600,309,5.0,32.0,34.0,-54.443355560302734,20.141599655151367,-24.658201217651367,-0.8468017578125,0.0218505859375,0.1800537109375
4.229,309,380,605,309,5.0,32.0,34.0,-42.053218841552734,14.587401390075684,-16.78466796875,-0.8468017578125,0.0218505859375,0.1800537109375
4.243,310,378,620,309,5.0,32.0,34.0,-28.564451217651367,9.1552734375,-10.192870140075684,-0.9068603515625,0.0826416015625,0.1854248046875
4.251,309,377,620,310,5.0,32.0,34.0,-16.357421875,5.065917491912842,-5.676269054412842,-0.9068603515625,0.0826416015625,0.1854248046875
4.259,309,384,630,309,6.0,30.0,35.0,-7.202147960662842,2.38037109375,-3.051757574081421,-0.9046630859375,0.1258544921875,0.1572265625
4.276,1334,3176,633,309,6.0,30.0,35.0,-2.25830078125,0.54931640625,-1.5258787870407104,-0.8487548828125,0.1500244140625,0.082763671875
4.282,310,496,640,309,6.0,30.0,35.0,-2.197265625,-1.3427733182907104,-0.1831054538488388,-0.8487548828125,0.1500244140625,0.082763671875
4.289,309,529,644,309,6.0,30.0,35.0,-6.896972179412842,-3.723144292831421,1.220703125,-0.8077392578125,0.13330078125,0.055908203125
4.324,310,431,647,310,6.0,30.0,35.0,-14.770506858825684,-6.347655773162842,2.563476324081421,-0.72998046875,0.0576171875,0.0498046875
4.325,310,410,650,309,6.0,30.0,35.0,-22.033689498901367,-8.4228515625,3.784179449081421,-0.72998046875,0.0576171875,0.0498046875
4.325,295,401,650,308,6.0,30.0,35.0,-24.597166061401367,-9.27734375,4.8828125,-0.712646484375,0.02392578125,0.0467529296875
4.334,310,407,661,309,6.0,30.0,35.0,-21.606443405151367,-8.9111328125,6.042479991912842,-0.70166015625,0.014892578125,0.03857421875
4.344,309,409,661,309,6.0,30.0,35.0,-15.319823265075684,-8.36181640625,7.202147960662842,-0.70166015625,0.014892578125,0.03857421875
4.349,309,407,656,309,6.0,30.0,35.0,-8.7890625,-8.1787109375,8.85009765625,-0.676025390625,0.0166015625,0.037353515625
4.364,309,423,640,310,7.0,31.0,34.0,-4.8828125,-8.1787109375,11.962889671325684,-0.5718994140625,-0.014892578125,-0.001953125
4.374,309,478,631,309,7.0,31.0,34.0,-4.8828125,-8.36181640625,16.845703125,-0.5718994140625,-0.014892578125,-0.001953125
4.384,309,488,643,310,7.0,31.0,34.0,-5.432128429412842,-9.21630859375,21.057126998901367,-0.55517578125,-0.088134765625,-0.024169921875
4.397,309,674,711,309,7.0,31.0,34.0,2.563476324081421,-10.314940452575684,24.841306686401367,-0.6058349609375,0.027587890625,-0.0604248046875
4.424,311,774,778,311,7.0,31.0,34.0,19.04296875,-12.451170921325684,33.203125,-0.6058349609375,0.027587890625,-0.0604248046875
4.426,309,844,899,311,7.0,31.0,34.0,32.04345703125,-23.254392623901367,44.006343841552734,-0.7119140625,0.2940673828125,0.0372314453125
4.426,310,1017,1286,311,7.0,31.0,34.0,36.68212890625,-43.640132904052734,48.400875091552734,-0.321533203125,0.3629150390625,0.001220703125
4.431,311,1114,1528,313,7.0,31.0,34.0,26.794431686401367,-58.044429779052734,38.51318359375,-0.321533203125,0.3629150390625,0.001220703125
4.439,310,1199,1750,313,7.0,31.0,34.0,-3.173827886581421,-67.7490234375,15.136717796325684,0.10693359375,-0.03857421875,0.0897216796875
4.453,311,1384,2089,314,7.0,28.0,38.0,-28.808591842651367,-79.9560546875,-5.798339366912842,0.0399169921875,-0.205322265625,0.1435546875
4.461,311,1485,2263,314,7.0,28.0,38.0,-13.671874046325684,-82.70262908935547,-12.817381858825684,0.0399169921875,-0.205322265625,0.1435546875
4.469,311,1573,2421,315,7.0,28.0,38.0,33.75244140625,-71.59423828125,-11.535643577575684,-0.608154296875,0.4105224609375,-0.053955078125
4.483,311,1721,2591,316,7.0,28.0,38.0,62.744136810302734,-54.809566497802734,-9.33837890625,-1.6588134765625,1.6717529296875,-0.081298828125
4.491,311,1778,2697,316,7.0,28.0,38.0,39.97802734375,-41.320796966552734,-16.2353515625,-1.6588134765625,1.6717529296875,-0.081298828125
4.499,311,1830,2793,316,7.0,28.0,38.0,-14.587401390075684,-34.5458984375,-41.503902435302734,-1.9576416015625,0.9149169921875,0.2093505859375
4.546,311,1943,2905,316,7.0,28.0,38.0,-47.546382904052734,-31.982419967651367,-71.8994140625,-2.7869873046875,-0.6624755859375,0.78466796875
4.546,312,1943,2887,318,7.0,28.0,38.0,-35.2783203125,-35.5224609375,-84.41161346435547,-2.7869873046875,-0.6624755859375,0.78466796875
4.547,311,1920,2853,316,7.0,28.0,38.0,2.38037109375,-41.198726654052734,-69.27490234375,-2.83642578125,-0.4552001953125,0.800048828125
4.547,311,1931,2837,316,7.0,28.0,38.0,34.66796875,-32.28759765625,-39.4287109375,-1.2392578125,0.34375,0.041259765625
4.551,311,1918,2813,316,8.0,27.0,38.0,40.527339935302734,-6.896972179412842,-17.39501953125,-1.2392578125,0.34375,0.041259765625
4.559,311,1909,2803,318,8.0,27.0,38.0,22.155759811401367,13.244627952575684,-10.131834983825684,-1.1649169921875,0.278564453125,0.090576171875
4.573,311,1874,2750,314,8.0,27.0,38.0,2.0751953125,16.11328125,-8.23974609375,-1.83544921875,0.123291015625,0.5772705078125
4.581,311,1843,2689,316,8.0,27.0,38.0,-5.126952648162842,10.437010765075684,-3.906249761581421,-1.83544921875,0.123291015625,0.5772705078125
4.589,311,1791,2621,316,8.0,27.0,38.0,-6.774901866912842,7.019042491912842,0.30517578125,-1.818359375,0.288330078125,0.5546875
4.603,311,1695,2463,314,8.0,27.0,38.0,-10.375975608825684,10.681151390075684,0.4272460639476776,-1.3973388671875,0.226318359375,0.3072509765625
4.611,311,1628,2366,316,8.0,27.0,38.0,-10.925292015075684,18.798828125,-2.624511480331421,-1.3973388671875,0.226318359375,0.3072509765625
4.629,311,1552,2254,316,8.0,27.0,38.0,-5.371093273162842,26.367185592651367,-4.2724609375,-1.294189453125,0.103759765625,0.2950439453125
4.634,312,1428,2014,314,8.0,27.0,38.0,1.5869139432907104,30.883787155151367,-1.15966796875,-1.1474609375,0.205322265625,0.1805419921875
4.642,309,1316,1880,315,8.0,27.0,38.0,5.126952648162842,32.8369140625,4.638671875,-1.1474609375,0.205322265625,0.1805419921875
4.649,311,1199,1719,313,7.0,27.0,39.0,5.554198741912842,34.36279296875,8.6669921875,-1.0223388671875,0.2205810546875,0.0418701171875
4.663,311,953,1372,311,7.0,27.0,39.0,3.662109136581421,35.5224609375,8.97216796875,-0.6744384765625,-0.004638671875,-0.109375
4.671,311,823,1207,310,7.0,27.0,39.0,-0.4272460639476776,35.94970703125,5.554198741912842,-0.6744384765625,-0.004638671875,-0.109375
4.679,319,658,972,309,7.0,27.0,39.0,-4.638671875,37.41455078125,-0.7934569716453552,-0.458251953125,-0.1363525390625,-0.11181640625
4.692,311,485,764,311,7.0,27.0,39.0,-4.69970703125,40.222164154052734,-6.958007335662842,-0.350341796875,-0.124755859375,-0.156982421875
4.702,310,407,675,310,7.0,27.0,39.0,1.15966796875,44.311519622802734,-10.742186546325684,-0.350341796875,-0.124755859375,-0.156982421875
4.709,309,401,617,310,7.0,27.0,39.0,2.807616949081421,47.058101654052734,-13.549803733825684,-0.437744140625,-0.0096435546875,-0.157470703125
4.736,1550,3176,561,309,7.0,27.0,39.0,-11.291502952575684,44.311519622802734,-14.770506858825684,-0.5916748046875,0.183837890625,-0.122314453125
4.736,1689,3176,519,307,7.0,27.0,39.0,-42.663570404052734,34.0576171875,-12.145995140075684,-0.7161865234375,0.34423828125,-0.013671875
4.739,309,384,529,308,7.0,27.0,39.0,-76.72119140625,21.118162155151367,-8.60595703125,-0.7164306640625,0.349609375,0.1259765625
4.758,309,373,527,309,10.0,29.0,35.0,-90.69823455810547,15.563963890075684,-7.568358898162842,-0.6712646484375,0.25830078125,0.208251953125
4.761,309,375,543,309,10.0,29.0,35.0,-78.61328125,17.63916015625,-6.713866710662842,-0.6456298828125,0.160400390625,0.2562255859375
4.769,309,375,543,310,10.0,29.0,35.0,-52.490230560302734,19.1650390625,-4.08935546875,-0.6552734375,0.050537109375,0.3172607421875
4.783,310,375,561,309,10.0,29.0,35.0,-23.437498092651367,16.17431640625,-1.6479490995407104,-0.71337890625,-0.0439453125,0.3304443359375
4.791,309,371,559,309,10.0,29.0,35.0,0.54931640625,11.596678733825684,0.54931640625,-0.7803955078125,-0.0662841796875,0.280029296875
4.799,309,371,564,309,10.0,29.0,35.0,16.11328125,8.60595703125,3.540038824081421,-0.7972412109375,-0.029541015625,0.2403564453125
4.813,307,373,574,309,10.0,29.0,35.0,27.404783248901367,6.835937023162842,6.042479991912842,-0.7763671875,0.0511474609375,0.202880859375
4.842,309,377,573,309,10.0,29.0,35.0,34.85107421875,5.371093273162842,7.690429210662842,-0.735107421875,0.1591796875,0.1512451171875
4.842,311,379,554,295,10.0,29.0,35.0,34.1796875,3.295898199081421,8.48388671875,-0.6827392578125,0.2183837890625,0.10888671875
4.842,309,389,548,289,9.0,30.0,34.0,24.108884811401367,1.15966796875,7.568358898162842,-0.658447265625,0.1871337890625,0.0806884765625
4.854,310,389,538,310,9.0,30.0,34.0,9.33837890625,-0.7324218153953552,5.676269054412842,-0.6640625,0.096435546875,0.06103515625
4.859,309,389,545,310,9.0,30.0,34.0,-1.8310545682907104,-3.173827886581421,3.723144292831421,-0.6815185546875,-0.00244140625,0.045166015625
4.873,310,423,547,309,9.0,30.0,34.0,-3.662109136581421,-6.835937023162842,2.13623046875,-0.724609375,-0.0885009765625,0.0322265625
4.881,309,440,555,309,9.0,30.0,34.0,4.57763671875,-10.681151390075684,1.8920897245407104,-0.791748046875,-0.1531982421875,0.0321044921875
4.889,3176,3176,562,309,9.0,30.0,34.0,21.911619186401367,-13.549803733825684,5.737304210662842,-0.83740234375,-0.1395263671875,0.0352783203125
4.903,2194,570,605,309,9.0,30.0,34.0,41.687007904052734,-14.953612327575684,15.197752952575684,-0.8592529296875,-0.0091552734375,0.021484375
4.915,309,645,654,310,9.0,30.0,34.0,51.147457122802734,-17.27294921875,25.756834030151367,-0.880859375,0.145751953125,0.0155029296875
4.944,311,707,715,310,9.0,30.0,34.0,44.982906341552734,-22.705076217651367,31.555173873901367,-0.9578857421875,0.221923828125,0.029296875
4.945,311,819,906,311,9.0,30.0,34.0,32.65380859375,-29.724119186401367,33.38623046875,-1.0391845703125,0.23583984375,0.0126953125
4.945,310,909,1143,312,6.0,27.0,39.0,21.484373092651367,-33.63037109375,35.70556640625,-0.90625,0.230224609375,-0.04638671875
4.949,311,1005,1335,312,6.0,27.0,39.0,6.958007335662842,-33.8134765625,38.87939453125,-0.51416015625,0.191650390625,-0.0850830078125
4.963,311,1194,1593,313,6.0,27.0,39.0,-12.451170921325684,-35.33935546875,39.97802734375,-0.0804443359375,0.041015625,-0.0299072265625
4.971,310,1292,1803,315,6.0,27.0,39.0,-24.841306686401367,-40.344234466552734,35.5224609375,0.194091796875,-0.21533203125,0.2344970703125
4.980,311,1391,1973,314,6.0,27.0,39.0,-9.09423828125,-45.227046966552734,26.306150436401367,0.2864990234375,-0.4002685546875,0.502197265625
4.993,311,1509,2195,312,6.0,27.0,39.0,32.89794921875,-43.823238372802734,18.9208984375,0.1798095703125,-0.416015625,0.4295654296875
5.001,311,1613,2310,316,6.0,27.0,39.0,68.66455078125,-39.794921875,19.95849609375,-0.181396484375,-0.1429443359375,0.2347412109375
5.010,311,1686,2395,318,6.0,27.0,39.0,86.05956268310547,-43.090816497802734,31.982419967651367,-0.8184814453125,0.68408203125,0.1217041015625
5.037,311,1806,2541,314,6.0,27.0,39.0,92.04100799560547,-48.339839935302734,47.241207122802734,-1.416748046875,1.7244873046875,-0.0289306640625
5.038,311,1824,2589,316,6.0,27.0,39.0,74.70703125,-44.250484466552734,40.466304779052734,-1.744384765625,1.827392578125,-0.0732421875
5.039,311,1909,2677,317,4.0,27.0,41.0,33.0810546875,-30.517576217651367,0.3662109076976776,-2.1302490234375,1.037841796875,-0.0540771484375
5.053,312,1968,2800,317,4.0,27.0,41.0,-12.390135765075684,-18.98193359375,-45.654293060302734,-2.6068115234375,0.12255859375,0.0780029296875
5.061,311,2259,2758,318,4.0,27.0,41.0,-39.48974609375,-22.155759811401367,-69.2138671875,-2.9510498046875,-0.4022216796875,0.3792724609375
5.069,312,2238,2756,316,4.0,27.0,41.0,-33.447265625,-29.296873092651367,-60.668941497802734,-2.6307373046875,-0.2745361328125,0.4503173828125
5.083,311,2012,2724,316,4.0,27.0,41.0,-10.375975608825684,-21.362302780151367,-33.75244140625,-1.709716796875,0.12109375,0.2890625
5.092,311,1920,2697,319,4.0,27.0,41.0,4.150390625,-6.103515148162842,-15.075682640075684,-1.2589111328125,0.4036865234375,0.2576904296875
5.099,312,1905,2667,319,4.0,27.0,41.0,6.408690929412842,2.990722417831421,-10.681151390075684,-1.4808349609375,0.367919921875,0.41650390625
5.114,312,1837,2574,316,4.0,27.0,41.0,1.15966796875,7.751464366912842,-9.765625,-1.8031005859375,0.20751953125,0.5562744140625
5.121,312,1783,2494,316,4.0,27.0,41.0,-6.896972179412842,11.230467796325684,-5.798339366912842,-1.887939453125,0.161865234375,0.5596923828125
5.144,311,1727,2410,316,4.0,27.0,41.0,-12.145995140075684,16.2353515625,-0.30517578125,-1.7373046875,0.2071533203125,0.4573974609375
5.144,311,1629,2225,297,5.0,28.0,38.0,-14.038084983825684,23.437498092651367,5.187987804412842,-1.5252685546875,0.207763671875,0.3746337890625
5.154,311,1552,2093,314,5.0,28.0,38.0,-13.610838890075684,31.188962936401367,10.864256858825684,-1.3775634765625,0.1668701171875,0.347412109375
5.160,309,1447,1929,314,5.0,28.0,38.0,-9.033203125,37.41455078125,17.578125,-1.2659912109375,0.14599609375,0.3155517578125
5.172,311,1253,1649,313,5.0,28.0,38.0,1.0986328125,43.884273529052734,25.146482467651367,-1.0955810546875,0.1119384765625,0.2059326171875
5.181,311,1101,1485,313,5.0,28.0,38.0,15.136717796325684,52.246089935302734,29.907224655151367,-0.8740234375,0.0684814453125,0.052001953125
5.189,309,922,1290,312,5.0,28.0,38.0,25.634763717651367,56.335445404052734,26.672361373901367,-0.655517578125,0.0264892578125,-0.04931640625
5.205,311,631,900,311,5.0,28.0,38.0,27.954099655151367,53.283687591552734,16.17431640625,-0.4437255859375,-0.028564453125,-0.091552734375
5.215,310,506,722,311,5.0,28.0,38.0,25.268552780151367,48.156734466552734,4.45556640625,-0.267822265625,-0.04931640625,-0.104736328125
5.219,309,424,659,311,5.0,28.0,38.0,22.521970748901367,45.654293060302734,-6.347655773162842,-0.198974609375,-0.036865234375,-0.1202392578125
5.245,309,372,574,310,5.0,28.0,38.0,22.277830123901367,47.119136810302734,-15.502928733825684,-0.29541015625,0.095947265625,-0.1676025390625
5.245,309,369,561,310,5.0,31.0,35.0,17.15087890625,46.508785247802734,-17.822265625,-0.5048828125,0.3314208984375,-0.1483154296875
5.249,309,368,549,310,5.0,31.0,35.0,-0.6103515625,37.17041015625,-16.90673828125,-0.6951904296875,0.4119873046875,-0.01025390625
5.266,308,363,561,309,5.0,31.0,35.0,-19.34814453125,26.306150436401367,-22.399900436401367,-0.744140625,0.3343505859375,0.102783203125
5.271,309,356,572,309,5.0,31.0,35.0,-23.925779342651367,23.498533248901367,-29.968259811401367,-0.6942138671875,0.2647705078125,0.1175537109375
5.279,309,363,582,309,5.0,31.0,35.0,-17.578125,24.597166061401367,-30.456541061401367,-0.657958984375,0.229736328125,0.107177734375
5.293,310,361,596,309,5.0,31.0,35.0,-12.329100608825684,22.521970748901367,-25.390623092651367,-0.654541015625,0.18212890625,0.11962890625
5.301,309,364,600,311,5.0,31.0,35.0,-13.122557640075684,18.98193359375,-19.775390625,-0.6785888671875,0.1090087890625,0.134521484375
5.309,309,363,599,309,5.0,31.0,35.0,-14.953612327575684,17.822265625,-13.732909202575684,-0.724609375,0.0362548828125,0.1260986328125
5.322,309,359,601,309,5.0,31.0,35.0,-13.122557640075684,19.04296875,-5.737304210662842,-0.7615966796875,0.002197265625,0.114501953125
5.345,309,364,603,309,5.0,31.0,35.0,-7.995604991912842,19.59228515625,2.990722417831421,-0.775146484375,0.0233154296875,0.115966796875
5.345,309,369,601,293,7.0,29.0,31.0,-2.197265625,17.578125,9.8876953125,-0.7781982421875,0.0780029296875,0.1182861328125
5.352,309,371,604,309,7.0,29.0,31.0,2.0751953125,14.404295921325684,13.488768577575684,-0.775634765625,0.1212158203125,0.114013671875
5.367,310,368,607,309,7.0,29.0,31.0,4.21142578125,11.474608421325684,14.038084983825684,-0.775634765625,0.141357421875,0.10400390625
5.369,309,377,600,309,7.0,29.0,31.0,3.967284917831421,9.033203125,13.305663108825684,-0.7857666015625,0.149658203125,0.0953369140625
5.383,309,377,591,309,7.0,29.0,31.0,2.25830078125,7.202147960662842,12.634276390075684,-0.80126953125,0.142333984375,0.0855712890625
5.391,309,380,591,308,7.0,29.0,31.0,0.3662109076976776,6.042479991912842,12.512206077575684,-0.8114013671875,0.1251220703125,0.0693359375
5.399,308,383,598,309,7.0,29.0,31.0,-0.1831054538488388,5.0048828125,13.000487327575684,-0.8060302734375,0.1156005859375,0.0516357421875
5.413,309,393,601,309,7.0,29.0,31.0,1.03759765625,3.112792730331421,14.038084983825684,-0.782470703125,0.1212158203125,0.037841796875
5.421,309,391,603,310,7.0,29.0,31.0,2.990722417831421,0.7324218153953552,15.441893577575684,-0.7567138671875,0.1243896484375,0.030029296875
5.435,308,431,594,309,7.0,29.0,31.0,5.798339366912842,-1.7089842557907104,16.54052734375,-0.7476806640625,0.0855712890625,0.0325927734375
5.450,310,454,593,309,4.0,30.0,32.0,12.451170921325684,-4.21142578125,17.4560546875,-0.726806640625,0.0322265625,0.0377197265625
5.452,319,531,636,309,4.0,30.0,32.0,24.536130905151367,-5.859374523162842,20.080564498901367,-0.685546875,0.0242919921875,0.018798828125
5.460,310,649,664,310,4.0,30.0,32.0,37.2314453125,-7.080077648162842,25.024412155151367,-0.691650390625,0.092041015625,-0.021240234375
5.476,311,823,722,310,4.0,30.0,32.0,43.334957122802734,-11.108397483825684,30.639646530151367,-0.7701416015625,0.22021484375,-0.0347900390625
5.482,311,928,750,311,4.0,30.0,32.0,39.48974609375,-19.22607421875,35.21728515625,-0.8980712890625,0.3687744140625,-0.0146484375
5.490,312,1009,801,311,4.0,30.0,32.0,28.686521530151367,-27.099607467651367,37.9638671875,-0.9478759765625,0.4990234375,-0.0262451171875
5.504,321,1206,989,311,4.0,30.0,32.0,14.709471702575684,-31.555173873901367,35.09521484375,-0.8050537109375,0.488525390625,-0.0557861328125
5.512,309,1328,1176,312,4.0,30.0,32.0,-0.30517578125,-38.9404296875,23.132322311401367,-0.5233154296875,0.238525390625,0.0460205078125
5.522,311,1351,1373,312,4.0,30.0,32.0,-7.385253429412842,-53.222652435302734,7.141112804412842,-0.1480712890625,-0.1380615234375,0.3033447265625
5.554,311,1496,1763,313,4.0,29.0,38.0,2.868652105331421,-65.00244140625,-2.44140625,0.2705078125,-0.40771484375,0.47412109375
5.555,311,1599,1957,314,4.0,29.0,38.0,23.071287155151367,-65.61279296875,-3.295898199081421,0.512451171875,-0.4171142578125,0.4432373046875
5.555,311,1703,2105,314,4.0,29.0,38.0,40.405269622802734,-58.593746185302734,-1.8920897245407104,0.213623046875,-0.1331787109375,0.2032470703125
5.558,310,1798,2247,314,4.0,29.0,38.0,40.405269622802734,-58.593746185302734,-1.8920897245407104,-0.67236328125,0.5860595703125,-0.3597412109375
5.572,322,2047,2424,314,4.0,29.0,38.0,66.2841796875,-29.296873092651367,9.21630859375,-1.54345703125,1.41845703125,-0.8511962890625
5.580,312,2106,2512,315,4.0,29.0,38.0,47.973628997802734,-25.329587936401367,2.44140625,-1.9334716796875,1.420654296875,-0.665283203125
5.598,311,2120,2652,315,4.0,29.0,38.0,0.4272460639476776,-34.423828125,-23.864744186401367,-2.084716796875,0.785400390625,-0.05419921875
5.632,311,2149,2745,318,4.0,29.0,38.0,-46.691890716552734,-44.189449310302734,-51.025386810302734,-2.3076171875,0.1884765625,0.4744873046875
5.633,312,2194,2782,316,4.0,29.0,38.0,-64.51416015625,-48.889156341552734,-66.34521484375,-2.69921875,-0.028076171875,0.7650146484375
5.633,324,2093,2725,314,4.0,29.0,38.0,-48.522945404052734,-45.288082122802734,-64.88037109375,-2.76708984375,0.1483154296875,0.76513671875
5.633,313,2057,2689,316,4.0,28.0,36.0,-21.484373092651367,-27.404783248901367,-52.734371185302734,-2.0223388671875,0.2459716796875,0.4869384765625
5.668,312,2078,2713,316,4.0,28.0,36.0,0.0610351525247097,0.2441406100988388,-43.640132904052734,-1.34912109375,0.2373046875,0.237060546875
5.669,311,2039,2674,316,4.0,28.0,36.0,13.977049827575684,16.41845703125,-38.39111328125,-1.41064453125,0.2017822265625,0.2069091796875
5.669,309,2010,2627,319,4.0,28.0,36.0,17.39501953125,16.2353515625,-31.311033248901367,-1.7183837890625,0.181884765625,0.2379150390625
5.671,297,1990,2555,315,4.0,28.0,36.0,7.385253429412842,10.253905296325684,-22.094724655151367,-1.8193359375,0.1964111328125,0.2808837890625
5.701,312,1943,2417,314,4.0,28.0,36.0,-10.009765625,7.324218273162842,-13.977049827575684,-1.6531982421875,0.1629638671875,0.2833251953125
5.701,311,1858,2330,316,4.0,28.0,36.0,-21.667478561401367,12.817381858825684,-7.141112804412842,-1.41748046875,0.095703125,0.2442626953125
5.701,311,1785,2210,299,4.0,28.0,36.0,-23.437498092651367,22.949216842651367,0.7324218153953552,-1.2808837890625,0.043212890625,0.2357177734375
5.778,311,1656,2062,311,4.0,28.0,36.0,-20.141599655151367,29.907224655151367,11.047362327575684,-1.2296142578125,0.0826416015625,0.2579345703125
5.802,311,1557,1927,314,4.0,28.0,36.0,-17.2119140625,31.982419967651367,21.728513717651367,-1.1629638671875,0.1572265625,0.2462158203125
5.802,311,1450,1816,314,5.0,29.0,45.0,-15.686034202575684,34.5458984375,27.648923873901367,-1.03515625,0.1563720703125,0.175048828125
5.803,310,1201,1527,314,5.0,29.0,45.0,-12.207030296325684,40.161128997802734,26.611326217651367,-0.8758544921875,0.1077880859375,0.0892333984375
5.803,311,1009,1367,314,5.0,29.0,45.0,-4.45556640625,45.288082122802734,19.71435546875,-0.7135009765625,0.0118408203125,0.0301513671875
5.804,311,815,1198,312,5.0,29.0,45.0,6.103515148162842,48.645015716552734,8.36181640625,-0.5615234375,-0.060546875,-0.010986328125
5.806,311,558,875,311,5.0,29.0,45.0,13.488768577575684,49.743648529052734,-3.295898199081421,-0.4473876953125,-0.0299072265625,-0.0433349609375
5.807,311,465,724,309,5.0,29.0,45.0,13.488768577575684,47.912593841552734,-12.756346702575684,-0.40087890625,-0.0076904296875,-0.02587890625
5.808,328,400,638,310,5.0,29.0,45.0,9.82666015625,44.250484466552734,-20.385740280151367,-0.417236328125,-0.0028076171875,0.023193359375
5.810,327,398,603,309,5.0,29.0,45.0,9.82666015625,44.250484466552734,-20.385740280151367,-0.4881591796875,0.1494140625,0.0179443359375
5.812,323,391,573,309,5.0,29.0,45.0,-2.44140625,36.376953125,-16.66259765625,-0.590087890625,0.39501953125,-0.00146484375
5.821,336,396,573,309,5.0,29.0,45.0,-20.751951217651367,26.367185592651367,-10.559081077575684,-0.62109375,0.474853515625,0.034912109375
5.834,338,393,563,310,5.0,29.0,37.0,-39.36767578125,17.7001953125,-10.742186546325684,-0.60009765625,0.3516845703125,0.0618896484375
5.856,328,384,574,309,5.0,29.0,37.0,-43.518062591552734,17.63916015625,-14.465331077575684,-0.616943359375,0.2049560546875,0.0362548828125
5.858,338,391,588,309,5.0,29.0,37.0,-34.5458984375,21.789548873901367,-15.930174827575684,-0.671142578125,0.119873046875,0.0216064453125
5.864,342,393,598,309,5.0,29.0,37.0,-25.451658248901367,22.644041061401367,-12.512206077575684,-0.732177734375,0.0784912109375,0.0518798828125
5.875,309,367,609,309,5.0,29.0,37.0,-22.521970748901367,19.59228515625,-4.94384765625,-0.7911376953125,0.059814453125,0.09130859375
5.885,344,399,605,309,5.0,29.0,37.0,-21.667478561401367,16.2353515625,3.784179449081421,-0.8363037109375,0.048828125,0.1231689453125
5.899,344,399,619,309,5.0,29.0,37.0,-17.7001953125,13.977049827575684,10.253905296325684,-0.857177734375,0.056640625,0.14306640625
5.902,343,399,625,309,5.0,29.0,37.0,-10.986327171325684,12.084959983825684,13.427733421325684,-0.8795166015625,0.1009521484375,0.137939453125
5.910,344,401,631,309,5.0,29.0,37.0,-4.8828125,10.375975608825684,14.221190452575684,-0.913818359375,0.1612548828125,0.1229248046875
5.923,338,395,632,310,6.0,31.0,38.0,-1.4648436307907104,8.30078125,13.244627952575684,-0.93359375,0.20458984375,0.1165771484375
5.941,339,401,632,309,6.0,31.0,38.0,-1.7089842557907104,6.042479991912842,11.291502952575684,-0.92626953125,0.2198486328125,0.1109619140625
5.947,340,399,636,309,6.0,31.0,38.0,-5.615233898162842,4.638671875,9.58251953125,-0.9039306640625,0.2113037109375,0.0911865234375
5.968,342,407,636,309,6.0,31.0,38.0,-11.474608421325684,3.906249761581421,8.6669921875,-0.8787841796875,0.1849365234375,0.0595703125
5.973,342,407,636,310,6.0,31.0,38.0,-16.78466796875,3.051757574081421,8.36181640625,-0.85009765625,0.1441650390625,0.034423828125
5.976,342,408,636,309,6.0,31.0,38.0,-18.98193359375,1.4648436307907104,8.4228515625,-0.8155517578125,0.0921630859375,0.023681640625
5.983,342,407,638,309,6.0,31.0,38.0,-17.02880859375,-0.6103515625,8.7890625,-0.78173828125,0.0439453125,0.0106201171875
5.993,342,409,645,309,6.0,31.0,38.0,-11.901854515075684,-2.563476324081421,9.6435546875,-0.7578125,0.0133056640625,-0.0155029296875
6.015,340,420,636,309,6.0,31.0,38.0,-4.7607421875,-4.2724609375,11.108397483825684,-0.75634765625,-0.0179443359375,-0.0484619140625
6.047,344,447,612,309,6.0,31.0,38.0,5.249022960662842,-5.371093273162842,12.817381858825684,-0.765380859375,-0.050537109375,-0.0791015625
6.047,340,456,601,309,6.0,32.0,32.0,18.4326171875,-5.859374523162842,15.686034202575684,-0.751708984375,-0.0526123046875,-0.0992431640625
6.047,340,481,636,310,6.0,32.0,32.0,18.4326171875,-5.859374523162842,15.686034202575684,-0.7039794921875,-0.0267333984375,-0.10791015625
6.047,326,614,673,309,6.0,32.0,32.0,37.17041015625,-9.27734375,28.930662155151367,-0.658203125,0.034423828125,-0.115234375
6.064,324,715,697,310,6.0,32.0,32.0,34.66796875,-16.17431640625,37.29248046875,-0.6514892578125,0.1387939453125,-0.115478515625
6.065,323,793,749,311,6.0,32.0,32.0,34.66796875,-16.17431640625,37.29248046875,-0.672119140625,0.295166015625,-0.0611572265625
6.067,311,861,848,311,6.0,32.0,32.0,25.390623092651367,-30.456541061401367,44.250484466552734,-0.672119140625,0.295166015625,-0.0611572265625
6.083,328,1050,1241,311,6.0,32.0,32.0,24.108884811401367,-69.27490234375,36.376953125,-0.302734375,0.4510498046875,0.1448974609375
6.089,321,1167,1499,313,6.0,32.0,32.0,24.108884811401367,-69.27490234375,36.376953125,0.2464599609375,0.195556640625,0.2572021484375
6.113,338,1328,1920,313,6.0,32.0,32.0,46.325679779052734,-87.34130096435547,-4.82177734375,0.6700439453125,-0.0845947265625,0.287109375
6.116,342,1393,2121,314,6.0,32.0,32.0,29.846189498901367,-79.28466796875,-19.47021484375,0.563720703125,-0.142822265625,0.316650390625
6.120,342,1481,2282,316,3.0,31.0,36.0,29.846189498901367,-79.28466796875,-19.47021484375,-0.1993408203125,0.1302490234375,0.171142578125
6.136,2001,1730,2497,316,3.0,31.0,36.0,43.823238372802734,-33.8134765625,-21.545408248901367,-1.2398681640625,0.7303466796875,-0.2939453125
6.142,326,1846,2599,316,3.0,31.0,36.0,51.391597747802734,-17.88330078125,-15.319823265075684,-1.9156494140625,1.170166015625,-0.583984375
6.167,314,1929,2665,317,3.0,31.0,36.0,51.391597747802734,-17.88330078125,-15.319823265075684,-2.2069091796875,0.814208984375,-0.3978271484375
6.167,314,2024,2778,316,3.0,31.0,36.0,-17.333984375,-35.0341796875,-46.630855560302734,-2.38623046875,0.1153564453125,0.0947265625
6.172,312,2069,2843,319,3.0,31.0,36.0,-42.175289154052734,-46.691890716552734,-63.110347747802734,-2.5550537109375,-0.2041015625,0.6571044921875
6.182,314,2091,2840,318,3.0,31.0,36.0,-42.175289154052734,-46.691890716552734,-63.110347747802734,-2.7601318359375,-0.0169677734375,0.982177734375
6.194,319,2057,2746,316,3.0,31.0,36.0,-21.423337936401367,-39.12353515625,-37.04833984375,-2.4195556640625,0.2303466796875,0.793701171875
6.202,340,1997,2723,319,3.0,31.0,36.0,-5.859374523162842,-5.676269054412842,-21.911619186401367,-1.5322265625,0.2476806640625,0.2689208984375
6.226,326,2183,2700,316,3.0,31.0,36.0,-5.859374523162842,-5.676269054412842,-21.911619186401367,-1.1656494140625,0.1513671875,0.0096435546875
6.226,330,1937,2660,316,1.0,29.0,39.0,-5.554198741912842,29.907224655151367,-10.681151390075684,-1.4710693359375,0.021484375,0.148681640625
6.232,351,1811,2621,316,1.0,29.0,39.0,-2.44140625,17.333984375,-1.6479490995407104,-1.8038330078125,0.0767822265625,0.340087890625
6.240,351,1775,2555,316,1.0,29.0,39.0,-2.44140625,17.333984375,-1.6479490995407104,-1.8421630859375,0.2503662109375,0.4185791015625
6.268,356,1730,2417,316,1.0,29.0,39.0,-9.09423828125,4.638671875,13.488768577575684,-1.65283203125,0.30078125,0.360595703125
6.268,342,1820,2330,316,1.0,29.0,39.0,-17.15087890625,13.366698265075684,14.770506858825684,-1.4486083984375,0.22509765625,0.2755126953125
6.270,312,1695,2180,314,1.0,29.0,39.0,-17.15087890625,13.366698265075684,14.770506858825684,-1.3328857421875,0.1181640625,0.27734375
6.279,328,1636,2114,316,1.0,29.0,39.0,-19.04296875,24.353025436401367,16.17431640625,-1.3328857421875,0.1181640625,0.27734375
6.292,342,1397,1899,314,1.0,29.0,39.0,-5.371093273162842,34.1796875,25.695798873901367,-1.1873779296875,0.186767578125,0.2857666015625
6.301,349,1305,1763,314,1.0,29.0,39.0,-5.371093273162842,34.1796875,25.695798873901367,-1.0531005859375,0.206298828125,0.16015625
6.311,340,1251,1616,314,1.0,29.0,39.0,0.9155272841453552,36.2548828125,29.174802780151367,-1.0531005859375,0.206298828125,0.16015625
6.332,336,966,1315,311,5.0,30.0,34.0,13.977049827575684,44.250484466552734,19.83642578125,-0.74072265625,0.1383056640625,-0.0982666015625
6.334,336,809,1157,312,5.0,30.0,34.0,13.977049827575684,44.250484466552734,19.83642578125,-0.567138671875,0.054443359375,-0.19482421875
6.344,336,657,955,311,5.0,30.0,34.0,16.78466796875,47.302242279052734,8.48388671875,-0.567138671875,0.054443359375,-0.19482421875
6.369,342,502,706,311,5.0,30.0,34.0,13.854979515075684,54.626461029052734,-11.352538108825684,-0.3499755859375,-0.0565185546875,-0.3031005859375
6.370,342,447,636,311,5.0,30.0,34.0,13.854979515075684,54.626461029052734,-11.352538108825684,-0.4173583984375,0.0247802734375,-0.2547607421875
6.371,336,406,582,309,5.0,30.0,34.0,13.061522483825684,54.382320404052734,-17.08984375,-0.4173583984375,0.0247802734375,-0.2547607421875
6.383,336,382,572,309,5.0,30.0,34.0,-15.014647483825684,29.968259811401367,-13.977049827575684,-0.5875244140625,0.2958984375,0.08984375
6.391,339,381,572,309,5.0,30.0,34.0,-15.014647483825684,29.968259811401367,-13.977049827575684,-0.68017578125,0.2940673828125,0.176025390625
6.399,326,379,566,309,5.0,30.0,34.0,-31.738279342651367,16.845703125,-11.352538108825684,-0.68017578125,0.2940673828125,0.176025390625
6.433,333,384,586,310,5.0,29.0,37.0,-20.446775436401367,19.775390625,-23.681638717651367,-0.7369384765625,0.1990966796875,0.0411376953125
6.436,341,391,591,309,5.0,29.0,37.0,-20.446775436401367,19.775390625,-23.681638717651367,-0.762451171875,0.1759033203125,0.0213623046875
6.437,336,386,605,309,5.0,29.0,37.0,-7.385253429412842,25.573728561401367,-26.000974655151367,-0.762451171875,0.1759033203125,0.0213623046875
6.444,338,391,618,309,5.0,29.0,37.0,-5.0048828125,15.991209983825684,-12.268065452575684,-0.83642578125,0.1529541015625,0.0921630859375
6.451,340,391,627,309,5.0,29.0,37.0,-5.0048828125,15.991209983825684,-12.268065452575684,-0.871826171875,0.1392822265625,0.0941162109375
6.473,339,394,627,309,5.0,29.0,37.0,-8.97216796875,11.657713890075684,-4.2724609375,-0.871826171875,0.1392822265625,0.0941162109375
6.474,342,399,630,310,5.0,29.0,37.0,-4.150390625,10.253905296325684,1.5869139432907104,-0.8533935546875,0.139892578125,0.1116943359375
6.481,357,435,631,309,5.0,29.0,37.0,-4.150390625,10.253905296325684,1.5869139432907104,-0.8387451171875,0.1656494140625,0.1102294921875
6.490,342,401,630,309,5.0,29.0,37.0,2.929687261581421,9.6435546875,1.0986328125,-0.8387451171875,0.1656494140625,0.1102294921875
6.503,345,401,631,308,5.0,29.0,37.0,7.446288585662842,5.737304210662842,0.7934569716453552,-0.8150634765625,0.1932373046875,0.0787353515625
6.511,347,405,636,309,9.0,30.0,36.0,7.446288585662842,5.737304210662842,0.7934569716453552,-0.8033447265625,0.1748046875,0.06591796875
6.519,345,407,638,309,9.0,30.0,36.0,0.8544921278953552,2.01416015625,1.2817381620407104,-0.8033447265625,0.1748046875,0.06591796875
6.538,344,408,638,309,9.0,30.0,36.0,-13.000487327575684,-3.967284917831421,2.01416015625,-0.7706298828125,0.1090087890625,0.057861328125
6.541,344,408,620,307,9.0,30.0,36.0,-13.000487327575684,-3.967284917831421,2.01416015625,-0.74951171875,0.0958251953125,0.06787109375
6.549,344,407,638,309,9.0,30.0,36.0,-12.878417015075684,-5.615233898162842,2.0751953125,-0.74951171875,0.0958251953125,0.06787109375
6.575,352,409,638,309,9.0,30.0,36.0,-8.48388671875,-8.4228515625,4.150390625,-0.69287109375,0.08251953125,0.09814453125
6.575,352,401,632,309,9.0,30.0,36.0,-8.48388671875,-8.4228515625,4.150390625,-0.64599609375,0.04931640625,0.110107421875
6.579,352,411,627,309,9.0,30.0,36.0,-9.21630859375,-9.27734375,6.591796398162842,-0.64599609375,0.04931640625,0.110107421875
6.594,310,725,601,310,9.0,30.0,36.0,-9.70458984375,-9.58251953125,13.061522483825684,-0.5057373046875,-0.08447265625,0.1416015625
6.601,309,435,587,309,9.0,30.0,36.0,-9.70458984375,-9.58251953125,13.061522483825684,-0.4404296875,-0.2181396484375,0.13037109375
6.608,309,502,630,309,5.0,30.0,40.0,-1.9531248807907104,-9.58251953125,15.563963890075684,-0.4404296875,-0.2181396484375,0.13037109375
6.623,307,854,683,310,5.0,30.0,40.0,58.166500091552734,-10.986327171325684,30.761716842651367,-0.4017333984375,-0.0958251953125,-0.01318359375
6.632,310,966,739,310,5.0,30.0,40.0,58.166500091552734,-10.986327171325684,30.761716842651367,-0.6597900390625,0.3597412109375,0.030517578125
6.644,309,1067,810,311,5.0,30.0,40.0,93.62792205810547,-23.864744186401367,46.752925872802734,-0.6597900390625,0.3597412109375,0.030517578125
6.653,310,1260,1064,312,5.0,30.0,40.0,99.36522674560547,-69.76318359375,51.757808685302734,-0.6729736328125,0.6610107421875,0.1224365234375
6.677,309,1385,1361,312,5.0,30.0,40.0,99.36522674560547,-69.76318359375,51.757808685302734,-0.272705078125,0.2413330078125,0.3953857421875
6.678,309,1492,1640,314,5.0,30.0,40.0,70.12939453125,-84.65575408935547,35.888671875,-0.272705078125,0.2413330078125,0.3953857421875
6.684,311,1659,1925,314,5.0,30.0,40.0,43.029781341552734,-81.66503143310547,8.85009765625,-0.4615478515625,-0.316162109375,0.1571044921875
6.694,311,1772,2055,314,5.0,30.0,40.0,43.029781341552734,-81.66503143310547,8.85009765625,-0.881591796875,0.0029296875,-0.558837890625
6.700,311,1863,2210,313,5.0,30.0,40.0,55.847164154052734,-37.109375,4.21142578125,-0.881591796875,0.0029296875,-0.558837890625
6.714,311,1985,2395,314,3.0,34.0,42.0,31.372068405151367,5.676269054412842,-6.103515148162842,-1.4273681640625,0.7681884765625,-0.79248046875
6.722,311,2018,2492,316,3.0,34.0,42.0,31.372068405151367,5.676269054412842,-6.103515148162842,-1.5703125,0.8310546875,-0.38916015625
6.730,311,2087,2565,319,3.0,34.0,42.0,7.568358898162842,-17.15087890625,-11.047362327575684,-1.5703125,0.8310546875,-0.38916015625
6.753,311,2225,2659,316,3.0,34.0,42.0,-26.916501998901367,-50.537105560302734,-24.658201217651367,-1.9788818359375,0.52783203125,0.36279296875
6.754,312,2280,2695,322,3.0,34.0,42.0,-26.916501998901367,-50.537105560302734,-24.658201217651367,-2.1043701171875,0.3302001953125,0.6666259765625
6.760,316,2501,2722,315,3.0,34.0,42.0,-37.04833984375,-49.987789154052734,-31.066892623901367,-2.1043701171875,0.3302001953125,0.6666259765625
6.788,314,2249,2667,315,3.0,34.0,42.0,-31.982419967651367,-23.498533248901367,-32.53173828125,-1.9512939453125,0.1658935546875,0.6221923828125
6.789,311,2249,2671,316,3.0,34.0,42.0,-31.982419967651367,-23.498533248901367,-32.53173828125,-1.463134765625,0.2744140625,0.2330322265625
6.790,311,2172,2632,313,3.0,34.0,42.0,-16.54052734375,-1.03759765625,-26.977537155151367,-1.463134765625,0.2744140625,0.2330322265625
6.804,311,2235,2638,315,2.0,25.0,41.0,-5.0048828125,12.329100608825684,-23.620603561401367,-1.5906982421875,0.3203125,0.11376953125
6.812,312,2213,2608,316,2.0,25.0,41.0,-5.0048828125,12.329100608825684,-23.620603561401367,-1.7855224609375,0.2620849609375,0.2811279296875
6.821,312,2337,2557,318,2.0,25.0,41.0,-7.324218273162842,2.44140625,-22.033689498901367,-1.7855224609375,0.2620849609375,0.2811279296875
6.828,311,2166,2493,316,2.0,25.0,41.0,-13.061522483825684,-3.845214605331421,-19.47021484375,-1.722412109375,0.2078857421875,0.340576171875
6.842,311,1914,2352,314,2.0,25.0,41.0,-17.88330078125,-1.7700194120407104,-16.9677734375,-1.366943359375,0.1151123046875,0.2406005859375
6.860,313,1858,2259,316,2.0,25.0,41.0,-17.333984375,6.164550304412842,-13.671874046325684,-1.366943359375,0.1151123046875,0.2406005859375
6.864,311,1745,2054,316,2.0,25.0,41.0,-12.573241233825684,19.6533203125,0.1220703050494194,-1.2237548828125,0.1385498046875,0.2447509765625
6.881,312,1671,1937,316,2.0,25.0,41.0,-12.573241233825684,19.6533203125,0.1220703050494194,-1.16015625,0.1925048828125,0.2109375
6.881,311,1591,1819,313,2.0,25.0,41.0,-13.183592796325684,20.507810592651367,7.995604991912842,-1.16015625,0.1925048828125,0.2109375
6.895,311,1369,1585,312,2.0,25.0,41.0,-10.253905296325684,27.893064498901367,10.437010765075684,-0.9537353515625,0.145751953125,0.0126953125
6.905,310,1185,1409,312,2.0,28.0,35.0,-10.253905296325684,27.893064498901367,10.437010765075684,-0.8153076171875,0.108154296875,-0.0743408203125
6.910,310,1017,1213,311,2.0,28.0,35.0,-7.019042491912842,33.8134765625,5.371093273162842,-0.8153076171875,0.108154296875,-0.0743408203125
6.924,311,657,885,311,2.0,28.0,35.0,-6.347655773162842,44.921871185302734,-11.840819358825684,-0.4847412109375,-0.02392578125,-0.1837158203125
6.932,310,529,724,310,2.0,28.0,35.0,-6.347655773162842,44.921871185302734,-11.840819358825684,-0.4219970703125,-0.06591796875,-0.1458740234375
6.941,309,447,664,311,2.0,28.0,35.0,-4.33349609375,47.973628997802734,-18.4326171875,-0.4219970703125,-0.06591796875,-0.1458740234375
6.949,309,396,617,310,2.0,28.0,35.0,-2.13623046875,46.630855560302734,-22.949216842651367,-0.4559326171875,-0.087890625,-0.0604248046875
6.964,309,389,594,309,2.0,28.0,35.0,-2.197265625,40.527339935302734,-24.108884811401367,-0.652587890625,0.26318359375,0.140625
6.987,309,373,566,309,2.0,28.0,35.0,-9.09423828125,28.747556686401367,-18.73779296875,-0.652587890625,0.26318359375,0.140625
6.987,309,370,579,309,2.0,28.0,35.0,-24.475095748901367,13.671874046325684,-11.230467796325684,-0.7235107421875,0.3896484375,0.2235107421875
6.992,309,369,577,310,2.0,28.0,35.0,-39.4287109375,3.845214605331421,-9.765625,-0.732666015625,0.333984375,0.2340087890625
7.001,311,369,588,309,6.0,29.0,38.0,-42.114253997802734,5.371093273162842,-14.465331077575684,-0.724853515625,0.2236328125,0.17333984375
7.014,307,371,598,310,6.0,29.0,38.0,-33.26416015625,12.939452171325684,-18.37158203125,-0.7359619140625,0.1494140625,0.1141357421875
7.022,309,372,601,309,6.0,29.0,38.0,-23.803709030151367,16.54052734375,-17.7001953125,-0.7359619140625,0.1494140625,0.1141357421875
7.030,309,376,607,309,6.0,29.0,38.0,-20.935056686401367,13.549803733825684,-13.610838890075684,-0.7711181640625,0.1217041015625,0.1270751953125
7.045,309,375,612,309,6.0,29.0,38.0,-21.301267623901367,8.23974609375,-8.7890625,-0.8272705078125,0.07861328125,0.1165771484375
7.052,309,391,614,309,6.0,29.0,38.0,-18.12744140625,4.45556640625,-4.57763671875,-0.8272705078125,0.07861328125,0.1165771484375
7.061,1555,3176,614,308,6.0,29.0,38.0,-10.864256858825684,2.685546636581421,-0.9155272841453552,-0.82275390625,0.10302734375,0.0985107421875
7.087,1363,382,614,309,6.0,29.0,38.0,-4.21142578125,1.4038084745407104,2.01416015625,-0.763427734375,0.1544189453125,0.0853271484375
7.087,309,385,614,308,6.0,29.0,38.0,-1.4038084745407104,-0.7934569716453552,3.479003667831421,-0.763427734375,0.1544189453125,0.0853271484375
7.090,309,382,617,307,6.0,29.0,38.0,-2.929687261581421,-3.540038824081421,3.662109136581421,-0.7322998046875,0.1285400390625,0.0826416015625
7.106,309,386,614,309,5.0,29.0,38.0,-6.958007335662842,-6.103515148162842,4.33349609375,-0.6832275390625,0.035888671875,0.0743408203125
7.112,309,389,614,309,5.0,29.0,38.0,-10.559081077575684,-7.995604991912842,5.981444835662842,-0.6832275390625,0.035888671875,0.0743408203125
7.120,308,390,614,309,5.0,29.0,38.0,-12.145995140075684,-9.21630859375,7.873534679412842,-0.660888671875,-0.0093994140625,0.073486328125
7.134,309,399,607,309,5.0,29.0,38.0,-11.840819358825684,-9.8876953125,9.58251953125,-0.611572265625,-0.0850830078125,0.0684814453125
7.143,309,401,601,309,5.0,29.0,38.0,-10.620116233825684,-10.131834983825684,11.840819358825684,-0.611572265625,-0.0850830078125,0.0684814453125
7.151,309,417,625,310,5.0,29.0,38.0,-8.9111328125,-10.070799827575684,15.930174827575684,-0.5806884765625,-0.11181640625,0.0535888671875
7.164,309,453,606,310,5.0,29.0,38.0,-5.737304210662842,-10.131834983825684,22.338865280151367,-0.599365234375,-0.2880859375,-0.0142822265625
7.191,309,574,661,309,5.0,29.0,38.0,3.967284917831421,-10.375975608825684,30.456541061401367,-0.599365234375,-0.2880859375,-0.0142822265625
7.191,310,787,736,309,5.0,29.0,38.0,25.207517623901367,-10.314940452575684,42.602535247802734,-0.56689453125,-0.281982421875,-0.08349609375
7.194,309,985,942,311,5.0,29.0,38.0,49.438472747802734,-13.854979515075684,62.011714935302734,-0.552734375,0.412353515625,0.0140380859375
7.204,310,1117,1160,312,4.0,29.0,43.0,58.776851654052734,-31.738279342651367,79.89501953125,-0.552734375,0.412353515625,0.0140380859375
7.210,308,1254,1416,312,4.0,29.0,43.0,50.231929779052734,-58.593746185302734,81.48192596435547,-0.3179931640625,0.57080078125,0.14501953125
7.224,311,1362,1856,313,4.0,29.0,43.0,33.5693359375,-76.59912109375,62.133785247802734,0.6978759765625,-0.2982177734375,0.4451904296875
7.234,311,1464,2095,314,4.0,29.0,43.0,12.084959983825684,-85.14403533935547,33.75244140625,0.6978759765625,-0.2982177734375,0.4451904296875
7.244,311,1574,2275,314,4.0,29.0,43.0,6.774901866912842,-87.40233612060547,15.563963890075684,0.4715576171875,-0.4556884765625,0.5726318359375
7.265,311,1735,2479,316,4.0,29.0,43.0,45.166011810302734,-71.533203125,11.779784202575684,-1.584716796875,1.5703125,-0.65185546875
7.266,311,1831,2568,314,4.0,29.0,43.0,91.06444549560547,-35.33935546875,13.671874046325684,-1.584716796875,1.5703125,-0.65185546875
7.272,311,1894,2647,315,4.0,29.0,43.0,78.7353515625,-8.36181640625,7.141112804412842,-2.083740234375,2.0274658203125,-0.9317626953125
7.322,312,1969,2746,318,4.0,29.0,43.0,11.718749046325684,-10.253905296325684,-20.690916061401367,-2.2471923828125,1.143310546875,-0.4527587890625
7.337,311,2063,2886,318,4.0,29.0,43.0,-50.231929779052734,-28.625486373901367,-55.847164154052734,-2.5946044921875,0.0147705078125,0.3529052734375
7.367,312,2035,2813,319,4.0,28.0,45.0,-66.95556640625,-52.062984466552734,-71.71630859375,-3.2047119140625,-0.367431640625,1.1693115234375
7.367,311,2023,2772,316,4.0,28.0,45.0,-41.809078216552734,-65.12451171875,-57.006832122802734,-1.911865234375,0.11328125,0.3922119140625
7.369,311,2005,2746,316,4.0,28.0,45.0,-3.479003667831421,-40.588375091552734,-29.663084030151367,-1.911865234375,0.11328125,0.3922119140625
7.370,309,1994,2713,316,4.0,28.0,45.0,17.2119140625,0.54931640625,-14.770506858825684,-1.15234375,0.369873046875,-0.0435791015625
7.371,312,1953,2671,316,4.0,28.0,45.0,14.831542015075684,18.85986328125,-12.390135765075684,-1.6434326171875,0.1839599609375,0.424072265625
7.372,312,1927,2612,317,4.0,28.0,45.0,5.737304210662842,15.991209983825684,-10.314940452575684,-1.6434326171875,0.1839599609375,0.424072265625
7.372,311,3176,2532,314,4.0,28.0,45.0,-2.197265625,6.896972179412842,-3.601073980331421,-1.899169921875,0.2626953125,0.59033203125
7.374,311,1794,2352,316,4.0,28.0,45.0,-10.009765625,3.234863042831421,2.624511480331421,-1.59228515625,0.2359619140625,0.42333984375
7.398,311,1697,2246,319,4.0,28.0,45.0,-15.502928733825684,9.21630859375,5.249022960662842,-1.59228515625,0.2359619140625,0.42333984375
7.399,311,1619,2114,316,4.0,28.0,45.0,-15.991209983825684,20.080564498901367,7.080077648162842,-1.3570556640625,0.1148681640625,0.395751953125
7.404,311,1426,1863,314,4.0,27.0,40.0,-10.314940452575684,28.930662155151367,11.474608421325684,-1.0621337890625,0.039306640625,0.3759765625
7.413,311,1335,1735,314,4.0,27.0,40.0,3.234863042831421,34.24072265625,19.83642578125,-1.0621337890625,0.039306640625,0.3759765625
7.423,310,1226,1567,313,4.0,27.0,40.0,19.34814453125,37.65869140625,28.625486373901367,-0.9039306640625,0.1376953125,0.133056640625
7.434,309,986,1315,313,4.0,27.0,40.0,30.334470748901367,38.6962890625,29.663084030151367,-0.6229248046875,0.183349609375,-0.2252197265625
7.442,308,873,1129,312,4.0,27.0,40.0,33.38623046875,36.865234375,19.775390625,-0.6229248046875,0.183349609375,-0.2252197265625
7.459,311,720,981,312,4.0,27.0,40.0,28.686521530151367,35.2783203125,5.310058116912842,-0.4468994140625,0.1707763671875,-0.30615234375
7.467,310,530,751,311,4.0,27.0,40.0,20.812986373901367,36.4990234375,-7.141112804412842,-0.296875,0.1505126953125,-0.3914794921875
7.472,309,455,696,310,4.0,27.0,40.0,15.991209983825684,40.710445404052734,-17.7001953125,-0.296875,0.1505126953125,-0.3914794921875
7.506,307,393,614,311,4.0,27.0,40.0,10.620116233825684,42.480464935302734,-25.878904342651367,-0.3670654296875,0.2501220703125,-0.2813720703125
7.507,309,395,573,309,6.0,30.0,41.0,-6.774901866912842,33.203125,-27.893064498901367,-0.53857421875,0.3099365234375,0.2371826171875
7.507,305,386,562,310,6.0,30.0,41.0,-34.423828125,16.90673828125,-26.306150436401367,-0.53857421875,0.3099365234375,0.2371826171875
7.512,309,373,555,309,6.0,30.0,41.0,-56.091304779052734,6.347655773162842,-27.832029342651367,-0.656982421875,0.2191162109375,0.312255859375
7.524,309,375,548,309,6.0,30.0,41.0,-62.438961029052734,5.371093273162842,-33.38623046875,-0.7325439453125,0.158447265625,0.2530517578125
7.532,310,369,555,309,6.0,30.0,41.0,-57.128902435302734,9.82666015625,-37.9638671875,-0.763916015625,0.1220703125,0.172119140625
7.540,308,364,555,309,6.0,30.0,41.0,-48.645015716552734,13.610838890075684,-37.59765625,-0.769287109375,0.1031494140625,0.146484375
7.555,309,361,570,309,6.0,30.0,41.0,-41.687007904052734,13.916014671325684,-31.494138717651367,-0.775146484375,0.087646484375,0.1595458984375
7.564,308,361,578,310,6.0,30.0,41.0,-36.07177734375,11.962889671325684,-21.850584030151367,-0.796142578125,0.061767578125,0.1766357421875
7.574,309,361,588,309,6.0,30.0,41.0,-30.700681686401367,8.72802734375,-11.535643577575684,-0.8194580078125,0.0308837890625,0.1925048828125
7.604,310,361,593,309,6.0,30.0,41.0,-24.108884811401367,5.249022960662842,-2.38037109375,-0.8343505859375,0.01318359375,0.19482421875
7.605,309,365,596,310,5.0,27.0,40.0,-15.075682640075684,3.234863042831421,4.69970703125,-0.8360595703125,0.0206298828125,0.1815185546875
7.605,309,367,599,309,5.0,27.0,40.0,-5.126952648162842,2.624511480331421,9.46044921875,-0.82177734375,0.041015625,0.1646728515625
7.615,309,371,604,310,5.0,27.0,40.0,2.3193359375,2.50244140625,12.390135765075684,-0.79541015625,0.0595703125,0.142822265625
7.622,309,370,607,309,5.0,27.0,40.0,5.859374523162842,2.685546636581421,14.160155296325684,-0.7642822265625,0.0694580078125,0.1151123046875
7.630,309,378,614,310,5.0,27.0,40.0,6.286620616912842,2.685546636581421,15.624999046325684,-0.7381591796875,0.0556640625,0.0899658203125
7.644,309,395,627,309,5.0,27.0,40.0,5.981444835662842,2.3193359375,17.15087890625,-0.719482421875,0.0140380859375,0.072998046875
7.654,311,404,617,309,5.0,27.0,40.0,8.48388671875,1.5869139432907104,19.10400390625,-0.7066650390625,-0.025634765625,0.0606689453125
7.661,309,420,625,309,5.0,27.0,40.0,15.441893577575684,0.4272460639476776,22.338865280151367,-0.7032470703125,-0.0335693359375,0.04638671875
7.668,310,461,654,310,5.0,27.0,40.0,24.414060592651367,-1.15966796875,27.343748092651367,-0.7122802734375,-0.0089111328125,0.0328369140625
7.710,309,535,721,311,5.0,27.0,40.0,31.433103561401367,-3.479003667831421,33.935546875,-0.755615234375,0.0714111328125,0.0257568359375
7.711,310,627,766,310,4.0,27.0,39.0,32.71484375,-7.629394054412842,40.527339935302734,-0.8167724609375,0.1865234375,0.05078125
7.712,311,720,842,295,4.0,27.0,39.0,27.221677780151367,-13.244627952575684,45.104976654052734,-0.904052734375,0.2880859375,0.0997314453125
7.716,297,782,885,310,4.0,27.0,39.0,18.49365234375,-16.2353515625,47.180171966552734,-0.9981689453125,0.3961181640625,0.1014404296875
7.722,309,871,963,311,4.0,27.0,39.0,6.774901866912842,-13.427733421325684,46.264644622802734,-1.007568359375,0.448486328125,0.03125
7.729,310,929,1035,311,4.0,27.0,39.0,-11.962889671325684,-8.48388671875,41.870113372802734,-0.9310302734375,0.36669921875,-0.0057373046875
7.746,309,1117,1172,312,4.0,27.0,39.0,-33.50830078125,-8.60595703125,36.31591796875,-0.78857421875,0.16162109375,0.0966796875
7.756,311,1206,1289,312,4.0,27.0,39.0,-40.954586029052734,-15.319823265075684,32.89794921875,-0.6070556640625,-0.102783203125,0.2894287109375
7.762,310,1292,1462,312,4.0,27.0,39.0,-21.728513717651367,-26.062009811401367,32.65380859375,-0.2733154296875,-0.328369140625,0.4937744140625
7.774,316,1449,1852,314,4.0,27.0,39.0,16.41845703125,-37.841796875,33.38623046875,0.23974609375,-0.5111083984375,0.6177978515625
7.781,311,1572,2024,316,4.0,27.0,39.0,55.419918060302734,-47.851558685302734,32.8369140625,0.58984375,-0.6439208984375,0.6761474609375
7.804,311,1682,2130,314,2.0,28.0,44.0,88.98925018310547,-54.687496185302734,33.75244140625,0.316650390625,-0.3941650390625,0.5159912109375
7.804,311,1833,2280,314,2.0,28.0,44.0,122.00926971435547,-46.020503997802734,42.114253997802734,-0.6092529296875,0.6104736328125,-0.14013671875
7.821,312,1918,2364,315,2.0,28.0,44.0,136.8408203125,-18.4326171875,51.696773529052734,-1.442626953125,1.7525634765625,-0.9046630859375
7.823,312,1989,2392,312,2.0,28.0,44.0,97.41210174560547,7.080077648162842,41.259761810302734,-1.6785888671875,1.83837890625,-1.068115234375
7.835,311,2054,2539,316,2.0,28.0,44.0,20.507810592651367,10.925292015075684,6.530761241912842,-1.682373046875,1.023681640625,-0.62451171875
7.841,311,2091,2589,315,2.0,28.0,44.0,-39.1845703125,-6.469726085662842,-25.817869186401367,-1.82958984375,0.4124755859375,-0.0643310546875
7.849,311,2119,2639,316,2.0,28.0,44.0,-60.668941497802734,-29.296873092651367,-36.80419921875,-2.1513671875,0.2711181640625,0.361572265625
7.865,311,2119,2612,315,2.0,28.0,44.0,-54.138179779052734,-41.259761810302734,-34.912109375,-2.49169921875,0.336181640625,0.57421875
7.878,311,2105,2605,316,2.0,28.0,44.0,-39.0625,-36.31591796875,-31.188962936401367,-2.4217529296875,0.3624267578125,0.5765380859375
7.881,311,2114,2607,310,2.0,28.0,44.0,-26.367185592651367,-19.8974609375,-28.564451217651367,-1.745361328125,0.25830078125,0.429931640625
7.914,312,2096,2587,316,4.0,29.0,41.0,-14.770506858825684,-3.784179449081421,-27.282712936401367,-1.2808837890625,0.368408203125,0.302490234375
7.914,311,2071,2559,316,4.0,29.0,41.0,-5.554198741912842,3.967284917831421,-26.367185592651367,-1.4854736328125,0.56591796875,0.29931640625
7.914,311,2026,2516,316,4.0,29.0,41.0,-6.530761241912842,8.30078125,-25.451658248901367,-1.7987060546875,0.4874267578125,0.361328125
7.931,311,1920,2412,316,4.0,29.0,41.0,-16.2353515625,13.000487327575684,-24.230955123901367,-1.8819580078125,0.2711181640625,0.41748046875
7.933,297,1843,2333,314,4.0,29.0,41.0,-21.606443405151367,17.39501953125,-22.155759811401367,-1.73193359375,0.11669921875,0.3955078125
7.940,311,1764,2238,315,4.0,29.0,41.0,-17.76123046875,22.766111373901367,-17.63916015625,-1.4832763671875,0.088623046875,0.312255859375
7.954,311,1610,2018,314,4.0,29.0,41.0,-8.97216796875,28.869626998901367,-9.82666015625,-1.2841796875,0.0963134765625,0.2440185546875
7.966,311,1504,1874,314,4.0,29.0,41.0,1.3427733182907104,34.5458984375,-1.03759765625,-1.1678466796875,0.1290283203125,0.197021484375
7.974,310,1395,1724,313,4.0,29.0,41.0,11.413573265075684,39.00146484375,7.202147960662842,-1.0625,0.2264404296875,0.1168212890625
7.985,311,1178,1439,312,2.0,28.0,42.0,15.991209983825684,42.358394622802734,13.427733421325684,-0.9132080078125,0.2755126953125,0.022216796875
8.008,311,1029,1251,313,2.0,28.0,42.0,10.437010765075684,45.288082122802734,15.319823265075684,-0.7392578125,0.2225341796875,-0.0670166015625
8.009,309,855,1020,312,2.0,28.0,42.0,-0.4272460639476776,48.828121185302734,14.404295921325684,-0.55224609375,0.1778564453125,-0.15087890625
8.033,310,600,745,311,2.0,28.0,42.0,-10.498045921325684,52.429195404052734,12.207030296325684,-0.351806640625,0.1412353515625,-0.2266845703125
8.033,309,478,675,311,2.0,28.0,42.0,-16.05224609375,56.518550872802734,6.652831554412842,-0.230712890625,0.1090087890625,-0.29541015625
8.034,309,414,617,311,2.0,28.0,42.0,-14.709471702575684,58.654781341552734,-2.807616949081421,-0.248779296875,0.197265625,-0.2352294921875
8.038,309,384,603,310,2.0,28.0,42.0,-14.709471702575684,58.654781341552734,-2.807616949081421,-0.35791015625,0.3349609375,0.01220703125
8.052,309,381,590,309,2.0,28.0,42.0,-22.827146530151367,30.212400436401367,-23.559568405151367,-0.5509033203125,0.3798828125,0.2681884765625
8.064,309,381,594,309,2.0,28.0,42.0,-38.51318359375,13.732909202575684,-34.66796875,-0.774169921875,0.348876953125,0.3660888671875
8.073,309,391,598,311,2.0,28.0,42.0,-38.51318359375,13.732909202575684,-34.66796875,-0.889404296875,0.2841796875,0.3028564453125
8.082,309,401,597,308,5.0,31.0,34.0,-47.973628997802734,13.977049827575684,-50.720211029052734,-0.8819580078125,0.2208251953125,0.16748046875
8.090,328,432,612,309,5.0,31.0,34.0,-40.954586029052734,20.507810592651367,-47.424312591552734,-0.8265380859375,0.18798828125,0.0614013671875
8.109,359,452,617,310,5.0,31.0,34.0,-33.447265625,21.545408248901367,-39.306640625,-0.76806640625,0.15380859375,0.0218505859375
8.112,353,396,625,309,5.0,31.0,34.0,-30.334470748901367,17.578125,-30.639646530151367,-0.730712890625,0.07861328125,0.0264892578125
8.120,338,389,628,310,5.0,31.0,34.0,-31.005857467651367,12.573241233825684,-23.193357467651367,-0.7242431640625,-0.012451171875,0.04931640625
8.139,319,371,631,309,5.0,31.0,34.0,-28.625486373901367,8.97216796875,-16.11328125,-0.728271484375,-0.07421875,0.0819091796875
8.142,309,368,631,309,5.0,31.0,34.0,-17.2119140625,6.652831554412842,-8.4228515625,-0.718505859375,-0.0843505859375,0.1158447265625
8.153,306,367,640,309,5.0,31.0,34.0,0.54931640625,4.82177734375,-0.4882812201976776,-0.6907958984375,-0.0447998046875,0.1358642578125
8.158,309,369,643,310,5.0,31.0,34.0,0.54931640625,4.82177734375,-0.4882812201976776,-0.654052734375,0.0078125,0.137451171875
8.173,309,368,639,310,5.0,31.0,34.0,20.568845748901367,0.9155272841453552,13.183592796325684,-0.6185302734375,0.0347900390625,0.127685546875
8.184,309,370,635,309,4.0,32.0,35.0,18.00537109375,-0.1220703050494194,17.7001953125,-0.592041015625,0.029052734375,0.1119384765625
8.194,311,372,633,310,4.0,32.0,35.0,12.390135765075684,-0.0610351525247097,21.179197311401367,-0.57568359375,0.0096435546875,0.0906982421875
8.213,309,382,627,309,4.0,32.0,35.0,7.446288585662842,0.4272460639476776,24.230955123901367,-0.556884765625,0.0045166015625,0.0704345703125
8.214,309,390,636,309,4.0,32.0,35.0,4.08935546875,0.7324218153953552,27.099607467651367,-0.552734375,0.005615234375,0.053955078125
8.218,309,395,636,309,4.0,32.0,35.0,4.08935546875,0.7324218153953552,27.099607467651367,-0.5789794921875,-0.029052734375,0.037353515625
8.248,310,488,654,309,4.0,32.0,35.0,9.46044921875,0.30517578125,31.982419967651367,-0.57177734375,-0.058349609375,0.0081787109375
8.249,309,679,705,312,4.0,32.0,35.0,21.362302780151367,1.3427733182907104,39.9169921875,-0.582275390625,0.0526123046875,-0.0523681640625
8.255,310,883,810,311,4.0,32.0,35.0,26.855466842651367,-1.0986328125,52.917476654052734,-0.7008056640625,0.2718505859375,-0.0615234375
8.263,311,1009,953,311,4.0,32.0,35.0,19.71435546875,-14.038084983825684,64.02587890625,-0.8167724609375,0.4376220703125,-0.0174560546875
8.272,311,1107,1160,312,4.0,32.0,35.0,9.21630859375,-29.663084030151367,65.4296875,-0.636962890625,0.4404296875,-0.0457763671875
8.284,311,1353,1610,312,2.0,31.0,38.0,0.4882812201976776,-42.846675872802734,49.987789154052734,-0.0142822265625,0.115966796875,0.02197265625
8.296,310,1483,1920,314,2.0,31.0,38.0,-11.474608421325684,-61.584468841552734,20.690916061401367,0.63037109375,-0.4781494140625,0.3121337890625
8.316,311,1619,2122,314,2.0,31.0,38.0,-7.324218273162842,-84.53368377685547,-4.45556640625,0.691162109375,-0.745849609375,0.53125
8.316,311,1819,2328,314,2.0,31.0,38.0,43.762203216552734,-96.43553924560547,-7.019042491912842,-0.0343017578125,0.0379638671875,0.2786865234375
8.322,309,1902,2442,314,2.0,31.0,38.0,108.33739471435547,-79.65087890625,10.009765625,-1.0460205078125,1.7091064453125,-0.4464111328125
8.330,311,1985,2529,314,2.0,31.0,38.0,105.71288299560547,-44.250484466552734,13.977049827575684,-1.6385498046875,2.57763671875,-0.8216552734375
8.349,311,2078,2697,318,2.0,31.0,38.0,28.869626998901367,-24.414060592651367,-22.705076217651367,-1.9393310546875,1.73046875,-0.4307861328125
8.359,312,2156,2842,316,2.0,31.0,38.0,-51.269527435302734,-26.550291061401367,-75.1953125,-2.4373779296875,0.342529296875,0.185302734375
8.360,311,2180,2856,319,2.0,31.0,38.0,-83.86229705810547,-41.809078216552734,-103.21044158935547,-3.23876953125,-0.3182373046875,0.73974609375
8.374,312,2158,2788,318,3.0,25.0,40.0,-66.58935546875,-62.988277435302734,-94.66551971435547,-3.376220703125,-0.4139404296875,0.8138427734375
8.382,311,2147,2760,318,3.0,25.0,40.0,-23.986814498901367,-57.861324310302734,-65.00244140625,-2.31005859375,-0.2330322265625,0.343994140625
8.390,311,2117,2725,316,3.0,25.0,40.0,11.230467796325684,-25.451658248901367,-39.0625,-1.30712890625,0.126953125,0.150634765625
8.417,311,2075,2679,314,3.0,25.0,40.0,23.986814498901367,2.868652105331421,-24.169919967651367,-1.214111328125,0.26123046875,0.2908935546875
8.418,312,2039,2632,319,3.0,25.0,40.0,21.850584030151367,14.709471702575684,-14.099120140075684,-1.615966796875,0.29296875,0.42041015625
8.420,311,1997,2573,314,3.0,25.0,40.0,11.718749046325684,11.291502952575684,-5.920409679412842,-1.88330078125,0.3544921875,0.4986572265625
8.447,312,1913,2421,316,3.0,25.0,40.0,-3.662109136581421,6.774901866912842,-3.845214605331421,-1.8038330078125,0.3372802734375,0.44091796875
8.452,311,1860,2311,316,3.0,25.0,40.0,-16.90673828125,9.521484375,-6.713866710662842,-1.518798828125,0.248046875,0.3367919921875
8.463,311,1785,2197,314,3.0,25.0,40.0,-20.385740280151367,15.686034202575684,-7.873534679412842,-1.2584228515625,0.14599609375,0.33154296875
8.476,311,1619,1933,311,3.0,25.0,40.0,-14.953612327575684,21.972654342651367,-4.57763671875,-1.135986328125,0.0687255859375,0.3907470703125
8.480,311,1513,1778,316,5.0,29.0,35.0,-5.0048828125,29.174802780151367,2.990722417831421,-1.0806884765625,0.0550537109375,0.343505859375
8.483,309,1415,1611,314,5.0,29.0,35.0,5.859374523162842,39.1845703125,12.817381858825684,-0.9951171875,0.052734375,0.1600341796875
8.493,311,1263,1449,312,5.0,29.0,35.0,5.859374523162842,39.1845703125,12.817381858825684,-0.8656005859375,0.015625,-0.0155029296875
8.502,309,916,1122,311,5.0,29.0,35.0,13.427733421325684,53.161617279052734,24.047849655151367,-0.677490234375,-0.04248046875,-0.1474609375
8.520,310,729,925,311,5.0,29.0,35.0,12.268065452575684,53.771968841552734,24.047849655151367,-0.4180908203125,-0.0440673828125,-0.2369384765625
8.524,310,497,710,311,5.0,29.0,35.0,11.901854515075684,52.429195404052734,20.263669967651367,-0.2098388671875,-0.0068359375,-0.2545166015625
8.535,311,454,652,311,5.0,29.0,35.0,15.502928733825684,50.964351654052734,9.33837890625,-0.194091796875,0.058837890625,-0.2469482421875
8.543,309,399,601,309,5.0,29.0,35.0,15.502928733825684,50.964351654052734,9.33837890625,-0.3367919921875,0.26171875,-0.19091796875
8.548,309,396,600,309,5.0,29.0,35.0,19.04296875,48.583980560302734,-4.08935546875,-0.3367919921875,0.26171875,-0.19091796875
8.561,310,381,601,310,5.0,29.0,35.0,-23.010251998901367,19.71435546875,-14.160155296325684,-0.724609375,0.6041259765625,0.1082763671875
8.570,309,375,609,309,5.0,32.0,35.0,-23.010251998901367,19.71435546875,-14.160155296325684,-0.7906494140625,0.485107421875,0.22119140625
8.586,309,361,614,309,5.0,32.0,35.0,-73.8525390625,5.554198741912842,-24.230955123901367,-0.7589111328125,0.286376953125,0.2239990234375
8.594,314,365,619,310,5.0,32.0,35.0,-68.42041015625,15.136717796325684,-30.578611373901367,-0.7132568359375,0.1588134765625,0.153564453125
8.600,309,361,620,310,5.0,32.0,35.0,-68.42041015625,15.136717796325684,-30.578611373901367,-0.6719970703125,0.107421875,0.1053466796875
8.624,309,365,628,309,5.0,32.0,35.0,-44.372554779052734,21.301267623901367,-30.883787155151367,-0.6605224609375,0.060546875,0.09912109375
8.625,309,367,632,309,5.0,32.0,35.0,-38.330078125,15.624999046325684,-27.099607467651367,-0.6932373046875,0.0045166015625,0.12255859375
8.630,309,368,636,310,5.0,32.0,35.0,-38.330078125,15.624999046325684,-27.099607467651367,-0.738037109375,-0.0242919921875,0.1585693359375
8.645,309,365,647,309,5.0,32.0,35.0,-22.277830123901367,5.065917491912842,-13.061522483825684,-0.78125,-0.0030517578125,0.16650390625
8.652,309,371,647,309,5.0,32.0,35.0,-10.742186546325684,3.723144292831421,-4.57763671875,-0.8250732421875,0.039794921875,0.1395263671875
8.660,310,363,651,309,5.0,32.0,35.0,-10.742186546325684,3.723144292831421,-4.57763671875,-0.85791015625,0.0625,0.111572265625
8.676,309,372,651,309,7.0,30.0,39.0,3.234863042831421,3.540038824081421,5.615233898162842,-0.870361328125,0.06494140625,0.0977783203125
8.685,309,372,651,309,7.0,30.0,39.0,3.234863042831421,2.990722417831421,7.446288585662842,-0.866943359375,0.06494140625,0.0870361328125
8.697,309,372,647,307,7.0,30.0,39.0,3.234863042831421,2.990722417831421,7.446288585662842,-0.8603515625,0.0654296875,0.0712890625
8.704,309,384,647,309,7.0,30.0,39.0,-1.220703125,2.44140625,9.6435546875,-0.855224609375,0.068359375,0.055419921875
8.726,308,381,645,309,7.0,30.0,39.0,-1.5869139432907104,2.01416015625,10.681151390075684,-0.84814453125,0.07861328125,0.043701171875
8.726,309,386,643,309,7.0,30.0,39.0,-1.5869139432907104,2.01416015625,10.681151390075684,-0.8388671875,0.0919189453125,0.0322265625
