time,compression0,compression1,compression2,compression3,magn_x,magn_y,magn_z,gyro_x,gyro_y,gyro_z,accel_x,accel_y,accel_z
0.021,290,1855,499,808,13.0,33.0,10.0,-0.54931640625,2.13623046875,-10.009765625,-0.891357421875,0.364013671875,0.2099609375
0.021,291,2170,551,698,13.0,33.0,10.0,-0.54931640625,2.13623046875,-10.009765625,-0.8896484375,0.3551025390625,0.2064208984375
0.025,291,1954,539,735,13.0,33.0,10.0,-0.4272460639476776,1.6479490995407104,-10.620116233825684,-0.8896484375,0.3551025390625,0.2064208984375
0.056,291,1970,512,666,13.0,33.0,10.0,0.2441406100988388,-0.1220703050494194,-11.413573265075684,-0.8900146484375,0.3341064453125,0.2025146484375
0.062,289,2012,562,723,13.0,33.0,10.0,0.2441406100988388,-0.1220703050494194,-11.413573265075684,-0.8883056640625,0.3260498046875,0.19970703125
0.062,289,1981,561,722,13.0,33.0,10.0,0.3662109076976776,-0.9155272841453552,-11.474608421325684,-0.8883056640625,0.3260498046875,0.19970703125
0.091,291,1892,478,740,13.0,33.0,10.0,0.1220703050494194,-1.6479490995407104,-11.413573265075684,-0.8883056640625,0.318359375,0.1978759765625
0.098,290,1931,548,745,13.0,33.0,10.0,-0.1831054538488388,-2.3193359375,-11.108397483825684,-0.8883056640625,0.318359375,0.1978759765625
0.098,280,2030,548,748,13.0,33.0,10.0,-0.7324218153953552,-3.112792730331421,-10.559081077575684,-0.8939208984375,0.3270263671875,0.196044921875
0.099,290,1931,490,720,13.0,32.0,12.0,-2.197265625,-3.723144292831421,-9.82666015625,-0.91064453125,0.3294677734375,0.2064208984375
0.121,289,1943,531,800,13.0,32.0,12.0,-4.69970703125,-3.906249761581421,-9.033203125,-0.91064453125,0.3294677734375,0.2064208984375
0.121,289,1921,532,617,13.0,32.0,12.0,-6.591796398162842,-3.356933355331421,-8.1787109375,-0.9229736328125,0.3302001953125,0.211669921875
0.129,289,1949,514,733,13.0,32.0,12.0,-7.690429210662842,-2.44140625,-7.568358898162842,-0.94677734375,0.3214111328125,0.2178955078125
0.141,290,1941,521,797,13.0,32.0,12.0,-8.60595703125,-1.7089842557907104,-7.080077648162842,-0.94677734375,0.3214111328125,0.2178955078125
0.145,291,1966,533,780,13.0,32.0,12.0,-8.4228515625,-1.220703125,-6.469726085662842,-0.9522705078125,0.3095703125,0.2183837890625
0.159,291,1931,495,737,13.0,32.0,12.0,-6.958007335662842,-1.0986328125,-5.798339366912842,-0.9395751953125,0.29345703125,0.23876953125
0.167,289,1908,533,815,13.0,32.0,12.0,-4.82177734375,-1.3427733182907104,-5.554198741912842,-0.9395751953125,0.29345703125,0.23876953125
0.175,291,1934,548,794,13.0,32.0,12.0,-2.746581792831421,-1.7089842557907104,-5.859374523162842,-0.9276123046875,0.299560546875,0.2454833984375
0.192,291,1980,518,705,13.0,32.0,12.0,-1.2817381620407104,-1.9531248807907104,-6.591796398162842,-0.9019775390625,0.3045654296875,0.2440185546875
0.197,289,1973,561,765,15.0,29.0,10.0,-0.1831054538488388,-1.8310545682907104,-7.507323741912842,-0.9019775390625,0.3045654296875,0.2440185546875
0.206,291,1961,553,782,15.0,29.0,10.0,1.5258787870407104,-1.2817381620407104,-8.36181640625,-0.899169921875,0.3160400390625,0.2373046875
0.228,291,2021,537,667,15.0,29.0,10.0,3.295898199081421,-0.6103515625,-8.97216796875,-0.91259765625,0.340087890625,0.225830078125
0.229,289,2010,586,738,15.0,29.0,10.0,4.45556640625,0.0,-9.46044921875,-0.91259765625,0.340087890625,0.225830078125
0.235,289,2007,578,749,15.0,29.0,10.0,4.57763671875,0.6103515625,-9.8876953125,-0.916748046875,0.3404541015625,0.220703125
0.254,291,1982,531,673,15.0,29.0,10.0,4.0283203125,1.0986328125,-10.314940452575684,-0.9161376953125,0.317138671875,0.2103271484375
0.258,291,1980,574,750,15.0,29.0,10.0,3.723144292831421,1.4038084745407104,-11.047362327575684,-0.9161376953125,0.317138671875,0.2103271484375
0.265,290,1968,572,753,15.0,29.0,10.0,4.0283203125,1.4038084745407104,-11.901854515075684,-0.9217529296875,0.3057861328125,0.2086181640625
0.279,292,1970,532,683,15.0,29.0,10.0,4.57763671875,1.0986328125,-12.634276390075684,-0.9197998046875,0.29052734375,0.2109375
0.287,291,1933,562,766,15.0,29.0,10.0,5.126952648162842,0.6713866591453552,-13.061522483825684,-0.9197998046875,0.29052734375,0.2109375
0.295,292,1923,567,754,15.0,29.0,8.0,5.065917491912842,0.1831054538488388,-13.000487327575684,-0.9144287109375,0.2841796875,0.2081298828125
0.309,291,1927,513,720,15.0,29.0,8.0,4.57763671875,-0.4882812201976776,-12.329100608825684,-0.91015625,0.2801513671875,0.2044677734375
0.329,289,1959,571,757,15.0,29.0,8.0,3.845214605331421,-1.220703125,-11.108397483825684,-0.907958984375,0.2767333984375,0.2020263671875
0.337,291,1914,604,627,15.0,29.0,8.0,2.807616949081421,-1.8920897245407104,-9.6435546875,-0.9068603515625,0.2740478515625,0.2012939453125
0.339,291,1954,532,706,15.0,29.0,8.0,1.5869139432907104,-2.25830078125,-7.995604991912842,-0.9027099609375,0.2708740234375,0.2034912109375
0.347,290,1954,567,777,15.0,29.0,8.0,0.3662109076976776,-2.50244140625,-6.469726085662842,-0.898681640625,0.268310546875,0.2095947265625
0.357,291,1969,567,767,15.0,29.0,8.0,-0.3662109076976776,-2.807616949081421,-5.065917491912842,-0.902587890625,0.2708740234375,0.2183837890625
0.370,289,1974,522,707,15.0,29.0,8.0,-0.6103515625,-3.112792730331421,-3.906249761581421,-0.9129638671875,0.27685546875,0.226806640625
0.377,291,1985,567,767,15.0,29.0,8.0,-0.8544921278953552,-2.990722417831421,-3.112792730331421,-0.925537109375,0.283935546875,0.230712890625
0.386,291,1985,574,774,15.0,29.0,8.0,-1.03759765625,-2.563476324081421,-2.746581792831421,-0.9383544921875,0.293701171875,0.2315673828125
0.399,289,1974,527,725,15.0,27.0,15.0,-1.220703125,-1.7700194120407104,-2.929687261581421,-0.946533203125,0.301513671875,0.2337646484375
0.407,292,1974,572,785,15.0,27.0,15.0,-1.3427733182907104,-0.6713866591453552,-3.417968511581421,-0.9490966796875,0.3023681640625,0.234375
0.429,291,1983,566,782,15.0,27.0,15.0,-1.3427733182907104,0.4272460639476776,-3.723144292831421,-0.943359375,0.297119140625,0.2305908203125
0.429,292,1967,548,737,15.0,27.0,15.0,-0.9155272841453552,1.4038084745407104,-3.784179449081421,-0.929443359375,0.288330078125,0.2247314453125
0.437,292,1955,573,800,15.0,27.0,15.0,-0.4272460639476776,2.0751953125,-3.784179449081421,-0.916748046875,0.280517578125,0.22119140625
0.449,293,1970,571,794,15.0,27.0,15.0,-0.1831054538488388,2.44140625,-3.723144292831421,-0.90869140625,0.2747802734375,0.2208251953125
0.464,293,1973,526,737,15.0,27.0,15.0,-0.4272460639476776,2.563476324081421,-3.662109136581421,-0.9034423828125,0.2703857421875,0.2183837890625
0.467,292,2048,588,778,15.0,27.0,15.0,-1.15966796875,2.50244140625,-3.479003667831421,-0.9027099609375,0.270263671875,0.2117919921875
0.475,291,2024,589,780,15.0,27.0,15.0,-2.0751953125,2.01416015625,-3.112792730331421,-0.90478515625,0.2718505859375,0.2030029296875
0.489,294,2005,537,725,13.0,33.0,7.0,-2.807616949081421,0.9765624403953552,-2.563476324081421,-0.9071044921875,0.271728515625,0.1934814453125
0.499,292,2005,573,792,13.0,33.0,7.0,-3.356933355331421,-0.6103515625,-1.8310545682907104,-0.9071044921875,0.271240234375,0.1859130859375
0.505,292,2007,584,794,13.0,33.0,7.0,-3.540038824081421,-2.746581792831421,-0.9765624403953552,-0.90087890625,0.2718505859375,0.1842041015625
0.533,294,2012,576,722,13.0,33.0,7.0,-3.295898199081421,-5.187987804412842,-0.1220703050494194,-0.8934326171875,0.2752685546875,0.187744140625
0.533,293,2007,594,806,13.0,33.0,7.0,-3.234863042831421,-7.507323741912842,0.6103515625,-0.8902587890625,0.2855224609375,0.1947021484375
0.535,289,2093,547,785,13.0,33.0,7.0,-4.2724609375,-9.3994140625,1.15966796875,-0.89697265625,0.3055419921875,0.202880859375
0.549,296,2035,567,737,13.0,33.0,7.0,-7.263183116912842,-10.986327171325684,1.5258787870407104,-0.91259765625,0.3111572265625,0.2127685546875
0.570,293,2047,614,800,13.0,33.0,7.0,-11.047362327575684,-11.901854515075684,1.7700194120407104,-0.93212890625,0.2969970703125,0.21875
0.570,298,2235,559,801,13.0,33.0,7.0,-13.671874046325684,-11.840819358825684,1.9531248807907104,-0.95703125,0.2899169921875,0.22216796875
0.579,293,2039,582,740,13.0,33.0,7.0,-15.258788108825684,-11.169432640075684,2.38037109375,-0.977783203125,0.2791748046875,0.2310791015625
0.587,296,2047,620,815,14.0,28.0,9.0,-16.05224609375,-10.314940452575684,2.868652105331421,-0.9898681640625,0.259521484375,0.242431640625
0.595,294,2050,624,814,14.0,28.0,9.0,-15.075682640075684,-9.3994140625,3.601073980331421,-0.993896484375,0.243408203125,0.2559814453125
0.609,294,2065,598,735,14.0,28.0,9.0,-12.145995140075684,-8.6669921875,4.39453125,-0.98681640625,0.23095703125,0.267822265625
0.617,295,2102,678,732,14.0,28.0,9.0,-7.812499523162842,-7.873534679412842,5.310058116912842,-0.9786376953125,0.232421875,0.2786865234375
0.631,292,2068,646,754,14.0,28.0,9.0,-2.990722417831421,-7.141112804412842,6.469726085662842,-0.980712890625,0.250244140625,0.286865234375
0.640,294,2089,616,658,14.0,28.0,9.0,1.4648436307907104,-6.896972179412842,7.873534679412842,-0.9903564453125,0.26708984375,0.2869873046875
0.647,294,2083,669,705,14.0,28.0,9.0,5.371093273162842,-6.835937023162842,9.033203125,-0.999267578125,0.2745361328125,0.2828369140625
0.655,292,2037,634,711,14.0,28.0,9.0,9.27734375,-6.774901866912842,9.521484375,-1.00439453125,0.27392578125,0.2779541015625
0.690,292,1967,579,675,14.0,28.0,9.0,13.366698265075684,-6.225585460662842,8.85009765625,-1.0113525390625,0.2725830078125,0.269287109375
0.691,292,1914,625,711,14.0,28.0,9.0,17.9443359375,-4.82177734375,7.019042491912842,-1.0084228515625,0.2838134765625,0.2537841796875
0.696,292,1890,631,607,15.0,30.0,10.0,22.277830123901367,-2.990722417831421,4.57763671875,-0.96826171875,0.295166015625,0.2415771484375
0.699,291,1730,593,587,15.0,30.0,10.0,26.367185592651367,-1.4038084745407104,1.9531248807907104,-0.902099609375,0.3011474609375,0.2408447265625
0.708,294,1702,564,644,15.0,30.0,10.0,31.677244186401367,-0.7324218153953552,-0.4272460639476776,-0.84033203125,0.3199462890625,0.2469482421875
0.716,295,1669,594,600,15.0,30.0,10.0,37.78076171875,-1.6479490995407104,-2.50244140625,-0.8074951171875,0.350341796875,0.26025390625
0.736,315,1598,526,551,15.0,30.0,10.0,41.687007904052734,-3.540038824081421,-5.0048828125,-0.805419921875,0.374755859375,0.281005859375
0.738,310,1655,497,567,15.0,30.0,10.0,42.114253997802734,-4.8828125,-8.23974609375,-0.810302734375,0.3848876953125,0.2930908203125
0.745,321,1545,538,605,15.0,30.0,10.0,39.12353515625,-4.82177734375,-11.413573265075684,-0.8203125,0.3824462890625,0.2752685546875
0.759,334,1584,514,540,15.0,30.0,10.0,34.11865234375,-3.479003667831421,-13.366698265075684,-0.833984375,0.3638916015625,0.2247314453125
0.767,342,1600,527,591,15.0,30.0,10.0,29.479978561401367,-1.7700194120407104,-14.404295921325684,-0.84765625,0.3385009765625,0.168212890625
0.781,330,1602,527,619,15.0,30.0,10.0,29.479978561401367,-1.7700194120407104,-14.404295921325684,-0.865478515625,0.321044921875,0.1365966796875
0.791,330,1648,497,588,13.0,29.0,8.0,20.935056686401367,-1.0986328125,-15.319823265075684,-0.8782958984375,0.3111572265625,0.1312255859375
0.798,342,1697,526,630,13.0,29.0,8.0,14.221190452575684,-2.868652105331421,-15.075682640075684,-0.8756103515625,0.291748046875,0.138427734375
0.808,334,1678,512,675,13.0,29.0,8.0,14.221190452575684,-2.868652105331421,-15.075682640075684,-0.8658447265625,0.2606201171875,0.1539306640625
0.819,371,1790,499,590,13.0,29.0,8.0,0.4882812201976776,-7.873534679412842,-14.404295921325684,-0.86328125,0.2415771484375,0.1690673828125
0.838,346,1798,521,679,13.0,29.0,8.0,-3.784179449081421,-10.314940452575684,-13.610838890075684,-0.8736572265625,0.2388916015625,0.177978515625
0.838,348,1831,518,684,13.0,29.0,8.0,-3.784179449081421,-10.314940452575684,-13.610838890075684,-0.886962890625,0.235107421875,0.1861572265625
0.849,334,1905,479,649,13.0,29.0,8.0,-11.962889671325684,-13.793944358825684,-8.48388671875,-0.8931884765625,0.2232666015625,0.20166015625
0.858,316,1904,508,748,13.0,29.0,8.0,-15.014647483825684,-15.624999046325684,-4.8828125,-0.893310546875,0.2139892578125,0.223876953125
0.865,315,1941,508,780,13.0,29.0,8.0,-15.014647483825684,-15.624999046325684,-4.8828125,-0.8814697265625,0.21484375,0.234130859375
0.879,317,2000,473,731,12.0,27.0,11.0,-15.197752952575684,-18.6767578125,0.2441406100988388,-0.85791015625,0.220703125,0.235595703125
0.887,316,2047,506,793,12.0,27.0,11.0,-13.610838890075684,-18.9208984375,0.8544921278953552,-0.8192138671875,0.2227783203125,0.2427978515625
0.901,324,2131,531,794,12.0,27.0,11.0,-13.610838890075684,-18.9208984375,0.8544921278953552,-0.7403564453125,0.22265625,0.2579345703125
0.909,330,2223,509,705,12.0,27.0,11.0,-8.4228515625,-13.366698265075684,-3.723144292831421,-0.6112060546875,0.25341796875,0.2923583984375
0.917,330,2261,519,865,12.0,27.0,11.0,-5.859374523162842,-7.324218273162842,-10.070799827575684,-0.39794921875,0.3096923828125,0.359375
0.941,328,2337,561,897,12.0,27.0,11.0,-5.859374523162842,-7.324218273162842,-10.070799827575684,-0.1021728515625,0.361083984375,0.4287109375
0.941,330,2412,653,944,12.0,27.0,11.0,-19.47021484375,6.469726085662842,-42.175289154052734,0.1163330078125,0.3790283203125,0.42578125
0.947,334,2621,858,1004,12.0,27.0,11.0,-42.907711029052734,11.657713890075684,-64.3310546875,0.119384765625,0.380126953125,0.3426513671875
0.955,331,2657,960,1051,12.0,27.0,11.0,-42.907711029052734,11.657713890075684,-64.3310546875,-0.0567626953125,0.416015625,0.2603759765625
0.969,359,2736,1043,1071,12.0,27.0,11.0,-104.49217987060547,10.620116233825684,-84.22850799560547,-0.361083984375,0.4818115234375,0.2403564453125
0.977,359,2756,1266,1310,20.0,25.0,14.0,-112.18260955810547,3.356933355331421,-78.91845703125,-0.863037109375,0.605712890625,0.2530517578125
0.985,360,2966,1453,1276,20.0,25.0,14.0,-112.18260955810547,3.356933355331421,-78.91845703125,-0.863037109375,0.605712890625,0.2530517578125
1.000,388,3012,1450,1260,20.0,25.0,14.0,-100.34178924560547,-17.39501953125,-60.180660247802734,-2.068603515625,-0.247314453125,-0.18798828125
1.013,404,2992,1516,1529,20.0,25.0,14.0,-100.34178924560547,-17.39501953125,-60.180660247802734,-2.181396484375,-0.8201904296875,-0.3134765625
1.015,402,3147,1652,1492,20.0,25.0,14.0,-66.46728515625,-20.324705123901367,-51.147457122802734,-2.181396484375,-0.8201904296875,-0.3134765625
1.045,401,3106,1557,1440,20.0,25.0,14.0,15.930174827575684,-40.893550872802734,-18.798828125,-1.49267578125,-0.23388671875,0.2384033203125
1.045,401,3147,1722,1569,20.0,25.0,14.0,15.930174827575684,-40.893550872802734,-18.798828125,-1.214599609375,0.3072509765625,0.5916748046875
1.045,417,3050,1655,1531,20.0,25.0,14.0,22.216794967651367,-44.189449310302734,0.9765624403953552,-1.214599609375,0.3072509765625,0.5916748046875
1.059,406,3140,1568,1536,20.0,25.0,14.0,-34.24072265625,-25.756834030151367,20.507810592651367,-1.323974609375,0.4600830078125,0.80322265625
1.068,411,3147,1739,1634,20.0,25.0,14.0,-34.24072265625,-25.756834030151367,20.507810592651367,-1.298583984375,0.361083984375,0.6888427734375
1.076,391,3147,1748,1596,20.0,26.0,6.0,-50.842281341552734,-11.657713890075684,16.54052734375,-1.298583984375,0.361083984375,0.6888427734375
1.090,401,3147,1636,1504,20.0,26.0,6.0,-14.587401390075684,11.657713890075684,-16.05224609375,-0.89501953125,0.4658203125,0.4296875
1.100,390,3144,1742,1551,20.0,26.0,6.0,-14.587401390075684,11.657713890075684,-16.05224609375,-0.85205078125,0.4720458984375,0.364013671875
1.106,401,3118,1700,1536,20.0,26.0,6.0,-0.2441406100988388,20.446775436401367,-33.8134765625,-0.85205078125,0.4720458984375,0.364013671875
1.126,387,3018,1611,1328,20.0,26.0,6.0,-12.573241233825684,34.36279296875,-53.039546966552734,-0.9423828125,0.16748046875,0.334716796875
1.127,359,3147,1578,1319,20.0,26.0,6.0,-12.573241233825684,34.36279296875,-53.039546966552734,-0.9588623046875,0.079345703125,0.318359375
1.149,384,2890,1718,1412,20.0,26.0,6.0,-16.17431640625,39.48974609375,-57.189937591552734,-0.9588623046875,0.079345703125,0.318359375
1.149,390,2733,1547,1281,20.0,26.0,6.0,-21.850584030151367,44.494625091552734,-56.884761810302734,-1.1702880859375,0.0714111328125,0.27783203125
1.157,387,2671,1665,1397,20.0,26.0,6.0,-21.850584030151367,44.494625091552734,-56.884761810302734,-1.3436279296875,-0.01318359375,0.2684326171875
1.166,388,2647,1640,1369,20.0,26.0,6.0,-37.53662109375,41.137691497802734,-49.560543060302734,-1.3436279296875,-0.01318359375,0.2684326171875
1.179,378,2568,1452,1188,23.0,28.0,8.0,-53.344722747802734,26.794431686401367,-23.925779342651367,-1.418701171875,-0.2125244140625,0.321533203125
1.187,371,2517,1467,1290,23.0,28.0,8.0,-53.344722747802734,26.794431686401367,-23.925779342651367,-1.35986328125,-0.2296142578125,0.3240966796875
1.195,364,2538,1424,1242,23.0,28.0,8.0,-38.51318359375,16.2353515625,-7.629394054412842,-1.35986328125,-0.2296142578125,0.3240966796875
1.209,334,2359,1231,987,23.0,28.0,8.0,-19.8974609375,3.173827886581421,12.329100608825684,-1.28173828125,-0.3043212890625,0.2073974609375
1.217,332,2632,1236,844,23.0,28.0,8.0,-2.13623046875,-11.840819358825684,35.400390625,-1.28173828125,-0.3043212890625,0.2073974609375
1.225,323,2356,1078,959,23.0,28.0,8.0,16.4794921875,-27.465818405151367,60.363765716552734,-1.2572021484375,-0.318359375,0.1832275390625
1.248,308,2220,740,766,23.0,28.0,8.0,36.80419921875,-41.076656341552734,85.02196502685547,-1.180419921875,-0.1983642578125,0.2674560546875
1.248,308,2202,734,800,23.0,28.0,8.0,58.898921966552734,-49.926753997802734,104.85839080810547,-1.180419921875,-0.1983642578125,0.2674560546875
1.256,304,2217,586,746,23.0,28.0,8.0,82.09227752685547,-53.161617279052734,117.85887908935547,-1.16064453125,-0.1734619140625,0.28125
1.273,299,2136,481,656,16.0,29.0,11.0,105.83495330810547,-52.673336029052734,126.40380096435547,-1.0748291015625,-0.198974609375,0.232421875
1.277,296,2142,600,640,16.0,29.0,11.0,133.056640625,-50.598140716552734,131.89697265625,-1.0748291015625,-0.198974609375,0.232421875
1.285,290,1974,546,587,16.0,29.0,11.0,166.50389099121094,-46.752925872802734,135.8642578125,-0.8790283203125,-0.138916015625,0.231201171875
1.300,286,1825,493,533,16.0,29.0,11.0,204.71189880371094,-36.68212890625,134.33837890625,-0.3521728515625,0.05322265625,0.236328125
1.314,287,1703,525,546,16.0,29.0,11.0,237.24363708496094,-14.709471702575684,122.86376190185547,-0.3521728515625,0.05322265625,0.236328125
1.316,274,1600,572,524,16.0,29.0,11.0,242.06541442871094,16.4794921875,104.43114471435547,-0.20654296875,0.3612060546875,0.018310546875
1.329,289,1306,521,478,16.0,29.0,11.0,203.12498474121094,49.865718841552734,80.13916015625,-0.316162109375,1.2261962890625,-0.106689453125
1.358,291,1222,522,499,16.0,29.0,11.0,115.96678924560547,76.84326171875,49.560543060302734,-0.316162109375,1.2261962890625,-0.106689453125
1.358,297,1156,546,504,16.0,29.0,11.0,14.038084983825684,84.28954315185547,21.545408248901367,-0.4273681640625,1.03173828125,0.328369140625
1.360,289,1267,576,487,16.0,29.0,11.0,-33.87451171875,73.2421875,9.94873046875,-0.417236328125,0.543701171875,0.3232421875
1.370,286,1209,543,493,11.0,29.0,16.0,-7.141112804412842,58.166500091552734,15.808104515075684,-0.417236328125,0.543701171875,0.3232421875
1.376,282,1213,531,497,11.0,29.0,16.0,36.92626953125,37.109375,20.385740280151367,-0.5411376953125,0.6768798828125,0.05615234375
1.389,282,1320,501,499,11.0,29.0,16.0,44.189449310302734,8.7890625,10.925292015075684,-0.477294921875,0.361083984375,-0.0712890625
1.397,280,1382,514,548,11.0,29.0,16.0,25.329587936401367,-12.634276390075684,2.25830078125,-0.477294921875,0.361083984375,-0.0712890625
1.405,280,1478,519,570,11.0,29.0,16.0,3.051757574081421,-21.179197311401367,8.60595703125,-0.3856201171875,0.304931640625,-0.100830078125
1.430,277,1669,404,618,11.0,29.0,16.0,-24.780271530151367,-26.245115280151367,22.216794967651367,-0.498291015625,0.2398681640625,0.09423828125
1.430,287,1897,437,642,11.0,29.0,16.0,-56.091304779052734,-37.41455078125,29.113767623901367,-0.498291015625,0.2398681640625,0.09423828125
1.435,292,2110,458,614,11.0,29.0,16.0,-86.73094940185547,-50.720211029052734,22.521970748901367,-0.5208740234375,0.314697265625,0.1669921875
1.453,280,2192,309,767,11.0,29.0,16.0,-118.10301971435547,-60.424800872802734,3.723144292831421,-0.4796142578125,0.408447265625,0.244140625
1.463,282,2316,315,987,11.0,29.0,16.0,-152.28271484375,-63.415523529052734,-25.634763717651367,-0.3011474609375,0.303955078125,0.25830078125
1.465,274,2659,247,1029,19.0,27.0,12.0,-191.10105895996094,-51.086421966552734,-63.720699310302734,-0.0235595703125,0.133056640625,0.052490234375
1.479,301,2763,440,1045,19.0,27.0,12.0,-236.87742614746094,-26.611326217651367,-98.02245330810547,0.230712890625,-0.0411376953125,-0.0833740234375
1.487,312,2916,657,1209,19.0,27.0,12.0,-258.23974609375,-6.713866710662842,-117.49266815185547,0.27880859375,-0.3013916015625,0.119384765625
1.495,330,3008,815,1290,19.0,27.0,12.0,-198.91355895996094,5.981444835662842,-116.76024627685547,-0.111328125,-0.292236328125,0.3511962890625
1.509,352,3143,1050,1326,19.0,27.0,12.0,-87.03612518310547,15.380858421325684,-95.58104705810547,-0.894775390625,0.10986328125,0.362548828125
1.518,372,3107,1202,1541,19.0,27.0,12.0,-22.094724655151367,14.770506858825684,-68.42041015625,-1.6990966796875,0.5291748046875,0.3045654296875
1.526,377,3134,1278,1580,19.0,27.0,12.0,-37.109375,3.295898199081421,-49.072261810302734,-2.2686767578125,0.648193359375,0.43310546875
1.557,376,3147,1318,1582,19.0,27.0,12.0,-79.345703125,-10.498045921325684,-35.888671875,-2.538818359375,0.493896484375,0.71484375
1.558,406,3147,1330,1730,19.0,27.0,12.0,-91.67479705810547,-22.766111373901367,-23.010251998901367,-2.483642578125,0.09912109375,0.89111328125
1.558,388,3147,1294,1689,19.0,27.0,12.0,-57.006832122802734,-33.69140625,-13.244627952575684,-2.1689453125,-0.4410400390625,0.8587646484375
1.576,390,3145,1000,1682,19.0,28.0,9.0,15.258788108825684,-40.405269622802734,-7.446288585662842,-1.724853515625,-0.6185302734375,0.6961669921875
1.579,377,3147,1078,1713,19.0,28.0,9.0,91.36962127685547,-37.78076171875,0.0,-1.2509765625,-0.184814453125,0.5146484375
1.586,401,3104,1005,1753,19.0,28.0,9.0,121.94823455810547,-21.545408248901367,6.591796398162842,-0.9227294921875,0.5833740234375,0.4283447265625
1.599,411,3137,927,1636,19.0,28.0,9.0,89.23339080810547,5.432128429412842,1.9531248807907104,-0.8704833984375,1.1783447265625,0.4176025390625
1.608,409,2970,992,1695,19.0,28.0,9.0,22.033689498901367,35.0341796875,-19.4091796875,-0.9500732421875,1.244384765625,0.3812255859375
1.616,411,2881,1058,1702,19.0,28.0,9.0,-41.625972747802734,57.739253997802734,-51.452632904052734,-0.9970703125,0.88330078125,0.3419189453125
1.635,431,2713,1156,1531,19.0,28.0,9.0,-80.87157440185547,69.580078125,-81.66503143310547,-1.10498046875,0.4874267578125,0.39990234375
1.638,434,2632,1276,1624,19.0,28.0,9.0,-93.99413299560547,73.6083984375,-98.20555877685547,-1.494873046875,0.329345703125,0.5250244140625
1.659,431,2430,1320,1540,19.0,28.0,9.0,-97.71727752685547,73.05908203125,-95.27587127685547,-1.8895263671875,0.2437744140625,0.5738525390625
1.659,437,2127,1379,1468,19.0,28.0,9.0,-93.44481658935547,69.39697265625,-81.66503143310547,-1.904541015625,0.034912109375,0.507080078125
1.667,426,1985,1417,1415,22.0,27.0,4.0,-70.86181640625,63.293453216552734,-68.66455078125,-1.6591796875,-0.160400390625,0.4168701171875
1.676,401,2007,1471,1178,22.0,27.0,4.0,-43.151851654052734,55.114742279052734,-56.091304779052734,-1.375244140625,-0.2086181640625,0.3546142578125
1.689,402,1693,1264,1111,22.0,27.0,4.0,-27.832029342651367,45.288082122802734,-38.39111328125,-1.1395263671875,-0.1903076171875,0.259521484375
1.698,338,1899,1348,912,22.0,27.0,4.0,-23.315427780151367,34.5458984375,-14.282225608825684,-0.9686279296875,-0.276123046875,0.1407470703125
1.706,347,1627,1224,897,22.0,27.0,4.0,-16.54052734375,23.498533248901367,11.901854515075684,-0.8494873046875,-0.4217529296875,0.052734375
1.720,331,1632,1009,832,22.0,27.0,4.0,-0.9765624403953552,12.695311546325684,34.97314453125,-0.7611083984375,-0.5130615234375,0.0347900390625
1.728,327,1676,984,859,22.0,27.0,4.0,22.033689498901367,5.371093273162842,49.682613372802734,-0.7017822265625,-0.4910888671875,0.0975341796875
1.739,324,1610,871,838,22.0,27.0,4.0,49.194332122802734,5.737304210662842,53.405757904052734,-0.67138671875,-0.271484375,0.174560546875
1.761,316,1580,785,737,22.0,27.0,4.0,69.7021484375,13.977049827575684,49.743648529052734,-0.6102294921875,0.0509033203125,0.2103271484375
1.761,321,1550,759,780,22.0,27.0,4.0,74.462890625,24.902341842651367,42.419429779052734,-0.4989013671875,0.1917724609375,0.2083740234375
1.765,309,1580,739,705,19.0,30.0,9.0,70.068359375,35.33935546875,31.677244186401367,-0.43359375,0.072998046875,0.1837158203125
1.782,316,1474,631,673,19.0,30.0,9.0,70.1904296875,45.471187591552734,19.53125,-0.44287109375,-0.046142578125,0.1097412109375
1.788,319,1529,677,691,19.0,30.0,9.0,80.56639862060547,53.833003997802734,11.535643577575684,-0.51220703125,0.051513671875,-0.010986328125
1.801,318,1506,660,679,19.0,30.0,9.0,91.43065643310547,54.931636810302734,11.291502952575684,-0.6107177734375,0.24560546875,-0.0869140625
1.809,317,1553,591,598,19.0,30.0,9.0,87.70751190185547,45.043941497802734,17.08984375,-0.7130126953125,0.3702392578125,-0.087646484375
1.817,318,1519,567,678,19.0,30.0,9.0,68.78662109375,26.916501998901367,26.550291061401367,-0.791259765625,0.418212890625,-0.0650634765625
1.826,316,1574,579,646,19.0,30.0,9.0,44.799800872802734,6.408690929412842,36.62109375,-0.782470703125,0.3739013671875,-0.016357421875
1.865,310,1607,543,575,19.0,30.0,9.0,23.986814498901367,-12.207030296325684,43.212886810302734,-0.71435546875,0.2542724609375,0.081298828125
1.866,310,1666,521,644,19.0,30.0,9.0,10.009765625,-26.367185592651367,45.349117279052734,-0.66015625,0.1375732421875,0.2117919921875
1.866,300,1582,535,723,19.0,30.0,9.0,3.295898199081421,-34.24072265625,44.250484466552734,-0.654541015625,0.0833740234375,0.3310546875
1.869,296,1759,549,673,19.0,30.0,11.0,1.5258787870407104,-35.64453125,40.954586029052734,-0.6815185546875,0.0765380859375,0.37841796875
1.878,296,1803,539,678,19.0,30.0,11.0,2.624511480331421,-32.53173828125,36.92626953125,-0.720947265625,0.1220703125,0.351806640625
1.887,296,1862,521,754,19.0,30.0,11.0,6.103515148162842,-30.273435592651367,31.860349655151367,-0.7657470703125,0.2332763671875,0.345458984375
1.915,308,1967,481,740,19.0,30.0,11.0,9.82666015625,-31.066892623901367,23.010251998901367,-0.76318359375,0.345458984375,0.3812255859375
1.919,318,2062,536,814,19.0,30.0,11.0,8.9111328125,-30.334470748901367,8.23974609375,-0.684326171875,0.4061279296875,0.37109375
1.940,310,2062,682,869,19.0,30.0,11.0,8.9111328125,-30.334470748901367,8.23974609375,-0.5546875,0.4210205078125,0.2899169921875
1.952,307,2280,508,922,19.0,30.0,11.0,-12.390135765075684,-21.606443405151367,-25.451658248901367,-0.333984375,0.396240234375,0.158935546875
1.952,317,2416,465,1078,19.0,30.0,11.0,-26.916501998901367,-24.475095748901367,-37.841796875,-0.0211181640625,0.3775634765625,0.01513671875
1.967,323,2477,617,1129,19.0,30.0,11.0,-26.916501998901367,-24.475095748901367,-37.841796875,0.1927490234375,0.3929443359375,-0.0491943359375
1.968,346,2736,841,1125,19.0,26.0,9.0,-49.621578216552734,-50.659175872802734,-55.236812591552734,0.0709228515625,0.4310302734375,-0.0225830078125
1.968,362,2842,1043,1287,19.0,26.0,9.0,-63.354488372802734,-56.152339935302734,-56.213375091552734,-0.4461669921875,0.4464111328125,-0.0950927734375
1.975,371,2918,1184,1341,19.0,26.0,9.0,-63.354488372802734,-56.152339935302734,-56.213375091552734,-1.08154296875,0.3343505859375,-0.265625
1.989,371,3031,1303,1289,19.0,26.0,9.0,-79.77294921875,-26.916501998901367,-42.480464935302734,-1.477294921875,0.0982666015625,-0.2420654296875
1.997,391,3048,1514,1463,19.0,26.0,9.0,-78.43017578125,-27.221677780151367,-47.790523529052734,-1.5604248046875,-0.2005615234375,0.0877685546875
2.005,404,3072,1568,1527,19.0,26.0,9.0,-78.43017578125,-27.221677780151367,-47.790523529052734,-1.4554443359375,-0.43505859375,0.5123291015625
2.019,441,2877,1369,1560,19.0,26.0,9.0,-79.58984375,-38.26904296875,-69.27490234375,-1.4105224609375,-0.40625,0.75341796875
2.027,416,3126,1655,1604,19.0,26.0,9.0,-56.335445404052734,-28.259275436401367,-60.424800872802734,-1.565673828125,-0.179443359375,0.8155517578125
2.035,430,3112,1659,1665,19.0,26.0,9.0,-56.335445404052734,-28.259275436401367,-60.424800872802734,-1.79150390625,-0.0279541015625,0.8673095703125
2.049,385,3147,1593,1575,19.0,26.0,9.0,-19.4091796875,-27.465818405151367,-8.97216796875,-1.93408203125,-0.0716552734375,0.869384765625
2.070,414,3121,1518,1695,21.0,25.0,9.0,-3.356933355331421,-36.31591796875,16.357421875,-1.76806640625,-0.2208251953125,0.68212890625
2.070,424,3102,1467,1709,21.0,25.0,9.0,-3.356933355331421,-36.31591796875,16.357421875,-1.300048828125,-0.1533203125,0.4537353515625
2.079,418,3048,1313,1582,21.0,25.0,9.0,64.208984375,-20.568845748901367,18.98193359375,-0.9569091796875,0.3265380859375,0.3778076171875
2.090,373,3147,1611,1487,21.0,25.0,9.0,63.232418060302734,4.8828125,0.6103515625,-0.8795166015625,0.785888671875,0.4012451171875
2.096,423,2870,1370,1634,21.0,25.0,9.0,63.232418060302734,4.8828125,0.6103515625,-0.9129638671875,0.7921142578125,0.427490234375
2.109,406,2810,1411,1355,21.0,25.0,9.0,-26.428220748901367,58.227535247802734,-38.2080078125,-1.041748046875,0.474853515625,0.48046875
2.117,462,2447,1476,1588,21.0,25.0,9.0,-56.701656341552734,73.6083984375,-51.940914154052734,-1.3785400390625,0.232421875,0.54541015625
2.126,480,2260,1472,1640,21.0,25.0,9.0,-56.701656341552734,73.6083984375,-51.940914154052734,-1.3785400390625,0.232421875,0.54541015625
2.139,468,2065,1497,1428,21.0,25.0,9.0,-88.50096893310547,79.4677734375,-51.635738372802734,-1.848876953125,0.0994873046875,0.4373779296875
2.147,456,2060,1600,1437,21.0,25.0,9.0,-88.50096893310547,79.4677734375,-51.635738372802734,-1.662353515625,-0.0283203125,0.36083984375
2.173,373,1805,1450,1018,22.0,26.0,7.0,-56.396480560302734,55.847164154052734,-28.808591842651367,-1.1888427734375,-0.2598876953125,0.2342529296875
2.177,373,1604,1471,1039,22.0,26.0,7.0,-56.396480560302734,55.847164154052734,-28.808591842651367,-1.0787353515625,-0.404296875,0.127197265625
2.188,361,1503,1382,996,22.0,26.0,7.0,-44.189449310302734,43.273921966552734,-7.080077648162842,-1.0787353515625,-0.404296875,0.127197265625
2.200,344,1470,1173,829,22.0,26.0,7.0,-8.36181640625,10.986327171325684,48.034664154052734,-1.0225830078125,-0.5758056640625,-0.022705078125
2.208,344,1456,1079,849,22.0,26.0,7.0,-8.36181640625,10.986327171325684,48.034664154052734,-1.024169921875,-0.6121826171875,-0.03271484375
2.215,337,1415,959,830,22.0,26.0,7.0,12.084959983825684,-5.371093273162842,75.50048828125,-1.024169921875,-0.6121826171875,-0.03271484375
2.229,313,1483,899,519,22.0,26.0,7.0,67.44384765625,-33.5693359375,125.24413299560547,-1.039794921875,-0.5032958984375,0.00439453125
2.240,308,1317,828,533,22.0,26.0,7.0,67.44384765625,-33.5693359375,125.24413299560547,-0.97265625,-0.4656982421875,-0.0093994140625
2.252,298,1091,725,499,22.0,26.0,7.0,95.88622283935547,-46.813961029052734,146.42333984375,-0.97265625,-0.4656982421875,-0.0093994140625
2.279,289,803,630,442,20.0,29.0,8.0,145.93505859375,-52.856441497802734,165.28318786621094,-0.705810546875,-0.5006103515625,-0.0169677734375
2.279,279,658,593,458,20.0,29.0,8.0,145.93505859375,-52.856441497802734,165.28318786621094,-0.5260009765625,-0.3280029296875,0.02880859375
2.279,280,620,553,419,20.0,29.0,8.0,178.83299255371094,-37.353515625,156.67724609375,-0.5260009765625,-0.3280029296875,0.02880859375
2.290,280,582,540,409,20.0,29.0,8.0,266.845703125,30.334470748901367,99.42626190185547,-0.3592529296875,0.683349609375,0.2515869140625
2.297,280,620,553,430,20.0,29.0,8.0,266.845703125,30.334470748901367,99.42626190185547,-0.588623046875,1.0889892578125,0.3056640625
2.305,282,675,563,430,20.0,29.0,8.0,261.53564453125,56.091304779052734,59.753414154052734,-0.588623046875,1.0889892578125,0.3056640625
2.319,289,694,548,433,20.0,29.0,8.0,105.46874237060547,43.823238372802734,-25.634763717651367,-0.5660400390625,0.56787109375,0.19921875
2.328,286,713,564,462,20.0,29.0,8.0,105.46874237060547,43.823238372802734,-25.634763717651367,-0.35009765625,0.5230712890625,0.1302490234375
2.335,280,711,543,484,20.0,29.0,8.0,75.01220703125,35.33935546875,-41.076656341552734,-0.35009765625,0.5230712890625,0.1302490234375
2.349,282,725,548,445,13.0,32.0,11.0,85.02196502685547,31.555173873901367,-31.433103561401367,-0.1864013671875,0.932373046875,0.009033203125
2.357,279,695,561,490,13.0,32.0,11.0,81.35985565185547,24.780271530151367,-15.258788108825684,-0.1864013671875,0.932373046875,0.009033203125
2.380,280,673,571,481,13.0,32.0,11.0,43.212886810302734,10.009765625,-3.540038824081421,-0.317138671875,0.9014892578125,0.05615234375
2.380,281,782,548,484,13.0,32.0,11.0,-8.1787109375,-4.45556640625,-0.2441406100988388,-0.4178466796875,0.6004638671875,0.1336669921875
2.389,279,849,537,521,13.0,32.0,11.0,-49.560543060302734,-9.8876953125,-4.2724609375,-0.4178466796875,0.6004638671875,0.1336669921875
2.397,279,1051,494,551,13.0,32.0,11.0,-74.8291015625,-10.070799827575684,-8.6669921875,-0.41943359375,0.5423583984375,0.133544921875
2.409,277,1223,481,564,13.0,32.0,11.0,-86.73094940185547,-13.305663108825684,-7.568358898162842,-0.671142578125,0.4595947265625,0.130615234375
2.417,278,1290,512,617,13.0,32.0,11.0,-93.13964080810547,-22.338865280151367,-2.807616949081421,-0.671142578125,0.4595947265625,0.130615234375
2.425,276,1386,508,631,13.0,32.0,11.0,-105.10253143310547,-33.75244140625,-0.7934569716453552,-0.81201171875,0.3521728515625,0.0975341796875
2.439,289,1468,473,636,13.0,32.0,11.0,-123.77928924560547,-42.724605560302734,-5.310058116912842,-0.662353515625,0.20703125,0.1185302734375
2.447,292,1575,552,722,18.0,29.0,12.0,-141.17431640625,-49.865718841552734,-16.357421875,-0.662353515625,0.20703125,0.1185302734375
2.456,293,1681,577,762,18.0,29.0,12.0,-157.2265625,-54.748531341552734,-33.14208984375,-0.5396728515625,0.1302490234375,0.1103515625
2.489,292,1912,631,712,18.0,29.0,12.0,-177.55125427246094,-53.894039154052734,-51.269527435302734,-0.535400390625,-0.26416015625,-0.0635986328125
2.490,304,1948,728,849,18.0,29.0,12.0,-192.68797302246094,-47.912593841552734,-64.208984375,-0.535400390625,-0.26416015625,-0.0635986328125
2.492,306,2014,802,900,18.0,29.0,12.0,-177.12400817871094,-38.9404296875,-70.61767578125,-0.443115234375,-0.39794921875,0.1041259765625
2.500,323,2167,936,890,18.0,29.0,12.0,-119.50682830810547,-27.465818405151367,-72.8759765625,-0.5955810546875,-0.3238525390625,0.4525146484375
2.508,334,2324,1198,986,18.0,29.0,12.0,-43.457027435302734,-14.770506858825684,-73.3642578125,-0.5955810546875,-0.3238525390625,0.4525146484375
2.516,338,2417,1278,1050,18.0,29.0,12.0,13.610838890075684,-4.39453125,-72.81494140625,-0.938720703125,-0.0960693359375,0.4229736328125
2.529,360,2473,1287,1005,18.0,29.0,12.0,35.64453125,1.2817381620407104,-68.17626953125,-1.606689453125,0.4642333984375,0.24072265625
2.538,359,2580,1494,1170,18.0,29.0,12.0,31.005857467651367,2.563476324081421,-55.358882904052734,-1.606689453125,0.4642333984375,0.24072265625
2.547,359,2616,1552,1189,19.0,27.0,9.0,19.287109375,0.9765624403953552,-37.9638671875,-1.804443359375,0.7088623046875,0.1988525390625
2.559,348,2744,1730,933,19.0,27.0,9.0,5.859374523162842,-6.103515148162842,-26.000974655151367,-2.0086669921875,0.528564453125,0.4312744140625
2.580,351,2726,1848,1137,19.0,27.0,9.0,-15.686034202575684,-20.080564498901367,-23.254392623901367,-2.0086669921875,0.528564453125,0.4312744140625
2.581,363,2612,1826,1175,19.0,27.0,9.0,-33.02001953125,-32.8369140625,-25.146482467651367,-1.9376220703125,0.1514892578125,0.6240234375
2.597,375,2375,1697,1122,19.0,27.0,9.0,-28.381345748901367,-34.3017578125,-28.991697311401367,-1.6837158203125,-0.0606689453125,0.70263671875
2.597,373,2713,1957,1071,19.0,27.0,9.0,-7.263183116912842,-21.179197311401367,-35.70556640625,-1.241455078125,-0.0545654296875,0.649658203125
2.606,369,2319,1819,1146,19.0,27.0,9.0,10.437010765075684,2.44140625,-43.395992279052734,-0.908447265625,0.1416015625,0.56494140625
2.619,377,2166,1739,1010,19.0,27.0,9.0,4.8828125,30.212400436401367,-46.142574310302734,-0.923583984375,0.3326416015625,0.46923828125
2.627,400,2009,1753,1214,19.0,27.0,9.0,-23.803709030151367,53.527828216552734,-43.029781341552734,-1.2880859375,0.3326416015625,0.389404296875
2.637,382,2014,1789,1173,19.0,27.0,9.0,-57.495113372802734,62.561031341552734,-36.43798828125,-1.7845458984375,0.1973876953125,0.3319091796875
2.649,393,1838,1652,1055,23.0,24.0,7.0,-79.89501953125,57.067867279052734,-30.151365280151367,-1.984130859375,-0.0111083984375,0.28515625
2.658,375,1769,1713,1083,23.0,24.0,7.0,-74.951171875,45.104976654052734,-27.282712936401367,-1.82373046875,-0.1571044921875,0.272216796875
2.682,363,1697,1622,989,23.0,24.0,7.0,-49.743648529052734,30.639646530151367,-22.399900436401367,-1.5491943359375,-0.1458740234375,0.3013916015625
2.683,336,1669,1417,842,23.0,24.0,7.0,-32.04345703125,14.160155296325684,-8.4228515625,-1.31640625,-0.1097412109375,0.314453125
2.688,328,1383,1251,785,23.0,24.0,7.0,-28.869626998901367,-2.563476324081421,16.05224609375,-1.178955078125,-0.165771484375,0.24462890625
2.706,328,1263,1125,766,23.0,24.0,7.0,-27.038572311401367,-18.61572265625,47.363277435302734,-1.1275634765625,-0.25732421875,0.1300048828125
2.710,308,1283,1039,619,23.0,24.0,7.0,-19.287109375,-34.66796875,78.61328125,-1.1004638671875,-0.3526611328125,0.0477294921875
2.717,308,1243,855,666,23.0,24.0,7.0,-6.225585460662842,-49.194332122802734,103.21044158935547,-1.0595703125,-0.457275390625,0.0369873046875
2.726,302,1157,820,646,23.0,24.0,7.0,14.587401390075684,-57.189937591552734,117.43163299560547,-0.92236328125,-0.5020751953125,0.0845947265625
2.740,295,1129,714,561,23.0,24.0,7.0,47.729488372802734,-51.391597747802734,118.95751190185547,-0.61962890625,-0.43701171875,0.1773681640625
2.748,294,1064,765,625,20.0,29.0,8.0,94.97069549560547,-27.221677780151367,104.79735565185547,-0.2755126953125,-0.3319091796875,0.3212890625
2.756,296,1026,710,619,20.0,29.0,8.0,149.23095703125,12.329100608825684,72.81494140625,-0.072265625,-0.1854248046875,0.4083251953125
2.786,292,944,653,590,20.0,29.0,8.0,194.39695739746094,57.312007904052734,31.555173873901367,-0.0816650390625,0.16650390625,0.319091796875
2.786,292,977,678,605,20.0,29.0,8.0,216.43064880371094,90.20995330810547,-0.54931640625,-0.2435302734375,0.6923828125,0.1578369140625
2.786,298,998,678,617,20.0,29.0,8.0,200.43943786621094,94.48241424560547,-13.488768577575684,-0.3846435546875,1.105224609375,0.0711669921875
2.805,296,1029,642,601,20.0,29.0,8.0,139.404296875,72.57080078125,-11.291502952575684,-0.4537353515625,1.1873779296875,0.077880859375
2.809,294,1056,653,654,20.0,29.0,8.0,56.030269622802734,43.518062591552734,-3.601073980331421,-0.498779296875,0.918212890625,0.1175537109375
2.818,296,1101,645,628,20.0,29.0,8.0,-11.352538108825684,22.888181686401367,0.6713866591453552,-0.547607421875,0.46875,0.107666015625
2.829,292,1155,616,605,20.0,29.0,8.0,-39.6728515625,12.145995140075684,0.0,-0.6639404296875,0.1116943359375,0.052734375
2.838,289,1184,629,645,20.0,29.0,8.0,-35.70556640625,2.746581792831421,0.7324218153953552,-0.7613525390625,-0.076416015625,0.0413818359375
2.845,289,1236,625,639,18.0,29.0,9.0,-23.986814498901367,-9.09423828125,4.638671875,-0.7733154296875,-0.1397705078125,0.0833740234375
2.860,282,1276,582,620,18.0,29.0,9.0,-19.95849609375,-19.22607421875,7.446288585662842,-0.7801513671875,-0.0665283203125,0.158203125
2.867,286,1269,594,683,18.0,29.0,9.0,-25.695798873901367,-26.123044967651367,8.30078125,-0.7998046875,0.0751953125,0.2320556640625
2.888,281,1292,593,683,18.0,29.0,9.0,-36.07177734375,-31.860349655151367,9.33837890625,-0.791748046875,0.16455078125,0.2513427734375
2.889,279,1544,537,721,18.0,29.0,9.0,-43.945308685302734,-38.4521484375,9.6435546875,-0.7457275390625,0.14306640625,0.2347412109375
2.897,291,1501,574,715,18.0,29.0,9.0,-46.447750091552734,-45.837398529052734,6.652831554412842,-0.69384765625,0.072265625,0.202392578125
2.914,295,1580,571,725,18.0,29.0,9.0,-47.485347747802734,-51.818843841552734,-0.4882812201976776,-0.6058349609375,0.043212890625,0.1759033203125
2.919,292,1877,644,651,18.0,29.0,9.0,-52.551265716552734,-55.053707122802734,-13.000487327575684,-0.472900390625,0.1182861328125,0.1783447265625
2.928,300,1860,744,774,18.0,29.0,9.0,-68.115234375,-56.640621185302734,-32.04345703125,-0.3443603515625,0.22021484375,0.2005615234375
2.935,309,1826,799,882,18.0,29.0,9.0,-98.81591033935547,-56.335445404052734,-54.931636810302734,-0.235107421875,0.2325439453125,0.183349609375
2.950,334,1880,984,912,20.0,27.0,11.0,-138.18359375,-50.048824310302734,-73.66943359375,-0.26220703125,0.163330078125,0.090576171875
2.958,356,1854,1117,1131,20.0,27.0,11.0,-166.44285583496094,-38.2080078125,-78.79638671875,-0.5611572265625,0.0179443359375,0.0146484375
2.967,378,1902,1251,1191,20.0,27.0,11.0,-151.123046875,-24.719236373901367,-65.00244140625,-0.8941650390625,-0.00244140625,-0.0029296875
2.991,400,1985,1411,1173,20.0,27.0,11.0,-89.41649627685547,-13.183592796325684,-41.625972747802734,-1.003173828125,0.1871337890625,0.00830078125
2.992,421,1999,1627,973,20.0,27.0,11.0,-36.80419921875,-9.8876953125,-28.686521530151367,-0.945556640625,0.258056640625,0.088623046875
2.996,427,2100,1686,1390,20.0,27.0,11.0,-24.963376998901367,-14.404295921325684,-32.8369140625,-0.917236328125,0.1512451171875,0.2933349609375
3.018,433,2176,1691,1367,20.0,27.0,11.0,-27.282712936401367,-18.00537109375,-40.893550872802734,-1.083251953125,0.243896484375,0.5716552734375
3.019,433,2754,1816,1344,20.0,27.0,11.0,-34.912109375,-16.66259765625,-41.442867279052734,-1.4100341796875,0.468994140625,0.7637939453125
3.026,437,2340,1941,1424,20.0,27.0,11.0,-59.936519622802734,-13.000487327575684,-36.68212890625,-1.8194580078125,0.38232421875,0.80859375
3.040,424,2207,1874,1278,22.0,26.0,6.0,-82.15331268310547,-13.061522483825684,-31.188962936401367,-2.172119140625,-0.013427734375,0.7762451171875
3.047,441,2233,1980,1424,22.0,26.0,6.0,-73.486328125,-18.798828125,-25.024412155151367,-2.2646484375,-0.3917236328125,0.698486328125
3.056,430,2273,1952,1411,22.0,26.0,6.0,-73.486328125,-18.798828125,-25.024412155151367,-1.8507080078125,-0.5206298828125,0.5516357421875
3.070,430,2202,1880,1294,22.0,26.0,6.0,14.038084983825684,-21.667478561401367,-11.901854515075684,-1.1361083984375,-0.306640625,0.470947265625
3.092,423,2188,1914,1399,22.0,26.0,6.0,49.194332122802734,-8.36181640625,-10.437010765075684,-0.7620849609375,0.146240234375,0.5218505859375
3.094,423,2233,1922,1401,22.0,26.0,6.0,49.194332122802734,-8.36181640625,-10.437010765075684,-0.811279296875,0.471923828125,0.5262451171875
3.099,473,1878,1862,1529,22.0,26.0,6.0,-0.9765624403953552,40.893550872802734,-13.916014671325684,-1.1268310546875,0.49267578125,0.49365234375
3.107,473,1824,1878,1516,22.0,26.0,6.0,-37.7197265625,57.495113372802734,-20.324705123901367,-1.6348876953125,0.3262939453125,0.490234375
3.115,473,1791,1867,1497,22.0,26.0,6.0,-37.7197265625,57.495113372802734,-20.324705123901367,-1.9617919921875,0.0792236328125,0.458984375
3.130,465,1669,1759,1330,22.0,26.0,6.0,-76.0498046875,54.565425872802734,-27.648923873901367,-1.87841796875,-0.1302490234375,0.407958984375
3.138,466,1623,1792,1415,22.0,23.0,6.0,-63.049312591552734,44.799800872802734,-26.672361373901367,-1.5728759765625,-0.2208251953125,0.3677978515625
3.145,442,1552,1757,1370,22.0,23.0,6.0,-63.049312591552734,44.799800872802734,-26.672361373901367,-1.2904052734375,-0.2301025390625,0.3311767578125
3.162,402,1501,1559,1156,22.0,23.0,6.0,-30.456541061401367,27.954099655151367,-9.46044921875,-1.1312255859375,-0.1839599609375,0.3106689453125
3.168,372,1624,1582,1107,22.0,23.0,6.0,-26.062009811401367,15.319823265075684,9.09423828125,-1.04736328125,-0.1729736328125,0.2767333984375
3.175,359,1588,1447,1091,22.0,23.0,6.0,-26.062009811401367,15.319823265075684,9.09423828125,-0.995849609375,-0.2559814453125,0.1751708984375
3.194,323,1695,1199,782,22.0,23.0,6.0,-17.88330078125,-19.59228515625,56.579586029052734,-0.9727783203125,-0.3367919921875,0.041259765625
3.197,315,1629,1067,858,22.0,23.0,6.0,-1.5869139432907104,-34.97314453125,79.04052734375,-0.960205078125,-0.38916015625,-0.0343017578125
3.206,308,1652,998,772,22.0,23.0,6.0,-1.5869139432907104,-34.97314453125,79.04052734375,-0.9254150390625,-0.4031982421875,-0.006103515625
3.219,299,1583,778,697,22.0,23.0,6.0,49.255367279052734,-47.973628997802734,101.98973846435547,-0.8221435546875,-0.3521728515625,0.09375
3.231,299,1521,757,739,22.0,23.0,6.0,79.16259765625,-35.5224609375,98.75487518310547,-0.6201171875,-0.23681640625,0.202392578125
3.236,299,1497,698,706,20.0,25.0,4.0,79.16259765625,-35.5224609375,98.75487518310547,-0.392822265625,-0.1343994140625,0.2969970703125
3.250,294,1362,607,660,20.0,25.0,4.0,160.70555114746094,19.04296875,64.0869140625,-0.293212890625,-0.075927734375,0.3785400390625
3.258,296,1317,636,695,20.0,25.0,4.0,197.69285583496094,45.959468841552734,36.68212890625,-0.35400390625,0.0791015625,0.3621826171875
3.266,294,1236,607,694,20.0,25.0,4.0,197.69285583496094,45.959468841552734,36.68212890625,-0.35400390625,0.0791015625,0.3621826171875
3.299,286,1104,575,668,20.0,25.0,4.0,200.74461364746094,67.19970703125,13.122557640075684,-0.599853515625,0.794677734375,0.0517578125
3.299,286,1078,584,646,20.0,25.0,4.0,166.93113708496094,57.678218841552734,15.502928733825684,-0.599853515625,0.794677734375,0.0517578125
3.310,280,1067,569,599,20.0,25.0,4.0,62.255855560302734,20.568845748901367,20.935056686401367,-0.679931640625,0.5699462890625,0.1949462890625
3.318,286,1104,600,606,20.0,25.0,4.0,62.255855560302734,20.568845748901367,20.935056686401367,-0.7357177734375,0.3494873046875,0.2181396484375
3.326,287,1122,594,606,20.0,25.0,4.0,18.798828125,12.145995140075684,20.812986373901367,-0.7357177734375,0.3494873046875,0.2181396484375
3.340,282,1129,572,584,16.0,27.0,10.0,-11.657713890075684,4.94384765625,23.193357467651367,-0.8245849609375,0.1151123046875,0.20654296875
3.349,282,1112,588,642,16.0,27.0,10.0,-11.657713890075684,4.94384765625,23.193357467651367,-0.82470703125,0.07763671875,0.206787109375
3.355,278,1117,584,645,16.0,27.0,10.0,-12.512206077575684,-3.662109136581421,27.893064498901367,-0.82470703125,0.07763671875,0.206787109375
3.369,280,1202,582,574,16.0,27.0,10.0,-26.245115280151367,-21.911619186401367,38.330078125,-0.814453125,0.0736083984375,0.227294921875
3.378,279,1233,588,629,16.0,27.0,10.0,-26.245115280151367,-21.911619186401367,38.330078125,-0.82177734375,0.0550537109375,0.1717529296875
3.398,280,1251,586,668,16.0,27.0,10.0,-37.9638671875,-27.343748092651367,42.846675872802734,-0.82177734375,0.0550537109375,0.1717529296875
3.399,282,1323,562,679,16.0,27.0,10.0,-51.879878997802734,-36.865234375,52.429195404052734,-0.82861328125,0.0108642578125,-0.0103759765625
3.408,282,1411,590,689,16.0,27.0,10.0,-51.879878997802734,-36.865234375,52.429195404052734,-0.7930908203125,0.0511474609375,0.0369873046875
3.415,287,1456,601,731,16.0,27.0,10.0,-49.438472747802734,-43.884273529052734,53.833003997802734,-0.7930908203125,0.0511474609375,0.0369873046875
3.430,294,1643,587,669,17.0,29.0,7.0,-37.7197265625,-52.490230560302734,36.376953125,-0.585205078125,0.2928466796875,0.2281494140625
3.445,292,1744,657,731,17.0,29.0,7.0,-37.7197265625,-52.490230560302734,36.376953125,-0.3685302734375,0.397705078125,0.287353515625
3.446,300,1846,683,746,17.0,29.0,7.0,-42.541500091552734,-49.011226654052734,16.9677734375,-0.3685302734375,0.397705078125,0.287353515625
3.459,308,1959,765,797,17.0,29.0,7.0,-86.42577362060547,-31.249998092651367,-49.499507904052734,0.3896484375,0.093505859375,0.2071533203125
3.470,319,2050,951,933,17.0,29.0,7.0,-86.42577362060547,-31.249998092651367,-49.499507904052734,0.429931640625,-0.140869140625,0.2119140625
3.476,329,2247,1120,947,17.0,29.0,7.0,-86.48680877685547,-16.4794921875,-91.85790252685547,0.429931640625,-0.140869140625,0.2119140625
3.502,348,2344,1143,991,17.0,29.0,7.0,-43.945308685302734,-5.981444835662842,-117.98094940185547,-0.2701416015625,0.365966796875,0.6131591796875
3.502,375,2328,1228,1280,17.0,29.0,7.0,4.638671875,-1.8920897245407104,-115.35643768310547,-0.2701416015625,0.365966796875,0.6131591796875
3.506,382,2494,1216,1178,17.0,29.0,7.0,11.718749046325684,3.417968511581421,-88.13475799560547,-0.662841796875,0.9761962890625,0.6336669921875
3.521,373,2391,1545,1063,17.0,29.0,7.0,-27.709959030151367,8.7890625,-53.161617279052734,-1.424560546875,0.8651123046875,0.28173828125
3.528,371,2320,1744,1209,14.0,24.0,4.0,-88.07372283935547,2.868652105331421,-32.04345703125,-1.424560546875,0.8651123046875,0.28173828125
3.535,382,2292,1803,1248,14.0,24.0,4.0,-121.76512908935547,-11.291502952575684,-29.174802780151367,-2.0462646484375,-0.2318115234375,0.0718994140625
3.550,385,2287,1769,1130,14.0,24.0,4.0,-98.32762908935547,-22.583005905151367,-33.447265625,-2.762939453125,-0.765869140625,0.3883056640625
3.558,363,2417,1888,1170,14.0,24.0,4.0,-36.865234375,-33.26416015625,-31.066892623901367,-2.762939453125,-0.765869140625,0.3883056640625
3.565,375,2374,1757,1253,14.0,24.0,4.0,18.24951171875,-46.630855560302734,-13.000487327575684,-2.7486572265625,-0.250244140625,0.5816650390625
3.580,356,2580,1632,999,14.0,24.0,4.0,39.36767578125,-54.382320404052734,10.864256858825684,-0.9608154296875,-0.2716064453125,0.5325927734375
3.609,356,2527,1624,1163,14.0,24.0,4.0,52.856441497802734,-48.645015716552734,21.789548873901367,-0.9608154296875,-0.2716064453125,0.5325927734375
3.610,359,2652,1503,1173,14.0,24.0,4.0,62.011714935302734,-30.700681686401367,25.695798873901367,-0.639404296875,0.3399658203125,0.7415771484375
3.610,359,2364,1599,1082,14.0,24.0,4.0,34.3017578125,3.967284917831421,24.169919967651367,-1.21142578125,1.1544189453125,0.7625732421875
3.617,371,2202,1722,1201,14.0,24.0,4.0,-17.27294921875,46.569820404052734,7.934569835662842,-1.21142578125,1.1544189453125,0.7625732421875
3.626,372,2080,1730,1204,22.0,24.0,5.0,-65.24658203125,74.0966796875,-14.831542015075684,-1.694091796875,0.8431396484375,0.65771484375
3.639,378,1891,1681,1039,22.0,24.0,5.0,-90.57616424560547,82.39745330810547,-36.4990234375,-1.8226318359375,0.145751953125,0.553466796875
3.648,371,1786,1775,1125,22.0,24.0,5.0,-84.65575408935547,80.2001953125,-53.283687591552734,-1.8226318359375,0.145751953125,0.553466796875
3.657,371,1687,1741,1097,22.0,24.0,5.0,-64.27001953125,77.20947265625,-61.889644622802734,-1.6246337890625,0.0135498046875,0.5023193359375
3.671,361,1757,1596,1026,22.0,24.0,5.0,-47.485347747802734,78.79638671875,-62.866207122802734,-1.3370361328125,-0.04541015625,0.3897705078125
3.678,354,1490,1504,989,22.0,24.0,5.0,-38.75732421875,81.17675018310547,-56.274410247802734,-1.3370361328125,-0.04541015625,0.3897705078125
3.687,338,1427,1377,910,22.0,24.0,5.0,-38.0859375,76.2939453125,-41.015621185302734,-1.2335205078125,-0.1123046875,0.3284912109375
3.707,321,1202,1078,725,22.0,24.0,5.0,-38.51318359375,62.377925872802734,-18.798828125,-0.996337890625,-0.3934326171875,0.0037841796875
3.708,313,1239,949,654,22.0,24.0,5.0,-28.564451217651367,44.250484466552734,5.798339366912842,-0.996337890625,-0.3934326171875,0.0037841796875
3.716,316,1125,923,721,22.0,24.0,5.0,-5.065917491912842,26.916501998901367,28.137205123901367,-0.85009765625,-0.6068115234375,-0.1495361328125
3.730,301,1018,725,607,23.0,26.0,0.0,31.860349655151367,14.526366233825684,47.119136810302734,-0.7109375,-0.73681640625,-0.2169189453125
3.738,298,957,733,603,23.0,26.0,0.0,79.1015625,8.544921875,63.415523529052734,-0.5416259765625,-0.7027587890625,-0.202392578125
3.746,296,922,705,582,23.0,26.0,0.0,130.79833984375,10.620116233825684,75.0732421875,-0.3355712890625,-0.623291015625,-0.159912109375
3.763,292,832,654,540,23.0,26.0,0.0,181.94578552246094,22.094724655151367,77.880859375,-0.2213134765625,-0.544921875,-0.1290283203125
3.767,291,801,661,562,23.0,26.0,0.0,224.12107849121094,38.4521484375,71.35009765625,-0.2781982421875,-0.2867431640625,-0.0947265625
3.777,280,728,625,546,23.0,26.0,0.0,242.30955505371094,50.598140716552734,60.180660247802734,-0.3846435546875,0.17724609375,-0.0069580078125
3.790,279,667,563,509,23.0,26.0,0.0,222.47312927246094,50.964351654052734,47.851558685302734,-0.427734375,0.6295166015625,0.096923828125
3.810,279,702,562,543,23.0,26.0,0.0,167.54148864746094,39.97802734375,38.87939453125,-0.4056396484375,0.873291015625,0.1688232421875
3.811,279,736,563,567,23.0,26.0,0.0,100.28075408935547,24.841306686401367,36.19384765625,-0.4073486328125,0.91064453125,0.233642578125
3.819,280,815,559,548,17.0,28.0,12.0,44.677730560302734,11.108397483825684,37.4755859375,-0.515380859375,0.8607177734375,0.2890625
3.831,280,859,567,593,17.0,28.0,12.0,10.620116233825684,-1.0986328125,37.59765625,-0.6475830078125,0.705322265625,0.3013916015625
3.836,280,917,559,625,17.0,28.0,12.0,-2.746581792831421,-10.498045921325684,31.616209030151367,-0.722900390625,0.4716796875,0.2711181640625
3.849,280,1026,531,617,17.0,28.0,12.0,-6.042479991912842,-15.869139671325684,22.521970748901367,-0.7510986328125,0.3028564453125,0.2576904296875
3.858,281,1091,546,660,17.0,28.0,12.0,-12.573241233825684,-18.06640625,16.66259765625,-0.75244140625,0.25634765625,0.2745361328125
3.870,280,1149,542,673,17.0,28.0,12.0,-23.620603561401367,-18.12744140625,13.366698265075684,-0.75439453125,0.300048828125,0.280517578125
3.915,280,1202,521,620,17.0,28.0,12.0,-35.46142578125,-18.1884765625,10.192870140075684,-0.7666015625,0.3436279296875,0.25537109375
3.916,281,1216,539,691,17.0,28.0,12.0,-46.691890716552734,-21.484373092651367,7.080077648162842,-0.765625,0.30029296875,0.1646728515625
3.917,282,1292,521,673,17.0,28.0,12.0,-54.199214935302734,-27.587888717651367,5.676269054412842,-0.7520751953125,0.1878662109375,0.025634765625
3.919,289,1372,568,660,17.0,28.0,12.0,-56.701656341552734,-35.46142578125,6.896972179412842,-0.7388916015625,0.0887451171875,-0.0579833984375
3.919,296,1697,673,537,19.0,30.0,6.0,-60.668941497802734,-46.447750091552734,8.1787109375,-0.68017578125,0.032470703125,-0.0313720703125
3.927,299,1629,683,731,19.0,30.0,6.0,-72.1435546875,-57.922359466552734,4.33349609375,-0.547607421875,-0.007080078125,0.03662109375
3.935,302,1730,702,758,19.0,30.0,6.0,-87.40233612060547,-64.697265625,-7.202147960662842,-0.3526611328125,-0.0389404296875,0.0826416015625
3.949,310,1914,806,713,19.0,30.0,6.0,-97.71727752685547,-65.73486328125,-24.841306686401367,-0.086669921875,-0.018310546875,0.11083984375
3.958,316,2014,973,846,19.0,30.0,6.0,-99.60936737060547,-62.255855560302734,-47.363277435302734,0.14208984375,0.0010986328125,0.129150390625
3.966,324,2060,1029,959,19.0,30.0,6.0,-93.32274627685547,-53.955074310302734,-71.533203125,0.107666015625,-0.09619140625,0.207763671875
3.990,344,2203,1148,944,19.0,30.0,6.0,-67.56591796875,-40.466304779052734,-87.64647674560547,-0.2225341796875,-0.1407470703125,0.300537109375
3.991,354,2345,1345,1081,19.0,30.0,6.0,-14.160155296325684,-19.287109375,-90.69823455810547,-0.699951171875,0.0548095703125,0.25390625
3.994,362,2384,1429,1183,19.0,30.0,6.0,42.724605560302734,3.112792730331421,-83.25194549560547,-1.15771484375,0.42919921875,0.157958984375
4.015,376,2473,1502,1104,19.0,30.0,6.0,59.631343841552734,10.375975608825684,-68.54248046875,-1.5220947265625,0.7298583984375,0.1578369140625
4.017,382,2598,1913,1069,18.0,26.0,5.0,18.98193359375,0.1831054538488388,-51.940914154052734,-1.8507080078125,0.68896484375,0.25390625
4.025,371,2533,1875,1201,18.0,26.0,5.0,-42.846675872802734,-16.4794921875,-35.0341796875,-2.1695556640625,0.3349609375,0.4205322265625
4.038,386,2467,1791,1157,18.0,26.0,5.0,-80.56639862060547,-33.26416015625,-17.333984375,-2.3697509765625,-0.19921875,0.5885009765625
4.046,390,2489,1838,1330,18.0,26.0,5.0,-74.462890625,-46.630855560302734,-4.0283203125,-2.3603515625,-0.6019287109375,0.7042236328125
4.054,373,2590,1843,1243,18.0,26.0,5.0,-25.085447311401367,-52.001949310302734,3.662109136581421,-2.0263671875,-0.5413818359375,0.7545166015625
4.069,382,2557,1686,1117,18.0,26.0,5.0,40.588375091552734,-43.334957122802734,2.197265625,-1.3170166015625,-0.113525390625,0.75048828125
4.082,383,2445,1739,1303,18.0,26.0,5.0,87.89061737060547,-17.2119140625,-13.916014671325684,-0.7867431640625,0.474853515625,0.7271728515625
4.087,376,2473,1761,1292,18.0,26.0,5.0,87.89061737060547,-17.2119140625,-13.916014671325684,-0.79736328125,0.839599609375,0.654541015625
4.098,377,2337,1791,1074,18.0,26.0,5.0,31.188962936401367,55.175777435302734,-42.846675872802734,-1.1981201171875,0.736328125,0.5135498046875
4.116,373,2277,1927,1188,18.0,26.0,5.0,-32.53173828125,76.47705078125,-45.288082122802734,-1.7694091796875,0.4505615234375,0.3800048828125
4.117,383,2165,1931,1183,24.0,20.0,2.0,-32.53173828125,76.47705078125,-45.288082122802734,-2.057861328125,0.2042236328125,0.323974609375
4.128,382,2026,1852,1018,24.0,20.0,2.0,-93.50585174560547,73.42529296875,-46.752925872802734,-1.89990234375,0.0367431640625,0.3299560546875
4.204,387,1929,1918,1122,24.0,20.0,2.0,-80.26123046875,67.19970703125,-54.626461029052734,-1.5672607421875,-0.043701171875,0.3531494140625
4.205,382,1867,1891,1067,24.0,20.0,2.0,-80.26123046875,67.19970703125,-54.626461029052734,-1.2928466796875,-0.0870361328125,0.3656005859375
4.205,378,1666,1691,910,24.0,20.0,2.0,-50.476070404052734,63.598628997802734,-53.833003997802734,-1.12451171875,-0.10595703125,0.3685302734375
4.205,371,1531,1669,966,24.0,20.0,2.0,-46.020503997802734,56.640621185302734,-35.15625,-1.03076171875,-0.1351318359375,0.3245849609375
4.205,364,1450,1506,917,24.0,20.0,2.0,-46.020503997802734,56.640621185302734,-35.15625,-0.997314453125,-0.2181396484375,0.1943359375
4.205,354,1199,1189,735,24.0,20.0,2.0,-29.418943405151367,27.893064498901367,15.258788108825684,-0.9742431640625,-0.322998046875,0.0364990234375
4.205,344,1215,1118,799,24.0,20.0,2.0,-9.21630859375,13.916014671325684,34.72900390625,-0.92138671875,-0.4461669921875,-0.08447265625
4.219,328,1260,1067,737,24.0,20.0,2.0,-9.21630859375,13.916014671325684,34.72900390625,-0.87744140625,-0.54638671875,-0.14208984375
4.220,306,1138,897,695,22.0,29.0,5.0,43.090816497802734,-5.249022960662842,62.133785247802734,-0.8289794921875,-0.5233154296875,-0.1329345703125
4.226,302,1118,777,636,22.0,29.0,5.0,67.7490234375,-9.82666015625,75.3173828125,-0.726806640625,-0.4085693359375,-0.0625
4.238,299,1069,738,607,22.0,29.0,5.0,67.7490234375,-9.82666015625,75.3173828125,-0.5859375,-0.38720703125,0.034912109375
4.249,292,973,684,543,22.0,29.0,5.0,113.34227752685547,-6.896972179412842,92.10204315185547,-0.4788818359375,-0.4503173828125,0.0816650390625
4.256,292,907,705,553,22.0,29.0,5.0,139.46533203125,6.286620616912842,88.56200408935547,-0.4832763671875,-0.3460693359375,0.0496826171875
4.264,289,846,660,562,22.0,29.0,5.0,139.46533203125,6.286620616912842,88.56200408935547,-0.560546875,0.01318359375,0.020263671875
4.280,286,707,625,493,22.0,29.0,5.0,182.18992614746094,37.7197265625,65.36865234375,-0.619873046875,0.449462890625,0.0596923828125
4.296,286,673,625,465,22.0,29.0,5.0,170.53221130371094,36.92626953125,50.170894622802734,-0.616455078125,0.7423095703125,0.1226806640625
4.296,280,590,601,493,22.0,29.0,5.0,170.53221130371094,36.92626953125,50.170894622802734,-0.616455078125,0.7423095703125,0.1226806640625
4.322,279,548,585,487,18.0,28.0,10.0,86.97509002685547,15.197752952575684,36.80419921875,-0.5067138671875,0.7086181640625,0.1600341796875
4.322,280,551,598,513,18.0,28.0,10.0,86.97509002685547,15.197752952575684,36.80419921875,-0.5899658203125,0.586669921875,0.1705322265625
4.325,282,607,586,491,18.0,28.0,10.0,49.438472747802734,9.94873046875,36.9873046875,-0.5899658203125,0.586669921875,0.1705322265625
4.340,279,661,593,485,18.0,28.0,10.0,12.756346702575684,-3.540038824081421,36.19384765625,-0.6939697265625,0.2900390625,0.2222900390625
4.347,282,738,603,524,18.0,28.0,10.0,12.756346702575684,-3.540038824081421,36.19384765625,-0.7015380859375,0.1903076171875,0.18896484375
4.354,279,785,593,546,18.0,28.0,10.0,6.225585460662842,-12.817381858825684,32.3486328125,-0.7015380859375,0.1903076171875,0.18896484375
4.369,279,897,578,525,18.0,28.0,10.0,-21.850584030151367,-25.451658248901367,32.1044921875,-0.7501220703125,0.2232666015625,0.2191162109375
4.377,279,968,578,588,18.0,28.0,10.0,-21.850584030151367,-25.451658248901367,32.1044921875,-0.737548828125,0.285400390625,0.264404296875
4.385,280,1063,579,596,18.0,28.0,10.0,-37.9638671875,-27.893064498901367,32.5927734375,-0.737548828125,0.285400390625,0.264404296875
4.398,279,1129,551,601,18.0,28.0,10.0,-57.495113372802734,-27.099607467651367,21.789548873901367,-0.7457275390625,0.2808837890625,0.2177734375
4.427,280,1201,571,644,18.0,31.0,5.0,-57.495113372802734,-27.099607467651367,21.789548873901367,-0.7608642578125,0.2322998046875,0.098388671875
4.428,280,1251,564,689,18.0,31.0,5.0,-60.913082122802734,-26.245115280151367,12.451170921325684,-0.7608642578125,0.2322998046875,0.098388671875
4.429,280,1656,738,639,18.0,31.0,5.0,-61.828609466552734,-29.296873092651367,-9.033203125,-0.751953125,0.2105712890625,-0.012451171875
4.437,294,1504,659,694,18.0,31.0,5.0,-61.828609466552734,-29.296873092651367,-9.033203125,-0.7069091796875,0.2662353515625,0.0469970703125
4.446,296,1572,679,697,18.0,31.0,5.0,-63.232418060302734,-36.2548828125,-20.141599655151367,-0.7069091796875,0.2662353515625,0.0469970703125
4.458,302,1682,702,707,18.0,31.0,5.0,-90.27098846435547,-43.762203216552734,-45.532222747802734,-0.4293212890625,0.1622314453125,0.176513671875
4.468,306,1828,816,778,18.0,31.0,5.0,-90.27098846435547,-43.762203216552734,-45.532222747802734,-0.137939453125,-0.0318603515625,0.1903076171875
4.474,318,1816,806,917,18.0,31.0,5.0,-106.44530487060547,-35.46142578125,-57.861324310302734,-0.137939453125,-0.0318603515625,0.1903076171875
4.489,328,2024,1069,947,18.0,31.0,5.0,-74.15771484375,-22.644041061401367,-80.32225799560547,0.377685546875,-0.3067626953125,0.2086181640625
4.496,338,2087,1101,1067,18.0,31.0,5.0,-74.15771484375,-22.644041061401367,-80.32225799560547,0.1883544921875,-0.3294677734375,0.3558349609375
4.528,356,2190,1231,1173,18.0,31.0,5.0,-29.907224655151367,-26.916501998901367,-90.27098846435547,0.1883544921875,-0.3294677734375,0.3558349609375
4.528,338,2581,1323,794,20.0,25.0,5.0,15.686034202575684,-31.677244186401367,-87.70751190185547,-1.047607421875,0.216552734375,0.6007080078125
4.528,364,2580,1529,1249,20.0,25.0,5.0,38.57421875,-26.672361373901367,-68.7255859375,-1.047607421875,0.216552734375,0.6007080078125
4.534,368,2627,1638,1271,20.0,25.0,5.0,30.334470748901367,-10.253905296325684,-39.12353515625,-1.86572265625,0.6424560546875,0.326904296875
4.549,371,2710,1665,1120,20.0,25.0,5.0,7.141112804412842,1.7089842557907104,-12.451170921325684,-2.4967041015625,0.37158203125,0.0950927734375
4.556,372,2736,1849,1223,20.0,25.0,5.0,-11.596678733825684,-5.920409679412842,-4.150390625,-2.4967041015625,0.37158203125,0.0950927734375
4.564,378,2648,1828,1335,20.0,25.0,5.0,-17.9443359375,-25.695798873901367,-12.084959983825684,-2.42626953125,-0.0609130859375,0.44384765625
4.578,369,2778,1651,1132,20.0,25.0,5.0,-9.33837890625,-39.48974609375,-19.59228515625,-2.023193359375,-0.345458984375,0.649658203125
4.587,375,2746,1713,1336,20.0,25.0,5.0,12.390135765075684,-41.748043060302734,-16.2353515625,-2.023193359375,-0.345458984375,0.649658203125
4.595,369,2792,1757,1258,20.0,25.0,5.0,46.752925872802734,-33.5693359375,-11.962889671325684,-1.22998046875,-0.17919921875,0.4791259765625
4.629,385,2601,1616,1175,21.0,23.0,10.0,70.86181640625,-17.51708984375,-11.108397483825684,-0.8704833984375,0.919677734375,0.5074462890625
4.630,390,2497,1773,1348,21.0,23.0,10.0,41.564937591552734,5.615233898162842,-9.46044921875,-0.8704833984375,0.919677734375,0.5074462890625
4.630,383,2770,1722,1239,21.0,23.0,10.0,-22.827146530151367,32.8369140625,-16.9677734375,-1.20361328125,0.871826171875,0.490478515625
4.638,382,2271,1867,1070,21.0,23.0,10.0,-73.30322265625,52.856441497802734,-33.50830078125,-1.8460693359375,0.211669921875,0.527587890625
4.647,390,2165,1914,1204,21.0,23.0,10.0,-98.26659393310547,62.499996185302734,-49.438472747802734,-1.8460693359375,0.211669921875,0.527587890625
4.655,411,2053,1883,1185,21.0,23.0,10.0,-101.31835174560547,67.81005859375,-61.889644622802734,-1.804443359375,0.0302734375,0.545654296875
4.668,402,1882,1787,1039,21.0,23.0,10.0,-92.59032440185547,73.18115234375,-69.64111328125,-1.41162109375,-0.1761474609375,0.380615234375
4.677,404,1743,1850,1170,21.0,23.0,10.0,-80.81053924560547,79.7119140625,-71.35009765625,-1.41162109375,-0.1761474609375,0.380615234375
4.686,383,1652,1798,1085,21.0,23.0,10.0,-66.650390625,82.82469940185547,-63.354488372802734,-1.31005859375,-0.2044677734375,0.2828369140625
4.700,351,1478,1590,853,21.0,23.0,10.0,-53.710933685302734,75.01220703125,-43.090816497802734,-1.2254638671875,-0.2569580078125,0.1209716796875
4.707,347,1386,1456,887,25.0,24.0,3.0,-47.668453216552734,54.016109466552734,-14.465331077575684,-1.2254638671875,-0.2569580078125,0.1209716796875
4.735,344,1173,1294,834,25.0,24.0,3.0,-41.198726654052734,28.198240280151367,15.624999046325684,-1.14697265625,-0.4180908203125,0.005615234375
4.735,327,1156,1048,578,25.0,24.0,3.0,-22.644041061401367,6.469726085662842,42.907711029052734,-0.9073486328125,-0.6966552734375,-0.1326904296875
4.737,323,1160,909,575,25.0,24.0,3.0,7.446288585662842,-7.690429210662842,64.94140625,-0.9073486328125,-0.6966552734375,-0.1326904296875
4.744,302,1074,871,631,25.0,24.0,3.0,43.090816497802734,-13.671874046325684,82.09227752685547,-0.8199462890625,-0.6552734375,-0.1517333984375
4.758,294,906,710,568,25.0,24.0,3.0,78.79638671875,-13.061522483825684,96.55760955810547,-0.6585693359375,-0.5096435546875,-0.1385498046875
4.767,292,793,713,561,25.0,24.0,3.0,114.44091033935547,-7.995604991912842,106.26219940185547,-0.4486083984375,-0.4605712890625,-0.0992431640625
4.775,283,653,684,512,25.0,24.0,3.0,150.146484375,0.9765624403953552,106.14012908935547,-0.339111328125,-0.454345703125,-0.104736328125
4.788,280,512,621,462,25.0,24.0,3.0,180.23680114746094,13.793944358825684,97.16796112060547,-0.3614501953125,-0.2130126953125,-0.1363525390625
4.797,279,478,594,466,25.0,24.0,3.0,196.83836364746094,27.832029342651367,82.27538299560547,-0.4407958984375,0.2840576171875,-0.059814453125
4.804,277,494,598,473,19.0,26.0,10.0,188.72068786621094,36.2548828125,61.828609466552734,-0.4945068359375,0.7894287109375,0.1163330078125
4.835,279,521,588,462,19.0,26.0,10.0,148.3154296875,35.82763671875,40.771480560302734,-0.5335693359375,1.0172119140625,0.24609375
4.842,279,533,591,482,19.0,26.0,10.0,88.25682830810547,33.38623046875,20.935056686401367,-0.5640869140625,0.8466796875,0.2196044921875
4.843,279,537,601,484,19.0,26.0,10.0,44.616695404052734,39.00146484375,1.3427733182907104,-0.5364990234375,0.5093994140625,0.094970703125
4.849,277,548,588,468,19.0,26.0,10.0,43.518062591552734,48.278804779052734,-9.58251953125,-0.474365234375,0.3076171875,0.054443359375
4.857,279,539,601,485,19.0,26.0,10.0,68.359375,45.532222747802734,-7.568358898162842,-0.4144287109375,0.25146484375,0.11083984375
4.864,277,555,614,493,19.0,26.0,10.0,85.20507049560547,29.113767623901367,-0.6103515625,-0.413818359375,0.2298583984375,0.1453857421875
4.879,280,644,604,500,19.0,26.0,10.0,76.416015625,11.352538108825684,4.8828125,-0.5263671875,0.200927734375,0.18505859375
4.888,279,754,606,553,19.0,26.0,10.0,47.546382904052734,-1.15966796875,9.21630859375,-0.6748046875,0.193603515625,0.3087158203125
4.896,279,853,593,579,19.0,26.0,10.0,16.9677734375,-9.33837890625,13.366698265075684,-0.747802734375,0.270263671875,0.4530029296875
4.908,279,978,569,577,17.0,29.0,6.0,-7.690429210662842,-14.343260765075684,14.953612327575684,-0.7529296875,0.4010009765625,0.516357421875
4.917,277,1056,568,619,17.0,29.0,6.0,-31.372068405151367,-18.06640625,11.535643577575684,-0.762939453125,0.428955078125,0.4677734375
4.939,280,1091,572,625,17.0,29.0,6.0,-52.673336029052734,-23.498533248901367,5.554198741912842,-0.829345703125,0.3028564453125,0.2830810546875
4.939,279,1372,530,656,17.0,29.0,6.0,-63.293453216552734,-31.066892623901367,2.01416015625,-0.930908203125,0.1611328125,-0.00146484375
4.947,280,1313,584,682,17.0,29.0,6.0,-61.645503997802734,-41.015621185302734,2.563476324081421,-0.9703369140625,0.089599609375,-0.2080078125
4.955,290,1377,598,682,17.0,29.0,6.0,-55.725093841552734,-54.992671966552734,2.807616949081421,-0.8809814453125,0.0806884765625,-0.1845703125
4.968,296,1509,601,631,17.0,29.0,6.0,-52.917476654052734,-69.82421875,-4.39453125,-0.703857421875,0.083984375,0.0030517578125
4.977,294,1627,689,747,17.0,29.0,6.0,-54.809566497802734,-75.62255859375,-21.240232467651367,-0.521728515625,0.046142578125,0.1417236328125
4.985,302,1711,802,784,17.0,29.0,6.0,-59.997554779052734,-68.66455078125,-42.114253997802734,-0.3502197265625,-0.0098876953125,0.157958984375
5.000,322,1837,900,799,22.0,26.0,7.0,-62.805171966552734,-57.434078216552734,-61.401363372802734,-0.1427001953125,-0.0196533203125,0.109619140625
5.007,321,1945,1012,978,22.0,26.0,7.0,-61.889644622802734,-46.752925872802734,-79.40673828125,0.0169677734375,-0.01611328125,0.070068359375
5.014,363,1816,1143,1131,22.0,26.0,7.0,-68.2373046875,-34.85107421875,-95.88622283935547,-0.088134765625,-0.063720703125,0.0863037109375
5.042,428,1914,1331,1233,22.0,26.0,7.0,-78.06396484375,-21.545408248901367,-102.05077362060547,-0.447021484375,-0.09619140625,0.1279296875
5.043,465,1935,1483,1480,22.0,26.0,7.0,-67.138671875,-6.835937023162842,-92.52928924560547,-0.8765869140625,0.0888671875,0.0943603515625
5.045,468,2281,1440,1514,22.0,26.0,7.0,-39.6728515625,5.798339366912842,-73.73046875,-1.3045654296875,0.5650634765625,0.0384521484375
5.059,508,1943,1627,1470,22.0,26.0,7.0,-35.0341796875,6.530761241912842,-55.541988372802734,-1.68701171875,0.953857421875,0.1146240234375
5.068,509,1896,1750,1596,22.0,26.0,7.0,-73.18115234375,-5.065917491912842,-46.386714935302734,-2.0169677734375,0.77197265625,0.315185546875
5.075,514,1874,1830,1607,22.0,26.0,7.0,-123.84032440185547,-17.822265625,-46.874996185302734,-2.277587890625,0.017578125,0.5733642578125
5.088,495,1967,1794,1401,22.0,26.0,7.0,-136.474609375,-26.672361373901367,-50.537105560302734,-2.4173583984375,-0.7657470703125,0.7930908203125
5.097,466,2060,1888,1487,24.0,20.0,3.0,-89.53856658935547,-30.761716842651367,-47.729488372802734,-2.324951171875,-0.988037109375,0.795654296875
5.107,438,2085,1892,1443,24.0,20.0,3.0,-13.122557640075684,-30.212400436401367,-32.470703125,-1.650146484375,-0.6690673828125,0.6268310546875
5.119,427,2037,1782,1280,24.0,20.0,3.0,54.199214935302734,-24.902341842651367,-13.366698265075684,-0.883544921875,-0.21728515625,0.51416015625
5.148,430,2012,1874,1416,24.0,20.0,3.0,76.5380859375,-12.695311546325684,3.173827886581421,-0.7843017578125,0.072509765625,0.4290771484375
5.148,441,2106,1757,1395,24.0,20.0,3.0,44.250484466552734,3.967284917831421,17.822265625,-1.2578125,0.164794921875,0.3006591796875
5.148,437,1864,1869,1318,24.0,20.0,3.0,-2.990722417831421,16.05224609375,27.465818405151367,-1.8997802734375,0.177734375,0.2109375
5.157,437,1803,1877,1402,24.0,20.0,3.0,-37.2314453125,18.5546875,28.686521530151367,-2.2005615234375,0.1507568359375,0.220458984375
5.165,430,1750,1850,1357,24.0,20.0,3.0,-53.405757904052734,14.282225608825684,22.033689498901367,-2.0015869140625,0.0955810546875,0.2955322265625
5.181,430,1637,1695,1178,24.0,20.0,3.0,-52.429195404052734,7.934569835662842,14.160155296325684,-1.5706787109375,0.0343017578125,0.362060546875
5.186,419,1572,1730,1260,24.0,20.0,3.0,-43.457027435302734,3.784179449081421,12.390135765075684,-1.2279052734375,-0.0240478515625,0.373779296875
5.195,401,1529,1676,1195,23.0,26.0,1.0,-34.0576171875,2.25830078125,20.01953125,-1.090087890625,-0.0408935546875,0.36279296875
5.211,369,1456,1441,1010,23.0,26.0,1.0,-28.686521530151367,-1.03759765625,35.15625,-1.0618896484375,0.0009765625,0.35205078125
5.217,347,1588,1397,936,23.0,26.0,1.0,-30.334470748901367,-7.995604991912842,52.368160247802734,-1.034423828125,0.0023193359375,0.2998046875
5.225,334,1483,1243,897,23.0,26.0,1.0,-30.334470748901367,-7.995604991912842,52.368160247802734,-0.9720458984375,-0.076171875,0.18994140625
5.243,324,1370,978,722,23.0,26.0,1.0,-22.338865280151367,-16.11328125,74.5849609375,-0.871337890625,-0.2066650390625,0.0966796875
5.254,318,1283,947,739,23.0,26.0,1.0,2.197265625,-11.352538108825684,73.54736328125,-0.7196044921875,-0.3167724609375,0.0765380859375
5.254,316,1122,867,723,23.0,26.0,1.0,2.197265625,-11.352538108825684,73.54736328125,-0.5419921875,-0.3287353515625,0.1458740234375
5.268,308,1129,748,644,23.0,26.0,1.0,84.22850799560547,24.414060592651367,51.452632904052734,-0.39306640625,-0.31103515625,0.26513671875
5.276,302,1079,731,706,23.0,26.0,1.0,125.61034393310547,47.180171966552734,37.353515625,-0.343017578125,-0.304443359375,0.334716796875
5.284,294,1076,695,675,23.0,26.0,1.0,125.61034393310547,47.180171966552734,37.353515625,-0.41552734375,-0.22216796875,0.3040771484375
5.300,291,1014,617,625,21.0,23.0,8.0,169.55564880371094,74.0966796875,19.775390625,-0.5135498046875,-0.0169677734375,0.2064208984375
5.308,286,971,621,653,21.0,23.0,8.0,165.16111755371094,71.47216796875,20.935056686401367,-0.560791015625,0.2435302734375,0.1201171875
5.315,289,992,588,614,21.0,23.0,8.0,165.16111755371094,71.47216796875,20.935056686401367,-0.561279296875,0.456787109375,0.089599609375
5.346,282,959,575,603,21.0,23.0,8.0,114.50194549560547,38.0859375,31.616209030151367,-0.5386962890625,0.5269775390625,0.0887451171875
5.346,286,962,594,653,21.0,23.0,8.0,76.96533203125,21.301267623901367,35.888671875,-0.5513916015625,0.4561767578125,0.0640869140625
5.347,280,996,591,654,21.0,23.0,8.0,76.96533203125,21.301267623901367,35.888671875,-0.6651611328125,0.333984375,0.03564453125
5.361,280,1091,574,588,21.0,23.0,8.0,34.36279296875,3.417968511581421,38.87939453125,-0.828857421875,0.206298828125,0.047119140625
5.368,280,1120,594,594,21.0,23.0,8.0,28.503416061401367,-4.69970703125,39.12353515625,-0.93408203125,0.1278076171875,0.0963134765625
5.375,280,1209,607,586,21.0,23.0,8.0,28.503416061401367,-4.69970703125,39.12353515625,-0.927734375,0.151123046875,0.146240234375
5.388,282,1234,579,547,18.0,25.0,9.0,21.179197311401367,-17.39501953125,35.7666015625,-0.865966796875,0.254638671875,0.155517578125
5.398,280,1236,594,606,18.0,25.0,9.0,9.33837890625,-18.12744140625,28.869626998901367,-0.8223876953125,0.3419189453125,0.1353759765625
5.407,280,1313,603,586,18.0,25.0,9.0,9.33837890625,-18.12744140625,28.869626998901367,-0.810546875,0.3345947265625,0.1114501953125
5.418,280,1287,593,644,18.0,25.0,9.0,-27.160642623901367,-16.2353515625,12.512206077575684,-0.8223876953125,0.2667236328125,0.074951171875
5.426,280,1317,588,646,18.0,25.0,9.0,-36.31591796875,-18.798828125,9.33837890625,-0.8431396484375,0.20654296875,0.034423828125
5.447,282,1379,614,631,18.0,25.0,9.0,-36.31591796875,-18.798828125,9.33837890625,-0.8431396484375,0.20654296875,0.034423828125
5.450,289,1409,675,667,18.0,25.0,9.0,-41.564937591552734,-33.935546875,12.023924827575684,-0.82421875,0.1533203125,0.0211181640625
5.456,292,1409,624,731,18.0,25.0,9.0,-41.564937591552734,-33.935546875,12.023924827575684,-0.763671875,0.15380859375,0.0645751953125
5.467,294,1452,657,750,18.0,25.0,9.0,-46.936031341552734,-43.395992279052734,11.352538108825684,-0.763671875,0.15380859375,0.0645751953125
5.479,302,1533,713,746,18.0,25.0,9.0,-64.453125,-52.124019622802734,-7.690429210662842,-0.4329833984375,0.1673583984375,0.1783447265625
5.487,306,1582,782,853,17.0,28.0,9.0,-64.453125,-52.124019622802734,-7.690429210662842,-0.10986328125,0.095703125,0.168701171875
5.494,316,1643,883,894,17.0,28.0,9.0,-72.8759765625,-48.156734466552734,-25.512693405151367,-0.10986328125,0.095703125,0.168701171875
5.508,334,1899,1010,820,17.0,28.0,9.0,-64.453125,-33.75244140625,-75.62255859375,0.0780029296875,-0.1842041015625,0.0228271484375
5.519,344,2026,1213,1004,17.0,28.0,9.0,-64.453125,-33.75244140625,-75.62255859375,-0.2386474609375,-0.1199951171875,0.1461181640625
5.525,403,1796,1228,1279,17.0,28.0,9.0,-37.4755859375,-26.550291061401367,-90.33202362060547,-0.2386474609375,-0.1199951171875,0.1461181640625
5.550,473,1911,1239,1393,17.0,28.0,9.0,6.408690929412842,-5.249022960662842,-70.86181640625,-0.6429443359375,0.3187255859375,0.4329833984375
5.550,419,2151,1260,1483,17.0,28.0,9.0,6.408690929412842,-5.249022960662842,-70.86181640625,-0.8494873046875,0.7593994140625,0.5562744140625
5.554,497,2030,1428,1652,17.0,28.0,9.0,-2.0751953125,-1.3427733182907104,-52.673336029052734,-0.8494873046875,0.7593994140625,0.5562744140625
5.569,497,2078,1545,1404,17.0,28.0,9.0,-61.767574310302734,-18.798828125,-36.31591796875,-1.1922607421875,0.9423828125,0.6451416015625
5.578,430,2243,1759,1460,17.0,28.0,9.0,-61.767574310302734,-18.798828125,-36.31591796875,-1.8314208984375,0.330810546875,0.5120849609375
5.584,428,2102,1848,1447,20.0,21.0,6.0,-83.00780487060547,-19.775390625,-40.527339935302734,-1.8314208984375,0.330810546875,0.5120849609375
5.598,419,2178,1798,1243,20.0,21.0,6.0,-66.650390625,-9.94873046875,-39.00146484375,-3.133056640625,-0.84375,0.4324951171875
5.607,409,2258,1891,1380,20.0,21.0,6.0,-66.650390625,-9.94873046875,-39.00146484375,-2.6444091796875,-0.643798828125,0.388916015625
5.615,411,2240,1892,1303,20.0,21.0,6.0,-12.207030296325684,-9.27734375,-39.9169921875,-2.6444091796875,-0.643798828125,0.388916015625
5.631,420,2144,1761,1253,20.0,21.0,6.0,82.33641815185547,9.033203125,-49.926753997802734,-0.72119140625,0.161865234375,0.4700927734375
5.651,437,2030,1830,1447,20.0,21.0,6.0,82.33641815185547,9.033203125,-49.926753997802734,-0.96630859375,0.2337646484375,0.4586181640625
5.653,473,1925,1785,1506,20.0,21.0,6.0,47.973628997802734,26.611326217651367,-33.203125,-0.96630859375,0.2337646484375,0.4586181640625
5.659,484,1735,1781,1362,20.0,21.0,6.0,-17.822265625,42.602535247802734,-5.798339366912842,-2.0809326171875,0.196533203125,0.2994384765625
5.666,482,1656,1808,1452,20.0,21.0,6.0,-57.617183685302734,46.447750091552734,11.962889671325684,-2.0809326171875,0.196533203125,0.2994384765625
5.685,486,1551,1786,1439,20.0,21.0,6.0,-75.98876953125,40.405269622802734,14.526366233825684,-2.1107177734375,0.201904296875,0.3592529296875
5.688,480,1435,1739,1386,22.0,23.0,4.0,-86.54784393310547,35.0341796875,9.46044921875,-1.543212890625,0.0443115234375,0.3336181640625
5.697,470,1372,1637,1331,22.0,23.0,4.0,-89.29442596435547,33.0810546875,6.835937023162842,-1.543212890625,0.0443115234375,0.3336181640625
5.705,454,1316,1572,1266,22.0,23.0,4.0,-84.41161346435547,31.188962936401367,12.512206077575684,-1.3663330078125,-0.025390625,0.28857421875
5.718,406,1278,1306,1050,22.0,23.0,4.0,-76.72119140625,26.062009811401367,27.343748092651367,-1.158447265625,-0.0167236328125,0.249267578125
5.727,385,1239,1173,1039,22.0,23.0,4.0,-70.068359375,17.08984375,46.386714935302734,-1.158447265625,-0.0167236328125,0.249267578125
5.734,352,1189,1043,944,22.0,23.0,4.0,-59.143062591552734,8.544921875,62.622066497802734,-1.0130615234375,-0.1591796875,0.189208984375
5.757,319,1050,844,707,22.0,23.0,4.0,-35.400390625,4.94384765625,71.83837890625,-0.68505859375,-0.578125,0.0234375
5.757,306,1045,784,679,22.0,23.0,4.0,2.13623046875,7.080077648162842,75.01220703125,-0.68505859375,-0.578125,0.0234375
5.765,299,938,714,689,22.0,23.0,4.0,54.626461029052734,15.441893577575684,75.86669921875,-0.4715576171875,-0.70068359375,0.0367431640625
5.778,294,765,657,590,22.0,23.0,4.0,121.33788299560547,30.883787155151367,73.05908203125,-0.1180419921875,-0.6524658203125,0.2235107421875
5.786,286,669,661,586,20.0,27.0,1.0,186.82859802246094,50.781246185302734,61.401363372802734,-0.1180419921875,-0.6524658203125,0.2235107421875
5.794,279,617,653,523,20.0,27.0,1.0,224.12107849121094,68.17626953125,42.846675872802734,-0.1854248046875,-0.274169921875,0.2510986328125
5.809,282,630,614,456,20.0,27.0,1.0,223.69383239746094,75.927734375,26.184080123901367,-0.37158203125,0.626953125,0.2008056640625
5.818,282,666,625,484,20.0,27.0,1.0,200.13426208496094,69.82421875,18.5546875,-0.37158203125,0.626953125,0.2008056640625
5.825,286,728,621,497,20.0,27.0,1.0,166.32078552246094,52.307125091552734,21.728513717651367,-0.3570556640625,0.8013916015625,0.138916015625
5.838,280,813,599,499,20.0,27.0,1.0,124.14550018310547,31.494138717651367,31.433103561401367,-0.51513671875,0.63916015625,-0.1019287109375
5.860,280,907,614,546,20.0,27.0,1.0,78.55224609375,15.075682640075684,39.1845703125,-0.51513671875,0.63916015625,-0.1019287109375
5.861,280,980,604,572,20.0,27.0,1.0,46.752925872802734,4.82177734375,38.4521484375,-0.6905517578125,0.4288330078125,-0.1925048828125
5.868,280,1125,579,564,20.0,27.0,1.0,36.56005859375,-4.45556640625,30.639646530151367,-0.7789306640625,0.2418212890625,-0.0684814453125
5.877,280,1202,571,617,20.0,27.0,1.0,31.738279342651367,-15.686034202575684,21.728513717651367,-0.7789306640625,0.2418212890625,-0.0684814453125
5.884,280,1264,572,625,20.0,31.0,4.0,15.014647483825684,-24.047849655151367,15.319823265075684,-0.7532958984375,0.346435546875,0.0369873046875
5.898,282,1357,555,572,20.0,31.0,4.0,-15.136717796325684,-26.916501998901367,9.94873046875,-0.75,0.4595947265625,0.11865234375
5.906,279,1372,578,642,20.0,31.0,4.0,-49.011226654052734,-29.541013717651367,4.8828125,-0.7908935546875,0.4495849609375,0.156982421875
5.915,282,1411,600,653,20.0,31.0,4.0,-74.40185546875,-36.62109375,2.563476324081421,-0.814453125,0.30224609375,0.1383056640625
5.928,291,1540,620,603,20.0,31.0,4.0,-85.02196502685547,-45.349117279052734,3.417968511581421,-0.7906494140625,0.138671875,0.088134765625
5.936,291,1561,644,706,20.0,31.0,4.0,-88.19579315185547,-52.795406341552734,4.150390625,-0.7432861328125,0.05322265625,0.069091796875
5.960,300,1506,653,813,20.0,31.0,4.0,-95.33690643310547,-59.082027435302734,0.3662109076976776,-0.7008056640625,0.0196533203125,0.0537109375
5.960,306,1637,738,785,20.0,31.0,4.0,-109.49706268310547,-61.645503997802734,-8.23974609375,-0.7159423828125,-0.039794921875,0.0057373046875
5.969,311,1704,762,891,20.0,31.0,4.0,-123.04686737060547,-57.678218841552734,-16.29638671875,-0.80859375,-0.1226806640625,0.0010986328125
5.976,315,1742,788,907,20.0,31.0,4.0,-124.32860565185547,-49.499507904052734,-18.4326171875,-0.9122314453125,-0.141357421875,0.0745849609375
5.988,324,1805,800,907,20.0,28.0,10.0,-108.39842987060547,-40.710445404052734,-14.892577171325684,-0.939208984375,-0.11376953125,0.194580078125
6.000,322,1970,910,951,20.0,28.0,10.0,-75.8056640625,-34.48486328125,-10.375975608825684,-0.8951416015625,-0.0872802734375,0.2982177734375
6.004,324,1967,895,1051,20.0,28.0,10.0,-32.2265625,-33.447265625,-8.60595703125,-0.830322265625,-0.05712890625,0.369140625
6.018,344,2122,906,1012,20.0,28.0,10.0,10.314940452575684,-36.80419921875,-10.375975608825684,-0.72021484375,-0.034912109375,0.4287109375
6.029,355,2223,996,1167,20.0,28.0,10.0,44.494625091552734,-41.992183685302734,-15.563963890075684,-0.6220703125,-0.0155029296875,0.4686279296875
6.034,354,2421,1043,1198,20.0,28.0,10.0,72.57080078125,-45.349117279052734,-22.705076217651367,-0.5745849609375,0.05126953125,0.497802734375
6.062,348,2631,1050,1093,20.0,28.0,10.0,101.44042205810547,-41.015621185302734,-30.578611373901367,-0.563232421875,0.318359375,0.4114990234375
6.062,354,2757,1209,1202,20.0,28.0,10.0,128.41796875,-26.428220748901367,-37.7197265625,-0.643310546875,0.844482421875,0.2088623046875
6.065,359,2840,1313,1271,20.0,28.0,10.0,123.96239471435547,-12.084959983825684,-43.273921966552734,-0.700927734375,1.1522216796875,0.0848388671875
6.082,363,2939,1395,1134,20.0,27.0,8.0,68.603515625,-6.225585460662842,-52.246089935302734,-0.819091796875,0.8818359375,0.068603515625
6.087,359,2943,1600,1282,20.0,27.0,8.0,-6.469726085662842,-2.25830078125,-60.852046966552734,-1.2119140625,0.5059814453125,0.086669921875
6.095,364,2934,1711,1276,20.0,27.0,8.0,-66.22314453125,1.5869139432907104,-56.457515716552734,-1.7447509765625,0.3143310546875,0.1392822265625
6.108,376,2832,1650,1172,20.0,27.0,8.0,-106.01805877685547,-1.0986328125,-43.457027435302734,-2.102294921875,0.080322265625,0.3028564453125
6.118,376,2820,1770,1323,20.0,27.0,8.0,-121.70409393310547,-9.21630859375,-35.82763671875,-2.1343994140625,-0.239990234375,0.541748046875
6.125,371,2785,1770,1320,20.0,27.0,8.0,-102.23387908935547,-14.099120140075684,-34.7900390625,-1.9532470703125,-0.44287109375,0.6640625
6.138,371,2713,1610,1199,20.0,27.0,8.0,-54.138179779052734,-11.596678733825684,-32.5927734375,-1.4788818359375,-0.406982421875,0.6417236328125
6.152,383,2658,1716,1365,20.0,27.0,8.0,0.4272460639476776,-3.784179449081421,-30.822751998901367,-0.94482421875,-0.1053466796875,0.6141357421875
6.164,374,2619,1759,1331,20.0,27.0,8.0,30.334470748901367,10.009765625,-30.212400436401367,-0.8974609375,0.2822265625,0.621826171875
6.168,375,2456,1785,1303,20.0,27.0,8.0,14.709471702575684,30.700681686401367,-27.038572311401367,-1.338134765625,0.4072265625,0.5496826171875
6.177,386,2311,1732,1316,22.0,21.0,7.0,-23.132322311401367,47.668453216552734,-21.484373092651367,-1.8193359375,0.253662109375,0.408447265625
6.185,388,2218,1713,1280,22.0,21.0,7.0,-43.945308685302734,49.255367279052734,-17.08984375,-1.9552001953125,0.0435791015625,0.3323974609375
6.200,391,2012,1564,1143,22.0,21.0,7.0,-39.48974609375,41.320796966552734,-15.441893577575684,-1.795654296875,-0.0406494140625,0.3221435546875
6.214,387,1920,1611,1224,22.0,21.0,7.0,-30.822751998901367,35.33935546875,-11.840819358825684,-1.5770263671875,-0.02099609375,0.3072509765625
6.216,398,1835,1557,1170,22.0,21.0,7.0,-33.99658203125,33.14208984375,-1.8310545682907104,-1.4329833984375,-0.033447265625,0.26123046875
6.236,368,1681,1373,946,22.0,21.0,7.0,-45.349117279052734,28.747556686401367,15.991209983825684,-1.38232421875,-0.061279296875,0.229736328125
6.248,347,1666,1292,963,22.0,21.0,7.0,-56.152339935302734,16.90673828125,40.10009765625,-1.363525390625,-0.048095703125,0.22021484375
6.248,334,1575,1138,883,22.0,21.0,7.0,-61.157222747802734,-0.8544921278953552,65.5517578125,-1.3194580078125,-0.0531005859375,0.1669921875
6.283,310,1483,913,696,22.0,21.0,7.0,-55.175777435302734,-16.78466796875,85.93749237060547,-1.21435546875,-0.1304931640625,0.072021484375
6.284,313,1224,837,713,22.0,21.0,7.0,-33.14208984375,-23.925779342651367,94.60448455810547,-0.98974609375,-0.28271484375,-0.015380859375
6.284,300,1143,744,645,17.0,27.0,4.0,8.97216796875,-16.29638671875,89.23339080810547,-0.7021484375,-0.388916015625,-0.0230712890625
6.289,292,1018,646,603,17.0,27.0,4.0,68.9697265625,7.324218273162842,74.64599609375,-0.426513671875,-0.3724365234375,0.067626953125
6.296,289,904,630,574,17.0,27.0,4.0,132.2021484375,41.687007904052734,54.138179779052734,-0.23779296875,-0.3458251953125,0.18798828125
6.307,277,710,601,532,17.0,27.0,4.0,179.56541442871094,78.43017578125,28.381345748901367,-0.2186279296875,-0.27001953125,0.2347412109375
6.320,280,495,580,461,17.0,27.0,4.0,200.86668395996094,106.56737518310547,5.432128429412842,-0.301513671875,-0.0018310546875,0.19775390625
6.329,276,473,586,470,17.0,27.0,4.0,198.73045349121094,114.86815643310547,-6.713866710662842,-0.4244384765625,0.39599609375,0.194091796875
6.336,279,522,594,464,17.0,27.0,4.0,174.49949645996094,95.82518768310547,-5.126952648162842,-0.5633544921875,0.71923828125,0.260986328125
6.349,276,497,582,460,17.0,27.0,4.0,128.2958984375,59.814449310302734,4.2724609375,-0.6744384765625,0.7174072265625,0.2816162109375
6.369,275,501,579,473,17.0,27.0,4.0,79.04052734375,32.3486328125,4.57763671875,-0.7169189453125,0.4554443359375,0.1923828125
6.369,274,495,591,485,17.0,27.0,4.0,79.04052734375,32.3486328125,4.57763671875,-0.7081298828125,0.240966796875,0.1324462890625
6.379,275,517,579,469,20.0,27.0,9.0,51.757808685302734,13.305663108825684,-12.878417015075684,-0.6708984375,0.12451171875,0.1563720703125
6.389,276,518,594,490,20.0,27.0,9.0,52.856441497802734,-3.417968511581421,-12.817381858825684,-0.6004638671875,0.0709228515625,0.1529541015625
6.395,277,533,594,491,20.0,27.0,9.0,52.856441497802734,-3.417968511581421,-12.817381858825684,-0.5115966796875,0.09521484375,0.09033203125
6.408,277,527,601,479,20.0,27.0,9.0,29.663084030151367,-27.770994186401367,-4.21142578125,-0.441162109375,0.1719970703125,0.0240478515625
6.429,277,543,625,508,20.0,27.0,9.0,8.36181640625,-24.414060592651367,1.8920897245407104,-0.4395751953125,0.2373046875,-0.015625
6.431,275,574,625,521,20.0,27.0,9.0,8.36181640625,-24.414060592651367,1.8920897245407104,-0.5167236328125,0.2330322265625,-0.0469970703125
6.439,277,691,607,540,20.0,27.0,9.0,-9.1552734375,-8.60595703125,7.202147960662842,-0.5970458984375,0.1678466796875,-0.0789794921875
6.448,277,895,571,590,20.0,27.0,9.0,-0.54931640625,-8.30078125,7.202147960662842,-0.607177734375,0.1036376953125,-0.0869140625
6.472,277,1010,548,630,20.0,27.0,9.0,7.385253429412842,-14.526366233825684,9.58251953125,-0.6383056640625,0.1551513671875,-0.04248046875
6.472,280,1213,653,541,20.0,30.0,10.0,-1.2817381620407104,-28.320310592651367,13.549803733825684,-0.784423828125,0.306884765625,0.0684814453125
6.478,281,1340,593,607,20.0,30.0,10.0,-32.77587890625,-47.668453216552734,12.573241233825684,-0.94775390625,0.3323974609375,0.161865234375
6.487,290,1370,572,687,20.0,30.0,10.0,-32.77587890625,-47.668453216552734,12.573241233825684,-0.9835205078125,0.23388671875,0.209228515625
6.499,292,1497,591,689,20.0,30.0,10.0,-78.55224609375,-72.998046875,-8.6669921875,-0.8148193359375,0.1585693359375,0.2950439453125
6.508,299,1540,702,784,20.0,30.0,10.0,-75.68359375,-81.54296112060547,-25.817869186401367,-0.490478515625,0.1107177734375,0.311767578125
6.516,305,1596,800,808,20.0,30.0,10.0,-75.68359375,-81.54296112060547,-25.817869186401367,-0.2109375,0.05615234375,0.1170654296875
6.544,336,1655,899,887,20.0,30.0,10.0,-106.68944549560547,-70.98388671875,-82.39745330810547,-0.268798828125,-0.0654296875,-0.0703125
6.544,364,1704,968,1160,20.0,30.0,10.0,-138.427734375,-44.189449310302734,-99.42626190185547,-0.600341796875,-0.298583984375,0.0584716796875
6.545,383,1877,1038,1233,20.0,30.0,10.0,-138.427734375,-44.189449310302734,-99.42626190185547,-0.7894287109375,-0.3021240234375,0.24072265625
6.574,416,1981,1134,1229,20.0,30.0,10.0,-43.151851654052734,-0.1220703050494194,-73.18115234375,-0.7576904296875,0.0458984375,0.1832275390625
6.575,433,2073,1306,1439,21.0,22.0,4.0,47.424312591552734,3.906249761581421,-59.753414154052734,-0.7139892578125,0.3697509765625,0.0784912109375
6.576,442,2763,1702,1422,21.0,22.0,4.0,47.424312591552734,3.906249761581421,-59.753414154052734,-0.8167724609375,0.597900390625,0.1513671875
6.584,398,2356,1529,1386,21.0,22.0,4.0,91.55272674560547,-7.385253429412842,-55.847164154052734,-0.8167724609375,0.597900390625,0.1513671875
6.598,413,2370,1550,1276,21.0,22.0,4.0,16.9677734375,-28.137205123901367,-42.480464935302734,-1.5833740234375,0.6072998046875,0.406494140625
6.606,411,2372,1739,1415,21.0,22.0,4.0,16.9677734375,-28.137205123901367,-42.480464935302734,-1.988037109375,0.4058837890625,0.4586181640625
6.614,418,2337,1753,1426,21.0,22.0,4.0,-44.189449310302734,-20.629880905151367,-35.64453125,-1.988037109375,0.4058837890625,0.4586181640625
6.629,423,2319,1711,1276,21.0,22.0,4.0,-80.87157440185547,-7.019042491912842,-46.874996185302734,-2.3131103515625,-0.4517822265625,0.5704345703125
6.646,401,2372,1855,1351,21.0,22.0,4.0,-80.87157440185547,-7.019042491912842,-46.874996185302734,-2.1016845703125,-0.51953125,0.538330078125
6.646,401,2316,1826,1365,21.0,22.0,4.0,-41.687007904052734,-0.9155272841453552,-54.992671966552734,-2.1016845703125,-0.51953125,0.538330078125
6.659,398,2220,1791,1198,21.0,22.0,4.0,40.161128997802734,8.36181640625,-49.377437591552734,-1.0042724609375,-0.04248046875,0.395263671875
6.679,411,2190,1840,1365,22.0,21.0,4.0,40.161128997802734,8.36181640625,-49.377437591552734,-1.1455078125,-0.0517578125,0.322509765625
6.680,400,2710,1914,1369,22.0,21.0,4.0,35.33935546875,14.404295921325684,-34.24072265625,-1.1455078125,-0.0517578125,0.322509765625
6.688,409,2104,1748,1213,22.0,21.0,4.0,-41.503902435302734,14.465331077575684,12.695311546325684,-1.9703369140625,-0.3114013671875,0.1639404296875
6.697,409,2074,1792,1330,22.0,21.0,4.0,-41.503902435302734,14.465331077575684,12.695311546325684,-1.8314208984375,-0.2801513671875,0.1865234375
6.705,399,2166,1625,1239,22.0,21.0,4.0,-54.199214935302734,1.5258787870407104,27.221677780151367,-1.8314208984375,-0.2801513671875,0.1865234375
6.718,389,1878,1557,1149,22.0,21.0,4.0,-40.466304779052734,-25.146482467651367,48.706050872802734,-1.2022705078125,-0.1724853515625,0.2095947265625
6.727,416,1759,1662,1224,22.0,21.0,4.0,-40.466304779052734,-25.146482467651367,48.706050872802734,-1.0469970703125,-0.1348876953125,0.2730712890625
6.735,402,1648,1529,1243,22.0,21.0,4.0,-33.0810546875,-31.616209030151367,61.706539154052734,-1.0469970703125,-0.1348876953125,0.2730712890625
6.749,338,1840,1331,969,22.0,21.0,4.0,-25.939939498901367,-32.2265625,75.68359375,-1.0074462890625,0.0125732421875,0.4925537109375
6.758,359,1662,1228,1065,22.0,21.0,4.0,-25.939939498901367,-32.2265625,75.68359375,-0.9671630859375,0.074951171875,0.4537353515625
6.778,344,1518,1081,1038,20.0,25.0,10.0,-25.756834030151367,-23.803709030151367,73.05908203125,-0.9671630859375,0.074951171875,0.4537353515625
6.779,344,1732,897,922,20.0,25.0,10.0,8.6669921875,5.371093273162842,54.016109466552734,-0.8079833984375,0.14697265625,0.232666015625
6.786,315,1504,846,855,20.0,25.0,10.0,8.6669921875,5.371093273162842,54.016109466552734,-0.7396240234375,0.203857421875,0.2000732421875
6.796,308,1464,780,816,20.0,25.0,10.0,37.65869140625,18.6767578125,43.212886810302734,-0.7396240234375,0.203857421875,0.2000732421875
6.808,306,1373,646,702,20.0,25.0,10.0,63.049312591552734,30.090330123901367,34.66796875,-0.5711669921875,0.276123046875,0.1651611328125
6.817,294,1375,677,666,20.0,25.0,10.0,80.13916015625,40.527339935302734,29.174802780151367,-0.5711669921875,0.276123046875,0.1651611328125
6.825,294,1243,625,698,20.0,25.0,10.0,86.91405487060547,48.767086029052734,25.878904342651367,-0.5140380859375,0.1796875,0.1051025390625
6.838,291,978,590,666,20.0,25.0,10.0,85.51024627685547,54.260250091552734,23.681638717651367,-0.4776611328125,0.034912109375,-0.0216064453125
6.852,290,1031,636,621,20.0,25.0,10.0,82.27538299560547,57.678218841552734,21.423337936401367,-0.4776611328125,0.034912109375,-0.0216064453125
6.855,291,978,625,607,20.0,25.0,10.0,75.5615234375,57.006832122802734,16.90673828125,-0.5030517578125,0.05126953125,0.05517578125
6.883,282,905,603,567,17.0,27.0,12.0,56.457515716552734,47.424312591552734,11.291502952575684,-0.7757568359375,0.1312255859375,0.338623046875
6.883,286,883,625,596,17.0,27.0,12.0,26.733396530151367,32.1044921875,10.070799827575684,-0.7757568359375,0.1312255859375,0.338623046875
6.885,275,947,625,532,17.0,27.0,12.0,4.0283203125,21.118162155151367,14.282225608825684,-0.8072509765625,0.096435546875,0.3748779296875
6.900,278,855,590,548,17.0,27.0,12.0,-2.990722417831421,17.15087890625,18.5546875,-0.785888671875,0.056884765625,0.255126953125
6.907,279,846,607,582,17.0,27.0,12.0,-2.25830078125,15.197752952575684,18.06640625,-0.785888671875,0.056884765625,0.255126953125
6.914,277,853,604,585,17.0,27.0,12.0,-2.197265625,11.108397483825684,15.014647483825684,-0.8597412109375,0.0111083984375,0.1905517578125
6.929,279,900,571,561,17.0,27.0,12.0,-3.295898199081421,4.57763671875,14.709471702575684,-0.849853515625,0.0133056640625,0.0987548828125
6.937,279,936,591,603,17.0,27.0,12.0,-4.2724609375,-2.25830078125,17.15087890625,-0.849853515625,0.0133056640625,0.0987548828125
6.945,279,978,582,607,17.0,27.0,12.0,-6.652831554412842,-8.544921875,20.080564498901367,-0.8275146484375,0.059814453125,0.0489501953125
6.958,280,1091,578,543,16.0,30.0,11.0,-11.901854515075684,-15.563963890075684,23.254392623901367,-0.8876953125,0.062744140625,-0.030029296875
6.987,280,1131,590,585,16.0,30.0,11.0,-20.01953125,-24.719236373901367,28.564451217651367,-0.8876953125,0.062744140625,-0.030029296875
6.988,289,1274,561,592,16.0,30.0,11.0,-29.296873092651367,-35.70556640625,37.109375,-0.87744140625,0.046142578125,-0.050048828125
6.989,289,1278,559,495,16.0,30.0,11.0,-38.63525390625,-47.058101654052734,47.058101654052734,-0.71142578125,0.0750732421875,0.0048828125
6.997,289,1323,569,675,16.0,30.0,11.0,-48.461910247802734,-58.288570404052734,54.077144622802734,-0.71142578125,0.0750732421875,0.0048828125
7.006,292,1452,590,673,16.0,30.0,11.0,-57.556148529052734,-68.05419921875,53.405757904052734,-0.5557861328125,0.1207275390625,0.0240478515625
7.018,295,1518,614,694,16.0,30.0,11.0,-62.683101654052734,-74.64599609375,41.442867279052734,-0.34033203125,0.2005615234375,0.0953369140625
7.026,300,1600,683,830,16.0,30.0,11.0,-63.110347747802734,-75.01220703125,14.648436546325684,-0.0457763671875,0.228759765625,0.2366943359375
7.035,327,1560,763,1000,16.0,30.0,11.0,-62.133785247802734,-64.8193359375,-28.381345748901367,0.2784423828125,0.1324462890625,0.4150390625
7.048,375,1801,1054,1248,16.0,30.0,11.0,-54.931636810302734,-47.302242279052734,-80.68846893310547,0.4959716796875,-0.0240478515625,0.5743408203125
7.056,402,1929,1078,1323,20.0,25.0,12.0,-30.273435592651367,-29.479978561401367,-126.40380096435547,0.252685546875,-0.027587890625,0.558837890625
7.064,410,2039,1163,1397,20.0,25.0,12.0,10.437010765075684,-11.047362327575684,-140.2587890625,-0.3734130859375,0.3931884765625,0.4185791015625
7.086,453,2100,1260,1373,20.0,25.0,12.0,45.776363372802734,4.39453125,-113.09813690185547,-0.8465576171875,1.0535888671875,0.268798828125
7.087,463,2072,1452,1541,20.0,25.0,12.0,43.762203216552734,7.141112804412842,-74.52392578125,-1.0699462890625,1.300048828125,0.1871337890625
7.095,465,2066,1549,1524,20.0,25.0,12.0,-8.1787109375,-3.967284917831421,-57.495113372802734,-1.2706298828125,0.838623046875,0.2861328125
7.108,484,1985,1623,1411,20.0,25.0,12.0,-79.833984375,-15.686034202575684,-61.523433685302734,-1.6893310546875,0.101318359375,0.4156494140625
7.116,495,2024,1747,1575,20.0,25.0,12.0,-120.05614471435547,-13.977049827575684,-65.4296875,-2.2620849609375,-0.4024658203125,0.433349609375
7.125,490,2037,1754,1592,20.0,25.0,12.0,-109.06981658935547,-3.845214605331421,-63.049312591552734,-2.670654296875,-0.75634765625,0.424072265625
7.138,497,2076,1652,1468,20.0,25.0,12.0,-63.781734466552734,4.21142578125,-61.401363372802734,-2.72998046875,-0.8494873046875,0.490478515625
7.147,481,2139,1753,1560,20.0,25.0,12.0,-10.681151390075684,9.6435546875,-57.006832122802734,-2.1605224609375,-0.5115966796875,0.552978515625
7.155,464,2145,1704,1529,24.0,23.0,8.0,34.3017578125,13.366698265075684,-48.339839935302734,-1.1688232421875,-0.16943359375,0.5679931640625
7.174,465,2124,1637,1386,24.0,23.0,8.0,66.10107421875,16.29638671875,-37.9638671875,-0.7159423828125,-0.0291748046875,0.520751953125
7.188,466,2118,1743,1521,24.0,23.0,8.0,59.265132904052734,18.6767578125,-18.1884765625,-1.0977783203125,-0.0125732421875,0.3243408203125
7.189,460,2053,1743,1529,24.0,23.0,8.0,13.427733421325684,17.08984375,11.169432640075684,-1.750244140625,-0.02490234375,0.114990234375
7.198,445,1997,1681,1341,24.0,23.0,8.0,-33.50830078125,7.141112804412842,35.5224609375,-2.082275390625,-0.0396728515625,0.10009765625
7.208,439,1951,1713,1422,24.0,23.0,8.0,-60.485836029052734,-8.4228515625,45.898433685302734,-1.9256591796875,-0.076904296875,0.254150390625
7.217,430,1890,1695,1383,24.0,23.0,8.0,-67.5048828125,-21.423337936401367,47.607418060302734,-1.56103515625,-0.1090087890625,0.3804931640625
7.229,402,1838,1602,1123,24.0,23.0,8.0,-60.791011810302734,-26.611326217651367,49.804683685302734,-1.2637939453125,-0.0999755859375,0.40234375
7.237,385,1809,1652,1173,24.0,23.0,8.0,-48.339839935302734,-26.733396530151367,55.969234466552734,-1.1082763671875,-0.0899658203125,0.409912109375
7.245,377,1722,1548,1163,24.0,23.0,8.0,-38.39111328125,-26.977537155151367,65.00244140625,-1.068115234375,-0.12841796875,0.4404296875
7.259,346,1664,1328,984,22.0,25.0,7.0,-32.5927734375,-26.428220748901367,73.05908203125,-1.0601806640625,-0.1129150390625,0.483642578125
7.267,334,1718,1317,947,22.0,25.0,7.0,-24.108884811401367,-19.775390625,72.93701171875,-1.019775390625,0.0245361328125,0.4964599609375
7.291,336,1557,1132,963,22.0,25.0,7.0,-8.30078125,-2.807616949081421,60.424800872802734,-0.9520263671875,0.1878662109375,0.4205322265625
7.291,323,1464,879,820,22.0,25.0,7.0,10.192870140075684,20.812986373901367,41.198726654052734,-0.8763427734375,0.287841796875,0.310546875
7.297,322,1400,820,826,22.0,25.0,7.0,27.404783248901367,40.771480560302734,24.658201217651367,-0.789306640625,0.332763671875,0.22509765625
7.305,316,1323,777,766,22.0,25.0,7.0,43.762203216552734,52.612300872802734,15.808104515075684,-0.6790771484375,0.3477783203125,0.172119140625
7.321,304,1157,654,625,22.0,25.0,7.0,59.570308685302734,58.898921966552734,13.671874046325684,-0.56005859375,0.2708740234375,0.122802734375
7.327,293,989,673,589,22.0,25.0,7.0,73.974609375,63.842769622802734,13.977049827575684,-0.4884033203125,0.114990234375,0.04345703125
7.335,291,785,621,590,22.0,25.0,7.0,90.39305877685547,69.39697265625,14.892577171325684,-0.452392578125,0.0020751953125,0.0068359375
7.348,280,600,607,508,20.0,27.0,5.0,107.36083221435547,71.71630859375,14.587401390075684,-0.4171142578125,-0.036376953125,0.0721435546875
7.357,280,579,639,441,20.0,27.0,5.0,108.76464080810547,65.24658203125,11.901854515075684,-0.392333984375,-0.0380859375,0.1873779296875
7.365,280,551,619,481,20.0,27.0,5.0,87.09716033935547,52.185054779052734,10.009765625,-0.4093017578125,-0.0286865234375,0.267822265625
7.393,280,537,598,442,20.0,27.0,5.0,55.175777435302734,39.85595703125,11.108397483825684,-0.5242919921875,0.0103759765625,0.28076171875
7.394,280,555,620,482,20.0,27.0,5.0,29.113767623901367,30.334470748901367,15.747069358825684,-0.7005615234375,0.0643310546875,0.2568359375
7.395,275,567,656,419,20.0,27.0,5.0,16.11328125,20.935056686401367,23.498533248901367,-0.776123046875,0.0782470703125,0.2291259765625
7.413,280,625,605,465,20.0,27.0,5.0,14.038084983825684,11.047362327575684,30.456541061401367,-0.7122802734375,0.0592041015625,0.1849365234375
7.416,280,710,625,481,20.0,27.0,5.0,15.808104515075684,2.44140625,31.982419967651367,-0.6357421875,0.03564453125,0.1396484375
7.425,282,810,630,487,20.0,27.0,5.0,15.563963890075684,-3.967284917831421,27.465818405151367,-0.6126708984375,0.0250244140625,0.1431884765625
7.438,280,975,575,523,20.0,27.0,5.0,13.549803733825684,-8.72802734375,20.385740280151367,-0.632080078125,0.0714111328125,0.1846923828125
7.447,280,1074,586,579,20.0,28.0,10.0,11.657713890075684,-12.817381858825684,14.831542015075684,-0.6650390625,0.1756591796875,0.2242431640625
7.454,280,1137,574,617,20.0,28.0,10.0,9.1552734375,-17.63916015625,11.169432640075684,-0.715087890625,0.285888671875,0.237060546875
7.469,281,1198,539,644,20.0,28.0,10.0,3.723144292831421,-24.414060592651367,7.507323741912842,-0.784912109375,0.3538818359375,0.19970703125
7.477,290,1287,586,661,20.0,28.0,10.0,-5.615233898162842,-33.5693359375,2.929687261581421,-0.8470458984375,0.3607177734375,0.1204833984375
7.497,292,1362,594,654,20.0,28.0,10.0,-16.11328125,-44.860836029052734,-2.197265625,-0.864990234375,0.303466796875,0.0528564453125
7.498,292,1413,589,562,20.0,28.0,10.0,-25.390623092651367,-57.739253997802734,-6.958007335662842,-0.826171875,0.2142333984375,0.0616455078125
7.506,306,1422,679,790,20.0,28.0,10.0,-35.46142578125,-69.091796875,-11.779784202575684,-0.7593994140625,0.147705078125,0.13232421875
7.517,306,1464,722,813,20.0,28.0,10.0,-35.46142578125,-69.091796875,-11.779784202575684,-0.6854248046875,0.0592041015625,0.1580810546875
7.529,306,1634,780,750,20.0,28.0,10.0,-67.138671875,-59.143062591552734,-33.203125,-0.6356201171875,-0.0714111328125,0.1258544921875
7.537,328,1588,841,921,20.0,28.0,10.0,-68.603515625,-38.63525390625,-46.447750091552734,-0.611328125,-0.15234375,0.156494140625
7.546,344,1560,905,1018,24.0,23.0,9.0,-68.603515625,-38.63525390625,-46.447750091552734,-0.5616455078125,-0.1566162109375,0.2593994140625
7.558,364,1655,963,1050,24.0,23.0,9.0,-8.11767578125,-16.11328125,-58.715816497802734,-0.4930419921875,-0.0997314453125,0.33447265625
7.567,331,2392,951,1184,24.0,23.0,9.0,17.9443359375,-18.4326171875,-57.373043060302734,-0.3800048828125,-0.0830078125,0.372802734375
7.576,405,1980,1125,1316,24.0,23.0,9.0,28.686521530151367,-23.620603561401367,-52.673336029052734,-0.29345703125,-0.1358642578125,0.358154296875
7.603,432,2153,1201,1336,24.0,23.0,9.0,42.724605560302734,-25.573728561401367,-45.471187591552734,-0.398193359375,0.03125,0.3231201171875
7.603,460,2636,1116,1478,24.0,23.0,9.0,60.119625091552734,-21.972654342651367,-35.5224609375,-0.7001953125,0.505859375,0.28173828125
7.606,465,2410,1257,1531,24.0,23.0,9.0,50.720211029052734,-13.000487327575684,-28.564451217651367,-1.08740234375,0.927001953125,0.231201171875
7.619,479,2287,1440,1480,24.0,23.0,9.0,6.469726085662842,-0.4272460639476776,-31.311033248901367,-1.5015869140625,0.9879150390625,0.2470703125
7.628,466,2266,1613,1592,24.0,23.0,9.0,-44.433589935302734,8.85009765625,-40.954586029052734,-1.864013671875,0.699462890625,0.3504638671875
7.636,470,2244,1665,1600,24.0,23.0,9.0,-44.433589935302734,8.85009765625,-40.954586029052734,-2.12744140625,0.09326171875,0.505126953125
7.649,462,2268,1664,1370,26.0,23.0,9.0,-86.60887908935547,4.5166015625,-55.114742279052734,-2.3250732421875,-0.5345458984375,0.6318359375
7.660,424,2391,1762,1453,26.0,23.0,9.0,-61.157222747802734,1.5258787870407104,-52.185054779052734,-2.2738037109375,-0.730224609375,0.6290283203125
7.667,416,2370,1755,1442,26.0,23.0,9.0,-61.157222747802734,1.5258787870407104,-52.185054779052734,-1.6663818359375,-0.530517578125,0.48046875
7.680,413,2258,1702,1279,26.0,23.0,9.0,18.9208984375,5.371093273162842,-22.644041061401367,-1.091552734375,-0.2117919921875,0.3516845703125
7.706,414,2247,1789,1427,26.0,23.0,9.0,22.705076217651367,7.629394054412842,2.685546636581421,-1.301025390625,-0.027099609375,0.3170166015625
7.707,430,2172,1769,1463,26.0,23.0,9.0,22.705076217651367,7.629394054412842,2.685546636581421,-1.8787841796875,-0.0484619140625,0.3077392578125
7.711,418,2113,1697,1409,26.0,23.0,9.0,-68.42041015625,-2.624511480331421,59.875484466552734,-2.13916015625,-0.1195068359375,0.343017578125
7.717,416,2062,1704,1366,26.0,23.0,9.0,-71.044921875,-13.488768577575684,63.354488372802734,-1.9287109375,-0.0953369140625,0.4317626953125
7.726,405,1989,1653,1328,26.0,23.0,9.0,-71.044921875,-13.488768577575684,63.354488372802734,-1.525390625,0.004638671875,0.4869384765625
7.739,401,1819,1504,1123,26.0,23.0,9.0,-34.85107421875,-18.73779296875,53.771968841552734,-1.196533203125,0.055419921875,0.470947265625
7.748,383,1755,1531,1199,20.0,26.0,6.0,-28.503416061401367,-11.352538108825684,53.710933685302734,-1.0511474609375,0.026611328125,0.4722900390625
7.756,378,1678,1440,1149,20.0,26.0,6.0,-28.503416061401367,-11.352538108825684,53.710933685302734,-1.0333251953125,0.0352783203125,0.52099609375
7.772,354,1624,1132,936,20.0,26.0,6.0,-17.578125,7.812499523162842,50.781246185302734,-1.0078125,0.133544921875,0.4996337890625
7.778,344,1575,1043,959,20.0,26.0,6.0,-7.507323741912842,22.888181686401367,41.870113372802734,-0.9354248046875,0.2603759765625,0.3697509765625
7.802,324,1521,966,853,20.0,26.0,6.0,-7.507323741912842,22.888181686401367,41.870113372802734,-0.81787109375,0.3568115234375,0.227294921875
7.813,315,1422,787,679,20.0,26.0,6.0,26.428220748901367,49.926753997802734,21.911619186401367,-0.652587890625,0.359130859375,0.131103515625
7.813,304,1323,737,696,20.0,26.0,6.0,43.395992279052734,57.495113372802734,15.136717796325684,-0.4998779296875,0.2041015625,0.0911865234375
7.816,300,1198,656,588,20.0,26.0,6.0,43.395992279052734,57.495113372802734,15.136717796325684,-0.406005859375,-0.0533447265625,0.056884765625
7.830,291,803,625,574,20.0,26.0,6.0,89.05028533935547,72.93701171875,7.629394054412842,-0.373779296875,-0.224365234375,-0.00048828125
7.838,287,628,632,584,20.0,26.0,6.0,89.05028533935547,72.93701171875,7.629394054412842,-0.3809814453125,-0.2230224609375,-0.0025634765625
7.845,280,543,629,552,21.0,27.0,9.0,119.87303924560547,80.99364471435547,6.774901866912842,-0.3809814453125,-0.2230224609375,-0.0025634765625
7.861,279,514,593,508,21.0,27.0,9.0,126.77001190185547,68.05419921875,4.82177734375,-0.4144287109375,0.05322265625,0.175048828125
7.868,279,512,619,533,21.0,27.0,9.0,126.77001190185547,68.05419921875,4.82177734375,-0.47998046875,0.181884765625,0.2569580078125
7.876,277,514,598,536,21.0,27.0,9.0,89.05028533935547,47.180171966552734,7.507323741912842,-0.47998046875,0.181884765625,0.2569580078125
7.906,281,561,586,532,21.0,27.0,9.0,12.756346702575684,10.070799827575684,19.8974609375,-0.6195068359375,0.1732177734375,0.13720703125
7.907,280,599,601,567,21.0,27.0,9.0,12.756346702575684,10.070799827575684,19.8974609375,-0.6326904296875,0.0670166015625,0.0218505859375
7.908,267,673,572,585,21.0,27.0,9.0,0.4882812201976776,0.6713866591453552,25.024412155151367,-0.6326904296875,0.0670166015625,0.0218505859375
7.920,278,797,551,594,21.0,27.0,9.0,19.59228515625,-14.282225608825684,25.390623092651367,-0.675048828125,-0.00341796875,0.0338134765625
7.929,279,895,562,631,21.0,27.0,9.0,19.59228515625,-14.282225608825684,25.390623092651367,-0.73046875,0.08984375,0.1771240234375
7.936,279,966,569,654,21.0,27.0,9.0,28.381345748901367,-26.184080123901367,23.864744186401367,-0.73046875,0.08984375,0.1771240234375
7.949,280,1064,546,647,18.0,23.0,10.0,8.30078125,-46.447750091552734,23.498533248901367,-0.8326416015625,0.300537109375,0.2935791015625
7.959,280,1117,555,706,18.0,23.0,10.0,8.30078125,-46.447750091552734,23.498533248901367,-0.877685546875,0.2958984375,0.2275390625
7.967,287,1274,590,648,18.0,23.0,10.0,-12.145995140075684,-49.255367279052734,23.010251998901367,-0.877685546875,0.2958984375,0.2275390625
7.980,291,1363,601,614,18.0,23.0,10.0,-42.724605560302734,-51.574703216552734,18.98193359375,-0.8502197265625,0.197509765625,0.118408203125
7.988,296,1409,653,695,18.0,23.0,10.0,-42.724605560302734,-51.574703216552734,18.98193359375,-0.7554931640625,0.1728515625,0.1143798828125
8.007,300,1390,689,777,18.0,23.0,10.0,-51.696773529052734,-53.649898529052734,10.253905296325684,-0.7554931640625,0.1728515625,0.1143798828125
8.010,308,1531,763,785,18.0,23.0,10.0,-80.93260955810547,-46.752925872802734,-23.742673873901367,-0.484375,0.0911865234375,0.0673828125
8.023,314,1582,828,826,18.0,23.0,10.0,-80.93260955810547,-46.752925872802734,-23.742673873901367,-0.3394775390625,-0.0672607421875,0.0694580078125
8.030,338,1506,869,992,18.0,23.0,10.0,-100.58592987060547,-32.53173828125,-42.907711029052734,-0.3394775390625,-0.0672607421875,0.0694580078125
8.039,376,1583,1022,1065,21.0,24.0,7.0,-69.27490234375,-9.765625,-68.115234375,-0.09521484375,-0.2188720703125,0.2120361328125
8.048,416,1695,1206,1275,21.0,24.0,7.0,-69.27490234375,-9.765625,-68.115234375,-0.1158447265625,-0.077880859375,0.292724609375
8.056,439,1843,1315,1383,21.0,24.0,7.0,-20.385740280151367,-8.60595703125,-76.2939453125,-0.1158447265625,-0.077880859375,0.292724609375
8.070,465,2024,1336,1409,21.0,24.0,7.0,14.770506858825684,-9.6435546875,-78.4912109375,-0.6265869140625,0.7008056640625,0.443603515625
8.078,467,2079,1478,1572,21.0,24.0,7.0,24.230955123901367,-10.986327171325684,-66.34521484375,-0.6265869140625,0.7008056640625,0.443603515625
8.086,473,2135,1574,1596,21.0,24.0,7.0,9.27734375,-15.197752952575684,-45.959468841552734,-0.8388671875,1.0068359375,0.5010986328125
8.121,466,2161,1635,1399,21.0,24.0,7.0,-24.047849655151367,-22.766111373901367,-36.0107421875,-1.39892578125,0.442626953125,0.767578125
8.129,402,2587,1744,1346,21.0,24.0,7.0,-61.218257904052734,-29.235837936401367,-38.87939453125,-1.39892578125,0.442626953125,0.767578125
8.130,416,2263,1925,1357,21.0,24.0,7.0,-83.12987518310547,-25.390623092651367,-39.24560546875,-2.044677734375,0.108154296875,0.631103515625
8.132,416,2166,1927,1379,21.0,24.0,7.0,-79.2236328125,-11.840819358825684,-35.7666015625,-2.951416015625,-0.7022705078125,0.3057861328125
8.138,413,2176,1934,1348,23.0,22.0,8.0,-44.433589935302734,-2.563476324081421,-38.6962890625,-2.951416015625,-0.7022705078125,0.3057861328125
8.146,416,2144,1925,1348,23.0,22.0,8.0,9.09423828125,-0.7324218153953552,-46.630855560302734,-2.31201171875,-0.4981689453125,0.3363037109375
8.159,414,2039,1821,1220,23.0,22.0,8.0,58.044429779052734,3.906249761581421,-55.541988372802734,-0.9505615234375,-0.03564453125,0.4571533203125
8.169,416,2058,1943,1334,23.0,22.0,8.0,71.96044921875,14.892577171325684,-52.062984466552734,-0.9505615234375,-0.03564453125,0.4571533203125
8.179,424,2037,1908,1318,23.0,22.0,8.0,23.315427780151367,26.489255905151367,-23.315427780151367,-1.475830078125,-0.1436767578125,0.3702392578125
8.190,417,1920,1792,1184,23.0,22.0,8.0,-47.851558685302734,29.602048873901367,15.563963890075684,-2.1962890625,-0.149169921875,0.22216796875
8.212,413,1854,1855,1292,23.0,22.0,8.0,-85.08300018310547,18.798828125,41.381832122802734,-2.1962890625,-0.149169921875,0.22216796875
8.213,419,1757,1816,1290,23.0,22.0,8.0,-87.64647674560547,-0.1220703050494194,50.964351654052734,-1.889892578125,-0.0797119140625,0.2418212890625
8.222,401,1676,1748,1199,23.0,22.0,8.0,-76.72119140625,-17.51708984375,56.213375091552734,-1.2530517578125,-0.050048828125,0.3189697265625
8.236,399,1616,1643,1184,23.0,22.0,8.0,-66.58935546875,-30.883787155151367,65.5517578125,-1.2530517578125,-0.050048828125,0.3189697265625
8.240,385,1557,1534,1125,23.0,24.0,8.0,-59.265132904052734,-40.405269622802734,77.81982421875,-1.1177978515625,-0.05517578125,0.459716796875
8.249,361,1483,1202,922,23.0,24.0,8.0,-50.720211029052734,-42.541500091552734,87.34130096435547,-0.8665771484375,0.0142822265625,0.478515625
8.259,342,1449,1101,927,23.0,24.0,8.0,-34.3017578125,-31.066892623901367,87.58544158935547,-0.8665771484375,0.0142822265625,0.478515625
8.266,328,1384,996,865,23.0,24.0,8.0,-5.493163585662842,-6.103515148162842,75.62255859375,-0.7271728515625,0.007080078125,0.3697509765625
8.282,319,1255,788,725,23.0,24.0,8.0,28.991697311401367,23.681638717651367,55.053707122802734,-0.5771484375,0.005126953125,0.3118896484375
8.288,309,1206,794,689,23.0,24.0,8.0,62.866207122802734,50.720211029052734,33.447265625,-0.432861328125,0.00341796875,0.2960205078125
8.295,302,1156,774,630,23.0,24.0,8.0,97.96141815185547,72.81494140625,16.2353515625,-0.31201171875,-0.0823974609375,0.271728515625
8.316,294,829,642,567,23.0,24.0,8.0,135.68115234375,88.98925018310547,3.173827886581421,-0.296630859375,-0.2213134765625,0.23388671875
8.317,276,720,607,559,23.0,24.0,8.0,165.83250427246094,94.11620330810547,-5.187987804412842,-0.3760986328125,-0.22216796875,0.1669921875
8.328,282,606,634,548,23.0,24.0,8.0,175.53709411621094,87.76854705810547,-5.920409679412842,-0.4173583984375,-0.049560546875,0.0936279296875
8.345,280,543,603,512,19.0,27.0,10.0,164.91697692871094,75.68359375,0.54931640625,-0.4127197265625,0.186767578125,0.0706787109375
8.349,277,562,617,533,19.0,27.0,10.0,134.33837890625,59.570308685302734,13.122557640075684,-0.4444580078125,0.3614501953125,0.0848388671875
8.356,280,653,636,481,19.0,27.0,10.0,85.44921112060547,40.0390625,29.785154342651367,-0.5172119140625,0.3807373046875,0.09375
8.372,282,714,621,458,19.0,27.0,10.0,38.39111328125,21.118162155151367,44.738765716552734,-0.611083984375,0.271728515625,0.0614013671875
8.380,282,735,620,514,19.0,27.0,10.0,12.268065452575684,6.347655773162842,54.016109466552734,-0.7066650390625,0.150390625,0.0068359375
8.386,280,826,636,487,19.0,27.0,10.0,6.103515148162842,-3.540038824081421,56.640621185302734,-0.77294921875,0.1009521484375,0.0045166015625
8.399,280,934,588,512,19.0,27.0,10.0,7.324218273162842,-10.437010765075684,53.771968841552734,-0.80517578125,0.1282958984375,0.0791015625
8.416,280,1018,597,562,19.0,27.0,10.0,7.019042491912842,-15.686034202575684,47.729488372802734,-0.80712890625,0.1929931640625,0.202880859375
8.417,277,1214,572,527,19.0,27.0,10.0,5.065917491912842,-18.5546875,39.9169921875,-0.78662109375,0.2681884765625,0.3226318359375
8.430,280,1183,561,563,19.0,28.0,11.0,3.479003667831421,-19.287109375,30.700681686401367,-0.770263671875,0.333740234375,0.3780517578125
8.438,281,1275,604,578,19.0,28.0,11.0,0.7324218153953552,-19.8974609375,20.446775436401367,-0.7890625,0.3455810546875,0.3441162109375
8.454,282,1334,605,582,19.0,28.0,11.0,-4.33349609375,-22.216794967651367,10.742186546325684,-0.8355712890625,0.289794921875,0.2255859375
8.460,282,1382,579,604,19.0,28.0,11.0,-10.314940452575684,-25.939939498901367,4.0283203125,-0.869873046875,0.221923828125,0.062744140625
8.468,291,1404,580,673,19.0,28.0,11.0,-16.66259765625,-30.273435592651367,0.4272460639476776,-0.859130859375,0.2064208984375,-0.0458984375
8.479,292,1452,590,698,19.0,28.0,11.0,-25.634763717651367,-35.46142578125,-3.417968511581421,-0.8111572265625,0.240234375,-0.0194091796875
8.496,294,1487,580,725,19.0,28.0,11.0,-38.0859375,-40.771480560302734,-11.291502952575684,-0.759033203125,0.2552490234375,0.090576171875
8.501,300,1543,646,794,19.0,28.0,11.0,-52.124019622802734,-42.602535247802734,-22.583005905151367,-0.7298583984375,0.2139892578125,0.177978515625
8.525,300,1625,698,799,19.0,28.0,11.0,-64.39208984375,-39.55078125,-33.02001953125,-0.6470947265625,0.1505126953125,0.2125244140625
8.526,299,1943,733,841,19.0,28.0,11.0,-71.35009765625,-33.5693359375,-42.541500091552734,-0.4564208984375,0.078369140625,0.217041015625
8.527,323,1693,883,984,20.0,22.0,10.0,-69.82421875,-28.015134811401367,-54.931636810302734,-0.2181396484375,-0.0242919921875,0.2127685546875
8.540,338,1796,947,1042,20.0,22.0,10.0,-56.457515716552734,-26.611326217651367,-68.66455078125,-0.065673828125,-0.1781005859375,0.2255859375
8.562,348,2041,966,1034,20.0,22.0,10.0,-29.541013717651367,-30.578611373901367,-74.462890625,-0.1722412109375,-0.25341796875,0.25439453125
8.563,359,2217,1103,1198,20.0,22.0,10.0,3.051757574081421,-37.109375,-60.302730560302734,-0.4940185546875,-0.0936279296875,0.25341796875
8.565,363,2362,1153,1233,20.0,22.0,10.0,22.644041061401367,-39.85595703125,-28.198240280151367,-0.8477783203125,0.185302734375,0.2095947265625
8.579,371,2518,1201,1147,20.0,22.0,10.0,19.71435546875,-37.109375,3.417968511581421,-1.1075439453125,0.392822265625,0.2154541015625
8.590,363,2631,1370,1283,20.0,22.0,10.0,1.3427733182907104,-33.87451171875,19.04296875,-1.224609375,0.441162109375,0.3096923828125
8.596,378,2624,1343,1398,20.0,22.0,10.0,-17.02880859375,-31.799314498901367,14.831542015075684,-1.1849365234375,0.2786865234375,0.427490234375
8.623,337,2949,1602,1014,20.0,22.0,10.0,-9.521484375,-25.634763717651367,-4.5166015625,-1.1177978515625,0.169677734375,0.504638671875
8.623,359,3147,1810,913,20.0,22.0,10.0,35.70556640625,-14.343260765075684,-27.221677780151367,-1.264892578125,0.3897705078125,0.5731201171875
8.626,346,3047,1837,1067,21.0,23.0,14.0,85.81542205810547,-7.263183116912842,-39.0625,-1.5816650390625,0.5560302734375,0.6982421875
8.639,324,3107,1908,777,21.0,23.0,14.0,110.83983612060547,-9.33837890625,-37.65869140625,-1.922607421875,0.2354736328125,0.7506103515625
8.648,327,3050,1906,925,21.0,23.0,14.0,120.91063690185547,-12.145995140075684,-30.151365280151367,-2.18017578125,-0.2027587890625,0.6343994140625
8.663,325,3059,1873,905,21.0,23.0,14.0,131.2255859375,-9.765625,-20.812986373901367,-2.0345458984375,-0.323974609375,0.3623046875
