time,compression0,compression1,compression2,compression3,magn_x,magn_y,magn_z,gyro_x,gyro_y,gyro_z,accel_x,accel_y,accel_z
0.002,299,1294,582,897,2.0,36.0,6.0,0.54931640625,0.0610351525247097,-1.8310545682907104,-0.7791748046875,0.4970703125,0.4022216796875
0.010,299,1278,598,944,2.0,36.0,6.0,0.6103515625,-0.4882812201976776,-2.624511480331421,-0.7791748046875,0.4970703125,0.4022216796875
0.024,300,1241,576,884,2.0,36.0,6.0,0.9765624403953552,-1.2817381620407104,-4.57763671875,-0.7724609375,0.4967041015625,0.416748046875
0.032,299,1229,601,921,2.0,36.0,6.0,0.9765624403953552,-1.2817381620407104,-4.57763671875,-0.7734375,0.49951171875,0.421875
0.042,296,1219,601,917,2.0,36.0,6.0,1.03759765625,-1.03759765625,-5.615233898162842,-0.7734375,0.49951171875,0.421875
0.054,294,1191,590,846,2.0,36.0,6.0,0.0,0.4882812201976776,-7.629394054412842,-0.7818603515625,0.506591796875,0.421875
0.074,298,1156,605,890,2.0,36.0,6.0,0.0,0.4882812201976776,-7.629394054412842,-0.784912109375,0.5067138671875,0.42236328125
0.074,277,1229,553,827,0.0,36.0,7.0,-0.8544921278953552,1.3427733182907104,-8.85009765625,-0.784912109375,0.5067138671875,0.42236328125
0.084,294,1095,590,806,0.0,36.0,7.0,-1.5258787870407104,2.746581792831421,-11.840819358825684,-0.7857666015625,0.5013427734375,0.416015625
0.093,292,1083,605,828,0.0,36.0,7.0,-1.5258787870407104,2.746581792831421,-11.840819358825684,-0.7862548828125,0.4989013671875,0.4144287109375
0.108,292,1038,605,832,0.0,36.0,7.0,-1.3427733182907104,3.173827886581421,-13.549803733825684,-0.7862548828125,0.4989013671875,0.4144287109375
0.114,291,1026,620,800,0.0,36.0,7.0,-1.220703125,3.356933355331421,-15.319823265075684,-0.7872314453125,0.48974609375,0.415771484375
0.122,289,962,606,800,0.0,36.0,7.0,-1.3427733182907104,3.356933355331421,-16.9677734375,-0.7872314453125,0.48974609375,0.415771484375
0.130,286,949,601,787,0.0,36.0,7.0,-1.7700194120407104,3.173827886581421,-18.24951171875,-0.7869873046875,0.483154296875,0.416259765625
0.144,281,918,578,721,0.0,36.0,7.0,-2.38037109375,2.929687261581421,-19.287109375,-0.7908935546875,0.4666748046875,0.416748046875
0.152,286,895,601,736,0.0,36.0,7.0,-2.746581792831421,2.685546636581421,-20.080564498901367,-0.7908935546875,0.4666748046875,0.416748046875
0.174,280,859,592,731,0.0,36.0,7.0,-2.868652105331421,2.3193359375,-20.568845748901367,-0.7930908203125,0.4620361328125,0.4146728515625
0.174,280,820,600,710,3.0,36.0,9.0,-2.990722417831421,1.8310545682907104,-20.751951217651367,-0.79248046875,0.4508056640625,0.4107666015625
0.182,280,800,590,697,3.0,36.0,9.0,-3.479003667831421,1.0986328125,-20.507810592651367,-0.79248046875,0.4508056640625,0.4107666015625
0.200,277,782,590,694,3.0,36.0,9.0,-4.150390625,0.0,-19.95849609375,-0.7879638671875,0.439208984375,0.4066162109375
0.204,277,780,568,654,3.0,36.0,9.0,-4.82177734375,-1.3427733182907104,-19.10400390625,-0.787109375,0.41845703125,0.3863525390625
0.215,275,749,582,678,3.0,36.0,9.0,-5.0048828125,-2.990722417831421,-18.06640625,-0.787109375,0.41845703125,0.3863525390625
0.220,276,748,574,667,3.0,36.0,9.0,-4.82177734375,-4.8828125,-16.845703125,-0.7977294921875,0.4188232421875,0.3880615234375
0.233,276,706,564,631,3.0,36.0,9.0,-4.33349609375,-7.141112804412842,-15.624999046325684,-0.810302734375,0.4097900390625,0.3890380859375
0.242,273,688,576,625,3.0,36.0,9.0,-3.417968511581421,-9.765625,-14.160155296325684,-0.810302734375,0.4097900390625,0.3890380859375
0.250,274,705,574,653,3.0,36.0,9.0,-2.44140625,-12.817381858825684,-12.329100608825684,-0.7950439453125,0.386474609375,0.3720703125
0.278,275,697,562,646,4.0,35.0,6.0,-1.5869139432907104,-15.930174827575684,-10.070799827575684,-0.7261962890625,0.31005859375,0.364990234375
0.279,304,746,642,642,4.0,35.0,6.0,-0.1220703050494194,-18.4326171875,-7.812499523162842,-0.7261962890625,0.31005859375,0.364990234375
0.280,262,894,584,653,4.0,35.0,6.0,2.624511480331421,-20.324705123901367,-6.103515148162842,-0.685546875,0.27099609375,0.3629150390625
0.294,289,883,591,673,4.0,35.0,6.0,6.835937023162842,-22.094724655151367,-5.432128429412842,-0.5513916015625,0.1651611328125,0.3238525390625
0.309,291,964,625,763,4.0,35.0,6.0,13.305663108825684,-23.376462936401367,-6.713866710662842,-0.5513916015625,0.1651611328125,0.3238525390625
0.310,292,1129,631,794,4.0,35.0,6.0,21.240232467651367,-23.193357467651367,-10.803221702575684,-0.44970703125,0.118408203125,0.2783203125
0.324,302,1529,591,842,4.0,35.0,6.0,28.991697311401367,-22.033689498901367,-18.61572265625,-0.0970458984375,0.1087646484375,0.2110595703125
0.332,304,1727,617,968,4.0,35.0,6.0,37.7197265625,-20.874021530151367,-32.470703125,-0.0970458984375,0.1087646484375,0.2110595703125
0.340,306,1881,620,1014,4.0,35.0,6.0,47.729488372802734,-19.775390625,-52.612300872802734,0.1212158203125,0.2667236328125,0.1644287109375
0.354,323,2005,573,1055,4.0,35.0,6.0,47.119136810302734,-17.15087890625,-76.35498046875,0.305908203125,0.5616455078125,0.191650390625
0.362,323,2093,597,1228,7.0,34.0,9.0,20.446775436401367,-12.634276390075684,-104.18700408935547,0.3875732421875,0.74462890625,0.32373046875
0.382,327,2213,631,1216,7.0,34.0,9.0,-25.146482467651367,-4.638671875,-133.60595703125,0.122802734375,0.64892578125,0.4735107421875
0.386,326,2481,525,1251,7.0,34.0,9.0,-58.715816497802734,5.859374523162842,-147.76611328125,-0.5909423828125,0.534423828125,0.6341552734375
0.392,332,2354,606,1282,7.0,34.0,9.0,-61.279293060302734,11.230467796325684,-131.4697265625,-1.5372314453125,0.7144775390625,0.835693359375
0.400,334,2296,621,1310,7.0,34.0,9.0,-55.419918060302734,-1.5258787870407104,-93.13964080810547,-2.5150146484375,0.910400390625,1.0670166015625
0.414,347,2337,593,1243,7.0,34.0,9.0,-65.7958984375,-35.15625,-52.551265716552734,-3.0802001953125,0.6314697265625,0.95751953125
0.422,349,2386,673,1340,7.0,34.0,9.0,-76.35498046875,-64.75830078125,-16.29638671875,-2.57861328125,-0.2628173828125,0.28125
0.430,357,2435,653,1353,7.0,34.0,9.0,-53.833003997802734,-67.87109375,5.676269054412842,-1.4830322265625,-1.01708984375,-0.0880126953125
0.444,334,2421,573,1223,7.0,34.0,9.0,5.371093273162842,-51.818843841552734,7.934569835662842,-0.81396484375,-0.69140625,0.373046875
0.452,343,2392,630,1348,7.0,34.0,9.0,49.682613372802734,-28.381345748901367,6.103515148162842,-0.616943359375,0.2808837890625,0.9256591796875
0.460,346,2335,631,1357,9.0,33.0,10.0,49.011226654052734,-2.44140625,7.324218273162842,-0.7769775390625,1.027587890625,1.10400390625
0.482,349,2235,562,1274,9.0,33.0,10.0,30.029294967651367,14.953612327575684,8.6669921875,-1.2161865234375,1.31201171875,1.03271484375
0.482,348,2176,601,1287,9.0,33.0,10.0,9.033203125,16.6015625,10.498045921325684,-1.6153564453125,1.1993408203125,0.8414306640625
0.490,344,2076,625,1316,9.0,33.0,10.0,-8.23974609375,5.126952648162842,13.183592796325684,-1.6990966796875,0.78515625,0.622802734375
0.504,334,1997,568,1163,9.0,33.0,10.0,-10.620116233825684,-11.230467796325684,15.014647483825684,-1.493896484375,0.2598876953125,0.476806640625
0.514,332,1904,616,1209,9.0,33.0,10.0,3.479003667831421,-22.399900436401367,17.51708984375,-1.1824951171875,-0.1104736328125,0.43505859375
0.520,322,1813,594,1157,9.0,33.0,10.0,20.874021530151367,-23.559568405151367,21.118162155151367,-0.9017333984375,-0.173828125,0.457763671875
0.541,313,1548,559,998,9.0,33.0,10.0,31.921384811401367,-14.587401390075684,22.460935592651367,-0.7235107421875,0.0262451171875,0.4998779296875
0.544,351,1442,598,826,9.0,33.0,10.0,37.353515625,1.03759765625,19.53125,-0.6302490234375,0.2349853515625,0.5272216796875
0.554,300,1280,571,907,9.0,33.0,10.0,36.80419921875,17.7001953125,12.207030296325684,-0.59619140625,0.2733154296875,0.504638671875
0.564,289,939,576,748,7.0,32.0,13.0,32.1044921875,31.677244186401367,1.5258787870407104,-0.616455078125,0.24951171875,0.4349365234375
0.586,278,713,603,694,7.0,32.0,13.0,29.296873092651367,40.344234466552734,-9.58251953125,-0.663330078125,0.2803955078125,0.3712158203125
0.586,292,731,621,628,7.0,32.0,13.0,29.174802780151367,41.625972747802734,-17.7001953125,-0.7061767578125,0.3592529296875,0.372802734375
0.594,268,653,559,643,7.0,32.0,13.0,27.099607467651367,35.82763671875,-21.057126998901367,-0.7406005859375,0.4305419921875,0.431396484375
0.603,268,639,555,653,7.0,32.0,13.0,21.423337936401367,26.550291061401367,-21.911619186401367,-0.770751953125,0.431640625,0.453369140625
0.610,265,640,546,646,7.0,32.0,13.0,15.624999046325684,19.47021484375,-23.925779342651367,-0.76806640625,0.417236328125,0.4163818359375
0.631,268,625,537,598,7.0,32.0,13.0,13.549803733825684,15.747069358825684,-25.146482467651367,-0.7213134765625,0.4034423828125,0.405517578125
0.640,265,625,548,620,7.0,32.0,13.0,10.986327171325684,12.390135765075684,-22.949216842651367,-0.6536865234375,0.3485107421875,0.41259765625
0.669,262,593,548,614,7.0,32.0,13.0,4.7607421875,10.009765625,-19.04296875,-0.6021728515625,0.2930908203125,0.38232421875
0.669,265,601,539,590,7.0,32.0,13.0,-1.0986328125,9.58251953125,-15.930174827575684,-0.5838623046875,0.2093505859375,0.3419189453125
0.669,267,605,555,600,6.0,34.0,11.0,-3.967284917831421,9.33837890625,-15.808104515075684,-0.56982421875,0.1143798828125,0.299560546875
0.687,267,607,553,601,6.0,34.0,11.0,-3.173827886581421,9.09423828125,-18.06640625,-0.548095703125,0.080810546875,0.2598876953125
0.687,298,614,590,625,6.0,34.0,11.0,1.5258787870407104,9.3994140625,-20.01953125,-0.5289306640625,0.107666015625,0.253173828125
0.694,265,588,559,625,6.0,34.0,11.0,7.934569835662842,10.620116233825684,-19.775390625,-0.526611328125,0.1737060546875,0.2685546875
0.700,266,607,553,620,6.0,34.0,11.0,12.145995140075684,12.573241233825684,-16.54052734375,-0.545166015625,0.24267578125,0.281494140625
0.714,266,591,545,614,6.0,34.0,11.0,12.573241233825684,13.916014671325684,-10.986327171325684,-0.577880859375,0.286865234375,0.29638671875
0.722,265,601,553,631,6.0,34.0,11.0,10.620116233825684,13.793944358825684,-4.69970703125,-0.6182861328125,0.3046875,0.315185546875
0.730,267,593,553,630,6.0,34.0,11.0,7.568358898162842,12.634276390075684,0.4882812201976776,-0.66162109375,0.3074951171875,0.328369140625
0.747,268,632,537,588,6.0,34.0,11.0,5.187987804412842,11.291502952575684,3.601073980331421,-0.7005615234375,0.2996826171875,0.3297119140625
0.760,272,636,547,601,6.0,34.0,11.0,5.0048828125,9.94873046875,4.69970703125,-0.7332763671875,0.2861328125,0.318603515625
0.762,268,639,543,601,9.0,35.0,12.0,6.652831554412842,8.7890625,5.126952648162842,-0.7596435546875,0.277587890625,0.3114013671875
0.789,267,646,536,588,9.0,35.0,12.0,8.72802734375,7.812499523162842,6.103515148162842,-0.78076171875,0.267822265625,0.3212890625
0.789,296,679,590,589,9.0,35.0,12.0,11.352538108825684,6.896972179412842,7.812499523162842,-0.793212890625,0.2529296875,0.3282470703125
0.790,262,702,543,607,9.0,35.0,12.0,15.380858421325684,5.859374523162842,9.82666015625,-0.786376953125,0.246337890625,0.3214111328125
0.806,274,669,543,605,9.0,35.0,12.0,19.83642578125,3.784179449081421,11.962889671325684,-0.75732421875,0.2449951171875,0.309814453125
0.812,274,738,561,628,9.0,35.0,12.0,22.277830123901367,-0.2441406100988388,13.610838890075684,-0.7152099609375,0.2373046875,0.2918701171875
0.820,274,725,576,689,9.0,35.0,12.0,22.277830123901367,-0.2441406100988388,13.610838890075684,-0.6705322265625,0.215576171875,0.2825927734375
0.834,292,938,601,757,9.0,35.0,12.0,21.423337936401367,-10.131834983825684,11.962889671325684,-0.5843505859375,0.1861572265625,0.293701171875
0.842,299,1143,604,879,9.0,35.0,12.0,21.484373092651367,-13.244627952575684,5.187987804412842,-0.4603271484375,0.213623046875,0.3380126953125
0.854,301,1323,598,959,9.0,35.0,12.0,21.484373092651367,-13.244627952575684,5.187987804412842,-0.380859375,0.3892822265625,0.433349609375
0.864,316,1613,628,1018,7.0,33.0,10.0,20.568845748901367,-14.282225608825684,-20.141599655151367,-0.250732421875,0.5985107421875,0.4967041015625
0.872,321,1735,629,1145,7.0,33.0,10.0,10.559081077575684,-12.390135765075684,-35.400390625,0.012451171875,0.6771240234375,0.5018310546875
0.895,328,1849,673,1156,7.0,33.0,10.0,10.559081077575684,-12.390135765075684,-35.400390625,0.27587890625,0.67578125,0.4686279296875
0.895,411,2220,548,1268,7.0,33.0,10.0,-44.311519622802734,-8.544921875,-78.857421875,0.26025390625,0.6558837890625,0.433837890625
0.902,360,2076,673,1323,7.0,33.0,10.0,-68.42041015625,-1.0986328125,-98.14452362060547,-0.3203125,0.5504150390625,0.50439453125
0.911,369,2041,702,1382,7.0,33.0,10.0,-68.42041015625,-1.0986328125,-98.14452362060547,-1.3885498046875,0.2548828125,0.6727294921875
0.923,373,2153,721,1330,7.0,33.0,10.0,-90.27098846435547,-11.291502952575684,-86.60887908935547,-2.4327392578125,-0.2366943359375,0.7421875
0.932,388,2178,785,1464,7.0,33.0,10.0,-87.28026580810547,-30.334470748901367,-57.067867279052734,-2.9000244140625,-0.6785888671875,0.597900390625
0.940,387,2202,778,1490,7.0,33.0,10.0,-87.28026580810547,-30.334470748901367,-57.067867279052734,-2.6796875,-0.7667236328125,0.430908203125
0.960,377,2217,685,1361,11.0,32.0,11.0,-10.620116233825684,-40.10009765625,1.15966796875,-1.9476318359375,-0.41943359375,0.4449462890625
0.963,376,2456,582,1351,11.0,32.0,11.0,40.283199310302734,-21.972654342651367,12.084959983825684,-1.093994140625,0.1630859375,0.647705078125
0.970,361,2266,683,1387,11.0,32.0,11.0,40.283199310302734,-21.972654342651367,12.084959983825684,-0.6751708984375,0.7236328125,0.8587646484375
0.993,373,2176,644,1318,11.0,32.0,11.0,70.1904296875,23.010251998901367,1.220703125,-0.8682861328125,1.0347900390625,0.8975830078125
0.994,363,2223,562,1348,11.0,32.0,11.0,49.743648529052734,31.127927780151367,-5.249022960662842,-1.4000244140625,1.1038818359375,0.83837890625
1.000,362,2111,653,1365,11.0,32.0,11.0,49.743648529052734,31.127927780151367,-5.249022960662842,-1.8553466796875,1.0257568359375,0.7352294921875
1.016,347,1979,620,1201,11.0,32.0,11.0,9.33837890625,7.751464366912842,-0.30517578125,-1.992431640625,0.697265625,0.5736083984375
1.022,344,1860,645,1262,11.0,32.0,11.0,-5.432128429412842,-8.9111328125,10.070799827575684,-1.826416015625,0.244140625,0.4791259765625
1.030,334,1742,644,1201,11.0,32.0,11.0,-5.432128429412842,-8.9111328125,10.070799827575684,-1.826416015625,0.244140625,0.4791259765625
1.044,318,1575,593,1031,11.0,32.0,11.0,-3.723144292831421,-21.728513717651367,34.36279296875,-0.97412109375,-0.259521484375,0.443115234375
1.052,314,1477,601,1022,9.0,30.0,10.0,-3.723144292831421,-21.728513717651367,34.36279296875,-0.581787109375,-0.2919921875,0.358642578125
1.069,301,1348,576,963,9.0,30.0,10.0,4.7607421875,-13.000487327575684,35.94970703125,-0.581787109375,-0.2919921875,0.358642578125
1.074,289,1162,519,808,9.0,30.0,10.0,32.5927734375,22.460935592651367,17.76123046875,-0.28369140625,-0.0247802734375,0.2381591796875
1.102,279,1003,567,788,9.0,30.0,10.0,32.5927734375,22.460935592651367,17.76123046875,-0.346435546875,0.0975341796875,0.2474365234375
1.102,280,898,573,728,9.0,30.0,10.0,39.6728515625,36.56005859375,5.798339366912842,-0.346435546875,0.0975341796875,0.2474365234375
1.104,274,730,571,656,9.0,30.0,10.0,38.0859375,41.992183685302734,-8.30078125,-0.5426025390625,0.4874267578125,0.2967529296875
1.113,268,697,549,660,9.0,30.0,10.0,38.0859375,41.992183685302734,-8.30078125,-0.5400390625,0.5909423828125,0.2994384765625
1.120,272,735,539,654,9.0,30.0,10.0,29.907224655151367,36.2548828125,-9.8876953125,-0.5400390625,0.5909423828125,0.2994384765625
1.133,268,723,523,631,9.0,30.0,10.0,-1.8310545682907104,13.671874046325684,-7.507323741912842,-0.53857421875,0.5174560546875,0.283447265625
1.142,268,711,536,653,9.0,30.0,10.0,-1.8310545682907104,13.671874046325684,-7.507323741912842,-0.5169677734375,0.3974609375,0.2288818359375
1.159,272,720,536,654,12.0,30.0,9.0,-10.620116233825684,5.615233898162842,-7.080077648162842,-0.5169677734375,0.3974609375,0.2288818359375
1.164,272,739,553,661,12.0,30.0,9.0,-2.807616949081421,1.4038084745407104,-9.3994140625,-0.5367431640625,0.146240234375,0.2442626953125
1.172,272,736,551,648,12.0,30.0,9.0,-2.807616949081421,1.4038084745407104,-9.3994140625,-0.6004638671875,0.0968017578125,0.30078125
1.180,274,737,562,654,12.0,30.0,9.0,2.0751953125,-1.220703125,-8.056640625,-0.6004638671875,0.0968017578125,0.30078125
1.197,277,705,566,644,12.0,30.0,9.0,0.3662109076976776,-8.23974609375,0.3662109076976776,-0.7369384765625,0.0836181640625,0.361328125
1.202,278,733,590,673,12.0,30.0,9.0,0.3662109076976776,-8.23974609375,0.3662109076976776,-0.7659912109375,0.10888671875,0.358154296875
1.210,279,739,600,707,12.0,30.0,9.0,1.7089842557907104,-11.291502952575684,5.554198741912842,-0.7659912109375,0.10888671875,0.358154296875
1.224,287,813,600,684,12.0,30.0,9.0,1.8310545682907104,-17.51708984375,14.892577171325684,-0.771484375,0.13232421875,0.305419921875
1.232,292,830,630,761,12.0,30.0,9.0,1.8310545682907104,-17.51708984375,14.892577171325684,-0.81884765625,0.1650390625,0.301513671875
1.240,291,920,636,750,12.0,30.0,9.0,0.0,-21.423337936401367,19.6533203125,-0.81884765625,0.1650390625,0.301513671875
1.253,299,1018,625,747,8.0,31.0,10.0,-0.2441406100988388,-26.367185592651367,25.817869186401367,-1.0096435546875,0.2979736328125,0.343505859375
1.262,300,1051,654,803,8.0,31.0,10.0,0.1220703050494194,-32.71484375,33.38623046875,-1.0096435546875,0.2979736328125,0.343505859375
1.280,300,1093,667,827,8.0,31.0,10.0,-1.220703125,-40.710445404052734,40.588375091552734,-1.0450439453125,0.2960205078125,0.390869140625
1.305,308,1216,691,860,8.0,31.0,10.0,-4.33349609375,-49.560543060302734,45.471187591552734,-0.8111572265625,0.12353515625,0.3983154296875
1.305,313,1345,679,895,8.0,31.0,10.0,-6.774901866912842,-56.823726654052734,46.325679779052734,-0.8111572265625,0.12353515625,0.3983154296875
1.305,321,1463,766,800,8.0,31.0,10.0,-6.958007335662842,-60.485836029052734,42.602535247802734,-0.5662841796875,0.0653076171875,0.3375244140625
1.316,316,1733,707,900,8.0,31.0,10.0,-2.13623046875,-59.875484466552734,34.24072265625,0.0411376953125,0.2025146484375,0.248291015625
1.328,324,1865,766,1050,8.0,31.0,10.0,8.544921875,-54.504390716552734,20.996091842651367,0.0411376953125,0.2025146484375,0.248291015625
1.330,318,2089,793,949,8.0,31.0,10.0,21.362302780151367,-44.738765716552734,3.234863042831421,0.3145751953125,0.3936767578125,0.30224609375
1.344,361,2130,744,1172,6.0,30.0,12.0,26.672361373901367,-31.982419967651367,-19.22607421875,0.718994140625,0.6031494140625,0.34228515625
1.352,363,2132,797,1330,6.0,30.0,12.0,12.817381858825684,-18.4326171875,-46.569820404052734,0.718994140625,0.6031494140625,0.34228515625
1.360,378,2166,788,1377,6.0,30.0,12.0,-13.122557640075684,-8.1787109375,-72.57080078125,0.408935546875,0.5045166015625,0.540771484375
1.374,400,2184,794,1411,6.0,30.0,12.0,-35.0341796875,-4.21142578125,-85.38817596435547,-1.489990234375,0.1409912109375,1.1126708984375
1.402,416,2165,856,1555,6.0,30.0,12.0,-56.274410247802734,-5.920409679412842,-81.23778533935547,-1.489990234375,0.1409912109375,1.1126708984375
1.404,419,2218,856,1574,6.0,30.0,12.0,-77.20947265625,-10.192870140075684,-64.63623046875,-2.5328369140625,-0.17041015625,0.9625244140625
1.404,411,2681,1014,1359,6.0,30.0,12.0,-74.89013671875,-13.183592796325684,-40.10009765625,-2.8228759765625,-0.198486328125,0.4530029296875
1.413,442,2626,975,1588,6.0,30.0,12.0,-36.7431640625,-13.427733421325684,-16.9677734375,-2.8228759765625,-0.198486328125,0.4530029296875
1.438,359,2559,900,1536,6.0,30.0,12.0,16.9677734375,-11.901854515075684,-4.82177734375,-2.160400390625,0.3529052734375,0.5897216796875
1.438,398,2507,675,1521,6.0,30.0,12.0,48.156734466552734,-7.202147960662842,-6.103515148162842,-1.3118896484375,0.8775634765625,0.78369140625
1.443,396,2370,744,1540,9.0,29.0,9.0,41.503902435302734,5.615233898162842,-17.51708984375,-0.74072265625,1.0714111328125,0.898681640625
1.451,390,2337,753,1527,9.0,29.0,9.0,18.73779296875,24.902341842651367,-30.334470748901367,-0.6744384765625,1.0721435546875,0.921630859375
1.460,386,2296,753,1526,9.0,29.0,9.0,0.7324218153953552,43.762203216552734,-42.602535247802734,-1.0565185546875,0.8988037109375,0.890380859375
1.476,385,2207,705,1395,9.0,29.0,9.0,-4.69970703125,52.917476654052734,-55.236812591552734,-1.7596435546875,0.6632080078125,0.9403076171875
1.482,383,2194,713,1440,9.0,29.0,9.0,-4.94384765625,45.837398529052734,-57.861324310302734,-2.3016357421875,0.428466796875,0.9462890625
1.506,370,2039,711,1387,9.0,29.0,9.0,-11.596678733825684,26.733396530151367,-45.166011810302734,-2.3348388671875,0.12744140625,0.8868408203125
1.506,346,1877,794,1122,9.0,29.0,9.0,-13.732909202575684,7.324218273162842,-23.681638717651367,-1.997314453125,-0.0443115234375,0.84912109375
1.511,336,1669,658,1178,9.0,29.0,9.0,-1.5869139432907104,-2.746581792831421,-1.4038084745407104,-1.524658203125,-0.0364990234375,0.81494140625
1.520,327,1504,648,1115,9.0,29.0,9.0,13.916014671325684,-2.685546636581421,16.7236328125,-1.0208740234375,-0.0521240234375,0.7239990234375
1.533,293,1201,555,890,9.0,29.0,9.0,17.88330078125,5.187987804412842,27.526853561401367,-0.5469970703125,-0.225341796875,0.477783203125
1.541,279,918,572,800,11.0,27.0,9.0,9.58251953125,20.629880905151367,28.198240280151367,-0.1790771484375,-0.3961181640625,0.1435546875
1.549,277,660,598,697,11.0,27.0,9.0,6.286620616912842,40.405269622802734,20.141599655151367,-0.050537109375,-0.3505859375,-0.046142578125
1.569,265,648,551,632,11.0,27.0,9.0,15.258788108825684,57.556148529052734,7.873534679412842,-0.1429443359375,-0.1480712890625,0.000732421875
1.573,263,766,551,625,11.0,27.0,9.0,21.179197311401367,66.5283203125,-5.493163585662842,-0.3558349609375,0.092529296875,0.178955078125
1.579,267,736,532,628,11.0,27.0,9.0,13.366698265075684,64.208984375,-18.1884765625,-0.59912109375,0.324462890625,0.3411865234375
1.619,268,737,516,625,11.0,27.0,9.0,-2.44140625,53.161617279052734,-27.587888717651367,-0.6710205078125,0.50830078125,0.3662109375
1.621,267,761,506,644,11.0,27.0,9.0,-17.578125,41.442867279052734,-29.724119186401367,-0.571533203125,0.5455322265625,0.275390625
1.648,268,728,526,654,11.0,27.0,9.0,-25.695798873901367,33.8134765625,-24.597166061401367,-0.447509765625,0.44140625,0.198974609375
1.648,265,697,525,644,11.0,27.0,9.0,-20.446775436401367,29.357908248901367,-16.11328125,-0.359130859375,0.3275146484375,0.18310546875
1.655,266,693,531,667,11.0,27.0,9.0,-5.065917491912842,26.794431686401367,-9.09423828125,-0.32666015625,0.251220703125,0.20361328125
1.656,265,687,543,667,14.0,29.0,10.0,7.934569835662842,24.902341842651367,-6.530761241912842,-0.3521728515625,0.1787109375,0.2470703125
1.663,266,695,533,646,14.0,29.0,10.0,11.474608421325684,22.216794967651367,-7.995604991912842,-0.3974609375,0.096435546875,0.27734375
1.668,265,693,548,673,14.0,29.0,10.0,8.9111328125,18.85986328125,-11.047362327575684,-0.4490966796875,0.054931640625,0.2794189453125
1.671,268,697,551,675,14.0,29.0,10.0,6.225585460662842,15.747069358825684,-12.573241233825684,-0.5201416015625,0.0682373046875,0.28369140625
1.683,268,706,546,654,14.0,29.0,10.0,4.150390625,13.061522483825684,-10.620116233825684,-0.592041015625,0.08447265625,0.2886962890625
1.691,268,711,549,683,14.0,29.0,10.0,0.9155272841453552,10.253905296325684,-5.371093273162842,-0.6500244140625,0.0767822265625,0.2666015625
1.713,268,710,548,683,14.0,29.0,10.0,-2.3193359375,7.263183116912842,1.9531248807907104,-0.6925048828125,0.0511474609375,0.2237548828125
1.714,298,809,519,667,14.0,29.0,10.0,-2.868652105331421,4.638671875,10.314940452575684,-0.7215576171875,0.021728515625,0.1956787109375
1.721,275,744,563,695,14.0,29.0,10.0,-0.0610351525247097,2.44140625,18.1884765625,-0.7530517578125,-0.0015869140625,0.20703125
1.730,276,761,567,702,14.0,29.0,10.0,4.57763671875,0.0,24.230955123901367,-0.802490234375,0.0009765625,0.242431640625
1.743,277,748,574,688,12.0,29.0,6.0,9.27734375,-2.25830078125,28.686521530151367,-0.873779296875,0.0423583984375,0.2735595703125
1.752,280,738,601,720,12.0,29.0,6.0,12.756346702575684,-4.33349609375,32.958984375,-0.984130859375,0.1053466796875,0.313232421875
1.759,282,753,607,726,12.0,29.0,6.0,14.831542015075684,-7.934569835662842,37.53662109375,-1.0946044921875,0.165283203125,0.3817138671875
1.774,289,820,594,689,12.0,29.0,6.0,16.90673828125,-14.770506858825684,42.236324310302734,-1.103271484375,0.2156982421875,0.434814453125
1.783,289,922,603,788,12.0,29.0,6.0,17.39501953125,-23.498533248901367,46.752925872802734,-0.9820556640625,0.2283935546875,0.403076171875
1.789,294,1078,620,788,12.0,29.0,6.0,14.221190452575684,-32.40966796875,49.499507904052734,-0.8111572265625,0.207763671875,0.3160400390625
1.818,314,1323,636,864,12.0,29.0,6.0,10.559081077575684,-40.954586029052734,48.278804779052734,-0.641845703125,0.2205810546875,0.246826171875
1.818,324,1447,675,1031,12.0,29.0,6.0,9.33837890625,-47.912593841552734,42.236324310302734,-0.423583984375,0.27734375,0.2193603515625
1.819,330,1669,590,1045,12.0,29.0,6.0,7.568358898162842,-52.246089935302734,30.395505905151367,-0.1505126953125,0.380859375,0.2637939453125
1.833,347,1860,654,1148,11.0,30.0,7.0,3.112792730331421,-52.856441497802734,11.047362327575684,0.1995849609375,0.537109375,0.3226318359375
1.841,359,1954,733,1294,11.0,30.0,7.0,-5.493163585662842,-46.997066497802734,-17.08984375,0.6046142578125,0.6800537109375,0.3292236328125
1.849,371,2093,754,1323,11.0,30.0,7.0,-5.493163585662842,-46.997066497802734,-17.08984375,0.817138671875,0.732421875,0.38134765625
1.862,402,2135,754,1375,11.0,30.0,7.0,-41.198726654052734,-13.732909202575684,-83.37401580810547,0.491943359375,0.6419677734375,0.609130859375
1.871,402,2119,848,1487,11.0,30.0,7.0,-61.035152435302734,-1.15966796875,-99.60936737060547,-0.575439453125,0.3740234375,0.9144287109375
1.886,420,2086,887,1527,11.0,30.0,7.0,-61.035152435302734,-1.15966796875,-99.60936737060547,-2.04736328125,-0.0748291015625,1.0130615234375
1.893,439,2133,912,1504,11.0,30.0,7.0,-81.05467987060547,-15.136717796325684,-70.6787109375,-3.1468505859375,-0.544677734375,0.7119140625
1.922,447,2194,920,1611,11.0,30.0,7.0,-73.54736328125,-31.188962936401367,-37.04833984375,-3.415771484375,-0.827392578125,0.296875
1.923,424,2306,882,1529,11.0,30.0,7.0,-73.54736328125,-31.188962936401367,-37.04833984375,-2.8970947265625,-0.61376953125,0.3194580078125
1.924,428,2404,739,1039,11.0,30.0,7.0,14.221190452575684,-35.58349609375,10.070799827575684,-1.775634765625,-0.031005859375,0.6717529296875
1.932,400,2287,785,1523,13.0,30.0,9.0,46.936031341552734,-15.808104515075684,16.4794921875,-0.7781982421875,0.5386962890625,1.0321044921875
1.939,404,2279,780,1521,13.0,30.0,9.0,46.936031341552734,-15.808104515075684,16.4794921875,-0.5718994140625,1.0152587890625,1.1802978515625
1.953,402,2230,732,1422,13.0,30.0,9.0,31.066892623901367,43.090816497802734,-3.784179449081421,-1.0909423828125,1.158935546875,1.0650634765625
1.961,390,2207,772,1494,13.0,30.0,9.0,9.70458984375,55.908199310302734,-17.578125,-1.855712890625,1.009521484375,0.890625
1.970,387,2139,754,1468,13.0,30.0,9.0,9.70458984375,55.908199310302734,-17.578125,-2.2503662109375,0.67724609375,0.705810546875
1.983,371,2018,691,1263,13.0,30.0,9.0,-12.329100608825684,26.916501998901367,-22.399900436401367,-2.1343994140625,0.22119140625,0.588134765625
1.991,359,1959,698,1331,13.0,30.0,9.0,-12.817381858825684,5.310058116912842,-15.197752952575684,-1.7445068359375,-0.1099853515625,0.5670166015625
1.999,356,1864,683,1278,13.0,30.0,9.0,-12.817381858825684,5.310058116912842,-15.197752952575684,-1.28955078125,-0.215087890625,0.5927734375
2.017,338,1662,632,1104,13.0,30.0,9.0,13.977049827575684,-7.080077648162842,7.568358898162842,-0.8248291015625,-0.2083740234375,0.5673828125
2.025,330,1582,631,1108,13.0,30.0,9.0,24.414060592651367,-0.9765624403953552,15.869139671325684,-0.42138671875,-0.2393798828125,0.4078369140625
2.029,316,1437,603,1029,12.0,29.0,10.0,24.414060592651367,-0.9765624403953552,15.869139671325684,-0.21875,-0.19921875,0.2091064453125
2.043,291,1103,547,840,12.0,29.0,10.0,35.15625,27.343748092651367,8.72802734375,-0.20556640625,-0.028076171875,0.126708984375
2.051,282,968,579,819,12.0,29.0,10.0,38.02490234375,41.809078216552734,-2.807616949081421,-0.3035888671875,0.1221923828125,0.154052734375
2.059,280,829,594,777,12.0,29.0,10.0,38.02490234375,41.809078216552734,-2.807616949081421,-0.3035888671875,0.1221923828125,0.154052734375
2.074,277,695,590,691,12.0,29.0,10.0,17.63916015625,53.649898529052734,-20.080564498901367,-0.581298828125,0.2364501953125,0.179931640625
2.082,277,721,589,720,12.0,29.0,10.0,17.63916015625,53.649898529052734,-20.080564498901367,-0.6490478515625,0.3455810546875,0.1981201171875
2.091,274,731,571,720,12.0,29.0,10.0,8.23974609375,50.781246185302734,-19.71435546875,-0.6490478515625,0.3455810546875,0.1981201171875
2.120,274,721,551,693,12.0,29.0,10.0,-16.4794921875,30.151365280151367,-14.892577171325684,-0.6339111328125,0.37744140625,0.2288818359375
2.121,273,706,570,713,12.0,29.0,10.0,-16.4794921875,30.151365280151367,-14.892577171325684,-0.5986328125,0.2913818359375,0.2095947265625
2.121,269,779,576,705,12.0,29.0,10.0,-26.489255905151367,18.98193359375,-13.732909202575684,-0.5986328125,0.2913818359375,0.2095947265625
2.133,274,713,553,667,12.0,28.0,11.0,-12.695311546325684,10.498045921325684,-13.854979515075684,-0.498046875,0.0709228515625,0.2625732421875
2.141,269,739,566,702,12.0,28.0,11.0,-12.695311546325684,10.498045921325684,-13.854979515075684,-0.4970703125,0.0164794921875,0.326171875
2.149,268,731,574,721,12.0,28.0,11.0,-1.5258787870407104,10.131834983825684,-15.441893577575684,-0.4970703125,0.0164794921875,0.326171875
2.163,277,750,572,705,12.0,28.0,11.0,2.746581792831421,7.629394054412842,-11.230467796325684,-0.6461181640625,0.0377197265625,0.395263671875
2.173,277,754,591,740,12.0,28.0,11.0,2.746581792831421,7.629394054412842,-11.230467796325684,-0.72412109375,0.04150390625,0.390625
2.181,277,751,601,746,12.0,28.0,11.0,-1.0986328125,4.82177734375,-5.371093273162842,-0.72412109375,0.04150390625,0.390625
2.193,283,765,603,726,12.0,28.0,11.0,-0.9765624403953552,-1.7700194120407104,4.150390625,-0.8472900390625,0.05126953125,0.2900390625
2.201,286,754,630,754,12.0,28.0,11.0,-0.9765624403953552,-1.7700194120407104,4.150390625,-0.88330078125,0.0614013671875,0.236083984375
2.227,290,758,632,759,12.0,28.0,11.0,4.0283203125,-4.638671875,7.995604991912842,-0.88330078125,0.0614013671875,0.236083984375
2.228,293,785,639,744,12.0,28.0,11.0,12.268065452575684,-10.986327171325684,17.51708984375,-0.9544677734375,0.1173095703125,0.22265625
2.239,298,837,643,788,12.0,29.0,6.0,12.268065452575684,-10.986327171325684,17.51708984375,-1.0093994140625,0.1617431640625,0.272705078125
2.240,300,922,548,754,12.0,29.0,6.0,12.268065452575684,-15.624999046325684,23.376462936401367,-1.0093994140625,0.1617431640625,0.272705078125
2.253,299,907,631,754,12.0,29.0,6.0,-0.3662109076976776,-29.663084030151367,35.46142578125,-1.0921630859375,0.201904296875,0.43115234375
2.261,299,920,648,813,12.0,29.0,6.0,-0.3662109076976776,-29.663084030151367,35.46142578125,-1.07275390625,0.1597900390625,0.4656982421875
2.269,300,927,658,818,12.0,29.0,6.0,-8.85009765625,-37.109375,41.503902435302734,-1.07275390625,0.1597900390625,0.4656982421875
2.284,306,1032,661,842,12.0,29.0,6.0,-13.427733421325684,-43.640132904052734,47.851558685302734,-0.654052734375,-0.027099609375,0.3580322265625
2.291,318,1241,683,966,12.0,29.0,6.0,-11.413573265075684,-48.828121185302734,50.476070404052734,-0.654052734375,-0.027099609375,0.3580322265625
2.300,321,1490,689,998,12.0,29.0,6.0,-1.8310545682907104,-50.659175872802734,43.151851654052734,-0.2991943359375,-0.0782470703125,0.2220458984375
2.327,343,1735,646,1108,12.0,29.0,6.0,15.014647483825684,-48.095699310302734,26.184080123901367,0.4405517578125,0.382568359375,0.12060546875
2.328,348,2249,634,1251,12.0,29.0,6.0,32.04345703125,-41.992183685302734,3.173827886581421,0.4405517578125,0.382568359375,0.12060546875
2.329,378,2012,920,1138,11.0,31.0,9.0,36.4990234375,-32.16552734375,-25.939939498901367,0.7987060546875,0.790771484375,0.2252197265625
2.344,387,2170,740,1328,11.0,31.0,9.0,19.95849609375,-18.6767578125,-59.692378997802734,0.61767578125,0.8848876953125,0.6019287109375
2.351,402,2158,832,1487,11.0,31.0,9.0,-14.709471702575684,-3.173827886581421,-92.28514862060547,0.61767578125,0.8848876953125,0.6019287109375
2.360,432,2093,894,1572,11.0,31.0,9.0,-55.786128997802734,8.72802734375,-113.46434783935547,-0.5255126953125,0.4906005859375,0.8221435546875
2.373,442,2151,891,1540,11.0,31.0,9.0,-89.59960174560547,11.535643577575684,-113.83055877685547,-3.184814453125,-0.691650390625,0.5335693359375
2.381,456,2254,958,1640,11.0,31.0,9.0,-105.28563690185547,1.7089842557907104,-90.88134002685547,-3.184814453125,-0.691650390625,0.5335693359375
2.389,454,2295,935,1641,11.0,31.0,9.0,-93.13964080810547,-19.04296875,-55.114742279052734,-3.4029541015625,-0.9720458984375,0.279052734375
2.403,414,2341,830,1472,11.0,31.0,9.0,-49.621578216552734,-37.53662109375,-24.902341842651367,-1.7930908203125,-0.3531494140625,0.7791748046875
2.429,411,2375,853,1559,11.0,31.0,9.0,9.09423828125,-42.175289154052734,-4.57763671875,-1.7930908203125,-0.3531494140625,0.7791748046875
2.429,363,2448,714,1492,11.0,31.0,9.0,49.377437591552734,-26.672361373901367,8.056640625,-0.7744140625,0.1199951171875,1.049072265625
2.433,402,2337,815,1541,15.0,26.0,7.0,55.419918060302734,3.417968511581421,13.000487327575684,-0.900146484375,0.93896484375,0.926025390625
2.441,401,2308,785,1527,15.0,26.0,7.0,37.2314453125,30.883787155151367,13.122557640075684,-0.900146484375,0.93896484375,0.926025390625
2.464,401,2247,799,1529,15.0,26.0,7.0,15.502928733825684,42.419429779052734,5.676269054412842,-1.566162109375,0.90576171875,0.72607421875
2.465,390,2566,723,1464,15.0,26.0,7.0,1.8920897245407104,34.66796875,-6.408690929412842,-2.15673828125,0.1429443359375,0.6048583984375
2.471,385,2076,763,1413,15.0,26.0,7.0,-4.21142578125,14.343260765075684,-11.901854515075684,-2.15673828125,0.1429443359375,0.6048583984375
2.480,378,1983,767,1353,15.0,26.0,7.0,-1.9531248807907104,-7.507323741912842,-6.103515148162842,-1.991943359375,-0.1602783203125,0.6832275390625
2.493,359,1794,691,1162,15.0,26.0,7.0,9.46044921875,-22.460935592651367,9.3994140625,-1.2237548828125,-0.2955322265625,0.6695556640625
2.501,337,1850,591,1123,15.0,26.0,7.0,27.099607467651367,-27.770994186401367,29.907224655151367,-1.2237548828125,-0.2955322265625,0.6695556640625
2.509,331,1623,666,1122,15.0,26.0,7.0,41.381832122802734,-24.841306686401367,48.950191497802734,-0.7630615234375,-0.298095703125,0.567138671875
2.529,296,1370,558,872,13.0,29.0,10.0,43.151851654052734,-14.770506858825684,59.936519622802734,-0.454345703125,-0.2489013671875,0.4239501953125
2.532,291,1220,526,803,13.0,29.0,10.0,35.94970703125,2.197265625,59.326168060302734,-0.3302001953125,-0.04833984375,0.2821044921875
2.539,283,827,620,754,13.0,29.0,10.0,30.456541061401367,21.301267623901367,47.790523529052734,-0.3404541015625,0.183349609375,0.2059326171875
2.565,280,675,601,633,13.0,29.0,10.0,25.268552780151367,35.70556640625,29.541013717651367,-0.4207763671875,0.2821044921875,0.1529541015625
2.566,277,678,589,666,13.0,29.0,10.0,15.930174827575684,43.212886810302734,10.681151390075684,-0.5230712890625,0.2806396484375,0.1253662109375
2.569,274,689,574,648,13.0,29.0,10.0,9.33837890625,43.457027435302734,-2.868652105331421,-0.6259765625,0.322021484375,0.1881103515625
2.584,274,706,540,619,13.0,29.0,10.0,4.08935546875,36.43798828125,-11.535643577575684,-0.6407470703125,0.362060546875,0.283447265625
2.591,269,695,559,643,13.0,29.0,10.0,-4.33349609375,26.550291061401367,-17.27294921875,-0.5823974609375,0.36181640625,0.318359375
2.599,267,687,553,642,13.0,29.0,10.0,-6.958007335662842,19.775390625,-17.08984375,-0.506591796875,0.3681640625,0.321044921875
2.613,268,683,539,607,13.0,29.0,10.0,-2.44140625,16.9677734375,-11.047362327575684,-0.422607421875,0.353271484375,0.3450927734375
2.632,272,682,561,634,13.0,31.0,7.0,-0.9765624403953552,15.441893577575684,-5.310058116912842,-0.3641357421875,0.2864990234375,0.35986328125
2.632,274,692,571,644,13.0,31.0,7.0,-4.8828125,13.732909202575684,-4.21142578125,-0.3648681640625,0.17822265625,0.337158203125
2.643,274,687,567,624,13.0,31.0,7.0,-9.58251953125,12.145995140075684,-7.019042491912842,-0.43115234375,0.07666015625,0.296875
2.651,274,695,578,653,13.0,31.0,7.0,-13.000487327575684,10.864256858825684,-9.765625,-0.5413818359375,0.02294921875,0.2801513671875
2.664,272,673,578,684,13.0,31.0,7.0,-14.892577171325684,9.21630859375,-9.70458984375,-0.6478271484375,0.0211181640625,0.2974853515625
2.675,274,682,577,666,13.0,31.0,7.0,-14.282225608825684,7.080077648162842,-7.263183116912842,-0.7264404296875,0.0450439453125,0.322509765625
2.681,274,678,589,691,13.0,31.0,7.0,-11.352538108825684,4.94384765625,-4.150390625,-0.780029296875,0.0609130859375,0.3262939453125
2.689,275,683,591,694,13.0,31.0,7.0,-7.202147960662842,3.173827886581421,-1.03759765625,-0.8072509765625,0.05029296875,0.3043212890625
2.706,277,694,586,679,13.0,31.0,7.0,-2.868652105331421,1.8920897245407104,2.197265625,-0.819580078125,0.0294189453125,0.281982421875
2.712,282,712,601,707,13.0,31.0,7.0,0.6103515625,0.9765624403953552,5.615233898162842,-0.837158203125,0.0296630859375,0.2789306640625
2.735,282,733,614,721,13.0,29.0,9.0,2.929687261581421,0.9155272841453552,8.97216796875,-0.88623046875,0.05615234375,0.293701171875
2.735,290,737,636,666,13.0,29.0,9.0,4.39453125,1.4038084745407104,11.901854515075684,-0.953369140625,0.09716796875,0.3304443359375
2.742,291,765,636,725,13.0,29.0,9.0,4.94384765625,0.9765624403953552,14.343260765075684,-0.9927978515625,0.1444091796875,0.382080078125
2.749,293,780,638,746,13.0,29.0,9.0,3.845214605331421,-0.4882812201976776,16.41845703125,-1.009521484375,0.1890869140625,0.425537109375
2.772,295,815,631,737,13.0,29.0,9.0,1.6479490995407104,-2.38037109375,18.24951171875,-1.0272216796875,0.2186279296875,0.457763671875
2.772,290,861,625,777,13.0,29.0,9.0,0.0,-4.7607421875,20.080564498901367,-1.04541015625,0.2242431640625,0.482177734375
2.779,299,871,647,787,13.0,29.0,9.0,-1.5869139432907104,-8.11767578125,22.277830123901367,-1.0545654296875,0.20751953125,0.497802734375
2.793,299,895,630,757,13.0,29.0,9.0,-4.69970703125,-12.573241233825684,24.963376998901367,-1.040771484375,0.1669921875,0.492919921875
2.801,294,963,646,778,13.0,29.0,9.0,-8.60595703125,-17.7001953125,28.198240280151367,-0.9659423828125,0.0963134765625,0.4417724609375
2.810,298,1014,644,802,13.0,29.0,9.0,-9.94873046875,-22.521970748901367,31.555173873901367,-0.819580078125,0.0244140625,0.34912109375
2.839,313,1184,624,830,11.0,29.0,16.0,-5.920409679412842,-26.855466842651367,32.8369140625,-0.6103515625,-0.0098876953125,0.262939453125
2.839,316,1382,677,966,11.0,29.0,16.0,2.563476324081421,-30.273435592651367,29.541013717651367,-0.3385009765625,0.032470703125,0.2008056640625
2.840,327,1582,687,1056,11.0,29.0,16.0,11.352538108825684,-31.555173873901367,20.080564498901367,-0.0364990234375,0.1785888671875,0.1539306640625
2.853,338,1834,628,1148,11.0,29.0,16.0,16.90673828125,-30.456541061401367,3.967284917831421,0.2579345703125,0.4228515625,0.136962890625
2.861,348,1954,683,1267,11.0,29.0,16.0,14.953612327575684,-28.442380905151367,-18.4326171875,0.5352783203125,0.724365234375,0.1927490234375
2.876,361,2035,725,1335,11.0,29.0,16.0,3.051757574081421,-23.132322311401367,-48.950191497802734,0.6768798828125,0.9229736328125,0.3074951171875
2.883,388,2129,767,1357,11.0,29.0,16.0,-20.080564498901367,-12.451170921325684,-83.55712127685547,0.40576171875,0.8900146484375,0.52783203125
2.892,414,2093,858,1526,11.0,29.0,16.0,-54.870601654052734,-1.7700194120407104,-107.42186737060547,-0.5625,0.56103515625,0.8284912109375
2.901,430,2127,890,1550,11.0,29.0,16.0,-91.24755096435547,1.3427733182907104,-105.59081268310547,-1.925048828125,-0.007080078125,0.9171142578125
2.913,439,2178,918,1519,15.0,26.0,11.0,-113.76952362060547,-8.60595703125,-76.84326171875,-2.8785400390625,-0.6524658203125,0.68212890625
2.921,445,2235,952,1636,15.0,26.0,11.0,-107.48290252685547,-27.465818405151367,-40.710445404052734,-2.997314453125,-1.101806640625,0.347412109375
2.938,454,2268,938,1649,15.0,26.0,11.0,-60.852046966552734,-40.405269622802734,-19.04296875,-2.4483642578125,-1.0623779296875,0.26708984375
2.943,409,2386,849,1447,15.0,26.0,11.0,9.94873046875,-38.2080078125,-11.962889671325684,-1.677734375,-0.55029296875,0.5863037109375
2.951,409,2354,844,1569,15.0,26.0,11.0,61.401363372802734,-24.230955123901367,-5.0048828125,-1.01171875,0.1337890625,0.9771728515625
2.960,402,2341,818,1541,15.0,26.0,11.0,66.46728515625,-3.173827886581421,7.812499523162842,-0.708740234375,0.6339111328125,1.0897216796875
2.973,402,2247,763,1443,15.0,26.0,11.0,39.61181640625,18.98193359375,19.1650390625,-0.8028564453125,0.838623046875,0.8929443359375
2.983,406,2217,799,1550,15.0,26.0,11.0,9.33837890625,33.75244140625,19.775390625,-1.094970703125,0.728759765625,0.5850830078125
2.989,418,2178,799,1572,15.0,26.0,11.0,9.33837890625,33.75244140625,19.775390625,-1.50732421875,0.4273681640625,0.4844970703125
3.003,406,2072,747,1422,15.0,26.0,11.0,-11.474608421325684,24.536130905151367,0.1220703050494194,-1.8638916015625,0.1688232421875,0.6181640625
3.012,387,2010,762,1453,15.0,28.0,10.0,-7.873534679412842,4.57763671875,2.685546636581421,-1.932373046875,-0.0068359375,0.7603759765625
3.019,381,2032,780,1373,15.0,28.0,10.0,-7.873534679412842,4.57763671875,2.685546636581421,-1.6927490234375,-0.160888671875,0.7799072265625
3.042,361,1931,698,1236,15.0,28.0,10.0,10.070799827575684,-24.414060592651367,27.587888717651367,-1.240478515625,-0.234619140625,0.687744140625
3.043,360,1954,827,1237,15.0,28.0,10.0,21.972654342651367,-23.681638717651367,37.2314453125,-0.7593994140625,-0.1448974609375,0.575927734375
3.049,351,1789,691,1236,15.0,28.0,10.0,21.972654342651367,-23.681638717651367,37.2314453125,-0.461181640625,0.0108642578125,0.480224609375
3.063,334,1622,630,1082,15.0,28.0,10.0,31.372068405151367,5.554198741912842,30.212400436401367,-0.437744140625,0.1583251953125,0.412841796875
3.071,321,1488,629,1083,15.0,28.0,10.0,30.151365280151367,22.338865280151367,19.6533203125,-0.5870361328125,0.3233642578125,0.37939453125
3.079,312,1370,614,1024,15.0,28.0,10.0,30.151365280151367,22.338865280151367,19.6533203125,-0.71337890625,0.39990234375,0.3304443359375
3.093,302,1115,590,855,15.0,28.0,10.0,14.953612327575684,36.56005859375,4.7607421875,-0.7506103515625,0.3038330078125,0.2357177734375
3.105,291,978,607,829,15.0,28.0,10.0,4.57763671875,36.2548828125,-1.4648436307907104,-0.7525634765625,0.157958984375,0.1533203125
3.109,292,871,620,803,14.0,28.0,11.0,4.57763671875,36.2548828125,-1.4648436307907104,-0.756591796875,0.0579833984375,0.136962890625
3.125,290,698,638,707,14.0,28.0,11.0,-1.220703125,32.28759765625,-10.498045921325684,-0.75537109375,0.0433349609375,0.178955078125
3.144,289,673,651,723,14.0,28.0,11.0,-0.8544921278953552,29.052732467651367,-10.742186546325684,-0.7105712890625,0.102294921875,0.269287109375
3.145,266,713,619,706,14.0,28.0,11.0,-0.8544921278953552,29.052732467651367,-10.742186546325684,-0.6495361328125,0.16650390625,0.3604736328125
3.153,280,673,644,713,14.0,28.0,11.0,-10.253905296325684,22.277830123901367,-11.657713890075684,-0.623046875,0.2144775390625,0.416259765625
3.162,279,684,614,714,14.0,28.0,11.0,-15.930174827575684,19.04296875,-11.901854515075684,-0.6002197265625,0.237060546875,0.428466796875
3.169,276,684,613,714,14.0,28.0,11.0,-15.930174827575684,19.04296875,-11.901854515075684,-0.560546875,0.2152099609375,0.390625
3.183,282,707,601,702,14.0,28.0,11.0,-17.7001953125,12.512206077575684,-9.27734375,-0.5308837890625,0.1607666015625,0.3336181640625
3.196,280,725,607,740,14.0,28.0,11.0,-12.268065452575684,10.742186546325684,-9.6435546875,-0.5433349609375,0.1097412109375,0.2952880859375
3.199,289,737,625,748,14.0,28.0,11.0,-12.268065452575684,10.742186546325684,-9.6435546875,-0.60595703125,0.0771484375,0.289306640625
3.213,286,750,621,738,17.0,27.0,7.0,-2.25830078125,4.82177734375,-7.690429210662842,-0.68359375,0.0531005859375,0.2972412109375
3.221,291,748,640,757,17.0,27.0,7.0,-2.25830078125,4.82177734375,-7.690429210662842,-0.7420654296875,0.034912109375,0.29931640625
3.229,292,735,648,757,17.0,27.0,7.0,-3.051757574081421,-0.2441406100988388,-3.845214605331421,-0.7420654296875,0.034912109375,0.29931640625
3.247,296,728,644,722,17.0,27.0,7.0,-1.5258787870407104,-10.742186546325684,5.126952648162842,-0.798095703125,0.0458984375,0.2955322265625
3.251,299,733,660,761,17.0,27.0,7.0,-1.5258787870407104,-10.742186546325684,5.126952648162842,-0.8033447265625,0.048828125,0.2906494140625
3.259,299,766,678,781,17.0,27.0,7.0,1.8920897245407104,-15.319823265075684,9.3994140625,-0.8033447265625,0.048828125,0.2906494140625
3.273,304,874,658,788,17.0,27.0,7.0,6.103515148162842,-22.277830123901367,19.04296875,-0.88330078125,0.05029296875,0.2967529296875
3.281,304,922,675,844,17.0,27.0,7.0,6.103515148162842,-22.277830123901367,19.04296875,-0.9788818359375,0.0826416015625,0.3603515625
3.289,306,974,675,853,17.0,27.0,7.0,6.225585460662842,-26.855466842651367,25.146482467651367,-0.9788818359375,0.0826416015625,0.3603515625
3.303,310,1063,678,806,17.0,27.0,7.0,-4.2724609375,-42.297359466552734,39.61181640625,-1.0400390625,0.0892333984375,0.469970703125
3.312,313,1138,714,894,14.0,27.0,9.0,-4.2724609375,-42.297359466552734,39.61181640625,-0.897705078125,0.0067138671875,0.4310302734375
3.319,317,1265,725,938,14.0,27.0,9.0,-11.413573265075684,-49.926753997802734,45.288082122802734,-0.897705078125,0.0067138671875,0.4310302734375
3.355,328,1543,713,991,14.0,27.0,9.0,-7.995604991912842,-52.673336029052734,42.846675872802734,-0.3416748046875,-0.017822265625,0.2314453125
3.356,344,1711,759,1054,14.0,27.0,9.0,-7.995604991912842,-52.673336029052734,42.846675872802734,-0.0084228515625,0.14697265625,0.22314453125
3.356,346,1830,785,1183,14.0,27.0,9.0,3.906249761581421,-48.034664154052734,32.71484375,-0.0084228515625,0.14697265625,0.22314453125
3.364,361,2014,800,1185,14.0,27.0,9.0,14.953612327575684,-29.663084030151367,-14.282225608825684,0.5469970703125,0.6456298828125,0.3603515625
3.372,370,2137,846,1340,14.0,27.0,9.0,14.953612327575684,-29.663084030151367,-14.282225608825684,0.6209716796875,0.817626953125,0.4493408203125
3.380,399,2128,858,1464,14.0,27.0,9.0,6.225585460662842,-13.427733421325684,-48.339839935302734,0.6209716796875,0.817626953125,0.4493408203125
3.394,441,2133,894,1477,14.0,27.0,9.0,-35.400390625,12.084959983825684,-102.84423065185547,-0.65234375,0.61328125,0.9178466796875
3.410,454,2105,966,1624,14.0,27.0,9.0,-35.400390625,12.084959983825684,-102.84423065185547,-1.7547607421875,0.0699462890625,1.0113525390625
3.410,416,2203,917,1561,10.0,25.0,12.0,-59.204097747802734,7.202147960662842,-105.95702362060547,-1.7547607421875,0.0699462890625,1.0113525390625
3.424,464,2263,973,1557,10.0,25.0,12.0,-81.11571502685547,-14.160155296325684,-63.964839935302734,-2.73828125,-1.086669921875,0.4954833984375
3.432,468,2334,1004,1670,10.0,25.0,12.0,-81.11571502685547,-14.160155296325684,-63.964839935302734,-2.516357421875,-0.95849609375,0.415771484375
3.450,455,2330,963,1676,10.0,25.0,12.0,-52.062984466552734,-15.014647483825684,-36.9873046875,-2.516357421875,-0.95849609375,0.415771484375
3.454,439,2328,927,1669,10.0,25.0,12.0,34.7900390625,0.8544921278953552,-4.2724609375,-1.286865234375,0.3656005859375,0.84130859375
3.464,432,2319,872,1640,10.0,25.0,12.0,34.7900390625,0.8544921278953552,-4.2724609375,-0.77978515625,0.7110595703125,0.8961181640625
3.471,438,2347,853,1627,10.0,25.0,12.0,38.330078125,16.54052734375,0.1831054538488388,-0.77978515625,0.7110595703125,0.8961181640625
3.484,427,2268,815,1523,10.0,25.0,12.0,-7.324218273162842,42.480464935302734,-2.50244140625,-0.98779296875,0.506103515625,0.7227783203125
3.492,423,2247,844,1597,10.0,25.0,12.0,-7.324218273162842,42.480464935302734,-2.50244140625,-1.4171142578125,0.1304931640625,0.682861328125
3.500,418,2210,842,1584,10.0,25.0,12.0,-23.742673873901367,41.687007904052734,-7.873534679412842,-1.4171142578125,0.1304931640625,0.682861328125
3.515,406,2128,785,1445,16.0,26.0,7.0,-14.465331077575684,9.58251953125,0.4272460639476776,-1.865478515625,-0.3104248046875,0.73486328125
3.523,409,2076,806,1501,16.0,26.0,7.0,-14.465331077575684,9.58251953125,0.4272460639476776,-1.6737060546875,-0.3580322265625,0.7117919921875
3.535,402,2070,780,1478,16.0,26.0,7.0,-0.4272460639476776,-9.70458984375,17.27294921875,-1.6737060546875,-0.3580322265625,0.7117919921875
3.555,376,1957,722,1334,16.0,26.0,7.0,16.7236328125,-21.545408248901367,37.59765625,-0.719482421875,-0.152587890625,0.5245361328125
3.556,373,1914,723,1386,16.0,26.0,7.0,32.470703125,-22.644041061401367,53.955074310302734,-0.719482421875,-0.152587890625,0.5245361328125
3.560,365,1821,698,1334,16.0,26.0,7.0,40.466304779052734,-13.977049827575684,58.044429779052734,-0.40283203125,0.046630859375,0.4466552734375
3.581,348,1713,651,1185,16.0,26.0,7.0,39.24560546875,0.9765624403953552,49.682613372802734,-0.57421875,0.3209228515625,0.36767578125
3.582,334,1824,625,1220,16.0,26.0,7.0,33.38623046875,17.08984375,36.62109375,-0.57421875,0.3209228515625,0.36767578125
3.590,324,1523,640,1146,16.0,26.0,7.0,26.245115280151367,28.808591842651367,25.512693405151367,-0.777099609375,0.3709716796875,0.3287353515625
3.605,318,1306,605,992,15.0,29.0,9.0,18.12744140625,33.5693359375,17.88330078125,-0.868408203125,0.2305908203125,0.251708984375
3.612,304,1175,620,971,15.0,29.0,9.0,10.314940452575684,32.8369140625,12.145995140075684,-0.868408203125,0.2305908203125,0.251708984375
3.622,302,1065,631,918,15.0,29.0,9.0,5.0048828125,30.212400436401367,6.469726085662842,-0.8006591796875,0.0968017578125,0.2237548828125
3.634,300,890,636,814,15.0,29.0,9.0,3.112792730331421,28.381345748901367,0.9155272841453552,-0.6942138671875,-0.0570068359375,0.25390625
3.655,297,803,644,806,15.0,29.0,9.0,3.967284917831421,27.343748092651367,-3.112792730331421,-0.6942138671875,-0.0570068359375,0.25390625
3.656,306,797,617,754,15.0,29.0,9.0,7.202147960662842,26.977537155151367,-4.08935546875,-0.6729736328125,-0.01025390625,0.307373046875
3.658,292,694,634,735,15.0,29.0,9.0,10.742186546325684,26.977537155151367,-1.8920897245407104,-0.6563720703125,0.0908203125,0.3690185546875
3.672,292,675,636,693,15.0,29.0,9.0,9.27734375,26.794431686401367,1.9531248807907104,-0.6593017578125,0.17236328125,0.4202880859375
3.680,280,679,634,710,15.0,29.0,9.0,0.7324218153953552,25.756834030151367,6.042479991912842,-0.701171875,0.211181640625,0.4490966796875
3.694,282,652,614,673,15.0,29.0,9.0,-9.6435546875,22.827146530151367,10.192870140075684,-0.734619140625,0.2510986328125,0.4493408203125
3.702,276,647,618,685,14.0,29.0,8.0,-17.7001953125,18.00537109375,13.732909202575684,-0.734619140625,0.2510986328125,0.4493408203125
3.711,275,631,607,683,14.0,29.0,8.0,-23.315427780151367,13.122557640075684,14.709471702575684,-0.7176513671875,0.22314453125,0.41796875
3.718,277,683,582,667,14.0,29.0,8.0,-25.939939498901367,9.58251953125,12.207030296325684,-0.714111328125,0.176025390625,0.384033203125
3.733,274,634,597,648,14.0,29.0,8.0,-24.291990280151367,7.263183116912842,8.4228515625,-0.7388916015625,0.1513671875,0.3590087890625
3.740,275,639,601,673,14.0,29.0,8.0,-20.01953125,5.249022960662842,5.493163585662842,-0.77734375,0.146484375,0.3424072265625
3.758,275,644,593,649,14.0,29.0,8.0,-15.930174827575684,2.563476324081421,3.601073980331421,-0.8154296875,0.140869140625,0.328125
3.762,279,678,601,653,14.0,29.0,8.0,-12.512206077575684,-1.03759765625,2.13623046875,-0.8154296875,0.140869140625,0.328125
3.770,275,688,603,646,14.0,29.0,8.0,-9.27734375,-4.82177734375,1.0986328125,-0.82470703125,0.135498046875,0.330078125
3.784,280,687,601,621,14.0,29.0,8.0,-6.713866710662842,-8.1787109375,1.03759765625,-0.834228515625,0.1192626953125,0.3338623046875
3.798,279,673,624,648,14.0,29.0,8.0,-5.310058116912842,-11.657713890075684,2.38037109375,-0.8419189453125,0.101318359375,0.3291015625
3.814,280,644,631,669,13.0,29.0,13.0,-4.0283203125,-15.808104515075684,5.554198741912842,-0.840576171875,0.09033203125,0.3096923828125
3.845,289,634,642,654,13.0,29.0,13.0,-2.01416015625,-20.385740280151367,9.70458984375,-0.812744140625,0.08056640625,0.28125
3.845,294,696,660,702,13.0,29.0,13.0,0.9765624403953552,-24.536130905151367,13.366698265075684,-0.6973876953125,0.0521240234375,0.2333984375
3.846,292,753,661,740,13.0,29.0,13.0,5.065917491912842,-26.733396530151367,13.427733421325684,-0.462890625,-0.028564453125,0.1275634765625
3.861,304,1236,646,894,13.0,29.0,13.0,13.000487327575684,-25.085447311401367,8.11767578125,-0.1517333984375,-0.1024169921875,-0.0108642578125
3.861,318,1640,697,1054,13.0,29.0,13.0,27.465818405151367,-19.53125,-2.746581792831421,0.08740234375,-0.018310546875,-0.04248046875
3.862,302,1837,614,1103,13.0,29.0,13.0,40.954586029052734,-12.878417015075684,-19.10400390625,0.1107177734375,0.3485107421875,0.1619873046875
3.874,373,1891,712,1236,13.0,29.0,13.0,37.2314453125,-7.324218273162842,-38.818359375,0.109130859375,0.849609375,0.3599853515625
3.882,383,1981,803,1398,13.0,29.0,13.0,2.3193359375,-1.8310545682907104,-57.800289154052734,0.280029296875,1.0687255859375,0.438232421875
3.890,401,2047,855,1483,13.0,29.0,13.0,-49.011226654052734,1.8310545682907104,-75.74462890625,0.30078125,0.9588623046875,0.5982666015625
3.904,445,2068,891,1483,16.0,26.0,9.0,-84.83885955810547,-0.6713866591453552,-91.91893768310547,-0.351806640625,0.58251953125,0.931884765625
3.915,463,2060,978,1622,16.0,26.0,9.0,-100.89110565185547,-11.535643577575684,-99.79247283935547,-1.5482177734375,-0.1260986328125,1.176513671875
3.921,465,2093,987,1628,16.0,26.0,9.0,-105.89598846435547,-24.414060592651367,-88.98925018310547,-2.513427734375,-0.934814453125,1.0067138671875
3.928,473,2221,887,1608,16.0,26.0,9.0,-93.56688690185547,-30.944822311401367,-60.485836029052734,-2.735595703125,-1.4560546875,0.548583984375
3.942,455,2257,910,1533,16.0,26.0,9.0,-54.138179779052734,-28.625486373901367,-32.958984375,-2.4453125,-1.4056396484375,0.2421875
3.962,438,2259,947,1610,16.0,26.0,9.0,3.784179449081421,-21.240232467651367,-15.197752952575684,-1.99609375,-0.82177734375,0.358154296875
3.963,384,2598,785,1545,16.0,26.0,9.0,49.804683685302734,-14.587401390075684,2.0751953125,-1.37451171875,-0.108154296875,0.60595703125
3.972,398,2386,829,1390,16.0,26.0,9.0,62.561031341552734,-5.432128429412842,21.057126998901367,-0.8663330078125,0.4102783203125,0.782958984375
3.980,386,2349,832,1474,16.0,26.0,9.0,45.776363372802734,9.3994140625,33.0810546875,-0.7860107421875,0.6907958984375,0.8338623046875
3.994,418,2190,794,1456,16.0,23.0,6.0,17.2119140625,25.146482467651367,32.53173828125,-0.9425048828125,0.7232666015625,0.6990966796875
4.003,411,2155,835,1552,16.0,23.0,6.0,-0.2441406100988388,35.33935546875,20.385740280151367,-1.2093505859375,0.554931640625,0.578369140625
4.010,413,2235,725,1483,16.0,23.0,6.0,-3.051757574081421,34.11865234375,5.371093273162842,-1.5321044921875,0.2928466796875,0.6181640625
4.026,406,2052,780,1386,16.0,23.0,6.0,-2.624511480331421,19.95849609375,-0.4882812201976776,-1.7159423828125,0.0107421875,0.7003173828125
4.033,389,2005,793,1424,16.0,23.0,6.0,-0.3662109076976776,0.1831054538488388,5.554198741912842,-1.6820068359375,-0.219970703125,0.7076416015625
4.066,377,2012,784,1358,16.0,23.0,6.0,8.36181640625,-15.380858421325684,17.578125,-1.4591064453125,-0.3529052734375,0.6602783203125
4.066,359,1918,725,1294,16.0,23.0,6.0,23.254392623901367,-21.972654342651367,31.005857467651367,-1.115234375,-0.3729248046875,0.5975341796875
4.067,354,2213,707,1303,16.0,23.0,6.0,37.65869140625,-19.83642578125,43.395992279052734,-0.791748046875,-0.2391357421875,0.5484619140625
4.071,347,1774,695,1231,16.0,23.0,6.0,43.823238372802734,-10.314940452575684,50.170894622802734,-0.6217041015625,-0.0283203125,0.50634765625
4.085,332,1641,625,1079,16.0,23.0,6.0,40.0390625,4.08935546875,48.278804779052734,-0.6632080078125,0.1318359375,0.448974609375
4.093,322,1534,639,1081,13.0,29.0,8.0,33.38623046875,18.310546875,42.175289154052734,-0.8079833984375,0.2701416015625,0.3912353515625
4.100,313,1398,617,1010,13.0,29.0,8.0,27.893064498901367,27.893064498901367,36.4990234375,-0.8746337890625,0.3333740234375,0.3350830078125
4.114,302,1136,594,856,13.0,29.0,8.0,21.667478561401367,31.555173873901367,30.273435592651367,-0.8404541015625,0.260498046875,0.253662109375
4.123,299,989,634,859,13.0,29.0,8.0,18.12744140625,31.921384811401367,22.155759811401367,-0.760986328125,0.1373291015625,0.1722412109375
4.131,292,868,642,816,13.0,29.0,8.0,18.798828125,31.616209030151367,13.000487327575684,-0.6767578125,0.0335693359375,0.1427001953125
4.139,294,814,607,754,13.0,29.0,8.0,18.798828125,31.616209030151367,13.000487327575684,-0.630126953125,0.0418701171875,0.1810302734375
4.168,291,731,625,705,13.0,29.0,8.0,17.822265625,29.724119186401367,2.3193359375,-0.5853271484375,0.1473388671875,0.2799072265625
4.168,286,740,630,698,13.0,29.0,8.0,10.192870140075684,27.954099655151367,1.03759765625,-0.53515625,0.239013671875,0.3831787109375
4.174,286,754,628,737,13.0,29.0,8.0,-0.4882812201976776,26.245115280151367,0.7934569716453552,-0.5347900390625,0.3038330078125,0.4461669921875
4.183,282,749,619,731,13.0,29.0,8.0,-7.080077648162842,24.475095748901367,1.4648436307907104,-0.5587158203125,0.32958984375,0.4697265625
4.190,286,805,589,721,18.0,28.0,3.0,-10.314940452575684,21.789548873901367,2.38037109375,-0.5628662109375,0.29443359375,0.4365234375
4.204,289,786,605,710,18.0,28.0,3.0,-12.207030296325684,18.98193359375,1.8310545682907104,-0.5645751953125,0.216552734375,0.36376953125
4.212,287,811,625,746,18.0,28.0,3.0,-11.108397483825684,16.78466796875,-0.9765624403953552,-0.5994873046875,0.1348876953125,0.30224609375
4.221,291,814,632,754,18.0,28.0,3.0,-7.385253429412842,14.404295921325684,-4.150390625,-0.6695556640625,0.0880126953125,0.26318359375
4.234,292,829,625,735,18.0,28.0,3.0,-4.57763671875,11.291502952575684,-5.310058116912842,-0.7447509765625,0.0830078125,0.2447509765625
4.243,278,871,636,765,18.0,28.0,3.0,-3.112792730331421,7.202147960662842,-4.5166015625,-0.8018798828125,0.100830078125,0.251220703125
4.251,296,867,619,754,18.0,28.0,3.0,-3.112792730331421,7.202147960662842,-4.5166015625,-0.833984375,0.1146240234375,0.272705078125
4.271,294,830,640,737,18.0,28.0,3.0,1.03759765625,-3.479003667831421,-1.3427733182907104,-0.8487548828125,0.1103515625,0.2901611328125
4.272,296,922,652,685,18.0,28.0,3.0,2.929687261581421,-8.30078125,0.6713866591453552,-0.8592529296875,0.0914306640625,0.2918701171875
4.281,294,887,667,794,18.0,28.0,3.0,2.929687261581421,-8.30078125,0.6713866591453552,-0.8743896484375,0.0780029296875,0.2769775390625
4.294,300,947,644,808,15.0,30.0,5.0,3.723144292831421,-12.817381858825684,8.056640625,-0.9066162109375,0.0850830078125,0.277099609375
4.302,304,992,668,869,15.0,30.0,5.0,2.50244140625,-14.770506858825684,13.732909202575684,-0.95263671875,0.10693359375,0.3162841796875
4.311,307,1022,673,891,15.0,30.0,5.0,2.50244140625,-14.770506858825684,13.732909202575684,-0.9847412109375,0.119873046875,0.3687744140625
4.325,315,1056,661,869,15.0,30.0,5.0,-6.896972179412842,-23.681638717651367,26.489255905151367,-0.9931640625,0.1055908203125,0.4111328125
4.333,313,1131,689,951,15.0,30.0,5.0,-11.718749046325684,-30.395505905151367,31.921384811401367,-0.9384765625,0.057861328125,0.4278564453125
4.342,324,1243,705,1004,15.0,30.0,5.0,-11.718749046325684,-30.395505905151367,31.921384811401367,-0.75048828125,-0.0263671875,0.369384765625
4.354,336,1485,684,1055,15.0,30.0,5.0,-12.512206077575684,-42.724605560302734,30.944822311401367,-0.44189453125,-0.0704345703125,0.2340087890625
4.378,346,1634,723,1198,15.0,30.0,5.0,-1.3427733182907104,-42.846675872802734,20.385740280151367,-0.0771484375,0.0247802734375,0.1480712890625
4.379,357,1792,739,1239,15.0,30.0,5.0,-1.3427733182907104,-42.846675872802734,20.385740280151367,0.2677001953125,0.2586669921875,0.1805419921875
4.384,371,2007,792,1348,15.0,30.0,5.0,30.944822311401367,-29.174802780151367,-29.602048873901367,0.5323486328125,0.57470703125,0.2708740234375
4.392,382,2100,816,1413,13.0,27.0,9.0,25.878904342651367,-13.427733421325684,-66.2841796875,0.658447265625,0.8470458984375,0.375
4.400,398,2190,859,1476,13.0,27.0,9.0,25.878904342651367,-13.427733421325684,-66.2841796875,0.4058837890625,0.8619384765625,0.55126953125
4.415,458,2139,899,1529,13.0,27.0,9.0,-39.0625,14.892577171325684,-114.25780487060547,-0.4490966796875,0.5040283203125,0.8310546875
4.422,472,2167,992,1664,13.0,27.0,9.0,-66.83349609375,10.864256858825684,-108.15428924560547,-1.65625,-0.1717529296875,1.0069580078125
4.431,478,2192,1005,1689,13.0,27.0,9.0,-66.83349609375,10.864256858825684,-108.15428924560547,-2.6077880859375,-0.900634765625,0.85205078125
4.445,482,2268,989,1635,13.0,27.0,9.0,-82.64159393310547,-18.310546875,-48.583980560302734,-2.9405517578125,-1.3240966796875,0.44189453125
4.452,479,2379,891,1686,13.0,27.0,9.0,-42.053218841552734,-24.475095748901367,-16.7236328125,-2.804443359375,-1.0897216796875,0.27294921875
4.487,447,2341,933,1681,13.0,27.0,9.0,-42.053218841552734,-24.475095748901367,-16.7236328125,-2.804443359375,-1.0897216796875,0.27294921875
4.488,431,2348,859,1557,13.0,27.0,9.0,62.255855560302734,-20.080564498901367,25.939939498901367,-1.092529296875,0.274658203125,0.7745361328125
4.488,439,2444,777,1506,13.0,27.0,9.0,62.255855560302734,-20.080564498901367,25.939939498901367,-0.6356201171875,0.7852783203125,1.0577392578125
4.491,438,2713,794,1653,15.0,27.0,11.0,68.7255859375,-5.859374523162842,31.494138717651367,-0.6356201171875,0.7852783203125,1.0577392578125
4.504,431,2280,813,1527,15.0,27.0,11.0,11.535643577575684,23.376462936401367,13.916014671325684,-1.572998046875,0.900390625,0.86181640625
4.512,424,2240,846,1602,15.0,27.0,11.0,11.535643577575684,23.376462936401367,13.916014671325684,-1.9326171875,0.4705810546875,0.61865234375
4.520,418,2186,846,1564,15.0,27.0,11.0,-8.6669921875,21.240232467651367,1.03759765625,-1.9326171875,0.4705810546875,0.61865234375
4.534,400,2102,786,1377,15.0,27.0,11.0,-7.568358898162842,-7.385253429412842,-7.690429210662842,-1.717529296875,-0.2769775390625,0.6400146484375
4.544,391,2039,785,1411,15.0,27.0,11.0,-7.568358898162842,-7.385253429412842,-7.690429210662842,-1.437255859375,-0.3341064453125,0.7373046875
4.550,371,2012,746,1341,15.0,27.0,11.0,7.568358898162842,-17.39501953125,0.9765624403953552,-1.437255859375,-0.3341064453125,0.7373046875
4.590,348,1880,660,1182,15.0,27.0,11.0,40.893550872802734,-16.2353515625,36.31591796875,-0.748291015625,-0.2305908203125,0.5775146484375
4.591,321,1808,803,1173,15.0,27.0,11.0,40.893550872802734,-16.2353515625,36.31591796875,-0.4256591796875,-0.1729736328125,0.37841796875
4.593,332,1623,657,1120,15.0,27.0,11.0,41.870113372802734,-7.934569835662842,50.415035247802734,-0.4256591796875,-0.1729736328125,0.37841796875
4.595,319,1452,559,963,12.0,30.0,8.0,29.663084030151367,23.254392623901367,38.2080078125,-0.389892578125,0.129150390625,0.1904296875
4.602,305,1170,630,918,12.0,30.0,8.0,29.663084030151367,23.254392623901367,38.2080078125,-0.515625,0.2398681640625,0.1949462890625
4.610,299,1017,642,865,12.0,30.0,8.0,26.062009811401367,35.33935546875,23.193357467651367,-0.515625,0.2398681640625,0.1949462890625
4.624,296,837,632,739,12.0,30.0,8.0,8.36181640625,41.992183685302734,1.4648436307907104,-0.670654296875,0.19775390625,0.1734619140625
4.634,292,708,654,728,12.0,30.0,8.0,8.36181640625,41.992183685302734,1.4648436307907104,-0.6689453125,0.237548828125,0.2091064453125
4.640,292,705,644,725,12.0,30.0,8.0,6.286620616912842,39.36767578125,-2.44140625,-0.6689453125,0.237548828125,0.2091064453125
4.654,280,685,614,687,12.0,30.0,8.0,2.685546636581421,27.648923873901367,-2.25830078125,-0.6014404296875,0.2987060546875,0.3446044921875
4.662,279,691,614,707,12.0,30.0,8.0,2.685546636581421,27.648923873901367,-2.25830078125,-0.5848388671875,0.237060546875,0.40966796875
4.687,275,673,600,696,12.0,30.0,8.0,-6.225585460662842,20.812986373901367,-1.4038084745407104,-0.5848388671875,0.237060546875,0.40966796875
4.687,280,754,572,695,15.0,28.0,6.0,-12.390135765075684,16.05224609375,-0.9765624403953552,-0.537841796875,0.08984375,0.386962890625
4.693,280,702,607,720,15.0,28.0,6.0,-13.427733421325684,14.465331077575684,-2.197265625,-0.537841796875,0.08984375,0.386962890625
4.707,277,714,614,725,15.0,28.0,6.0,-9.3994140625,15.197752952575684,-4.82177734375,-0.5673828125,0.0743408203125,0.35791015625
4.714,289,744,620,708,15.0,28.0,6.0,-4.0283203125,15.747069358825684,-6.835937023162842,-0.7313232421875,0.0892333984375,0.308349609375
4.722,291,747,636,750,15.0,28.0,6.0,-1.7089842557907104,14.831542015075684,-6.530761241912842,-0.7313232421875,0.0892333984375,0.308349609375
4.730,293,750,642,753,15.0,28.0,6.0,-2.197265625,12.573241233825684,-4.638671875,-0.7913818359375,0.089111328125,0.2850341796875
4.745,299,750,642,736,15.0,28.0,6.0,-2.746581792831421,9.3994140625,-2.197265625,-0.8428955078125,0.106201171875,0.2999267578125
4.754,294,766,654,766,15.0,28.0,6.0,-2.0751953125,5.676269054412842,0.4882812201976776,-0.8428955078125,0.106201171875,0.2999267578125
4.760,297,780,661,763,15.0,28.0,6.0,-0.6713866591453552,1.2817381620407104,3.234863042831421,-0.8514404296875,0.107421875,0.2998046875
4.782,299,780,651,735,15.0,28.0,6.0,0.7324218153953552,-3.417968511581421,6.164550304412842,-0.872314453125,0.0941162109375,0.297607421875
4.782,302,819,673,767,15.0,29.0,11.0,2.44140625,-7.568358898162842,8.97216796875,-0.872314453125,0.0941162109375,0.297607421875
4.794,299,841,669,780,15.0,29.0,11.0,3.906249761581421,-10.925292015075684,11.962889671325684,-0.9073486328125,0.1044921875,0.3134765625
4.804,301,887,667,778,15.0,29.0,11.0,4.08935546875,-14.343260765075684,15.563963890075684,-0.998779296875,0.130126953125,0.3795166015625
4.816,300,942,673,800,15.0,29.0,11.0,1.6479490995407104,-18.49365234375,19.775390625,-0.998779296875,0.130126953125,0.3795166015625
4.820,300,971,673,808,15.0,29.0,11.0,-2.685546636581421,-23.559568405151367,24.597166061401367,-1.0308837890625,0.1331787109375,0.4161376953125
4.836,305,1038,658,744,15.0,29.0,11.0,-7.690429210662842,-29.541013717651367,30.334470748901367,-0.936279296875,0.07568359375,0.4119873046875
4.843,304,1091,689,815,15.0,29.0,11.0,-12.268065452575684,-36.56005859375,36.19384765625,-0.936279296875,0.07568359375,0.4119873046875
4.850,310,1184,710,855,15.0,29.0,11.0,-13.610838890075684,-43.579097747802734,39.24560546875,-0.7318115234375,-0.0146484375,0.3460693359375
4.864,321,1443,646,1000,15.0,29.0,11.0,-8.6669921875,-47.851558685302734,35.33935546875,-0.100341796875,-0.0404052734375,0.112548828125
4.886,342,1635,705,1173,15.0,29.0,11.0,3.173827886581421,-47.119136810302734,23.559568405151367,-0.100341796875,-0.0404052734375,0.112548828125
4.886,317,1996,553,1091,13.0,27.0,10.0,19.04296875,-40.832515716552734,5.126952648162842,0.19921875,0.16357421875,0.0865478515625
4.900,373,1968,764,1276,13.0,27.0,10.0,30.029294967651367,-31.066892623901367,-18.6767578125,0.5628662109375,0.88818359375,0.2945556640625
4.903,391,2087,820,1416,13.0,27.0,10.0,23.803709030151367,-21.057126998901367,-44.738765716552734,0.5628662109375,0.88818359375,0.2945556640625
4.910,402,2131,860,1483,13.0,27.0,10.0,-1.7089842557907104,-13.732909202575684,-71.1669921875,0.5101318359375,0.96630859375,0.3662109375
4.927,437,2172,917,1443,13.0,27.0,10.0,-31.494138717651367,-13.549803733825684,-93.44481658935547,-0.1837158203125,0.7987060546875,0.652099609375
4.932,438,2188,999,1575,13.0,27.0,10.0,-53.771968841552734,-24.353025436401367,-103.27147674560547,-1.4189453125,0.3299560546875,0.9853515625
4.941,441,2235,1018,1622,13.0,27.0,10.0,-73.2421875,-42.236324310302734,-95.94725799560547,-2.4844970703125,-0.5030517578125,1.0399169921875
4.949,454,2398,920,1580,13.0,27.0,10.0,-77.880859375,-55.175777435302734,-72.75390625,-2.80078125,-1.2332763671875,0.8267822265625
4.962,444,2372,1000,1544,13.0,27.0,10.0,-44.921871185302734,-50.537105560302734,-44.250484466552734,-2.3778076171875,-1.3037109375,0.596923828125
4.988,428,2395,883,1492,16.0,25.0,7.0,54.504390716552734,-8.23974609375,-13.793944358825684,-1.33056640625,0.1392822265625,0.91357421875
4.992,418,2364,907,1588,16.0,25.0,7.0,61.401363372802734,8.36181640625,-3.601073980331421,-1.0994873046875,0.7384033203125,0.9560546875
5.007,414,2337,878,1562,16.0,25.0,7.0,34.7900390625,21.850584030151367,6.042479991912842,-0.9749755859375,0.7733154296875,0.7742919921875
5.014,416,2299,899,1575,16.0,25.0,7.0,-1.4038084745407104,33.203125,9.27734375,-0.9969482421875,0.4847412109375,0.6319580078125
5.022,411,2287,853,1546,16.0,25.0,7.0,-25.573728561401367,40.161128997802734,5.615233898162842,-1.2506103515625,0.179931640625,0.6773681640625
5.030,409,2247,846,1529,16.0,25.0,7.0,-30.822751998901367,37.78076171875,2.746581792831421,-1.65380859375,0.015625,0.8460693359375
5.044,400,2162,784,1377,16.0,25.0,7.0,-25.024412155151367,23.559568405151367,8.544921875,-1.885986328125,-0.0826416015625,0.9195556640625
5.052,391,2131,803,1447,16.0,25.0,7.0,-14.831542015075684,4.0283203125,22.094724655151367,-1.8009033203125,-0.1939697265625,0.83984375
5.060,376,2093,761,1386,16.0,25.0,7.0,0.8544921278953552,-11.291502952575684,38.330078125,-1.4129638671875,-0.27734375,0.6728515625
5.089,359,2005,673,1231,15.0,27.0,3.0,19.775390625,-17.02880859375,51.147457122802734,-0.8809814453125,-0.2183837890625,0.5048828125
5.089,359,1925,689,989,15.0,27.0,3.0,33.26416015625,-12.573241233825684,53.955074310302734,-0.479248046875,-0.0360107421875,0.386474609375
5.090,348,1943,723,898,15.0,27.0,3.0,34.60693359375,-0.3662109076976776,45.837398529052734,-0.3592529296875,0.1278076171875,0.3175048828125
5.113,330,1656,625,1064,15.0,27.0,3.0,27.343748092651367,13.610838890075684,33.75244140625,-0.4754638671875,0.2696533203125,0.29345703125
5.113,323,1534,646,1081,15.0,27.0,3.0,17.2119140625,23.803709030151367,25.207517623901367,-0.64453125,0.367431640625,0.2943115234375
5.120,317,1415,625,1027,15.0,27.0,3.0,5.126952648162842,28.259275436401367,21.057126998901367,-0.7166748046875,0.3125,0.27294921875
5.134,306,1202,603,887,15.0,27.0,3.0,-5.310058116912842,28.747556686401367,17.822265625,-0.7196044921875,0.1534423828125,0.220947265625
5.143,304,1079,629,894,15.0,27.0,3.0,-7.507323741912842,28.259275436401367,14.038084983825684,-0.7125244140625,0.0216064453125,0.1761474609375
5.154,310,986,653,859,15.0,27.0,3.0,-2.746581792831421,27.954099655151367,10.681151390075684,-0.687255859375,-0.0400390625,0.17333984375
5.164,302,883,658,815,15.0,27.0,3.0,2.929687261581421,26.855466842651367,8.23974609375,-0.646240234375,-0.0052490234375,0.230712890625
5.172,300,840,673,803,14.0,27.0,3.0,6.835937023162842,24.841306686401367,6.713866710662842,-0.6075439453125,0.095458984375,0.338623046875
5.192,302,803,673,788,14.0,27.0,3.0,7.019042491912842,22.949216842651367,5.493163585662842,-0.5858154296875,0.1707763671875,0.425537109375
5.194,336,846,675,794,14.0,27.0,3.0,3.051757574081421,22.399900436401367,4.39453125,-0.606201171875,0.2056884765625,0.4443359375
5.202,299,761,678,779,14.0,27.0,3.0,-1.220703125,22.460935592651367,4.57763671875,-0.6580810546875,0.2374267578125,0.4351806640625
5.212,300,751,683,778,14.0,27.0,3.0,-3.784179449081421,20.874021530151367,6.225585460662842,-0.703857421875,0.2640380859375,0.4327392578125
5.224,302,774,666,753,14.0,27.0,3.0,-5.920409679412842,17.2119140625,7.324218273162842,-0.7254638671875,0.249267578125,0.4278564453125
5.232,299,794,679,797,14.0,27.0,3.0,-7.934569835662842,12.756346702575684,6.042479991912842,-0.7340087890625,0.1829833984375,0.3974609375
5.240,300,820,679,806,14.0,27.0,3.0,-8.30078125,8.7890625,3.173827886581421,-0.7513427734375,0.1087646484375,0.350830078125
5.255,306,846,657,806,14.0,27.0,3.0,-6.469726085662842,5.432128429412842,0.9155272841453552,-0.7818603515625,0.0711669921875,0.3177490234375
5.266,306,894,669,845,14.0,27.0,3.0,-3.356933355331421,2.38037109375,0.3662109076976776,-0.8153076171875,0.0830078125,0.3189697265625
5.270,308,885,678,853,12.0,28.0,6.0,-0.1831054538488388,-1.03759765625,0.9155272841453552,-0.8455810546875,0.1241455078125,0.35107421875
5.293,313,910,666,832,12.0,28.0,6.0,1.9531248807907104,-5.126952648162842,1.6479490995407104,-0.867431640625,0.153076171875,0.3792724609375
5.294,323,1029,630,809,12.0,28.0,6.0,2.44140625,-8.9111328125,2.25830078125,-0.886474609375,0.1539306640625,0.3817138671875
5.301,313,986,631,858,12.0,28.0,6.0,2.01416015625,-11.657713890075684,3.417968511581421,-0.9189453125,0.1500244140625,0.3787841796875
5.315,306,952,647,829,12.0,28.0,6.0,0.6103515625,-14.160155296325684,6.225585460662842,-0.9591064453125,0.1488037109375,0.38720703125
5.328,304,990,654,853,12.0,28.0,6.0,-2.746581792831421,-17.4560546875,11.047362327575684,-0.979736328125,0.1343994140625,0.3983154296875
5.330,296,1091,603,815,12.0,28.0,6.0,-7.202147960662842,-21.606443405151367,17.7001953125,-0.9693603515625,0.1044921875,0.410888671875
5.344,307,1005,653,829,12.0,28.0,6.0,-10.131834983825684,-26.245115280151367,24.780271530151367,-0.8887939453125,0.0540771484375,0.4134521484375
5.353,313,1097,678,913,12.0,28.0,6.0,-9.8876953125,-30.639646530151367,28.930662155151367,-0.697265625,-0.029541015625,0.3599853515625
5.360,321,1236,682,976,12.0,28.0,6.0,-4.638671875,-33.3251953125,26.428220748901367,-0.461181640625,-0.083251953125,0.2530517578125
5.378,334,1540,682,1054,15.0,31.0,9.0,6.347655773162842,-33.14208984375,18.1884765625,-0.20263671875,-0.013916015625,0.1600341796875
5.399,348,1722,725,1220,15.0,31.0,9.0,18.6767578125,-28.930662155151367,5.798339366912842,0.0703125,0.17822265625,0.1397705078125
5.400,323,2074,593,1264,15.0,31.0,9.0,18.6767578125,-28.930662155151367,5.798339366912842,0.32177734375,0.4490966796875,0.165771484375
5.404,387,2035,794,1316,15.0,31.0,9.0,12.512206077575684,-11.535643577575684,-36.92626953125,0.538818359375,0.7314453125,0.22265625
5.413,404,2108,860,1467,15.0,31.0,9.0,-8.85009765625,-2.01416015625,-64.63623046875,0.564697265625,0.8751220703125,0.386962890625
5.420,423,2150,891,1561,15.0,31.0,9.0,-8.85009765625,-2.01416015625,-64.63623046875,-0.002685546875,0.7359619140625,0.7667236328125
5.434,465,2230,971,1635,15.0,31.0,9.0,-62.744136810302734,9.765625,-102.72216033935547,-1.19091796875,0.280517578125,1.1270751953125
5.442,473,2194,1022,1665,15.0,31.0,9.0,-88.92821502685547,5.0048828125,-89.84374237060547,-2.343505859375,-0.4332275390625,1.1070556640625
5.451,470,2224,1012,1691,15.0,31.0,9.0,-88.92821502685547,5.0048828125,-89.84374237060547,-2.845458984375,-1.1177978515625,0.7039794921875
5.465,479,2284,957,1608,15.0,26.0,9.0,-83.98436737060547,-16.05224609375,-18.6767578125,-2.662109375,-1.2979736328125,0.2618408203125
5.473,479,2372,889,1686,16.0,26.0,9.0,-28.259275436401367,-20.263669967651367,2.990722417831421,-2.078125,-0.84228515625,0.2286376953125
5.480,458,2293,949,1721,16.0,26.0,9.0,-28.259275436401367,-20.263669967651367,2.990722417831421,-1.3203125,-0.0986328125,0.583740234375
5.499,455,2287,859,1588,16.0,26.0,9.0,70.98388671875,-10.253905296325684,14.526366233825684,-0.7781982421875,0.5726318359375,0.9571533203125
5.502,441,2287,878,1675,16.0,26.0,9.0,62.438961029052734,7.324218273162842,15.869139671325684,-0.715576171875,0.933837890625,1.033935546875
5.510,438,2240,874,1669,16.0,26.0,9.0,62.438961029052734,7.324218273162842,15.869139671325684,-0.9951171875,0.86767578125,0.8060302734375
5.525,440,2197,840,1545,16.0,26.0,9.0,-2.197265625,34.85107421875,5.493163585662842,-1.424560546875,0.5360107421875,0.6063232421875
5.539,430,2162,858,1613,16.0,26.0,9.0,-14.160155296325684,27.404783248901367,-2.13623046875,-1.79150390625,0.1629638671875,0.6055908203125
5.540,427,2089,858,1540,16.0,26.0,9.0,-14.160155296325684,27.404783248901367,-2.13623046875,-1.9129638671875,-0.1422119140625,0.6883544921875
5.554,404,1999,790,1422,16.0,26.0,9.0,-8.85009765625,-14.526366233825684,11.108397483825684,-1.7515869140625,-0.3299560546875,0.73583984375
5.562,388,2018,779,1439,16.0,26.0,9.0,7.751464366912842,-27.526853561401367,28.442380905151367,-1.3482666015625,-0.3944091796875,0.7015380859375
5.572,377,1959,735,1409,13.0,30.0,7.0,7.751464366912842,-27.526853561401367,28.442380905151367,-0.8453369140625,-0.2777099609375,0.6094970703125
5.592,359,1892,673,1220,13.0,30.0,7.0,45.104976654052734,-21.667478561401367,52.307125091552734,-0.4681396484375,-0.044921875,0.4892578125
5.606,348,1824,679,1241,13.0,30.0,7.0,45.471187591552734,-5.554198741912842,47.058101654052734,-0.3740234375,0.115478515625,0.3734130859375
5.607,330,1762,605,1173,13.0,30.0,7.0,45.471187591552734,-5.554198741912842,47.058101654052734,-0.3740234375,0.115478515625,0.3734130859375
5.614,324,1529,630,1038,13.0,30.0,7.0,28.503416061401367,26.672361373901367,26.794431686401367,-0.6695556640625,0.3345947265625,0.328125
5.623,316,1369,634,1026,13.0,30.0,7.0,28.503416061401367,26.672361373901367,26.794431686401367,-0.7451171875,0.3165283203125,0.3013916015625
5.630,313,1214,630,963,13.0,30.0,7.0,16.7236328125,33.14208984375,22.460935592651367,-0.7451171875,0.3165283203125,0.3013916015625
5.645,304,996,632,840,13.0,30.0,7.0,-0.1220703050494194,31.799314498901367,11.474608421325684,-0.78369140625,0.1197509765625,0.17529296875
5.652,304,871,654,815,13.0,30.0,7.0,-0.1220703050494194,31.799314498901367,11.474608421325684,-0.773193359375,0.1065673828125,0.1981201171875
5.660,299,744,675,766,13.0,30.0,7.0,4.69970703125,28.442380905151367,5.737304210662842,-0.773193359375,0.1065673828125,0.1981201171875
5.676,291,646,653,700,13.0,31.0,9.0,15.624999046325684,20.996091842651367,2.3193359375,-0.642822265625,0.137451171875,0.3570556640625
5.682,290,657,654,720,13.0,31.0,9.0,15.624999046325684,20.996091842651367,2.3193359375,-0.62158203125,0.14794921875,0.425048828125
5.703,280,646,642,707,13.0,31.0,9.0,12.207030296325684,19.1650390625,2.13623046875,-0.62158203125,0.14794921875,0.425048828125
5.704,279,666,600,659,13.0,31.0,9.0,-5.859374523162842,15.319823265075684,5.554198741912842,-0.6201171875,0.1942138671875,0.49072265625
5.716,277,669,623,714,13.0,31.0,9.0,-5.859374523162842,15.319823265075684,5.554198741912842,-0.5972900390625,0.17138671875,0.4620361328125
5.721,280,684,617,713,13.0,31.0,9.0,-13.854979515075684,13.427733421325684,7.080077648162842,-0.5972900390625,0.17138671875,0.4620361328125
5.734,279,710,598,697,13.0,31.0,9.0,-9.82666015625,12.939452171325684,3.479003667831421,-0.657470703125,0.1673583984375,0.3997802734375
5.742,277,720,617,730,13.0,31.0,9.0,-9.82666015625,12.939452171325684,3.479003667831421,-0.7169189453125,0.176025390625,0.3758544921875
5.752,280,714,618,733,13.0,31.0,9.0,-2.990722417831421,11.535643577575684,1.03759765625,-0.7169189453125,0.176025390625,0.3758544921875
5.765,286,722,621,710,15.0,27.0,12.0,1.6479490995407104,5.371093273162842,-2.0751953125,-0.7857666015625,0.1668701171875,0.3375244140625
5.772,292,778,607,707,15.0,27.0,12.0,1.6479490995407104,5.371093273162842,-2.0751953125,-0.805419921875,0.164306640625,0.32958984375
5.780,289,722,648,744,15.0,27.0,12.0,1.9531248807907104,1.9531248807907104,-2.44140625,-0.805419921875,0.164306640625,0.32958984375
5.807,296,731,644,713,15.0,27.0,12.0,0.7324218153953552,-3.479003667831421,-0.1831054538488388,-0.822509765625,0.1337890625,0.30615234375
5.808,296,737,673,748,15.0,27.0,12.0,0.7324218153953552,-3.479003667831421,-0.1831054538488388,-0.83203125,0.11279296875,0.3109130859375
5.810,277,818,644,734,15.0,27.0,12.0,-0.1831054538488388,-5.249022960662842,2.01416015625,-0.83203125,0.11279296875,0.3109130859375
5.831,299,827,654,741,15.0,27.0,12.0,0.0610351525247097,-6.713866710662842,4.82177734375,-0.86767578125,0.0975341796875,0.330322265625
5.832,292,910,654,773,15.0,27.0,12.0,0.9155272841453552,-8.056640625,7.812499523162842,-0.86767578125,0.0975341796875,0.330322265625
5.840,296,944,653,788,15.0,27.0,12.0,1.5869139432907104,-10.070799827575684,11.047362327575684,-0.9058837890625,0.113525390625,0.339599609375
5.858,296,1000,625,761,15.0,27.0,12.0,0.9155272841453552,-13.427733421325684,14.770506858825684,-0.974365234375,0.1512451171875,0.3790283203125
5.862,296,1081,653,780,14.0,29.0,8.0,-1.5258787870407104,-18.310546875,19.287109375,-0.974365234375,0.1512451171875,0.3790283203125
5.870,300,1107,646,841,14.0,29.0,8.0,-5.310058116912842,-24.475095748901367,24.230955123901367,-0.9449462890625,0.1439208984375,0.4024658203125
5.885,310,1302,648,895,14.0,29.0,8.0,-8.48388671875,-31.494138717651367,28.015134811401367,-0.6158447265625,0.0269775390625,0.3807373046875
5.909,323,1488,678,1022,14.0,29.0,8.0,-8.7890625,-37.59765625,27.709959030151367,-0.6158447265625,0.0269775390625,0.3807373046875
5.909,332,1659,696,1120,14.0,29.0,8.0,-4.33349609375,-40.466304779052734,21.728513717651367,-0.3074951171875,0.0096435546875,0.29541015625
5.916,354,1895,710,1267,14.0,29.0,8.0,5.554198741912842,-38.39111328125,8.6669921875,0.38037109375,0.267822265625,0.18017578125
5.922,374,2035,761,1348,14.0,29.0,8.0,17.2119140625,-30.639646530151367,-13.732909202575684,0.38037109375,0.267822265625,0.18017578125
5.930,376,2108,814,1409,14.0,29.0,8.0,22.277830123901367,-17.333984375,-43.518062591552734,0.641357421875,0.5291748046875,0.244140625
5.944,417,2247,829,1443,14.0,29.0,8.0,12.756346702575684,0.1831054538488388,-74.462890625,0.32568359375,0.7249755859375,0.7681884765625
5.952,442,2233,936,1634,14.0,29.0,8.0,-15.502928733825684,16.9677734375,-97.71727752685547,0.32568359375,0.7249755859375,0.7681884765625
5.964,455,2261,975,1662,15.0,27.0,5.0,-53.344722747802734,25.024412155151367,-104.24803924560547,-0.7030029296875,0.40869140625,1.0660400390625
5.975,465,2333,978,1580,15.0,27.0,5.0,-81.23778533935547,22.155759811401367,-93.87206268310547,-2.9217529296875,-0.7623291015625,0.68701171875
5.982,479,2396,1025,1715,15.0,27.0,5.0,-88.50096893310547,11.108397483825684,-72.3876953125,-2.9217529296875,-0.7623291015625,0.68701171875
5.990,478,2368,1018,1746,15.0,27.0,5.0,-71.2890625,-3.784179449081421,-46.874996185302734,-3.12939453125,-1.03857421875,0.18115234375
6.011,462,2375,900,1595,15.0,27.0,5.0,-29.418943405151367,-16.4794921875,-24.719236373901367,-1.8382568359375,-0.292236328125,0.391845703125
6.012,468,2456,801,1560,15.0,27.0,5.0,19.04296875,-25.512693405151367,-6.469726085662842,-1.8382568359375,-0.292236328125,0.391845703125
6.034,462,2321,913,1744,15.0,27.0,5.0,49.011226654052734,-24.780271530151367,8.72802734375,-0.8953857421875,0.193603515625,0.8013916015625
6.035,462,2333,846,1616,15.0,27.0,5.0,53.894039154052734,-9.521484375,18.61572265625,-0.9071044921875,0.904541015625,1.1275634765625
6.044,442,2319,879,1700,15.0,27.0,5.0,36.07177734375,10.803221702575684,20.629880905151367,-0.9071044921875,0.904541015625,1.1275634765625
6.072,434,2287,855,1676,15.0,27.0,5.0,10.131834983825684,22.888181686401367,14.099120140075684,-1.46728515625,0.79345703125,0.935791015625
6.074,430,2178,829,1535,16.0,26.0,11.0,-8.544921875,20.751951217651367,4.0283203125,-1.8238525390625,0.4261474609375,0.6973876953125
6.074,430,2104,810,1492,16.0,26.0,11.0,-18.37158203125,6.652831554412842,-2.197265625,-1.887451171875,0.0087890625,0.5777587890625
6.083,411,2060,840,1516,16.0,26.0,11.0,-16.6015625,-11.291502952575684,0.54931640625,-1.735595703125,-0.2293701171875,0.5924072265625
6.090,409,2117,707,1409,16.0,26.0,11.0,-2.0751953125,-23.498533248901367,12.023924827575684,-1.44970703125,-0.29931640625,0.623046875
6.118,373,1943,720,1280,16.0,26.0,11.0,19.53125,-26.123044967651367,27.709959030151367,-1.0592041015625,-0.286865234375,0.5732421875
6.119,369,2003,808,1377,16.0,26.0,11.0,37.59765625,-21.362302780151367,42.480464935302734,-0.6488037109375,-0.214111328125,0.4853515625
6.124,347,1762,694,1198,16.0,26.0,11.0,43.518062591552734,-11.291502952575684,50.659175872802734,-0.36328125,-0.092041015625,0.4014892578125
6.133,332,1640,683,1134,16.0,26.0,11.0,37.17041015625,4.150390625,47.912593841552734,-0.299560546875,0.0838623046875,0.336669921875
6.140,327,1523,667,1078,16.0,26.0,11.0,26.916501998901367,21.118162155151367,36.80419921875,-0.377685546875,0.2568359375,0.3140869140625
6.154,313,1320,623,907,12.0,27.0,4.0,17.822265625,34.11865234375,22.949216842651367,-0.47265625,0.3031005859375,0.3095703125
6.168,308,1198,642,912,12.0,27.0,4.0,8.9111328125,41.564937591552734,9.8876953125,-0.5648193359375,0.24609375,0.26904296875
6.178,306,1120,646,883,12.0,27.0,4.0,1.5258787870407104,44.616695404052734,0.0610351525247097,-0.636962890625,0.1680908203125,0.2078857421875
6.187,302,1009,658,794,12.0,27.0,4.0,-0.4882812201976776,43.823238372802734,-5.432128429412842,-0.68408203125,0.1181640625,0.19189453125
6.192,304,922,673,811,12.0,27.0,4.0,3.479003667831421,39.6728515625,-6.774901866912842,-0.718017578125,0.1383056640625,0.2327880859375
6.216,300,865,679,794,12.0,27.0,4.0,7.568358898162842,33.38623046875,-5.554198741912842,-0.7125244140625,0.165283203125,0.3070068359375
6.217,296,806,673,688,12.0,27.0,4.0,6.652831554412842,26.916501998901367,-4.2724609375,-0.67578125,0.1575927734375,0.36279296875
6.222,296,800,668,731,12.0,27.0,4.0,2.685546636581421,22.155759811401367,-3.601073980331421,-0.6646728515625,0.1434326171875,0.3974609375
6.230,296,793,666,713,12.0,27.0,4.0,0.8544921278953552,19.04296875,-2.807616949081421,-0.67578125,0.140380859375,0.4437255859375
6.244,296,816,644,692,12.0,27.0,4.0,0.6713866591453552,16.29638671875,-1.3427733182907104,-0.6900634765625,0.1431884765625,0.482177734375
6.252,293,894,667,705,15.0,28.0,10.0,-0.1831054538488388,13.916014671325684,0.2441406100988388,-0.704345703125,0.136474609375,0.4786376953125
6.260,293,871,654,747,15.0,28.0,10.0,-1.8920897245407104,12.390135765075684,0.8544921278953552,-0.7259521484375,0.10791015625,0.42919921875
6.320,280,999,632,720,15.0,28.0,10.0,-1.03759765625,10.314940452575684,1.220703125,-0.841796875,0.065185546875,0.344482421875
6.321,296,968,671,728,15.0,28.0,10.0,2.13623046875,7.873534679412842,2.868652105331421,-0.89697265625,0.0958251953125,0.3485107421875
6.321,300,936,656,765,15.0,28.0,10.0,4.638671875,3.845214605331421,5.0048828125,-0.92822265625,0.1346435546875,0.3624267578125
6.321,290,1012,636,725,15.0,28.0,10.0,4.8828125,-0.7324218153953552,6.713866710662842,-0.9354248046875,0.15673828125,0.3726806640625
6.321,299,958,669,780,15.0,28.0,10.0,3.601073980331421,-4.638671875,7.690429210662842,-0.929931640625,0.159423828125,0.37255859375
6.335,294,894,639,735,15.0,28.0,10.0,2.0751953125,-8.11767578125,8.23974609375,-0.9268798828125,0.1549072265625,0.364501953125
6.342,294,889,646,759,15.0,28.0,10.0,1.5869139432907104,-11.840819358825684,8.7890625,-0.9305419921875,0.153076171875,0.3585205078125
6.350,295,855,656,750,14.0,29.0,6.0,2.197265625,-16.41845703125,9.58251953125,-0.9378662109375,0.15185546875,0.355712890625
6.364,294,829,628,702,14.0,29.0,6.0,3.173827886581421,-21.423337936401367,10.681151390075684,-0.9417724609375,0.1463623046875,0.3538818359375
6.372,291,811,636,728,14.0,29.0,6.0,3.967284917831421,-26.245115280151367,12.390135765075684,-0.93798828125,0.136474609375,0.3582763671875
6.380,289,802,631,713,14.0,29.0,6.0,5.065917491912842,-30.517576217651367,14.709471702575684,-0.929931640625,0.1309814453125,0.3656005859375
6.397,289,829,607,683,14.0,29.0,6.0,6.774901866912842,-34.423828125,17.333984375,-0.9063720703125,0.1312255859375,0.3626708984375
6.402,289,853,629,732,14.0,29.0,6.0,8.6669921875,-38.330078125,19.4091796875,-0.8165283203125,0.1182861328125,0.3333740234375
6.420,292,899,636,763,14.0,29.0,6.0,9.765625,-41.687007904052734,19.4091796875,-0.622314453125,0.075439453125,0.2642822265625
6.424,300,1260,632,938,14.0,29.0,6.0,10.681151390075684,-43.273921966552734,15.747069358825684,-0.3359375,0.0166015625,0.1558837890625
6.432,313,1584,607,1070,14.0,29.0,6.0,13.610838890075684,-42.480464935302734,8.23974609375,0.021728515625,-0.0079345703125,0.0577392578125
6.440,324,1824,631,1189,14.0,29.0,6.0,20.568845748901367,-39.24560546875,-3.967284917831421,0.4112548828125,0.0740966796875,0.0289306640625
6.454,348,2141,630,1239,17.0,27.0,12.0,28.381345748901367,-32.470703125,-24.291990280151367,0.7933349609375,0.312744140625,0.128173828125
6.462,369,2205,731,1409,17.0,27.0,12.0,26.550291061401367,-19.83642578125,-55.786128997802734,1.131103515625,0.634033203125,0.3292236328125
6.470,371,2382,794,1422,17.0,27.0,12.0,7.263183116912842,3.295898199081421,-94.78759002685547,1.1376953125,0.807861328125,0.571533203125
6.484,444,2374,864,1549,17.0,27.0,12.0,-28.930662155151367,32.04345703125,-126.22069549560547,0.3756103515625,0.785888671875,0.834228515625
6.493,473,2321,968,1722,17.0,27.0,12.0,-69.9462890625,49.987789154052734,-135.986328125,-1.205810546875,0.47412109375,0.9736328125
6.524,490,2384,998,1744,17.0,27.0,12.0,-99.60936737060547,45.654293060302734,-124.81688690185547,-2.8486328125,-0.203125,0.810302734375
6.524,493,2395,1034,1427,17.0,27.0,12.0,-111.38915252685547,19.1650390625,-98.44969940185547,-3.6268310546875,-1.0130615234375,0.375244140625
6.525,482,2930,1083,1945,17.0,27.0,12.0,-89.84374237060547,-15.502928733825684,-64.02587890625,-3.3900146484375,-1.3924560546875,0.174072265625
6.530,484,2591,1014,1788,17.0,27.0,12.0,-89.84374237060547,-15.502928733825684,-64.02587890625,-2.563232421875,-1.05126953125,0.5194091796875
6.545,468,2541,923,1669,15.0,27.0,10.0,28.991697311401367,-48.706050872802734,-5.981444835662842,-1.5135498046875,-0.4234619140625,0.945068359375
6.552,464,2552,922,1761,15.0,27.0,10.0,59.082027435302734,-27.770994186401367,12.573241233825684,-0.739013671875,0.2047119140625,1.1724853515625
6.560,438,2591,907,1715,15.0,27.0,10.0,59.082027435302734,-27.770994186401367,12.573241233825684,-0.626220703125,0.770751953125,1.172607421875
6.575,470,2456,860,1669,15.0,27.0,10.0,29.785154342651367,48.828121185302734,24.963376998901367,-0.9295654296875,0.99853515625,0.87890625
6.582,461,2440,883,1759,15.0,27.0,10.0,-4.08935546875,66.7724609375,8.23974609375,-1.454833984375,0.729736328125,0.62646484375
6.590,440,2443,879,1709,15.0,27.0,10.0,-4.08935546875,66.7724609375,8.23974609375,-2.0040283203125,0.199951171875,0.5958251953125
6.604,430,2379,830,1648,15.0,27.0,10.0,-33.75244140625,34.7900390625,-17.51708984375,-2.2239990234375,-0.3201904296875,0.576171875
6.628,427,2319,844,1624,15.0,27.0,10.0,-23.742673873901367,5.554198741912842,-4.08935546875,-2.07373046875,-0.6375732421875,0.575927734375
6.629,411,2296,829,1455,15.0,27.0,10.0,-23.742673873901367,5.554198741912842,-4.08935546875,-1.727294921875,-0.60546875,0.67138671875
6.634,385,2190,745,1452,15.0,27.0,10.0,22.033689498901367,-36.7431640625,48.828121185302734,-1.272705078125,-0.37451171875,0.68212890625
6.643,378,2128,737,1411,16.0,28.0,9.0,39.00146484375,-40.161128997802734,74.03564453125,-0.7723388671875,-0.1959228515625,0.5426025390625
6.650,359,2072,695,1343,16.0,28.0,9.0,39.00146484375,-40.161128997802734,74.03564453125,-0.346435546875,-0.0546875,0.3892822265625
6.665,345,1904,613,1173,16.0,28.0,9.0,60.424800872802734,-18.24951171875,87.34130096435547,-0.0921630859375,0.10498046875,0.283447265625
6.672,332,1742,616,1167,16.0,28.0,9.0,55.114742279052734,-1.5258787870407104,70.12939453125,-0.0982666015625,0.279052734375,0.2359619140625
6.681,316,1555,607,1074,16.0,28.0,9.0,55.114742279052734,-1.5258787870407104,70.12939453125,-0.28955078125,0.4237060546875,0.2196044921875
6.694,289,1316,601,923,16.0,28.0,9.0,32.16552734375,27.099607467651367,16.357421875,-0.50244140625,0.415283203125,0.193115234375
6.702,300,1134,614,897,16.0,28.0,9.0,22.766111373901367,33.26416015625,-4.69970703125,-0.693359375,0.293212890625,0.1416015625
6.710,292,1010,616,842,16.0,28.0,9.0,22.766111373901367,33.26416015625,-4.69970703125,-0.8101806640625,0.2083740234375,0.099609375
6.733,292,849,607,746,16.0,28.0,9.0,15.258788108825684,30.029294967651367,-18.24951171875,-0.78076171875,0.1585693359375,0.1302490234375
6.733,290,808,631,777,16.0,28.0,9.0,16.4794921875,25.695798873901367,-12.268065452575684,-0.690185546875,0.1273193359375,0.2110595703125
6.740,292,786,631,744,16.0,29.0,8.0,16.4794921875,25.695798873901367,-12.268065452575684,-0.6448974609375,0.122802734375,0.304931640625
6.754,280,737,603,684,16.0,29.0,8.0,19.4091796875,21.118162155151367,4.0283203125,-0.6090087890625,0.11376953125,0.400146484375
6.762,282,706,617,707,16.0,29.0,8.0,19.4091796875,21.118162155151367,4.0283203125,-0.5721435546875,0.087158203125,0.46923828125
6.770,282,711,617,711,16.0,29.0,8.0,13.671874046325684,17.333984375,8.60595703125,-0.5721435546875,0.087158203125,0.46923828125
6.786,289,738,601,696,16.0,29.0,8.0,-1.5869139432907104,10.009765625,6.958007335662842,-0.5721435546875,0.0887451171875,0.44677734375
6.793,280,794,620,706,16.0,29.0,8.0,-1.5869139432907104,10.009765625,6.958007335662842,-0.637939453125,0.1199951171875,0.401123046875
6.801,289,784,620,737,16.0,29.0,8.0,-2.197265625,9.33837890625,4.0283203125,-0.637939453125,0.1199951171875,0.401123046875
6.831,292,845,607,685,16.0,29.0,8.0,-0.6103515625,4.69970703125,3.479003667831421,-0.78662109375,0.1259765625,0.361572265625
6.831,292,849,634,711,16.0,29.0,8.0,-0.6103515625,4.69970703125,3.479003667831421,-0.819091796875,0.1114501953125,0.34619140625
6.832,292,938,600,702,16.0,29.0,8.0,-2.746581792831421,0.54931640625,3.906249761581421,-0.819091796875,0.1114501953125,0.34619140625
6.844,292,891,625,713,14.0,28.0,7.0,0.4272460639476776,-7.324218273162842,5.126952648162842,-0.85107421875,0.11181640625,0.3284912109375
6.852,293,918,644,759,14.0,28.0,7.0,0.4272460639476776,-7.324218273162842,5.126952648162842,-0.88330078125,0.123046875,0.332275390625
6.860,294,944,644,767,14.0,28.0,7.0,4.39453125,-10.742186546325684,6.286620616912842,-0.88330078125,0.123046875,0.332275390625
6.874,299,962,619,772,14.0,28.0,7.0,5.981444835662842,-17.822265625,9.3994140625,-0.9727783203125,0.1705322265625,0.3675537109375
6.882,299,978,627,816,14.0,28.0,7.0,5.981444835662842,-17.822265625,9.3994140625,-1.0079345703125,0.1929931640625,0.3837890625
6.890,294,987,630,815,14.0,28.0,7.0,4.57763671875,-21.667478561401367,11.596678733825684,-1.0079345703125,0.1929931640625,0.3837890625
6.904,294,1050,598,738,14.0,28.0,7.0,-1.3427733182907104,-29.174802780151367,17.02880859375,-1.0159912109375,0.17578125,0.39990234375
6.912,292,989,607,775,14.0,28.0,7.0,-1.3427733182907104,-29.174802780151367,17.02880859375,-0.9805908203125,0.15771484375,0.4036865234375
6.933,289,1029,594,759,14.0,28.0,7.0,-5.798339366912842,-32.5927734375,20.080564498901367,-0.9805908203125,0.15771484375,0.4036865234375
6.934,316,1122,696,766,14.0,28.0,7.0,-10.925292015075684,-40.527339935302734,24.047849655151367,-0.6973876953125,0.1075439453125,0.3536376953125
6.942,300,1222,642,853,11.0,26.0,11.0,-10.925292015075684,-40.527339935302734,24.047849655151367,-0.3814697265625,0.042236328125,0.2271728515625
6.950,313,1474,666,963,11.0,26.0,11.0,-9.033203125,-43.334957122802734,20.141599655151367,-0.3814697265625,0.042236328125,0.2271728515625
6.964,333,1828,661,1120,11.0,26.0,11.0,-4.82177734375,-42.480464935302734,10.070799827575684,0.4014892578125,0.1019287109375,0.014892578125
6.972,352,2024,739,1225,11.0,26.0,11.0,0.9765624403953552,-38.4521484375,-3.479003667831421,0.4014892578125,0.1019287109375,0.014892578125
6.980,371,2114,749,1401,11.0,26.0,11.0,5.432128429412842,-31.921384811401367,-19.22607421875,0.8177490234375,0.3330078125,0.0869140625
6.994,407,2330,784,1440,11.0,26.0,11.0,2.38037109375,-22.827146530151367,-38.330078125,1.1912841796875,0.8399658203125,0.537841796875
7.005,430,2330,899,1598,11.0,26.0,11.0,-15.441893577575684,-7.751464366912842,-65.00244140625,1.1912841796875,0.8399658203125,0.537841796875
7.010,455,2324,963,1666,11.0,26.0,11.0,-53.466793060302734,11.596678733825684,-97.10692596435547,0.40478515625,0.63671875,0.8870849609375
7.037,482,2340,985,1643,11.0,26.0,11.0,-100.52489471435547,25.207517623901367,-118.89647674560547,-2.6507568359375,-0.652099609375,0.811767578125
7.038,497,2386,1069,1807,11.0,26.0,11.0,-130.615234375,29.418943405151367,-115.29540252685547,-2.6507568359375,-0.652099609375,0.811767578125
7.040,500,2479,1063,1803,17.0,27.0,7.0,-125.24413299560547,20.01953125,-86.97509002685547,-3.37451171875,-1.1387939453125,0.40576171875
7.055,482,2601,986,1669,17.0,27.0,7.0,-78.79638671875,-4.21142578125,-48.950191497802734,-2.6455078125,-0.5618896484375,0.5740966796875
7.067,485,2567,1029,1815,17.0,27.0,7.0,-9.521484375,-32.53173828125,-19.287109375,-2.6455078125,-0.5618896484375,0.5740966796875
7.070,493,2622,1010,1815,17.0,27.0,7.0,43.029781341552734,-49.011226654052734,-2.38037109375,-1.765869140625,-0.1572265625,0.9395751953125
7.084,462,2608,899,1623,17.0,27.0,7.0,59.082027435302734,-36.4990234375,8.544921875,-0.6700439453125,0.5462646484375,1.124267578125
7.093,439,2574,932,1719,17.0,27.0,7.0,51.208492279052734,2.3193359375,15.747069358825684,-0.6700439453125,0.5462646484375,1.124267578125
7.101,467,2665,797,1693,17.0,27.0,7.0,27.221677780151367,44.189449310302734,16.90673828125,-0.823974609375,0.842529296875,0.9715576171875
7.114,462,2430,897,1643,17.0,27.0,7.0,-7.019042491912842,70.80078125,7.202147960662842,-1.855224609375,0.232666015625,0.7381591796875
7.143,454,2407,917,1709,17.0,27.0,7.0,-34.1796875,72.57080078125,-8.36181640625,-1.855224609375,0.232666015625,0.7381591796875
7.143,440,2733,683,1624,17.0,27.0,7.0,-42.907711029052734,50.781246185302734,-11.535643577575684,-2.244384765625,-0.269287109375,0.71142578125
7.144,416,2467,725,1514,15.0,26.0,6.0,-30.029294967651367,19.4091796875,2.3193359375,-1.861328125,-0.592041015625,0.658203125
7.152,401,2308,797,1541,15.0,26.0,6.0,-2.01416015625,-10.864256858825684,23.010251998901367,-1.861328125,-0.592041015625,0.658203125
7.160,390,2261,763,1476,15.0,26.0,6.0,27.648923873901367,-34.5458984375,45.715328216552734,-1.4310302734375,-0.39453125,0.697265625
7.180,371,2130,689,1287,15.0,26.0,6.0,49.743648529052734,-43.640132904052734,66.650390625,-0.3419189453125,-0.046875,0.3807373046875
7.182,328,2207,590,1233,15.0,26.0,6.0,64.27001953125,-36.19384765625,76.84326171875,-0.3419189453125,-0.046875,0.3807373046875
7.190,348,1943,666,1268,15.0,26.0,6.0,73.30322265625,-20.01953125,70.9228515625,0.0113525390625,0.0274658203125,0.2320556640625
7.204,334,1714,601,1095,15.0,26.0,6.0,73.73046875,-2.0751953125,52.734371185302734,0.026611328125,0.1494140625,0.16748046875
7.212,318,1607,586,1081,15.0,26.0,6.0,65.185546875,14.099120140075684,32.1044921875,-0.1849365234375,0.33837890625,0.1561279296875
7.220,307,1415,591,1014,15.0,26.0,6.0,51.879878997802734,25.817869186401367,15.380858421325684,-0.421875,0.450439453125,0.1536865234375
7.247,304,1211,572,883,14.0,26.0,11.0,35.888671875,32.958984375,1.7700194120407104,-0.630126953125,0.4383544921875,0.121337890625
7.247,300,1123,574,867,14.0,26.0,11.0,20.690916061401367,36.80419921875,-7.995604991912842,-0.7777099609375,0.3885498046875,0.095458984375
7.250,300,1079,617,874,14.0,26.0,11.0,11.596678733825684,36.62109375,-11.840819358825684,-0.8201904296875,0.31005859375,0.126953125
7.264,299,951,607,785,14.0,26.0,11.0,9.3994140625,32.53173828125,-11.108397483825684,-0.7752685546875,0.216552734375,0.1904296875
7.272,292,921,620,799,14.0,26.0,11.0,10.986327171325684,27.282712936401367,-8.60595703125,-0.717529296875,0.1375732421875,0.2581787109375
7.280,294,910,621,780,14.0,26.0,11.0,13.122557640075684,22.094724655151367,-5.310058116912842,-0.6673583984375,0.093994140625,0.32470703125
7.295,299,864,625,741,14.0,26.0,11.0,13.061522483825684,17.02880859375,-1.7700194120407104,-0.6097412109375,0.075439453125,0.404541015625
7.302,292,922,634,759,14.0,26.0,11.0,9.521484375,12.634276390075684,0.3662109076976776,-0.5626220703125,0.0439453125,0.473388671875
7.313,294,949,625,780,14.0,26.0,11.0,4.39453125,10.131834983825684,0.2441406100988388,-0.5499267578125,0.0211181640625,0.484375
7.324,299,958,625,774,14.0,26.0,11.0,1.3427733182907104,9.82666015625,0.30517578125,-0.5926513671875,0.04296875,0.4615478515625
7.349,296,1009,639,790,13.0,26.0,10.0,1.4648436307907104,9.1552734375,2.685546636581421,-0.6787109375,0.0819091796875,0.4552001953125
7.350,298,976,634,823,13.0,26.0,10.0,1.8310545682907104,5.859374523162842,6.896972179412842,-0.7550048828125,0.0947265625,0.45361328125
7.351,276,1112,591,818,13.0,26.0,10.0,0.2441406100988388,0.6713866591453552,11.352538108825684,-0.7884521484375,0.075439453125,0.4278564453125
7.362,300,1067,619,802,13.0,26.0,10.0,-1.5258787870407104,-4.7607421875,14.709471702575684,-0.7987060546875,0.056396484375,0.380615234375
7.370,302,1091,634,859,13.0,26.0,10.0,-0.6103515625,-10.009765625,17.08984375,-0.824951171875,0.0660400390625,0.3262939453125
7.384,302,1206,598,799,13.0,26.0,10.0,3.662109136581421,-16.05224609375,19.287109375,-0.8714599609375,0.1029052734375,0.2880859375
7.392,299,1236,604,855,13.0,26.0,10.0,8.97216796875,-23.986814498901367,21.850584030151367,-0.9202880859375,0.15576171875,0.2767333984375
7.406,296,1251,601,859,13.0,26.0,10.0,11.779784202575684,-33.50830078125,25.390623092651367,-0.9522705078125,0.1988525390625,0.2774658203125
7.408,291,1351,546,832,13.0,26.0,10.0,9.94873046875,-43.518062591552734,29.724119186401367,-0.9471435546875,0.2052001953125,0.2657470703125
7.422,299,1533,527,893,13.0,26.0,10.0,4.33349609375,-52.856441497802734,34.3017578125,-0.8636474609375,0.156494140625,0.2535400390625
7.446,302,1653,568,990,12.0,27.0,13.0,-1.8310545682907104,-60.485836029052734,37.04833984375,-0.6317138671875,0.046630859375,0.24169921875
7.447,316,1914,629,1115,12.0,27.0,13.0,-4.45556640625,-64.3310546875,33.63037109375,-0.246826171875,-0.0294189453125,0.171875
7.455,327,2068,607,1185,12.0,27.0,13.0,-0.2441406100988388,-61.950679779052734,20.446775436401367,0.20654296875,0.0452880859375,0.082275390625
7.460,337,2176,666,1248,12.0,27.0,13.0,10.559081077575684,-51.879878997802734,-4.39453125,0.61572265625,0.2547607421875,0.1123046875
7.474,373,2306,705,1305,12.0,27.0,13.0,18.00537109375,-31.555173873901367,-39.9169921875,0.9302978515625,0.486572265625,0.21533203125
7.482,378,2435,814,1464,12.0,27.0,13.0,1.0986328125,0.0,-77.81982421875,1.0313720703125,0.62744140625,0.265869140625
7.490,410,2448,858,1596,12.0,27.0,13.0,-45.654293060302734,32.40966796875,-100.70800018310547,0.62939453125,0.6392822265625,0.34375
7.504,447,2529,942,1572,12.0,27.0,13.0,-92.28514862060547,49.316402435302734,-98.38866424560547,-0.490478515625,0.4970703125,0.64306640625
7.518,465,2555,1041,1732,12.0,27.0,13.0,-113.34227752685547,36.4990234375,-82.21434783935547,-1.9736328125,0.0303955078125,1.04052734375
7.520,433,2911,867,1623,12.0,27.0,13.0,-124.20653533935547,-0.9765624403953552,-61.462398529052734,-3.13818359375,-0.6365966796875,1.0443115234375
7.548,425,2861,1009,1521,16.0,25.0,8.0,-123.90135955810547,-35.82763671875,-33.3251953125,-3.556640625,-1.057861328125,0.7705078125
7.549,411,2867,910,1656,16.0,25.0,8.0,-78.0029296875,-57.189937591552734,-5.065917491912842,-3.1240234375,-0.9954833984375,0.7115478515625
7.550,360,3147,1185,1711,16.0,25.0,8.0,3.051757574081421,-67.0166015625,12.878417015075684,-1.9700927734375,-0.5584716796875,0.8431396484375
7.569,430,2821,855,1561,16.0,25.0,8.0,69.3359375,-51.330562591552734,18.798828125,-0.858642578125,0.1048583984375,1.0758056640625
7.572,409,3089,887,1569,16.0,25.0,8.0,91.67479705810547,-7.080077648162842,16.357421875,-0.54638671875,0.911376953125,1.25146484375
7.580,404,2916,978,1622,16.0,25.0,8.0,63.354488372802734,41.503902435302734,9.765625,-0.9412841796875,1.3570556640625,1.134765625
7.594,414,2850,891,1468,16.0,25.0,8.0,5.981444835662842,68.05419921875,-2.990722417831421,-1.65576171875,1.06787109375,0.920654296875
7.602,426,2683,952,1652,16.0,25.0,8.0,-41.687007904052734,62.438961029052734,-16.11328125,-2.16455078125,0.31005859375,0.7872314453125
7.611,424,2612,951,1615,16.0,25.0,8.0,-56.579586029052734,37.59765625,-17.88330078125,-2.183837890625,-0.401123046875,0.70166015625
7.631,409,2541,844,1463,19.0,25.0,10.0,-35.46142578125,12.145995140075684,-8.97216796875,-1.8807373046875,-0.6829833984375,0.710693359375
7.649,400,2534,843,1516,19.0,25.0,10.0,3.601073980331421,-6.347655773162842,6.042479991912842,-1.47119140625,-0.555908203125,0.7789306640625
7.649,356,2544,707,1472,19.0,25.0,10.0,37.4755859375,-17.08984375,24.841306686401367,-0.993408203125,-0.283447265625,0.7625732421875
7.654,373,2356,744,1430,19.0,25.0,10.0,55.419918060302734,-19.4091796875,43.579097747802734,-0.4737548828125,-0.0380859375,0.5906982421875
7.668,364,2281,714,1393,19.0,25.0,10.0,60.241695404052734,-10.864256858825684,53.588863372802734,-0.064697265625,0.1353759765625,0.37353515625
7.671,322,2316,614,1323,19.0,25.0,10.0,60.241695404052734,-10.864256858825684,53.588863372802734,0.0850830078125,0.2427978515625,0.222412109375
7.684,351,2048,617,1201,19.0,25.0,10.0,46.874996185302734,26.855466842651367,30.883787155151367,-0.03564453125,0.29345703125,0.1424560546875
7.692,338,1960,644,1243,19.0,25.0,10.0,31.555173873901367,43.457027435302734,10.620116233825684,-0.335205078125,0.297607421875,0.135009765625
7.700,332,1892,628,1214,19.0,25.0,10.0,31.555173873901367,43.457027435302734,10.620116233825684,-0.6385498046875,0.2515869140625,0.1656494140625
7.717,324,1786,571,1081,19.0,25.0,10.0,7.568358898162842,51.330562591552734,-10.314940452575684,-0.8038330078125,0.1290283203125,0.1727294921875
7.722,318,1708,587,1122,14.0,25.0,6.0,5.0048828125,46.630855560302734,-10.864256858825684,-0.8402099609375,0.009521484375,0.149169921875
7.731,310,1604,578,1091,14.0,25.0,6.0,8.1787109375,41.625972747802734,-9.21630859375,-0.8055419921875,-0.0235595703125,0.129638671875
7.755,304,1569,576,1056,14.0,25.0,6.0,8.1787109375,41.625972747802734,-9.21630859375,-0.7537841796875,0.0067138671875,0.161376953125
7.756,302,1494,614,905,14.0,25.0,6.0,20.080564498901367,33.02001953125,-4.0283203125,-0.70703125,0.0693359375,0.251708984375
7.761,306,1439,579,1009,14.0,25.0,6.0,24.169919967651367,27.526853561401367,0.7934569716453552,-0.67138671875,0.12548828125,0.353515625
7.778,300,1395,577,999,14.0,25.0,6.0,24.169919967651367,27.526853561401367,0.7934569716453552,-0.67138671875,0.12548828125,0.353515625
7.783,299,1357,559,932,14.0,25.0,6.0,17.63916015625,19.53125,10.986327171325684,-0.6805419921875,0.12109375,0.4417724609375
7.791,300,1334,574,963,14.0,25.0,6.0,17.63916015625,19.53125,10.986327171325684,-0.74169921875,0.106689453125,0.4530029296875
7.800,300,1317,586,963,14.0,25.0,6.0,10.986327171325684,17.02880859375,14.221190452575684,-0.74169921875,0.106689453125,0.4530029296875
7.813,304,1268,567,890,14.0,25.0,6.0,2.563476324081421,9.033203125,16.54052734375,-0.8692626953125,0.1287841796875,0.4398193359375
7.821,298,1249,586,931,15.0,28.0,11.0,2.563476324081421,9.033203125,16.54052734375,-0.8798828125,0.140380859375,0.412841796875
7.829,299,1274,591,909,15.0,28.0,11.0,0.7934569716453552,4.638671875,15.441893577575684,-0.8798828125,0.140380859375,0.412841796875
7.861,304,1206,577,865,15.0,28.0,11.0,2.38037109375,-0.7324218153953552,10.437010765075684,-0.8599853515625,0.1688232421875,0.35107421875
7.861,302,1196,605,888,15.0,28.0,11.0,2.38037109375,-0.7324218153953552,10.437010765075684,-0.853515625,0.2064208984375,0.3287353515625
7.862,300,1178,603,905,15.0,28.0,11.0,4.82177734375,-3.662109136581421,8.9111328125,-0.853515625,0.2064208984375,0.3287353515625
7.882,298,1151,585,840,15.0,28.0,11.0,7.141112804412842,-14.770506858825684,9.09423828125,-0.91162109375,0.2532958984375,0.3106689453125
7.882,299,1131,605,873,15.0,28.0,11.0,7.141112804412842,-14.770506858825684,9.09423828125,-0.9510498046875,0.227783203125,0.33349609375
7.889,294,1108,594,858,15.0,28.0,11.0,7.446288585662842,-22.705076217651367,10.009765625,-0.9510498046875,0.227783203125,0.33349609375
7.903,292,1082,561,797,15.0,28.0,11.0,2.929687261581421,-37.78076171875,15.319823265075684,-0.949951171875,0.1474609375,0.3746337890625
7.911,289,1079,572,835,15.0,28.0,11.0,2.929687261581421,-37.78076171875,15.319823265075684,-0.9146728515625,0.11376953125,0.3787841796875
7.932,289,1129,574,846,12.0,27.0,7.0,-0.9765624403953552,-43.762203216552734,20.568845748901367,-0.9146728515625,0.11376953125,0.3787841796875
7.933,299,1349,519,872,12.0,27.0,7.0,-5.737304210662842,-52.429195404052734,27.343748092651367,-0.50390625,-0.010009765625,0.253173828125
7.958,302,1588,568,1013,12.0,27.0,7.0,-5.737304210662842,-52.429195404052734,27.343748092651367,-0.1083984375,-0.0858154296875,0.1029052734375
7.958,323,2058,629,1162,12.0,27.0,7.0,-1.7700194120407104,-52.795406341552734,20.629880905151367,-0.1083984375,-0.0858154296875,0.1029052734375
7.969,344,2070,673,1282,12.0,27.0,7.0,17.333984375,-35.82763671875,-10.925292015075684,0.7169189453125,0.14453125,0.0262451171875
7.971,349,2258,694,1348,12.0,27.0,7.0,17.333984375,-35.82763671875,-10.925292015075684,1.1309814453125,0.414794921875,0.06884765625
7.980,376,2268,725,1439,12.0,27.0,7.0,16.54052734375,-15.136717796325684,-34.24072265625,1.1309814453125,0.414794921875,0.06884765625
7.993,411,2465,775,1455,12.0,27.0,7.0,-2.868652105331421,15.075682640075684,-63.781734466552734,0.7294921875,0.6785888671875,0.453369140625
8.001,411,2619,907,1582,12.0,27.0,7.0,-37.9638671875,43.518062591552734,-90.75926971435547,0.7294921875,0.6785888671875,0.453369140625
8.009,430,2648,976,1649,12.0,27.0,7.0,-76.7822265625,56.701656341552734,-101.50145721435547,-0.61865234375,0.626220703125,0.81201171875
8.023,441,2727,972,1584,18.0,26.0,9.0,-100.28075408935547,47.790523529052734,-94.54344940185547,-3.58251953125,-0.3504638671875,1.14794921875
8.031,462,2785,1050,1743,18.0,26.0,9.0,-117.67577362060547,16.845703125,-76.66015625,-3.58251953125,-0.3504638671875,1.14794921875
8.040,479,2748,1074,1753,18.0,26.0,9.0,-137.451171875,-16.54052734375,-49.377437591552734,-3.6614990234375,-1.080810546875,0.5072021484375
8.058,441,2828,891,1625,18.0,26.0,9.0,-104.18700408935547,-40.832515716552734,-23.071287155151367,-1.72900390625,-0.766357421875,0.5987548828125
8.061,440,2859,932,1739,18.0,26.0,9.0,-7.751464366912842,-56.396480560302734,-9.09423828125,-1.72900390625,-0.766357421875,0.5987548828125
8.069,427,2859,894,1715,18.0,26.0,9.0,74.76806640625,-44.738765716552734,-0.9765624403953552,-0.719970703125,0.0423583984375,1.0870361328125
8.094,440,2807,832,1609,18.0,26.0,9.0,92.95653533935547,-1.2817381620407104,7.568358898162842,-1.08056640625,1.28271484375,1.0306396484375
8.095,433,2769,887,1727,18.0,26.0,9.0,54.016109466552734,44.982906341552734,10.986327171325684,-1.08056640625,1.28271484375,1.0306396484375
8.099,423,2830,910,1652,18.0,26.0,9.0,-3.356933355331421,65.185546875,0.9155272841453552,-1.7698974609375,0.908935546875,0.687255859375
8.113,411,2635,815,1549,18.0,26.0,9.0,-45.227046966552734,53.833003997802734,-12.207030296325684,-2.1033935546875,-0.5267333984375,0.5086669921875
8.121,418,2599,853,1640,18.0,26.0,9.0,-55.725093841552734,26.062009811401367,-11.108397483825684,-2.1033935546875,-0.5267333984375,0.5086669921875
8.132,403,2599,827,1575,18.0,26.0,9.0,-35.64453125,-2.01416015625,4.69970703125,-1.818359375,-0.7578125,0.62890625
8.143,385,2580,749,1415,18.0,26.0,9.0,-2.01416015625,-23.376462936401367,27.893064498901367,-0.9761962890625,-0.322509765625,0.743896484375
8.165,388,2461,772,1447,18.0,26.0,9.0,29.052732467651367,-35.64453125,51.025386810302734,-0.9761962890625,-0.322509765625,0.743896484375
8.165,371,2445,739,1424,18.0,26.0,9.0,50.109859466552734,-35.21728515625,65.73486328125,-0.5521240234375,-0.011962890625,0.5849609375
8.174,356,2156,651,1260,18.0,26.0,9.0,60.302730560302734,-21.911619186401367,65.185546875,-0.2734375,0.456298828125,0.294677734375
8.182,348,2021,654,1292,18.0,26.0,9.0,60.546871185302734,-3.662109136581421,50.903316497802734,-0.2734375,0.456298828125,0.294677734375
8.202,336,1862,627,1214,18.0,26.0,9.0,51.330562591552734,13.061522483825684,29.785154342651367,-0.3592529296875,0.48193359375,0.1973876953125
8.203,316,1638,658,986,18.0,26.0,9.0,35.33935546875,25.329587936401367,9.09423828125,-0.648193359375,0.2117919921875,0.0625
8.211,308,1398,601,976,18.0,26.0,9.0,18.61572265625,32.470703125,-5.371093273162842,-0.648193359375,0.2117919921875,0.0625
8.220,306,1265,619,922,13.0,26.0,6.0,6.896972179412842,35.21728515625,-12.573241233825684,-0.72216796875,0.0533447265625,0.0247802734375
8.235,296,1104,598,799,13.0,26.0,6.0,3.601073980331421,34.97314453125,-12.756346702575684,-0.7398681640625,-0.0205078125,0.0482177734375
8.242,292,1014,625,803,13.0,26.0,6.0,6.530761241912842,33.203125,-7.568358898162842,-0.6807861328125,-0.028076171875,0.1458740234375
8.251,291,922,620,766,13.0,26.0,6.0,10.559081077575684,30.334470748901367,-0.9155272841453552,-0.587646484375,-0.011474609375,0.2840576171875
8.351,289,820,607,737,13.0,26.0,6.0,9.765625,22.705076217651367,9.3994140625,-0.469482421875,0.0638427734375,0.5189208984375
8.351,289,859,571,744,13.0,26.0,6.0,3.784179449081421,17.7001953125,12.817381858825684,-0.4447021484375,0.090087890625,0.5438232421875
8.388,289,868,601,753,13.0,26.0,6.0,-0.6713866591453552,13.183592796325684,14.099120140075684,-0.48095703125,0.117919921875,0.5247802734375
8.389,272,976,661,762,13.0,26.0,6.0,-0.3662109076976776,9.70458984375,13.916014671325684,-0.588134765625,0.166015625,0.501708984375
8.389,291,900,617,811,13.0,26.0,6.0,2.3193359375,6.347655773162842,13.000487327575684,-0.7225341796875,0.1829833984375,0.4688720703125
8.389,290,962,584,740,12.0,27.0,8.0,4.2724609375,2.746581792831421,11.474608421325684,-0.8282470703125,0.154052734375,0.410400390625
8.390,289,1037,553,800,12.0,27.0,8.0,5.432128429412842,-0.6103515625,10.437010765075684,-0.885498046875,0.1160888671875,0.3375244140625
8.432,289,992,600,816,12.0,27.0,8.0,7.080077648162842,-3.417968511581421,10.620116233825684,-0.9144287109375,0.099853515625,0.2813720703125
8.432,279,1029,604,818,12.0,27.0,8.0,9.765625,-6.347655773162842,11.718749046325684,-0.9384765625,0.1163330078125,0.2659912109375
8.433,296,1043,619,829,12.0,27.0,8.0,11.108397483825684,-10.314940452575684,13.183592796325684,-0.9610595703125,0.144775390625,0.2701416015625
8.433,292,1055,619,744,12.0,27.0,8.0,8.7890625,-14.709471702575684,14.648436546325684,-0.98046875,0.1708984375,0.27587890625
8.433,294,1070,607,802,12.0,27.0,8.0,4.45556640625,-18.85986328125,16.66259765625,-0.99462890625,0.1983642578125,0.2984619140625
8.444,294,1025,593,774,12.0,27.0,8.0,0.9765624403953552,-22.888181686401367,19.22607421875,-0.9964599609375,0.218994140625,0.3367919921875
8.444,295,1095,639,808,12.0,27.0,8.0,-1.3427733182907104,-26.977537155151367,22.399900436401367,-0.9764404296875,0.2239990234375,0.37060546875
8.445,290,1039,594,763,12.0,29.0,12.0,-4.150390625,-31.555173873901367,26.184080123901367,-0.92431640625,0.2154541015625,0.369384765625
8.445,296,1094,594,859,12.0,29.0,12.0,-8.056640625,-36.7431640625,30.029294967651367,-0.802001953125,0.186767578125,0.3160400390625
8.445,300,1413,538,888,12.0,29.0,12.0,-9.70458984375,-42.541500091552734,31.066892623901367,-0.52783203125,0.0975341796875,0.2110595703125
8.450,321,1789,630,1022,12.0,29.0,12.0,-5.0048828125,-46.813961029052734,24.597166061401367,-0.1162109375,-0.0313720703125,0.0609130859375
8.470,346,2170,651,1231,12.0,29.0,12.0,4.57763671875,-45.227046966552734,9.3994140625,0.3634033203125,-0.0841064453125,-0.0599365234375
8.470,348,2167,696,1323,12.0,29.0,12.0,11.657713890075684,-35.0341796875,-12.878417015075684,0.8480224609375,0.044921875,-0.008544921875
8.486,386,2293,759,1383,12.0,29.0,12.0,7.446288585662842,-14.221190452575684,-40.222164154052734,1.275146484375,0.362548828125,0.10205078125
8.487,382,2695,654,1453,12.0,29.0,12.0,-13.183592796325684,17.76123046875,-69.64111328125,1.333740234375,0.697509765625,0.2808837890625
8.506,423,2468,853,1627,12.0,29.0,12.0,-41.564937591552734,46.874996185302734,-96.06932830810547,0.5926513671875,0.8624267578125,0.6727294921875
8.509,401,2662,883,1653,12.0,29.0,12.0,-65.12451171875,55.725093841552734,-110.35155487060547,-1.0181884765625,0.737548828125,1.175048828125
8.520,484,2510,996,1794,14.0,25.0,4.0,-84.89989471435547,38.02490234375,-105.34667205810547,-2.823486328125,0.1962890625,1.4656982421875
8.522,484,2584,1042,1813,14.0,25.0,4.0,-114.80712127685547,2.868652105331421,-80.87157440185547,-3.802978515625,-0.70703125,0.9705810546875
8.535,462,2722,933,1650,14.0,25.0,4.0,-134.6435546875,-27.832029342651367,-44.067378997802734,-3.7698974609375,-1.421630859375,0.2034912109375
8.542,445,2919,944,1604,14.0,25.0,4.0,-84.59471893310547,-51.879878997802734,-11.047362327575684,-2.7752685546875,-1.492431640625,0.07275390625
8.550,411,2909,927,1656,14.0,25.0,4.0,22.644041061401367,-64.63623046875,9.765625,-1.2459716796875,-0.9605712890625,0.5894775390625
8.571,435,2820,810,1555,14.0,25.0,4.0,111.08397674560547,-42.175289154052734,22.888181686401367,-0.3701171875,0.1790771484375,1.3070068359375
8.572,437,2785,887,1748,14.0,25.0,4.0,124.93895721435547,10.986327171325684,31.860349655151367,-0.6707763671875,1.341796875,1.4910888671875
8.580,427,2748,879,1715,14.0,25.0,4.0,67.44384765625,56.701656341552734,29.418943405151367,-1.5543212890625,1.656982421875,1.025146484375
8.594,431,2658,816,1552,14.0,25.0,4.0,-1.7089842557907104,64.51416015625,12.268065452575684,-2.1912841796875,1.0614013671875,0.48583984375
8.602,417,2601,853,1640,14.0,25.0,4.0,-40.222164154052734,38.51318359375,-5.432128429412842,-2.2904052734375,0.1357421875,0.3065185546875
8.610,409,2514,841,1593,19.0,29.0,10.0,-41.015621185302734,3.540038824081421,-10.131834983825684,-2.0267333984375,-0.4671630859375,0.5072021484375
8.627,390,2368,738,1401,19.0,29.0,10.0,-14.404295921325684,-23.376462936401367,0.6103515625,-1.666748046875,-0.5789794921875,0.83642578125
8.632,382,2359,744,1452,19.0,29.0,10.0,20.751951217651367,-37.841796875,23.437498092651367,-1.294677734375,-0.4468994140625,0.9642333984375
8.645,374,2229,731,1400,19.0,29.0,10.0,48.034664154052734,-39.794921875,51.757808685302734,-0.829833984375,-0.3094482421875,0.7730712890625
8.654,352,2032,630,1215,19.0,29.0,10.0,61.645503997802734,-30.944822311401367,73.05908203125,-0.3262939453125,-0.1602783203125,0.4454345703125
8.673,334,1890,628,1219,19.0,29.0,10.0,64.88037109375,-12.390135765075684,73.1201171875,-0.0048828125,0.0123291015625,0.18798828125
8.673,321,1709,582,1143,19.0,29.0,10.0,59.387203216552734,13.549803733825684,51.940914154052734,0.02587890625,0.1629638671875,0.0760498046875
8.684,304,1393,564,944,19.0,29.0,10.0,46.569820404052734,38.4521484375,25.817869186401367,-0.169921875,0.2568359375,0.0909423828125
8.693,299,1207,586,920,19.0,29.0,10.0,30.883787155151367,53.222652435302734,6.896972179412842,-0.47412109375,0.257568359375,0.162353515625
8.700,292,1051,582,848,19.0,29.0,10.0,15.380858421325684,55.725093841552734,-3.479003667831421,-0.7296142578125,0.2569580078125,0.1748046875
8.714,282,864,571,740,15.0,26.0,14.0,4.08935546875,50.598140716552734,-5.676269054412842,-0.81787109375,0.287109375,0.1307373046875
8.722,280,778,600,738,15.0,26.0,14.0,2.38037109375,41.748043060302734,-2.685546636581421,-0.7784423828125,0.255615234375,0.1307373046875
8.734,275,707,594,706,15.0,26.0,14.0,8.6669921875,31.799314498901367,1.2817381620407104,-0.70947265625,0.1895751953125,0.21533203125
8.746,276,645,575,647,15.0,26.0,14.0,12.634276390075684,22.766111373901367,5.859374523162842,-0.6307373046875,0.1591796875,0.351806640625
8.757,274,642,574,667,15.0,26.0,14.0,8.60595703125,14.770506858825684,10.803221702575684,-0.53173828125,0.15576171875,0.4534912109375
8.776,273,651,579,678,15.0,26.0,14.0,0.1831054538488388,9.21630859375,12.695311546325684,-0.443603515625,0.1431884765625,0.4661865234375
8.776,273,793,562,687,15.0,26.0,14.0,-5.676269054412842,7.934569835662842,9.82666015625,-0.427001953125,0.132568359375,0.4217529296875
