time,compression0,compression1,compression2,compression3,magn_x,magn_y,magn_z,gyro_x,gyro_y,gyro_z,accel_x,accel_y,accel_z
0.037,328,651,493,527,-4.0,38.0,7.0,4.638671875,-10.498045921325684,-4.08935546875,-0.8343505859375,0.34521484375,-0.4324951171875
0.037,328,708,576,456,-4.0,38.0,7.0,4.94384765625,-10.437010765075684,-4.638671875,-0.83447265625,0.339599609375,-0.42919921875
0.037,327,636,499,546,-4.0,38.0,7.0,4.94384765625,-10.437010765075684,-4.638671875,-0.833984375,0.3328857421875,-0.424072265625
0.038,328,666,495,533,-4.0,38.0,7.0,5.0048828125,-10.559081077575684,-5.0048828125,-0.834228515625,0.3270263671875,-0.420654296875
0.046,328,632,497,540,-4.0,38.0,7.0,5.249022960662842,-10.742186546325684,-4.7607421875,-0.8349609375,0.3250732421875,-0.421630859375
0.053,324,628,497,537,-4.0,38.0,7.0,5.249022960662842,-10.742186546325684,-4.7607421875,-0.8375244140625,0.32763671875,-0.4215087890625
0.067,321,620,493,527,-4.0,38.0,7.0,6.713866710662842,-11.291502952575684,-4.45556640625,-0.8389892578125,0.3260498046875,-0.419189453125
0.075,316,620,506,548,-4.0,38.0,7.0,7.629394054412842,-11.413573265075684,-4.7607421875,-0.8363037109375,0.320556640625,-0.4197998046875
0.083,316,614,504,546,-7.0,38.0,12.0,7.629394054412842,-11.413573265075684,-4.7607421875,-0.8323974609375,0.3189697265625,-0.422607421875
0.097,313,614,493,533,-7.0,38.0,12.0,8.85009765625,-11.352538108825684,-4.82177734375,-0.829833984375,0.320556640625,-0.425537109375
0.105,312,614,501,548,-7.0,38.0,12.0,8.30078125,-11.352538108825684,-4.638671875,-0.82958984375,0.323486328125,-0.4290771484375
0.134,308,607,499,555,-7.0,38.0,12.0,8.30078125,-11.352538108825684,-4.638671875,-0.830810546875,0.3216552734375,-0.4290771484375
0.134,299,630,465,548,-7.0,38.0,12.0,7.385253429412842,-11.779784202575684,-4.5166015625,-0.831787109375,0.3157958984375,-0.426513671875
0.135,304,646,488,548,-7.0,38.0,12.0,7.568358898162842,-12.145995140075684,-4.57763671875,-0.8309326171875,0.3128662109375,-0.4259033203125
0.144,300,607,513,571,-7.0,38.0,12.0,7.568358898162842,-12.145995140075684,-4.57763671875,-0.8309326171875,0.3128662109375,-0.4259033203125
0.157,300,619,500,553,-7.0,38.0,12.0,7.385253429412842,-13.122557640075684,-4.45556640625,-0.81640625,0.299072265625,-0.413818359375
0.172,299,624,508,576,-7.0,38.0,12.0,7.385253429412842,-13.122557640075684,-4.45556640625,-0.8052978515625,0.2891845703125,-0.401611328125
0.173,300,639,509,576,-7.0,38.0,12.0,7.507323741912842,-13.732909202575684,-4.150390625,-0.8052978515625,0.2891845703125,-0.401611328125
0.187,301,648,498,564,-6.0,38.0,12.0,7.812499523162842,-14.526366233825684,-3.051757574081421,-0.794189453125,0.2939453125,-0.3779296875
0.195,299,651,514,588,-6.0,38.0,12.0,7.812499523162842,-14.526366233825684,-3.051757574081421,-0.794677734375,0.30224609375,-0.365478515625
0.204,298,666,513,591,-6.0,38.0,12.0,7.751464366912842,-14.404295921325684,-2.50244140625,-0.794677734375,0.30224609375,-0.365478515625
0.237,299,682,506,578,-6.0,38.0,12.0,7.995604991912842,-13.366698265075684,-1.8310545682907104,-0.8009033203125,0.2940673828125,-0.3489990234375
0.237,300,687,514,598,-6.0,38.0,12.0,7.995604991912842,-13.366698265075684,-1.8310545682907104,-0.802734375,0.28369140625,-0.355224609375
0.237,300,710,486,580,-6.0,38.0,12.0,9.033203125,-13.000487327575684,-1.4648436307907104,-0.802734375,0.28369140625,-0.355224609375
0.247,300,710,514,594,-6.0,38.0,12.0,11.901854515075684,-13.916014671325684,-0.1831054538488388,-0.7991943359375,0.2822265625,-0.3592529296875
0.255,301,753,519,628,-6.0,38.0,12.0,11.901854515075684,-13.916014671325684,-0.1831054538488388,-0.7984619140625,0.28857421875,-0.3603515625
0.263,302,799,514,644,-6.0,38.0,12.0,13.061522483825684,-14.648436546325684,0.54931640625,-0.7984619140625,0.28857421875,-0.3603515625
0.278,302,848,508,642,-6.0,38.0,12.0,12.512206077575684,-15.258788108825684,1.3427733182907104,-0.7978515625,0.29248046875,-0.353515625
0.285,307,890,533,685,-7.0,36.0,13.0,12.512206077575684,-15.258788108825684,1.3427733182907104,-0.7977294921875,0.2841796875,-0.35400390625
0.294,313,952,540,713,-7.0,36.0,13.0,12.329100608825684,-15.075682640075684,1.5258787870407104,-0.7977294921875,0.2841796875,-0.35400390625
0.307,316,1105,521,733,-7.0,36.0,13.0,13.061522483825684,-13.793944358825684,2.929687261581421,-0.8155517578125,0.2952880859375,-0.380615234375
0.330,323,1175,541,767,-7.0,36.0,13.0,13.061522483825684,-13.793944358825684,2.929687261581421,-0.8167724609375,0.3309326171875,-0.39794921875
0.336,327,1312,499,811,-7.0,36.0,13.0,10.559081077575684,-12.329100608825684,3.906249761581421,-0.8167724609375,0.3309326171875,-0.39794921875
0.337,334,1393,559,869,-7.0,36.0,13.0,2.13623046875,-9.3994140625,2.25830078125,-0.8055419921875,0.3214111328125,-0.4053955078125
0.347,336,1447,555,899,-7.0,36.0,13.0,2.13623046875,-9.3994140625,2.25830078125,-0.7945556640625,0.2911376953125,-0.40966796875
0.353,346,1548,562,939,-7.0,36.0,13.0,-2.197265625,-9.27734375,0.9765624403953552,-0.7945556640625,0.2911376953125,-0.40966796875
0.368,354,1691,537,934,-7.0,36.0,13.0,-5.676269054412842,-10.070799827575684,0.3662109076976776,-0.75244140625,0.272216796875,-0.395263671875
0.375,361,1769,593,1034,-7.0,36.0,13.0,-7.446288585662842,-11.901854515075684,0.1220703050494194,-0.75244140625,0.272216796875,-0.395263671875
0.387,361,1837,614,1074,-8.0,36.0,19.0,-9.33837890625,-14.770506858825684,0.2441406100988388,-0.7646484375,0.3382568359375,-0.38623046875
0.397,364,1941,630,1063,-8.0,36.0,19.0,-12.695311546325684,-18.37158203125,-0.1220703050494194,-0.736083984375,0.389404296875,-0.315673828125
0.405,371,1983,697,1189,-8.0,36.0,19.0,-16.7236328125,-21.362302780151367,-2.807616949081421,-0.736083984375,0.389404296875,-0.315673828125
0.414,377,2041,725,1225,-8.0,36.0,19.0,-18.98193359375,-21.911619186401367,-6.042479991912842,-0.728759765625,0.3031005859375,-0.294921875
0.463,388,2104,767,1198,-8.0,36.0,19.0,-19.287109375,-20.385740280151367,-7.507323741912842,-0.6324462890625,0.0533447265625,-0.1922607421875
0.477,391,2156,830,1312,-8.0,36.0,19.0,-17.02880859375,-17.76123046875,-6.591796398162842,-0.6324462890625,0.0533447265625,-0.1922607421875
0.477,401,2176,883,1340,-8.0,36.0,19.0,-10.009765625,-15.319823265075684,-2.807616949081421,-0.631591796875,0.0594482421875,-0.2022705078125
0.477,411,2192,899,1281,-8.0,36.0,19.0,-1.8310545682907104,-16.2353515625,3.784179449081421,-0.764892578125,0.3486328125,-0.2430419921875
0.477,418,2221,986,1427,-8.0,36.0,19.0,2.38037109375,-21.423337936401367,10.009765625,-0.764892578125,0.3486328125,-0.2430419921875
0.478,423,2238,1034,1453,-8.0,36.0,19.0,4.5166015625,-26.367185592651367,11.230467796325684,-0.7774658203125,0.4267578125,-0.285888671875
0.492,434,2259,1029,1375,-4.0,31.0,12.0,5.798339366912842,-26.306150436401367,8.11767578125,-0.939453125,0.46240234375,-0.3681640625
0.495,447,2310,1122,1504,-4.0,31.0,12.0,2.746581792831421,-22.155759811401367,4.69970703125,-0.939453125,0.46240234375,-0.3681640625
0.503,445,2284,1162,1533,-4.0,31.0,12.0,-4.82177734375,-18.1884765625,2.624511480331421,-1.012451171875,0.4139404296875,-0.300537109375
0.518,464,2309,1120,1429,-4.0,31.0,12.0,-8.85009765625,-15.258788108825684,2.50244140625,-1.0926513671875,0.4371337890625,-0.3533935546875
0.533,470,2320,1202,1569,-4.0,31.0,12.0,-6.958007335662842,-13.122557640075684,3.906249761581421,-1.0926513671875,0.4371337890625,-0.3533935546875
0.551,473,2323,1213,1577,-4.0,31.0,12.0,-4.45556640625,-11.840819358825684,5.859374523162842,-1.0640869140625,0.474365234375,-0.3211669921875
0.552,478,2381,1173,1437,-4.0,31.0,12.0,-3.967284917831421,-9.94873046875,6.591796398162842,-1.0308837890625,0.49365234375,-0.3648681640625
0.556,488,2407,1236,1561,-4.0,31.0,12.0,-2.3193359375,-5.676269054412842,5.065917491912842,-1.0308837890625,0.49365234375,-0.3648681640625
0.563,479,2384,1241,1561,-4.0,31.0,12.0,0.30517578125,-1.7700194120407104,2.44140625,-1.07763671875,0.5101318359375,-0.4715576171875
0.577,481,2375,1169,1447,-4.0,37.0,13.0,-0.7324218153953552,-1.6479490995407104,0.1220703050494194,-1.3087158203125,0.205322265625,-0.5802001953125
0.589,479,2392,1243,1580,-4.0,37.0,13.0,-4.33349609375,-2.44140625,-1.9531248807907104,-1.3087158203125,0.205322265625,-0.5802001953125
0.593,484,2395,1248,1590,-4.0,37.0,13.0,-6.774901866912842,-0.7324218153953552,-3.112792730331421,-1.3292236328125,0.006103515625,-0.5523681640625
0.609,479,2415,1172,1462,-4.0,37.0,13.0,-9.3994140625,3.295898199081421,-0.54931640625,-1.1580810546875,0.0203857421875,-0.429931640625
0.615,479,2414,1255,1596,-4.0,37.0,13.0,-10.864256858825684,7.202147960662842,4.69970703125,-0.9874267578125,0.251953125,-0.357421875
0.644,462,2465,1225,1596,-4.0,37.0,13.0,-6.896972179412842,8.30078125,6.225585460662842,-1.034423828125,0.544189453125,-0.4481201171875
0.665,466,2415,1131,1440,-4.0,37.0,13.0,-2.624511480331421,6.591796398162842,0.6103515625,-1.2247314453125,0.6739501953125,-0.5467529296875
0.665,469,2469,1132,1541,-4.0,37.0,13.0,-4.57763671875,4.2724609375,-8.30078125,-1.3544921875,0.59765625,-0.52294921875
0.665,433,2375,1382,1382,-4.0,37.0,13.0,-10.192870140075684,3.356933355331421,-13.732909202575684,-1.3551025390625,0.4373779296875,-0.424560546875
0.667,441,2347,1070,1386,-4.0,37.0,13.0,-11.779784202575684,5.065917491912842,-13.793944358825684,-1.2738037109375,0.3311767578125,-0.3626708984375
0.681,431,2296,1067,1490,-4.0,35.0,16.0,-7.385253429412842,10.009765625,-11.230467796325684,-1.1783447265625,0.315185546875,-0.400634765625
0.684,433,2298,1026,1440,-4.0,35.0,16.0,-2.197265625,16.54052734375,-9.033203125,-1.0867919921875,0.3343505859375,-0.4674072265625
0.706,419,2228,891,1283,-4.0,35.0,16.0,0.0,21.423337936401367,-8.60595703125,-0.981689453125,0.3642578125,-0.48193359375
0.706,414,2220,891,1308,-4.0,35.0,16.0,-0.9765624403953552,22.644041061401367,-10.192870140075684,-0.870849609375,0.406005859375,-0.446044921875
0.713,401,2123,890,1334,-4.0,35.0,16.0,-5.0048828125,20.874021530151367,-13.244627952575684,-0.7962646484375,0.4234619140625,-0.4100341796875
0.730,382,2007,778,1184,-4.0,35.0,16.0,-10.070799827575684,18.310546875,-17.51708984375,-0.78076171875,0.3856201171875,-0.4207763671875
0.756,371,1966,779,1213,-4.0,35.0,16.0,-14.099120140075684,16.17431640625,-22.460935592651367,-0.7852783203125,0.322998046875,-0.4473876953125
0.756,362,1865,745,1157,-4.0,35.0,16.0,-17.7001953125,14.526366233825684,-26.611326217651367,-0.7681884765625,0.262939453125,-0.43603515625
0.758,347,1704,735,1069,-4.0,35.0,16.0,-20.446775436401367,12.695311546325684,-28.808591842651367,-0.7391357421875,0.2236328125,-0.367919921875
0.768,342,1611,744,1010,-4.0,35.0,16.0,-21.911619186401367,9.21630859375,-29.296873092651367,-0.708984375,0.1915283203125,-0.2288818359375
0.774,334,1468,749,978,-2.0,34.0,11.0,-20.385740280151367,3.662109136581421,-29.296873092651367,-0.6961669921875,0.142333984375,-0.0833740234375
0.788,321,1243,695,829,-2.0,34.0,11.0,-13.183592796325684,-1.4038084745407104,-28.930662155151367,-0.744140625,0.09716796875,-0.061279296875
0.796,313,1129,721,826,-2.0,34.0,11.0,-2.685546636581421,-3.723144292831421,-26.245115280151367,-0.802490234375,0.0904541015625,-0.1502685546875
0.810,310,987,711,759,-2.0,34.0,11.0,4.5166015625,-5.554198741912842,-20.507810592651367,-0.8070068359375,0.1456298828125,-0.2396240234375
0.818,300,794,658,654,-2.0,34.0,11.0,5.0048828125,-9.033203125,-12.329100608825684,-0.7843017578125,0.270263671875,-0.2972412109375
0.826,296,739,660,673,-2.0,34.0,11.0,1.5869139432907104,-13.366698265075684,-5.310058116912842,-0.7489013671875,0.334228515625,-0.3106689453125
0.852,290,714,631,653,-2.0,34.0,11.0,0.0610351525247097,-15.686034202575684,-3.417968511581421,-0.716064453125,0.2239990234375,-0.3038330078125
0.852,280,777,531,582,-2.0,34.0,11.0,5.554198741912842,-14.526366233825684,-4.69970703125,-0.6871337890625,0.0665283203125,-0.296142578125
0.856,281,714,594,643,-2.0,34.0,11.0,18.1884765625,-11.352538108825684,-4.45556640625,-0.664794921875,0.0279541015625,-0.2890625
0.864,282,735,590,654,-2.0,34.0,11.0,32.77587890625,-8.11767578125,-1.03759765625,-0.671630859375,0.12158203125,-0.295166015625
0.880,292,780,599,646,-3.0,36.0,14.0,41.687007904052734,-6.774901866912842,2.929687261581421,-0.6805419921875,0.2379150390625,-0.2764892578125
0.886,296,837,651,694,-3.0,36.0,14.0,39.61181640625,-7.324218273162842,5.493163585662842,-0.6544189453125,0.2886962890625,-0.2364501953125
0.893,306,891,694,733,-3.0,36.0,14.0,28.381345748901367,-8.48388671875,7.507323741912842,-0.60693359375,0.30078125,-0.20751953125
0.907,316,1051,713,765,-3.0,36.0,14.0,14.892577171325684,-9.21630859375,9.765625,-0.575927734375,0.3123779296875,-0.1893310546875
0.919,324,1191,759,874,-3.0,36.0,14.0,5.493163585662842,-8.4228515625,11.779784202575684,-0.5804443359375,0.333984375,-0.1973876953125
0.923,328,1365,774,922,-3.0,36.0,14.0,1.0986328125,-6.103515148162842,12.695311546325684,-0.5931396484375,0.341796875,-0.226318359375
0.952,338,1572,766,951,-3.0,36.0,14.0,-1.4038084745407104,-3.601073980331421,11.901854515075684,-0.59814453125,0.291748046875,-0.2574462890625
0.952,332,1762,750,1012,-3.0,36.0,14.0,-1.5869139432907104,-2.868652105331421,11.352538108825684,-0.632080078125,0.26904296875,-0.326904296875
0.956,331,1783,1039,921,-3.0,36.0,14.0,1.03759765625,-5.798339366912842,11.596678733825684,-0.6817626953125,0.3187255859375,-0.4244384765625
0.967,363,1914,869,1118,-7.0,36.0,19.0,2.50244140625,-12.390135765075684,10.009765625,-0.703125,0.3311767578125,-0.5013427734375
0.975,371,1983,957,1253,-7.0,36.0,19.0,0.7934569716453552,-20.874021530151367,5.981444835662842,-0.6995849609375,0.2945556640625,-0.4774169921875
0.983,377,2028,1003,1303,-7.0,36.0,19.0,-2.624511480331421,-29.541013717651367,1.7089842557907104,-0.7376708984375,0.293701171875,-0.3560791015625
0.997,388,2089,1005,1253,-7.0,36.0,19.0,-5.859374523162842,-36.19384765625,-1.2817381620407104,-0.794677734375,0.28857421875,-0.239990234375
1.006,391,2155,1108,1397,-7.0,36.0,19.0,-8.11767578125,-40.283199310302734,-2.563476324081421,-0.7823486328125,0.208740234375,-0.1541748046875
1.013,401,2194,1129,1422,-7.0,36.0,19.0,-7.751464366912842,-42.724605560302734,-0.6713866591453552,-0.7470703125,0.139404296875,-0.1097412109375
1.027,407,2254,1105,1341,-7.0,36.0,19.0,-3.967284917831421,-42.114253997802734,5.0048828125,-0.76806640625,0.171875,-0.125
1.037,431,2230,1189,1531,-7.0,36.0,19.0,-1.5258787870407104,-37.53662109375,11.047362327575684,-0.882080078125,0.277099609375,-0.14208984375
1.055,441,2268,1234,1540,-7.0,36.0,19.0,-3.234863042831421,-31.127927780151367,13.000487327575684,-1.042236328125,0.3438720703125,-0.1080322265625
1.057,445,2286,1211,1469,-7.0,36.0,19.0,-5.859374523162842,-23.315427780151367,11.230467796325684,-1.170654296875,0.3680419921875,-0.1566162109375
1.066,442,2320,1312,1604,-7.0,29.0,18.0,-6.469726085662842,-14.587401390075684,10.314940452575684,-1.2587890625,0.4571533203125,-0.27978515625
1.074,455,2333,1323,1623,-7.0,29.0,18.0,-6.469726085662842,-14.587401390075684,10.314940452575684,-1.3035888671875,0.5626220703125,-0.3878173828125
1.088,457,2359,1260,1490,-7.0,29.0,18.0,-3.967284917831421,-3.417968511581421,11.352538108825684,-1.314208984375,0.5999755859375,-0.44677734375
1.096,464,2362,1345,1629,-7.0,29.0,18.0,-5.249022960662842,-1.03759765625,9.3994140625,-1.2991943359375,0.5457763671875,-0.3948974609375
1.105,465,2367,1345,1635,-7.0,29.0,18.0,-5.249022960662842,-1.03759765625,9.3994140625,-1.2850341796875,0.45556640625,-0.336669921875
1.117,464,2357,1258,1499,-7.0,29.0,18.0,-7.873534679412842,1.7089842557907104,0.3662109076976776,-1.289306640625,0.3916015625,-0.3565673828125
1.131,465,2348,1336,1629,-7.0,29.0,18.0,-3.662109136581421,2.746581792831421,-5.920409679412842,-1.2154541015625,0.3204345703125,-0.4180908203125
1.158,473,2394,1318,1607,-7.0,29.0,18.0,-3.662109136581421,2.746581792831421,-5.920409679412842,-1.1197509765625,0.29931640625,-0.4683837890625
1.158,466,2368,1305,1610,-7.0,29.0,18.0,-0.9155272841453552,5.981444835662842,-15.991209983825684,-1.2138671875,0.3681640625,-0.4822998046875
1.158,465,2333,1287,1562,-7.0,29.0,18.0,-6.713866710662842,7.751464366912842,-16.4794921875,-1.42431640625,0.3741455078125,-0.4329833984375
1.165,464,2321,1281,1561,-5.0,34.0,21.0,-6.713866710662842,7.751464366912842,-16.4794921875,-1.52783203125,0.2750244140625,-0.3099365234375
1.178,441,2268,1166,1409,-5.0,34.0,21.0,-18.4326171875,17.88330078125,-6.713866710662842,-1.4873046875,0.210205078125,-0.189697265625
1.186,442,2238,1173,1487,-5.0,34.0,21.0,-18.798828125,27.099607467651367,1.4038084745407104,-1.368896484375,0.1993408203125,-0.1734619140625
1.194,437,2190,1163,1477,-5.0,34.0,21.0,-18.798828125,27.099607467651367,1.4038084745407104,-1.2181396484375,0.2591552734375,-0.290283203125
1.207,423,2085,1047,1294,-5.0,34.0,21.0,-8.544921875,46.142574310302734,11.291502952575684,-1.057373046875,0.442138671875,-0.45654296875
1.218,416,2024,1083,1369,-5.0,34.0,21.0,0.9765624403953552,42.541500091552734,7.080077648162842,-0.9139404296875,0.6116943359375,-0.5633544921875
1.224,403,1931,1043,1323,-5.0,34.0,21.0,0.9765624403953552,42.541500091552734,7.080077648162842,-0.8211669921875,0.6026611328125,-0.5789794921875
1.260,382,1739,1009,1220,-5.0,34.0,21.0,7.080077648162842,20.568845748901367,-16.90673828125,-0.782958984375,0.4735107421875,-0.52978515625
1.260,371,1598,907,1117,-5.0,34.0,21.0,3.967284917831421,14.648436546325684,-25.695798873901367,-0.7496337890625,0.3482666015625,-0.4185791015625
1.261,359,1543,785,1032,-5.0,34.0,21.0,3.967284917831421,14.648436546325684,-25.695798873901367,-0.6834716796875,0.2181396484375,-0.1944580078125
1.267,334,1225,757,871,-4.0,35.0,11.0,-2.807616949081421,8.97216796875,-32.2265625,-0.639892578125,0.0982666015625,0.0062255859375
1.276,316,1081,732,840,-4.0,35.0,11.0,2.868652105331421,9.58251953125,-32.1044921875,-0.6580810546875,0.0330810546875,0.0247802734375
1.284,308,996,660,763,-4.0,35.0,11.0,2.868652105331421,9.58251953125,-32.1044921875,-0.6572265625,0.03076171875,-0.0389404296875
1.300,289,759,605,648,-4.0,35.0,11.0,13.610838890075684,12.817381858825684,-24.597166061401367,-0.59423828125,0.116455078125,-0.1064453125
1.322,278,722,591,654,-4.0,35.0,11.0,13.610838890075684,12.817381858825684,-24.597166061401367,-0.5474853515625,0.262451171875,-0.1954345703125
1.323,261,711,619,601,-4.0,35.0,11.0,11.047362327575684,12.634276390075684,-16.90673828125,-0.5474853515625,0.262451171875,-0.1954345703125
1.376,274,700,561,607,-4.0,35.0,11.0,4.638671875,8.1787109375,-7.202147960662842,-0.606689453125,0.420654296875,-0.336669921875
1.376,275,698,571,642,-4.0,35.0,11.0,4.638671875,8.1787109375,-7.202147960662842,-0.641357421875,0.3736572265625,-0.3599853515625
1.376,275,746,540,633,-4.0,35.0,11.0,2.25830078125,3.479003667831421,-8.6669921875,-0.641357421875,0.3736572265625,-0.3599853515625
1.376,275,740,562,631,-5.0,34.0,13.0,-2.44140625,-5.615233898162842,-14.953612327575684,-0.6746826171875,0.210693359375,-0.303955078125
1.376,280,764,582,671,-5.0,34.0,13.0,-2.44140625,-5.615233898162842,-14.953612327575684,-0.6968994140625,0.1312255859375,-0.29638671875
1.401,282,803,601,684,-5.0,34.0,13.0,-2.807616949081421,-6.896972179412842,-15.930174827575684,-0.6968994140625,0.1312255859375,-0.29638671875
1.407,298,887,653,705,-5.0,34.0,13.0,2.807616949081421,-6.896972179412842,-11.596678733825684,-0.726318359375,0.0042724609375,-0.2861328125
1.407,306,960,696,787,-5.0,34.0,13.0,2.807616949081421,-6.896972179412842,-11.596678733825684,-0.7147216796875,-0.0078125,-0.293701171875
1.408,310,1120,693,815,-5.0,34.0,13.0,7.141112804412842,-8.11767578125,-6.835937023162842,-0.7147216796875,-0.0078125,-0.293701171875
1.417,319,1271,732,849,-5.0,34.0,13.0,13.366698265075684,-13.061522483825684,5.432128429412842,-0.699951171875,0.1341552734375,-0.328857421875
1.425,327,1362,788,963,-5.0,34.0,13.0,13.366698265075684,-13.061522483825684,5.432128429412842,-0.7108154296875,0.21826171875,-0.37646484375
1.433,332,1468,803,1014,-5.0,34.0,13.0,14.404295921325684,-15.502928733825684,10.009765625,-0.7108154296875,0.21826171875,-0.37646484375
1.463,345,1669,794,1037,-5.0,34.0,13.0,11.108397483825684,-20.812986373901367,11.535643577575684,-0.671875,0.2650146484375,-0.36376953125
1.463,357,1838,860,1148,-4.0,34.0,13.0,11.108397483825684,-20.812986373901367,11.535643577575684,-0.6956787109375,0.2557373046875,-0.3515625
1.464,359,1874,900,1211,-4.0,34.0,13.0,8.48388671875,-22.277830123901367,10.070799827575684,-0.6956787109375,0.2557373046875,-0.3515625
1.477,371,2024,907,1175,-4.0,34.0,13.0,0.7324218153953552,-24.597166061401367,9.033203125,-0.7685546875,0.2406005859375,-0.2650146484375
1.485,375,2076,1000,1328,-4.0,34.0,13.0,0.7324218153953552,-24.597166061401367,9.033203125,-0.780029296875,0.184814453125,-0.1553955078125
1.493,383,2131,1034,1359,-4.0,34.0,13.0,-4.2724609375,-27.465818405151367,8.1787109375,-0.780029296875,0.184814453125,-0.1553955078125
1.507,401,2221,1026,1305,-4.0,34.0,13.0,-8.7890625,-32.958984375,10.803221702575684,-0.70947265625,0.1348876953125,0.0255126953125
1.515,401,2267,1143,1450,-4.0,34.0,13.0,-8.7890625,-32.958984375,10.803221702575684,-0.72900390625,0.1337890625,0.00927734375
1.523,408,2306,1167,1476,-4.0,34.0,13.0,-5.615233898162842,-32.5927734375,11.840819358825684,-0.72900390625,0.1337890625,0.00927734375
1.542,414,2354,1148,1386,-4.0,34.0,13.0,1.4648436307907104,-28.503416061401367,11.718749046325684,-0.978759765625,0.259033203125,-0.2471923828125
1.572,424,2396,1231,1519,-4.0,34.0,13.0,7.080077648162842,-22.705076217651367,11.718749046325684,-0.978759765625,0.259033203125,-0.2471923828125
1.572,439,2370,1236,1580,-7.0,32.0,15.0,7.019042491912842,-17.15087890625,13.000487327575684,-1.078857421875,0.35986328125,-0.3138427734375
1.572,441,2398,1223,1474,-7.0,32.0,15.0,1.5869139432907104,-12.695311546325684,14.709471702575684,-1.197998046875,0.452880859375,-0.32177734375
1.576,456,2428,1306,1616,-7.0,32.0,15.0,-3.662109136581421,-8.23974609375,15.624999046325684,-1.197998046875,0.452880859375,-0.32177734375
1.584,455,2391,1323,1649,-7.0,32.0,15.0,-4.7607421875,-4.39453125,15.380858421325684,-1.25927734375,0.5478515625,-0.36181640625
1.598,461,2414,1253,1506,-7.0,32.0,15.0,-2.624511480331421,-3.173827886581421,13.488768577575684,-1.3258056640625,0.6011962890625,-0.3656005859375
1.606,462,2396,1336,1659,-7.0,32.0,15.0,1.4038084745407104,-4.69970703125,8.48388671875,-1.3258056640625,0.6011962890625,-0.3656005859375
1.613,462,2394,1320,1655,-7.0,32.0,15.0,6.713866710662842,-7.385253429412842,1.4038084745407104,-1.3905029296875,0.4044189453125,-0.35009765625
1.627,458,2400,1239,1521,-7.0,32.0,15.0,12.817381858825684,-7.812499523162842,-3.845214605331421,-1.2615966796875,0.0411376953125,-0.4658203125
1.636,464,2407,1323,1665,-7.0,32.0,15.0,17.02880859375,-3.662109136581421,-4.94384765625,-1.2615966796875,0.0411376953125,-0.4658203125
1.643,460,2400,1318,1665,-7.0,32.0,15.0,15.014647483825684,2.624511480331421,-2.807616949081421,-1.1759033203125,0.1861572265625,-0.5335693359375
1.673,456,2416,1217,1499,-4.0,30.0,18.0,5.432128429412842,7.263183116912842,-0.6713866591453552,-1.421142578125,0.4613037109375,-0.4798583984375
1.673,460,2430,1267,1616,-4.0,30.0,18.0,-7.080077648162842,9.27734375,-0.2441406100988388,-1.421142578125,0.4613037109375,-0.4798583984375
1.674,454,2525,1312,1548,-4.0,30.0,18.0,-14.953612327575684,9.27734375,-0.6103515625,-1.4061279296875,0.4305419921875,-0.3704833984375
1.688,437,2319,1153,1440,-4.0,30.0,18.0,-14.709471702575684,9.27734375,-1.4038084745407104,-1.2623291015625,0.34423828125,-0.2506103515625
1.698,431,2275,1184,1545,-4.0,30.0,18.0,-8.1787109375,11.718749046325684,-2.929687261581421,-1.2623291015625,0.34423828125,-0.2506103515625
1.730,419,2246,1153,1506,-4.0,30.0,18.0,-0.6713866591453552,17.39501953125,-4.2724609375,-1.2213134765625,0.3240966796875,-0.3250732421875
1.747,409,2158,1014,1328,-4.0,30.0,18.0,2.990722417831421,24.230955123901367,-4.69970703125,-1.03466796875,0.3836669921875,-0.4620361328125
1.747,404,2080,1043,1400,-4.0,30.0,18.0,1.0986328125,28.808591842651367,-5.310058116912842,-1.03466796875,0.3836669921875,-0.4620361328125
1.753,391,2005,1005,1348,-4.0,30.0,18.0,-4.08935546875,29.541013717651367,-7.873534679412842,-0.8978271484375,0.3677978515625,-0.4464111328125
1.754,378,1821,882,1155,-4.0,30.0,18.0,-8.11767578125,26.367185592651367,-12.512206077575684,-0.784423828125,0.3111572265625,-0.3839111328125
1.756,369,1732,874,1163,-2.0,32.0,13.0,-7.568358898162842,19.71435546875,-18.73779296875,-0.7144775390625,0.2171630859375,-0.26806640625
1.789,347,1613,860,1078,-2.0,32.0,13.0,-3.479003667831421,13.000487327575684,-25.024412155151367,-0.687744140625,0.112548828125,-0.165771484375
1.790,332,1397,793,905,-2.0,32.0,13.0,1.8310545682907104,9.3994140625,-28.564451217651367,-0.6834716796875,0.0582275390625,-0.1094970703125
1.790,324,1206,801,904,-2.0,32.0,13.0,6.042479991912842,8.544921875,-28.381345748901367,-0.695556640625,0.0745849609375,-0.11279296875
1.794,318,1095,766,841,-2.0,32.0,13.0,9.58251953125,9.033203125,-26.000974655151367,-0.7025146484375,0.1153564453125,-0.1656494140625
1.808,304,864,683,706,-2.0,32.0,13.0,10.925292015075684,8.9111328125,-22.766111373901367,-0.68115234375,0.15234375,-0.1875
1.815,294,763,658,693,-2.0,32.0,13.0,7.202147960662842,6.530761241912842,-17.76123046875,-0.6451416015625,0.24072265625,-0.1767578125
1.824,286,723,629,673,-2.0,32.0,13.0,1.15966796875,3.173827886581421,-11.901854515075684,-0.610107421875,0.3436279296875,-0.1715087890625
1.838,278,698,580,620,-2.0,32.0,13.0,-2.38037109375,0.9155272841453552,-8.97216796875,-0.601806640625,0.36962890625,-0.20361328125
1.845,277,695,585,644,-2.0,32.0,13.0,-1.7089842557907104,0.6103515625,-9.33837890625,-0.6309814453125,0.318115234375,-0.275634765625
1.882,276,707,586,648,-2.0,34.0,15.0,0.0610351525247097,0.3662109076976776,-10.498045921325684,-0.667236328125,0.240478515625,-0.31982421875
1.883,279,750,605,667,-2.0,34.0,15.0,0.9155272841453552,-1.5869139432907104,-10.681151390075684,-0.6888427734375,0.1585693359375,-0.296875
1.883,278,835,572,630,-2.0,34.0,15.0,2.807616949081421,-3.967284917831421,-9.58251953125,-0.70751953125,0.084716796875,-0.2545166015625
1.884,274,922,614,682,-2.0,34.0,15.0,6.408690929412842,-5.493163585662842,-7.080077648162842,-0.7291259765625,0.0517578125,-0.2373046875
1.898,304,942,683,738,-2.0,34.0,15.0,9.765625,-6.530761241912842,-3.234863042831421,-0.74755859375,0.0548095703125,-0.2357177734375
1.906,310,1039,740,826,-2.0,34.0,15.0,10.009765625,-7.080077648162842,1.8310545682907104,-0.749755859375,0.0693359375,-0.238525390625
1.914,316,1137,761,860,-2.0,34.0,15.0,6.958007335662842,-6.835937023162842,7.690429210662842,-0.7452392578125,0.1116943359375,-0.2579345703125
1.927,323,1306,746,879,-2.0,34.0,15.0,3.417968511581421,-5.920409679412842,13.244627952575684,-0.74951171875,0.1785888671875,-0.278564453125
1.936,327,1404,788,978,-2.0,34.0,15.0,0.7324218153953552,-4.69970703125,16.7236328125,-0.7591552734375,0.221923828125,-0.28955078125
1.944,332,1494,808,1018,-2.0,34.0,15.0,-1.03759765625,-3.662109136581421,17.63916015625,-0.7713623046875,0.2344970703125,-0.3006591796875
1.959,342,1686,788,1034,-4.0,32.0,17.0,-2.563476324081421,-3.295898199081421,17.333984375,-0.7808837890625,0.2320556640625,-0.308837890625
1.987,351,1816,855,1136,-4.0,32.0,17.0,-3.417968511581421,-4.0283203125,17.08984375,-0.8037109375,0.236083984375,-0.3328857421875
1.987,354,1869,871,1189,-4.0,32.0,17.0,-3.784179449081421,-6.530761241912842,18.00537109375,-0.8133544921875,0.279296875,-0.364013671875
1.988,351,2292,1050,1122,-4.0,32.0,17.0,-6.286620616912842,-10.986327171325684,18.49365234375,-0.7493896484375,0.295166015625,-0.3382568359375
1.996,373,2061,971,1306,-4.0,32.0,17.0,-10.620116233825684,-15.747069358825684,16.90673828125,-0.697998046875,0.2535400390625,-0.258544921875
2.006,375,2117,1000,1336,-4.0,32.0,17.0,-12.878417015075684,-19.59228515625,14.770506858825684,-0.708251953125,0.2164306640625,-0.167724609375
2.018,387,2215,974,1271,-4.0,32.0,17.0,-11.962889671325684,-22.705076217651367,13.366698265075684,-0.711181640625,0.1856689453125,-0.0908203125
2.026,391,2261,1074,1422,-4.0,32.0,17.0,-7.202147960662842,-25.878904342651367,12.573241233825684,-0.700927734375,0.1602783203125,-0.0504150390625
2.034,401,2299,1117,1452,-4.0,32.0,17.0,2.13623046875,-28.686521530151367,12.878417015075684,-0.7021484375,0.15771484375,-0.0574951171875
2.047,407,2368,1097,1370,-4.0,34.0,17.0,11.901854515075684,-29.052732467651367,14.282225608825684,-0.7386474609375,0.17919921875,-0.1143798828125
2.061,411,2396,1204,1521,-4.0,34.0,17.0,17.08984375,-26.245115280151367,16.6015625,-0.8375244140625,0.2391357421875,-0.2103271484375
2.079,423,2573,1085,1472,-4.0,34.0,17.0,16.29638671875,-21.728513717651367,18.98193359375,-0.970703125,0.3353271484375,-0.30078125
2.079,423,2484,1175,1422,-4.0,34.0,17.0,10.253905296325684,-17.7001953125,18.85986328125,-1.08935546875,0.3919677734375,-0.3072509765625
2.102,431,2633,1143,1518,-4.0,34.0,17.0,2.990722417831421,-14.160155296325684,15.991209983825684,-1.1920166015625,0.4390869140625,-0.3345947265625
2.103,433,2525,1280,1574,-4.0,34.0,17.0,-1.4648436307907104,-10.375975608825684,12.695311546325684,-1.2762451171875,0.5574951171875,-0.4388427734375
2.108,431,2521,1323,1591,-4.0,34.0,17.0,-3.601073980331421,-7.568358898162842,9.94873046875,-1.3111572265625,0.65673828125,-0.5001220703125
2.124,440,2477,1318,1650,-4.0,34.0,17.0,-3.967284917831421,-8.36181640625,5.981444835662842,-1.314208984375,0.62939453125,-0.4605712890625
2.125,465,2456,1278,1650,-4.0,34.0,17.0,-1.8920897245407104,-12.512206077575684,0.2441406100988388,-1.3194580078125,0.4837646484375,-0.326171875
2.138,455,2456,1211,1523,-4.0,34.0,17.0,1.8310545682907104,-15.869139671325684,-4.638671875,-1.3431396484375,0.3028564453125,-0.204833984375
2.151,456,2432,1308,1669,-3.0,33.0,20.0,5.249022960662842,-14.099120140075684,-5.981444835662842,-1.32568359375,0.142578125,-0.1773681640625
2.154,465,2569,1173,1529,-3.0,33.0,20.0,7.812499523162842,-6.225585460662842,-4.638671875,-1.267822265625,0.0665283203125,-0.2786865234375
2.182,455,2449,1236,1519,-3.0,33.0,20.0,7.385253429412842,4.39453125,-2.01416015625,-1.3275146484375,0.17724609375,-0.457763671875
2.182,472,2756,1083,1447,-3.0,33.0,20.0,0.6103515625,12.084959983825684,1.4038084745407104,-1.442138671875,0.3380126953125,-0.5494384765625
2.186,442,2552,1112,1501,-3.0,33.0,20.0,-8.23974609375,13.977049827575684,3.845214605331421,-1.4415283203125,0.362060546875,-0.4512939453125
2.198,432,2386,1136,1478,-3.0,33.0,20.0,-11.840819358825684,12.634276390075684,4.33349609375,-1.3453369140625,0.3287353515625,-0.2723388671875
2.206,430,2354,1185,1577,-3.0,33.0,20.0,-9.33837890625,13.671874046325684,4.0283203125,-1.2442626953125,0.3380126953125,-0.1695556640625
2.214,427,2321,1159,1550,-3.0,33.0,20.0,-9.33837890625,13.671874046325684,4.0283203125,-1.18310546875,0.3717041015625,-0.187744140625
2.232,414,2260,1025,1380,-3.0,33.0,20.0,-1.8920897245407104,29.113767623901367,2.685546636581421,-1.1202392578125,0.4007568359375,-0.2825927734375
2.237,404,2223,1029,1440,-3.0,33.0,20.0,-3.356933355331421,37.17041015625,0.9155272841453552,-1.0216064453125,0.436767578125,-0.383544921875
2.244,404,2186,1026,1379,0.0,32.0,16.0,-3.356933355331421,37.17041015625,0.9155272841453552,-0.91259765625,0.4608154296875,-0.4512939453125
2.259,371,2087,905,1191,0.0,32.0,16.0,-9.27734375,34.60693359375,-8.85009765625,-0.8154296875,0.3992919921875,-0.46484375
2.284,364,2001,897,1236,0.0,32.0,16.0,-8.97216796875,27.099607467651367,-17.39501953125,-0.74609375,0.291259765625,-0.4390869140625
2.284,345,1913,840,1146,0.0,32.0,16.0,-8.97216796875,27.099607467651367,-17.39501953125,-0.70361328125,0.2479248046875,-0.376220703125
2.288,336,1681,748,1012,0.0,32.0,16.0,-7.934569835662842,16.11328125,-25.329587936401367,-0.6578369140625,0.21728515625,-0.2283935546875
2.309,330,1592,780,1043,0.0,32.0,16.0,-9.70458984375,12.878417015075684,-27.160642623901367,-0.6148681640625,0.141357421875,-0.05126953125
2.309,321,1502,725,973,0.0,32.0,16.0,-9.70458984375,12.878417015075684,-27.160642623901367,-0.650146484375,0.0723876953125,0.0064697265625
2.321,306,1283,667,838,0.0,32.0,16.0,-3.723144292831421,14.404295921325684,-27.160642623901367,-0.7105712890625,0.04931640625,-0.04443359375
2.328,305,1184,661,841,0.0,32.0,16.0,0.2441406100988388,16.4794921875,-22.338865280151367,-0.7044677734375,0.095703125,-0.1070556640625
2.334,301,1074,648,806,0.0,32.0,16.0,0.2441406100988388,16.4794921875,-22.338865280151367,-0.681396484375,0.2154541015625,-0.1513671875
2.358,294,957,614,721,-5.0,34.0,16.0,-0.4882812201976776,12.145995140075684,-6.347655773162842,-0.6761474609375,0.3214111328125,-0.1795654296875
2.388,292,1029,644,728,-5.0,34.0,16.0,1.220703125,9.3994140625,-3.112792730331421,-0.6756591796875,0.3294677734375,-0.215087890625
2.388,292,923,639,657,-5.0,34.0,16.0,1.220703125,9.3994140625,-3.112792730331421,-0.6868896484375,0.277587890625,-0.270751953125
2.388,292,959,630,715,-5.0,34.0,16.0,6.774901866912842,9.033203125,-5.0048828125,-0.7080078125,0.2322998046875,-0.314697265625
2.389,298,980,644,778,-5.0,34.0,16.0,7.385253429412842,7.812499523162842,-5.615233898162842,-0.717041015625,0.1912841796875,-0.323974609375
2.394,300,1042,673,794,-5.0,34.0,16.0,7.385253429412842,7.812499523162842,-5.615233898162842,-0.716552734375,0.140869140625,-0.3260498046875
2.409,306,1125,678,802,-5.0,34.0,16.0,2.746581792831421,7.446288585662842,-3.784179449081421,-0.7373046875,0.108154296875,-0.3349609375
2.416,315,1228,712,871,-5.0,34.0,16.0,0.2441406100988388,8.056640625,-0.6103515625,-0.7735595703125,0.1082763671875,-0.326171875
2.424,317,1258,739,910,-5.0,34.0,16.0,0.2441406100988388,8.056640625,-0.6103515625,-0.789306640625,0.134521484375,-0.3135986328125
2.437,323,1386,725,905,-4.0,33.0,18.0,-4.150390625,5.065917491912842,8.30078125,-0.77685546875,0.178955078125,-0.3099365234375
2.447,324,1474,774,1004,-4.0,33.0,18.0,-4.150390625,5.065917491912842,8.30078125,-0.7471923828125,0.223876953125,-0.29833984375
2.457,330,1561,778,1025,-4.0,33.0,18.0,-5.737304210662842,1.7089842557907104,11.779784202575684,-0.7471923828125,0.223876953125,-0.29833984375
2.479,342,1711,767,1039,-4.0,33.0,18.0,-6.896972179412842,-1.15966796875,12.329100608825684,-0.7088623046875,0.21630859375,-0.322509765625
2.490,354,1860,837,1148,-4.0,33.0,18.0,-6.896972179412842,-1.15966796875,12.329100608825684,-0.6988525390625,0.1864013671875,-0.3636474609375
2.490,361,1931,854,1195,-4.0,33.0,18.0,-6.103515148162842,-0.7934569716453552,11.474608421325684,-0.6988525390625,0.1864013671875,-0.3636474609375
2.498,371,2018,890,1163,-4.0,33.0,18.0,-5.310058116912842,-7.202147960662842,15.380858421325684,-0.709716796875,0.218994140625,-0.3232421875
2.505,376,2061,987,1318,-4.0,33.0,18.0,-5.310058116912842,-7.202147960662842,15.380858421325684,-0.6707763671875,0.2362060546875,-0.2177734375
2.516,383,2118,1018,1358,-4.0,33.0,18.0,-7.934569835662842,-12.939452171325684,18.1884765625,-0.6707763671875,0.2362060546875,-0.2177734375
2.528,398,2213,1025,1280,-4.0,33.0,18.0,-9.1552734375,-18.12744140625,18.5546875,-0.7303466796875,0.225830078125,-0.12744140625
2.536,401,2242,1112,1441,-5.0,33.0,15.0,-9.1552734375,-18.12744140625,18.5546875,-0.7606201171875,0.1954345703125,-0.1502685546875
2.544,411,2292,1146,1470,-5.0,33.0,15.0,-6.774901866912842,-19.95849609375,17.2119140625,-0.7606201171875,0.1954345703125,-0.1502685546875
2.557,423,2345,1146,1390,-5.0,33.0,15.0,8.72802734375,-25.024412155151367,14.282225608825684,-0.8729248046875,0.2816162109375,-0.231201171875
2.590,426,2379,1251,1544,-5.0,33.0,15.0,8.72802734375,-25.024412155151367,14.282225608825684,-0.9556884765625,0.38818359375,-0.326904296875
2.590,430,2410,1268,1561,-5.0,33.0,15.0,15.808104515075684,-23.864744186401367,13.916014671325684,-0.9556884765625,0.38818359375,-0.326904296875
2.591,433,2460,1226,1445,-5.0,33.0,15.0,13.061522483825684,-19.8974609375,10.375975608825684,-1.09326171875,0.4967041015625,-0.3768310546875
2.596,442,2486,1336,1593,-5.0,33.0,15.0,13.061522483825684,-19.8974609375,10.375975608825684,-1.1497802734375,0.5157470703125,-0.44140625
2.604,456,2437,1343,1662,-5.0,33.0,15.0,11.047362327575684,-19.83642578125,7.019042491912842,-1.1497802734375,0.5157470703125,-0.44140625
2.622,462,2430,1278,1535,-5.0,33.0,15.0,6.286620616912842,-19.8974609375,3.112792730331421,-1.2513427734375,0.606689453125,-0.520263671875
2.626,473,2461,1362,1662,-5.0,33.0,15.0,6.286620616912842,-19.8974609375,3.112792730331421,-1.27685546875,0.5150146484375,-0.394775390625
2.634,466,2432,1362,1691,-4.0,34.0,19.0,0.54931640625,-21.972654342651367,0.6103515625,-1.27685546875,0.5150146484375,-0.394775390625
2.648,473,2418,1283,1560,-4.0,34.0,19.0,-0.7934569716453552,-24.658201217651367,-5.798339366912842,-1.2972412109375,0.245361328125,-0.229736328125
2.656,470,2416,1359,1693,-4.0,34.0,19.0,-0.7934569716453552,-24.658201217651367,-5.798339366912842,-1.2432861328125,0.169677734375,-0.2652587890625
2.664,470,2418,1357,1695,-4.0,34.0,19.0,6.225585460662842,-22.094724655151367,-7.446288585662842,-1.2432861328125,0.169677734375,-0.2652587890625
2.692,466,2449,1271,1534,-4.0,34.0,19.0,12.939452171325684,-16.90673828125,-8.30078125,-1.253173828125,0.216064453125,-0.437744140625
2.693,466,2424,1328,1675,-4.0,34.0,19.0,14.343260765075684,-11.657713890075684,-8.6669921875,-1.253173828125,0.216064453125,-0.437744140625
2.694,464,2372,1509,1260,-4.0,34.0,19.0,7.202147960662842,-7.324218273162842,-7.019042491912842,-1.36083984375,0.27880859375,-0.4373779296875
2.707,464,2379,1204,1503,-4.0,34.0,19.0,-4.45556640625,-2.868652105331421,-3.112792730331421,-1.2786865234375,0.313232421875,-0.2197265625
2.716,466,2348,1266,1629,-4.0,34.0,19.0,-13.610838890075684,2.38037109375,1.2817381620407104,-1.2786865234375,0.313232421875,-0.2197265625
2.729,446,2319,1237,1604,-4.0,34.0,19.0,-16.7236328125,9.033203125,3.967284917831421,-1.193603515625,0.3056640625,-0.1695556640625
2.737,437,2290,1115,1412,-4.0,32.0,17.0,-12.939452171325684,16.05224609375,4.5166015625,-1.111572265625,0.436279296875,-0.3162841796875
2.748,431,2230,1156,1521,-4.0,32.0,17.0,-5.0048828125,20.202634811401367,2.807616949081421,-1.111572265625,0.436279296875,-0.3162841796875
2.754,427,2205,1112,1468,-4.0,32.0,17.0,0.4882812201976776,20.751951217651367,-1.5258787870407104,-1.0640869140625,0.4920654296875,-0.3995361328125
2.767,409,2032,996,1289,-4.0,32.0,17.0,-0.30517578125,19.8974609375,-7.385253429412842,-0.9071044921875,0.3748779296875,-0.4212646484375
2.778,400,1935,1003,1333,-4.0,32.0,17.0,-5.432128429412842,18.798828125,-13.000487327575684,-0.9071044921875,0.3748779296875,-0.4212646484375
2.803,387,1854,957,1251,-4.0,32.0,17.0,-10.559081077575684,17.39501953125,-17.51708984375,-0.823486328125,0.2598876953125,-0.32861328125
2.804,356,1730,860,1039,-4.0,32.0,17.0,-13.793944358825684,15.319823265075684,-20.568845748901367,-0.706298828125,0.0616455078125,-0.0029296875
2.807,355,1602,871,1058,-4.0,32.0,17.0,-13.183592796325684,13.061522483825684,-22.216794967651367,-0.706298828125,0.0616455078125,-0.0029296875
2.814,337,1462,849,1010,-4.0,32.0,17.0,-7.751464366912842,12.084959983825684,-22.216794967651367,-0.7139892578125,0.0289306640625,0.043701171875
2.835,324,1302,749,862,-4.0,32.0,17.0,0.6713866591453552,13.671874046325684,-20.446775436401367,-0.7142333984375,0.062255859375,-0.0836181640625
2.836,304,1166,753,864,-3.0,33.0,15.0,7.812499523162842,15.869139671325684,-17.08984375,-0.7142333984375,0.062255859375,-0.0836181640625
2.844,313,1071,740,830,-3.0,33.0,15.0,10.314940452575684,15.991209983825684,-10.803221702575684,-0.656494140625,0.1959228515625,-0.13525390625
2.858,304,973,687,740,-3.0,33.0,15.0,9.46044921875,14.587401390075684,-3.540038824081421,-0.5694580078125,0.3802490234375,-0.27294921875
2.866,302,936,689,765,-3.0,33.0,15.0,6.164550304412842,12.939452171325684,-0.2441406100988388,-0.5694580078125,0.3802490234375,-0.27294921875
2.883,300,922,684,763,-3.0,33.0,15.0,3.417968511581421,12.207030296325684,-1.15966796875,-0.5943603515625,0.3472900390625,-0.29736328125
2.899,302,951,658,725,-3.0,33.0,15.0,4.57763671875,12.207030296325684,-3.295898199081421,-0.6650390625,0.3189697265625,-0.3377685546875
2.899,306,1039,652,766,-3.0,33.0,15.0,5.798339366912842,10.620116233825684,-5.0048828125,-0.725830078125,0.2835693359375,-0.3433837890625
2.907,310,1025,713,805,-3.0,33.0,15.0,4.7607421875,6.652831554412842,-6.469726085662842,-0.7509765625,0.201171875,-0.3033447265625
2.918,316,1117,710,808,-3.0,33.0,15.0,4.2724609375,2.990722417831421,-6.835937023162842,-0.76806640625,0.12841796875,-0.281982421875
2.926,322,1185,750,891,-3.0,33.0,15.0,4.69970703125,1.5258787870407104,-5.310058116912842,-0.7880859375,0.1009521484375,-0.2864990234375
2.942,323,1251,761,917,-2.0,33.0,12.0,3.723144292831421,2.01416015625,-2.38037109375,-0.7982177734375,0.1083984375,-0.29443359375
2.948,324,1383,761,952,-2.0,33.0,12.0,0.7324218153953552,3.051757574081421,1.4038084745407104,-0.7930908203125,0.1419677734375,-0.29833984375
2.956,327,1434,785,996,-2.0,33.0,12.0,-3.417968511581421,3.540038824081421,5.371093273162842,-0.781005859375,0.1826171875,-0.2930908203125
2.964,332,1497,803,1025,-2.0,33.0,12.0,-7.446288585662842,3.479003667831421,8.48388671875,-0.778076171875,0.204833984375,-0.283935546875
3.001,344,1615,797,1009,-2.0,33.0,12.0,-10.192870140075684,3.723144292831421,10.375975608825684,-0.788330078125,0.2125244140625,-0.286865234375
3.001,354,1721,854,1115,-2.0,33.0,12.0,-11.047362327575684,4.21142578125,11.413573265075684,-0.7958984375,0.216796875,-0.3104248046875
3.001,314,1931,799,1126,-2.0,33.0,12.0,-10.375975608825684,3.906249761581421,12.390135765075684,-0.8109130859375,0.228515625,-0.333740234375
3.010,371,1905,918,1122,-2.0,33.0,12.0,-10.253905296325684,1.3427733182907104,14.526366233825684,-0.818115234375,0.27587890625,-0.330078125
3.020,377,1960,978,1260,-2.0,33.0,12.0,-12.084959983825684,-2.685546636581421,16.90673828125,-0.7593994140625,0.296142578125,-0.291748046875
3.024,378,2020,1005,1294,-2.0,33.0,12.0,-14.099120140075684,-6.042479991912842,17.2119140625,-0.703369140625,0.26171875,-0.2430419921875
3.038,386,2110,975,1231,-4.0,35.0,16.0,-13.916014671325684,-8.11767578125,16.845703125,-0.7149658203125,0.2762451171875,-0.2244873046875
3.049,391,2155,1065,1381,-4.0,35.0,16.0,-13.000487327575684,-10.131834983825684,16.78466796875,-0.7315673828125,0.281005859375,-0.219970703125
3.054,404,2224,1070,1386,-4.0,35.0,16.0,-13.244627952575684,-12.451170921325684,15.808104515075684,-0.736083984375,0.229248046875,-0.207763671875
3.067,406,2292,1043,1336,-4.0,35.0,16.0,-12.145995140075684,-14.343260765075684,14.465331077575684,-0.7403564453125,0.1890869140625,-0.19189453125
3.076,413,2337,1143,1483,-4.0,35.0,16.0,-7.446288585662842,-15.930174827575684,13.610838890075684,-0.736083984375,0.1632080078125,-0.1689453125
3.105,418,2368,1182,1506,-4.0,35.0,16.0,-0.4272460639476776,-18.5546875,13.977049827575684,-0.7479248046875,0.18359375,-0.1474609375
3.106,423,2435,1145,1395,-4.0,35.0,16.0,7.629394054412842,-21.423337936401367,15.197752952575684,-0.818115234375,0.283203125,-0.1832275390625
3.106,424,2440,1248,1559,-4.0,35.0,16.0,14.343260765075684,-22.094724655151367,14.892577171325684,-0.9449462890625,0.4019775390625,-0.2843017578125
3.114,432,2461,1263,1575,-4.0,35.0,16.0,16.66259765625,-21.057126998901367,12.084959983825684,-1.0626220703125,0.484375,-0.3626708984375
3.133,440,2445,1198,1506,-6.0,32.0,14.0,13.366698265075684,-19.83642578125,8.544921875,-1.15478515625,0.5089111328125,-0.4129638671875
3.136,462,2467,1290,1655,-6.0,32.0,14.0,6.896972179412842,-16.66259765625,6.042479991912842,-1.2359619140625,0.5185546875,-0.4915771484375
3.144,455,2445,1283,1656,-6.0,32.0,14.0,1.15966796875,-12.390135765075684,5.493163585662842,-1.296630859375,0.5467529296875,-0.5352783203125
3.158,457,2456,1216,1533,-6.0,32.0,14.0,-2.990722417831421,-11.291502952575684,5.615233898162842,-1.3392333984375,0.5240478515625,-0.45166015625
3.166,456,2465,1289,1665,-6.0,32.0,14.0,-4.8828125,-13.366698265075684,4.5166015625,-1.3675537109375,0.4305419921875,-0.3016357421875
3.174,462,2456,1276,1666,-6.0,32.0,14.0,-2.990722417831421,-14.648436546325684,2.563476324081421,-1.3533935546875,0.3289794921875,-0.1986083984375
3.206,457,2467,1191,1519,-6.0,32.0,14.0,3.417968511581421,-12.329100608825684,0.6103515625,-1.25048828125,0.25244140625,-0.209716796875
3.206,466,2486,1228,1604,-6.0,32.0,14.0,10.742186546325684,-6.408690929412842,-1.9531248807907104,-1.2298583984375,0.278076171875,-0.3505859375
3.207,455,2448,1231,1641,-6.0,32.0,14.0,11.840819358825684,0.2441406100988388,-4.638671875,-1.3651123046875,0.350341796875,-0.490966796875
3.218,442,2419,1137,1483,-6.0,32.0,14.0,5.0048828125,4.69970703125,-5.249022960662842,-1.4427490234375,0.3465576171875,-0.4771728515625
3.226,441,2384,1173,1607,-4.0,33.0,18.0,-4.150390625,7.385253429412842,-3.051757574081421,-1.380859375,0.323486328125,-0.33642578125
3.234,437,2347,1131,1473,-4.0,33.0,18.0,-9.6435546875,10.925292015075684,0.1831054538488388,-1.263427734375,0.3040771484375,-0.2047119140625
3.248,426,2295,1038,1415,-4.0,33.0,18.0,-8.9111328125,17.02880859375,2.197265625,-1.167724609375,0.3106689453125,-0.2005615234375
3.262,416,2258,1074,1494,-4.0,33.0,18.0,-3.356933355331421,23.498533248901367,2.38037109375,-1.08984375,0.400146484375,-0.305908203125
3.264,371,2337,912,1348,-4.0,33.0,18.0,2.197265625,26.306150436401367,0.1220703050494194,-1.0159912109375,0.5230712890625,-0.4158935546875
3.278,391,2091,907,1282,-4.0,33.0,18.0,2.868652105331421,25.024412155151367,-5.920409679412842,-0.944091796875,0.5325927734375,-0.468505859375
3.307,383,2222,784,1294,-4.0,33.0,18.0,-0.7324218153953552,22.033689498901367,-14.343260765075684,-0.87109375,0.4088134765625,-0.458251953125
3.308,371,1931,841,1253,-4.0,33.0,18.0,-4.5166015625,18.98193359375,-21.057126998901367,-0.8021240234375,0.28857421875,-0.4088134765625
3.308,338,1796,738,1038,-4.0,33.0,18.0,-6.469726085662842,15.991209983825684,-23.742673873901367,-0.7342529296875,0.239501953125,-0.306640625
3.316,336,1676,749,1063,-4.0,33.0,18.0,-7.751464366912842,12.268065452575684,-25.024412155151367,-0.665771484375,0.1676025390625,-0.12646484375
3.324,323,1546,723,1004,-4.0,31.0,16.0,-6.713866710662842,8.9111328125,-26.916501998901367,-0.6453857421875,0.0849609375,0.0177001953125
3.338,306,1318,620,840,-4.0,31.0,16.0,-1.8920897245407104,7.629394054412842,-26.977537155151367,-0.6806640625,0.0733642578125,0.0294189453125
3.346,296,1204,614,840,-4.0,31.0,16.0,2.3193359375,8.11767578125,-23.803709030151367,-0.69482421875,0.0936279296875,-0.0242919921875
3.358,286,1101,580,787,-4.0,31.0,16.0,3.906249761581421,9.58251953125,-18.24951171875,-0.671630859375,0.152099609375,-0.1151123046875
3.367,274,958,522,691,-4.0,31.0,16.0,5.493163585662842,11.169432640075684,-11.840819358825684,-0.650146484375,0.2525634765625,-0.21337890625
3.376,272,905,523,702,-4.0,31.0,16.0,6.164550304412842,12.207030296325684,-7.507323741912842,-0.6578369140625,0.31298828125,-0.2779541015625
3.384,272,887,525,695,-4.0,31.0,16.0,6.164550304412842,12.207030296325684,-7.507323741912842,-0.7005615234375,0.3251953125,-0.3212890625
3.398,268,905,491,678,-4.0,31.0,16.0,2.624511480331421,11.840819358825684,-6.164550304412842,-0.745849609375,0.3280029296875,-0.333984375
3.409,267,860,513,684,-4.0,31.0,16.0,0.4882812201976776,9.21630859375,-7.080077648162842,-0.7578125,0.2960205078125,-0.3101806640625
3.414,268,867,508,684,-4.0,31.0,16.0,0.4882812201976776,9.21630859375,-7.080077648162842,-0.7498779296875,0.220947265625,-0.2919921875
3.427,268,906,493,673,-3.0,34.0,14.0,-0.4272460639476776,5.371093273162842,-8.7890625,-0.7490234375,0.151611328125,-0.3099365234375
3.436,269,944,521,722,-3.0,34.0,14.0,0.7934569716453552,4.7607421875,-7.751464366912842,-0.7611083984375,0.113037109375,-0.3359375
3.444,275,991,548,749,-3.0,34.0,14.0,0.7934569716453552,4.7607421875,-7.751464366912842,-0.7769775390625,0.1068115234375,-0.345458984375
3.457,280,1100,551,757,-3.0,34.0,14.0,-1.2817381620407104,-0.1220703050494194,0.0,-0.782958984375,0.13427734375,-0.3321533203125
3.477,294,1160,601,830,-3.0,34.0,14.0,-3.540038824081421,-3.845214605331421,5.187987804412842,-0.7708740234375,0.1788330078125,-0.2938232421875
3.478,298,1236,632,868,-3.0,34.0,14.0,-3.540038824081421,-3.845214605331421,5.187987804412842,-0.74951171875,0.2176513671875,-0.261962890625
3.487,307,1424,636,883,-3.0,34.0,14.0,-2.197265625,-6.958007335662842,10.009765625,-0.72412109375,0.236328125,-0.25341796875
3.512,316,1506,694,996,-3.0,34.0,14.0,0.1220703050494194,-6.042479991912842,9.8876953125,-0.6964111328125,0.2344970703125,-0.265869140625
3.512,328,1624,723,1022,-3.0,34.0,14.0,0.1220703050494194,-6.042479991912842,9.8876953125,-0.6722412109375,0.2232666015625,-0.2972412109375
3.520,336,1801,725,1031,-2.0,34.0,20.0,3.112792730331421,-4.57763671875,10.009765625,-0.65673828125,0.21533203125,-0.3372802734375
3.526,347,1900,813,1182,-2.0,34.0,20.0,3.417968511581421,-6.103515148162842,10.559081077575684,-0.6710205078125,0.2406005859375,-0.3687744140625
3.534,354,1978,841,1229,-2.0,34.0,20.0,3.417968511581421,-6.103515148162842,10.559081077575684,-0.683837890625,0.314453125,-0.3792724609375
3.548,371,2093,874,1211,-2.0,34.0,20.0,-0.1831054538488388,-18.4326171875,12.817381858825684,-0.6019287109375,0.3057861328125,-0.320556640625
3.556,383,2155,987,1365,-2.0,34.0,20.0,-3.601073980331421,-27.221677780151367,10.742186546325684,-0.522705078125,0.2091064453125,-0.1724853515625
3.564,400,2162,1014,1424,-2.0,34.0,20.0,-3.601073980331421,-27.221677780151367,10.742186546325684,-0.6024169921875,0.1982421875,-0.0655517578125
3.588,416,2243,1014,1383,-2.0,34.0,20.0,-2.563476324081421,-36.0107421875,7.751464366912842,-0.755859375,0.22900390625,-0.0506591796875
3.588,426,2303,1091,1518,-2.0,34.0,20.0,-1.0986328125,-34.97314453125,5.187987804412842,-0.8814697265625,0.2283935546875,-0.0614013671875
3.636,439,2359,1134,1533,-2.0,34.0,20.0,-1.0986328125,-34.97314453125,5.187987804412842,-0.8814697265625,0.2283935546875,-0.0614013671875
3.637,442,2374,1184,1592,-2.0,34.0,20.0,4.150390625,-26.611326217651367,4.39453125,-1.039306640625,0.283203125,-0.209716796875
3.637,456,2386,1236,1636,-2.0,31.0,16.0,4.150390625,-26.611326217651367,4.39453125,-1.0870361328125,0.3250732421875,-0.2685546875
3.637,455,2407,1260,1655,-2.0,31.0,16.0,9.521484375,-23.071287155151367,7.568358898162842,-1.0870361328125,0.3250732421875,-0.2685546875
3.639,461,2432,1243,1149,-2.0,31.0,16.0,12.695311546325684,-18.798828125,12.756346702575684,-1.2916259765625,0.489501953125,-0.39013671875
3.646,465,2541,1294,1655,-2.0,31.0,16.0,12.695311546325684,-18.798828125,12.756346702575684,-1.36181640625,0.579345703125,-0.4742431640625
3.655,458,2479,1318,1683,-2.0,31.0,16.0,7.324218273162842,-13.488768577575684,12.573241233825684,-1.36181640625,0.579345703125,-0.4742431640625
3.687,466,2472,1231,1557,-2.0,31.0,16.0,-3.845214605331421,-11.657713890075684,5.676269054412842,-1.313232421875,0.54443359375,-0.3336181640625
3.689,468,2461,1306,1700,-2.0,31.0,16.0,-3.845214605331421,-11.657713890075684,5.676269054412842,-1.30078125,0.4168701171875,-0.3179931640625
3.719,462,2481,1317,1681,-2.0,31.0,16.0,15.991209983825684,-18.06640625,-13.854979515075684,-1.22802734375,0.2061767578125,-0.4290771484375
3.719,458,2484,1275,1662,-2.0,31.0,16.0,15.991209983825684,-18.06640625,-13.854979515075684,-1.261474609375,0.1866455078125,-0.465087890625
3.719,458,2456,1276,1676,-3.0,30.0,20.0,18.06640625,-16.05224609375,-16.78466796875,-1.261474609375,0.1866455078125,-0.465087890625
3.728,446,2456,1163,1500,-3.0,30.0,20.0,0.4272460639476776,-7.690429210662842,-11.901854515075684,-1.4222412109375,0.2596435546875,-0.3472900390625
3.739,454,2415,1225,1640,-3.0,30.0,20.0,0.4272460639476776,-7.690429210662842,-11.901854515075684,-1.3282470703125,0.2677001953125,-0.1883544921875
3.744,442,2396,1201,1623,-3.0,30.0,20.0,-9.6435546875,-2.624511480331421,-6.042479991912842,-1.3282470703125,0.2677001953125,-0.1883544921875
3.759,430,2479,1050,1452,-3.0,30.0,20.0,-10.620116233825684,13.000487327575684,1.5258787870407104,-1.157958984375,0.2879638671875,-0.13818359375
3.765,428,2308,1129,1550,-3.0,30.0,20.0,-10.620116233825684,13.000487327575684,1.5258787870407104,-1.1328125,0.369384765625,-0.24267578125
3.774,423,2263,1098,1521,-3.0,30.0,20.0,-4.0283203125,20.263669967651367,2.13623046875,-1.1328125,0.369384765625,-0.24267578125
3.822,402,2183,959,1336,-3.0,30.0,20.0,5.493163585662842,22.399900436401367,-5.493163585662842,-1.0262451171875,0.499755859375,-0.4295654296875
3.822,346,2442,780,1351,-3.0,30.0,20.0,5.493163585662842,22.399900436401367,-5.493163585662842,-0.941162109375,0.42333984375,-0.43798828125
3.822,377,2484,918,1333,-3.0,30.0,20.0,3.173827886581421,20.751951217651367,-12.634276390075684,-0.941162109375,0.42333984375,-0.43798828125
3.822,351,1914,815,1091,-3.0,34.0,16.0,-0.30517578125,18.5546875,-19.6533203125,-0.782470703125,0.168701171875,-0.2291259765625
3.826,344,1830,799,1122,-3.0,34.0,16.0,-2.685546636581421,15.441893577575684,-25.146482467651367,-0.782470703125,0.168701171875,-0.2291259765625
3.834,334,1713,780,1078,-3.0,34.0,16.0,-3.540038824081421,11.718749046325684,-28.320310592651367,-0.713134765625,0.0487060546875,-0.0391845703125
3.847,322,1494,691,917,-3.0,34.0,16.0,-1.15966796875,9.82666015625,-28.259275436401367,-0.6988525390625,0.01123046875,0.0357666015625
3.855,310,1413,694,920,-3.0,34.0,16.0,4.82177734375,11.169432640075684,-25.573728561401367,-0.6988525390625,0.01123046875,0.0357666015625
3.863,302,1287,667,867,-3.0,34.0,16.0,10.559081077575684,13.366698265075684,-21.972654342651367,-0.687255859375,0.041259765625,-0.0108642578125
3.877,292,1097,594,748,-3.0,34.0,16.0,11.779784202575684,13.793944358825684,-15.991209983825684,-0.619873046875,0.34716796875,-0.1927490234375
3.886,282,1032,588,757,-3.0,34.0,16.0,9.765625,12.512206077575684,-8.97216796875,-0.619873046875,0.34716796875,-0.1927490234375
3.928,278,976,569,738,-3.0,34.0,16.0,6.286620616912842,10.253905296325684,-6.164550304412842,-0.6162109375,0.433837890625,-0.26171875
3.928,263,1116,521,711,-3.0,31.0,13.0,3.906249761581421,8.23974609375,-8.544921875,-0.6793212890625,0.34814453125,-0.322265625
3.929,262,1053,514,698,-3.0,31.0,13.0,7.690429210662842,6.469726085662842,-12.878417015075684,-0.6793212890625,0.34814453125,-0.322265625
3.929,279,1012,561,749,-3.0,31.0,13.0,14.648436546325684,3.417968511581421,-16.29638671875,-0.68701171875,0.22998046875,-0.3055419921875
3.938,287,1123,575,748,-3.0,31.0,13.0,19.6533203125,-0.6103515625,-17.2119140625,-0.66845703125,0.0245361328125,-0.2686767578125
3.946,294,1201,620,834,-3.0,31.0,13.0,22.338865280151367,-3.479003667831421,-15.502928733825684,-0.66845703125,0.0245361328125,-0.2686767578125
3.953,299,1279,634,869,-3.0,31.0,13.0,22.033689498901367,-4.8828125,-12.084959983825684,-0.713623046875,0.0137939453125,-0.283447265625
3.968,302,1437,631,855,-3.0,31.0,13.0,19.1650390625,-6.347655773162842,-7.202147960662842,-0.8089599609375,0.1488037109375,-0.298583984375
3.976,306,1528,678,949,-3.0,31.0,13.0,15.441893577575684,-8.48388671875,-1.3427733182907104,-0.8089599609375,0.1488037109375,-0.298583984375
3.983,310,1624,683,989,-3.0,31.0,13.0,11.169432640075684,-10.253905296325684,4.0283203125,-0.7919921875,0.198486328125,-0.263671875
3.997,316,1785,673,973,-3.0,31.0,13.0,6.652831554412842,-10.009765625,7.873534679412842,-0.710205078125,0.158447265625,-0.221435546875
4.024,323,1888,724,1108,-3.0,30.0,18.0,2.44140625,-8.11767578125,11.108397483825684,-0.710205078125,0.158447265625,-0.221435546875
4.024,318,2054,706,725,-3.0,30.0,18.0,-0.7934569716453552,-6.408690929412842,14.404295921325684,-0.70654296875,0.177490234375,-0.2218017578125
4.028,344,2122,784,1129,-3.0,30.0,18.0,-2.746581792831421,-5.981444835662842,16.66259765625,-0.7442626953125,0.198486328125,-0.2698974609375
4.040,354,2144,852,1268,-3.0,30.0,18.0,-4.21142578125,-6.774901866912842,17.2119140625,-0.7442626953125,0.198486328125,-0.2698974609375
4.044,362,2183,897,1316,-3.0,30.0,18.0,-5.920409679412842,-8.97216796875,16.05224609375,-0.7777099609375,0.1751708984375,-0.287109375
4.057,377,2287,906,1253,-3.0,30.0,18.0,-7.873534679412842,-12.390135765075684,14.465331077575684,-0.77685546875,0.1220703125,-0.283935546875
4.111,387,2320,992,1419,-3.0,30.0,18.0,-8.11767578125,-16.29638671875,14.587401390075684,-0.7935791015625,0.0919189453125,-0.2640380859375
4.113,411,2335,1026,1453,-3.0,30.0,18.0,-6.042479991912842,-19.287109375,16.78466796875,-0.8271484375,0.1180419921875,-0.2503662109375
4.113,416,2379,1034,1399,-3.0,30.0,18.0,-5.432128429412842,-21.423337936401367,19.53125,-0.8360595703125,0.171875,-0.2158203125
4.113,426,2407,1136,1552,-3.0,30.0,18.0,-6.774901866912842,-22.460935592651367,21.240232467651367,-0.8482666015625,0.2430419921875,-0.1728515625
4.132,438,2424,1173,1580,-3.0,33.0,20.0,-7.324218273162842,-21.240232467651367,21.667478561401367,-0.8797607421875,0.3260498046875,-0.18212890625
4.133,441,2484,1216,1605,-3.0,33.0,20.0,-7.019042491912842,-18.49365234375,20.690916061401367,-0.91455078125,0.4014892578125,-0.202880859375
4.133,456,2544,1225,1611,-3.0,33.0,20.0,-6.835937023162842,-16.7236328125,17.9443359375,-0.959716796875,0.47607421875,-0.1890869140625
4.135,464,2525,1268,1641,-3.0,33.0,20.0,-6.408690929412842,-16.9677734375,13.732909202575684,-1.04833984375,0.5252685546875,-0.208251953125
4.148,456,2516,1215,1543,-3.0,33.0,20.0,-3.295898199081421,-16.66259765625,9.09423828125,-1.1595458984375,0.5552978515625,-0.3172607421875
4.155,466,2530,1294,1681,-3.0,33.0,20.0,2.746581792831421,-15.258788108825684,5.493163585662842,-1.234130859375,0.5760498046875,-0.42578125
4.163,464,2538,1318,1681,-3.0,33.0,20.0,7.324218273162842,-16.11328125,2.746581792831421,-1.2586669921875,0.540283203125,-0.419189453125
4.177,465,2519,1248,1547,-3.0,33.0,20.0,6.835937023162842,-19.71435546875,-0.6103515625,-1.26025390625,0.431640625,-0.319580078125
4.188,467,2534,1313,1669,-3.0,33.0,20.0,2.38037109375,-23.010251998901367,-4.638671875,-1.28564453125,0.2529296875,-0.2388916015625
4.195,469,2544,1313,1669,-3.0,33.0,20.0,-0.9765624403953552,-22.888181686401367,-7.507323741912842,-1.37060546875,0.05908203125,-0.2406005859375
4.239,430,2652,1341,1703,-3.0,30.0,19.0,1.2817381620407104,-19.1650390625,-7.080077648162842,-1.38427734375,-0.0460205078125,-0.2935791015625
4.240,479,2922,1125,1607,-3.0,30.0,19.0,6.042479991912842,-13.977049827575684,-3.601073980331421,-1.2357177734375,0.0460205078125,-0.3472900390625
4.240,478,2532,1326,1700,-3.0,30.0,19.0,5.737304210662842,-8.85009765625,0.54931640625,-1.1710205078125,0.2921142578125,-0.3741455078125
4.240,463,2541,1204,1533,-3.0,30.0,19.0,-1.3427733182907104,-4.5166015625,1.8310545682907104,-1.2877197265625,0.463623046875,-0.35888671875
4.246,466,2525,1253,1650,-3.0,30.0,19.0,-10.009765625,-1.4038084745407104,0.0,-1.3748779296875,0.4345703125,-0.2696533203125
4.259,456,2481,1251,1652,-3.0,30.0,19.0,-14.648436546325684,1.3427733182907104,-1.8310545682907104,-1.34130859375,0.322265625,-0.150390625
4.267,452,2430,1160,1487,-3.0,30.0,19.0,-13.793944358825684,5.920409679412842,-1.8310545682907104,-1.26513671875,0.2728271484375,-0.10400390625
4.276,439,2394,1199,1596,-3.0,30.0,19.0,-10.986327171325684,12.878417015075684,-0.7934569716453552,-1.219970703125,0.2802734375,-0.154296875
4.284,437,2354,1173,1569,-3.0,30.0,19.0,-8.72802734375,20.690916061401367,-0.3662109076976776,-1.2130126953125,0.3096923828125,-0.2667236328125
4.297,426,2284,1043,1386,-3.0,30.0,19.0,-7.141112804412842,26.672361373901367,-1.15966796875,-1.1961669921875,0.36962890625,-0.366943359375
4.306,418,2217,1078,1467,-5.0,30.0,17.0,-6.958007335662842,29.113767623901367,-3.234863042831421,-1.13330078125,0.428955078125,-0.3988037109375
4.337,411,2156,1026,1422,-5.0,30.0,17.0,-9.6435546875,29.052732467651367,-6.469726085662842,-1.0357666015625,0.42919921875,-0.3779296875
4.339,387,2024,922,1306,-5.0,30.0,17.0,-14.282225608825684,28.076169967651367,-10.986327171325684,-0.9312744140625,0.3499755859375,-0.3338623046875
4.339,373,1881,832,1206,-5.0,30.0,17.0,-16.6015625,26.550291061401367,-15.563963890075684,-0.840576171875,0.246337890625,-0.2882080078125
4.344,361,1781,827,1178,-5.0,30.0,17.0,-14.770506858825684,23.376462936401367,-19.04296875,-0.7528076171875,0.1507568359375,-0.18359375
4.357,336,1583,738,963,-5.0,30.0,17.0,-10.375975608825684,17.63916015625,-21.667478561401367,-0.673583984375,0.0802001953125,-0.021484375
4.372,318,1456,723,959,-5.0,30.0,17.0,-3.723144292831421,12.695311546325684,-23.254392623901367,-0.65869140625,0.0667724609375,0.0396728515625
4.374,292,1401,620,869,-5.0,30.0,17.0,4.8828125,11.779784202575684,-23.742673873901367,-0.6732177734375,0.0576171875,-0.0052490234375
4.387,299,1014,632,739,-5.0,30.0,17.0,10.559081077575684,13.366698265075684,-22.583005905151367,-0.634521484375,0.0736083984375,-0.0755615234375
4.396,286,907,605,725,-5.0,30.0,17.0,10.742186546325684,13.732909202575684,-17.08984375,-0.5804443359375,0.2042236328125,-0.1534423828125
4.404,279,842,578,694,-5.0,32.0,14.0,7.751464366912842,11.474608421325684,-9.82666015625,-0.5673828125,0.3614501953125,-0.185546875
4.443,277,790,564,639,-5.0,32.0,14.0,4.150390625,9.21630859375,-6.958007335662842,-0.5999755859375,0.4051513671875,-0.1917724609375
4.445,274,840,541,605,-5.0,32.0,14.0,4.08935546875,10.070799827575684,-9.27734375,-0.6556396484375,0.3387451171875,-0.226318359375
4.446,280,794,591,683,-5.0,32.0,14.0,7.324218273162842,11.779784202575684,-12.756346702575684,-0.6905517578125,0.2406005859375,-0.251708984375
4.446,274,829,601,695,-5.0,32.0,14.0,7.324218273162842,11.779784202575684,-12.756346702575684,-0.688720703125,0.134521484375,-0.2294921875
4.456,294,906,647,705,-5.0,32.0,14.0,9.70458984375,8.6669921875,-9.94873046875,-0.681640625,0.033447265625,-0.195068359375
4.465,307,974,710,788,-5.0,32.0,14.0,12.512206077575684,7.324218273162842,-4.69970703125,-0.699462890625,-0.0072021484375,-0.198974609375
4.473,313,1054,750,835,-5.0,32.0,14.0,12.512206077575684,7.324218273162842,-4.69970703125,-0.7347412109375,0.0264892578125,-0.238037109375
4.486,326,1184,774,844,-5.0,32.0,14.0,17.333984375,7.141112804412842,7.324218273162842,-0.7535400390625,0.09521484375,-0.269287109375
4.495,334,1290,820,944,-5.0,32.0,14.0,14.892577171325684,6.103515148162842,12.451170921325684,-0.741455078125,0.1639404296875,-0.2696533203125
4.502,338,1386,844,991,-3.0,35.0,18.0,14.892577171325684,6.103515148162842,12.451170921325684,-0.712890625,0.2017822265625,-0.2528076171875
4.549,347,1580,818,998,-3.0,35.0,18.0,1.9531248807907104,4.8828125,17.08984375,-0.6883544921875,0.197998046875,-0.2437744140625
4.550,356,1700,869,1131,-3.0,35.0,18.0,-2.807616949081421,5.126952648162842,17.333984375,-0.685302734375,0.192626953125,-0.2569580078125
4.550,371,1748,907,1195,-3.0,35.0,18.0,-2.807616949081421,5.126952648162842,17.333984375,-0.6968994140625,0.222900390625,-0.3017578125
4.550,388,2188,828,1236,-3.0,35.0,18.0,-0.4272460639476776,1.6479490995407104,17.02880859375,-0.7174072265625,0.22412109375,-0.345458984375
4.555,403,1970,1021,1334,-3.0,35.0,18.0,0.7324218153953552,-4.08935546875,15.319823265075684,-0.7335205078125,0.206787109375,-0.3499755859375
4.563,414,2003,1071,1388,-3.0,35.0,18.0,0.7324218153953552,-4.08935546875,15.319823265075684,-0.7174072265625,0.18994140625,-0.3204345703125
4.577,423,2087,1063,1336,-3.0,35.0,18.0,-7.080077648162842,-17.822265625,13.732909202575684,-0.72900390625,0.1822509765625,-0.276123046875
4.585,439,2135,1162,1480,-3.0,35.0,18.0,-9.033203125,-21.728513717651367,13.305663108825684,-0.7799072265625,0.2235107421875,-0.244384765625
4.597,454,2176,1222,1518,-3.0,35.0,18.0,-9.033203125,-21.728513717651367,13.305663108825684,-0.824951171875,0.265380859375,-0.2198486328125
4.606,458,2245,1206,1443,-4.0,31.0,17.0,1.7089842557907104,-27.404783248901367,5.249022960662842,-0.8914794921875,0.3118896484375,-0.2208251953125
4.629,466,2268,1313,1597,-4.0,31.0,17.0,8.6669921875,-27.893064498901367,2.0751953125,-0.982421875,0.3814697265625,-0.296142578125
4.656,477,2296,1336,1527,-4.0,31.0,17.0,8.6669921875,-27.893064498901367,2.0751953125,-0.982421875,0.3814697265625,-0.296142578125
4.657,473,2361,1357,1636,-4.0,31.0,17.0,13.305663108825684,-30.273435592651367,2.38037109375,-1.127197265625,0.5233154296875,-0.286376953125
4.657,479,2498,1233,1592,-4.0,31.0,17.0,13.305663108825684,-30.273435592651367,2.38037109375,-1.1890869140625,0.5494384765625,-0.2545166015625
4.657,478,2391,1383,1669,-4.0,31.0,17.0,12.023924827575684,-32.53173828125,2.3193359375,-1.1890869140625,0.5494384765625,-0.2545166015625
4.667,473,2448,1328,1504,-4.0,31.0,17.0,13.122557640075684,-29.785154342651367,-2.13623046875,-1.331298828125,0.5162353515625,-0.3106689453125
4.674,484,2440,1411,1669,-4.0,31.0,17.0,13.122557640075684,-29.785154342651367,-2.13623046875,-1.388916015625,0.414306640625,-0.23388671875
4.683,487,2449,1401,1681,-4.0,31.0,17.0,14.465331077575684,-29.235837936401367,-5.920409679412842,-1.388916015625,0.414306640625,-0.23388671875
4.697,481,2440,1316,1541,-4.0,29.0,19.0,19.83642578125,-25.817869186401367,-13.244627952575684,-1.395263671875,-0.05126953125,-0.12109375
4.710,490,2460,1398,1686,-4.0,29.0,19.0,19.83642578125,-25.817869186401367,-13.244627952575684,-1.23291015625,-0.0860595703125,-0.29736328125
4.713,487,2440,1411,1691,-4.0,29.0,19.0,27.160642623901367,-18.06640625,-12.329100608825684,-1.23291015625,-0.0860595703125,-0.29736328125
4.742,479,2440,1313,1518,-4.0,29.0,19.0,19.22607421875,-3.784179449081421,-5.187987804412842,-1.3389892578125,0.316162109375,-0.4918212890625
4.742,485,2440,1358,1653,-4.0,29.0,19.0,19.22607421875,-3.784179449081421,-5.187987804412842,-1.44482421875,0.3675537109375,-0.373046875
4.743,475,2419,1477,1278,-4.0,29.0,19.0,3.540038824081421,0.1831054538488388,-2.563476324081421,-1.44482421875,0.3675537109375,-0.373046875
4.757,470,2330,1249,1490,-4.0,29.0,19.0,-15.808104515075684,8.85009765625,1.6479490995407104,-1.3427734375,0.3101806640625,-0.1759033203125
4.765,473,2296,1316,1596,-4.0,29.0,19.0,-15.808104515075684,8.85009765625,1.6479490995407104,-1.3060302734375,0.3170166015625,-0.2484130859375
4.773,468,2253,1282,1564,-4.0,29.0,19.0,-16.05224609375,16.90673828125,2.44140625,-1.3060302734375,0.3170166015625,-0.2484130859375
4.786,442,2139,1143,1370,-4.0,29.0,19.0,-11.535643577575684,25.207517623901367,0.0610351525247097,-1.187744140625,0.356201171875,-0.3458251953125
4.795,442,2039,1167,1429,-6.0,31.0,15.0,-11.535643577575684,25.207517623901367,0.0610351525247097,-1.05712890625,0.315185546875,-0.3336181640625
4.803,430,1931,1143,1370,-6.0,31.0,15.0,-8.6669921875,23.254392623901367,-4.33349609375,-1.05712890625,0.315185546875,-0.3336181640625
4.845,402,1691,1014,1138,-6.0,31.0,15.0,-1.4038084745407104,17.4560546875,-14.587401390075684,-0.7894287109375,0.1304931640625,-0.11376953125
4.845,361,1627,934,1070,-6.0,31.0,15.0,-1.4038084745407104,17.4560546875,-14.587401390075684,-0.71337890625,0.0455322265625,0.0032958984375
4.845,359,1546,895,1012,-6.0,31.0,15.0,2.50244140625,17.27294921875,-17.7001953125,-0.71337890625,0.0455322265625,0.0032958984375
4.848,348,1157,917,905,-6.0,31.0,15.0,5.371093273162842,19.83642578125,-18.37158203125,-0.7008056640625,-0.003173828125,0.0133056640625
4.862,334,1000,883,846,-6.0,31.0,15.0,8.36181640625,23.193357467651367,-18.12744140625,-0.7008056640625,-0.003173828125,0.0133056640625
4.863,318,883,815,763,-6.0,31.0,15.0,12.023924827575684,25.085447311401367,-17.76123046875,-0.7030029296875,0.00390625,-0.0482177734375
4.877,304,708,706,653,-6.0,31.0,15.0,14.282225608825684,24.169919967651367,-14.343260765075684,-0.62255859375,0.33544921875,-0.2623291015625
4.885,292,687,666,658,-6.0,31.0,15.0,15.930174827575684,21.240232467651367,-8.544921875,-0.62255859375,0.33544921875,-0.2623291015625
4.893,282,698,638,654,-5.0,32.0,19.0,15.197752952575684,16.54052734375,-6.286620616912842,-0.5994873046875,0.424560546875,-0.308837890625
4.907,281,695,619,628,-5.0,32.0,19.0,13.549803733825684,11.352538108825684,-10.314940452575684,-0.642333984375,0.254638671875,-0.31005859375
4.915,282,698,631,654,-5.0,32.0,19.0,16.05224609375,8.48388671875,-15.075682640075684,-0.642333984375,0.254638671875,-0.31005859375
4.948,289,705,644,661,-5.0,32.0,19.0,17.76123046875,6.713866710662842,-14.526366233825684,-0.6640625,0.231201171875,-0.3314208984375
4.948,291,721,673,591,-5.0,32.0,19.0,12.573241233825684,3.845214605331421,-9.3994140625,-0.6600341796875,0.085205078125,-0.195556640625
4.948,299,766,693,694,-5.0,32.0,19.0,5.065917491912842,1.220703125,-3.662109136581421,-0.6600341796875,0.085205078125,-0.195556640625
4.955,308,813,735,723,-5.0,32.0,19.0,2.50244140625,0.3662109076976776,0.7324218153953552,-0.6734619140625,0.0035400390625,-0.17626953125
4.967,319,905,808,739,-5.0,32.0,19.0,5.187987804412842,0.2441406100988388,4.0283203125,-0.725830078125,0.0196533203125,-0.2071533203125
4.975,332,1003,871,844,-5.0,32.0,19.0,8.48388671875,-0.54931640625,7.995604991912842,-0.725830078125,0.0196533203125,-0.2071533203125
4.983,338,1107,897,894,-5.0,32.0,19.0,9.27734375,-2.01416015625,13.671874046325684,-0.7440185546875,0.106201171875,-0.2349853515625
4.997,346,1303,883,906,-8.0,34.0,17.0,6.774901866912842,-3.417968511581421,19.4091796875,-0.7315673828125,0.233154296875,-0.2579345703125
5.005,355,1429,947,1031,-8.0,34.0,17.0,1.4648436307907104,-3.723144292831421,22.583005905151367,-0.7315673828125,0.233154296875,-0.2579345703125
5.013,364,1546,976,1093,-8.0,34.0,17.0,-4.69970703125,-3.112792730331421,22.888181686401367,-0.7188720703125,0.2274169921875,-0.2633056640625
5.034,372,1868,995,1170,-8.0,34.0,17.0,-9.1552734375,-2.746581792831421,22.521970748901367,-0.708740234375,0.220703125,-0.2979736328125
5.035,384,1838,1065,1209,-8.0,34.0,17.0,-8.97216796875,-3.417968511581421,22.460935592651367,-0.708740234375,0.220703125,-0.2979736328125
5.054,390,1873,1107,1266,-8.0,34.0,17.0,-5.798339366912842,-5.371093273162842,21.850584030151367,-0.73681640625,0.2066650390625,-0.3155517578125
5.061,398,1985,1091,1215,-8.0,34.0,17.0,-5.310058116912842,-8.36181640625,20.996091842651367,-0.793701171875,0.18896484375,-0.2542724609375
5.073,414,2058,1191,1369,-8.0,34.0,17.0,-10.437010765075684,-12.390135765075684,20.446775436401367,-0.793701171875,0.18896484375,-0.2542724609375
5.074,423,2414,1604,1323,-8.0,34.0,17.0,-14.343260765075684,-16.11328125,19.287109375,-0.7900390625,0.135986328125,-0.1934814453125
5.088,432,2204,1229,1333,-5.0,32.0,15.0,-11.352538108825684,-18.1884765625,18.310546875,-0.8173828125,0.154541015625,-0.1932373046875
5.096,433,2246,1345,1490,-5.0,32.0,15.0,-4.94384765625,-20.202634811401367,18.4326171875,-0.8173828125,0.154541015625,-0.1932373046875
5.104,439,2295,1372,1516,-5.0,32.0,15.0,2.13623046875,-22.155759811401367,19.775390625,-0.878662109375,0.262451171875,-0.222412109375
5.118,454,2347,1330,1415,-5.0,32.0,15.0,8.6669921875,-22.766111373901367,20.446775436401367,-1.02001953125,0.4561767578125,-0.25830078125
5.126,456,2375,1437,1569,-5.0,32.0,15.0,11.962889671325684,-22.583005905151367,19.4091796875,-1.02001953125,0.4561767578125,-0.25830078125
5.152,456,2391,1447,1582,-5.0,32.0,15.0,11.047362327575684,-23.010251998901367,17.51708984375,-1.075927734375,0.5333251953125,-0.2412109375
5.152,465,2461,1453,1585,-5.0,32.0,15.0,9.21630859375,-22.460935592651367,14.465331077575684,-1.2174072265625,0.619384765625,-0.4622802734375
5.165,468,2480,1463,1590,-5.0,32.0,15.0,10.192870140075684,-20.751951217651367,10.253905296325684,-1.2174072265625,0.619384765625,-0.4622802734375
5.167,464,2472,1483,1611,-5.0,32.0,15.0,12.329100608825684,-21.911619186401367,5.493163585662842,-1.273681640625,0.606689453125,-0.4541015625
5.178,462,2498,1411,1455,-5.0,32.0,15.0,12.145995140075684,-25.939939498901367,-0.0610351525247097,-1.3570556640625,0.3336181640625,-0.1944580078125
5.186,482,2437,1428,1655,-6.0,30.0,22.0,9.033203125,-28.808591842651367,-5.371093273162842,-1.3570556640625,0.3336181640625,-0.1944580078125
5.194,465,2484,1468,1634,-6.0,30.0,22.0,6.591796398162842,-26.977537155151367,-8.7890625,-1.4080810546875,0.1378173828125,-0.146484375
5.208,481,2430,1367,1541,-6.0,30.0,22.0,8.7890625,-20.446775436401367,-9.27734375,-1.377685546875,-0.03466796875,-0.208251953125
5.216,488,2461,1447,1686,-6.0,30.0,22.0,13.122557640075684,-12.207030296325684,-7.080077648162842,-1.330810546875,-0.0289306640625,-0.3302001953125
5.224,483,2409,1434,1676,-6.0,30.0,22.0,10.925292015075684,-4.7607421875,-2.563476324081421,-1.397216796875,0.1650390625,-0.424072265625
5.252,447,2386,1419,1643,-6.0,30.0,22.0,0.6103515625,0.1220703050494194,2.3193359375,-1.45166015625,0.3052978515625,-0.3787841796875
5.253,447,2414,1411,1580,-6.0,30.0,22.0,-9.3994140625,2.44140625,5.065917491912842,-1.4083251953125,0.3302001953125,-0.249267578125
5.254,442,2375,1695,1186,-6.0,30.0,22.0,-13.427733421325684,5.371093273162842,5.859374523162842,-1.3250732421875,0.338623046875,-0.1767578125
5.273,433,2303,1265,1377,-6.0,30.0,22.0,-13.183592796325684,11.108397483825684,5.126952648162842,-1.2750244140625,0.349853515625,-0.2125244140625
5.276,437,2308,1323,1480,-6.0,30.0,22.0,-11.413573265075684,18.00537109375,2.868652105331421,-1.2510986328125,0.3612060546875,-0.3192138671875
5.284,424,2179,1280,1441,-4.0,31.0,14.0,-8.97216796875,22.460935592651367,-0.3662109076976776,-1.195556640625,0.4051513671875,-0.40966796875
5.297,411,2039,1138,1243,-4.0,31.0,14.0,-7.995604991912842,22.888181686401367,-4.08935546875,-1.098876953125,0.454345703125,-0.4351806640625
5.306,404,1923,1175,1294,-4.0,31.0,14.0,-10.253905296325684,21.179197311401367,-8.85009765625,-0.9884033203125,0.4307861328125,-0.4122314453125
5.314,393,1761,1129,1216,-4.0,31.0,14.0,-14.221190452575684,19.04296875,-15.075682640075684,-0.88671875,0.3321533203125,-0.3538818359375
5.328,364,1487,968,992,-4.0,31.0,14.0,-16.66259765625,16.54052734375,-21.423337936401367,-0.7872314453125,0.2239990234375,-0.240966796875
5.360,359,1326,978,1004,-4.0,31.0,14.0,-16.9677734375,12.573241233825684,-26.306150436401367,-0.680419921875,0.087646484375,-0.0357666015625
5.360,347,1323,899,711,-4.0,31.0,14.0,-13.793944358825684,10.131834983825684,-27.160642623901367,-0.63037109375,0.0374755859375,0.0914306640625
5.360,331,984,846,815,-4.0,31.0,14.0,-7.324218273162842,11.474608421325684,-24.047849655151367,-0.6309814453125,0.0777587890625,0.0859375
5.367,304,748,738,695,-4.0,31.0,14.0,-2.3193359375,13.183592796325684,-22.277830123901367,-0.606689453125,0.0509033203125,0.048095703125
5.375,291,689,654,658,-4.0,31.0,14.0,1.7700194120407104,14.892577171325684,-20.080564498901367,-0.5572509765625,0.0811767578125,-0.02685546875
5.394,279,689,605,644,-5.0,29.0,18.0,5.554198741912842,17.02880859375,-13.793944358825684,-0.5614013671875,0.2213134765625,-0.1116943359375
5.397,276,682,579,628,-5.0,29.0,18.0,7.080077648162842,18.06640625,-7.019042491912842,-0.64111328125,0.3380126953125,-0.1923828125
5.405,273,669,575,628,-5.0,29.0,18.0,6.774901866912842,17.08984375,-4.7607421875,-0.716064453125,0.3499755859375,-0.255859375
5.413,277,673,582,633,-5.0,29.0,18.0,5.249022960662842,13.977049827575684,-6.958007335662842,-0.737060546875,0.2891845703125,-0.279296875
5.427,275,679,572,614,-5.0,29.0,18.0,3.051757574081421,9.33837890625,-9.6435546875,-0.7191162109375,0.2303466796875,-0.260986328125
5.437,277,693,591,644,-5.0,29.0,18.0,2.807616949081421,5.126952648162842,-10.192870140075684,-0.69873046875,0.1788330078125,-0.23876953125
5.461,281,723,600,648,-5.0,29.0,18.0,5.187987804412842,2.929687261581421,-9.46044921875,-0.691162109375,0.12353515625,-0.2431640625
5.462,286,762,614,673,-5.0,29.0,18.0,6.774901866912842,3.051757574081421,-8.056640625,-0.70361328125,0.057861328125,-0.2503662109375
5.465,292,790,648,689,-5.0,29.0,18.0,5.371093273162842,4.08935546875,-4.45556640625,-0.7216796875,0.009033203125,-0.232421875
5.473,300,818,694,728,-5.0,29.0,18.0,3.601073980331421,4.57763671875,2.50244140625,-0.732421875,0.0352783203125,-0.2049560546875
5.486,316,968,759,759,-3.0,33.0,21.0,2.563476324081421,4.08935546875,10.681151390075684,-0.7320556640625,0.1181640625,-0.1783447265625
5.504,330,1071,830,871,-3.0,33.0,21.0,1.9531248807907104,3.295898199081421,15.808104515075684,-0.7269287109375,0.1734619140625,-0.180419921875
5.504,334,1204,840,917,-3.0,33.0,21.0,2.0751953125,3.112792730331421,17.02880859375,-0.732421875,0.2022705078125,-0.2261962890625
5.517,346,1404,858,938,-3.0,33.0,21.0,1.6479490995407104,2.929687261581421,16.54052734375,-0.7354736328125,0.2408447265625,-0.272705078125
5.525,361,1508,948,1079,-3.0,33.0,21.0,-0.54931640625,2.01416015625,15.930174827575684,-0.712158203125,0.243408203125,-0.298583984375
5.533,373,1627,989,1137,-3.0,33.0,21.0,-2.929687261581421,0.3662109076976776,15.686034202575684,-0.6732177734375,0.2049560546875,-0.310302734375
5.562,383,1823,1014,1125,-3.0,33.0,21.0,-3.845214605331421,-1.8920897245407104,16.78466796875,-0.6353759765625,0.189208984375,-0.2886962890625
5.563,401,1908,1101,1274,-3.0,33.0,21.0,-4.21142578125,-5.0048828125,18.5546875,-0.6385498046875,0.185791015625,-0.23583984375
5.565,363,2041,1042,1224,-3.0,33.0,21.0,-4.21142578125,-5.0048828125,18.5546875,-0.65283203125,0.2025146484375,-0.1629638671875
5.578,418,2137,1155,1287,-6.0,31.0,19.0,-12.817381858825684,-12.268065452575684,18.9208984375,-0.648193359375,0.1571044921875,-0.0689697265625
5.586,430,2194,1276,1447,-6.0,31.0,19.0,-15.380858421325684,-13.366698265075684,16.845703125,-0.7261962890625,0.072265625,-0.0384521484375
5.594,438,2242,1321,1494,-6.0,31.0,19.0,-10.314940452575684,-13.671874046325684,17.578125,-0.8570556640625,0.109619140625,-0.0821533203125
5.611,445,2323,1289,1409,-6.0,31.0,19.0,-0.4272460639476776,-14.282225608825684,20.080564498901367,-0.966796875,0.2425537109375,-0.170166015625
5.616,462,2370,1399,1568,-6.0,31.0,19.0,10.681151390075684,-14.038084983825684,21.423337936401367,-1.0611572265625,0.3885498046875,-0.267822265625
5.624,457,2404,1415,1588,-6.0,31.0,19.0,18.24951171875,-13.732909202575684,20.935056686401367,-1.157958984375,0.517333984375,-0.3419189453125
5.638,464,2448,1362,1478,-6.0,31.0,19.0,19.775390625,-12.451170921325684,18.6767578125,-1.260498046875,0.6605224609375,-0.4542236328125
5.665,466,2469,1467,1624,-6.0,31.0,19.0,16.11328125,-9.27734375,15.014647483825684,-1.3243408203125,0.7586669921875,-0.5338134765625
5.665,423,2941,1306,1582,-6.0,31.0,19.0,10.253905296325684,-8.1787109375,9.58251953125,-1.3409423828125,0.730712890625,-0.4669189453125
5.665,479,2626,1294,1450,-6.0,31.0,19.0,10.253905296325684,-8.1787109375,9.58251953125,-1.3314208984375,0.579345703125,-0.3223876953125
5.677,484,2456,1382,1531,-4.0,31.0,15.0,6.225585460662842,-17.08984375,-6.042479991912842,-1.329833984375,0.3680419921875,-0.2418212890625
5.686,479,2467,1476,1676,-4.0,31.0,15.0,9.1552734375,-18.310546875,-11.962889671325684,-1.3681640625,0.1796875,-0.31396484375
5.695,496,2442,1483,1700,-4.0,31.0,15.0,9.1552734375,-18.310546875,-11.962889671325684,-1.366455078125,0.04931640625,-0.45947265625
5.714,488,2430,1374,1574,-4.0,31.0,15.0,8.85009765625,-7.934569835662842,-12.023924827575684,-1.3255615234375,0.0218505859375,-0.5166015625
5.715,487,2460,1761,1616,-4.0,31.0,15.0,0.7934569716453552,-4.45556640625,-8.48388671875,-1.34033203125,0.100830078125,-0.431884765625
5.723,495,2435,1444,1689,-4.0,31.0,15.0,0.7934569716453552,-4.45556640625,-8.48388671875,-1.3494873046875,0.19677734375,-0.2550048828125
5.736,479,2430,1331,1521,-4.0,31.0,15.0,-12.756346702575684,-0.3662109076976776,1.15966796875,-1.2845458984375,0.2491455078125,-0.106689453125
5.764,470,2410,1399,1634,-4.0,31.0,15.0,-11.352538108825684,4.08935546875,4.150390625,-1.1866455078125,0.291015625,-0.08740234375
5.765,456,2464,1395,1561,-4.0,31.0,15.0,-11.352538108825684,4.08935546875,4.150390625,-1.1162109375,0.34423828125,-0.1820068359375
5.767,411,2449,1260,1452,-4.0,31.0,15.0,-4.638671875,17.76123046875,3.601073980331421,-1.0897216796875,0.372802734375,-0.292724609375
5.776,442,2317,1326,1514,-8.0,32.0,16.0,-4.638671875,17.76123046875,3.601073980331421,-1.0863037109375,0.38037109375,-0.377197265625
5.783,439,2275,1302,1487,-8.0,32.0,16.0,-5.676269054412842,22.155759811401367,0.54931640625,-1.0863037109375,0.38037109375,-0.377197265625
5.797,423,2191,1153,1306,-8.0,32.0,16.0,-8.23974609375,23.315427780151367,-6.469726085662842,-1.0625,0.4307861328125,-0.449462890625
5.805,419,2131,1186,1386,-8.0,32.0,16.0,-8.23974609375,23.315427780151367,-6.469726085662842,-1.0062255859375,0.4100341796875,-0.42626953125
5.820,414,2072,1138,1348,-8.0,32.0,16.0,-10.803221702575684,21.972654342651367,-9.94873046875,-1.0062255859375,0.4100341796875,-0.42626953125
5.827,398,1914,1098,1251,-8.0,32.0,16.0,-15.075682640075684,17.88330078125,-17.51708984375,-0.822021484375,0.2666015625,-0.2626953125
5.836,383,1755,1024,1186,-8.0,32.0,16.0,-15.075682640075684,17.88330078125,-17.51708984375,-0.7469482421875,0.2396240234375,-0.1810302734375
5.843,375,1669,972,1133,-8.0,32.0,16.0,-13.244627952575684,15.747069358825684,-19.53125,-0.7469482421875,0.2396240234375,-0.1810302734375
5.868,357,1490,860,951,-8.0,32.0,16.0,-8.6669921875,12.756346702575684,-22.583005905151367,-0.6505126953125,0.1754150390625,-0.0084228515625
5.868,351,1437,853,974,-8.0,32.0,16.0,-8.6669921875,12.756346702575684,-22.583005905151367,-0.6505126953125,0.1358642578125,0.0194091796875
5.873,336,1290,816,932,-5.0,33.0,20.0,-5.310058116912842,12.878417015075684,-25.268552780151367,-0.6505126953125,0.1358642578125,0.0194091796875
5.887,323,1108,740,803,-5.0,33.0,20.0,2.990722417831421,15.563963890075684,-25.146482467651367,-0.697998046875,0.126953125,-0.0904541015625
5.895,316,1047,745,827,-5.0,33.0,20.0,2.990722417831421,15.563963890075684,-25.146482467651367,-0.6998291015625,0.1663818359375,-0.1444091796875
5.903,316,1014,739,813,-5.0,33.0,20.0,6.042479991912842,15.869139671325684,-21.362302780151367,-0.6998291015625,0.1663818359375,-0.1444091796875
5.924,310,1013,705,750,-5.0,33.0,20.0,10.620116233825684,13.610838890075684,-12.817381858825684,-0.7047119140625,0.228515625,-0.2171630859375
5.925,313,991,673,797,-5.0,33.0,20.0,10.620116233825684,13.610838890075684,-12.817381858825684,-0.723388671875,0.2183837890625,-0.220458984375
5.933,308,1037,700,808,-5.0,33.0,20.0,9.6435546875,11.901854515075684,-8.7890625,-0.723388671875,0.2183837890625,-0.220458984375
5.959,313,1095,698,792,-5.0,33.0,20.0,9.58251953125,11.718749046325684,-5.798339366912842,-0.7120361328125,0.100341796875,-0.26953125
5.960,302,1213,695,844,-5.0,33.0,20.0,9.58251953125,11.718749046325684,-5.798339366912842,-0.7421875,0.08154296875,-0.3350830078125
5.969,324,1253,746,887,-5.0,33.0,20.0,11.108397483825684,13.732909202575684,-4.94384765625,-0.7421875,0.08154296875,-0.3350830078125
5.976,323,1318,733,879,-1.0,33.0,16.0,2.13623046875,13.488768577575684,3.356933355331421,-0.800048828125,0.1552734375,-0.3458251953125
5.984,328,1388,778,966,-1.0,33.0,16.0,2.13623046875,13.488768577575684,3.356933355331421,-0.781982421875,0.168701171875,-0.3011474609375
5.992,338,1463,793,1001,-1.0,33.0,16.0,-5.798339366912842,11.169432640075684,8.11767578125,-0.781982421875,0.168701171875,-0.3011474609375
6.006,344,1588,780,984,-1.0,33.0,16.0,-12.207030296325684,8.9111328125,11.169432640075684,-0.75341796875,0.1763916015625,-0.27001953125
6.015,346,1659,837,1093,-1.0,33.0,16.0,-15.441893577575684,7.202147960662842,12.695311546325684,-0.75341796875,0.1763916015625,-0.27001953125
6.030,359,1757,855,1134,-1.0,33.0,16.0,-16.54052734375,5.981444835662842,13.305663108825684,-0.740234375,0.1865234375,-0.274169921875
6.037,369,1899,894,1107,-1.0,33.0,16.0,-17.27294921875,5.126952648162842,13.854979515075684,-0.7115478515625,0.19970703125,-0.2642822265625
6.045,377,1957,957,1251,-1.0,33.0,16.0,-17.39501953125,3.723144292831421,15.075682640075684,-0.7115478515625,0.19970703125,-0.2642822265625
6.071,382,2010,1003,1290,-1.0,33.0,16.0,-17.15087890625,0.54931640625,16.2353515625,-0.7003173828125,0.2060546875,-0.231201171875
6.072,391,2155,987,1233,-4.0,34.0,17.0,-17.27294921875,-3.784179449081421,16.78466796875,-0.6429443359375,0.1307373046875,-0.158935546875
6.076,409,2235,1093,1386,-4.0,34.0,17.0,-17.15087890625,-7.324218273162842,16.845703125,-0.6429443359375,0.1307373046875,-0.158935546875
6.083,418,2254,1145,1439,-4.0,34.0,17.0,-14.770506858825684,-9.3994140625,16.6015625,-0.6181640625,0.0703125,-0.168701171875
6.096,423,2354,1129,1365,-4.0,34.0,17.0,-10.070799827575684,-11.108397483825684,16.90673828125,-0.6436767578125,0.1177978515625,-0.1773681640625
6.105,438,2386,1258,1527,-4.0,34.0,17.0,-6.591796398162842,-13.916014671325684,18.1884765625,-0.6436767578125,0.1177978515625,-0.1773681640625
6.113,442,2414,1290,1552,-4.0,34.0,17.0,-4.69970703125,-15.624999046325684,20.080564498901367,-0.74072265625,0.2108154296875,-0.2115478515625
6.127,444,2461,1251,1455,-4.0,34.0,17.0,-2.38037109375,-14.526366233825684,22.277830123901367,-1.1197509765625,0.5501708984375,-0.340087890625
6.136,479,2424,1348,1655,-4.0,34.0,17.0,-1.5258787870407104,-12.451170921325684,23.681638717651367,-1.1197509765625,0.5501708984375,-0.340087890625
6.143,481,2503,1357,1624,-4.0,34.0,17.0,-3.234863042831421,-9.33837890625,22.644041061401367,-1.285888671875,0.704345703125,-0.4739990234375
6.182,482,2477,1308,1546,-4.0,34.0,17.0,-6.286620616912842,-5.432128429412842,18.6767578125,-1.4263916015625,0.7222900390625,-0.5076904296875
6.182,494,2519,1380,1662,-4.0,33.0,24.0,-7.080077648162842,-5.249022960662842,12.390135765075684,-1.4263916015625,0.7222900390625,-0.5076904296875
6.183,487,2480,1395,1689,-4.0,33.0,24.0,-4.21142578125,-11.108397483825684,3.356933355331421,-1.4219970703125,0.5916748046875,-0.330322265625
6.190,487,2507,1437,1653,-4.0,33.0,24.0,0.9155272841453552,-17.51708984375,-6.103515148162842,-1.371826171875,0.257568359375,-0.274169921875
6.195,495,2484,1395,1700,-4.0,33.0,24.0,8.60595703125,-18.5546875,-12.207030296325684,-1.371826171875,0.257568359375,-0.274169921875
6.203,497,2484,1395,1695,-4.0,33.0,24.0,17.7001953125,-14.404295921325684,-14.953612327575684,-1.30517578125,0.1527099609375,-0.4290771484375
6.217,484,2471,1294,1544,-4.0,33.0,24.0,22.399900436401367,-9.33837890625,-16.05224609375,-1.283447265625,0.16552734375,-0.543701171875
6.225,493,2467,1370,1669,-4.0,33.0,24.0,16.11328125,-5.798339366912842,-15.075682640075684,-1.389892578125,0.24169921875,-0.52783203125
6.233,490,2445,1351,1656,-4.0,33.0,24.0,3.112792730331421,-3.051757574081421,-11.840819358825684,-1.4439697265625,0.239501953125,-0.383544921875
6.247,469,2409,1236,1487,-4.0,33.0,24.0,-6.958007335662842,0.4272460639476776,-7.446288585662842,-1.3643798828125,0.1861572265625,-0.2252197265625
6.277,473,2372,1290,1598,-4.0,33.0,24.0,-10.314940452575684,6.103515148162842,-2.746581792831421,-1.23046875,0.1751708984375,-0.151611328125
6.277,467,2467,1112,1437,-5.0,35.0,17.0,-9.33837890625,13.549803733825684,1.2817381620407104,-1.11962890625,0.229736328125,-0.1796875
6.278,447,2287,1148,1381,-5.0,35.0,17.0,-7.080077648162842,20.568845748901367,2.868652105331421,-1.0640869140625,0.3026123046875,-0.2799072265625
6.289,442,2246,1189,1478,-5.0,35.0,17.0,-2.746581792831421,24.353025436401367,0.6713866591453552,-1.039794921875,0.3880615234375,-0.4007568359375
6.293,438,2174,1153,1454,-5.0,35.0,17.0,3.112792730331421,23.681638717651367,-4.8828125,-1.0078125,0.470947265625,-0.483154296875
6.306,418,2065,1025,1282,-5.0,35.0,17.0,6.225585460662842,20.385740280151367,-11.840819358825684,-0.9632568359375,0.498291015625,-0.503662109375
6.315,406,1996,1042,1343,-5.0,35.0,17.0,4.150390625,16.845703125,-18.37158203125,-0.906982421875,0.461181640625,-0.463134765625
6.323,387,1918,992,1260,-5.0,35.0,17.0,0.1220703050494194,13.916014671325684,-23.681638717651367,-0.8499755859375,0.3924560546875,-0.388427734375
6.336,364,1730,865,1043,-5.0,35.0,17.0,-1.6479490995407104,11.718749046325684,-27.587888717651367,-0.8001708984375,0.3226318359375,-0.31005859375
6.349,354,1604,860,1064,-5.0,35.0,17.0,-0.9155272841453552,9.6435546875,-29.968259811401367,-0.7406005859375,0.2606201171875,-0.219970703125
6.353,342,1496,802,986,-5.0,35.0,17.0,0.0610351525247097,6.774901866912842,-32.16552734375,-0.6754150390625,0.1663818359375,-0.095458984375
6.380,324,1222,726,816,-3.0,34.0,14.0,3.112792730331421,3.356933355331421,-35.58349609375,-0.6436767578125,0.07568359375,-0.0068359375
6.380,315,1151,679,800,-3.0,34.0,14.0,10.803221702575684,0.4882812201976776,-38.4521484375,-0.666015625,0.064453125,-0.0118408203125
6.383,291,1013,678,759,-3.0,34.0,14.0,19.10400390625,-1.8310545682907104,-38.4521484375,-0.713623046875,0.08935546875,-0.0517578125
6.399,289,861,594,678,-3.0,34.0,14.0,23.986814498901367,-3.356933355331421,-34.66796875,-0.7318115234375,0.1259765625,-0.0963134765625
6.405,280,797,591,683,-3.0,34.0,14.0,27.099607467651367,-2.868652105331421,-27.160642623901367,-0.728759765625,0.178466796875,-0.159912109375
6.413,277,767,588,673,-3.0,34.0,14.0,29.663084030151367,-0.6713866591453552,-18.9208984375,-0.728759765625,0.2000732421875,-0.2216796875
6.426,275,725,567,625,-3.0,34.0,14.0,30.212400436401367,1.8920897245407104,-13.610838890075684,-0.732177734375,0.1885986328125,-0.2786865234375
6.435,280,738,594,661,-3.0,34.0,14.0,27.587888717651367,3.173827886581421,-11.779784202575684,-0.736572265625,0.185302734375,-0.3260498046875
6.443,280,759,591,673,-3.0,34.0,14.0,19.10400390625,0.8544921278953552,-10.742186546325684,-0.7247314453125,0.169921875,-0.3172607421875
6.481,286,793,614,666,-3.0,34.0,14.0,7.446288585662842,-3.967284917831421,-8.544921875,-0.7003173828125,0.1121826171875,-0.28662109375
6.492,298,827,653,721,-4.0,33.0,17.0,1.220703125,-7.141112804412842,-5.310058116912842,-0.689697265625,0.0272216796875,-0.2889404296875
6.500,292,907,689,728,-4.0,33.0,17.0,3.601073980331421,-7.690429210662842,-1.9531248807907104,-0.706787109375,-0.025390625,-0.3023681640625
6.504,316,1011,738,777,-4.0,33.0,17.0,9.521484375,-7.812499523162842,2.38037109375,-0.734375,0.0015869140625,-0.29638671875
6.507,326,1103,797,867,-4.0,33.0,17.0,12.390135765075684,-8.6669921875,7.873534679412842,-0.7420654296875,0.0667724609375,-0.265869140625
6.507,332,1204,816,912,-4.0,33.0,17.0,10.192870140075684,-9.521484375,12.878417015075684,-0.7283935546875,0.124267578125,-0.2359619140625
6.517,336,1373,816,922,-4.0,33.0,17.0,4.69970703125,-9.46044921875,15.991209983825684,-0.7205810546875,0.1737060546875,-0.230712890625
6.525,351,1476,888,1041,-4.0,33.0,17.0,-2.01416015625,-8.1787109375,17.4560546875,-0.7384033203125,0.2010498046875,-0.254150390625
6.532,360,1569,920,1095,-4.0,33.0,17.0,-7.690429210662842,-6.408690929412842,18.49365234375,-0.7725830078125,0.19921875,-0.30029296875
6.547,365,1753,922,1071,-4.0,33.0,17.0,-11.840819358825684,-5.859374523162842,20.202634811401367,-0.7818603515625,0.198486328125,-0.32275390625
6.585,378,1821,1000,1220,-4.0,33.0,17.0,-15.563963890075684,-7.080077648162842,21.972654342651367,-0.767822265625,0.2117919921875,-0.302978515625
6.588,364,2223,869,1216,-4.0,34.0,14.0,-16.17431640625,-8.4228515625,21.484373092651367,-0.7911376953125,0.213623046875,-0.303955078125
6.588,401,2026,1025,1206,-4.0,34.0,14.0,-14.282225608825684,-10.925292015075684,18.4326171875,-0.808349609375,0.19091796875,-0.3145751953125
6.588,406,2080,1129,1372,-4.0,34.0,14.0,-15.869139671325684,-15.014647483825684,14.892577171325684,-0.774169921875,0.1324462890625,-0.2843017578125
6.593,417,2213,1134,1386,-4.0,34.0,14.0,-18.85986328125,-18.24951171875,13.122557640075684,-0.7698974609375,0.0960693359375,-0.26171875
6.607,425,2240,1136,1333,-4.0,34.0,14.0,-19.22607421875,-20.812986373901367,14.160155296325684,-0.78955078125,0.1397705078125,-0.220947265625
6.615,437,2293,1243,1483,-4.0,34.0,14.0,-19.1650390625,-23.742673873901367,16.6015625,-0.8028564453125,0.21044921875,-0.131591796875
6.625,447,2337,1278,1501,-4.0,34.0,14.0,-17.333984375,-24.780271530151367,17.51708984375,-0.8492431640625,0.27197265625,-0.0780029296875
6.636,445,2388,1239,1416,-4.0,34.0,14.0,-11.901854515075684,-22.583005905151367,16.54052734375,-0.9364013671875,0.3236083984375,-0.115234375
6.645,462,2410,1351,1574,-4.0,34.0,14.0,-4.8828125,-19.287109375,14.709471702575684,-1.0159912109375,0.362060546875,-0.204345703125
6.653,465,2445,1373,1588,-4.0,34.0,14.0,0.7324218153953552,-17.9443359375,12.512206077575684,-1.0579833984375,0.4039306640625,-0.2716064453125
6.686,464,2472,1351,1488,-2.0,34.0,17.0,3.784179449081421,-19.47021484375,10.314940452575684,-1.11767578125,0.4437255859375,-0.325439453125
6.687,472,2561,1391,1608,-2.0,34.0,17.0,6.652831554412842,-21.301267623901367,7.812499523162842,-1.2022705078125,0.4967041015625,-0.406982421875
6.688,497,2473,1401,1664,-2.0,34.0,17.0,8.60595703125,-21.667478561401367,4.8828125,-1.2745361328125,0.56103515625,-0.4730224609375
6.696,484,2484,1331,1527,-2.0,34.0,17.0,6.774901866912842,-21.850584030151367,1.220703125,-1.31982421875,0.5394287109375,-0.431640625
6.705,501,2460,1419,1700,-2.0,34.0,17.0,1.4648436307907104,-22.827146530151367,-3.234863042831421,-1.336669921875,0.3963623046875,-0.2803955078125
6.713,499,2458,1409,1700,-2.0,34.0,17.0,1.4648436307907104,-22.827146530151367,-3.234863042831421,-1.3521728515625,0.208984375,-0.1455078125
6.727,490,2465,1336,1560,-2.0,34.0,17.0,-1.15966796875,-20.507810592651367,-8.6669921875,-1.32568359375,0.076171875,-0.133544921875
6.737,499,2460,1427,1709,-2.0,34.0,17.0,6.530761241912842,-14.648436546325684,-8.72802734375,-1.2467041015625,0.0357666015625,-0.2410888671875
6.743,491,2458,1413,1704,-2.0,34.0,17.0,6.530761241912842,-14.648436546325684,-8.72802734375,-1.27392578125,0.13134765625,-0.3828125
6.757,493,2445,1306,1550,-6.0,31.0,20.0,8.30078125,-2.25830078125,-6.469726085662842,-1.394775390625,0.2662353515625,-0.4320068359375
6.765,495,2424,1377,1674,-6.0,31.0,20.0,-2.25830078125,1.7700194120407104,-3.173827886581421,-1.419677734375,0.30419921875,-0.3262939453125
6.789,487,2412,1358,1243,-6.0,31.0,20.0,-2.25830078125,1.7700194120407104,-3.173827886581421,-1.336181640625,0.2884521484375,-0.159912109375
6.791,473,2368,1242,1455,-6.0,31.0,20.0,-14.526366233825684,10.986327171325684,3.173827886581421,-1.2437744140625,0.260986328125,-0.0819091796875
6.796,482,2445,1125,1501,-6.0,31.0,20.0,-13.977049827575684,19.34814453125,4.39453125,-1.191650390625,0.2586669921875,-0.1343994140625
6.804,473,2263,1255,1545,-6.0,31.0,20.0,-10.559081077575684,26.794431686401367,4.21142578125,-1.1549072265625,0.3177490234375,-0.2464599609375
6.818,455,2161,1132,1359,-6.0,31.0,20.0,-5.371093273162842,29.418943405151367,1.7700194120407104,-1.0992431640625,0.3970947265625,-0.3424072265625
6.826,442,2089,1170,1439,-6.0,31.0,20.0,-1.03759765625,27.404783248901367,-3.601073980331421,-1.02197265625,0.41357421875,-0.398193359375
6.834,433,2005,1131,1387,-6.0,31.0,20.0,-1.03759765625,27.404783248901367,-3.601073980331421,-0.938720703125,0.34521484375,-0.405029296875
6.850,411,1806,1007,1173,-6.0,31.0,20.0,-0.6713866591453552,21.545408248901367,-15.502928733825684,-0.8544921875,0.2398681640625,-0.3587646484375
6.856,398,1715,1001,1213,-4.0,33.0,19.0,-1.9531248807907104,18.6767578125,-18.6767578125,-0.75634765625,0.11181640625,-0.2147216796875
6.864,375,1662,976,1120,-4.0,33.0,19.0,-1.9531248807907104,18.6767578125,-18.6767578125,-0.6776123046875,0.02001953125,-0.0362548828125
6.898,360,1527,874,963,-4.0,33.0,19.0,0.7934569716453552,15.075682640075684,-16.11328125,-0.6300048828125,0.032470703125,0.063232421875
6.899,359,1427,879,988,-4.0,33.0,19.0,5.615233898162842,16.845703125,-14.099120140075684,-0.615966796875,0.0511474609375,0.0587158203125
6.899,306,1526,904,932,-4.0,33.0,19.0,5.615233898162842,16.845703125,-14.099120140075684,-0.6209716796875,0.0496826171875,-0.0245361328125
6.903,338,1239,829,912,-4.0,33.0,19.0,10.925292015075684,20.324705123901367,-13.671874046325684,-0.60205078125,0.133056640625,-0.1197509765625
6.924,332,1160,778,837,-4.0,33.0,19.0,13.671874046325684,24.291990280151367,-4.69970703125,-0.5977783203125,0.2830810546875,-0.1865234375
6.933,334,1134,806,883,-4.0,33.0,19.0,13.671874046325684,24.291990280151367,-4.69970703125,-0.6253662109375,0.396240234375,-0.2252197265625
6.934,328,1137,802,883,-4.0,33.0,19.0,9.82666015625,20.629880905151367,0.8544921278953552,-0.6253662109375,0.396240234375,-0.2252197265625
6.947,328,1172,759,841,-4.0,33.0,19.0,8.11767578125,12.939452171325684,-1.7089842557907104,-0.7242431640625,0.3138427734375,-0.3360595703125
7.000,331,1233,787,910,-2.0,30.0,18.0,12.207030296325684,9.94873046875,-6.286620616912842,-0.774658203125,0.2095947265625,-0.3631591796875
7.001,331,1294,780,890,-2.0,30.0,18.0,16.2353515625,3.417968511581421,-9.1552734375,-0.83056640625,0.082763671875,-0.36669921875
7.001,338,1365,802,952,-2.0,30.0,18.0,16.2353515625,3.417968511581421,-9.1552734375,-0.8487548828125,0.0765380859375,-0.355224609375
7.001,338,1369,816,977,-2.0,30.0,18.0,14.831542015075684,1.15966796875,-7.080077648162842,-0.8487548828125,0.0765380859375,-0.355224609375
7.007,346,1474,829,1011,-2.0,30.0,18.0,1.5258787870407104,-1.3427733182907104,2.868652105331421,-0.8387451171875,0.1300048828125,-0.293212890625
7.015,348,1508,853,1048,-2.0,30.0,18.0,1.5258787870407104,-1.3427733182907104,2.868652105331421,-0.8204345703125,0.1590576171875,-0.2698974609375
7.024,361,1572,884,1078,-2.0,30.0,18.0,-5.554198741912842,-2.0751953125,7.812499523162842,-0.8204345703125,0.1590576171875,-0.2698974609375
7.037,364,1658,883,1047,-2.0,30.0,18.0,-10.559081077575684,-3.479003667831421,11.901854515075684,-0.749267578125,0.1947021484375,-0.266357421875
7.045,378,1732,959,1173,-2.0,30.0,18.0,-10.559081077575684,-3.479003667831421,11.901854515075684,-0.70361328125,0.19384765625,-0.2640380859375
7.053,383,1798,996,1209,-4.0,34.0,17.0,-9.70458984375,-5.126952648162842,12.207030296325684,-0.70361328125,0.19384765625,-0.2640380859375
7.067,388,1920,966,1172,-4.0,34.0,17.0,-7.080077648162842,-8.85009765625,12.817381858825684,-0.6983642578125,0.2203369140625,-0.298095703125
7.109,371,2183,963,1278,-4.0,34.0,17.0,-7.080077648162842,-8.85009765625,12.817381858825684,-0.679931640625,0.2188720703125,-0.2440185546875
7.109,376,2541,1185,1395,-4.0,34.0,17.0,-9.33837890625,-12.817381858825684,12.939452171325684,-0.679931640625,0.2188720703125,-0.2440185546875
7.109,414,2207,1129,1388,-4.0,34.0,17.0,-14.221190452575684,-17.08984375,11.230467796325684,-0.6097412109375,0.09228515625,-0.171875
7.109,419,2242,1184,1441,-4.0,34.0,17.0,-14.221190452575684,-17.08984375,11.230467796325684,-0.64306640625,0.0679931640625,-0.15869140625
7.113,437,2343,1215,1462,-4.0,34.0,17.0,-13.854979515075684,-17.4560546875,11.535643577575684,-0.64306640625,0.0679931640625,-0.15869140625
7.127,440,2381,1189,1393,-4.0,34.0,17.0,-10.070799827575684,-20.507810592651367,16.29638671875,-0.84033203125,0.171875,-0.0911865234375
7.135,457,2418,1306,1550,-4.0,34.0,17.0,-10.070799827575684,-20.507810592651367,16.29638671875,-0.9859619140625,0.307373046875,-0.132568359375
7.143,458,2445,1331,1575,-4.0,34.0,17.0,-4.69970703125,-20.385740280151367,18.310546875,-0.9859619140625,0.307373046875,-0.132568359375
7.157,462,2493,1281,1468,-5.0,31.0,18.0,-0.54931640625,-18.00537109375,18.4326171875,-1.1580810546875,0.5023193359375,-0.2222900390625
7.165,468,2514,1386,1627,-5.0,31.0,18.0,1.15966796875,-15.075682640075684,16.845703125,-1.1580810546875,0.5023193359375,-0.2222900390625
7.173,468,2530,1404,1640,-5.0,31.0,18.0,1.0986328125,-12.817381858825684,13.732909202575684,-1.2266845703125,0.5611572265625,-0.277587890625
7.214,487,2498,1321,1552,-5.0,31.0,18.0,2.624511480331421,-10.070799827575684,9.521484375,-1.3753662109375,0.5452880859375,-0.5347900390625
7.215,484,2981,1308,1676,-5.0,31.0,18.0,7.080077648162842,-8.48388671875,5.676269054412842,-1.3753662109375,0.5452880859375,-0.5347900390625
7.215,498,2498,1387,1705,-5.0,31.0,18.0,11.596678733825684,-11.718749046325684,2.685546636581421,-1.3985595703125,0.4744873046875,-0.4842529296875
7.218,442,2563,1345,1665,-5.0,31.0,18.0,13.549803733825684,-17.88330078125,-0.7934569716453552,-1.308349609375,0.20068359375,-0.241455078125
7.225,497,2530,1383,1693,-5.0,31.0,18.0,12.878417015075684,-20.874021530151367,-5.126952648162842,-1.308349609375,0.20068359375,-0.241455078125
7.233,491,2489,1399,1713,-5.0,31.0,18.0,13.000487327575684,-17.15087890625,-8.85009765625,-1.21728515625,0.0697021484375,-0.308349609375
7.247,487,2478,1308,1574,-5.0,30.0,22.0,12.695311546325684,-9.521484375,-10.192870140075684,-1.3369140625,0.191650390625,-0.45556640625
7.255,494,2467,1383,1697,-5.0,30.0,22.0,5.798339366912842,-3.112792730331421,-8.36181640625,-1.3369140625,0.191650390625,-0.45556640625
7.263,493,2443,1369,1683,-5.0,30.0,22.0,-5.615233898162842,0.30517578125,-4.33349609375,-1.379150390625,0.234375,-0.34423828125
7.277,479,2398,1257,1516,-5.0,30.0,22.0,-13.671874046325684,2.44140625,-0.0610351525247097,-1.193603515625,0.26708984375,-0.1187744140625
7.324,485,2372,1318,1490,-5.0,30.0,22.0,-15.319823265075684,5.737304210662842,2.929687261581421,-1.193603515625,0.26708984375,-0.1187744140625
7.325,458,2445,1415,1419,-5.0,30.0,22.0,-12.145995140075684,11.291502952575684,3.662109136581421,-1.130126953125,0.27978515625,-0.147705078125
7.326,473,2268,1178,1429,-5.0,30.0,22.0,-7.019042491912842,17.578125,2.50244140625,-1.1263427734375,0.377685546875,-0.3514404296875
7.326,469,2197,1163,1452,-5.0,30.0,22.0,-3.356933355331421,22.277830123901367,0.7934569716453552,-1.1263427734375,0.377685546875,-0.3514404296875
7.326,464,2167,1132,1437,-5.0,30.0,22.0,-3.479003667831421,24.230955123901367,-1.5869139432907104,-1.105712890625,0.439697265625,-0.420654296875
7.337,437,2048,1055,1289,-5.0,30.0,22.0,-6.896972179412842,23.925779342651367,-5.554198741912842,-0.9744873046875,0.3262939453125,-0.3941650390625
7.345,433,1920,1091,1334,-8.0,31.0,16.0,-10.803221702575684,22.460935592651367,-11.169432640075684,-0.9744873046875,0.3262939453125,-0.3941650390625
7.353,419,1790,1050,1262,-8.0,31.0,16.0,-12.451170921325684,20.812986373901367,-16.41845703125,-0.8997802734375,0.242919921875,-0.3275146484375
7.367,384,1575,912,1054,-8.0,31.0,16.0,-11.962889671325684,18.9208984375,-19.8974609375,-0.8126220703125,0.182861328125,-0.2076416015625
7.375,374,1483,907,1070,-8.0,31.0,16.0,-10.131834983825684,16.41845703125,-21.850584030151367,-0.7376708984375,0.1104736328125,-0.04736328125
7.390,356,1417,865,986,-8.0,31.0,16.0,-4.69970703125,14.831542015075684,-22.460935592651367,-0.6854248046875,0.0888671875,0.0631103515625
7.403,328,1136,780,855,-8.0,31.0,16.0,2.929687261581421,15.014647483825684,-22.705076217651367,-0.6707763671875,0.0634765625,0.0775146484375
7.405,299,1067,706,803,-8.0,31.0,16.0,11.047362327575684,16.9677734375,-23.010251998901367,-0.6839599609375,0.0433349609375,-0.00537109375
7.423,310,918,713,766,-8.0,31.0,16.0,18.73779296875,19.287109375,-20.568845748901367,-0.6693115234375,0.1427001953125,-0.1229248046875
7.427,294,830,644,695,-8.0,31.0,16.0,21.606443405151367,18.4326171875,-14.953612327575684,-0.64404296875,0.282958984375,-0.195556640625
7.435,290,794,620,693,-8.0,31.0,16.0,20.01953125,15.014647483825684,-9.521484375,-0.6505126953125,0.3724365234375,-0.22998046875
7.443,282,779,584,678,-3.0,34.0,17.0,17.39501953125,11.596678733825684,-7.202147960662842,-0.694091796875,0.359375,-0.251220703125
7.457,279,739,572,636,-3.0,34.0,17.0,16.29638671875,9.1552734375,-8.056640625,-0.71533203125,0.263671875,-0.278564453125
7.465,289,753,603,673,-3.0,34.0,17.0,19.83642578125,8.056640625,-10.314940452575684,-0.691650390625,0.16650390625,-0.341064453125
7.473,287,780,619,689,-3.0,34.0,17.0,26.306150436401367,7.141112804412842,-12.451170921325684,-0.676513671875,0.0972900390625,-0.4051513671875
7.507,295,871,630,705,-3.0,34.0,17.0,27.770994186401367,4.150390625,-12.573241233825684,-0.69970703125,0.061279296875,-0.40673828125
7.507,304,1074,679,636,-3.0,34.0,17.0,21.118162155151367,-0.4272460639476776,-9.21630859375,-0.733642578125,0.062255859375,-0.3424072265625
7.507,313,1125,671,811,-3.0,34.0,17.0,11.413573265075684,-4.33349609375,-3.540038824081421,-0.7489013671875,0.0709228515625,-0.2525634765625
7.529,322,1231,736,842,-3.0,34.0,17.0,4.21142578125,-6.103515148162842,2.25830078125,-0.7410888671875,0.07763671875,-0.197998046875
7.529,329,1316,792,951,-3.0,34.0,17.0,0.7934569716453552,-5.249022960662842,7.141112804412842,-0.7347412109375,0.099853515625,-0.2076416015625
7.534,338,1434,814,987,-3.0,34.0,17.0,-0.54931640625,-3.295898199081421,11.352538108825684,-0.748779296875,0.139892578125,-0.2547607421875
7.548,348,1580,827,1004,-4.0,35.0,19.0,-2.13623046875,-2.50244140625,15.197752952575684,-0.771484375,0.179931640625,-0.300048828125
7.556,361,1665,918,1131,-4.0,35.0,19.0,-5.737304210662842,-4.150390625,18.37158203125,-0.7735595703125,0.208984375,-0.3253173828125
7.564,371,1762,958,1182,-4.0,35.0,19.0,-12.145995140075684,-7.690429210662842,19.83642578125,-0.7396240234375,0.23388671875,-0.3197021484375
7.578,384,1907,962,1163,-4.0,35.0,19.0,-18.5546875,-10.742186546325684,18.798828125,-0.717041015625,0.2596435546875,-0.3043212890625
7.609,398,1970,1064,1306,-4.0,35.0,19.0,-21.301267623901367,-12.329100608825684,14.648436546325684,-0.7479248046875,0.2540283203125,-0.30419921875
7.609,402,2058,1092,1323,-4.0,35.0,19.0,-22.827146530151367,-13.977049827575684,9.21630859375,-0.7645263671875,0.19140625,-0.2840576171875
7.609,431,2118,1108,1323,-4.0,35.0,19.0,-25.146482467651367,-16.17431640625,5.737304210662842,-0.724853515625,0.078369140625,-0.2562255859375
7.616,455,2180,1201,1478,-4.0,35.0,19.0,-24.169919967651367,-18.24951171875,5.676269054412842,-0.6927490234375,-0.0006103515625,-0.250244140625
7.628,458,2203,1236,1523,-4.0,35.0,19.0,-18.98193359375,-21.179197311401367,9.1552734375,-0.6934814453125,0.052001953125,-0.21240234375
7.639,470,2296,1214,1434,-6.0,31.0,17.0,-14.404295921325684,-24.719236373901367,14.343260765075684,-0.7474365234375,0.195068359375,-0.1260986328125
7.646,482,2320,1315,1608,-6.0,31.0,17.0,-11.413573265075684,-25.329587936401367,17.39501953125,-0.88134765625,0.347900390625,-0.0751953125
7.654,484,2348,1336,1638,-6.0,31.0,17.0,-9.09423828125,-21.484373092651367,16.66259765625,-1.04150390625,0.451416015625,-0.0946044921875
7.668,485,2399,1276,1534,-6.0,31.0,17.0,-6.896972179412842,-15.991209983825684,13.488768577575684,-1.1695556640625,0.505859375,-0.152587890625
7.676,493,2424,1373,1693,-6.0,31.0,17.0,-5.065917491912842,-12.329100608825684,9.94873046875,-1.2579345703125,0.5150146484375,-0.19384765625
7.684,493,2435,1393,1703,-6.0,31.0,17.0,-2.807616949081421,-10.192870140075684,6.591796398162842,-1.3216552734375,0.490478515625,-0.2874755859375
7.711,491,2503,1346,1545,-6.0,31.0,17.0,2.25830078125,-8.4228515625,3.417968511581421,-1.3660888671875,0.4674072265625,-0.4307861328125
7.711,486,2498,1359,1224,-6.0,31.0,17.0,9.033203125,-8.85009765625,1.220703125,-1.36865234375,0.4576416015625,-0.4559326171875
7.714,502,2568,1401,1704,-6.0,31.0,17.0,12.512206077575684,-11.962889671325684,-0.7324218153953552,-1.33447265625,0.403076171875,-0.3515625
7.735,495,2505,1326,1568,-6.0,31.0,17.0,11.901854515075684,-13.793944358825684,-4.150390625,-1.2969970703125,0.258544921875,-0.237548828125
7.736,501,2489,1336,1689,-8.0,31.0,20.0,11.230467796325684,-11.169432640075684,-7.629394054412842,-1.221923828125,0.1064453125,-0.228759765625
7.744,497,2504,1415,1713,-8.0,31.0,20.0,12.573241233825684,-5.0048828125,-9.521484375,-1.1650390625,0.053955078125,-0.34228515625
7.758,493,2494,1323,1561,-8.0,31.0,20.0,10.864256858825684,1.5258787870407104,-9.27734375,-1.258056640625,0.116455078125,-0.47021484375
7.766,495,2484,1393,1698,-8.0,31.0,20.0,2.868652105331421,5.493163585662842,-7.141112804412842,-1.39404296875,0.198486328125,-0.4827880859375
7.774,490,2467,1383,1689,-8.0,31.0,20.0,-6.652831554412842,6.225585460662842,-3.784179449081421,-1.3995361328125,0.23974609375,-0.3629150390625
7.788,483,2419,1268,1523,-8.0,31.0,20.0,-11.840819358825684,6.652831554412842,-0.54931640625,-1.2921142578125,0.265625,-0.2119140625
7.812,483,2381,1323,1636,-8.0,31.0,20.0,-10.864256858825684,9.58251953125,0.7934569716453552,-1.179443359375,0.2813720703125,-0.1468505859375
7.813,481,2516,1157,1536,-8.0,31.0,20.0,-5.859374523162842,15.136717796325684,0.3662109076976776,-1.1226806640625,0.2886962890625,-0.189208984375
7.819,473,2317,1281,1541,-8.0,31.0,20.0,-1.3427733182907104,20.996091842651367,-0.3662109076976776,-1.10498046875,0.321044921875,-0.27783203125
7.826,481,2266,1204,1513,-8.0,31.0,20.0,-0.7934569716453552,25.085447311401367,-0.7324218153953552,-1.0855712890625,0.3671875,-0.3582763671875
7.843,464,2176,1167,1464,-2.0,34.0,15.0,-4.150390625,27.282712936401367,-1.7089842557907104,-1.0386962890625,0.379638671875,-0.4095458984375
7.848,442,2041,1103,1380,-2.0,34.0,15.0,-8.60595703125,27.404783248901367,-4.5166015625,-0.965087890625,0.32275390625,-0.4095458984375
7.856,430,1920,1079,1336,-2.0,34.0,15.0,-10.253905296325684,25.451658248901367,-8.97216796875,-0.887451171875,0.2421875,-0.365966796875
7.864,414,1822,1043,1278,-2.0,34.0,15.0,-8.056640625,22.033689498901367,-13.610838890075684,-0.82080078125,0.1878662109375,-0.2894287109375
7.878,387,1641,907,1081,-2.0,34.0,15.0,-4.57763671875,18.06640625,-17.15087890625,-0.761474609375,0.129150390625,-0.164306640625
7.886,376,1584,897,1120,-2.0,34.0,15.0,-1.4648436307907104,15.258788108825684,-18.5546875,-0.70751953125,0.095703125,-0.0452880859375
7.917,362,1595,883,1082,-2.0,34.0,15.0,2.25830078125,14.526366233825684,-18.24951171875,-0.6617431640625,0.0859375,0.015869140625
7.917,309,1488,750,815,-2.0,34.0,15.0,7.263183116912842,15.808104515075684,-18.06640625,-0.6607666015625,0.044189453125,-0.021728515625
7.918,342,1258,794,917,-2.0,34.0,15.0,14.404295921325684,19.04296875,-16.78466796875,-0.68359375,0.05810546875,-0.13134765625
7.924,330,1188,780,879,-2.0,34.0,15.0,18.73779296875,21.179197311401367,-11.962889671325684,-0.6741943359375,0.1917724609375,-0.198974609375
7.938,323,1105,731,802,-6.0,30.0,14.0,15.075682640075684,19.287109375,-5.065917491912842,-0.6566162109375,0.336181640625,-0.2071533203125
7.946,317,1096,747,846,-6.0,30.0,14.0,7.385253429412842,15.319823265075684,-0.7934569716453552,-0.6531982421875,0.3822021484375,-0.2030029296875
7.954,315,1112,731,853,-6.0,30.0,14.0,7.385253429412842,15.319823265075684,-0.7934569716453552,-0.677001953125,0.331298828125,-0.2332763671875
7.968,314,1155,692,813,-6.0,30.0,14.0,1.2817381620407104,12.023924827575684,-4.2724609375,-0.7242431640625,0.2294921875,-0.2822265625
7.976,316,1183,723,872,-6.0,30.0,14.0,5.0048828125,11.718749046325684,-6.958007335662842,-0.758544921875,0.1307373046875,-0.3248291015625
7.984,318,1224,737,895,-6.0,30.0,14.0,5.0048828125,11.718749046325684,-6.958007335662842,-0.773193359375,0.0682373046875,-0.359619140625
8.017,327,1305,725,879,-6.0,30.0,14.0,12.451170921325684,8.60595703125,-5.615233898162842,-0.796630859375,0.0518798828125,-0.369140625
8.018,331,1490,774,939,-6.0,30.0,14.0,9.82666015625,5.0048828125,-0.9155272841453552,-0.8218994140625,0.0875244140625,-0.3533935546875
8.018,336,1429,778,964,-6.0,30.0,14.0,9.82666015625,5.0048828125,-0.9155272841453552,-0.82275390625,0.145263671875,-0.320556640625
8.028,338,1494,778,946,-3.0,31.0,13.0,-4.69970703125,0.0610351525247097,9.46044921875,-0.8033447265625,0.17626953125,-0.28955078125
8.036,354,1568,830,1062,-3.0,31.0,13.0,-10.864256858825684,-0.54931640625,11.291502952575684,-0.7769775390625,0.183349609375,-0.2884521484375
8.044,360,1579,846,1129,-3.0,31.0,13.0,-10.864256858825684,-0.54931640625,11.291502952575684,-0.74462890625,0.1907958984375,-0.3045654296875
8.058,378,1711,868,1122,-3.0,31.0,13.0,-14.709471702575684,-3.723144292831421,10.620116233825684,-0.7021484375,0.19189453125,-0.3128662109375
8.066,390,1794,951,1262,-3.0,31.0,13.0,-15.136717796325684,-6.713866710662842,10.009765625,-0.667236328125,0.183837890625,-0.312255859375
8.074,401,1860,998,1302,-3.0,31.0,13.0,-15.136717796325684,-6.713866710662842,10.009765625,-0.6539306640625,0.197021484375,-0.2957763671875
8.089,416,1959,999,1260,-3.0,31.0,13.0,-17.88330078125,-11.169432640075684,11.169432640075684,-0.6561279296875,0.2020263671875,-0.250732421875
8.096,426,2010,1100,1411,-3.0,31.0,13.0,-21.850584030151367,-12.878417015075684,12.084959983825684,-0.66259765625,0.1644287109375,-0.1920166015625
8.120,438,2089,1129,1447,-3.0,31.0,13.0,-21.850584030151367,-12.878417015075684,12.084959983825684,-0.699951171875,0.118896484375,-0.1676025390625
8.120,444,2165,1108,1386,-3.0,31.0,13.0,-20.751951217651367,-10.742186546325684,13.427733421325684,-0.78857421875,0.12451171875,-0.1900634765625
8.126,465,2254,1202,1521,-5.0,32.0,14.0,-17.822265625,-10.986327171325684,14.770506858825684,-0.861572265625,0.185546875,-0.1837158203125
8.134,466,2246,1248,1569,-5.0,32.0,14.0,-17.822265625,-10.986327171325684,14.770506858825684,-0.9034423828125,0.2305908203125,-0.1427001953125
8.148,473,2314,1209,1480,-5.0,32.0,14.0,-13.244627952575684,-14.709471702575684,15.624999046325684,-0.9639892578125,0.267578125,-0.146484375
8.160,481,2344,1305,1635,-5.0,32.0,14.0,-5.981444835662842,-12.939452171325684,15.502928733825684,-1.0458984375,0.3299560546875,-0.2156982421875
8.164,496,2422,1305,1627,-5.0,32.0,14.0,-5.981444835662842,-12.939452171325684,15.502928733825684,-1.1361083984375,0.39111328125,-0.2926025390625
8.178,485,2417,1268,1533,-5.0,32.0,14.0,4.150390625,-7.385253429412842,13.977049827575684,-1.1856689453125,0.4486083984375,-0.3065185546875
8.186,490,2465,1336,1656,-5.0,32.0,14.0,4.150390625,-7.385253429412842,13.977049827575684,-1.1981201171875,0.4534912109375,-0.2911376953125
8.194,495,2471,1366,1681,-5.0,32.0,14.0,3.784179449081421,-6.530761241912842,12.145995140075684,-1.1981201171875,0.4534912109375,-0.2911376953125
8.223,501,2521,1341,1533,-5.0,32.0,14.0,5.0048828125,-0.6713866591453552,5.920409679412842,-1.225341796875,0.4482421875,-0.4058837890625
8.224,509,2648,1348,1662,-5.0,32.0,14.0,5.0048828125,-0.6713866591453552,5.920409679412842,-1.2545166015625,0.4566650390625,-0.4420166015625
8.224,479,2503,1345,1676,-3.0,31.0,12.0,6.591796398162842,1.5869139432907104,3.295898199081421,-1.2545166015625,0.4566650390625,-0.4420166015625
8.238,497,2532,1283,1534,-3.0,31.0,12.0,5.859374523162842,0.0,-3.356933355331421,-1.220458984375,0.23779296875,-0.3369140625
8.246,499,2507,1374,1693,-3.0,31.0,12.0,5.859374523162842,0.0,-3.356933355331421,-1.133056640625,0.1240234375,-0.3402099609375
8.254,497,2505,1377,1691,-3.0,31.0,12.0,7.446288585662842,0.7324218153953552,-6.042479991912842,-1.133056640625,0.1240234375,-0.3402099609375
8.268,497,2491,1275,1536,-3.0,31.0,12.0,6.469726085662842,7.324218273162842,-5.0048828125,-1.3382568359375,0.2559814453125,-0.5128173828125
8.276,498,2473,1343,1662,-3.0,31.0,12.0,6.469726085662842,7.324218273162842,-5.0048828125,-1.4007568359375,0.2840576171875,-0.477294921875
8.284,497,2456,1330,1643,-3.0,31.0,12.0,-1.8920897245407104,9.27734375,-2.44140625,-1.4007568359375,0.2840576171875,-0.477294921875
8.298,493,2409,1206,1476,-3.0,31.0,12.0,-12.756346702575684,12.145995140075684,2.01416015625,-1.2266845703125,0.27294921875,-0.26708984375
8.325,484,2381,1243,1577,-3.0,31.0,12.0,-12.756346702575684,12.145995140075684,2.01416015625,-1.1708984375,0.2845458984375,-0.2760009765625
8.325,478,2356,1213,1529,-3.0,31.0,12.0,-9.6435546875,16.78466796875,2.0751953125,-1.1708984375,0.2845458984375,-0.2760009765625
8.334,466,2266,1098,1355,-5.0,34.0,12.0,0.4882812201976776,25.512693405151367,-0.7324218153953552,-1.1068115234375,0.4114990234375,-0.392578125
8.336,470,2464,949,1370,-5.0,34.0,12.0,0.4882812201976776,25.512693405151367,-0.7324218153953552,-1.030029296875,0.4232177734375,-0.3896484375
8.344,439,2106,1078,1397,-5.0,34.0,12.0,1.3427733182907104,25.512693405151367,-3.784179449081421,-1.030029296875,0.4232177734375,-0.3896484375
8.357,418,1960,947,1213,-5.0,34.0,12.0,0.7934569716453552,21.301267623901367,-15.258788108825684,-0.840576171875,0.2381591796875,-0.3101806640625
8.366,399,1842,936,1236,-5.0,34.0,12.0,0.7934569716453552,21.301267623901367,-15.258788108825684,-0.7691650390625,0.1844482421875,-0.27783203125
8.374,384,1713,891,1163,-5.0,34.0,12.0,3.234863042831421,19.53125,-18.98193359375,-0.7691650390625,0.1844482421875,-0.27783203125
8.388,354,1516,766,980,-5.0,34.0,12.0,7.812499523162842,17.39501953125,-19.71435546875,-0.628662109375,0.13525390625,-0.169189453125
8.396,338,1375,749,980,-5.0,34.0,12.0,7.812499523162842,17.39501953125,-19.71435546875,-0.624267578125,0.114501953125,-0.089111328125
8.404,328,1241,721,920,-5.0,34.0,12.0,8.4228515625,15.380858421325684,-19.47021484375,-0.624267578125,0.114501953125,-0.089111328125
8.438,304,1096,634,750,-5.0,34.0,12.0,10.375975608825684,13.305663108825684,-17.39501953125,-0.5987548828125,0.1868896484375,-0.0777587890625
8.440,301,1031,632,766,-3.0,34.0,20.0,12.695311546325684,11.657713890075684,-14.709471702575684,-0.5987548828125,0.1868896484375,-0.0777587890625
8.440,296,966,603,746,-3.0,34.0,20.0,16.05224609375,11.657713890075684,-12.939452171325684,-0.5928955078125,0.1539306640625,-0.1298828125
8.448,286,905,568,682,-3.0,34.0,20.0,21.850584030151367,13.854979515075684,-10.620116233825684,-0.670654296875,0.202880859375,-0.3553466796875
8.456,287,920,579,725,-3.0,34.0,20.0,26.428220748901367,15.930174827575684,-7.751464366912842,-0.670654296875,0.202880859375,-0.3553466796875
8.464,286,944,582,740,-3.0,34.0,20.0,25.390623092651367,15.991209983825684,-5.187987804412842,-0.6947021484375,0.2177734375,-0.423095703125
8.479,294,1013,591,749,-3.0,34.0,20.0,20.568845748901367,13.549803733825684,-3.051757574081421,-0.746337890625,0.1512451171875,-0.3929443359375
8.486,304,1083,636,828,-3.0,34.0,20.0,15.808104515075684,8.48388671875,-1.5869139432907104,-0.746337890625,0.1512451171875,-0.3929443359375
8.494,306,1129,644,859,-3.0,34.0,20.0,12.451170921325684,1.7700194120407104,-0.6103515625,-0.770751953125,0.1229248046875,-0.34521484375
8.509,313,1248,629,859,-3.0,34.0,20.0,9.521484375,-4.2724609375,0.9155272841453552,-0.7900390625,0.1673583984375,-0.3248291015625
8.530,323,1331,669,939,-3.0,34.0,20.0,4.57763671875,-7.446288585662842,3.356933355331421,-0.7900390625,0.1673583984375,-0.3248291015625
8.531,306,1428,625,958,-5.0,36.0,17.0,-3.417968511581421,-7.568358898162842,5.737304210662842,-0.7823486328125,0.1903076171875,-0.3299560546875
8.542,337,1535,694,978,-5.0,36.0,17.0,-12.207030296325684,-6.286620616912842,7.446288585662842,-0.791015625,0.16748046875,-0.3223876953125
8.548,351,1607,766,1103,-5.0,36.0,17.0,-19.22607421875,-5.0048828125,8.60595703125,-0.791015625,0.16748046875,-0.3223876953125
8.554,360,1678,799,1148,-5.0,36.0,17.0,-24.047849655151367,-4.45556640625,9.94873046875,-0.8040771484375,0.1661376953125,-0.3292236328125
8.568,371,1805,803,1131,-5.0,36.0,17.0,-27.099607467651367,-5.432128429412842,11.840819358825684,-0.735107421875,0.2152099609375,-0.2928466796875
8.576,382,1877,883,1260,-5.0,36.0,17.0,-28.381345748901367,-7.446288585662842,13.549803733825684,-0.735107421875,0.2152099609375,-0.2928466796875
8.590,388,1933,922,1306,-5.0,36.0,17.0,-27.770994186401367,-9.765625,14.099120140075684,-0.698974609375,0.2069091796875,-0.2440185546875
8.598,409,2058,991,1369,-5.0,36.0,17.0,-25.634763717651367,-11.657713890075684,13.488768577575684,-0.704345703125,0.139404296875,-0.1612548828125
8.606,416,2102,1009,1409,-5.0,36.0,17.0,-22.460935592651367,-12.634276390075684,12.756346702575684,-0.704345703125,0.139404296875,-0.1612548828125
