time,compression0,compression1,compression2,compression3,magn_x,magn_y,magn_z,gyro_x,gyro_y,gyro_z,accel_x,accel_y,accel_z
0.006,309,467,664,309,0.0,36.0,24.0,2.25830078125,-0.54931640625,-5.981444835662842,-0.876953125,0.3929443359375,-0.02685546875
0.020,311,452,661,309,1.0,36.0,31.0,3.845214605331421,0.54931640625,-6.835937023162842,-0.8673095703125,0.3831787109375,-0.0283203125
0.052,309,452,658,309,1.0,36.0,31.0,5.371093273162842,1.5258787870407104,-6.896972179412842,-0.858642578125,0.3765869140625,-0.0352783203125
0.053,309,445,661,309,1.0,36.0,31.0,6.530761241912842,2.3193359375,-6.469726085662842,-0.858154296875,0.38330078125,-0.0423583984375
0.053,309,461,662,309,1.0,36.0,31.0,7.263183116912842,2.990722417831421,-6.164550304412842,-0.8631591796875,0.3963623046875,-0.047607421875
0.064,296,454,642,310,1.0,36.0,31.0,7.568358898162842,3.540038824081421,-6.286620616912842,-0.8721923828125,0.40576171875,-0.049560546875
0.067,309,453,657,297,1.0,36.0,31.0,7.446288585662842,4.150390625,-6.774901866912842,-0.88525390625,0.40673828125,-0.0517578125
0.082,309,446,654,309,1.0,36.0,31.0,7.446288585662842,5.065917491912842,-7.385253429412842,-0.8973388671875,0.4005126953125,-0.051513671875
0.089,309,441,654,311,1.0,36.0,31.0,7.568358898162842,6.652831554412842,-8.056640625,-0.9090576171875,0.402099609375,-0.041748046875
0.104,308,426,650,309,1.0,36.0,31.0,7.446288585662842,8.60595703125,-8.72802734375,-0.9176025390625,0.4132080078125,-0.0279541015625
0.112,309,431,651,310,1.0,36.0,31.0,7.751464366912842,10.253905296325684,-9.6435546875,-0.9168701171875,0.410888671875,-0.0299072265625
0.119,309,427,643,309,0.0,37.0,35.0,9.765625,11.047362327575684,-10.498045921325684,-0.9066162109375,0.3970947265625,-0.04638671875
0.127,309,424,636,311,0.0,37.0,35.0,12.878417015075684,10.681151390075684,-11.047362327575684,-0.8946533203125,0.390380859375,-0.0621337890625
0.164,309,431,643,310,0.0,37.0,35.0,15.624999046325684,9.521484375,-11.657713890075684,-0.8861083984375,0.396728515625,-0.0765380859375
0.170,308,431,639,308,0.0,37.0,35.0,17.02880859375,8.11767578125,-12.695311546325684,-0.8779296875,0.4119873046875,-0.0858154296875
0.173,307,428,644,309,0.0,37.0,35.0,16.2353515625,6.896972179412842,-14.221190452575684,-0.867919921875,0.4219970703125,-0.0870361328125
0.179,307,432,650,310,0.0,37.0,35.0,13.427733421325684,5.981444835662842,-15.686034202575684,-0.8564453125,0.4246826171875,-0.0826416015625
0.207,309,433,650,309,0.0,37.0,35.0,10.437010765075684,4.8828125,-16.357421875,-0.8487548828125,0.4229736328125,-0.0670166015625
0.218,309,437,650,309,0.0,37.0,35.0,8.544921875,2.685546636581421,-15.930174827575684,-0.848876953125,0.4119873046875,-0.0419921875
0.218,310,440,652,309,0.0,37.0,35.0,8.60595703125,-0.4272460639476776,-14.831542015075684,-0.854248046875,0.400390625,-0.0205078125
0.218,307,445,650,309,0.0,37.0,35.0,10.131834983825684,-3.479003667831421,-13.854979515075684,-0.860107421875,0.4027099609375,-0.005615234375
0.218,309,449,654,309,1.0,36.0,28.0,11.474608421325684,-5.493163585662842,-13.305663108825684,-0.863525390625,0.4169921875,0.0040283203125
0.240,309,452,650,309,1.0,36.0,28.0,11.474608421325684,-6.347655773162842,-13.183592796325684,-0.86181640625,0.428955078125,0.00537109375
0.250,329,475,647,309,1.0,36.0,28.0,10.314940452575684,-6.530761241912842,-13.183592796325684,-0.8565673828125,0.4263916015625,-0.00439453125
0.251,314,473,654,311,1.0,36.0,28.0,8.4228515625,-6.958007335662842,-13.122557640075684,-0.8531494140625,0.4061279296875,-0.0238037109375
0.266,308,473,658,309,1.0,36.0,28.0,6.958007335662842,-7.873534679412842,-12.878417015075684,-0.8511962890625,0.3768310546875,-0.038818359375
0.276,336,495,661,309,1.0,36.0,28.0,6.530761241912842,-8.48388671875,-12.695311546325684,-0.8492431640625,0.3582763671875,-0.0352783203125
0.277,369,509,652,297,1.0,36.0,28.0,6.469726085662842,-7.934569835662842,-12.756346702575684,-0.8505859375,0.3563232421875,-0.0244140625
0.291,375,527,647,310,1.0,36.0,28.0,6.164550304412842,-6.530761241912842,-12.939452171325684,-0.858154296875,0.3543701171875,-0.0233154296875
0.299,372,532,652,309,1.0,36.0,28.0,5.737304210662842,-5.493163585662842,-13.000487327575684,-0.869873046875,0.342041015625,-0.031494140625
0.308,371,537,661,310,1.0,36.0,28.0,5.371093273162842,-5.493163585662842,-12.329100608825684,-0.8822021484375,0.3250732421875,-0.0460205078125
0.321,367,549,671,309,3.0,34.0,30.0,5.676269054412842,-6.347655773162842,-10.803221702575684,-0.8961181640625,0.315185546875,-0.0594482421875
0.329,365,572,687,310,3.0,34.0,30.0,6.530761241912842,-7.446288585662842,-8.72802734375,-0.909912109375,0.318115234375,-0.066162109375
0.353,364,577,700,310,3.0,34.0,30.0,7.263183116912842,-8.4228515625,-6.408690929412842,-0.9132080078125,0.3271484375,-0.061767578125
0.354,361,596,711,307,3.0,34.0,30.0,7.202147960662842,-8.7890625,-4.150390625,-0.9029541015625,0.327880859375,-0.052490234375
0.359,353,601,724,309,3.0,34.0,30.0,5.859374523162842,-8.23974609375,-2.38037109375,-0.888916015625,0.3233642578125,-0.0506591796875
0.372,338,618,734,310,3.0,34.0,30.0,3.356933355331421,-7.141112804412842,-0.9155272841453552,-0.879150390625,0.3330078125,-0.0498046875
0.381,309,652,745,309,3.0,34.0,30.0,0.6713866591453552,-5.920409679412842,0.0,-0.8741455078125,0.354248046875,-0.0516357421875
0.389,356,671,747,309,3.0,34.0,30.0,-0.7324218153953552,-5.310058116912842,0.1831054538488388,-0.868408203125,0.374267578125,-0.06103515625
0.397,308,697,766,309,3.0,34.0,30.0,-0.9155272841453552,-5.493163585662842,-0.30517578125,-0.84912109375,0.388916015625,-0.070068359375
0.411,326,774,793,310,0.0,36.0,35.0,-1.15966796875,-6.103515148162842,-1.5258787870407104,-0.813720703125,0.389404296875,-0.0740966796875
0.422,312,801,818,309,0.0,36.0,35.0,-2.746581792831421,-6.896972179412842,-3.417968511581421,-0.785888671875,0.3746337890625,-0.0775146484375
0.427,389,774,833,308,0.0,36.0,35.0,-5.126952648162842,-7.995604991912842,-5.493163585662842,-0.777587890625,0.374267578125,-0.08447265625
0.456,361,849,861,311,0.0,36.0,35.0,-8.11767578125,-9.1552734375,-7.141112804412842,-0.7808837890625,0.395751953125,-0.0728759765625
0.457,309,916,885,309,0.0,36.0,35.0,-12.329100608825684,-10.070799827575684,-8.85009765625,-0.790283203125,0.40576171875,-0.037353515625
0.458,365,939,913,311,0.0,36.0,35.0,-16.6015625,-10.803221702575684,-10.620116233825684,-0.79345703125,0.377685546875,-0.0128173828125
0.475,370,980,1008,309,0.0,36.0,35.0,-19.04296875,-12.145995140075684,-11.352538108825684,-0.7890625,0.302490234375,-0.015869140625
0.480,384,989,1047,309,0.0,36.0,35.0,-18.73779296875,-15.136717796325684,-10.253905296325684,-0.7828369140625,0.21435546875,-0.019775390625
0.488,389,1035,1079,309,0.0,36.0,35.0,-15.686034202575684,-19.53125,-7.446288585662842,-0.78369140625,0.18310546875,-0.003173828125
0.501,389,1064,1138,310,0.0,36.0,35.0,-15.686034202575684,-19.53125,-7.446288585662842,-0.7747802734375,0.2076416015625,0.0216064453125
0.511,389,1129,1225,311,4.0,35.0,32.0,-10.620116233825684,-25.878904342651367,-2.990722417831421,-0.7392578125,0.209228515625,0.0169677734375
0.518,382,1184,1266,309,4.0,35.0,32.0,-9.82666015625,-24.658201217651367,-3.479003667831421,-0.700927734375,0.1962890625,-0.012939453125
0.533,382,1228,1316,311,4.0,35.0,32.0,-9.82666015625,-24.658201217651367,-3.479003667831421,-0.718505859375,0.2484130859375,-0.0072021484375
0.557,318,1478,1427,311,4.0,35.0,32.0,-8.48388671875,-28.564451217651367,-4.39453125,-0.7359619140625,0.3092041015625,0.0216064453125
0.558,309,1508,1452,311,4.0,35.0,32.0,-10.803221702575684,-34.72900390625,-4.5166015625,-0.7236328125,0.3408203125,0.0465087890625
0.558,313,1538,1561,311,4.0,35.0,32.0,-10.803221702575684,-34.72900390625,-4.5166015625,-0.742431640625,0.3638916015625,0.0753173828125
0.575,311,1617,1684,311,4.0,35.0,32.0,-8.056640625,-39.6728515625,-6.469726085662842,-0.7681884765625,0.3690185546875,0.125732421875
0.578,355,1588,1763,311,4.0,35.0,32.0,-7.507323741912842,-36.865234375,-8.30078125,-0.8177490234375,0.387939453125,0.1851806640625
0.586,380,1481,1831,311,4.0,35.0,32.0,-7.507323741912842,-36.865234375,-8.30078125,-0.90869140625,0.4591064453125,0.2098388671875
0.600,379,1516,1939,311,4.0,35.0,32.0,-9.46044921875,-26.916501998901367,-10.437010765075684,-1.00439453125,0.562255859375,0.2147216796875
0.614,310,1766,2002,311,3.0,35.0,38.0,-7.690429210662842,-23.986814498901367,-9.033203125,-1.0859375,0.603271484375,0.1915283203125
0.622,310,1725,2116,309,3.0,35.0,38.0,-2.746581792831421,-22.644041061401367,-7.690429210662842,-1.1846923828125,0.5648193359375,0.087890625
0.636,311,1750,2183,311,3.0,35.0,38.0,3.479003667831421,-20.935056686401367,-6.896972179412842,-1.40087890625,0.4630126953125,-0.1103515625
0.638,311,1772,2222,311,3.0,35.0,38.0,5.920409679412842,-17.578125,-6.103515148162842,-1.619140625,0.2822265625,-0.266357421875
0.660,309,1783,2261,311,3.0,35.0,38.0,5.920409679412842,-17.578125,-6.103515148162842,-1.600341796875,0.08740234375,-0.2109375
0.661,310,1810,2282,312,3.0,35.0,38.0,-9.8876953125,-12.939452171325684,5.554198741912842,-1.412841796875,0.062255859375,-0.00927734375
0.668,310,1812,2275,311,3.0,35.0,38.0,-12.939452171325684,-12.695311546325684,16.66259765625,-1.2254638671875,0.2918701171875,0.151123046875
0.677,311,1819,2249,311,3.0,35.0,38.0,-12.939452171325684,-12.695311546325684,16.66259765625,-1.052978515625,0.5849609375,0.1834716796875
0.690,311,1819,2206,311,3.0,35.0,38.0,-1.4648436307907104,-1.9531248807907104,20.080564498901367,-0.9227294921875,0.74365234375,0.11083984375
0.698,311,1818,2206,310,3.0,35.0,38.0,-1.2817381620407104,7.446288585662842,6.347655773162842,-0.9632568359375,0.7567138671875,0.0115966796875
0.706,309,1798,2197,311,2.0,32.0,35.0,-1.2817381620407104,7.446288585662842,6.347655773162842,-1.193115234375,0.695068359375,-0.015869140625
0.727,310,1783,2155,310,2.0,32.0,35.0,-13.305663108825684,13.305663108825684,-19.71435546875,-1.4105224609375,0.5802001953125,0.056884765625
0.728,309,1775,2114,311,2.0,32.0,35.0,-19.775390625,11.230467796325684,-20.935056686401367,-1.4281005859375,0.38037109375,0.1717529296875
0.763,311,1750,2026,311,2.0,32.0,35.0,-18.9208984375,10.437010765075684,-15.136717796325684,-1.3050537109375,0.2020263671875,0.232666015625
0.763,310,1742,1971,311,2.0,32.0,35.0,-9.33837890625,11.718749046325684,-5.187987804412842,-1.179443359375,0.2073974609375,0.220703125
0.764,309,1742,1852,311,2.0,32.0,35.0,1.0986328125,13.671874046325684,4.8828125,-1.1220703125,0.3277587890625,0.1871337890625
0.767,309,1755,1846,311,2.0,32.0,35.0,1.0986328125,13.671874046325684,4.8828125,-1.1260986328125,0.4345703125,0.131591796875
0.782,2148,1655,1694,311,2.0,32.0,35.0,3.479003667831421,23.559568405151367,11.108397483825684,-1.1280517578125,0.4947509765625,0.03955078125
0.788,310,1566,1611,311,2.0,32.0,35.0,0.6103515625,31.433103561401367,9.46044921875,-1.0982666015625,0.5164794921875,-0.0711669921875
0.796,309,1499,1516,311,2.0,32.0,35.0,0.6103515625,31.433103561401367,9.46044921875,-1.036376953125,0.5216064453125,-0.1536865234375
0.810,310,1371,1351,310,3.0,33.0,27.0,-6.164550304412842,43.212886810302734,1.3427733182907104,-0.9549560546875,0.4903564453125,-0.181884765625
0.821,310,1276,1260,311,3.0,33.0,27.0,-9.765625,46.874996185302734,-4.57763671875,-0.873291015625,0.4114990234375,-0.14404296875
0.826,310,1185,1153,310,3.0,33.0,27.0,-9.765625,46.874996185302734,-4.57763671875,-0.8096923828125,0.2838134765625,-0.0640869140625
0.857,309,1004,1011,309,3.0,33.0,27.0,-6.835937023162842,46.752925872802734,-16.7236328125,-0.779541015625,0.1253662109375,-0.010498046875
0.866,309,904,938,309,3.0,33.0,27.0,-0.9765624403953552,45.288082122802734,-19.4091796875,-0.770263671875,-0.03076171875,0.032470703125
0.867,311,808,871,310,3.0,33.0,27.0,-0.9765624403953552,45.288082122802734,-19.4091796875,-0.770263671875,-0.03076171875,0.032470703125
0.871,309,692,749,309,3.0,33.0,27.0,10.925292015075684,38.63525390625,-13.793944358825684,-0.713623046875,-0.034423828125,0.071044921875
0.882,308,617,682,310,3.0,33.0,27.0,10.925292015075684,38.63525390625,-13.793944358825684,-0.6458740234375,0.0716552734375,0.0137939453125
0.888,575,575,647,656,3.0,33.0,27.0,16.66259765625,33.99658203125,-9.94873046875,-0.6458740234375,0.0716552734375,0.0137939453125
0.900,537,540,619,620,3.0,34.0,36.0,10.681151390075684,22.949216842651367,2.13623046875,-0.4683837890625,0.346923828125,0.007568359375
0.911,547,558,617,625,3.0,34.0,36.0,10.681151390075684,22.949216842651367,2.13623046875,-0.4217529296875,0.3529052734375,0.08056640625
0.923,588,598,636,643,3.0,34.0,36.0,-7.507323741912842,9.82666015625,9.765625,-0.44384765625,0.324951171875,0.134765625
0.933,309,627,666,310,3.0,34.0,36.0,-6.896972179412842,6.164550304412842,10.009765625,-0.484619140625,0.349609375,0.1224365234375
0.938,309,650,689,310,3.0,34.0,36.0,-6.896972179412842,6.164550304412842,10.009765625,-0.5345458984375,0.3865966796875,0.0738525390625
0.968,307,691,734,310,3.0,34.0,36.0,0.0610351525247097,4.69970703125,7.690429210662842,-0.5345458984375,0.3865966796875,0.0738525390625
0.968,310,754,772,309,3.0,34.0,36.0,15.197752952575684,4.82177734375,-3.906249761581421,-0.6617431640625,0.2764892578125,-0.05078125
0.969,310,822,815,310,3.0,34.0,36.0,15.197752952575684,4.82177734375,-3.906249761581421,-0.6939697265625,0.229248046875,-0.1304931640625
0.976,309,907,875,311,3.0,34.0,36.0,21.118162155151367,3.784179449081421,-6.225585460662842,-0.6939697265625,0.229248046875,-0.1304931640625
0.990,311,1034,980,310,3.0,34.0,36.0,16.41845703125,-8.85009765625,2.685546636581421,-0.7496337890625,0.256103515625,-0.1304931640625
0.998,309,1092,1035,311,4.0,36.0,32.0,16.41845703125,-8.85009765625,2.685546636581421,-0.771484375,0.309814453125,-0.0869140625
1.006,311,1173,1093,309,4.0,36.0,32.0,7.812499523162842,-16.17431640625,8.85009765625,-0.771484375,0.309814453125,-0.0869140625
1.021,1192,1289,1178,1236,4.0,36.0,32.0,-14.648436546325684,-24.475095748901367,11.535643577575684,-0.681396484375,0.244384765625,-0.013427734375
1.028,1251,1357,1234,1294,4.0,36.0,32.0,-14.648436546325684,-24.475095748901367,11.535643577575684,-0.6888427734375,0.182861328125,-0.028564453125
1.037,1305,1424,1280,1348,4.0,36.0,32.0,-18.1884765625,-24.780271530151367,7.995604991912842,-0.6888427734375,0.182861328125,-0.028564453125
1.053,1375,1516,1388,1471,4.0,36.0,32.0,-14.099120140075684,-26.184080123901367,2.990722417831421,-0.685791015625,0.2261962890625,-0.0396728515625
1.095,1416,1567,1457,1552,4.0,36.0,32.0,-14.099120140075684,-26.184080123901367,2.990722417831421,-0.6361083984375,0.20556640625,0.01611328125
1.095,1469,1607,1538,1689,4.0,36.0,32.0,-17.578125,-32.04345703125,-1.2817381620407104,-0.64404296875,0.22314453125,0.107177734375
1.096,1508,1691,1607,1729,4.0,36.0,32.0,-15.075682640075684,-34.11865234375,-1.4648436307907104,-0.707763671875,0.271728515625,0.162841796875
1.096,1535,1735,1716,1850,4.0,36.0,32.0,-15.075682640075684,-34.11865234375,-1.4648436307907104,-0.833984375,0.355224609375,0.2056884765625
1.096,1562,1775,1748,1929,0.0,34.0,35.0,-10.803221702575684,-33.14208984375,-0.4882812201976776,-0.833984375,0.355224609375,0.2056884765625
1.110,1592,1824,1912,2072,0.0,34.0,35.0,-1.4038084745407104,-26.916501998901367,-1.4648436307907104,-1.09716796875,0.5435791015625,0.212646484375
1.118,1618,1858,1990,2162,0.0,34.0,35.0,-1.4038084745407104,-26.916501998901367,-1.4648436307907104,-1.2540283203125,0.544189453125,0.172607421875
1.127,1635,1889,2043,2233,0.0,34.0,35.0,1.6479490995407104,-23.864744186401367,-2.197265625,-1.2540283203125,0.544189453125,0.172607421875
1.152,1670,1941,2114,2319,0.0,34.0,35.0,10.314940452575684,-13.366698265075684,-0.9765624403953552,-1.6954345703125,0.27294921875,-0.226806640625
1.152,1681,1949,2142,2343,0.0,34.0,35.0,10.314940452575684,-13.366698265075684,-0.9765624403953552,-1.67236328125,0.3345947265625,-0.2801513671875
1.183,1683,1957,2153,2359,0.0,34.0,35.0,7.507323741912842,-7.629394054412842,6.652831554412842,-1.67236328125,0.3345947265625,-0.2801513671875
1.184,1689,1968,2129,2330,0.0,34.0,35.0,-4.8828125,-5.676269054412842,19.1650390625,-1.305908203125,0.6632080078125,0.03515625
1.184,1686,1959,2087,2281,0.0,34.0,35.0,-4.8828125,-5.676269054412842,19.1650390625,-1.1136474609375,0.6905517578125,0.0570068359375
1.190,1681,1946,2041,2224,0.0,34.0,35.0,-0.3662109076976776,-1.5258787870407104,13.244627952575684,-1.1136474609375,0.6905517578125,0.0570068359375
1.200,1669,1929,2043,2228,4.0,36.0,30.0,2.929687261581421,10.986327171325684,-9.58251953125,-1.0126953125,0.6282958984375,-0.0430908203125
1.208,1660,1914,2035,2217,4.0,36.0,30.0,2.929687261581421,10.986327171325684,-9.58251953125,-1.306396484375,0.588623046875,-0.060791015625
1.216,1650,1904,2002,2180,4.0,36.0,30.0,-5.187987804412842,15.502928733825684,-19.10400390625,-1.306396484375,0.588623046875,-0.060791015625
1.230,1635,1877,1941,2107,4.0,36.0,30.0,-26.550291061401367,19.22607421875,-15.441893577575684,-1.6495361328125,0.3184814453125,0.0997314453125
1.239,1622,1852,1878,2028,4.0,36.0,30.0,-26.550291061401367,19.22607421875,-15.441893577575684,-1.4869384765625,0.26513671875,0.2039794921875
1.250,1605,1831,1805,1951,4.0,36.0,30.0,-25.634763717651367,20.202634811401367,-4.45556640625,-1.4869384765625,0.26513671875,0.2039794921875
1.282,1551,1743,1681,1805,4.0,36.0,30.0,-5.187987804412842,25.573728561401367,16.05224609375,-1.0872802734375,0.4346923828125,0.190185546875
1.290,1481,1666,1604,1723,4.0,36.0,30.0,-5.187987804412842,25.573728561401367,16.05224609375,-0.989013671875,0.5107421875,0.09326171875
1.290,1416,1566,1469,1562,4.0,36.0,30.0,9.09423828125,29.724119186401367,7.446288585662842,-0.9658203125,0.552978515625,-0.0360107421875
1.295,1362,1497,1384,1466,3.0,33.0,30.0,11.108397483825684,31.433103561401367,-3.356933355331421,-0.9532470703125,0.5465087890625,-0.15478515625
1.298,1286,1399,1285,1351,3.0,33.0,30.0,11.108397483825684,31.433103561401367,-3.356933355331421,-0.9071044921875,0.4681396484375,-0.2384033203125
1.306,1194,1286,1199,1253,3.0,33.0,30.0,10.498045921325684,34.24072265625,-12.756346702575684,-0.9071044921875,0.4681396484375,-0.2384033203125
1.320,1031,1093,1083,1117,3.0,33.0,30.0,9.27734375,37.17041015625,-21.484373092651367,-0.7449951171875,0.1328125,-0.1556396484375
1.328,939,982,1008,1039,3.0,33.0,30.0,9.27734375,37.17041015625,-21.484373092651367,-0.6871337890625,-0.039794921875,-0.0802001953125
1.337,855,885,939,960,3.0,33.0,30.0,10.925292015075684,35.64453125,-21.972654342651367,-0.6871337890625,-0.039794921875,-0.0802001953125
1.353,715,745,828,846,3.0,33.0,30.0,12.634276390075684,33.8134765625,-19.71435546875,-0.6107177734375,-0.10546875,0.0045166015625
1.386,659,669,792,803,3.0,33.0,30.0,12.817381858825684,31.188962936401367,-15.747069358825684,-0.56884765625,0.006591796875,-0.03125
1.386,593,631,759,770,3.0,33.0,30.0,14.221190452575684,28.564451217651367,-11.474608421325684,-0.56884765625,0.006591796875,-0.03125
1.387,558,593,697,706,3.0,33.0,30.0,15.991209983825684,25.268552780151367,-6.408690929412842,-0.5455322265625,0.2867431640625,-0.019287109375
1.388,577,586,696,708,2.0,35.0,27.0,12.878417015075684,19.10400390625,-0.3662109076976776,-0.5455322265625,0.2867431640625,-0.019287109375
1.402,591,605,706,711,2.0,35.0,27.0,4.7607421875,11.047362327575684,5.554198741912842,-0.504638671875,0.342041015625,0.033203125
1.410,647,664,740,751,2.0,35.0,27.0,-3.906249761581421,4.5166015625,10.131834983825684,-0.4822998046875,0.3597412109375,0.0714111328125
1.418,680,698,763,772,2.0,35.0,27.0,-8.7890625,0.30517578125,11.596678733825684,-0.4822998046875,0.3597412109375,0.0714111328125
1.433,756,780,809,827,2.0,35.0,27.0,-1.5869139432907104,-4.39453125,4.39453125,-0.64599609375,0.3736572265625,0.0361328125
1.440,816,846,854,872,2.0,35.0,27.0,-1.5869139432907104,-4.39453125,4.39453125,-0.6446533203125,0.3048095703125,-0.046630859375
1.448,901,938,873,904,2.0,35.0,27.0,6.530761241912842,-4.150390625,-0.9765624403953552,-0.6446533203125,0.3048095703125,-0.046630859375
1.456,953,996,906,928,2.0,35.0,27.0,12.451170921325684,-5.0048828125,-4.39453125,-0.640380859375,0.2388916015625,-0.135498046875
1.480,1050,1115,986,1026,2.0,35.0,27.0,15.014647483825684,-9.33837890625,-3.601073980331421,-0.69140625,0.28466796875,-0.230224609375
1.480,1125,1201,1029,1070,2.0,35.0,27.0,13.244627952575684,-16.54052734375,1.2817381620407104,-0.69140625,0.28466796875,-0.230224609375
1.496,1185,1267,1074,1125,3.0,34.0,29.0,5.432128429412842,-24.780271530151367,6.591796398162842,-0.734130859375,0.3653564453125,-0.1724853515625
1.500,1292,1411,1185,1241,3.0,34.0,29.0,-7.080077648162842,-31.738279342651367,7.568358898162842,-0.6563720703125,0.222900390625,0.0191650390625
1.515,1348,1472,1246,1313,3.0,34.0,29.0,-17.4560546875,-34.60693359375,3.173827886581421,-0.6563720703125,0.222900390625,0.0191650390625
1.516,1391,1533,1300,1375,3.0,34.0,29.0,-20.01953125,-35.400390625,-1.6479490995407104,-0.64013671875,0.14013671875,0.0517578125
1.542,1452,1616,1469,1566,3.0,34.0,29.0,-17.39501953125,-38.26904296875,-3.540038824081421,-0.5166015625,0.1329345703125,0.0860595703125
1.583,1480,1658,1552,1662,3.0,34.0,29.0,-17.7001953125,-43.151851654052734,-3.967284917831421,-0.5166015625,0.1329345703125,0.0860595703125
1.585,1521,1671,1605,1773,3.0,34.0,29.0,-20.629880905151367,-46.874996185302734,-4.57763671875,-0.56982421875,0.2022705078125,0.1375732421875
1.585,1579,1795,1791,1931,3.0,34.0,29.0,-18.98193359375,-45.898433685302734,-5.737304210662842,-0.8975830078125,0.378173828125,0.15087890625
1.585,1602,1833,1900,2063,3.0,34.0,29.0,-14.953612327575684,-41.076656341552734,-6.286620616912842,-0.8975830078125,0.378173828125,0.15087890625
1.586,1620,1874,1987,2165,3.0,34.0,29.0,-13.183592796325684,-36.92626953125,-5.065917491912842,-1.090576171875,0.4129638671875,0.19677734375
1.599,1669,1931,2102,2301,4.0,32.0,34.0,-10.620116233825684,-35.33935546875,-3.601073980331421,-1.5472412109375,0.23193359375,0.0994873046875
1.599,1643,1954,2100,2312,4.0,32.0,34.0,-2.13623046875,-32.5927734375,-3.173827886581421,-1.5472412109375,0.23193359375,0.0994873046875
1.607,1684,1960,2170,2382,4.0,32.0,34.0,9.70458984375,-26.977537155151367,-0.1220703050494194,-1.616455078125,0.20654296875,-0.053955078125
1.628,1700,1989,2206,2424,4.0,32.0,34.0,11.901854515075684,-21.362302780151367,9.521484375,-1.563720703125,0.5819091796875,-0.0543212890625
1.629,1711,1996,2195,2414,4.0,32.0,34.0,4.39453125,-15.747069358825684,21.240232467651367,-1.563720703125,0.5819091796875,-0.0543212890625
1.638,1718,1997,2160,2376,4.0,32.0,34.0,0.6713866591453552,-9.46044921875,27.343748092651367,-1.513671875,0.802001953125,-0.0062255859375
1.651,1711,1983,2100,2296,4.0,32.0,34.0,3.356933355331421,-4.0283203125,22.705076217651367,-1.00341796875,0.67724609375,0.0289306640625
1.660,1703,1973,2098,2292,4.0,32.0,34.0,6.835937023162842,2.3193359375,8.1787109375,-1.00341796875,0.67724609375,0.0289306640625
1.685,1697,1968,2087,2277,4.0,32.0,34.0,5.676269054412842,9.033203125,-8.1787109375,-0.982177734375,0.623291015625,-0.0428466796875
1.685,1681,1943,1996,2178,4.0,32.0,34.0,-1.4648436307907104,13.000487327575684,-20.01953125,-1.6275634765625,0.5753173828125,-0.03076171875
1.689,1666,1920,2007,2179,4.0,34.0,34.0,-11.962889671325684,14.465331077575684,-25.268552780151367,-1.6275634765625,0.5753173828125,-0.03076171875
1.703,1656,1900,1954,2121,4.0,34.0,34.0,-20.812986373901367,15.441893577575684,-23.254392623901367,-1.701171875,0.3519287109375,0.078369140625
1.711,1629,1856,1825,1971,4.0,34.0,34.0,-21.118162155151367,16.6015625,-15.136717796325684,-1.3106689453125,0.2808837890625,0.244384765625
1.719,1604,1818,1752,1891,4.0,34.0,34.0,-13.610838890075684,17.76123046875,-3.540038824081421,-1.3106689453125,0.2808837890625,0.244384765625
1.727,1560,1752,1674,1798,4.0,34.0,34.0,-3.479003667831421,21.118162155151367,6.713866710662842,-1.145751953125,0.3814697265625,0.19287109375
1.741,1481,1648,1533,1634,4.0,34.0,34.0,5.187987804412842,26.611326217651367,11.352538108825684,-0.9400634765625,0.451904296875,-0.0140380859375
1.749,1427,1579,1449,1537,4.0,34.0,34.0,10.009765625,30.639646530151367,9.765625,-0.9400634765625,0.451904296875,-0.0140380859375
1.757,1361,1486,1369,1442,4.0,34.0,34.0,11.596678733825684,31.616209030151367,3.845214605331421,-0.8865966796875,0.4404296875,-0.0933837890625
1.789,1222,1309,1213,1278,4.0,34.0,34.0,12.695311546325684,32.40966796875,-4.0283203125,-0.764404296875,0.2401123046875,-0.1343994140625
1.789,1112,1183,1141,1191,4.0,34.0,34.0,14.343260765075684,34.24072265625,-11.718749046325684,-0.764404296875,0.2401123046875,-0.1343994140625
1.789,990,1071,1073,1115,5.0,31.0,32.0,16.11328125,35.400390625,-17.9443359375,-0.708984375,0.076416015625,-0.085205078125
1.816,886,925,968,999,5.0,31.0,32.0,19.22607421875,36.1328125,-20.507810592651367,-0.671630859375,-0.1021728515625,-0.024658203125
1.816,805,830,891,913,5.0,31.0,32.0,21.667478561401367,35.2783203125,-18.06640625,-0.671630859375,-0.1021728515625,-0.024658203125
1.817,745,766,859,877,5.0,31.0,32.0,21.118162155151367,30.822751998901367,-12.817381858825684,-0.650390625,-0.027587890625,0.003662109375
1.831,654,667,777,792,5.0,31.0,32.0,20.507810592651367,25.817869186401367,-8.1787109375,-0.573486328125,0.2535400390625,-0.079833984375
1.839,614,624,754,766,5.0,31.0,32.0,19.95849609375,21.789548873901367,-3.784179449081421,-0.573486328125,0.2535400390625,-0.079833984375
1.853,589,603,733,740,5.0,31.0,32.0,15.563963890075684,15.869139671325684,-0.30517578125,-0.5360107421875,0.3858642578125,-0.0438232421875
1.864,606,619,739,750,5.0,31.0,32.0,6.652831554412842,8.30078125,0.7934569716453552,-0.4854736328125,0.4595947265625,0.1083984375
1.869,631,644,749,761,5.0,31.0,32.0,-2.624511480331421,1.8310545682907104,-0.1220703050494194,-0.4854736328125,0.4595947265625,0.1083984375
1.908,654,671,773,782,5.0,31.0,32.0,-5.737304210662842,-1.5869139432907104,-2.990722417831421,-0.5655517578125,0.4342041015625,0.0972900390625
1.930,694,715,806,822,4.0,34.0,30.0,-1.03759765625,-1.9531248807907104,-7.507323741912842,-0.7625732421875,0.27685546875,-0.0369873046875
1.930,725,750,830,848,4.0,34.0,30.0,6.591796398162842,-1.2817381620407104,-11.291502952575684,-0.7625732421875,0.27685546875,-0.0369873046875
1.930,750,780,858,877,4.0,34.0,30.0,12.512206077575684,-1.7089842557907104,-11.840819358825684,-0.7718505859375,0.1829833984375,-0.0823974609375
1.930,858,889,916,939,4.0,34.0,30.0,15.075682640075684,-4.5166015625,-8.97216796875,-0.728759765625,0.135009765625,-0.111083984375
1.930,907,944,943,968,4.0,34.0,30.0,15.014647483825684,-9.3994140625,-3.662109136581421,-0.728759765625,0.135009765625,-0.111083984375
1.937,964,1017,982,1018,4.0,34.0,30.0,13.061522483825684,-14.709471702575684,2.197265625,-0.744873046875,0.2108154296875,-0.1126708984375
1.952,1059,1125,1059,1098,4.0,34.0,30.0,9.1552734375,-18.6767578125,6.591796398162842,-0.7589111328125,0.3319091796875,-0.0992431640625
1.968,1127,1206,1103,1153,4.0,34.0,30.0,2.38037109375,-20.385740280151367,8.48388671875,-0.7589111328125,0.3319091796875,-0.0992431640625
1.968,1186,1282,1159,1222,4.0,34.0,30.0,-7.446288585662842,-21.667478561401367,8.1787109375,-0.71044921875,0.3175048828125,-0.0631103515625
1.992,1300,1413,1264,1336,4.0,35.0,31.0,-17.15087890625,-23.803709030151367,5.920409679412842,-0.5888671875,0.1785888671875,0.0052490234375
1.992,1358,1492,1318,1397,4.0,35.0,31.0,-20.935056686401367,-27.099607467651367,2.990722417831421,-0.5888671875,0.1785888671875,0.0052490234375
1.997,1413,1531,1391,1478,4.0,35.0,31.0,-18.24951171875,-32.3486328125,0.9765624403953552,-0.5478515625,0.1673583984375,-0.010498046875
2.011,1481,1656,1518,1619,4.0,35.0,31.0,-16.4794921875,-38.63525390625,0.1831054538488388,-0.4876708984375,0.2001953125,0.1278076171875
2.022,1484,1676,1605,1727,4.0,35.0,31.0,-19.04296875,-43.518062591552734,-0.3662109076976776,-0.4876708984375,0.2001953125,0.1278076171875
2.027,1546,1772,1669,1800,4.0,35.0,31.0,-19.34814453125,-45.166011810302734,-3.234863042831421,-0.60791015625,0.28173828125,0.2001953125
2.041,1611,1834,1819,1974,4.0,35.0,31.0,-16.05224609375,-43.334957122802734,-8.056640625,-0.9609375,0.3680419921875,0.2099609375
2.049,1642,1884,1920,2091,4.0,35.0,31.0,-14.526366233825684,-40.161128997802734,-10.681151390075684,-0.9609375,0.3680419921875,0.2099609375
2.057,1670,1925,2009,2194,4.0,35.0,31.0,-12.573241233825684,-38.818359375,-10.192870140075684,-1.1456298828125,0.2872314453125,0.263427734375
2.098,1715,1997,2133,2345,5.0,32.0,31.0,10.253905296325684,-34.60693359375,-6.286620616912842,-1.6240234375,0.0802001953125,0.028564453125
2.098,1727,2012,2155,2364,5.0,32.0,31.0,20.996091842651367,-26.550291061401367,2.38037109375,-1.646728515625,0.155029296875,-0.164306640625
2.101,1743,2041,2180,2404,5.0,32.0,31.0,17.88330078125,-19.47021484375,16.2353515625,-1.482421875,0.6900634765625,-0.0557861328125
2.110,1754,2047,2179,2401,5.0,32.0,31.0,8.48388671875,-15.563963890075684,27.099607467651367,-1.482421875,0.6900634765625,-0.0557861328125
2.117,1755,2052,2147,2361,5.0,32.0,31.0,3.784179449081421,-12.145995140075684,27.709959030151367,-1.4486083984375,0.869873046875,0.0150146484375
2.131,1750,2035,2068,2269,5.0,32.0,31.0,2.990722417831421,-6.164550304412842,18.49365234375,-1.274658203125,0.791259765625,0.0430908203125
2.139,1743,2028,2063,2261,5.0,32.0,31.0,2.13623046875,2.3193359375,4.8828125,-1.02197265625,0.5802001953125,0.0491943359375
2.147,1742,2023,2061,2257,5.0,32.0,31.0,-1.5258787870407104,10.192870140075684,-7.263183116912842,-0.9805908203125,0.489501953125,0.0321044921875
2.161,1735,2014,2023,2213,5.0,32.0,31.0,-8.23974609375,15.502928733825684,-14.892577171325684,-1.2314453125,0.50244140625,-0.0028076171875
2.171,1721,1990,1989,2168,5.0,32.0,31.0,-16.7236328125,18.00537109375,-17.08984375,-1.5401611328125,0.462890625,0.0166015625
2.200,1703,1966,1939,2113,4.0,33.0,29.0,-22.644041061401367,17.578125,-13.977049827575684,-1.624267578125,0.319580078125,0.1231689453125
2.201,1681,1920,1831,1985,4.0,33.0,29.0,-20.324705123901367,16.05224609375,-6.469726085662842,-1.484619140625,0.2467041015625,0.2310791015625
2.201,1659,1889,1750,1891,4.0,33.0,29.0,-10.986327171325684,16.2353515625,3.173827886581421,-1.298583984375,0.301025390625,0.2635498046875
2.211,1591,1840,1674,1805,4.0,33.0,29.0,0.1831054538488388,19.53125,10.559081077575684,-1.167236328125,0.3580322265625,0.2174072265625
2.241,1524,1709,1506,1643,4.0,33.0,29.0,8.4228515625,24.902341842651367,13.183592796325684,-1.0810546875,0.3924560546875,0.120361328125
2.243,1512,1683,1453,1552,4.0,33.0,29.0,10.925292015075684,29.357908248901367,12.512206077575684,-1.0194091796875,0.435791015625,0.00341796875
2.243,1455,1605,1377,1456,4.0,33.0,29.0,8.6669921875,31.738279342651367,9.521484375,-0.9715576171875,0.4791259765625,-0.102294921875
2.253,1345,1462,1222,1280,4.0,33.0,29.0,6.164550304412842,33.38623046875,3.234863042831421,-0.9058837890625,0.466552734375,-0.176025390625
2.260,1251,1348,1145,1196,4.0,33.0,29.0,6.469726085662842,35.400390625,-5.310058116912842,-0.802734375,0.3365478515625,-0.1744384765625
2.267,1153,1231,1085,1131,4.0,33.0,29.0,8.4228515625,37.04833984375,-13.610838890075684,-0.7384033203125,0.1329345703125,-0.120849609375
2.283,996,1047,976,1007,0.0,34.0,30.0,11.535643577575684,37.90283203125,-18.12744140625,-0.7288818359375,-0.0257568359375,-0.0806884765625
2.305,912,951,928,955,0.0,34.0,30.0,14.404295921325684,37.41455078125,-16.6015625,-0.702392578125,-0.101806640625,-0.0404052734375
2.306,846,873,877,904,0.0,34.0,30.0,13.916014671325684,35.09521484375,-10.742186546325684,-0.656982421875,-0.07275390625,-0.0035400390625
2.318,722,747,809,822,0.0,34.0,30.0,12.573241233825684,31.921384811401367,-4.82177734375,-0.6082763671875,0.0506591796875,-0.0145263671875
2.319,673,689,774,793,0.0,34.0,30.0,13.061522483825684,29.052732467651367,-1.2817381620407104,-0.5701904296875,0.1922607421875,-0.0435791015625
2.327,632,645,751,766,0.0,34.0,30.0,9.6435546875,25.268552780151367,1.0986328125,-0.56884765625,0.3250732421875,-0.0146484375
2.341,600,614,721,726,0.0,34.0,30.0,0.3662109076976776,19.1650390625,3.295898199081421,-0.5660400390625,0.4000244140625,0.078369140625
2.349,606,625,723,732,0.0,34.0,30.0,-9.09423828125,13.000487327575684,4.45556640625,-0.5369873046875,0.401123046875,0.1502685546875
2.358,640,654,740,754,0.0,34.0,30.0,-13.427733421325684,9.70458984375,3.906249761581421,-0.53515625,0.367431640625,0.1416015625
2.371,684,698,774,787,4.0,35.0,30.0,-9.58251953125,8.4228515625,2.25830078125,-0.5960693359375,0.32470703125,0.0718994140625
2.379,725,750,792,803,4.0,35.0,30.0,-0.4272460639476776,7.141112804412842,0.6103515625,-0.6937255859375,0.292724609375,-0.0052490234375
2.402,766,794,806,820,4.0,35.0,30.0,6.958007335662842,4.94384765625,-0.1220703050494194,-0.7498779296875,0.2498779296875,-0.0408935546875
2.402,844,877,830,848,4.0,35.0,30.0,10.803221702575684,2.38037109375,0.0610351525247097,-0.7379150390625,0.1827392578125,-0.0618896484375
2.416,922,963,859,877,4.0,35.0,30.0,13.000487327575684,-0.2441406100988388,1.8310545682907104,-0.7099609375,0.156005859375,-0.0804443359375
2.417,977,1025,886,916,4.0,35.0,30.0,13.061522483825684,-3.845214605331421,5.737304210662842,-0.706787109375,0.1961669921875,-0.0833740234375
2.431,1098,1160,953,985,4.0,35.0,30.0,10.314940452575684,-7.934569835662842,10.131834983825684,-0.70849609375,0.245849609375,-0.0947265625
2.449,1146,1231,1003,1039,4.0,35.0,30.0,4.82177734375,-11.230467796325684,13.244627952575684,-0.7017822265625,0.280029296875,-0.1199951171875
2.449,1201,1292,1050,1093,4.0,35.0,30.0,-1.7700194120407104,-14.709471702575684,14.404295921325684,-0.70654296875,0.3162841796875,-0.1097412109375
2.462,1300,1413,1151,1206,4.0,35.0,30.0,-8.1787109375,-19.53125,12.512206077575684,-0.6875,0.301025390625,-0.050537109375
2.469,1374,1504,1204,1260,4.0,34.0,30.0,-12.512206077575684,-23.559568405151367,7.751464366912842,-0.64501953125,0.1971435546875,-0.0047607421875
2.478,1426,1573,1263,1340,4.0,34.0,30.0,-12.634276390075684,-26.062009811401367,3.479003667831421,-0.611083984375,0.11376953125,0.0205078125
2.505,1506,1674,1362,1452,4.0,34.0,30.0,-12.451170921325684,-29.724119186401367,2.50244140625,-0.564208984375,0.0992431640625,0.03271484375
2.506,1540,1721,1458,1557,4.0,34.0,30.0,-14.404295921325684,-34.0576171875,3.906249761581421,-0.51806640625,0.1121826171875,0.0423583984375
2.508,1566,1769,1562,1669,4.0,34.0,30.0,-14.038084983825684,-38.2080078125,5.615233898162842,-0.5283203125,0.1700439453125,0.0723876953125
2.522,1634,1858,1666,1798,4.0,34.0,30.0,-9.6435546875,-42.602535247802734,5.798339366912842,-0.6357421875,0.2568359375,0.1319580078125
2.529,1662,1897,1742,1889,4.0,34.0,30.0,-4.150390625,-45.532222747802734,4.21142578125,-0.8450927734375,0.3560791015625,0.224853515625
2.537,1697,1954,1810,1965,4.0,34.0,30.0,0.1220703050494194,-43.334957122802734,3.173827886581421,-1.1109619140625,0.493896484375,0.247802734375
2.553,1750,2020,1914,2089,4.0,34.0,30.0,4.45556640625,-34.24072265625,4.33349609375,-1.3653564453125,0.6519775390625,0.08349609375
2.559,1772,2048,1973,2164,4.0,34.0,30.0,8.30078125,-21.606443405151367,7.568358898162842,-1.5909423828125,0.7254638671875,-0.1771240234375
2.567,1778,2063,2015,2215,4.0,35.0,37.0,5.432128429412842,-12.573241233825684,10.620116233825684,-1.7347412109375,0.6256103515625,-0.29052734375
2.581,1794,2091,2054,2260,4.0,35.0,37.0,-5.065917491912842,-11.962889671325684,11.596678733825684,-1.7325439453125,0.4266357421875,-0.1561279296875
2.606,1795,2096,2054,2258,4.0,35.0,37.0,-11.230467796325684,-16.6015625,11.108397483825684,-1.6153564453125,0.324951171875,0.064453125
2.607,1798,2098,2012,2207,4.0,35.0,37.0,-6.042479991912842,-18.49365234375,10.620116233825684,-1.42724609375,0.3951416015625,0.157958984375
2.611,1794,2082,1951,2134,4.0,35.0,37.0,3.356933355331421,-12.512206077575684,9.09423828125,-1.15234375,0.561279296875,0.0794677734375
2.621,1788,2075,1960,2145,4.0,35.0,37.0,8.36181640625,-1.9531248807907104,3.723144292831421,-0.940185546875,0.7093505859375,-0.0321044921875
2.627,1779,2061,1959,2143,4.0,35.0,37.0,5.676269054412842,6.774901866912842,-7.019042491912842,-1.0487060546875,0.72509765625,-0.0638427734375
2.641,1766,2041,1939,2117,4.0,35.0,37.0,-3.784179449081421,11.230467796325684,-18.61572265625,-1.381103515625,0.607177734375,-0.0218505859375
2.649,1750,2023,1912,2089,4.0,35.0,37.0,-14.343260765075684,12.390135765075684,-22.827146530151367,-1.5972900390625,0.41015625,0.06298828125
2.661,1734,1996,1874,2041,4.0,35.0,37.0,-18.6767578125,12.268065452575684,-17.4560546875,-1.5421142578125,0.2308349609375,0.158447265625
2.671,1698,1946,1768,1915,5.0,34.0,37.0,-13.061522483825684,12.329100608825684,-6.713866710662842,-1.3321533203125,0.2032470703125,0.2054443359375
2.679,1671,1897,1698,1838,5.0,34.0,37.0,-2.685546636581421,13.244627952575684,3.601073980331421,-1.145751953125,0.30615234375,0.1744384765625
2.688,1644,1860,1632,1755,5.0,34.0,37.0,5.981444835662842,14.282225608825684,7.812499523162842,-1.0555419921875,0.41650390625,0.1025390625
2.709,1577,1766,1506,1608,5.0,34.0,37.0,11.657713890075684,15.624999046325684,3.967284917831421,-1.0281982421875,0.4940185546875,0.0218505859375
2.709,1533,1662,1404,1503,5.0,34.0,37.0,14.221190452575684,18.49365234375,-4.21142578125,-1.0247802734375,0.5294189453125,-0.0543212890625
2.717,1499,1656,1348,1428,5.0,34.0,37.0,13.244627952575684,22.644041061401367,-11.596678733825684,-0.99951171875,0.512451171875,-0.1241455078125
2.731,1387,1513,1213,1280,5.0,34.0,37.0,10.864256858825684,27.160642623901367,-15.869139671325684,-0.9276123046875,0.44384765625,-0.181884765625
2.739,1300,1402,1156,1213,5.0,34.0,37.0,10.192870140075684,31.372068405151367,-16.66259765625,-0.8348388671875,0.3699951171875,-0.18994140625
2.754,1198,1276,1088,1133,5.0,34.0,37.0,11.352538108825684,33.69140625,-16.17431640625,-0.74560546875,0.275146484375,-0.1258544921875
2.767,1029,1086,964,1005,5.0,34.0,37.0,11.657713890075684,33.8134765625,-17.63916015625,-0.697998046875,0.12841796875,-0.030517578125
2.770,929,976,939,963,5.0,34.0,31.0,10.070799827575684,32.958984375,-20.324705123901367,-0.6923828125,-0.0361328125,0.0262451171875
2.777,861,890,888,913,5.0,34.0,31.0,8.72802734375,32.1044921875,-20.935056686401367,-0.6944580078125,-0.15283203125,0.037353515625
2.791,739,753,796,814,5.0,34.0,31.0,8.6669921875,30.273435592651367,-17.822265625,-0.7041015625,-0.140380859375,0.0203857421875
2.812,667,679,767,780,5.0,34.0,31.0,9.3994140625,26.977537155151367,-11.230467796325684,-0.71826171875,-0.0076904296875,-0.001953125
2.812,587,593,722,729,5.0,34.0,31.0,7.507323741912842,22.460935592651367,-2.38037109375,-0.7069091796875,0.1806640625,0.0166015625
2.829,527,533,682,687,5.0,34.0,31.0,0.1831054538488388,17.02880859375,7.019042491912842,-0.647705078125,0.3416748046875,0.064208984375
2.829,522,531,659,309,5.0,34.0,31.0,-8.23974609375,12.451170921325684,12.756346702575684,-0.580322265625,0.39990234375,0.103271484375
2.837,444,545,671,529,5.0,34.0,31.0,-12.145995140075684,9.33837890625,11.840819358825684,-0.57177734375,0.359619140625,0.0989990234375
2.851,311,563,684,309,5.0,34.0,31.0,-8.6669921875,7.080077648162842,6.958007335662842,-0.610595703125,0.33984375,0.0283203125
2.859,310,589,706,310,5.0,34.0,31.0,-0.30517578125,4.638671875,3.173827886581421,-0.6292724609375,0.380859375,-0.0540771484375
2.876,310,627,725,309,5.0,34.0,33.0,6.042479991912842,1.7089842557907104,0.9155272841453552,-0.6297607421875,0.379638671875,-0.093017578125
2.881,309,698,763,310,5.0,34.0,33.0,8.36181640625,-1.7089842557907104,-1.7089842557907104,-0.6417236328125,0.311279296875,-0.0899658203125
2.889,310,762,788,661,5.0,34.0,33.0,9.6435546875,-5.554198741912842,-4.150390625,-0.6512451171875,0.240966796875,-0.0650634765625
2.917,765,845,843,799,5.0,34.0,33.0,10.864256858825684,-9.033203125,-5.310058116912842,-0.6497802734375,0.2069091796875,-0.0518798828125
2.917,873,966,928,871,5.0,34.0,33.0,10.864256858825684,-11.779784202575684,-4.69970703125,-0.65234375,0.2210693359375,-0.067626953125
2.919,901,1025,992,966,5.0,34.0,33.0,9.46044921875,-14.526366233825684,-2.38037109375,-0.6600341796875,0.2696533203125,-0.1036376953125
2.932,985,1115,1062,1034,5.0,34.0,33.0,6.347655773162842,-17.02880859375,0.7934569716453552,-0.6494140625,0.2989501953125,-0.1484375
2.941,1057,1268,1173,1078,5.0,34.0,33.0,-1.4648436307907104,-19.1650390625,3.723144292831421,-0.68115234375,0.3111572265625,-0.15869140625
2.949,311,1372,1290,310,5.0,34.0,33.0,-15.502928733825684,-23.559568405151367,4.39453125,-0.7041015625,0.3009033203125,-0.076416015625
2.957,311,1454,1362,311,5.0,34.0,33.0,-29.663084030151367,-28.625486373901367,0.8544921278953552,-0.65625,0.2071533203125,0.0130615234375
2.986,310,1579,1513,311,5.0,34.0,32.0,-36.9873046875,-30.944822311401367,-4.08935546875,-0.6531982421875,0.1318359375,0.057373046875
2.987,310,1632,1630,311,5.0,34.0,32.0,-37.90283203125,-33.3251953125,-6.286620616912842,-0.68310546875,0.141357421875,0.084228515625
2.988,311,1684,1684,310,5.0,34.0,32.0,-35.70556640625,-37.109375,-5.676269054412842,-0.71826171875,0.1785888671875,0.1085205078125
3.014,1358,1735,1808,1725,5.0,34.0,32.0,-30.944822311401367,-40.954586029052734,-4.57763671875,-0.7994384765625,0.2373046875,0.138916015625
3.016,1538,1769,1894,1969,5.0,34.0,32.0,-23.193357467651367,-43.151851654052734,-4.150390625,-0.9044189453125,0.3211669921875,0.14990234375
3.020,1537,1818,1967,2119,5.0,34.0,32.0,-16.17431640625,-42.602535247802734,-3.662109136581421,-0.9832763671875,0.3984375,0.1837158203125
3.033,1630,1886,2076,2275,5.0,34.0,32.0,-11.535643577575684,-40.588375091552734,-4.45556640625,-1.0682373046875,0.4398193359375,0.2423095703125
3.039,1655,1915,2133,2343,5.0,34.0,32.0,-6.042479991912842,-38.51318359375,-7.568358898162842,-1.2276611328125,0.442626953125,0.2303466796875
3.047,1681,1954,2172,2391,5.0,34.0,32.0,2.3193359375,-36.56005859375,-11.413573265075684,-1.4498291015625,0.3096923828125,0.1334228515625
3.061,1714,2002,2235,2469,4.0,33.0,30.0,13.427733421325684,-33.8134765625,-12.573241233825684,-1.607421875,0.124267578125,-0.032958984375
3.069,1724,2015,2254,2491,4.0,33.0,30.0,21.240232467651367,-29.235837936401367,-5.920409679412842,-1.5845947265625,0.1123046875,-0.2032470703125
3.077,1730,2028,2275,2521,4.0,33.0,30.0,18.4326171875,-24.719236373901367,7.629394054412842,-1.4466552734375,0.29052734375,-0.22265625
3.095,1739,2045,2290,2539,4.0,33.0,30.0,9.27734375,-22.644041061401367,19.1650390625,-1.3173828125,0.56201171875,-0.080078125
3.101,1745,2045,2278,2524,4.0,33.0,30.0,1.8920897245407104,-20.690916061401367,20.568845748901367,-1.2315673828125,0.7464599609375,0.091064453125
3.117,1742,2041,2254,2491,4.0,33.0,30.0,-1.5869139432907104,-14.709471702575684,11.169432640075684,-1.1092529296875,0.69775390625,0.1661376953125
3.121,1716,2009,2214,2435,4.0,33.0,30.0,-2.197265625,-4.7607421875,-2.44140625,-0.978515625,0.5341796875,0.12939453125
3.132,1712,2000,2205,2427,4.0,33.0,30.0,-2.990722417831421,4.7607421875,-13.061522483825684,-0.9970703125,0.436279296875,0.0584716796875
3.137,1700,1987,2194,2409,4.0,33.0,30.0,-6.225585460662842,10.803221702575684,-17.822265625,-1.2154541015625,0.438720703125,0.0023193359375
3.151,1682,1957,2167,2377,4.0,33.0,30.0,-12.145995140075684,13.610838890075684,-17.27294921875,-1.4715576171875,0.4100341796875,0.002685546875
3.159,1670,1937,2129,2333,6.0,33.0,36.0,-18.24951171875,13.732909202575684,-12.756346702575684,-1.5391845703125,0.2711181640625,0.107666015625
3.167,1656,1913,2082,2278,6.0,33.0,36.0,-19.6533203125,11.962889671325684,-4.82177734375,-1.412109375,0.177734375,0.2496337890625
3.185,1622,1858,1985,2158,6.0,33.0,36.0,-14.343260765075684,11.657713890075684,5.371093273162842,-1.2490234375,0.214111328125,0.31005859375
3.195,1604,1831,1909,2069,6.0,33.0,36.0,-5.737304210662842,16.17431640625,13.488768577575684,-1.151123046875,0.3203125,0.2618408203125
3.198,1584,1805,1812,1954,6.0,33.0,36.0,-5.737304210662842,16.17431640625,13.488768577575684,-1.1221923828125,0.43115234375,0.1710205078125
3.221,1533,1718,1628,1748,6.0,33.0,36.0,1.2817381620407104,31.372068405151367,15.808104515075684,-1.1163330078125,0.501953125,0.0877685546875
3.221,1486,1649,1531,1635,6.0,33.0,36.0,0.4882812201976776,36.865234375,11.596678733825684,-1.07861328125,0.48681640625,-0.00634765625
3.227,1439,1584,1411,1492,6.0,33.0,36.0,0.4882812201976776,36.865234375,11.596678733825684,-1.0035400390625,0.40380859375,-0.10009765625
3.241,1300,1411,1279,1344,6.0,33.0,36.0,3.295898199081421,43.518062591552734,0.8544921278953552,-0.90087890625,0.26611328125,-0.1221923828125
3.249,1178,1263,1185,1239,6.0,33.0,36.0,6.713866710662842,42.053218841552734,-3.967284917831421,-0.81640625,0.103515625,-0.085205078125
3.257,1078,1145,1107,1156,4.0,36.0,28.0,6.713866710662842,42.053218841552734,-3.967284917831421,-0.763671875,-0.01611328125,-0.0589599609375
3.271,944,989,975,1008,4.0,36.0,28.0,16.41845703125,37.841796875,-5.676269054412842,-0.7276611328125,-0.0830078125,-0.0218505859375
3.280,864,899,912,932,4.0,36.0,28.0,18.61572265625,35.400390625,-2.746581792831421,-0.69287109375,-0.0789794921875,0.026123046875
3.288,803,827,854,873,4.0,36.0,28.0,18.61572265625,35.400390625,-2.746581792831421,-0.6435546875,-0.0074462890625,-0.00048828125
3.301,671,685,767,779,4.0,36.0,28.0,21.362302780151367,31.494138717651367,5.065917491912842,-0.6083984375,0.142822265625,-0.065673828125
3.325,607,617,734,739,4.0,36.0,28.0,17.4560546875,27.648923873901367,11.718749046325684,-0.56005859375,0.3314208984375,-0.0469970703125
3.325,561,566,706,711,4.0,36.0,28.0,17.4560546875,27.648923873901367,11.718749046325684,-0.49267578125,0.4515380859375,0.027587890625
3.331,569,582,705,711,4.0,36.0,28.0,-6.774901866912842,16.54052734375,17.39501953125,-0.475341796875,0.5,0.09326171875
3.342,591,600,713,722,4.0,36.0,28.0,-16.357421875,12.939452171325684,15.136717796325684,-0.5394287109375,0.49462890625,0.144775390625
3.347,603,614,726,739,4.0,36.0,28.0,-16.357421875,12.939452171325684,15.136717796325684,-0.6141357421875,0.423828125,0.1324462890625
3.361,657,673,739,749,4.0,35.0,32.0,-8.48388671875,9.521484375,2.25830078125,-0.6397705078125,0.3148193359375,0.0362548828125
3.369,698,713,750,766,4.0,35.0,32.0,0.4272460639476776,10.070799827575684,-2.50244140625,-0.6448974609375,0.2113037109375,-0.0626220703125
3.378,750,774,793,806,4.0,35.0,32.0,0.4272460639476776,10.070799827575684,-2.50244140625,-0.6634521484375,0.1512451171875,-0.11083984375
3.392,846,884,846,868,4.0,35.0,32.0,6.896972179412842,6.042479991912842,0.7324218153953552,-0.6968994140625,0.1546630859375,-0.1009521484375
3.432,900,935,869,898,4.0,35.0,32.0,3.723144292831421,2.624511480331421,6.408690929412842,-0.7265625,0.1845703125,-0.063232421875
3.433,967,1018,916,942,4.0,35.0,32.0,3.723144292831421,2.624511480331421,6.408690929412842,-0.7440185546875,0.205322265625,-0.0638427734375
3.433,1066,1173,994,1031,4.0,35.0,32.0,-6.347655773162842,-2.44140625,15.808104515075684,-0.7501220703125,0.2322998046875,-0.1077880859375
3.433,1172,1260,1050,1093,4.0,35.0,32.0,-9.33837890625,-6.103515148162842,18.6767578125,-0.7437744140625,0.2725830078125,-0.1337890625
3.445,1236,1335,1117,1172,4.0,35.0,32.0,-9.33837890625,-6.103515148162842,18.6767578125,-0.706298828125,0.2921142578125,-0.0921630859375
3.451,1358,1483,1225,1290,7.0,35.0,34.0,-24.475095748901367,-15.380858421325684,19.53125,-0.6416015625,0.2398681640625,-0.001953125
3.461,1411,1551,1279,1357,7.0,35.0,34.0,-33.87451171875,-14.709471702575684,18.49365234375,-0.6162109375,0.1383056640625,0.07177734375
3.467,1455,1604,1355,1442,7.0,35.0,34.0,-33.87451171875,-14.709471702575684,18.49365234375,-0.6715087890625,0.0745849609375,0.092041015625
3.482,1527,1702,1478,1580,7.0,35.0,34.0,-40.893550872802734,-10.192870140075684,23.071287155151367,-0.7218017578125,0.0714111328125,0.09228515625
3.489,1561,1750,1555,1669,7.0,35.0,34.0,-41.015621185302734,-12.145995140075684,27.343748092651367,-0.70263671875,0.1220703125,0.1141357421875
3.497,1590,1794,1629,1748,7.0,35.0,34.0,-41.015621185302734,-12.145995140075684,27.343748092651367,-0.699462890625,0.2454833984375,0.1878662109375
3.527,1636,1860,1750,1894,7.0,35.0,34.0,-22.216794967651367,-20.935056686401367,24.719236373901367,-0.7669677734375,0.369140625,0.2431640625
3.528,1658,1889,1821,1981,7.0,35.0,34.0,-7.141112804412842,-19.8974609375,18.37158203125,-0.912841796875,0.4393310546875,0.2119140625
3.528,1674,1915,1883,2049,7.0,35.0,34.0,-7.141112804412842,-19.8974609375,18.37158203125,-1.0877685546875,0.492431640625,0.1707763671875
3.544,1695,1953,1949,2120,7.0,35.0,34.0,2.44140625,-13.122557640075684,17.578125,-1.199462890625,0.5389404296875,0.1923828125
3.549,1711,1973,1980,2160,1.0,35.0,31.0,5.981444835662842,-14.648436546325684,22.766111373901367,-1.2850341796875,0.624755859375,0.1265869140625
3.557,1724,1996,2005,2186,1.0,35.0,31.0,5.981444835662842,-14.648436546325684,22.766111373901367,-1.4166259765625,0.804443359375,-0.1500244140625
3.571,1673,1943,2053,2253,1.0,35.0,31.0,23.071287155151367,-7.690429210662842,25.085447311401367,-1.5675048828125,0.916259765625,-0.41015625
3.579,1682,1954,2069,2275,1.0,35.0,31.0,13.000487327575684,1.3427733182907104,20.385740280151367,-1.61328125,0.69091796875,-0.40966796875
3.587,1686,1959,2060,2259,1.0,35.0,31.0,13.000487327575684,1.3427733182907104,20.385740280151367,-1.4925537109375,0.2823486328125,-0.186767578125
3.601,1694,1961,2010,2206,1.0,35.0,31.0,-27.221677780151367,10.253905296325684,15.502928733825684,-1.2200927734375,0.14111328125,0.02734375
3.609,1689,1957,1994,2179,1.0,35.0,31.0,-22.033689498901367,9.033203125,21.545408248901367,-0.9354248046875,0.4134521484375,0.0830078125
3.629,1686,1955,1989,2178,1.0,35.0,31.0,-22.033689498901367,9.033203125,21.545408248901367,-0.8990478515625,0.799072265625,0.01171875
3.631,1676,1937,1989,2172,1.0,35.0,31.0,4.21142578125,7.690429210662842,7.324218273162842,-1.143798828125,0.9334716796875,-0.061767578125
3.640,1670,1929,1967,2150,1.0,35.0,31.0,-0.0610351525247097,11.108397483825684,-8.544921875,-1.4088134765625,0.7796630859375,-0.03955078125
3.648,1658,1907,1936,2114,2.0,35.0,28.0,-0.0610351525247097,11.108397483825684,-8.544921875,-1.4656982421875,0.4969482421875,0.06982421875
3.661,1635,1874,1858,2018,2.0,35.0,28.0,-17.333984375,14.953612327575684,-11.413573265075684,-1.364990234375,0.26171875,0.15625
3.669,1620,1846,1788,1939,2.0,35.0,28.0,-10.742186546325684,17.27294921875,-3.051757574081421,-1.256591796875,0.20751953125,0.1353759765625
3.677,1607,1821,1729,1870,2.0,35.0,28.0,-10.742186546325684,17.27294921875,-3.051757574081421,-1.1842041015625,0.3004150390625,0.0552978515625
3.692,1565,1764,1611,1734,2.0,35.0,28.0,8.4228515625,25.756834030151367,14.099120140075684,-1.135498046875,0.4212646484375,-0.0205078125
3.699,1533,1716,1516,1624,2.0,35.0,28.0,8.4228515625,25.756834030151367,14.099120140075684,-1.0758056640625,0.5045166015625,-0.065185546875
3.708,1512,1681,1416,1512,2.0,35.0,28.0,9.94873046875,30.334470748901367,18.6767578125,-1.0758056640625,0.5045166015625,-0.065185546875
3.733,1456,1603,1260,1335,2.0,35.0,28.0,6.591796398162842,37.41455078125,18.85986328125,-0.847900390625,0.4967041015625,-0.1097412109375
3.733,1417,1561,1178,1243,2.0,35.0,28.0,6.591796398162842,37.41455078125,18.85986328125,-0.7581787109375,0.47509765625,-0.1005859375
3.737,1411,1533,1117,1170,2.0,35.0,28.0,4.69970703125,39.1845703125,15.258788108825684,-0.7581787109375,0.47509765625,-0.1005859375
3.752,1315,1422,977,1017,2.0,38.0,28.0,4.39453125,43.029781341552734,1.5258787870407104,-0.666259765625,0.385498046875,-0.0439453125
3.759,1255,1341,885,918,2.0,38.0,28.0,4.39453125,43.029781341552734,1.5258787870407104,-0.63818359375,0.333251953125,-0.0548095703125
3.768,1173,1246,855,877,2.0,38.0,28.0,3.173827886581421,44.189449310302734,-3.845214605331421,-0.63818359375,0.333251953125,-0.0548095703125
3.781,1035,1083,778,794,2.0,38.0,28.0,8.48388671875,42.724605560302734,-5.371093273162842,-0.5567626953125,0.263427734375,-0.1961669921875
3.790,969,1011,751,769,2.0,38.0,28.0,8.48388671875,42.724605560302734,-5.371093273162842,-0.59423828125,0.2608642578125,-0.1427001953125
3.800,913,948,739,751,2.0,38.0,28.0,11.413573265075684,38.14697265625,-6.835937023162842,-0.59423828125,0.2608642578125,-0.1427001953125
3.812,816,837,696,702,2.0,38.0,28.0,-2.990722417831421,23.437498092651367,-11.352538108825684,-0.6778564453125,0.249267578125,0.0633544921875
3.840,793,816,688,696,2.0,38.0,28.0,-2.990722417831421,23.437498092651367,-11.352538108825684,-0.6475830078125,0.23193359375,0.1153564453125
3.840,787,809,667,682,2.0,38.0,28.0,-8.48388671875,20.141599655151367,-9.521484375,-0.6475830078125,0.23193359375,0.1153564453125
3.842,790,788,669,675,2.0,38.0,28.0,0.7324218153953552,19.287109375,-4.33349609375,-0.6549072265625,0.247802734375,0.07080078125
3.851,819,846,679,685,1.0,39.0,22.0,0.7324218153953552,19.287109375,-4.33349609375,-0.6710205078125,0.2906494140625,0.0281982421875
3.857,858,890,691,702,1.0,39.0,22.0,6.713866710662842,17.15087890625,-1.2817381620407104,-0.6710205078125,0.2906494140625,0.0281982421875
3.871,928,963,696,708,1.0,39.0,22.0,9.21630859375,10.314940452575684,2.929687261581421,-0.7529296875,0.35107421875,-0.0797119140625
3.880,977,1018,708,724,1.0,39.0,22.0,9.21630859375,10.314940452575684,2.929687261581421,-0.7645263671875,0.3194580078125,-0.11962890625
3.887,1017,1064,724,745,1.0,39.0,22.0,7.751464366912842,7.324218273162842,3.112792730331421,-0.7645263671875,0.3194580078125,-0.11962890625
3.901,1091,1151,767,792,1.0,39.0,22.0,0.7934569716453552,5.187987804412842,6.774901866912842,-0.704345703125,0.2359619140625,-0.1483154296875
3.912,1155,1232,794,818,1.0,39.0,22.0,0.7934569716453552,5.187987804412842,6.774901866912842,-0.6929931640625,0.2681884765625,-0.1383056640625
3.917,1199,1278,828,855,1.0,39.0,22.0,-3.723144292831421,2.197265625,10.864256858825684,-0.6929931640625,0.2681884765625,-0.1383056640625
3.944,1280,1375,909,944,1.0,39.0,22.0,-6.530761241912842,-9.33837890625,13.854979515075684,-0.6607666015625,0.40087890625,-0.1328125
3.946,1316,1424,1005,1053,1.0,39.0,22.0,-6.530761241912842,-9.33837890625,13.854979515075684,-0.6285400390625,0.3948974609375,-0.0750732421875
3.947,1351,1469,1074,1130,3.0,37.0,24.0,-11.413573265075684,-15.624999046325684,9.82666015625,-0.6285400390625,0.3948974609375,-0.0750732421875
3.961,1424,1565,1213,1280,3.0,37.0,24.0,-27.770994186401367,-13.854979515075684,0.0610351525247097,-0.6353759765625,0.212646484375,0.00146484375
3.969,1469,1617,1274,1357,3.0,37.0,24.0,-27.770994186401367,-13.854979515075684,0.0610351525247097,-0.64697265625,0.1103515625,-0.046875
3.977,1506,1670,1353,1443,3.0,37.0,24.0,-33.935546875,-8.97216796875,-0.3662109076976776,-0.64697265625,0.1103515625,-0.046875
3.993,1552,1735,1503,1611,3.0,37.0,24.0,-25.268552780151367,-18.73779296875,5.310058116912842,-0.63623046875,0.2222900390625,-0.0340576171875
3.999,1599,1798,1561,1681,3.0,37.0,24.0,-25.268552780151367,-18.73779296875,5.310058116912842,-0.700927734375,0.354248046875,0.0819091796875
4.007,1630,1846,1627,1750,3.0,37.0,24.0,-13.732909202575684,-32.5927734375,4.39453125,-0.700927734375,0.354248046875,0.0819091796875
4.046,1683,1918,1697,1837,3.0,37.0,24.0,0.4272460639476776,-34.423828125,2.807616949081421,-1.0386962890625,0.5753173828125,0.0816650390625
4.047,1703,1949,1741,1891,3.0,37.0,24.0,0.4272460639476776,-34.423828125,2.807616949081421,-1.1351318359375,0.6337890625,-0.02978515625
4.048,1725,1980,1772,1920,3.0,37.0,24.0,1.220703125,-19.4091796875,10.864256858825684,-1.1351318359375,0.6337890625,-0.02978515625
4.051,1755,2018,1825,1991,2.0,36.0,31.0,-3.479003667831421,-3.601073980331421,21.972654342651367,-1.193359375,0.5538330078125,-0.1544189453125
4.059,1714,1969,1860,2034,2.0,36.0,31.0,-3.479003667831421,-3.601073980331421,21.972654342651367,-1.2540283203125,0.6177978515625,-0.200439453125
4.067,1721,1989,1890,2062,2.0,36.0,31.0,1.6479490995407104,-5.920409679412842,18.98193359375,-1.2540283203125,0.6177978515625,-0.200439453125
4.081,1725,1999,1927,2100,2.0,36.0,31.0,1.2817381620407104,-8.72802734375,7.446288585662842,-1.3944091796875,0.7625732421875,-0.2222900390625
4.089,1730,2010,1937,2115,2.0,36.0,31.0,1.2817381620407104,-8.72802734375,7.446288585662842,-1.387939453125,0.6297607421875,-0.1517333984375
4.097,1730,2009,1920,2098,2.0,36.0,31.0,-8.48388671875,-4.21142578125,2.868652105331421,-1.387939453125,0.6297607421875,-0.1517333984375
4.111,1727,2005,1886,2060,2.0,36.0,31.0,-7.141112804412842,0.2441406100988388,1.9531248807907104,-1.044189453125,0.3741455078125,-0.0311279296875
4.119,1727,2000,1900,2072,2.0,36.0,31.0,-7.141112804412842,0.2441406100988388,1.9531248807907104,-0.926513671875,0.5347900390625,-0.083251953125
4.141,1715,1987,1911,2082,2.0,36.0,31.0,5.798339366912842,-1.220703125,2.13623046875,-0.926513671875,0.5347900390625,-0.083251953125
4.141,1684,1949,1914,2089,1.0,38.0,29.0,4.94384765625,-1.2817381620407104,-8.85009765625,-1.3533935546875,0.84228515625,-0.150634765625
4.150,1662,1914,1912,2078,1.0,38.0,29.0,4.94384765625,-1.2817381620407104,-8.85009765625,-1.4769287109375,0.6529541015625,-0.0643310546875
4.158,1641,1886,1886,2049,1.0,38.0,29.0,-6.835937023162842,2.01416015625,-14.831542015075684,-1.4769287109375,0.6529541015625,-0.0643310546875
4.171,1605,1834,1810,1959,1.0,38.0,29.0,-11.291502952575684,7.080077648162842,-10.253905296325684,-1.265869140625,0.3306884765625,0.0843505859375
4.179,1582,1803,1738,1875,1.0,38.0,29.0,-11.291502952575684,7.080077648162842,-10.253905296325684,-1.1337890625,0.388916015625,0.0281982421875
4.187,1549,1750,1669,1795,1.0,38.0,29.0,-0.9155272841453552,9.82666015625,-3.601073980331421,-1.1337890625,0.388916015625,0.0281982421875
4.201,1492,1671,1573,1686,1.0,38.0,29.0,9.6435546875,14.648436546325684,1.5869139432907104,-0.9857177734375,0.5413818359375,-0.134033203125
4.209,1463,1630,1519,1620,1.0,38.0,29.0,16.6015625,20.01953125,3.723144292831421,-0.9857177734375,0.5413818359375,-0.134033203125
4.221,1419,1577,1452,1547,1.0,38.0,29.0,18.00537109375,23.071287155151367,3.234863042831421,-0.9342041015625,0.5675048828125,-0.156005859375
4.245,1344,1471,1300,1374,1.0,38.0,29.0,13.732909202575684,23.864744186401367,1.15966796875,-0.82958984375,0.4736328125,-0.11669921875
4.245,1300,1413,1213,1274,1.0,38.0,28.0,8.30078125,25.085447311401367,-1.7089842557907104,-0.82958984375,0.4736328125,-0.11669921875
4.247,1234,1336,1118,1172,1.0,38.0,28.0,6.774901866912842,28.076169967651367,-4.0283203125,-0.715087890625,0.395263671875,-0.1005859375
4.262,1101,1160,985,1022,1.0,38.0,28.0,9.94873046875,30.822751998901367,-5.249022960662842,-0.52099609375,0.29248046875,-0.145263671875
4.269,994,1043,936,963,1.0,38.0,28.0,16.4794921875,32.89794921875,-6.469726085662842,-0.52099609375,0.29248046875,-0.145263671875
4.277,939,982,901,923,1.0,38.0,28.0,26.428220748901367,35.21728515625,-7.446288585662842,-0.499755859375,0.2554931640625,-0.202880859375
4.291,869,909,861,877,1.0,38.0,28.0,34.0576171875,32.71484375,-9.765625,-0.57373046875,0.1968994140625,0.0107421875
4.300,834,865,830,847,1.0,38.0,28.0,30.944822311401367,22.827146530151367,-16.05224609375,-0.57373046875,0.1968994140625,0.0107421875
4.308,818,843,822,837,1.0,38.0,28.0,19.287109375,12.207030296325684,-22.460935592651367,-0.6158447265625,0.1724853515625,0.067626953125
4.322,815,845,822,838,1.0,38.0,28.0,9.1552734375,6.103515148162842,-23.559568405151367,-0.62255859375,0.2786865234375,0.0634765625
4.347,823,854,827,846,1.0,38.0,28.0,5.310058116912842,3.784179449081421,-20.324705123901367,-0.62255859375,0.2786865234375,0.0634765625
4.348,844,873,827,846,2.0,37.0,30.0,6.958007335662842,3.112792730331421,-16.54052734375,-0.67529296875,0.3348388671875,0.0283203125
4.351,889,928,835,858,2.0,37.0,30.0,11.901854515075684,2.990722417831421,-13.610838890075684,-0.7716064453125,0.2777099609375,-0.1175537109375
4.365,927,964,837,861,2.0,37.0,30.0,14.587401390075684,2.685546636581421,-10.620116233825684,-0.7716064453125,0.2777099609375,-0.1175537109375
4.368,953,996,854,873,2.0,37.0,30.0,11.901854515075684,0.8544921278953552,-7.019042491912842,-0.7886962890625,0.2655029296875,-0.1650390625
4.381,996,1050,883,907,2.0,37.0,30.0,6.347655773162842,-2.44140625,-3.417968511581421,-0.7626953125,0.279541015625,-0.1417236328125
4.389,1022,1078,889,917,2.0,37.0,30.0,0.9765624403953552,-5.554198741912842,-0.54931640625,-0.7626953125,0.279541015625,-0.1417236328125
4.397,1050,1105,922,953,2.0,37.0,30.0,-2.807616949081421,-7.629394054412842,1.8310545682907104,-0.7825927734375,0.3026123046875,-0.1300048828125
4.411,1117,1185,990,1024,2.0,37.0,30.0,-5.371093273162842,-8.23974609375,4.0283203125,-0.8033447265625,0.336181640625,-0.093017578125
4.428,1178,1260,1025,1069,2.0,37.0,30.0,-8.9111328125,-7.141112804412842,5.798339366912842,-0.8033447265625,0.336181640625,-0.093017578125
4.452,1234,1330,1064,1115,2.0,37.0,30.0,-14.892577171325684,-5.126952648162842,7.629394054412842,-0.7637939453125,0.3199462890625,-0.07861328125
4.453,1315,1427,1151,1206,2.0,38.0,26.0,-22.460935592651367,-5.0048828125,9.27734375,-0.6923828125,0.2921142578125,-0.087158203125
4.453,1353,1469,1201,1261,2.0,38.0,26.0,-27.526853561401367,-8.72802734375,9.521484375,-0.6923828125,0.2921142578125,-0.087158203125
4.458,1395,1531,1237,1309,2.0,38.0,26.0,-27.099607467651367,-15.563963890075684,7.934569835662842,-0.6851806640625,0.2840576171875,-0.1085205078125
4.475,1460,1613,1344,1426,2.0,38.0,26.0,-23.071287155151367,-23.437498092651367,5.065917491912842,-0.6929931640625,0.2454833984375,-0.0692138671875
4.479,1503,1671,1409,1504,2.0,38.0,26.0,-19.71435546875,-29.785154342651367,2.3193359375,-0.6929931640625,0.2454833984375,-0.0692138671875
4.487,1546,1722,1466,1572,2.0,38.0,26.0,-19.47021484375,-31.799314498901367,1.8310545682907104,-0.6593017578125,0.1728515625,-0.02197265625
4.501,1616,1825,1574,1684,2.0,38.0,26.0,-19.6533203125,-30.395505905151367,4.69970703125,-0.6090087890625,0.21533203125,-0.004150390625
4.509,1662,1889,1636,1766,2.0,38.0,26.0,-16.90673828125,-30.639646530151367,9.58251953125,-0.6090087890625,0.21533203125,-0.004150390625
4.517,1689,1927,1700,1834,2.0,38.0,26.0,-12.695311546325684,-34.66796875,13.977049827575684,-0.6510009765625,0.421875,-0.0562744140625
4.531,1738,1996,1798,1951,2.0,40.0,26.0,-7.934569835662842,-38.14697265625,14.465331077575684,-0.8641357421875,0.7403564453125,-0.0853271484375
4.557,1762,2035,1850,2014,2.0,40.0,26.0,-3.540038824081421,-36.07177734375,9.33837890625,-0.8641357421875,0.7403564453125,-0.0853271484375
4.557,1777,2009,1886,2058,2.0,40.0,26.0,-3.173827886581421,-29.235837936401367,1.2817381620407104,-1.0174560546875,0.7003173828125,-0.0831298828125
4.561,1795,2082,1955,2139,2.0,40.0,26.0,-8.72802734375,-22.460935592651367,-4.5166015625,-1.31787109375,0.466796875,-0.036865234375
4.577,1805,2102,1985,2172,2.0,40.0,26.0,-16.29638671875,-19.47021484375,-5.126952648162842,-1.31787109375,0.466796875,-0.036865234375
4.577,1816,2117,2009,2203,2.0,40.0,26.0,-21.911619186401367,-20.080564498901367,-0.8544921278953552,-1.4656982421875,0.48486328125,-0.026611328125
4.591,1833,2143,2028,2233,2.0,40.0,26.0,-23.925779342651367,-20.568845748901367,5.249022960662842,-1.5316162109375,0.60791015625,0.0068359375
4.599,1837,2147,2023,2218,2.0,40.0,26.0,-20.874021530151367,-17.578125,9.94873046875,-1.5316162109375,0.60791015625,0.0068359375
4.607,1842,2155,2002,2195,2.0,40.0,26.0,-13.549803733825684,-10.498045921325684,11.596678733825684,-1.3270263671875,0.4945068359375,0.0428466796875
4.622,1843,2152,1983,2168,2.0,40.0,26.0,-2.38037109375,-2.197265625,10.253905296325684,-0.8916015625,0.52783203125,-0.0594482421875
4.629,1837,2146,1996,2178,4.0,37.0,25.0,8.85009765625,2.01416015625,7.507323741912842,-0.8916015625,0.52783203125,-0.0594482421875
4.653,1830,2130,2002,2192,4.0,37.0,25.0,13.427733421325684,1.7700194120407104,2.25830078125,-1.0469970703125,0.7864990234375,-0.1683349609375
4.654,1810,2106,1971,2155,4.0,37.0,25.0,8.48388671875,1.4038084745407104,-6.164550304412842,-1.4735107421875,0.697998046875,-0.113037109375
4.660,1795,2087,1949,2127,4.0,37.0,25.0,-4.21142578125,1.8920897245407104,-13.122557640075684,-1.4735107421875,0.697998046875,-0.113037109375
4.670,1778,2056,1900,2069,4.0,37.0,25.0,-15.136717796325684,1.8920897245407104,-13.549803733825684,-1.4071044921875,0.423095703125,0.0474853515625
4.682,1739,2005,1807,1957,4.0,37.0,25.0,-15.014647483825684,2.624511480331421,-7.507323741912842,-1.1002197265625,0.311767578125,0.0999755859375
4.689,1723,1968,1724,1865,4.0,37.0,25.0,-6.164550304412842,5.859374523162842,1.15966796875,-1.1002197265625,0.311767578125,0.0999755859375
4.697,1695,1929,1649,1779,4.0,37.0,25.0,2.624511480331421,10.253905296325684,7.385253429412842,-1.0111083984375,0.4049072265625,0.0291748046875
4.712,1640,1846,1526,1632,4.0,37.0,25.0,9.1552734375,13.488768577575684,8.056640625,-0.9561767578125,0.491943359375,-0.040283203125
4.719,1604,1798,1470,1569,4.0,37.0,25.0,15.747069358825684,15.136717796325684,3.234863042831421,-0.924072265625,0.550537109375,-0.10400390625
4.728,1557,1734,1395,1481,4.0,36.0,26.0,20.01953125,15.808104515075684,-3.479003667831421,-0.9267578125,0.5831298828125,-0.1468505859375
4.758,1466,1613,1262,1335,4.0,36.0,26.0,18.24951171875,16.7236328125,-8.36181640625,-0.93212890625,0.548095703125,-0.152099609375
4.759,1411,1533,1173,1225,4.0,36.0,26.0,13.244627952575684,18.4326171875,-10.131834983825684,-0.8883056640625,0.4510498046875,-0.1434326171875
4.760,1306,1449,1085,1131,4.0,36.0,26.0,11.169432640075684,21.057126998901367,-9.3994140625,-0.7998046875,0.368408203125,-0.138427734375
4.773,1185,1262,957,989,4.0,36.0,26.0,13.366698265075684,22.949216842651367,-7.812499523162842,-0.709716796875,0.3192138671875,-0.125244140625
4.781,1070,1117,888,916,4.0,36.0,26.0,17.08984375,23.376462936401367,-7.202147960662842,-0.6446533203125,0.2615966796875,-0.145263671875
4.797,996,1039,846,867,4.0,36.0,26.0,21.728513717651367,23.559568405151367,-7.568358898162842,-0.608642578125,0.2176513671875,-0.1668701171875
4.801,835,889,787,809,4.0,36.0,26.0,25.634763717651367,21.545408248901367,-10.070799827575684,-0.5859375,0.190673828125,-0.095703125
4.811,779,802,750,765,4.0,36.0,26.0,21.667478561401367,15.624999046325684,-15.563963890075684,-0.60791015625,0.1737060546875,0.0279541015625
4.818,726,744,725,740,4.0,36.0,26.0,8.97216796875,8.97216796875,-20.01953125,-0.654296875,0.17333984375,0.1171875
4.833,693,707,696,710,3.0,38.0,25.0,-1.2817381620407104,5.798339366912842,-18.798828125,-0.648193359375,0.1744384765625,0.1290283203125
4.858,679,692,698,710,3.0,38.0,25.0,-2.990722417831421,6.103515148162842,-12.145995140075684,-0.6334228515625,0.2176513671875,0.0826416015625
4.858,684,702,694,705,3.0,38.0,25.0,-0.1220703050494194,5.737304210662842,-3.479003667831421,-0.645751953125,0.29248046875,0.0377197265625
4.862,736,756,706,718,3.0,38.0,25.0,3.356933355331421,3.845214605331421,3.662109136581421,-0.6575927734375,0.34619140625,-0.00048828125
4.871,754,780,724,739,3.0,38.0,25.0,5.187987804412842,2.3193359375,7.141112804412842,-0.6756591796875,0.3883056640625,-0.033935546875
4.878,793,814,739,750,3.0,38.0,25.0,4.21142578125,1.03759765625,6.530761241912842,-0.71142578125,0.42578125,-0.03369140625
4.901,843,873,754,766,3.0,38.0,25.0,2.38037109375,0.2441406100988388,2.929687261581421,-0.729248046875,0.4127197265625,-0.010986328125
4.902,888,923,777,794,3.0,38.0,25.0,2.0751953125,1.220703125,-0.8544921278953552,-0.708984375,0.33642578125,-0.026123046875
4.908,955,999,801,819,3.0,38.0,25.0,2.25830078125,2.13623046875,-1.8310545682907104,-0.6890869140625,0.2698974609375,-0.0792236328125
4.922,1043,1097,841,864,3.0,38.0,25.0,1.2817381620407104,-0.2441406100988388,0.30517578125,-0.7042236328125,0.2701416015625,-0.1279296875
4.929,1097,1160,875,907,2.0,38.0,26.0,0.2441406100988388,-5.493163585662842,3.356933355331421,-0.7320556640625,0.320556640625,-0.163818359375
4.937,1160,1236,913,944,2.0,38.0,26.0,-2.197265625,-10.437010765075684,5.615233898162842,-0.7279052734375,0.3662109375,-0.182373046875
4.966,1264,1365,1024,1071,2.0,38.0,26.0,-8.1787109375,-14.038084983825684,6.713866710662842,-0.7056884765625,0.37646484375,-0.1864013671875
4.966,1318,1427,1097,1151,2.0,38.0,26.0,-17.39501953125,-18.1884765625,6.652831554412842,-0.6878662109375,0.3624267578125,-0.144775390625
4.968,1362,1492,1167,1225,2.0,38.0,26.0,-27.343748092651367,-23.559568405151367,4.8828125,-0.6744384765625,0.3380126953125,-0.0421142578125
4.980,1437,1573,1260,1335,2.0,38.0,26.0,-34.24072265625,-27.099607467651367,0.9155272841453552,-0.668212890625,0.299072265625,0.040771484375
4.988,1481,1632,1321,1402,2.0,38.0,26.0,-33.447265625,-26.367185592651367,-4.69970703125,-0.6650390625,0.2608642578125,0.026123046875
5.011,1523,1689,1416,1516,2.0,38.0,26.0,-24.719236373901367,-25.207517623901367,-9.033203125,-0.66845703125,0.277099609375,-0.0130615234375
5.011,1579,1773,1548,1662,2.0,38.0,26.0,-14.526366233825684,-28.869626998901367,-11.047362327575684,-0.6783447265625,0.3162841796875,0.00537109375
5.019,1611,1828,1634,1763,2.0,38.0,26.0,-9.33837890625,-35.0341796875,-11.474608421325684,-0.6990966796875,0.3123779296875,0.0408935546875
5.026,1660,1886,1700,1837,5.0,37.0,29.0,-9.82666015625,-38.39111328125,-9.82666015625,-0.740966796875,0.2950439453125,0.0869140625
5.040,1709,1960,1843,2007,5.0,37.0,29.0,-11.047362327575684,-37.7197265625,-7.507323741912842,-0.8092041015625,0.2900390625,0.1455078125
5.062,1734,1996,1911,2089,5.0,37.0,29.0,-9.521484375,-34.85107421875,-6.652831554412842,-0.8974609375,0.335205078125,0.1688232421875
5.063,1742,2018,1981,2166,5.0,37.0,29.0,-5.554198741912842,-31.860349655151367,-6.835937023162842,-1.009521484375,0.43359375,0.162841796875
5.070,1769,2057,2057,2257,5.0,37.0,29.0,0.6713866591453552,-29.418943405151367,-7.385253429412842,-1.125,0.529296875,0.10693359375
5.079,1785,2087,2096,2308,5.0,37.0,29.0,7.812499523162842,-25.207517623901367,-7.080077648162842,-1.269775390625,0.6304931640625,-0.0880126953125
5.086,1806,2108,2122,2340,5.0,37.0,29.0,10.620116233825684,-18.4326171875,-4.33349609375,-1.4776611328125,0.716552734375,-0.309814453125
5.100,1820,2141,2168,2392,5.0,37.0,29.0,2.50244140625,-13.671874046325684,-0.0610351525247097,-1.621826171875,0.63330078125,-0.339599609375
5.109,1833,2151,2180,2404,5.0,37.0,29.0,-13.000487327575684,-14.709471702575684,2.868652105331421,-1.563232421875,0.3580322265625,-0.1368408203125
5.120,1834,2164,2180,2404,5.0,37.0,29.0,-21.484373092651367,-19.47021484375,5.310058116912842,-1.3670654296875,0.1878662109375,0.09912109375
5.130,1837,2160,2156,2375,2.0,39.0,28.0,-13.732909202575684,-21.057126998901367,9.765625,-1.143310546875,0.3531494140625,0.158935546875
5.141,1833,2149,2134,2345,2.0,39.0,28.0,2.929687261581421,-15.624999046325684,12.756346702575684,-0.9454345703125,0.6693115234375,0.0618896484375
5.146,1824,2142,2141,2352,2.0,39.0,28.0,13.305663108825684,-6.591796398162842,7.202147960662842,-0.878662109375,0.8359375,-0.0400390625
5.166,1807,2121,2142,2352,2.0,39.0,28.0,11.596678733825684,1.6479490995407104,-6.774901866912842,-1.0419921875,0.8018798828125,-0.0697021484375
5.168,1795,2102,2126,2333,2.0,39.0,28.0,0.9765624403953552,7.202147960662842,-20.507810592651367,-1.3427734375,0.6669921875,-0.030517578125
5.177,1778,2072,2105,2308,2.0,39.0,28.0,-12.878417015075684,9.521484375,-25.085447311401367,-1.519775390625,0.4832763671875,0.0670166015625
5.190,1748,2037,2045,2233,2.0,39.0,28.0,-20.568845748901367,9.521484375,-19.4091796875,-1.475830078125,0.3004150390625,0.1727294921875
5.198,1738,2015,1981,2157,2.0,39.0,28.0,-15.808104515075684,10.009765625,-8.60595703125,-1.3238525390625,0.23046875,0.218017578125
5.206,1716,1983,1904,2061,2.0,39.0,28.0,-3.662109136581421,13.488768577575684,2.746581792831421,-1.1832275390625,0.2822265625,0.1663818359375
5.220,1676,1913,1773,1907,2.0,35.0,27.0,6.774901866912842,19.6533203125,11.657713890075684,-1.0863037109375,0.3665771484375,0.0584716796875
5.233,1646,1874,1683,1816,2.0,35.0,27.0,12.145995140075684,26.000974655151367,16.05224609375,-1.0198974609375,0.4521484375,-0.03857421875
5.237,1613,1820,1613,1729,2.0,35.0,27.0,13.305663108825684,30.456541061401367,15.380858421325684,-0.9720458984375,0.5205078125,-0.097900390625
5.268,1518,1687,1484,1580,2.0,35.0,27.0,11.718749046325684,33.5693359375,11.474608421325684,-0.9224853515625,0.517578125,-0.1217041015625
5.269,1472,1630,1397,1478,2.0,35.0,27.0,8.72802734375,36.80419921875,7.629394054412842,-0.868408203125,0.4443359375,-0.111572265625
5.272,1375,1503,1264,1340,2.0,35.0,27.0,7.324218273162842,40.405269622802734,5.676269054412842,-0.8135986328125,0.3507080078125,-0.0904541015625
5.281,1308,1415,1182,1234,2.0,35.0,27.0,10.070799827575684,43.273921966552734,5.310058116912842,-0.750732421875,0.251220703125,-0.0716552734375
5.288,1207,1289,1083,1129,2.0,35.0,27.0,14.160155296325684,43.579097747802734,5.249022960662842,-0.68896484375,0.1640625,-0.035400390625
5.296,1132,1199,1018,1053,2.0,35.0,27.0,16.41845703125,40.649410247802734,4.82177734375,-0.614501953125,0.089599609375,0.00244140625
5.310,1050,1104,925,952,2.0,35.0,27.0,19.71435546875,36.56005859375,4.150390625,-0.535888671875,0.05224609375,-0.003662109375
5.323,982,1029,882,906,1.0,37.0,31.0,25.329587936401367,32.89794921875,4.0283203125,-0.5172119140625,0.123779296875,-0.0465087890625
5.327,928,964,854,873,1.0,37.0,31.0,29.541013717651367,29.235837936401367,3.845214605331421,-0.558837890625,0.266357421875,-0.084228515625
5.347,888,928,830,846,1.0,37.0,31.0,26.916501998901367,24.902341842651367,4.150390625,-0.59130859375,0.396484375,-0.0745849609375
5.348,899,936,824,846,1.0,37.0,31.0,15.014647483825684,19.287109375,5.920409679412842,-0.5819091796875,0.469482421875,0.0029296875
5.371,932,976,837,860,1.0,37.0,31.0,1.5258787870407104,12.634276390075684,5.859374523162842,-0.564208984375,0.4488525390625,0.0814208984375
5.372,963,1008,848,873,1.0,37.0,31.0,-3.173827886581421,7.934569835662842,2.25830078125,-0.5885009765625,0.3846435546875,0.0762939453125
5.379,976,1022,861,884,1.0,37.0,31.0,1.4038084745407104,6.347655773162842,-2.01416015625,-0.665771484375,0.364990234375,0.0032958984375
5.388,999,1048,882,907,1.0,37.0,31.0,8.6669921875,5.920409679412842,-4.08935546875,-0.73828125,0.36376953125,-0.0780029296875
5.400,1064,1127,916,943,1.0,37.0,31.0,12.451170921325684,5.432128429412842,-3.601073980331421,-0.75537109375,0.328857421875,-0.1268310546875
5.408,1104,1178,936,966,1.0,37.0,31.0,9.521484375,4.69970703125,-0.9155272841453552,-0.7493896484375,0.278076171875,-0.1265869140625
5.416,1145,1222,963,996,1.0,38.0,28.0,2.38037109375,3.356933355331421,3.356933355331421,-0.7569580078125,0.2562255859375,-0.106201171875
5.446,1213,1305,1031,1074,1.0,38.0,28.0,-3.906249761581421,1.6479490995407104,7.507323741912842,-0.774169921875,0.2779541015625,-0.1048583984375
5.455,1266,1369,1085,1138,1.0,38.0,28.0,-8.97216796875,-0.3662109076976776,10.131834983825684,-0.77783203125,0.3145751953125,-0.1146240234375
5.459,1300,1404,1125,1182,1.0,38.0,28.0,-15.258788108825684,-3.234863042831421,10.803221702575684,-0.7650146484375,0.3360595703125,-0.1090087890625
5.481,1370,1494,1206,1274,1.0,38.0,28.0,-21.667478561401367,-7.080077648162842,10.070799827575684,-0.7606201171875,0.3349609375,-0.0902099609375
5.486,1417,1552,1246,1315,1.0,38.0,28.0,-25.573728561401367,-10.925292015075684,8.60595703125,-0.783203125,0.317626953125,-0.0687255859375
5.495,1485,1641,1305,1386,1.0,38.0,28.0,-27.404783248901367,-13.671874046325684,7.385253429412842,-0.8035888671875,0.292236328125,-0.0533447265625
5.496,1523,1689,1349,1435,1.0,38.0,28.0,-28.137205123901367,-14.831542015075684,7.690429210662842,-0.7742919921875,0.2730712890625,-0.05029296875
5.500,1552,1730,1401,1492,1.0,38.0,28.0,-26.428220748901367,-15.747069358825684,8.85009765625,-0.7166748046875,0.2890625,-0.0462646484375
5.513,1605,1805,1485,1591,3.0,37.0,26.0,-20.446775436401367,-18.73779296875,8.36181640625,-0.6898193359375,0.35400390625,-0.0233154296875
5.521,1635,1842,1552,1669,3.0,37.0,26.0,-14.404295921325684,-23.254392623901367,5.371093273162842,-0.68798828125,0.40625,0.0250244140625
5.543,1669,1892,1617,1739,3.0,37.0,26.0,-13.061522483825684,-25.756834030151367,1.4038084745407104,-0.68310546875,0.364990234375,0.078369140625
5.545,1714,1960,1711,1852,3.0,37.0,26.0,-12.023924827575684,-24.841306686401367,-1.15966796875,-0.694580078125,0.2886962890625,0.08203125
5.578,1750,2010,1778,1929,3.0,37.0,26.0,-7.141112804412842,-23.132322311401367,0.0,-0.721923828125,0.2874755859375,0.0677490234375
5.601,1778,2052,1837,1996,3.0,37.0,26.0,-0.4882812201976776,-23.315427780151367,3.540038824081421,-0.7689208984375,0.3643798828125,0.0458984375
5.604,1798,2082,1884,2049,3.0,37.0,26.0,6.103515148162842,-24.108884811401367,6.835937023162842,-0.867431640625,0.5296630859375,-0.0660400390625
5.605,1825,2122,1954,2142,3.0,37.0,26.0,9.1552734375,-24.108884811401367,7.568358898162842,-1.017822265625,0.7353515625,-0.2379150390625
5.607,1833,2142,2005,2195,3.0,37.0,26.0,6.225585460662842,-23.010251998901367,2.685546636581421,-1.153076171875,0.8187255859375,-0.3184814453125
5.607,1742,2028,1991,2235,3.0,37.0,26.0,-2.197265625,-21.606443405151367,-6.530761241912842,-1.2515869140625,0.7813720703125,-0.2459716796875
5.612,1738,2028,2102,2309,1.0,36.0,27.0,-17.578125,-20.690916061401367,-14.221190452575684,-1.358642578125,0.700927734375,-0.100341796875
5.630,1738,2035,2119,2330,1.0,36.0,27.0,-34.24072265625,-19.47021484375,-16.7236328125,-1.48681640625,0.5751953125,0.0135498046875
5.632,1738,2028,2116,2321,1.0,36.0,27.0,-37.90283203125,-17.88330078125,-15.319823265075684,-1.5794677734375,0.453369140625,0.055908203125
5.642,1738,2037,2096,2302,1.0,36.0,27.0,-23.193357467651367,-15.991209983825684,-12.817381858825684,-1.4268798828125,0.3309326171875,0.0675048828125
5.653,1738,2037,2107,2312,1.0,36.0,27.0,0.6103515625,-12.756346702575684,-10.559081077575684,-1.1240234375,0.318115234375,0.047607421875
5.661,1733,2024,2102,2306,1.0,36.0,27.0,16.29638671875,-8.85009765625,-8.9111328125,-1.130859375,0.6038818359375,0.007568359375
5.688,1722,2009,2060,2254,1.0,36.0,27.0,15.136717796325684,-4.94384765625,-10.009765625,-1.423095703125,0.8775634765625,-0.006591796875
5.688,1721,1997,2024,2207,1.0,36.0,27.0,5.249022960662842,0.2441406100988388,-14.221190452575684,-1.589111328125,0.7886962890625,0.020751953125
5.689,1713,1993,1969,2135,1.0,36.0,27.0,-2.746581792831421,5.310058116912842,-16.78466796875,-1.500732421875,0.5218505859375,0.0938720703125
5.701,1666,1914,1846,1996,1.0,36.0,27.0,-4.45556640625,7.751464366912842,-14.099120140075684,-1.3038330078125,0.3427734375,0.1441650390625
5.709,1640,1877,1778,1907,4.0,37.0,26.0,1.7089842557907104,10.375975608825684,-7.812499523162842,-1.1517333984375,0.2919921875,0.089599609375
5.717,1617,1838,1697,1824,4.0,37.0,26.0,13.977049827575684,15.258788108825684,-1.4038084745407104,-1.066650390625,0.337158203125,-0.0323486328125
5.731,1620,1842,1552,1656,4.0,37.0,26.0,23.620603561401367,20.141599655151367,3.173827886581421,-0.990966796875,0.4166259765625,-0.124267578125
5.739,1442,1605,1466,1552,4.0,37.0,26.0,24.353025436401367,23.437498092651367,5.0048828125,-0.8927001953125,0.463623046875,-0.151611328125
5.747,1388,1535,1381,1457,4.0,37.0,26.0,20.385740280151367,27.160642623901367,4.08935546875,-0.7845458984375,0.4677734375,-0.153564453125
5.810,1278,1396,1254,1309,4.0,37.0,26.0,17.51708984375,32.470703125,0.3662109076976776,-0.6856689453125,0.4217529296875,-0.14990234375
5.810,1191,1282,1159,1209,4.0,37.0,26.0,15.808104515075684,36.865234375,-5.493163585662842,-0.6317138671875,0.3240966796875,-0.121826171875
5.811,1078,1147,1083,1117,4.0,37.0,26.0,15.808104515075684,36.865234375,-5.493163585662842,-0.628662109375,0.2164306640625,-0.108642578125
5.812,929,971,963,982,4.0,37.0,26.0,17.15087890625,36.2548828125,-15.258788108825684,-0.6285400390625,0.16015625,-0.1524658203125
5.812,835,861,907,929,4.0,37.0,26.0,21.728513717651367,32.40966796875,-16.05224609375,-0.63671875,0.1787109375,-0.17236328125
5.812,750,772,830,844,3.0,36.0,31.0,21.728513717651367,32.40966796875,-16.05224609375,-0.6834716796875,0.24658203125,-0.11328125
5.821,601,612,750,758,3.0,36.0,31.0,15.991209983825684,14.160155296325684,-16.9677734375,-0.7264404296875,0.313720703125,-0.0401611328125
5.829,500,502,715,721,3.0,36.0,31.0,4.57763671875,5.798339366912842,-14.648436546325684,-0.70751953125,0.33837890625,0.027587890625
5.839,481,490,702,710,3.0,36.0,31.0,4.57763671875,5.798339366912842,-14.648436546325684,-0.65625,0.3092041015625,0.093505859375
5.858,455,461,667,674,3.0,36.0,31.0,-5.737304210662842,-3.356933355331421,-10.559081077575684,-0.6383056640625,0.277587890625,0.104736328125
5.860,450,473,662,667,3.0,36.0,31.0,2.44140625,-5.798339366912842,-9.521484375,-0.6483154296875,0.2960205078125,0.0518798828125
5.883,467,472,660,669,3.0,36.0,31.0,2.44140625,-5.798339366912842,-9.521484375,-0.6517333984375,0.3402099609375,0.0059814453125
5.883,494,497,673,683,3.0,36.0,31.0,10.498045921325684,-7.324218273162842,-4.08935546875,-0.65380859375,0.3541259765625,0.0009765625
5.890,518,522,671,680,3.0,36.0,31.0,7.446288585662842,-6.713866710662842,-3.417968511581421,-0.6671142578125,0.3271484375,0.0069580078125
5.911,533,540,698,706,3.0,36.0,31.0,7.446288585662842,-6.713866710662842,-3.417968511581421,-0.694580078125,0.2816162109375,0.0106201171875
5.912,584,591,745,753,3.0,37.0,23.0,5.371093273162842,-4.33349609375,-6.469726085662842,-0.7120361328125,0.229248046875,-0.0062255859375
5.919,629,640,781,794,3.0,37.0,23.0,8.6669921875,-5.187987804412842,-6.774901866912842,-0.708740234375,0.2039794921875,-0.041015625
5.927,684,706,830,846,3.0,37.0,23.0,8.6669921875,-5.187987804412842,-6.774901866912842,-0.7012939453125,0.2120361328125,-0.056396484375
5.942,809,833,888,912,3.0,37.0,23.0,13.916014671325684,-11.352538108825684,-1.3427733182907104,-0.7039794921875,0.2327880859375,-0.0823974609375
5.950,861,898,948,969,3.0,37.0,23.0,13.183592796325684,-13.793944358825684,2.929687261581421,-0.712890625,0.2919921875,-0.1275634765625
5.960,982,1043,1005,1035,3.0,37.0,23.0,13.183592796325684,-13.793944358825684,2.929687261581421,-0.706298828125,0.3619384765625,-0.1661376953125
5.985,1064,1137,1141,1185,3.0,37.0,23.0,1.2817381620407104,-17.15087890625,8.48388671875,-0.691162109375,0.4039306640625,-0.1845703125
5.985,1143,1234,1215,1268,3.0,37.0,23.0,-12.512206077575684,-20.141599655151367,7.812499523162842,-0.6431884765625,0.4068603515625,-0.1295166015625
5.987,1207,1315,1289,1351,3.0,37.0,23.0,-12.512206077575684,-20.141599655151367,7.812499523162842,-0.5621337890625,0.3504638671875,-0.052734375
6.002,1328,1467,1399,1484,2.0,38.0,25.0,-36.56005859375,-27.343748092651367,0.7324218153953552,-0.515380859375,0.30419921875,-0.0059814453125
6.009,1388,1536,1497,1588,2.0,38.0,25.0,-38.57421875,-28.259275436401367,-3.967284917831421,-0.549560546875,0.29345703125,0.0174560546875
6.020,1442,1611,1589,1698,2.0,38.0,25.0,-38.57421875,-28.259275436401367,-3.967284917831421,-0.6339111328125,0.257080078125,0.03173828125
6.031,1547,1899,1768,1892,2.0,38.0,25.0,-41.870113372802734,-30.029294967651367,-17.02880859375,-0.727294921875,0.1895751953125,0.076904296875
6.039,1516,1715,1880,2026,2.0,38.0,25.0,-42.480464935302734,-31.799314498901367,-20.507810592651367,-0.8369140625,0.144287109375,0.1474609375
6.048,1628,1697,1980,2142,2.0,38.0,25.0,-42.480464935302734,-31.799314498901367,-20.507810592651367,-0.9522705078125,0.179931640625,0.197509765625
6.087,1526,1755,2087,2273,2.0,38.0,25.0,-32.04345703125,-29.724119186401367,-11.169432640075684,-1.0533447265625,0.244140625,0.1920166015625
6.088,1549,1791,2151,2339,2.0,38.0,25.0,-24.169919967651367,-26.123044967651367,0.1831054538488388,-1.123291015625,0.267578125,0.1812744140625
6.088,1574,1824,2197,2402,2.0,38.0,25.0,-24.169919967651367,-26.123044967651367,0.1831054538488388,-1.201171875,0.3536376953125,0.190185546875
6.091,1627,1912,2257,2475,2.0,38.0,25.0,-2.929687261581421,-29.907224655151367,16.17431640625,-1.306640625,0.4759521484375,0.203857421875
6.101,1607,1878,2290,2516,2.0,38.0,25.0,13.610838890075684,-33.50830078125,13.305663108825684,-1.4071044921875,0.4798583984375,0.1444091796875
6.108,1620,1894,2316,2551,5.0,35.0,31.0,13.610838890075684,-33.50830078125,13.305663108825684,-1.49658203125,0.47802734375,-0.0562744140625
6.121,1632,1920,2337,2573,5.0,35.0,31.0,33.63037109375,-21.301267623901367,7.934569835662842,-1.54296875,0.584228515625,-0.2313232421875
6.135,1636,1929,2325,2565,5.0,35.0,31.0,23.254392623901367,-12.207030296325684,12.329100608825684,-1.49365234375,0.6331787109375,-0.2509765625
6.137,1640,1931,2317,2555,5.0,35.0,31.0,23.254392623901367,-12.207030296325684,12.329100608825684,-1.2730712890625,0.5611572265625,-0.1953125
6.152,1643,1931,2282,2516,5.0,35.0,31.0,5.0048828125,-2.01416015625,15.930174827575684,-0.98828125,0.5565185546875,-0.1024169921875
6.159,1640,1918,2284,2516,5.0,35.0,31.0,2.25830078125,-2.50244140625,11.962889671325684,-0.8868408203125,0.6617431640625,-0.0059814453125
6.189,1640,1925,2280,2512,5.0,35.0,31.0,2.25830078125,-2.50244140625,11.962889671325684,-1.0439453125,0.7520751953125,0.009033203125
6.190,1632,1907,2210,2479,5.0,35.0,31.0,-3.356933355331421,-0.4882812201976776,-12.207030296325684,-1.32373046875,0.7335205078125,-0.008056640625
6.190,1624,1898,2238,2456,5.0,35.0,31.0,-12.939452171325684,4.8828125,-19.71435546875,-1.494384765625,0.5762939453125,0.0262451171875
6.197,1607,1874,2204,2412,5.0,35.0,31.0,-12.939452171325684,4.8828125,-19.71435546875,-1.4844970703125,0.4031982421875,0.103759765625
6.214,1605,1861,2116,2311,3.0,35.0,25.0,-14.404295921325684,11.169432640075684,-12.329100608825684,-1.37890625,0.3524169921875,0.1787109375
6.219,1615,1860,2049,2225,3.0,35.0,25.0,-5.432128429412842,13.183592796325684,-4.0283203125,-1.27001953125,0.3785400390625,0.1907958984375
6.227,1580,1810,1969,2129,3.0,35.0,25.0,-5.432128429412842,13.183592796325684,-4.0283203125,-1.1934814453125,0.396728515625,0.114990234375
6.247,1521,1723,1812,1951,3.0,35.0,25.0,7.324218273162842,23.620603561401367,6.530761241912842,-1.1295166015625,0.38818359375,-0.00341796875
6.249,1473,1656,1723,1845,3.0,35.0,25.0,7.812499523162842,28.991697311401367,9.521484375,-1.064453125,0.37255859375,-0.0853271484375
6.258,1417,1578,1622,1730,3.0,35.0,25.0,7.812499523162842,28.991697311401367,9.521484375,-0.9866943359375,0.360107421875,-0.108154296875
6.271,1315,1447,1481,1562,3.0,35.0,25.0,9.033203125,35.82763671875,11.169432640075684,-0.88427734375,0.3095703125,-0.07666015625
6.305,1236,1343,1395,1469,3.0,35.0,25.0,9.033203125,35.82763671875,11.169432640075684,-0.76806640625,0.1971435546875,-0.037841796875
6.307,1142,1228,1300,1361,3.0,35.0,25.0,11.535643577575684,37.78076171875,9.58251953125,-0.76806640625,0.1971435546875,-0.037841796875
6.307,985,1037,1142,1183,3.0,36.0,30.0,18.4326171875,38.57421875,7.507323741912842,-0.61474609375,0.063232421875,-0.02783203125
6.309,916,963,1048,1083,3.0,36.0,30.0,18.4326171875,38.57421875,7.507323741912842,-0.571044921875,0.1033935546875,-0.00146484375
6.317,845,874,968,989,3.0,36.0,30.0,23.864744186401367,36.376953125,7.019042491912842,-0.571044921875,0.1033935546875,-0.00146484375
6.331,708,733,849,869,3.0,36.0,30.0,31.127927780151367,31.982419967651367,2.38037109375,-0.5892333984375,0.3319091796875,-0.0885009765625
6.339,642,652,814,819,3.0,36.0,30.0,31.127927780151367,31.982419967651367,2.38037109375,-0.5653076171875,0.4676513671875,-0.1103515625
6.348,603,614,767,780,3.0,36.0,30.0,25.390623092651367,28.869626998901367,3.417968511581421,-0.5653076171875,0.4676513671875,-0.1103515625
6.361,555,562,722,729,3.0,36.0,30.0,-8.056640625,12.695311546325684,3.906249761581421,-0.5546875,0.48193359375,0.140625
6.370,548,561,711,722,3.0,36.0,30.0,-8.056640625,12.695311546325684,3.906249761581421,-0.6158447265625,0.3619384765625,0.191162109375
6.396,561,575,718,725,3.0,36.0,30.0,-16.29638671875,7.080077648162842,-3.173827886581421,-0.6158447265625,0.3619384765625,0.191162109375
6.397,589,603,741,734,3.0,36.0,30.0,-3.356933355331421,6.774901866912842,-6.469726085662842,-0.643310546875,0.263671875,0.0328369140625
6.399,617,633,751,765,5.0,38.0,26.0,-3.356933355331421,6.774901866912842,-6.469726085662842,-0.660400390625,0.26025390625,-0.0169677734375
6.408,645,652,777,790,5.0,38.0,26.0,5.310058116912842,6.164550304412842,-5.126952648162842,-0.660400390625,0.26025390625,-0.0169677734375
6.421,689,711,819,835,5.0,38.0,26.0,13.977049827575684,5.310058116912842,-4.7607421875,-0.7454833984375,0.1854248046875,-0.11181640625
6.429,751,777,846,861,5.0,38.0,26.0,13.977049827575684,5.310058116912842,-4.7607421875,-0.7392578125,0.17822265625,-0.1378173828125
6.437,793,822,877,900,5.0,38.0,26.0,12.817381858825684,4.39453125,-0.3662109076976776,-0.7392578125,0.17822265625,-0.1378173828125
6.452,899,943,976,1005,5.0,38.0,26.0,0.30517578125,-0.7324218153953552,11.230467796325684,-0.7291259765625,0.31298828125,-0.0751953125
6.461,939,990,1018,1043,5.0,38.0,26.0,0.30517578125,-0.7324218153953552,11.230467796325684,-0.7698974609375,0.3951416015625,-0.0997314453125
6.474,996,1053,1064,1101,5.0,38.0,26.0,-3.784179449081421,-2.197265625,12.573241233825684,-0.7698974609375,0.3951416015625,-0.0997314453125
6.502,1078,1153,1170,1213,5.0,38.0,26.0,-19.47021484375,-2.746581792831421,7.385253429412842,-0.795166015625,0.4248046875,-0.1131591796875
6.503,1131,1219,1215,1276,5.0,38.0,26.0,-19.47021484375,-2.746581792831421,7.385253429412842,-0.7230224609375,0.36865234375,-0.06591796875
6.514,1191,1287,1255,1317,4.0,39.0,27.0,-32.53173828125,-4.5166015625,5.981444835662842,-0.7230224609375,0.36865234375,-0.06591796875
6.515,1262,1384,1387,1464,4.0,39.0,27.0,-38.39111328125,-13.916014671325684,4.5166015625,-0.622314453125,0.300048828125,-0.04296875
6.519,1303,1431,1445,1526,4.0,39.0,27.0,-38.39111328125,-13.916014671325684,4.5166015625,-0.6778564453125,0.3756103515625,-0.042236328125
6.527,1348,1483,1512,1605,4.0,39.0,27.0,-28.015134811401367,-19.1650390625,2.13623046875,-0.6778564453125,0.3756103515625,-0.042236328125
6.541,1411,1573,1636,1743,4.0,39.0,27.0,-23.376462936401367,-25.634763717651367,-9.09423828125,-0.7706298828125,0.340576171875,0.0115966796875
6.549,1442,1618,1711,1834,4.0,39.0,27.0,-23.376462936401367,-25.634763717651367,-9.09423828125,-0.812255859375,0.2608642578125,0.067626953125
6.557,1464,1655,1778,1912,4.0,39.0,27.0,-27.038572311401367,-25.878904342651367,-12.084959983825684,-0.812255859375,0.2608642578125,0.067626953125
6.571,1499,1709,1897,2049,4.0,39.0,27.0,-26.916501998901367,-25.451658248901367,-5.126952648162842,-0.9613037109375,0.2742919921875,0.100830078125
6.584,1523,1735,1969,2132,4.0,39.0,27.0,-26.916501998901367,-25.451658248901367,-5.126952648162842,-1.055908203125,0.28662109375,0.1246337890625
6.588,1540,1772,2026,2197,4.0,39.0,27.0,-19.04296875,-25.939939498901367,-0.0610351525247097,-1.055908203125,0.28662109375,0.1246337890625
6.616,1572,1811,2087,2267,5.0,37.0,29.0,0.54931640625,-24.414060592651367,7.019042491912842,-1.1732177734375,0.4805908203125,0.113037109375
6.617,1588,1837,2119,2306,5.0,37.0,29.0,0.54931640625,-24.414060592651367,7.019042491912842,-1.17431640625,0.568603515625,0.1402587890625
6.617,1599,1808,2142,2337,5.0,37.0,29.0,4.33349609375,-21.423337936401367,8.4228515625,-1.17431640625,0.568603515625,0.1402587890625
6.631,1611,1864,2172,2370,5.0,37.0,29.0,9.27734375,-11.291502952575684,3.540038824081421,-1.23583984375,0.5938720703125,0.0345458984375
6.639,1617,1878,2180,2381,5.0,37.0,29.0,9.27734375,-11.291502952575684,3.540038824081421,-1.3067626953125,0.58935546875,-0.085205078125
6.647,1619,1882,2171,2370,5.0,37.0,29.0,12.695311546325684,-6.652831554412842,1.8310545682907104,-1.3067626953125,0.58935546875,-0.085205078125
6.661,1628,1891,2160,2360,5.0,37.0,29.0,14.404295921325684,-0.6713866591453552,0.8544921278953552,-1.2542724609375,0.478515625,-0.2799072265625
6.669,1625,1886,2159,2362,5.0,37.0,29.0,14.404295921325684,-0.6713866591453552,0.8544921278953552,-1.1243896484375,0.4501953125,-0.2763671875
6.678,1624,1880,2151,2352,5.0,37.0,29.0,13.732909202575684,2.868652105331421,-1.3427733182907104,-1.1243896484375,0.4501953125,-0.2763671875
6.712,1603,1848,2129,2319,2.0,36.0,27.0,-7.568358898162842,4.69970703125,-4.69970703125,-1.314208984375,0.6644287109375,0.025634765625
6.715,1591,1837,2098,2279,2.0,36.0,27.0,-7.568358898162842,4.69970703125,-4.69970703125,-1.3790283203125,0.587646484375,0.1083984375
6.715,1528,1806,2063,2238,2.0,36.0,27.0,-18.12744140625,8.72802734375,-5.249022960662842,-1.3790283203125,0.587646484375,0.1083984375
6.718,1562,1785,2010,2179,2.0,36.0,27.0,-19.1650390625,14.282225608825684,-4.69970703125,-1.3353271484375,0.4593505859375,0.1099853515625
6.730,1518,1723,1877,2023,2.0,36.0,27.0,-12.207030296325684,19.287109375,-2.50244140625,-1.1534423828125,0.404541015625,-0.006103515625
6.738,1494,1684,1791,1920,2.0,36.0,27.0,-1.4648436307907104,23.620603561401367,1.15966796875,-1.1534423828125,0.404541015625,-0.006103515625
6.746,1458,1636,1715,1837,2.0,36.0,27.0,6.713866710662842,26.550291061401367,4.7607421875,-1.0692138671875,0.4581298828125,-0.0699462890625
6.768,1395,1540,1574,1671,2.0,36.0,27.0,8.36181640625,27.282712936401367,6.164550304412842,-0.9300537109375,0.429443359375,-0.0621337890625
6.823,1346,1480,1486,1579,2.0,36.0,27.0,6.896972179412842,27.648923873901367,4.57763671875,-0.9300537109375,0.429443359375,-0.0621337890625
6.826,1300,1422,1411,1492,2.0,36.0,27.0,7.080077648162842,28.991697311401367,1.2817381620407104,-0.8765869140625,0.3590087890625,-0.04150390625
6.827,1185,1279,1286,1351,5.0,37.0,27.0,8.4228515625,31.066892623901367,-2.13623046875,-0.773193359375,0.1934814453125,-0.0201416015625
6.838,1091,1166,1201,1255,5.0,37.0,27.0,9.21630859375,33.14208984375,-3.967284917831421,-0.773193359375,0.1934814453125,-0.0201416015625
6.841,1018,1074,1127,1167,5.0,37.0,27.0,10.131834983825684,35.0341796875,-3.417968511581421,-0.739013671875,0.148193359375,-0.0130615234375
6.842,902,944,1018,1043,5.0,37.0,27.0,13.916014671325684,36.62109375,-1.4648436307907104,-0.658447265625,0.1868896484375,-0.0267333984375
6.844,820,869,943,964,5.0,37.0,27.0,19.71435546875,36.62109375,-0.30517578125,-0.658447265625,0.1868896484375,-0.0267333984375
6.844,758,780,873,888,5.0,37.0,27.0,24.353025436401367,34.36279296875,-0.9155272841453552,-0.630615234375,0.2637939453125,-0.05517578125
6.860,675,697,815,828,5.0,37.0,27.0,24.841306686401367,30.395505905151367,-1.0986328125,-0.5938720703125,0.4364013671875,-0.0306396484375
6.878,659,675,796,806,5.0,37.0,27.0,18.798828125,24.902341842651367,0.30517578125,-0.5938720703125,0.4364013671875,-0.0306396484375
6.931,652,667,779,792,5.0,37.0,27.0,0.3662109076976776,10.314940452575684,-4.08935546875,-0.6929931640625,0.3052978515625,0.083251953125
6.937,640,675,780,799,3.0,39.0,22.0,-0.6713866591453552,5.554198741912842,-7.995604991912842,-0.6929931640625,0.3052978515625,0.083251953125
6.939,673,691,793,808,3.0,39.0,22.0,4.21142578125,4.5166015625,-7.995604991912842,-0.7176513671875,0.2789306640625,0.007568359375
6.940,705,721,810,827,3.0,39.0,22.0,10.192870140075684,5.859374523162842,-4.45556640625,-0.7572021484375,0.27099609375,-0.1285400390625
6.941,733,751,819,833,3.0,39.0,22.0,14.709471702575684,7.751464366912842,-0.54931640625,-0.7572021484375,0.27099609375,-0.1285400390625
6.944,757,780,837,859,3.0,39.0,22.0,16.17431640625,8.97216796875,2.38037109375,-0.785888671875,0.264892578125,-0.17041015625
6.944,806,861,877,904,3.0,39.0,22.0,11.962889671325684,7.568358898162842,5.0048828125,-0.802978515625,0.313232421875,-0.163330078125
6.949,869,907,901,922,3.0,39.0,22.0,4.150390625,3.234863042831421,7.507323741912842,-0.802978515625,0.313232421875,-0.163330078125
6.959,907,944,907,932,3.0,39.0,22.0,-2.25830078125,-1.8310545682907104,8.544921875,-0.8055419921875,0.363037109375,-0.119140625
6.971,968,1021,935,968,3.0,39.0,22.0,-6.103515148162842,-4.7607421875,7.568358898162842,-0.820068359375,0.359619140625,-0.1260986328125
6.979,1009,1064,955,985,3.0,39.0,22.0,-7.934569835662842,-4.94384765625,6.469726085662842,-0.820068359375,0.359619140625,-0.1260986328125
6.987,1047,1107,969,1005,3.0,37.0,25.0,-8.72802734375,-4.39453125,6.896972179412842,-0.8271484375,0.347412109375,-0.1470947265625
7.009,1117,1194,1020,1059,3.0,37.0,25.0,-9.82666015625,-5.0048828125,7.812499523162842,-0.7933349609375,0.335205078125,-0.1412353515625
7.010,1167,1248,1066,1104,3.0,37.0,25.0,-11.779784202575684,-7.873534679412842,8.056640625,-0.7933349609375,0.335205078125,-0.1412353515625
7.017,1209,1300,1112,1157,3.0,37.0,25.0,-15.136717796325684,-13.488768577575684,7.385253429412842,-0.7559814453125,0.36181640625,-0.103271484375
7.032,1282,1395,1194,1250,3.0,37.0,25.0,-19.775390625,-20.690916061401367,4.82177734375,-0.7127685546875,0.3759765625,0.0545654296875
7.040,1320,1440,1224,1289,3.0,37.0,25.0,-23.986814498901367,-26.306150436401367,0.4882812201976776,-0.7127685546875,0.3759765625,0.0545654296875
7.047,1361,1494,1287,1357,3.0,37.0,25.0,-24.841306686401367,-27.343748092651367,-3.784179449081421,-0.68408203125,0.3160400390625,0.051025390625
7.061,1416,1567,1398,1485,3.0,37.0,25.0,-20.141599655151367,-24.536130905151367,-5.432128429412842,-0.6826171875,0.3126220703125,-0.104736328125
7.069,1453,1620,1473,1574,3.0,37.0,25.0,-12.084959983825684,-22.949216842651367,-3.845214605331421,-0.6826171875,0.3126220703125,-0.104736328125
7.077,1485,1659,1538,1643,3.0,37.0,25.0,-7.629394054412842,-26.184080123901367,-1.7700194120407104,-0.723388671875,0.4010009765625,-0.0977783203125
7.091,1536,1735,1676,1798,4.0,36.0,30.0,-8.97216796875,-31.433103561401367,-2.685546636581421,-0.775634765625,0.43017578125,0.0185546875
7.111,1553,1769,1772,1905,4.0,36.0,30.0,-11.291502952575684,-34.85107421875,-6.347655773162842,-0.775634765625,0.43017578125,0.0185546875
7.112,1547,1807,1845,1993,4.0,36.0,30.0,-11.108397483825684,-35.15625,-10.314940452575684,-0.8402099609375,0.42431640625,0.0625
7.122,1625,1863,1939,2108,4.0,36.0,30.0,-7.751464366912842,-33.02001953125,-13.244627952575684,-1.04736328125,0.417724609375,0.072265625
7.133,1635,1886,1989,2159,4.0,36.0,30.0,-4.39453125,-30.029294967651367,-14.526366233825684,-1.04736328125,0.417724609375,0.072265625
7.137,1646,1900,2023,2204,4.0,36.0,30.0,-4.33349609375,-27.038572311401367,-12.695311546325684,-1.1363525390625,0.416748046875,0.0860595703125
7.151,1662,1927,2073,2261,4.0,36.0,30.0,-6.347655773162842,-23.742673873901367,-8.1787109375,-1.3084716796875,0.4281005859375,0.0108642578125
7.159,1669,1931,2089,2278,4.0,36.0,30.0,-6.225585460662842,-19.287109375,-2.25830078125,-1.3084716796875,0.4281005859375,0.0108642578125
7.167,1674,1941,2104,2299,4.0,36.0,30.0,-2.746581792831421,-15.380858421325684,3.906249761581421,-1.3363037109375,0.4920654296875,-0.0489501953125
7.181,1684,1954,2104,2299,4.0,38.0,26.0,1.4648436307907104,-13.427733421325684,7.385253429412842,-1.30859375,0.5413818359375,-0.05712890625
7.189,1689,1960,2089,2280,4.0,38.0,26.0,3.051757574081421,-12.145995140075684,6.469726085662842,-1.30859375,0.5413818359375,-0.05712890625
7.214,1689,1965,2089,2280,4.0,38.0,26.0,3.173827886581421,-9.765625,2.38037109375,-1.2357177734375,0.4888916015625,-0.0389404296875
7.215,1684,1954,2076,2263,4.0,38.0,26.0,6.103515148162842,-4.45556640625,-2.38037109375,-1.2333984375,0.5843505859375,-0.1041259765625
7.219,1674,1939,2063,2249,4.0,38.0,26.0,7.385253429412842,1.220703125,-5.981444835662842,-1.2333984375,0.5843505859375,-0.1041259765625
7.229,1662,1918,2043,2223,4.0,38.0,26.0,0.6103515625,4.7607421875,-8.11767578125,-1.3709716796875,0.652099609375,-0.0537109375
7.242,1630,1877,1980,2147,4.0,38.0,26.0,-8.23974609375,7.507323741912842,-9.1552734375,-1.3428955078125,0.4356689453125,0.07958984375
7.249,1607,1843,1909,2065,4.0,38.0,26.0,-11.596678733825684,10.559081077575684,-8.72802734375,-1.3428955078125,0.4356689453125,0.07958984375
7.261,1588,1805,1837,1981,4.0,38.0,26.0,-8.48388671875,14.160155296325684,-5.859374523162842,-1.2318115234375,0.369384765625,0.069580078125
7.271,1551,1748,1698,1833,4.0,38.0,26.0,-1.7700194120407104,18.49365234375,-1.5258787870407104,-1.0540771484375,0.45166015625,-0.061279296875
7.279,1518,1700,1632,1743,4.0,37.0,27.0,4.69970703125,22.644041061401367,1.7089842557907104,-1.0540771484375,0.45166015625,-0.061279296875
7.287,1478,1644,1547,1643,4.0,37.0,27.0,8.30078125,25.146482467651367,1.7700194120407104,-0.967041015625,0.475830078125,-0.0863037109375
7.316,1403,1551,1409,1492,4.0,37.0,27.0,9.21630859375,26.489255905151367,-0.9765624403953552,-0.882568359375,0.4471435546875,-0.0823974609375
7.316,1359,1485,1308,1383,4.0,37.0,27.0,9.033203125,27.893064498901367,-4.5166015625,-0.8173828125,0.3978271484375,-0.0762939453125
7.318,1255,1399,1243,1303,4.0,37.0,27.0,8.60595703125,29.846189498901367,-7.263183116912842,-0.77392578125,0.35791015625,-0.0701904296875
7.332,1173,1249,1134,1185,4.0,37.0,27.0,8.48388671875,31.494138717651367,-9.46044921875,-0.7276611328125,0.305908203125,-0.040771484375
7.346,1098,1169,1073,1116,4.0,37.0,27.0,9.82666015625,31.494138717651367,-11.413573265075684,-0.68212890625,0.2120361328125,-0.0028076171875
7.347,978,1037,1029,1063,4.0,37.0,27.0,14.160155296325684,30.456541061401367,-11.901854515075684,-0.656494140625,0.1297607421875,-0.0052490234375
7.361,939,982,955,982,4.0,37.0,27.0,20.996091842651367,28.686521530151367,-10.314940452575684,-0.6405029296875,0.111572265625,-0.0244140625
7.373,888,927,912,935,4.0,37.0,27.0,26.489255905151367,24.597166061401367,-8.97216796875,-0.6298828125,0.1341552734375,-0.02392578125
7.377,844,873,873,898,2.0,38.0,28.0,27.770994186401367,18.310546875,-7.995604991912842,-0.64013671875,0.20361328125,-0.016357421875
7.394,816,846,846,864,2.0,38.0,28.0,24.963376998901367,11.352538108825684,-5.798339366912842,-0.651123046875,0.3043212890625,0.00634765625
7.402,816,844,844,860,2.0,38.0,28.0,18.798828125,4.94384765625,-3.906249761581421,-0.6396484375,0.3582763671875,0.0643310546875
7.419,823,858,853,873,2.0,38.0,28.0,12.390135765075684,0.4882812201976776,-5.0048828125,-0.644287109375,0.3470458984375,0.114990234375
7.422,849,888,859,882,2.0,38.0,28.0,11.413573265075684,-0.9765624403953552,-8.056640625,-0.6871337890625,0.3175048828125,0.072998046875
7.431,869,906,876,904,2.0,38.0,28.0,16.4794921875,0.1220703050494194,-9.82666015625,-0.7491455078125,0.3150634765625,-0.044189453125
7.437,889,932,886,914,2.0,38.0,28.0,20.385740280151367,1.15966796875,-8.85009765625,-0.8074951171875,0.3365478515625,-0.131591796875
7.452,938,982,907,932,2.0,38.0,28.0,18.12744140625,-0.3662109076976776,-6.652831554412842,-0.83740234375,0.326904296875,-0.1463623046875
7.459,963,1010,922,951,2.0,38.0,28.0,13.244627952575684,-3.234863042831421,-5.371093273162842,-0.8355712890625,0.2860107421875,-0.1495361328125
7.467,984,1035,935,963,2.0,38.0,28.0,9.70458984375,-5.859374523162842,-4.33349609375,-0.8223876953125,0.2703857421875,-0.162353515625
7.485,1034,1091,960,990,2.0,37.0,30.0,6.103515148162842,-8.6669921875,-2.929687261581421,-0.81884765625,0.283203125,-0.145751953125
7.489,1059,1125,976,1009,2.0,37.0,30.0,1.9531248807907104,-11.169432640075684,-1.7700194120407104,-0.8284912109375,0.302978515625,-0.1070556640625
7.497,1093,1159,982,1021,2.0,37.0,30.0,-1.3427733182907104,-11.779784202575684,-0.7934569716453552,-0.830078125,0.310791015625,-0.0750732421875
7.523,1155,1239,1026,1071,2.0,37.0,30.0,-4.21142578125,-10.375975608825684,0.7324218153953552,-0.815673828125,0.300537109375,-0.0589599609375
7.524,1198,1286,1053,1100,2.0,37.0,30.0,-7.141112804412842,-8.60595703125,3.112792730331421,-0.801025390625,0.2960205078125,-0.05517578125
7.527,1236,1335,1093,1143,2.0,37.0,30.0,-10.864256858825684,-8.4228515625,5.554198741912842,-0.772216796875,0.2855224609375,-0.056640625
7.542,1303,1413,1170,1228,2.0,37.0,30.0,-15.258788108825684,-10.314940452575684,7.141112804412842,-0.729736328125,0.2650146484375,-0.06884765625
7.549,1351,1478,1215,1287,2.0,37.0,30.0,-17.27294921875,-14.099120140075684,7.141112804412842,-0.703857421875,0.2625732421875,-0.0687255859375
7.573,1388,1519,1273,1348,2.0,37.0,30.0,-16.29638671875,-19.8974609375,5.187987804412842,-0.69189453125,0.2647705078125,-0.0108642578125
7.576,1466,1621,1348,1428,2.0,37.0,30.0,-14.831542015075684,-25.207517623901367,2.44140625,-0.675048828125,0.2381591796875,0.04736328125
7.585,1497,1662,1411,1499,5.0,38.0,25.0,-12.268065452575684,-26.794431686401367,1.0986328125,-0.64990234375,0.2049560546875,0.0322265625
7.589,1519,1698,1494,1598,5.0,38.0,25.0,-8.544921875,-26.672361373901367,2.197265625,-0.6439208984375,0.230712890625,-0.0140380859375
7.602,1577,1778,1619,1743,5.0,38.0,25.0,-6.896972179412842,-28.869626998901367,3.601073980331421,-0.643310546875,0.287353515625,-0.0306396484375
7.624,1618,1831,1697,1834,5.0,38.0,25.0,-7.690429210662842,-33.5693359375,2.25830078125,-0.6546630859375,0.322021484375,-0.00146484375
7.624,1641,1874,1775,1918,5.0,38.0,25.0,-6.958007335662842,-37.59765625,-2.0751953125,-0.715087890625,0.335205078125,0.0372314453125
7.631,1675,1925,1891,2061,5.0,38.0,25.0,-2.50244140625,-37.9638671875,-6.164550304412842,-0.814453125,0.334716796875,0.0548095703125
7.640,1689,1951,1957,2135,5.0,38.0,25.0,2.01416015625,-35.400390625,-7.141112804412842,-0.9241943359375,0.3743896484375,0.0477294921875
7.647,1702,1969,2009,2200,5.0,38.0,25.0,2.624511480331421,-32.3486328125,-4.638671875,-1.044921875,0.4608154296875,0.010009765625
7.665,1723,1997,2069,2273,5.0,38.0,25.0,0.6713866591453552,-28.442380905151367,-0.4882812201976776,-1.2086181640625,0.5704345703125,-0.0797119140625
7.669,1730,2009,2104,2312,5.0,38.0,25.0,-2.685546636581421,-23.376462936401367,3.601073980331421,-1.3612060546875,0.6416015625,-0.133544921875
7.677,1734,2024,2135,2352,6.0,34.0,28.0,-11.474608421325684,-19.95849609375,7.629394054412842,-1.4256591796875,0.6107177734375,-0.054443359375
7.691,1744,2043,2175,2402,6.0,34.0,28.0,-22.705076217651367,-19.1650390625,10.620116233825684,-1.455810546875,0.518310546875,0.054443359375
7.701,1750,2048,2176,2401,6.0,34.0,28.0,-24.353025436401367,-18.5546875,9.09423828125,-1.504150390625,0.4317626953125,0.09033203125
7.726,1755,2048,2153,2370,6.0,34.0,28.0,-15.930174827575684,-15.319823265075684,3.479003667831421,-1.4700927734375,0.381591796875,0.0789794921875
7.726,1753,2048,2153,2368,6.0,34.0,28.0,-5.676269054412842,-7.873534679412842,-0.7934569716453552,-1.2353515625,0.3719482421875,0.0506591796875
7.729,1748,2041,2147,2361,6.0,34.0,28.0,4.08935546875,0.6713866591453552,-2.25830078125,-1.07666015625,0.5184326171875,0.0130615234375
7.739,1742,2035,2129,2337,6.0,34.0,28.0,7.568358898162842,5.615233898162842,-4.69970703125,-1.2615966796875,0.720703125,0.00830078125
7.751,1719,1996,2074,2275,6.0,34.0,28.0,1.7089842557907104,7.995604991912842,-9.27734375,-1.508056640625,0.6966552734375,0.0364990234375
7.759,1703,1970,2037,2225,6.0,34.0,28.0,-6.652831554412842,10.009765625,-11.657713890075684,-1.527099609375,0.456298828125,0.093017578125
7.771,1686,1941,1983,2160,6.0,34.0,28.0,-9.8876953125,11.413573265075684,-8.544921875,-1.3646240234375,0.2325439453125,0.1534423828125
7.782,1649,1883,1846,2009,5.0,38.0,27.0,-4.69970703125,13.427733421325684,-0.9765624403953552,-1.190673828125,0.1866455078125,0.15185546875
7.789,1620,1845,1768,1905,5.0,38.0,27.0,3.784179449081421,17.9443359375,7.019042491912842,-1.083740234375,0.26708984375,0.083984375
7.797,1591,1803,1682,1811,5.0,38.0,27.0,9.6435546875,23.925779342651367,11.596678733825684,-1.02099609375,0.392822265625,0.00634765625
7.836,1533,1712,1551,1655,5.0,38.0,27.0,12.145995140075684,28.930662155151367,11.474608421325684,-0.95654296875,0.5087890625,-0.0592041015625
7.836,1485,1648,1476,1572,5.0,38.0,27.0,12.390135765075684,31.982419967651367,7.019042491912842,-0.8896484375,0.5758056640625,-0.11962890625
7.837,1441,1593,1395,1476,5.0,38.0,27.0,10.437010765075684,33.8134765625,0.2441406100988388,-0.845947265625,0.5697021484375,-0.164794921875
7.843,1357,1478,1260,1317,5.0,38.0,27.0,6.591796398162842,35.58349609375,-6.408690929412842,-0.8240966796875,0.4857177734375,-0.1988525390625
7.849,1286,1395,1185,1239,5.0,38.0,27.0,3.295898199081421,36.865234375,-10.864256858825684,-0.800537109375,0.3814697265625,-0.2117919921875
7.859,1224,1308,1116,1159,5.0,38.0,27.0,1.5869139432907104,35.33935546875,-12.512206077575684,-0.75390625,0.2901611328125,-0.1707763671875
7.914,1071,1130,1014,1048,5.0,36.0,29.0,1.2817381620407104,30.578611373901367,-12.573241233825684,-0.689208984375,0.1910400390625,-0.1005859375
7.919,999,1048,963,988,5.0,36.0,29.0,4.0283203125,25.573728561401367,-11.535643577575684,-0.62109375,0.109619140625,-0.063720703125
7.919,944,985,918,944,5.0,36.0,29.0,10.192870140075684,22.094724655151367,-9.765625,-0.577880859375,0.0701904296875,-0.02392578125
7.919,835,864,845,858,5.0,36.0,29.0,14.648436546325684,18.5546875,-8.85009765625,-0.595703125,0.0830078125,0.0416259765625
7.919,794,820,828,846,5.0,36.0,29.0,13.122557640075684,14.831542015075684,-8.1787109375,-0.64453125,0.1444091796875,0.093994140625
7.939,779,803,818,832,5.0,36.0,29.0,7.568358898162842,12.084959983825684,-5.554198741912842,-0.660400390625,0.2069091796875,0.1334228515625
7.939,780,803,794,814,5.0,36.0,29.0,1.5869139432907104,9.765625,-2.01416015625,-0.65966796875,0.2535400390625,0.1636962890625
7.941,782,810,788,803,5.0,36.0,29.0,-1.2817381620407104,7.629394054412842,-0.0610351525247097,-0.6878662109375,0.2850341796875,0.1534423828125
7.947,801,824,793,805,5.0,36.0,29.0,1.0986328125,6.713866710662842,0.6103515625,-0.7117919921875,0.30322265625,0.061767578125
7.961,845,874,819,841,5.0,36.0,29.0,5.798339366912842,6.835937023162842,1.8310545682907104,-0.709716796875,0.3253173828125,-0.064208984375
7.969,861,898,828,848,3.0,36.0,26.0,8.23974609375,5.493163585662842,3.051757574081421,-0.7279052734375,0.3564453125,-0.12060546875
7.984,888,928,846,871,3.0,36.0,26.0,8.72802734375,2.563476324081421,2.685546636581421,-0.7667236328125,0.36328125,-0.1143798828125
7.992,932,969,873,904,3.0,36.0,26.0,8.30078125,0.6103515625,1.220703125,-0.7884521484375,0.3343505859375,-0.10888671875
7.999,966,1017,889,916,3.0,36.0,26.0,3.662109136581421,0.4272460639476776,0.54931640625,-0.791259765625,0.2947998046875,-0.0869140625
8.009,1018,1074,904,931,3.0,36.0,26.0,-3.845214605331421,0.7324218153953552,1.03759765625,-0.7896728515625,0.252685546875,-0.06640625
8.033,1093,1159,942,977,3.0,36.0,26.0,-7.812499523162842,0.1831054538488388,2.746581792831421,-0.79931640625,0.2333984375,-0.08740234375
8.033,1139,1213,974,1012,3.0,36.0,26.0,-7.202147960662842,-1.8920897245407104,5.493163585662842,-0.8134765625,0.25390625,-0.1204833984375
8.038,1173,1251,1011,1050,3.0,36.0,26.0,-6.103515148162842,-4.8828125,8.23974609375,-0.8179931640625,0.2828369140625,-0.135986328125
8.053,1248,1348,1071,1117,3.0,36.0,26.0,-8.7890625,-8.056640625,10.498045921325684,-0.7994384765625,0.2860107421875,-0.10302734375
8.059,1292,1398,1143,1198,3.0,36.0,26.0,-15.686034202575684,-10.925292015075684,12.390135765075684,-0.7598876953125,0.252197265625,-0.02197265625
8.067,1331,1442,1201,1266,3.0,37.0,26.0,-23.315427780151367,-13.305663108825684,14.038084983825684,-0.722412109375,0.2236328125,0.054443359375
8.082,1384,1516,1276,1353,3.0,37.0,26.0,-27.648923873901367,-15.136717796325684,14.831542015075684,-0.6739501953125,0.2181396484375,0.0760498046875
8.090,1424,1568,1320,1403,3.0,37.0,26.0,-26.306150436401367,-15.136717796325684,13.793944358825684,-0.63623046875,0.219482421875,0.0438232421875
8.098,1460,1618,1400,1492,3.0,37.0,26.0,-20.385740280151367,-15.136717796325684,11.169432640075684,-0.668701171875,0.248291015625,0.0128173828125
8.113,1528,1711,1502,1611,3.0,37.0,26.0,-12.756346702575684,-18.49365234375,7.385253429412842,-0.7275390625,0.2750244140625,0.0128173828125
8.136,1573,1774,1584,1700,3.0,37.0,26.0,-6.225585460662842,-24.475095748901367,3.234863042831421,-0.76708984375,0.2938232421875,0.0281982421875
8.136,1604,1811,1648,1742,3.0,37.0,26.0,-1.6479490995407104,-30.151365280151367,0.54931640625,-0.79248046875,0.3240966796875,0.056640625
8.142,1659,1892,1791,1946,3.0,37.0,26.0,2.807616949081421,-33.14208984375,-0.3662109076976776,-0.7841796875,0.3135986328125,0.08984375
8.152,1683,1931,1852,2012,3.0,37.0,26.0,6.958007335662842,-31.799314498901367,0.4272460639476776,-0.7794189453125,0.281494140625,0.1044921875
8.161,1701,1960,1913,2082,3.0,37.0,26.0,10.437010765075684,-28.503416061401367,2.868652105331421,-0.8494873046875,0.365966796875,0.047607421875
8.166,1719,1981,1957,2142,4.0,37.0,30.0,10.437010765075684,-28.503416061401367,2.868652105331421,-0.9737548828125,0.59423828125,-0.0618896484375
8.180,1754,2039,2039,2238,4.0,37.0,30.0,13.488768577575684,-24.597166061401367,6.835937023162842,-1.104736328125,0.76953125,-0.1358642578125
8.188,1757,2048,2080,2290,4.0,37.0,30.0,10.253905296325684,-21.484373092651367,2.25830078125,-1.236328125,0.7525634765625,-0.142822265625
8.197,1769,2060,2113,2319,4.0,37.0,30.0,10.253905296325684,-21.484373092651367,2.25830078125,-1.3624267578125,0.6021728515625,-0.0931396484375
8.214,1778,2080,2151,2377,4.0,37.0,30.0,-9.1552734375,-15.808104515075684,-4.57763671875,-1.4365234375,0.452880859375,-0.019287109375
8.224,1791,2093,2165,2389,4.0,37.0,30.0,-16.357421875,-13.732909202575684,-0.6103515625,-1.4569091796875,0.4267578125,0.0272216796875
8.238,1788,2089,2143,2362,4.0,37.0,30.0,-14.526366233825684,-11.474608421325684,2.563476324081421,-1.45751953125,0.47021484375,0.012939453125
8.240,1785,2082,2132,2352,4.0,37.0,30.0,-6.103515148162842,-7.568358898162842,1.220703125,-1.3199462890625,0.4332275390625,-0.03369140625
8.249,1778,2072,2135,2354,4.0,37.0,30.0,3.051757574081421,-2.44140625,-2.685546636581421,-1.0977783203125,0.431640625,-0.0628662109375
8.257,1775,2066,2130,2351,4.0,37.0,30.0,3.051757574081421,-2.44140625,-2.685546636581421,-1.130126953125,0.579345703125,-0.03076171875
8.273,1752,2041,2116,2325,5.0,37.0,28.0,0.7324218153953552,2.38037109375,-10.437010765075684,-1.3951416015625,0.6552734375,0.035400390625
8.278,1738,2018,2093,2302,5.0,37.0,28.0,-7.507323741912842,5.615233898162842,-11.596678733825684,-1.5513916015625,0.50439453125,0.0950927734375
8.287,1732,2009,2061,2263,5.0,37.0,28.0,-7.507323741912842,5.615233898162842,-11.596678733825684,-1.4876708984375,0.2724609375,0.1234130859375
8.307,1700,1959,1965,2143,5.0,37.0,28.0,-7.141112804412842,12.390135765075684,1.0986328125,-1.308837890625,0.196533203125,0.0992431640625
8.308,1676,1920,1889,2052,5.0,37.0,28.0,2.197265625,15.624999046325684,11.596678733825684,-1.1146240234375,0.29736328125,0.0518798828125
8.341,1622,1843,1752,1899,5.0,37.0,28.0,7.873534679412842,18.85986328125,18.00537109375,-0.973876953125,0.44970703125,0.0047607421875
8.341,1591,1794,1697,1831,5.0,37.0,28.0,8.97216796875,21.362302780151367,16.357421875,-0.888671875,0.5567626953125,-0.042236328125
8.342,1552,1743,1628,1748,5.0,37.0,28.0,9.70458984375,23.071287155151367,7.812499523162842,-0.8441162109375,0.5906982421875,-0.0933837890625
8.346,1509,1683,1561,1669,5.0,37.0,28.0,9.70458984375,23.071287155151367,7.812499523162842,-0.858642578125,0.5721435546875,-0.127197265625
8.360,1437,1580,1437,1523,3.0,38.0,26.0,5.554198741912842,23.681638717651367,-9.21630859375,-0.882080078125,0.4893798828125,-0.1351318359375
8.368,1371,1499,1357,1431,3.0,38.0,26.0,0.54931640625,24.353025436401367,-11.474608421325684,-0.853515625,0.39453125,-0.1298828125
8.376,1331,1444,1282,1351,3.0,38.0,26.0,0.54931640625,24.353025436401367,-11.474608421325684,-0.77783203125,0.330078125,-0.1004638671875
8.390,1191,1275,1153,1198,3.0,38.0,26.0,-1.6479490995407104,25.451658248901367,-10.070799827575684,-0.7161865234375,0.27880859375,-0.063232421875
8.398,1101,1175,1088,1131,3.0,38.0,26.0,-0.0610351525247097,25.207517623901367,-10.009765625,-0.669677734375,0.2119140625,-0.0537109375
8.410,1031,1089,1022,1059,3.0,38.0,26.0,-0.0610351525247097,25.207517623901367,-10.009765625,-0.6295166015625,0.13330078125,-0.0648193359375
8.420,919,963,959,982,3.0,38.0,26.0,8.30078125,21.789548873901367,-9.1552734375,-0.6248779296875,0.079345703125,-0.0352783203125
8.443,869,906,913,936,3.0,38.0,26.0,9.94873046875,16.845703125,-8.48388671875,-0.64404296875,0.0731201171875,0.035888671875
8.443,814,837,873,900,3.0,38.0,26.0,9.94873046875,16.845703125,-8.48388671875,-0.6683349609375,0.1246337890625,0.091796875
8.450,769,793,846,861,3.0,38.0,26.0,4.39453125,8.9111328125,-3.906249761581421,-0.67919921875,0.203125,0.1221923828125
8.459,753,778,833,846,4.0,36.0,25.0,1.4648436307907104,7.324218273162842,-0.7324218153953552,-0.69189453125,0.265869140625,0.1341552734375
8.472,751,770,814,833,4.0,36.0,25.0,0.7934569716453552,6.225585460662842,0.7934569716453552,-0.7237548828125,0.2978515625,0.0960693359375
8.480,764,788,819,833,4.0,36.0,25.0,2.807616949081421,6.225585460662842,1.8920897245407104,-0.744384765625,0.3206787109375,-0.0037841796875
8.488,778,803,827,846,4.0,36.0,25.0,4.69970703125,6.591796398162842,3.967284917831421,-0.74462890625,0.345458984375,-0.0902099609375
8.499,803,830,844,861,4.0,36.0,25.0,4.69970703125,6.591796398162842,3.967284917831421,-0.7562255859375,0.363525390625,-0.1124267578125
8.511,837,873,861,884,4.0,36.0,25.0,2.50244140625,2.868652105331421,6.835937023162842,-0.7857666015625,0.37255859375,-0.092529296875
8.522,864,900,886,912,4.0,36.0,25.0,1.03759765625,0.54931640625,5.981444835662842,-0.8067626953125,0.3494873046875,-0.0654296875
8.545,884,925,907,931,4.0,36.0,25.0,1.03759765625,0.54931640625,5.981444835662842,-0.81298828125,0.302001953125,-0.05126953125
8.545,929,980,938,964,4.0,36.0,25.0,-1.3427733182907104,-1.2817381620407104,3.784179449081421,-0.812255859375,0.2801513671875,-0.0462646484375
8.548,966,1017,959,989,4.0,36.0,25.0,-2.624511480331421,-2.38037109375,4.39453125,-0.80078125,0.2838134765625,-0.0479736328125
8.557,1009,1064,977,1010,4.0,38.0,28.0,-2.624511480331421,-2.38037109375,4.39453125,-0.7791748046875,0.2767333984375,-0.072998046875
8.571,1088,1159,1008,1047,4.0,38.0,28.0,-4.57763671875,-3.295898199081421,8.36181640625,-0.759033203125,0.2701416015625,-0.1131591796875
8.578,1145,1225,1039,1085,4.0,38.0,28.0,-5.554198741912842,-4.39453125,11.230467796325684,-0.7381591796875,0.2777099609375,-0.1298828125
8.587,1196,1281,1074,1122,4.0,38.0,28.0,-5.554198741912842,-4.39453125,11.230467796325684,-0.68798828125,0.268310546875,-0.1064453125
8.600,1282,1393,1173,1234,4.0,38.0,28.0,-11.901854515075684,-13.610838890075684,13.793944358825684,-0.6162109375,0.2528076171875,-0.0252685546875
8.612,1333,1452,1236,1305,4.0,38.0,28.0,-11.901854515075684,-13.610838890075684,13.793944358825684,-0.5537109375,0.2281494140625,0.0968017578125
8.623,1417,1562,1315,1398,4.0,38.0,28.0,-19.47021484375,-25.634763717651367,10.192870140075684,-0.5067138671875,0.1490478515625,0.1483154296875
8.647,1478,1640,1362,1454,4.0,38.0,28.0,-15.319823265075684,-26.855466842651367,8.36181640625,-0.5008544921875,0.0931396484375,0.09814453125
8.648,1548,1725,1439,1537,4.0,38.0,28.0,-15.319823265075684,-26.855466842651367,8.36181640625,-0.544921875,0.1427001953125,0.0517578125
8.648,1588,1785,1513,1625,4.0,38.0,28.0,-5.737304210662842,-28.686521530151367,8.544921875,-0.544921875,0.1427001953125,0.0517578125
8.668,1670,1894,1659,1796,3.0,35.0,28.0,7.629394054412842,-40.10009765625,6.286620616912842,-0.610595703125,0.30615234375,0.15625
8.690,1701,1943,1730,1882,3.0,35.0,28.0,7.629394054412842,-40.10009765625,6.286620616912842,-0.754150390625,0.376708984375,0.1619873046875
8.697,1738,1996,1791,1946,3.0,35.0,28.0,9.1552734375,-40.405269622802734,-0.1220703050494194,-0.754150390625,0.376708984375,0.1619873046875
