time,compression0,compression1,compression2,compression3,magn_x,magn_y,magn_z,gyro_x,gyro_y,gyro_z,accel_x,accel_y,accel_z
0.001,306,809,754,631,-13.0,35.0,12.0,1.2817381620407104,-3.601073980331421,-2.44140625,-0.7939453125,0.371337890625,-0.4576416015625
0.010,304,753,660,702,-13.0,35.0,12.0,1.6479490995407104,-3.723144292831421,-2.197265625,-0.7933349609375,0.37060546875,-0.45654296875
0.024,302,737,644,669,-13.0,35.0,12.0,1.8920897245407104,-3.662109136581421,-2.01416015625,-0.7962646484375,0.369140625,-0.46044921875
0.032,302,725,660,691,-12.0,35.0,10.0,1.8310545682907104,-3.540038824081421,-1.9531248807907104,-0.80029296875,0.367919921875,-0.4661865234375
0.040,300,707,666,687,-12.0,35.0,10.0,1.5869139432907104,-3.356933355331421,-1.8920897245407104,-0.803466796875,0.3665771484375,-0.46826171875
0.054,299,684,646,653,-12.0,35.0,10.0,1.15966796875,-3.234863042831421,-1.8920897245407104,-0.80517578125,0.3670654296875,-0.466796875
0.063,298,677,660,673,-12.0,35.0,10.0,0.7934569716453552,-3.112792730331421,-1.8920897245407104,-0.806640625,0.369384765625,-0.466064453125
0.084,300,678,660,666,-12.0,35.0,10.0,0.4882812201976776,-3.051757574081421,-1.8920897245407104,-0.8079833984375,0.371337890625,-0.466796875
0.085,300,648,673,660,-12.0,35.0,10.0,0.3662109076976776,-3.051757574081421,-1.8920897245407104,-0.809326171875,0.3720703125,-0.4686279296875
0.092,301,642,660,651,-12.0,35.0,10.0,0.4882812201976776,-3.051757574081421,-1.8920897245407104,-0.81005859375,0.3721923828125,-0.4713134765625
0.103,298,620,661,646,-12.0,35.0,10.0,0.6713866591453552,-3.234863042831421,-1.8310545682907104,-0.8076171875,0.370849609375,-0.47216796875
0.114,294,601,644,614,-12.0,35.0,10.0,0.6713866591453552,-3.479003667831421,-1.7700194120407104,-0.8045654296875,0.3671875,-0.4697265625
0.123,294,586,658,632,-12.0,35.0,10.0,0.6103515625,-3.845214605331421,-1.6479490995407104,-0.8046875,0.362548828125,-0.46533203125
0.130,295,576,660,631,-12.0,36.0,10.0,0.4882812201976776,-4.33349609375,-1.4648436307907104,-0.8082275390625,0.3582763671875,-0.460693359375
0.144,294,562,639,594,-12.0,36.0,10.0,0.6713866591453552,-4.82177734375,-1.2817381620407104,-0.8138427734375,0.3544921875,-0.457275390625
0.152,294,551,646,617,-12.0,36.0,10.0,1.6479490995407104,-5.310058116912842,-1.15966796875,-0.81982421875,0.3526611328125,-0.4573974609375
0.191,292,546,647,614,-12.0,36.0,10.0,3.295898199081421,-5.798339366912842,-1.15966796875,-0.8221435546875,0.3558349609375,-0.4622802734375
0.192,291,532,644,607,-12.0,36.0,10.0,4.8828125,-6.408690929412842,-1.4038084745407104,-0.8201904296875,0.36572265625,-0.470947265625
0.193,291,540,616,591,-12.0,36.0,10.0,5.554198741912842,-7.080077648162842,-1.7089842557907104,-0.8170166015625,0.3748779296875,-0.4771728515625
0.194,281,601,616,582,-12.0,36.0,10.0,5.065917491912842,-7.934569835662842,-2.197265625,-0.816162109375,0.374755859375,-0.478271484375
0.204,279,506,619,567,-12.0,36.0,10.0,3.906249761581421,-8.7890625,-2.868652105331421,-0.818359375,0.370361328125,-0.4801025390625
0.212,278,501,607,586,-12.0,36.0,10.0,2.563476324081421,-9.765625,-3.601073980331421,-0.82080078125,0.3646240234375,-0.482177734375
0.220,280,493,614,579,-12.0,36.0,10.0,1.3427733182907104,-10.925292015075684,-4.33349609375,-0.8209228515625,0.354736328125,-0.478271484375
0.234,276,493,599,559,-13.0,35.0,9.0,0.8544921278953552,-12.329100608825684,-5.065917491912842,-0.8187255859375,0.3431396484375,-0.4708251953125
0.242,277,484,601,576,-13.0,35.0,9.0,1.6479490995407104,-13.610838890075684,-5.676269054412842,-0.81396484375,0.3358154296875,-0.4637451171875
0.250,274,479,600,572,-13.0,35.0,9.0,3.112792730331421,-14.648436546325684,-5.981444835662842,-0.8056640625,0.3370361328125,-0.4573974609375
0.265,271,506,586,561,-13.0,35.0,9.0,4.33349609375,-15.380858421325684,-5.920409679412842,-0.7987060546875,0.341064453125,-0.451904296875
0.290,277,475,596,569,-13.0,35.0,9.0,4.5166015625,-15.869139671325684,-5.737304210662842,-0.794677734375,0.341064453125,-0.4437255859375
0.290,277,472,594,571,-13.0,35.0,9.0,3.723144292831421,-16.05224609375,-5.493163585662842,-0.791015625,0.337646484375,-0.431884765625
0.294,275,484,593,574,-13.0,35.0,9.0,2.25830078125,-15.930174827575684,-5.187987804412842,-0.787353515625,0.3350830078125,-0.4197998046875
0.302,275,484,594,571,-13.0,35.0,9.0,1.15966796875,-15.686034202575684,-4.7607421875,-0.7855224609375,0.3394775390625,-0.412353515625
0.316,277,485,599,574,-13.0,35.0,9.0,0.8544921278953552,-15.563963890075684,-4.08935546875,-0.78759765625,0.3519287109375,-0.4097900390625
0.324,276,484,600,559,-10.0,36.0,12.0,0.8544921278953552,-15.808104515075684,-3.234863042831421,-0.7919921875,0.364990234375,-0.4080810546875
0.333,279,490,603,576,-10.0,36.0,12.0,0.4882812201976776,-16.11328125,-2.3193359375,-0.795166015625,0.370361328125,-0.4075927734375
0.346,280,497,607,578,-10.0,36.0,12.0,-1.03759765625,-16.17431640625,-1.4648436307907104,-0.79541015625,0.366455078125,-0.41162109375
0.361,279,495,605,568,-10.0,36.0,12.0,-3.540038824081421,-15.991209983825684,-0.6103515625,-0.793212890625,0.3544921875,-0.419189453125
0.372,279,501,593,554,-10.0,36.0,12.0,-6.469726085662842,-15.686034202575684,0.2441406100988388,-0.78662109375,0.3348388671875,-0.42333984375
0.398,282,497,620,590,-10.0,36.0,12.0,-9.27734375,-15.441893577575684,0.9155272841453552,-0.7734375,0.317626953125,-0.4163818359375
0.400,280,508,607,569,-10.0,36.0,12.0,-11.352538108825684,-15.014647483825684,1.5258787870407104,-0.758056640625,0.3125,-0.401611328125
0.401,280,509,607,586,-10.0,36.0,12.0,-12.817381858825684,-14.221190452575684,2.3193359375,-0.744384765625,0.3184814453125,-0.3824462890625
0.401,265,572,644,552,-10.0,36.0,12.0,-12.817381858825684,-14.221190452575684,2.3193359375,-0.7337646484375,0.33056640625,-0.3560791015625
0.410,286,518,624,591,-10.0,36.0,12.0,-14.099120140075684,-12.939452171325684,3.356933355331421,-0.7276611328125,0.342041015625,-0.3250732421875
0.423,286,539,616,582,-12.0,35.0,14.0,-17.7001953125,-9.70458984375,5.493163585662842,-0.7236328125,0.342529296875,-0.2913818359375
0.431,287,578,621,619,-12.0,35.0,14.0,-19.53125,-8.23974609375,6.591796398162842,-0.7218017578125,0.3240966796875,-0.255615234375
0.440,291,631,619,644,-12.0,35.0,14.0,-19.53125,-8.23974609375,6.591796398162842,-0.7139892578125,0.294677734375,-0.228271484375
0.453,291,849,575,695,-12.0,35.0,14.0,-20.935056686401367,-4.82177734375,9.70458984375,-0.6995849609375,0.2713623046875,-0.226318359375
0.462,296,966,588,767,-12.0,35.0,14.0,-21.240232467651367,-1.3427733182907104,12.207030296325684,-0.69970703125,0.27587890625,-0.25927734375
0.495,301,1125,562,811,-12.0,35.0,14.0,-21.240232467651367,-1.3427733182907104,12.207030296325684,-0.7108154296875,0.2947998046875,-0.302978515625
0.504,310,1320,561,858,-12.0,35.0,14.0,-29.602048873901367,7.629394054412842,19.775390625,-0.6981201171875,0.277587890625,-0.322265625
0.505,321,1499,576,944,-12.0,35.0,14.0,-41.015621185302734,10.192870140075684,22.216794967651367,-0.619384765625,0.2362060546875,-0.314208984375
0.505,329,1596,619,1014,-12.0,35.0,14.0,-41.015621185302734,10.192870140075684,22.216794967651367,-0.619384765625,0.2362060546875,-0.314208984375
0.513,356,1789,710,1097,-12.0,35.0,14.0,-61.218257904052734,-4.94384765625,14.221190452575684,-0.3668212890625,0.3607177734375,-0.2642822265625
0.533,389,1900,829,1163,-12.0,33.0,12.0,-61.218257904052734,-4.94384765625,14.221190452575684,-0.2008056640625,0.5521240234375,-0.2169189453125
0.533,425,2093,846,1202,-12.0,33.0,12.0,-43.457027435302734,-35.64453125,-0.1831054538488388,-0.2008056640625,0.5521240234375,-0.2169189453125
0.543,506,2190,1078,1198,-12.0,33.0,12.0,-5.737304210662842,-127.56346893310547,-61.828609466552734,0.4241943359375,0.3690185546875,0.2275390625
0.552,518,2195,1262,1413,-12.0,33.0,12.0,-5.737304210662842,-127.56346893310547,-61.828609466552734,0.5218505859375,-0.0181884765625,0.25390625
0.559,508,2249,1369,1474,-12.0,33.0,12.0,-13.183592796325684,-138.7939453125,-89.53856658935547,0.5218505859375,-0.0181884765625,0.25390625
0.575,493,2295,1429,1455,-12.0,33.0,12.0,0.4272460639476776,-70.00732421875,-55.358882904052734,-0.8526611328125,0.65087890625,-1.0040283203125
0.582,512,2347,1545,1604,-12.0,33.0,12.0,0.4272460639476776,-70.00732421875,-55.358882904052734,-1.68212890625,1.2803955078125,-1.4625244140625
0.598,532,2430,1557,1600,-12.0,33.0,12.0,0.30517578125,-45.898433685302734,-22.827146530151367,-1.68212890625,1.2803955078125,-1.4625244140625
0.603,562,2478,1514,1476,-12.0,33.0,12.0,-91.55272674560547,-39.24560546875,-10.009765625,-2.6634521484375,0.491455078125,-0.5941162109375
0.618,562,2456,1597,1653,-12.0,33.0,12.0,-91.55272674560547,-39.24560546875,-10.009765625,-2.8167724609375,0.0955810546875,-0.0289306640625
0.620,521,2721,1402,1521,-6.0,31.0,19.0,-124.26757049560547,-38.4521484375,-11.108397483825684,-2.8167724609375,0.0955810546875,-0.0289306640625
0.634,532,2362,1503,1509,-6.0,31.0,19.0,-67.9931640625,-35.0341796875,-9.33837890625,-1.7091064453125,-0.106689453125,0.1754150390625
0.642,543,2396,1600,1653,-6.0,31.0,19.0,-67.9931640625,-35.0341796875,-9.33837890625,-1.0194091796875,0.3125,0.029541015625
0.650,539,2379,1580,1646,-6.0,31.0,19.0,-1.9531248807907104,-29.785154342651367,-9.8876953125,-1.0194091796875,0.3125,0.029541015625
0.663,540,2359,1453,1483,-6.0,31.0,19.0,51.208492279052734,-3.967284917831421,-4.39453125,-1.759033203125,1.071533203125,-0.6748046875
0.671,548,2341,1518,1588,-6.0,31.0,19.0,51.208492279052734,-3.967284917831421,-4.39453125,-1.9993896484375,0.809814453125,-0.6781005859375
0.686,548,2449,2012,1067,-6.0,31.0,19.0,24.230955123901367,11.352538108825684,-3.173827886581421,-1.9993896484375,0.809814453125,-0.6781005859375
0.703,531,2233,1308,1370,-6.0,31.0,19.0,-23.864744186401367,25.634763717651367,1.4648436307907104,-1.5750732421875,0.5482177734375,-0.34619140625
0.703,497,2235,1236,1346,-6.0,31.0,19.0,-23.864744186401367,25.634763717651367,1.4648436307907104,-1.2652587890625,0.6358642578125,-0.3245849609375
0.711,518,2218,1120,1336,-6.0,31.0,19.0,-27.587888717651367,28.137205123901367,4.69970703125,-1.2652587890625,0.6358642578125,-0.3245849609375
0.728,470,1929,1042,1173,-8.0,30.0,17.0,-21.789548873901367,37.17041015625,3.356933355331421,-0.9234619140625,0.470458984375,-0.3018798828125
0.733,456,1819,989,1175,-8.0,30.0,17.0,-21.789548873901367,37.17041015625,3.356933355331421,-0.780517578125,0.2171630859375,-0.1837158203125
0.742,431,1665,913,1070,-8.0,30.0,17.0,-10.437010765075684,39.48974609375,-2.44140625,-0.780517578125,0.2171630859375,-0.1837158203125
0.755,430,1303,802,834,-8.0,30.0,17.0,19.10400390625,23.071287155151367,-27.160642623901367,-0.3704833984375,-0.310791015625,0.0625
0.762,382,1005,774,778,-8.0,30.0,17.0,19.10400390625,23.071287155151367,-27.160642623901367,-0.2255859375,-0.3487548828125,-0.0125732421875
0.770,371,797,750,684,-8.0,30.0,17.0,32.1044921875,12.512206077575684,-42.541500091552734,-0.2255859375,-0.3487548828125,-0.0125732421875
0.792,359,548,682,539,-8.0,30.0,17.0,35.64453125,-1.2817381620407104,-52.612300872802734,-0.2786865234375,0.0469970703125,-0.320068359375
0.802,338,460,687,539,-8.0,30.0,17.0,35.64453125,-1.2817381620407104,-52.612300872802734,-0.3973388671875,0.3963623046875,-0.4451904296875
0.803,346,455,661,526,-8.0,30.0,17.0,22.033689498901367,-3.356933355331421,-41.748043060302734,-0.3973388671875,0.3963623046875,-0.4451904296875
0.814,332,466,619,506,-8.0,32.0,14.0,-28.076169967651367,2.563476324081421,-3.906249761581421,-0.6580810546875,0.6588134765625,-0.4215087890625
0.822,330,472,607,518,-8.0,32.0,14.0,-28.076169967651367,2.563476324081421,-3.906249761581421,-0.7196044921875,0.4638671875,-0.2943115234375
0.830,324,472,601,518,-8.0,32.0,14.0,-46.081539154052734,2.685546636581421,0.2441406100988388,-0.7196044921875,0.4638671875,-0.2943115234375
0.848,321,466,582,506,-8.0,32.0,14.0,-47.241207122802734,1.7700194120407104,-5.432128429412842,-0.7318115234375,0.2044677734375,-0.1234130859375
0.852,330,481,585,509,-8.0,32.0,14.0,-39.1845703125,0.3662109076976776,-11.474608421325684,-0.7318115234375,0.2044677734375,-0.1234130859375
0.861,330,481,586,512,-8.0,32.0,14.0,-32.3486328125,-0.8544921278953552,-13.732909202575684,-0.711181640625,0.1624755859375,-0.110107421875
0.874,323,468,579,504,-8.0,32.0,14.0,-29.357908248901367,-1.4038084745407104,-12.084959983825684,-0.691162109375,0.1534423828125,-0.155029296875
0.883,323,486,578,513,-8.0,32.0,14.0,-25.512693405151367,-2.13623046875,-7.690429210662842,-0.691162109375,0.1534423828125,-0.155029296875
0.906,328,473,598,519,-8.0,32.0,14.0,-16.11328125,-3.540038824081421,-2.0751953125,-0.670166015625,0.1572265625,-0.158203125
0.906,334,470,600,508,-8.0,32.0,14.0,-2.01416015625,-5.310058116912842,4.57763671875,-0.5982666015625,0.1875,-0.0401611328125
0.913,351,495,591,506,-11.0,31.0,23.0,11.230467796325684,-7.812499523162842,11.840819358825684,-0.5982666015625,0.1875,-0.0401611328125
0.920,334,481,603,516,-11.0,31.0,23.0,18.12744140625,-11.047362327575684,17.9443359375,-0.54052734375,0.190673828125,0.0667724609375
0.934,327,481,625,523,-11.0,31.0,23.0,18.4326171875,-12.939452171325684,20.935056686401367,-0.4346923828125,0.161376953125,0.113037109375
0.942,328,517,648,571,-11.0,31.0,23.0,15.991209983825684,-11.657713890075684,21.850584030151367,-0.4346923828125,0.161376953125,0.113037109375
0.959,359,661,673,625,-11.0,31.0,23.0,14.709471702575684,-7.873534679412842,22.399900436401367,-0.4708251953125,0.107177734375,0.0533447265625
0.964,473,1336,683,754,-11.0,31.0,23.0,14.892577171325684,-3.540038824081421,24.414060592651367,-0.654296875,0.1910400390625,-0.1602783203125
0.991,468,1531,735,853,-11.0,31.0,23.0,12.207030296325684,-2.197265625,31.433103561401367,-0.654296875,0.1910400390625,-0.1602783203125
0.993,473,1643,802,846,-11.0,31.0,23.0,5.676269054412842,-5.920409679412842,42.053218841552734,-0.712646484375,0.5045166015625,-0.2860107421875
1.018,559,1927,944,946,-11.0,31.0,23.0,5.432128429412842,-12.756346702575684,47.241207122802734,-0.4820556640625,0.5401611328125,-0.5458984375
1.018,618,2050,1103,1078,-11.0,31.0,23.0,10.131834983825684,-25.451658248901367,37.65869140625,-0.4820556640625,0.5401611328125,-0.5458984375
1.018,526,1945,1303,1292,-6.0,32.0,21.0,0.2441406100988388,-49.560543060302734,12.817381858825684,-0.11083984375,0.23486328125,-0.2501220703125
1.026,592,2136,1316,1280,-6.0,32.0,21.0,-19.22607421875,-75.5615234375,-17.333984375,0.17431640625,-0.2779541015625,0.341064453125
1.033,591,2194,1456,1452,-6.0,32.0,21.0,-20.141599655151367,-86.24266815185547,-33.75244140625,0.17431640625,-0.2779541015625,0.341064453125
1.040,614,2299,1508,1478,-6.0,32.0,21.0,4.57763671875,-82.03124237060547,-24.353025436401367,-0.182861328125,-0.008544921875,0.0487060546875
1.067,564,2391,1521,1404,-6.0,32.0,21.0,31.311033248901367,-76.171875,0.4882812201976776,-1.2872314453125,1.7669677734375,-0.9871826171875
1.068,574,2397,1659,1593,-6.0,32.0,21.0,31.311033248901367,-70.98388671875,18.310546875,-1.2872314453125,1.7669677734375,-0.9871826171875
1.070,566,2472,1677,1623,-6.0,32.0,21.0,-2.01416015625,-62.866207122802734,12.207030296325684,-1.6072998046875,1.818359375,-0.9102783203125
1.084,548,2519,1662,1494,-6.0,32.0,21.0,-46.325679779052734,-53.161617279052734,-11.901854515075684,-2.1123046875,1.0186767578125,-0.197998046875
1.110,555,2541,1757,1636,-6.0,32.0,21.0,-74.0966796875,-43.701168060302734,-32.470703125,-2.6405029296875,0.0648193359375,0.4107666015625
1.110,505,2901,1592,1560,-6.0,32.0,21.0,-62.377925872802734,-32.71484375,-36.4990234375,-2.8463134765625,-0.2880859375,0.231689453125
1.114,548,2464,1781,1640,-5.0,28.0,21.0,-13.427733421325684,-19.53125,-23.437498092651367,-2.430419921875,0.020263671875,-0.391357421875
1.122,559,2437,1746,1660,-5.0,28.0,21.0,31.372068405151367,-17.7001953125,-12.756346702575684,-1.576171875,0.3724365234375,-0.5596923828125
1.130,561,2424,1739,1652,-5.0,28.0,21.0,47.851558685302734,-29.418943405151367,-16.357421875,-1.273193359375,0.7294921875,-0.379638671875
1.144,572,2396,1611,1494,-5.0,28.0,21.0,41.748043060302734,-35.15625,-23.559568405151367,-1.58447265625,0.8421630859375,-0.2476806640625
1.153,567,2359,1666,1611,-5.0,28.0,21.0,25.146482467651367,-29.235837936401367,-26.428220748901367,-1.844482421875,0.6268310546875,-0.140869140625
1.178,567,2321,1669,1584,-5.0,28.0,21.0,9.033203125,-18.06640625,-21.728513717651367,-1.8375244140625,0.4769287109375,-0.075927734375
1.179,555,2224,1557,1433,-5.0,28.0,21.0,-1.8920897245407104,-4.39453125,-14.892577171325684,-1.672607421875,0.425048828125,-0.096923828125
1.183,543,2323,1450,1464,-5.0,28.0,21.0,-6.958007335662842,9.70458984375,-10.498045921325684,-1.491455078125,0.4317626953125,-0.1480712890625
1.196,539,2127,1531,1452,-5.0,28.0,21.0,-9.6435546875,22.399900436401367,-6.408690929412842,-1.3563232421875,0.5029296875,-0.2042236328125
1.212,513,1957,1409,1241,-4.0,30.0,21.0,-12.451170921325684,33.0810546875,-1.4038084745407104,-1.22119140625,0.4913330078125,-0.2265625
1.213,518,1811,1341,1037,-4.0,30.0,21.0,-13.000487327575684,41.870113372802734,1.8310545682907104,-1.0426025390625,0.3026123046875,-0.15771484375
1.221,493,1684,1260,1163,-4.0,30.0,21.0,-9.521484375,48.767086029052734,2.25830078125,-0.832275390625,0.03173828125,-0.009765625
1.234,466,1334,1093,899,-4.0,30.0,21.0,-2.3193359375,48.767086029052734,0.30517578125,-0.5982666015625,-0.238037109375,0.197998046875
1.242,470,1053,1051,837,-4.0,30.0,21.0,12.023924827575684,37.59765625,-3.417968511581421,-0.3590087890625,-0.354248046875,0.353271484375
1.250,445,725,999,707,-4.0,30.0,21.0,34.7900390625,23.925779342651367,-6.286620616912842,-0.2493896484375,-0.18359375,0.2620849609375
1.264,382,473,772,539,-4.0,30.0,21.0,51.818843841552734,17.08984375,-10.131834983825684,-0.2523193359375,0.115478515625,0.05078125
1.275,346,462,678,549,-4.0,30.0,21.0,50.476070404052734,15.441893577575684,-18.310546875,-0.2880859375,0.3851318359375,-0.14306640625
1.281,324,479,644,553,-4.0,30.0,21.0,34.1796875,18.24951171875,-23.681638717651367,-0.42822265625,0.586181640625,-0.3626708984375
1.315,321,501,601,519,-4.0,30.0,21.0,17.08984375,22.827146530151367,-24.841306686401367,-0.569580078125,0.60791015625,-0.5084228515625
1.315,325,497,607,537,-6.0,30.0,27.0,11.413573265075684,23.559568405151367,-28.381345748901367,-0.5987548828125,0.50830078125,-0.5272216796875
1.319,322,559,588,519,-6.0,30.0,27.0,11.474608421325684,20.812986373901367,-30.517576217651367,-0.577880859375,0.4249267578125,-0.42919921875
1.325,327,487,603,537,-6.0,30.0,27.0,5.798339366912842,15.930174827575684,-27.832029342651367,-0.5677490234375,0.3656005859375,-0.2564697265625
1.333,324,481,607,537,-6.0,30.0,27.0,-7.507323741912842,9.521484375,-23.681638717651367,-0.5718994140625,0.2918701171875,-0.10498046875
1.340,338,487,606,531,-6.0,30.0,27.0,-22.583005905151367,4.2724609375,-20.935056686401367,-0.577880859375,0.1966552734375,-0.03271484375
1.354,325,475,616,531,-6.0,30.0,27.0,-30.456541061401367,2.44140625,-19.22607421875,-0.5980224609375,0.122802734375,-0.018798828125
1.363,324,484,627,543,-6.0,30.0,27.0,-29.113767623901367,2.807616949081421,-16.29638671875,-0.640869140625,0.0950927734375,-0.0174560546875
1.371,343,497,621,536,-6.0,30.0,27.0,-22.399900436401367,3.540038824081421,-10.559081077575684,-0.677490234375,0.100341796875,0.000244140625
1.384,334,499,614,527,-6.0,30.0,27.0,-13.244627952575684,3.784179449081421,-2.929687261581421,-0.6793212890625,0.1004638671875,0.03466796875
1.395,334,508,628,548,-6.0,30.0,27.0,-3.479003667831421,3.845214605331421,4.08935546875,-0.6513671875,0.0716552734375,0.0665283203125
1.416,334,493,648,548,-7.0,33.0,19.0,5.187987804412842,4.33349609375,8.6669921875,-0.6004638671875,0.0245361328125,0.084228515625
1.417,344,571,682,607,-7.0,33.0,19.0,12.207030296325684,5.737304210662842,11.169432640075684,-0.5904541015625,-0.06103515625,0.0511474609375
1.422,381,713,721,656,-7.0,33.0,19.0,19.95849609375,8.11767578125,14.526366233825684,-0.630126953125,-0.128173828125,-0.04736328125
1.430,402,976,787,785,-7.0,33.0,19.0,32.958984375,8.6669921875,24.536130905151367,-0.66748046875,0.01806640625,-0.184814453125
1.445,438,1306,853,879,-7.0,33.0,19.0,47.241207122802734,2.868652105331421,40.466304779052734,-0.7125244140625,0.3175048828125,-0.3228759765625
1.452,441,1419,917,1005,-7.0,33.0,19.0,49.865718841552734,-7.629394054412842,52.612300872802734,-0.733642578125,0.5128173828125,-0.4356689453125
1.460,473,1592,999,1078,-7.0,33.0,19.0,37.2314453125,-16.11328125,54.260250091552734,-0.6309814453125,0.53369140625,-0.448486328125
1.474,487,1803,1133,1151,-7.0,33.0,19.0,16.66259765625,-24.536130905151367,45.227046966552734,-0.3489990234375,0.4371337890625,-0.2105712890625
1.487,508,1983,1220,1313,-7.0,33.0,19.0,0.54931640625,-38.4521484375,27.099607467651367,0.03076171875,0.1953125,0.207763671875
1.490,536,1951,1424,1428,-7.0,33.0,19.0,0.54931640625,-52.917476654052734,6.713866710662842,0.3365478515625,-0.1126708984375,0.46875
1.524,537,2032,1501,1447,-7.0,29.0,21.0,15.075682640075684,-60.668941497802734,-4.33349609375,0.32763671875,-0.207763671875,0.4193115234375
1.524,509,2141,1650,1592,-7.0,29.0,21.0,34.60693359375,-60.974117279052734,-3.051757574081421,-0.1090087890625,0.1038818359375,0.0755615234375
1.527,506,2379,1874,1689,-7.0,29.0,21.0,50.537105560302734,-52.062984466552734,4.7607421875,-0.8692626953125,0.818115234375,-0.6942138671875
1.534,499,2309,1697,1550,-7.0,29.0,21.0,45.898433685302734,-34.36279296875,11.108397483825684,-1.6043701171875,1.3284912109375,-1.4796142578125
1.542,497,2367,1762,1711,-7.0,29.0,21.0,3.906249761581421,-21.301267623901367,4.33349609375,-2.1060791015625,0.97216796875,-1.3797607421875
1.551,508,2392,1761,1744,-7.0,29.0,21.0,3.906249761581421,-21.301267623901367,4.33349609375,-2.5169677734375,0.31787109375,-0.5665283203125
1.564,527,2443,1703,1613,-7.0,29.0,21.0,-98.38866424560547,-18.37158203125,-14.160155296325684,-2.8271484375,0.072265625,0.166259765625
1.572,513,2394,1796,1750,-7.0,29.0,21.0,-100.46385955810547,-26.184080123901367,-10.620116233825684,-2.8995361328125,0.2977294921875,0.272216796875
1.581,521,2388,1786,1757,-7.0,29.0,21.0,-100.46385955810547,-26.184080123901367,-10.620116233825684,-2.2618408203125,0.507568359375,0.0596923828125
1.595,523,2382,1698,1602,-7.0,29.0,21.0,-11.779784202575684,-23.559568405151367,-9.94873046875,-1.38330078125,0.6165771484375,0.039794921875
1.628,519,2374,1800,1761,-7.0,29.0,19.0,27.770994186401367,-20.385740280151367,-20.01953125,-1.251953125,0.78857421875,-0.0313720703125
1.629,441,3018,2000,1811,-7.0,29.0,19.0,27.770994186401367,-20.385740280151367,-20.01953125,-1.6190185546875,0.7021484375,-0.1903076171875
1.629,508,2284,1735,1704,-7.0,29.0,19.0,23.742673873901367,1.2817381620407104,-28.442380905151367,-1.9027099609375,0.5283203125,-0.2525634765625
1.634,513,2230,1732,1687,-7.0,29.0,19.0,4.45556640625,9.8876953125,-19.47021484375,-1.8818359375,0.4261474609375,-0.2041015625
1.641,502,2167,1681,1659,-7.0,29.0,19.0,4.45556640625,9.8876953125,-19.47021484375,-1.6783447265625,0.361572265625,-0.13916015625
1.654,484,2074,1572,1464,-7.0,29.0,19.0,-13.305663108825684,26.550291061401367,-7.568358898162842,-1.4554443359375,0.3603515625,-0.0885009765625
1.663,473,2012,1610,1529,-7.0,29.0,19.0,-11.718749046325684,36.07177734375,-4.33349609375,-1.2882080078125,0.427001953125,-0.0687255859375
1.670,473,1899,1550,1476,-7.0,29.0,19.0,-11.718749046325684,36.07177734375,-4.33349609375,-1.1629638671875,0.3841552734375,-0.076416015625
1.684,458,1702,1387,1243,-7.0,29.0,19.0,-7.141112804412842,55.175777435302734,2.685546636581421,-1.0081787109375,0.1259765625,-0.0606689453125
1.700,447,1555,1372,1243,-7.0,29.0,19.0,1.0986328125,59.326168060302734,2.868652105331421,-0.8204345703125,-0.1220703125,-0.0062255859375
1.705,432,1334,1225,1091,-7.0,32.0,19.0,1.0986328125,59.326168060302734,2.868652105331421,-0.595703125,-0.22705078125,0.0391845703125
1.724,388,864,1064,806,-7.0,32.0,19.0,35.46142578125,38.63525390625,-1.2817381620407104,-0.3448486328125,-0.16748046875,0.0115966796875
1.725,388,551,1025,644,-7.0,32.0,19.0,45.532222747802734,26.245115280151367,-9.1552734375,-0.192626953125,-0.042724609375,-0.0743408203125
1.732,346,414,860,614,-7.0,32.0,19.0,45.532222747802734,26.245115280151367,-9.1552734375,-0.196533203125,0.109375,-0.2249755859375
1.744,299,416,656,533,-7.0,32.0,19.0,42.663570404052734,22.827146530151367,-28.381345748901367,-0.3797607421875,0.4183349609375,-0.4482421875
1.753,293,428,643,551,-7.0,32.0,19.0,26.184080123901367,22.277830123901367,-26.611326217651367,-0.593994140625,0.6600341796875,-0.53271484375
1.761,291,427,628,546,-7.0,32.0,19.0,26.184080123901367,22.277830123901367,-26.611326217651367,-0.593994140625,0.6600341796875,-0.53271484375
1.774,287,433,601,526,-7.0,32.0,19.0,-21.789548873901367,8.7890625,-32.958984375,-0.53955078125,0.366455078125,-0.2706298828125
1.784,290,441,593,539,-7.0,32.0,19.0,-21.789548873901367,8.7890625,-32.958984375,-0.460693359375,0.2344970703125,-0.1378173828125
1.791,291,437,607,537,-7.0,32.0,19.0,-21.728513717651367,8.30078125,-34.85107421875,-0.460693359375,0.2344970703125,-0.1378173828125
1.828,294,433,619,526,-7.0,31.0,21.0,-12.390135765075684,3.723144292831421,-21.606443405151367,-0.436279296875,0.2119140625,-0.011962890625
1.829,291,490,605,532,-7.0,31.0,21.0,-12.390135765075684,3.723144292831421,-21.606443405151367,-0.4957275390625,0.20947265625,-0.022705078125
1.829,302,467,614,521,-7.0,31.0,21.0,-18.1884765625,0.7934569716453552,-13.244627952575684,-0.4957275390625,0.20947265625,-0.022705078125
1.837,302,462,639,539,-7.0,31.0,21.0,-28.686521530151367,-2.3193359375,-2.563476324081421,-0.609130859375,0.093994140625,-0.0321044921875
1.844,305,466,634,539,-7.0,31.0,21.0,-28.686521530151367,-2.3193359375,-2.563476324081421,-0.612060546875,0.0517578125,-0.003662109375
1.854,306,441,646,553,-7.0,31.0,21.0,-23.986814498901367,-3.540038824081421,1.7700194120407104,-0.612060546875,0.0517578125,-0.003662109375
1.864,304,473,646,555,-7.0,31.0,21.0,-2.990722417831421,-5.737304210662842,8.72802734375,-0.56591796875,0.00048828125,0.0374755859375
1.872,316,523,679,617,-7.0,31.0,21.0,-2.990722417831421,-5.737304210662842,8.72802734375,-0.5946044921875,-0.1212158203125,-0.007568359375
1.882,329,661,722,695,-7.0,31.0,21.0,3.723144292831421,-4.7607421875,11.657713890075684,-0.5946044921875,-0.1212158203125,-0.007568359375
1.896,356,1116,749,838,-7.0,29.0,18.0,23.071287155151367,0.1831054538488388,35.46142578125,-0.66748046875,0.0595703125,-0.219482421875
1.903,378,1383,774,920,-7.0,29.0,18.0,23.071287155151367,0.1831054538488388,35.46142578125,-0.7257080078125,0.3829345703125,-0.3212890625
1.933,389,1422,898,1056,-7.0,29.0,18.0,29.357908248901367,-2.50244140625,52.246089935302734,-0.7257080078125,0.3829345703125,-0.3212890625
1.933,426,1656,1085,1216,-7.0,29.0,18.0,13.732909202575684,-16.66259765625,55.480953216552734,-0.3101806640625,0.476318359375,-0.2012939453125
1.933,442,1772,1228,1268,-7.0,29.0,18.0,13.732909202575684,-16.66259765625,55.480953216552734,0.10009765625,0.1890869140625,0.2113037109375
1.942,482,1840,1390,1428,-7.0,29.0,18.0,-4.8828125,-31.982419967651367,39.12353515625,0.10009765625,0.1890869140625,0.2113037109375
1.957,506,1985,1470,1401,-7.0,29.0,18.0,-11.474608421325684,-58.715816497802734,2.685546636581421,0.3057861328125,-0.3988037109375,0.582275390625
1.970,521,2139,1592,1592,-7.0,29.0,18.0,-11.474608421325684,-58.715816497802734,2.685546636581421,-0.15380859375,-0.01953125,0.152099609375
1.971,508,2312,1691,1519,-7.0,29.0,18.0,10.314940452575684,-55.114742279052734,1.8920897245407104,-0.15380859375,-0.01953125,0.152099609375
1.985,510,2221,1624,1550,-7.0,29.0,18.0,37.29248046875,-37.9638671875,10.803221702575684,-1.6624755859375,1.4512939453125,-1.7108154296875
1.993,497,2254,1714,1748,-8.0,28.0,23.0,39.97802734375,-16.6015625,17.76123046875,-1.6624755859375,1.4512939453125,-1.7108154296875
2.001,518,2320,1757,1766,-8.0,28.0,23.0,-2.563476324081421,-13.366698265075684,9.33837890625,-2.1171875,1.0775146484375,-1.449462890625
2.035,540,2349,1691,1656,-8.0,28.0,23.0,-63.964839935302734,-20.263669967651367,-3.112792730331421,-3.22509765625,0.3037109375,0.1990966796875
2.036,531,2320,1739,1783,-8.0,28.0,23.0,-102.29491424560547,-26.123044967651367,-3.540038824081421,-3.22509765625,0.3037109375,0.1990966796875
2.040,514,2375,1611,1742,-8.0,28.0,23.0,-101.19628143310547,-29.602048873901367,8.11767578125,-3.228515625,0.4495849609375,0.2388916015625
2.044,533,2299,1732,1785,-8.0,28.0,23.0,-62.133785247802734,-26.184080123901367,10.864256858825684,-1.2437744140625,0.405517578125,0.189453125
2.055,526,2337,1770,1750,-8.0,28.0,23.0,2.01416015625,-24.291990280151367,-4.45556640625,-1.2437744140625,0.405517578125,0.189453125
2.060,533,2296,1713,1762,-8.0,28.0,23.0,52.795406341552734,-18.9208984375,-17.76123046875,-1.2081298828125,0.7032470703125,-0.0380859375
2.079,519,2195,1613,1611,-8.0,28.0,23.0,61.157222747802734,-5.920409679412842,-20.568845748901367,-1.967041015625,0.685546875,-0.36328125
2.083,518,2303,1529,1675,-8.0,28.0,23.0,36.92626953125,5.371093273162842,-14.587401390075684,-1.967041015625,0.685546875,-0.36328125
2.091,526,2082,1659,1709,-4.0,29.0,19.0,4.7607421875,11.291502952575684,-8.056640625,-1.953857421875,0.5052490234375,-0.2413330078125
2.104,512,1931,1531,1504,-4.0,29.0,19.0,-14.648436546325684,15.563963890075684,-6.225585460662842,-1.449462890625,0.300537109375,-0.0413818359375
2.135,508,1891,1552,1577,-4.0,29.0,19.0,-16.7236328125,20.385740280151367,-5.798339366912842,-1.449462890625,0.300537109375,-0.0413818359375
2.136,461,2087,1323,1369,-4.0,29.0,19.0,-10.131834983825684,24.719236373901367,-3.601073980331421,-1.2227783203125,0.336181640625,0.01123046875
2.136,466,1616,1400,1320,-4.0,29.0,19.0,-2.13623046875,29.724119186401367,-0.2441406100988388,-0.891845703125,0.1317138671875,-0.1162109375
2.144,442,1437,1276,1248,-4.0,29.0,19.0,8.544921875,35.94970703125,2.685546636581421,-0.891845703125,0.1317138671875,-0.1162109375
2.150,418,1231,1132,1085,-4.0,29.0,19.0,21.240232467651367,39.0625,3.784179449081421,-0.6917724609375,0.040283203125,-0.211181640625
2.164,390,761,973,797,-4.0,29.0,19.0,26.916501998901367,37.59765625,1.8310545682907104,-0.1844482421875,-0.0828857421875,-0.306884765625
2.172,378,497,932,679,-4.0,29.0,19.0,22.521970748901367,34.1796875,-4.150390625,-0.1844482421875,-0.0828857421875,-0.306884765625
2.180,337,378,777,574,-4.0,29.0,19.0,16.05224609375,29.357908248901367,-15.075682640075684,-0.1524658203125,-0.07763671875,-0.296630859375
2.197,308,402,644,527,-6.0,29.0,25.0,12.512206077575684,24.230955123901367,-24.597166061401367,-0.2901611328125,0.211181640625,-0.3394775390625
2.203,302,423,636,540,-6.0,29.0,25.0,0.6103515625,16.2353515625,-25.390623092651367,-0.5048828125,0.61767578125,-0.3721923828125
2.241,299,409,620,540,-6.0,29.0,25.0,-30.151365280151367,4.2724609375,-23.559568405151367,-0.574951171875,0.7325439453125,-0.281982421875
2.241,292,418,564,499,-6.0,29.0,25.0,-62.133785247802734,-1.2817381620407104,-28.015134811401367,-0.53125,0.5167236328125,-0.17431640625
2.241,294,418,601,535,-6.0,29.0,25.0,-70.00732421875,2.868652105331421,-34.36279296875,-0.5018310546875,0.2880859375,-0.0771484375
2.242,294,419,570,497,-6.0,29.0,25.0,-57.739253997802734,5.065917491912842,-34.85107421875,-0.49169921875,0.17919921875,0.045654296875
2.254,294,414,607,537,-6.0,29.0,25.0,-44.067378997802734,1.3427733182907104,-30.944822311401367,-0.512451171875,0.120361328125,0.0994873046875
2.263,296,411,628,555,-6.0,29.0,25.0,-35.0341796875,-2.807616949081421,-25.207517623901367,-0.55419921875,0.0802001953125,0.06689453125
2.270,298,419,625,553,-6.0,29.0,25.0,-27.709959030151367,-6.103515148162842,-18.24951171875,-0.592041015625,0.0570068359375,0.03125
2.284,304,432,620,546,-4.0,32.0,24.0,-20.690916061401367,-9.765625,-10.803221702575684,-0.5888671875,0.0457763671875,0.0380859375
2.294,304,438,630,563,-4.0,32.0,24.0,-13.610838890075684,-12.573241233825684,-3.601073980331421,-0.543212890625,0.04150390625,0.0594482421875
2.306,304,442,638,571,-4.0,32.0,24.0,-4.8828125,-13.122557640075684,2.563476324081421,-0.4903564453125,0.0333251953125,0.0753173828125
2.316,310,442,666,576,-4.0,32.0,24.0,4.08935546875,-12.207030296325684,7.751464366912842,-0.4482421875,0.0067138671875,0.0882568359375
2.346,321,497,679,593,-4.0,32.0,24.0,10.437010765075684,-10.192870140075684,12.268065452575684,-0.4324951171875,-0.053955078125,0.0848388671875
2.348,356,597,713,584,-4.0,32.0,24.0,15.441893577575684,-6.286620616912842,17.333984375,-0.5040283203125,-0.2037353515625,0.032470703125
2.348,364,1131,787,846,-4.0,32.0,24.0,25.207517623901367,-0.9155272841453552,27.770994186401367,-0.60498046875,-0.232421875,-0.0655517578125
2.353,384,1331,865,992,-4.0,32.0,24.0,41.076656341552734,1.8310545682907104,47.973628997802734,-0.6707763671875,0.0692138671875,-0.1810302734375
2.361,406,1447,929,1070,-4.0,32.0,24.0,50.354000091552734,-1.8310545682907104,70.12939453125,-0.7464599609375,0.451416015625,-0.30078125
2.375,454,1679,1079,1133,-4.0,32.0,24.0,43.762203216552734,-7.751464366912842,80.99364471435547,-0.64892578125,0.6759033203125,-0.357421875
2.382,462,1904,1209,1326,-3.0,26.0,20.0,23.803709030151367,-17.2119140625,69.76318359375,-0.208740234375,0.5341796875,-0.0897216796875
2.390,499,1840,1453,1445,-3.0,26.0,20.0,5.737304210662842,-36.31591796875,37.9638671875,0.324462890625,-0.0205078125,0.404296875
2.404,513,1931,1557,1481,-3.0,26.0,20.0,10.986327171325684,-56.823726654052734,8.23974609375,0.5589599609375,-0.5223388671875,0.6927490234375
2.422,508,2003,1679,1681,-3.0,26.0,20.0,41.992183685302734,-66.0400390625,2.44140625,0.2608642578125,-0.3282470703125,0.5618896484375
2.453,445,2240,1582,1596,-3.0,26.0,20.0,81.84813690185547,-55.419918060302734,18.310546875,-0.5374755859375,0.8238525390625,-0.3232421875
2.453,509,2717,1779,1803,-3.0,26.0,20.0,91.97997283935547,-28.503416061401367,31.249998092651367,-1.3953857421875,1.8985595703125,-1.5216064453125
2.453,568,2658,1437,1638,-3.0,26.0,20.0,38.6962890625,-14.099120140075684,17.7001953125,-1.9405517578125,1.63330078125,-1.672607421875
2.453,537,2443,1772,1206,-3.0,26.0,20.0,-43.457027435302734,-20.202634811401367,-12.451170921325684,-2.447021484375,0.66748046875,-0.9119873046875
2.465,521,2361,1753,1616,-3.0,26.0,20.0,-95.94725799560547,-28.320310592651367,-27.526853561401367,-3.204345703125,0.2755126953125,-0.1553955078125
2.472,531,2286,1779,1792,-3.0,26.0,20.0,-105.34667205810547,-32.40966796875,-13.916014671325684,-3.5333251953125,0.3037109375,0.1649169921875
2.480,532,2273,1775,1791,-4.0,25.0,22.0,-79.833984375,-32.71484375,0.2441406100988388,-2.56640625,0.1600341796875,0.1944580078125
2.494,543,2233,1675,1624,-4.0,25.0,22.0,-30.578611373901367,-33.447265625,-10.986327171325684,-1.32763671875,0.26123046875,0.2943115234375
2.502,527,2230,1750,1786,-4.0,25.0,22.0,18.5546875,-26.977537155151367,-28.015134811401367,-1.0889892578125,0.607666015625,0.1536865234375
2.510,523,2203,1735,1773,-4.0,25.0,22.0,41.259761810302734,-9.94873046875,-31.494138717651367,-1.5302734375,0.705322265625,-0.1181640625
2.555,525,2144,1615,1575,-4.0,25.0,22.0,30.822751998901367,6.286620616912842,-22.155759811401367,-1.97802734375,0.6942138671875,-0.185302734375
2.559,522,2722,1616,1704,-4.0,25.0,22.0,0.8544921278953552,18.24951171875,-11.169432640075684,-2.0543212890625,0.606201171875,-0.1219482421875
2.559,513,2111,1598,1636,-4.0,25.0,22.0,-25.939939498901367,28.198240280151367,-8.056640625,-1.811767578125,0.4395751953125,-0.0552978515625
2.559,495,1904,1567,1456,-4.0,25.0,22.0,-35.5224609375,37.17041015625,-8.97216796875,-1.5081787109375,0.3619384765625,-0.004638671875
2.565,497,1894,1598,1506,-4.0,25.0,22.0,-30.700681686401367,42.602535247802734,-8.60595703125,-1.275146484375,0.373779296875,0.0224609375
2.573,406,1850,1272,1348,-4.0,25.0,22.0,-18.24951171875,42.968746185302734,-7.385253429412842,-1.089599609375,0.3134765625,-0.041259765625
2.584,447,1529,1248,1236,-5.0,31.0,26.0,2.197265625,40.10009765625,-6.896972179412842,-0.9149169921875,0.177001953125,-0.1614990234375
2.592,416,1283,1120,1065,-5.0,31.0,26.0,24.169919967651367,35.15625,-7.568358898162842,-0.7021484375,0.05810546875,-0.228271484375
2.600,390,1005,1056,929,-5.0,31.0,26.0,35.46142578125,29.846189498901367,-8.9111328125,-0.4102783203125,-0.0528564453125,-0.2510986328125
2.614,354,465,900,636,-5.0,31.0,26.0,33.99658203125,25.939939498901367,-11.718749046325684,-0.146728515625,-0.16796875,-0.2457275390625
2.624,317,371,754,568,-5.0,31.0,26.0,28.747556686401367,22.705076217651367,-18.73779296875,-0.0965576171875,-0.1484375,-0.232421875
2.659,294,398,645,546,-5.0,31.0,26.0,24.291990280151367,17.7001953125,-24.291990280151367,-0.312744140625,0.25634765625,-0.2659912109375
2.659,291,407,623,525,-5.0,31.0,26.0,3.967284917831421,6.958007335662842,-19.53125,-0.5386962890625,0.7950439453125,-0.24853515625
2.661,291,413,620,546,-5.0,31.0,26.0,-44.738765716552734,-5.615233898162842,-13.671874046325684,-0.5455322265625,0.8765869140625,-0.1502685546875
2.662,294,420,591,479,-5.0,31.0,26.0,-91.79686737060547,-6.530761241912842,-20.202634811401367,-0.4769287109375,0.527099609375,-0.1131591796875
2.682,282,402,606,532,-4.0,30.0,25.0,-100.46385955810547,3.417968511581421,-32.3486328125,-0.4739990234375,0.209228515625,-0.107666015625
2.683,277,431,601,539,-4.0,30.0,25.0,-78.67431640625,9.6435546875,-37.353515625,-0.5272216796875,0.093017578125,-0.041748046875
2.693,280,416,617,553,-4.0,30.0,25.0,-78.67431640625,9.6435546875,-37.353515625,-0.574462890625,0.0819091796875,0.0181884765625
2.708,279,419,614,540,-4.0,30.0,25.0,-41.931148529052734,2.563476324081421,-26.123044967651367,-0.579345703125,0.0771484375,0.0194091796875
2.713,289,426,621,555,-4.0,30.0,25.0,-37.29248046875,-2.563476324081421,-19.71435546875,-0.558349609375,0.046875,0.00341796875
2.720,289,427,624,555,-4.0,30.0,25.0,-37.29248046875,-2.563476324081421,-19.71435546875,-0.5296630859375,0.0101318359375,0.0087890625
2.747,290,437,616,546,-4.0,30.0,25.0,-30.395505905151367,-7.629394054412842,-8.97216796875,-0.5050048828125,-0.00537109375,0.0338134765625
2.755,300,495,593,521,-4.0,30.0,25.0,-22.033689498901367,-7.263183116912842,-1.9531248807907104,-0.4892578125,-0.002685546875,0.0745849609375
2.755,296,458,625,561,-4.0,30.0,25.0,-22.033689498901367,-7.263183116912842,-1.9531248807907104,-0.4737548828125,-0.0068359375,0.134033203125
2.770,299,481,628,546,-4.0,30.0,25.0,-1.2817381620407104,-5.0048828125,10.192870140075684,-0.449462890625,-0.03466796875,0.177001953125
2.776,289,588,707,551,-2.0,28.0,22.0,5.615233898162842,-1.7089842557907104,15.075682640075684,-0.43359375,-0.1075439453125,0.1634521484375
2.784,316,723,714,648,-2.0,28.0,22.0,5.615233898162842,-1.7089842557907104,15.075682640075684,-0.4873046875,-0.289794921875,0.075439453125
2.794,359,1206,757,887,-2.0,28.0,22.0,28.686521530151367,8.36181640625,35.94970703125,-0.5728759765625,-0.23193359375,-0.0819091796875
2.802,376,1316,826,975,-2.0,28.0,22.0,46.997066497802734,8.9111328125,58.959957122802734,-0.76220703125,0.25,-0.24365234375
2.811,385,1434,895,1042,-2.0,28.0,22.0,46.997066497802734,8.9111328125,58.959957122802734,-0.9385986328125,0.731689453125,-0.3839111328125
2.824,402,1792,959,1108,-2.0,28.0,22.0,31.982419967651367,-5.676269054412842,78.4912109375,-0.7783203125,0.7542724609375,-0.3572998046875
2.850,442,1709,1224,1317,-2.0,28.0,22.0,-0.7934569716453552,-19.83642578125,54.870601654052734,-0.283447265625,0.3792724609375,0.0516357421875
2.850,485,1825,1359,1409,-2.0,28.0,22.0,-0.7934569716453552,-19.83642578125,54.870601654052734,0.2164306640625,-0.1240234375,0.5390625
2.854,504,1899,1582,1552,-2.0,28.0,22.0,-4.82177734375,-49.804683685302734,-6.530761241912842,0.3609619140625,-0.457275390625,0.66748046875
2.877,505,1948,1662,1613,-2.0,28.0,22.0,33.14208984375,-52.246089935302734,-8.60595703125,0.036376953125,-0.114013671875,0.35205078125
2.878,501,2035,1704,1669,-3.0,28.0,19.0,33.14208984375,-52.246089935302734,-8.60595703125,-0.6824951171875,0.935546875,-0.561279296875
2.884,500,2151,1761,1721,-3.0,28.0,19.0,79.28466796875,-17.15087890625,23.925779342651367,-1.427490234375,1.7869873046875,-1.439453125
2.892,512,2205,1741,1735,-3.0,28.0,19.0,30.151365280151367,-6.530761241912842,12.451170921325684,-1.9014892578125,1.4544677734375,-1.1790771484375
2.900,514,2225,1733,1757,-3.0,28.0,19.0,30.151365280151367,-6.530761241912842,12.451170921325684,-1.9014892578125,1.4544677734375,-1.1790771484375
2.914,535,2340,1700,1648,-3.0,28.0,19.0,-84.47264862060547,-10.681151390075684,-31.005857467651367,-2.746826171875,0.039794921875,0.1444091796875
2.923,523,2287,1762,1792,-3.0,28.0,19.0,-84.47264862060547,-10.681151390075684,-31.005857467651367,-3.0775146484375,0.0511474609375,0.16748046875
2.931,521,2246,1713,1774,-3.0,28.0,19.0,-77.57568359375,-10.986327171325684,-25.268552780151367,-3.0775146484375,0.0511474609375,0.16748046875
2.952,518,2238,1656,1636,-3.0,28.0,19.0,4.82177734375,-12.512206077575684,-6.835937023162842,-1.6907958984375,0.48779296875,-0.23046875
2.953,535,2238,1748,1790,-3.0,28.0,19.0,4.82177734375,-12.512206077575684,-6.835937023162842,-1.3692626953125,0.7266845703125,-0.2021484375
2.962,525,2204,1700,1766,-3.0,28.0,19.0,33.0810546875,-16.2353515625,-16.78466796875,-1.3692626953125,0.7266845703125,-0.2021484375
2.987,514,2158,1646,1600,-4.0,31.0,20.0,25.512693405151367,-12.573241233825684,-28.442380905151367,-1.9140625,0.640869140625,-0.02587890625
2.987,527,2207,1557,1675,-4.0,31.0,20.0,25.512693405151367,-12.573241233825684,-28.442380905151367,-1.9405517578125,0.5313720703125,0.002685546875
2.990,513,2047,1653,1681,-4.0,31.0,20.0,3.112792730331421,-3.173827886581421,-24.108884811401367,-1.9405517578125,0.5313720703125,0.002685546875
3.004,497,1905,1521,1492,-4.0,31.0,20.0,-21.484373092651367,19.1650390625,-19.34814453125,-1.4764404296875,0.3385009765625,-0.0443115234375
3.012,484,1846,1545,1557,-4.0,31.0,20.0,-21.484373092651367,19.1650390625,-19.34814453125,-1.2508544921875,0.3875732421875,-0.025634765625
3.021,484,1772,1488,1497,-4.0,31.0,20.0,-18.85986328125,27.160642623901367,-17.39501953125,-1.2508544921875,0.3875732421875,-0.025634765625
3.055,445,1607,1323,957,-4.0,31.0,20.0,-8.72802734375,43.273921966552734,-11.779784202575684,-0.921875,0.238525390625,-0.0389404296875
3.056,431,1456,1275,1078,-4.0,31.0,20.0,-8.72802734375,43.273921966552734,-11.779784202575684,-0.7581787109375,0.05078125,-0.062255859375
3.056,378,1590,1005,1112,-4.0,31.0,20.0,-2.44140625,50.231929779052734,-10.009765625,-0.7581787109375,0.05078125,-0.062255859375
3.065,361,888,962,853,-4.0,31.0,20.0,6.286620616912842,42.968746185302734,-15.380858421325684,-0.1595458984375,-0.373779296875,-0.1805419921875
3.073,348,742,861,773,-2.0,27.0,25.0,6.286620616912842,42.968746185302734,-15.380858421325684,-0.0501708984375,-0.4102783203125,-0.2711181640625
3.085,324,467,829,654,-2.0,27.0,25.0,14.831542015075684,35.2783203125,-22.216794967651367,-0.0501708984375,-0.4102783203125,-0.2711181640625
3.094,302,388,691,551,-2.0,27.0,25.0,25.634763717651367,22.277830123901367,-19.83642578125,-0.3880615234375,0.4405517578125,-0.35107421875
3.102,299,379,675,555,-2.0,27.0,25.0,25.634763717651367,22.277830123901367,-19.83642578125,-0.514892578125,0.7811279296875,-0.2451171875
3.110,306,401,659,548,-2.0,27.0,25.0,-3.051757574081421,12.451170921325684,-12.939452171325684,-0.514892578125,0.7811279296875,-0.2451171875
3.150,304,414,632,536,-2.0,27.0,25.0,-50.903316497802734,6.469726085662842,-8.11767578125,-0.6353759765625,0.477783203125,-0.0592041015625
3.158,309,426,630,539,-2.0,27.0,25.0,-86.54784393310547,6.713866710662842,-10.070799827575684,-0.6353759765625,0.477783203125,-0.0592041015625
3.163,315,433,628,539,-2.0,27.0,25.0,-90.75926971435547,9.521484375,-16.357421875,-0.677490234375,0.266357421875,-0.001708984375
3.168,304,428,631,533,-2.0,27.0,25.0,-73.3642578125,8.7890625,-20.812986373901367,-0.6751708984375,0.1199951171875,0.137451171875
3.169,306,466,625,540,-2.0,27.0,25.0,-52.062984466552734,3.601073980331421,-21.301267623901367,-0.6751708984375,0.1199951171875,0.137451171875
3.171,316,438,644,548,-3.0,28.0,20.0,-34.912109375,-0.9765624403953552,-18.1884765625,-0.65380859375,0.0682373046875,0.13037109375
3.192,318,439,646,538,-3.0,28.0,20.0,-21.118162155151367,-2.25830078125,-12.268065452575684,-0.6060791015625,0.020751953125,0.0692138671875
3.193,324,445,656,555,-3.0,28.0,20.0,-8.97216796875,-1.7700194120407104,-4.7607421875,-0.6060791015625,0.020751953125,0.0692138671875
3.205,321,456,658,562,-3.0,28.0,20.0,1.2817381620407104,0.0610351525247097,3.051757574081421,-0.5733642578125,0.0213623046875,0.0701904296875
3.215,324,481,654,553,-3.0,28.0,20.0,9.70458984375,3.295898199081421,10.253905296325684,-0.5443115234375,-0.03076171875,0.093994140625
3.223,330,525,682,598,-3.0,28.0,20.0,16.54052734375,6.774901866912842,16.11328125,-0.5443115234375,-0.03076171875,0.093994140625
3.231,334,679,693,677,-3.0,28.0,20.0,23.315427780151367,10.009765625,21.850584030151367,-0.5887451171875,-0.12939453125,0.060791015625
3.260,364,1156,697,816,-3.0,28.0,20.0,34.85107421875,12.756346702575684,31.372068405151367,-0.6378173828125,0.1036376953125,-0.125732421875
3.261,376,1305,780,951,-3.0,28.0,20.0,48.706050872802734,13.000487327575684,44.860836029052734,-0.6378173828125,0.1036376953125,-0.125732421875
3.261,385,1419,820,1012,-3.0,28.0,20.0,54.260250091552734,9.09423828125,57.556148529052734,-0.7137451171875,0.355712890625,-0.2879638671875
3.275,416,1632,942,1083,-5.0,29.0,20.0,46.936031341552734,1.7700194120407104,64.63623046875,-0.4559326171875,0.44677734375,-0.357666015625
3.282,441,1838,1050,1251,-5.0,29.0,20.0,21.972654342651367,-9.33837890625,58.593746185302734,-0.4559326171875,0.44677734375,-0.357666015625
3.297,469,1808,1292,1380,-5.0,29.0,20.0,-15.930174827575684,-24.902341842651367,38.330078125,-0.0489501953125,0.03466796875,0.0736083984375
3.304,485,1927,1497,1422,-5.0,29.0,20.0,-34.48486328125,-41.320796966552734,17.88330078125,0.437744140625,-0.5537109375,0.8973388671875
3.318,491,2000,1599,1608,-5.0,29.0,20.0,-6.469726085662842,-54.260250091552734,12.512206077575684,0.437744140625,-0.5537109375,0.8973388671875
3.321,508,2128,1648,1640,-5.0,29.0,20.0,53.710933685302734,-57.922359466552734,21.911619186401367,0.073974609375,-0.0511474609375,0.5513916015625
3.334,501,2188,1588,1593,-5.0,29.0,20.0,104.12596893310547,-37.78076171875,36.376953125,-0.6812744140625,1.143798828125,-0.6632080078125
3.363,508,2266,1691,1735,-5.0,29.0,20.0,98.57176971435547,-2.01416015625,40.527339935302734,-1.43408203125,1.99951171875,-1.69580078125
3.363,501,2317,1709,1775,-5.0,29.0,20.0,23.071287155151367,11.962889671325684,18.9208984375,-1.885498046875,1.5059814453125,-1.326171875
3.365,424,2861,1705,1584,-5.0,29.0,23.0,-66.650390625,3.479003667831421,-12.756346702575684,-2.238037109375,0.4864501953125,-0.4237060546875
3.374,537,2368,1742,1798,-5.0,29.0,23.0,-105.22460174560547,-3.723144292831421,-24.230955123901367,-2.805908203125,0.03369140625,0.0411376953125
3.380,537,2559,1550,1686,-5.0,29.0,23.0,-89.84374237060547,-3.662109136581421,-7.324218273162842,-3.343505859375,0.2386474609375,-0.0045166015625
3.395,512,2330,1636,1608,-5.0,29.0,23.0,-55.236812591552734,-0.54931640625,14.892577171325684,-2.7835693359375,0.273193359375,-0.1434326171875
3.405,518,2295,1715,1757,-5.0,29.0,23.0,-9.6435546875,-8.72802734375,10.864256858825684,-1.5709228515625,0.2247314453125,-0.1033935546875
3.410,518,2292,1681,1739,-5.0,29.0,23.0,40.710445404052734,-22.338865280151367,-8.056640625,-1.1796875,0.6392822265625,-0.2275390625
3.431,509,2242,1604,1592,-5.0,29.0,23.0,57.739253997802734,-23.315427780151367,-18.9208984375,-1.5072021484375,0.855712890625,-0.3800048828125
3.434,539,2691,1533,1711,-5.0,29.0,23.0,34.3017578125,-15.075682640075684,-19.59228515625,-1.9124755859375,0.764404296875,-0.3004150390625
3.464,497,2207,1636,1650,-5.0,29.0,23.0,-2.13623046875,-5.615233898162842,-13.305663108825684,-2.0379638671875,0.5986328125,-0.10498046875
3.465,507,2484,1623,1634,-5.0,29.0,23.0,-26.855466842651367,4.0283203125,-8.97216796875,-1.8546142578125,0.419921875,-0.010009765625
3.465,508,2074,1694,1608,-4.0,28.0,24.0,-30.395505905151367,13.671874046325684,-8.23974609375,-1.5394287109375,0.3570556640625,-0.001708984375
3.470,497,1864,1504,1509,-4.0,28.0,24.0,-21.545408248901367,20.202634811401367,-8.056640625,-1.2557373046875,0.383056640625,0.024169921875
3.484,487,1722,1355,1308,-4.0,28.0,24.0,-12.329100608825684,23.437498092651367,-7.141112804412842,-1.0377197265625,0.3546142578125,0.0416259765625
3.493,458,1635,1289,1310,-4.0,28.0,24.0,-2.38037109375,27.770994186401367,-4.5166015625,-0.8839111328125,0.2513427734375,-0.010986328125
3.500,438,1529,1173,1214,-4.0,28.0,24.0,10.742186546325684,33.447265625,-0.30517578125,-0.7540283203125,0.1556396484375,-0.0899658203125
3.514,402,1224,977,963,-4.0,28.0,24.0,20.812986373901367,35.58349609375,2.624511480331421,-0.5596923828125,0.0594482421875,-0.1787109375
3.523,391,964,959,899,-4.0,28.0,24.0,23.803709030151367,34.0576171875,0.6713866591453552,-0.3070068359375,-0.09130859375,-0.274658203125
3.531,383,725,902,767,-4.0,28.0,24.0,24.536130905151367,31.738279342651367,-6.286620616912842,-0.1455078125,-0.249267578125,-0.3223876953125
3.567,354,401,788,568,-4.0,28.0,24.0,25.207517623901367,30.029294967651367,-13.671874046325684,-0.16259765625,-0.1754150390625,-0.3209228515625
3.569,346,382,731,548,-4.0,28.0,24.0,20.568845748901367,27.770994186401367,-15.686034202575684,-0.2779541015625,0.174560546875,-0.2840576171875
3.570,317,371,679,500,-4.0,28.0,17.0,4.0283203125,22.033689498901367,-13.366698265075684,-0.423828125,0.4998779296875,-0.22412109375
3.576,323,401,648,526,-4.0,28.0,17.0,-23.132322311401367,14.831542015075684,-12.207030296325684,-0.5848388671875,0.5955810546875,-0.16650390625
3.582,318,413,625,527,-4.0,28.0,17.0,-47.790523529052734,10.253905296325684,-16.66259765625,-0.689208984375,0.4755859375,-0.11572265625
3.590,318,411,632,524,-4.0,28.0,17.0,-55.297847747802734,8.97216796875,-25.085447311401367,-0.715087890625,0.3045654296875,-0.0460205078125
3.604,315,418,614,514,-4.0,28.0,17.0,-46.203609466552734,8.60595703125,-29.113767623901367,-0.71044921875,0.216552734375,0.0504150390625
3.617,317,417,631,531,-4.0,28.0,17.0,-31.982419967651367,6.652831554412842,-26.367185592651367,-0.69677734375,0.192626953125,0.1187744140625
3.622,323,424,628,523,-4.0,28.0,17.0,-19.53125,3.967284917831421,-21.240232467651367,-0.683837890625,0.1741943359375,0.126220703125
3.639,324,424,628,508,-4.0,28.0,17.0,-9.6435546875,2.197265625,-15.502928733825684,-0.670654296875,0.1505126953125,0.0943603515625
3.643,318,414,646,533,-4.0,28.0,17.0,-1.2817381620407104,1.8920897245407104,-8.72802734375,-0.64453125,0.142578125,0.052490234375
3.657,330,430,631,518,-4.0,28.0,17.0,6.042479991912842,3.112792730331421,-0.9765624403953552,-0.6025390625,0.1614990234375,0.012939453125
3.669,342,454,628,512,-1.0,32.0,19.0,11.596678733825684,5.493163585662842,7.019042491912842,-0.5595703125,0.1871337890625,0.0015869140625
3.673,338,445,640,535,-1.0,32.0,19.0,13.671874046325684,7.141112804412842,13.122557640075684,-0.520751953125,0.17822265625,0.033935546875
3.682,336,481,636,543,-1.0,32.0,19.0,12.145995140075684,7.873534679412842,16.11328125,-0.51220703125,0.112548828125,0.064697265625
3.695,343,598,639,578,-1.0,32.0,19.0,11.413573265075684,9.033203125,18.06640625,-0.550537109375,-0.00439453125,0.0458984375
3.702,349,898,651,735,-1.0,32.0,19.0,18.9208984375,9.3994140625,23.071287155151367,-0.5833740234375,-0.029541015625,-0.02490234375
3.711,359,1191,667,853,-1.0,32.0,19.0,34.5458984375,5.737304210662842,32.65380859375,-0.5770263671875,0.1181640625,-0.114501953125
3.726,371,1419,735,931,-1.0,32.0,19.0,46.020503997802734,-1.4038084745407104,43.273921966552734,-0.619384765625,0.3193359375,-0.220458984375
3.734,401,1592,818,1078,-1.0,32.0,19.0,46.020503997802734,-6.469726085662842,51.757808685302734,-0.59765625,0.53466796875,-0.3515625
3.751,430,1711,933,1160,-1.0,32.0,19.0,33.87451171875,-11.962889671325684,49.926753997802734,-0.3145751953125,0.581298828125,-0.2823486328125
3.781,465,1838,1317,1386,-3.0,29.0,20.0,13.793944358825684,-30.212400436401367,28.503416061401367,0.1846923828125,0.2156982421875,0.1649169921875
3.783,490,1941,1456,1476,-3.0,29.0,20.0,3.051757574081421,-59.204097747802734,-2.990722417831421,0.5511474609375,-0.400634765625,0.647216796875
3.784,506,1970,1543,1588,-3.0,29.0,20.0,21.118162155151367,-80.13916015625,-17.2119140625,0.41748046875,-0.640869140625,0.6663818359375
3.785,523,2128,1604,1632,-3.0,29.0,20.0,70.25146484375,-78.2470703125,-1.7089842557907104,-0.2608642578125,0.0711669921875,-0.0693359375
3.793,512,2242,1640,1693,-3.0,29.0,20.0,112.36571502685547,-50.781246185302734,22.583005905151367,-1.1939697265625,1.416748046875,-1.322265625
3.801,509,2308,1675,1656,-3.0,29.0,20.0,84.83885955810547,-20.629880905151367,23.559568405151367,-1.8380126953125,1.91357421875,-1.82666015625
3.815,531,2309,1613,1580,-3.0,29.0,20.0,-12.084959983825684,-16.11328125,-5.065917491912842,-2.173828125,1.168701171875,-1.090087890625
3.829,541,2323,1704,1770,-3.0,29.0,20.0,-101.44042205810547,-21.667478561401367,-30.578611373901367,-2.572509765625,0.2568359375,-0.1109619140625
3.832,539,2381,1742,1783,-3.0,29.0,20.0,-101.44042205810547,-21.667478561401367,-30.578611373901367,-2.9921875,-0.1754150390625,0.393798828125
3.844,536,2271,1610,1635,-3.0,29.0,20.0,-95.94725799560547,-20.080564498901367,-15.075682640075684,-2.99609375,-0.012939453125,0.310546875
3.853,513,2333,1709,1715,-4.0,27.0,21.0,-33.3251953125,-15.380858421325684,0.4882812201976776,-2.1727294921875,0.259765625,0.069580078125
3.865,527,2282,1695,1752,-4.0,27.0,21.0,-33.3251953125,-15.380858421325684,0.4882812201976776,-1.3702392578125,0.549072265625,-0.01220703125
3.881,521,2263,1627,1602,-4.0,27.0,21.0,37.41455078125,-6.286620616912842,-6.347655773162842,-1.4202880859375,0.7593994140625,-0.0667724609375
3.883,518,2395,1499,1666,-4.0,27.0,21.0,23.315427780151367,9.033203125,-7.629394054412842,-1.7911376953125,0.6680908203125,-0.1063232421875
3.891,497,2415,1474,1597,-4.0,27.0,21.0,23.315427780151367,9.033203125,-7.629394054412842,-1.9736328125,0.5623779296875,-0.10009765625
3.905,508,2104,1490,1529,-4.0,27.0,21.0,-16.41845703125,33.5693359375,3.295898199081421,-1.8958740234375,0.49365234375,-0.10302734375
3.913,499,2041,1524,1611,-4.0,27.0,21.0,-23.254392623901367,40.405269622802734,3.723144292831421,-1.673828125,0.4285888671875,-0.1202392578125
3.920,495,1983,1494,1550,-4.0,27.0,21.0,-23.254392623901367,40.405269622802734,3.723144292831421,-1.3997802734375,0.406005859375,-0.078857421875
3.936,468,1862,1336,1344,-4.0,27.0,21.0,-9.521484375,42.236324310302734,-3.845214605331421,-1.13232421875,0.35302734375,-0.00439453125
3.943,454,1775,1334,1365,-4.0,27.0,21.0,7.080077648162842,40.10009765625,-5.065917491912842,-0.9068603515625,0.21337890625,-0.0091552734375
3.950,437,1785,1266,1280,-4.0,30.0,20.0,7.080077648162842,40.10009765625,-5.065917491912842,-0.7176513671875,0.0819091796875,-0.0997314453125
3.977,400,1375,1004,1000,-4.0,30.0,20.0,55.114742279052734,34.1796875,-4.08935546875,-0.513671875,0.0301513671875,-0.2215576171875
3.978,388,1116,994,842,-4.0,30.0,20.0,63.720699310302734,31.494138717651367,-3.540038824081421,-0.2833251953125,0.009521484375,-0.355712890625
3.981,371,907,917,853,-4.0,30.0,20.0,63.720699310302734,31.494138717651367,-3.540038824081421,-0.1453857421875,-0.1025390625,-0.4608154296875
3.997,334,445,808,601,-4.0,30.0,20.0,45.471187591552734,34.72900390625,-13.916014671325684,-0.1705322265625,-0.1038818359375,-0.4608154296875
4.003,316,383,731,571,-4.0,30.0,20.0,31.494138717651367,32.958984375,-17.27294921875,-0.2872314453125,0.247314453125,-0.3704833984375
4.011,310,374,691,546,-4.0,30.0,20.0,31.494138717651367,32.958984375,-17.27294921875,-0.455078125,0.6605224609375,-0.2763671875
4.025,313,387,654,522,-4.0,30.0,20.0,-30.517576217651367,16.17431640625,-10.742186546325684,-0.5897216796875,0.7803955078125,-0.1630859375
4.045,313,401,658,538,-4.0,30.0,20.0,-71.6552734375,6.896972179412842,-14.648436546325684,-0.6312255859375,0.5699462890625,-0.0238037109375
4.048,299,388,678,495,-4.0,30.0,20.0,-71.6552734375,6.896972179412842,-14.648436546325684,-0.6312255859375,0.5699462890625,-0.0238037109375
4.055,292,388,631,540,-3.0,29.0,18.0,-74.89013671875,5.859374523162842,-32.2265625,-0.6929931640625,0.0968017578125,0.075927734375
4.081,289,391,639,545,-3.0,29.0,18.0,-74.89013671875,5.859374523162842,-32.2265625,-0.68017578125,0.0860595703125,0.039306640625
4.081,292,388,643,551,-3.0,29.0,18.0,-44.372554779052734,8.1787109375,-28.869626998901367,-0.68017578125,0.0860595703125,0.039306640625
4.084,294,401,653,552,-3.0,29.0,18.0,-12.451170921325684,2.807616949081421,-13.122557640075684,-0.5782470703125,0.1041259765625,-0.0242919921875
4.093,298,408,652,551,-3.0,29.0,18.0,-12.451170921325684,2.807616949081421,-13.122557640075684,-0.536376953125,0.0693359375,-0.0247802734375
4.107,304,411,651,552,-3.0,29.0,18.0,-11.413573265075684,-1.4038084745407104,-7.324218273162842,-0.536376953125,0.0693359375,-0.0247802734375
4.114,316,433,644,533,-3.0,29.0,18.0,3.051757574081421,-4.69970703125,3.662109136581421,-0.4765625,0.0416259765625,-0.0048828125
4.123,318,468,654,571,-3.0,29.0,18.0,3.051757574081421,-4.69970703125,3.662109136581421,-0.502197265625,-0.010986328125,0.0028076171875
4.131,328,527,660,587,-3.0,29.0,18.0,12.878417015075684,-5.432128429412842,9.58251953125,-0.502197265625,-0.010986328125,0.0028076171875
4.153,344,980,638,736,-4.0,29.0,22.0,24.719236373901367,-5.432128429412842,23.437498092651367,-0.52978515625,-0.12890625,-0.0777587890625
4.154,327,1349,620,853,-4.0,29.0,22.0,24.719236373901367,-5.432128429412842,23.437498092651367,-0.5914306640625,0.0587158203125,-0.1845703125
4.176,364,1445,689,962,-4.0,29.0,22.0,26.733396530151367,-5.615233898162842,37.29248046875,-0.5914306640625,0.0587158203125,-0.1845703125
4.178,365,1560,731,1064,-4.0,29.0,22.0,22.155759811401367,-9.58251953125,54.321285247802734,-0.699462890625,0.39892578125,-0.268310546875
4.183,401,1864,813,1071,-4.0,29.0,22.0,15.441893577575684,-14.831542015075684,65.00244140625,-0.380615234375,0.5614013671875,-0.1768798828125
4.192,431,1954,975,1289,-4.0,29.0,22.0,5.798339366912842,-21.667478561401367,58.532711029052734,-0.380615234375,0.5614013671875,-0.1768798828125
4.200,442,2012,1217,1411,-4.0,29.0,22.0,-7.568358898162842,-39.12353515625,36.865234375,0.1578369140625,0.1578369140625,0.310546875
4.219,497,2104,1393,1439,-4.0,29.0,22.0,-6.469726085662842,-66.46728515625,9.6435546875,0.44287109375,-0.5775146484375,0.8253173828125
4.222,509,2217,1521,1653,-4.0,29.0,22.0,23.803709030151367,-87.28026580810547,-12.207030296325684,0.44287109375,-0.5775146484375,0.8253173828125
4.229,508,2235,1568,1681,-4.0,29.0,22.0,79.04052734375,-81.23778533935547,-12.817381858825684,-0.270263671875,0.07080078125,0.014892578125
4.244,499,2290,1533,1608,-5.0,29.0,20.0,125.30516815185547,-45.715328216552734,6.164550304412842,-1.806640625,1.9149169921875,-1.875
4.256,521,2359,1636,1759,-5.0,29.0,20.0,101.50145721435547,-14.709471702575684,14.709471702575684,-1.806640625,1.9149169921875,-1.875
4.260,527,2407,1677,1761,-5.0,29.0,20.0,5.187987804412842,-15.563963890075684,-3.906249761581421,-2.0787353515625,1.09765625,-1.146240234375
4.274,513,2409,1592,1627,-5.0,29.0,20.0,-84.47264862060547,-25.756834030151367,-22.766111373901367,-2.991455078125,-0.1080322265625,0.2364501953125
4.284,527,2391,1681,1785,-5.0,29.0,20.0,-112.79296112060547,-27.709959030151367,-20.263669967651367,-2.991455078125,-0.1080322265625,0.2364501953125
4.290,526,2374,1662,1785,-5.0,29.0,20.0,-85.87645721435547,-25.512693405151367,-1.3427733182907104,-3.1368408203125,0.1995849609375,0.13623046875
4.304,518,2348,1584,1636,-5.0,29.0,20.0,-34.97314453125,-24.108884811401367,11.352538108825684,-1.2779541015625,0.47802734375,0.084716796875
4.311,514,2337,1656,1774,-5.0,29.0,20.0,18.4326171875,-29.113767623901367,0.7324218153953552,-1.2779541015625,0.47802734375,0.084716796875
4.320,525,2449,1483,1700,-5.0,29.0,20.0,49.255367279052734,-26.428220748901367,-14.953612327575684,-1.2789306640625,0.8299560546875,-0.1148681640625
4.333,509,2261,1527,1582,-5.0,29.0,20.0,38.9404296875,-12.023924827575684,-22.094724655151367,-1.9996337890625,0.6256103515625,-0.2276611328125
4.342,508,2240,1602,1702,-3.0,28.0,21.0,8.85009765625,-0.8544921278953552,-21.240232467651367,-1.9996337890625,0.6256103515625,-0.2276611328125
4.355,508,2246,1572,1650,-3.0,28.0,21.0,-17.7001953125,4.94384765625,-15.808104515075684,-1.9619140625,0.456787109375,-0.0919189453125
4.365,486,2054,1514,1488,-3.0,28.0,21.0,-30.334470748901367,11.047362327575684,-13.305663108825684,-1.44482421875,0.3472900390625,-0.0072021484375
4.377,490,2028,1449,1545,-3.0,28.0,21.0,-28.320310592651367,17.578125,-13.671874046325684,-1.44482421875,0.3472900390625,-0.0072021484375
4.386,469,1905,1377,1481,-3.0,28.0,21.0,-20.629880905151367,23.254392623901367,-12.268065452575684,-1.233642578125,0.3890380859375,0.070556640625
4.396,428,1794,1155,1225,-3.0,28.0,21.0,-14.648436546325684,30.090330123901367,-8.056640625,-1.0533447265625,0.3216552734375,0.1058349609375
4.401,390,1695,1095,1213,-3.0,28.0,21.0,-6.652831554412842,39.6728515625,-2.929687261581421,-0.8817138671875,0.1539306640625,0.0582275390625
4.409,382,1501,962,1103,-3.0,28.0,21.0,6.958007335662842,47.485347747802734,2.197265625,-0.6995849609375,-0.00537109375,-0.0474853515625
4.425,348,1074,841,853,-3.0,28.0,21.0,20.141599655151367,49.011226654052734,4.638671875,-0.419921875,-0.185791015625,-0.1790771484375
4.432,342,897,777,785,-3.0,28.0,21.0,29.785154342651367,45.227046966552734,1.5258787870407104,-0.1341552734375,-0.3333740234375,-0.2716064453125
4.447,322,561,779,668,-6.0,30.0,21.0,39.306640625,38.87939453125,-7.324218273162842,-0.060302734375,-0.342529296875,-0.311279296875
4.453,302,374,697,564,-6.0,30.0,21.0,46.264644622802734,32.28759765625,-15.319823265075684,-0.1846923828125,-0.0767822265625,-0.3175048828125
4.468,299,364,679,564,-6.0,30.0,21.0,41.198726654052734,24.902341842651367,-13.305663108825684,-0.335693359375,0.3946533203125,-0.2857666015625
4.489,299,364,679,552,-6.0,30.0,21.0,18.61572265625,17.63916015625,-3.967284917831421,-0.481201171875,0.7369384765625,-0.25048828125
4.490,296,376,660,508,-6.0,30.0,21.0,-15.441893577575684,13.488768577575684,1.3427733182907104,-0.5953369140625,0.7491455078125,-0.1895751953125
4.492,304,414,631,546,-6.0,30.0,21.0,-41.320796966552734,13.244627952575684,-5.187987804412842,-0.6158447265625,0.5543212890625,-0.0869140625
4.503,300,388,648,546,-6.0,30.0,21.0,-47.546382904052734,15.075682640075684,-17.822265625,-0.6046142578125,0.378173828125,0.003173828125
4.514,301,401,644,537,-6.0,30.0,21.0,-44.433589935302734,15.075682640075684,-25.512693405151367,-0.608154296875,0.26025390625,0.062255859375
4.522,304,402,651,553,-6.0,30.0,21.0,-42.480464935302734,12.207030296325684,-25.939939498901367,-0.62255859375,0.133056640625,0.083251953125
4.531,306,409,651,551,-6.0,30.0,21.0,-40.771480560302734,8.9111328125,-21.545408248901367,-0.65673828125,0.0057373046875,0.06591796875
4.544,304,409,644,539,-4.0,30.0,23.0,-34.85107421875,6.835937023162842,-13.305663108825684,-0.6961669921875,-0.0379638671875,0.0355224609375
4.557,315,426,644,548,-4.0,30.0,23.0,-22.644041061401367,5.920409679412842,-2.807616949081421,-0.709228515625,0.0257568359375,-0.0029296875
4.560,306,424,656,572,-4.0,30.0,23.0,-6.347655773162842,6.286620616912842,7.324218273162842,-0.701416015625,0.133544921875,-0.0416259765625
4.581,306,473,640,566,-4.0,30.0,23.0,8.056640625,6.774901866912842,14.831542015075684,-0.6834716796875,0.19580078125,-0.0426025390625
4.592,300,540,621,591,-4.0,30.0,23.0,16.17431640625,6.042479991912842,19.1650390625,-0.6453857421875,0.1728515625,-0.0181884765625
4.593,321,714,656,673,-4.0,30.0,23.0,19.53125,5.920409679412842,22.155759811401367,-0.5906982421875,0.0953369140625,-0.0125732421875
4.605,329,1094,604,808,-4.0,30.0,23.0,21.179197311401367,7.019042491912842,26.489255905151367,-0.548583984375,0.074462890625,-0.0474853515625
4.612,337,1253,660,933,-4.0,30.0,23.0,19.53125,5.981444835662842,32.77587890625,-0.585205078125,0.1260986328125,-0.1103515625
4.621,348,1369,697,991,-4.0,30.0,23.0,16.11328125,2.13623046875,41.198726654052734,-0.7237548828125,0.254150390625,-0.22265625
4.634,362,1552,711,1034,-7.0,30.0,21.0,17.63916015625,-2.624511480331421,51.330562591552734,-0.8184814453125,0.4451904296875,-0.37255859375
4.643,382,1681,800,1182,-7.0,30.0,21.0,20.01953125,-11.596678733825684,54.931636810302734,-0.7005615234375,0.5079345703125,-0.3626708984375
4.650,382,1855,913,1231,-7.0,30.0,21.0,11.169432640075684,-28.259275436401367,45.532222747802734,-0.3236083984375,0.3834228515625,0.0091552734375
4.698,478,1970,1202,1340,-7.0,30.0,21.0,-0.1831054538488388,-49.133296966552734,24.841306686401367,0.1715087890625,0.0849609375,0.53076171875
4.698,487,2050,1409,1552,-7.0,30.0,21.0,10.925292015075684,-69.03076171875,-0.4272460639476776,0.509765625,-0.392578125,0.7908935546875
4.699,483,2071,1791,1303,-7.0,30.0,21.0,45.593257904052734,-80.56639862060547,-12.512206077575684,0.4112548828125,-0.6097412109375,0.5692138671875
4.699,485,2249,1843,1561,-7.0,30.0,21.0,88.56200408935547,-67.56591796875,2.197265625,-0.254638671875,0.052978515625,-0.362060546875
4.708,514,2233,1569,1743,-7.0,30.0,21.0,113.22020721435547,-32.2265625,27.648923873901367,-1.13818359375,1.291748046875,-1.5357666015625
4.711,519,2347,1592,1718,-7.0,30.0,21.0,72.8759765625,-8.6669921875,30.944822311401367,-1.669921875,1.6917724609375,-1.696044921875
4.725,521,2323,1569,1640,-7.0,30.0,21.0,-28.930662155151367,-13.671874046325684,6.042479991912842,-1.8394775390625,1.0108642578125,-0.83251953125
4.732,527,2465,1684,1796,-4.0,28.0,22.0,-111.75536346435547,-22.888181686401367,-16.78466796875,-2.11181640625,0.330322265625,-0.0662841796875
4.740,542,2370,1705,1815,-4.0,28.0,22.0,-126.22069549560547,-23.376462936401367,-18.37158203125,-2.759765625,0.2861328125,0.17041015625
4.754,506,2347,1596,1622,-4.0,28.0,22.0,-99.18212127685547,-18.1884765625,-0.6103515625,-3.252197265625,0.61279296875,0.0506591796875
4.762,519,2333,1669,1783,-4.0,28.0,22.0,-67.5048828125,-11.474608421325684,11.474608421325684,-2.5506591796875,0.3818359375,0.0263671875
4.771,526,2375,1650,1750,-4.0,28.0,22.0,-21.850584030151367,-16.11328125,-4.21142578125,-1.3868408203125,0.15283203125,0.1788330078125
4.798,502,2344,1550,1598,-4.0,28.0,22.0,33.50830078125,-22.644041061401367,-22.949216842651367,-1.0760498046875,0.463623046875,0.0849609375
4.798,518,2325,1610,1732,-4.0,28.0,22.0,57.983394622802734,-15.747069358825684,-26.916501998901367,-1.3975830078125,0.6732177734375,-0.212646484375
4.801,525,2437,1463,1675,-4.0,28.0,22.0,43.640132904052734,-3.784179449081421,-20.385740280151367,-1.7552490234375,0.7210693359375,-0.3211669921875
4.814,512,2195,1503,1568,-4.0,28.0,22.0,10.375975608825684,3.906249761581421,-10.314940452575684,-1.8316650390625,0.6641845703125,-0.19140625
4.823,497,2155,1557,1662,-4.0,28.0,22.0,-17.15087890625,9.27734375,-7.446288585662842,-1.668212890625,0.4732666015625,-0.061767578125
4.831,508,2079,1543,1646,-4.0,30.0,20.0,-24.169919967651367,15.441893577575684,-10.620116233825684,-1.441162109375,0.3121337890625,-0.023681640625
4.844,481,1983,1386,1433,-4.0,30.0,20.0,-15.441893577575684,21.179197311401367,-11.657713890075684,-1.27880859375,0.26123046875,-0.009033203125
4.856,466,1920,1374,1499,-4.0,30.0,20.0,-4.150390625,24.902341842651367,-7.751464366912842,-1.1810302734375,0.2677001953125,0.0152587890625
4.862,458,1880,1292,1419,-4.0,30.0,20.0,4.45556640625,28.564451217651367,-0.4272460639476776,-1.0869140625,0.278564453125,-0.01318359375
4.876,414,1733,1081,1201,-4.0,30.0,20.0,12.084959983825684,33.5693359375,6.530761241912842,-0.976318359375,0.248779296875,-0.0804443359375
4.911,406,1702,920,1151,-4.0,30.0,20.0,19.47021484375,36.56005859375,9.3994140625,-0.8275146484375,0.1932373046875,-0.1463623046875
4.913,387,1429,939,1093,-4.0,30.0,20.0,24.658201217651367,35.888671875,7.080077648162842,-0.595703125,0.125,-0.2403564453125
4.913,363,1042,816,895,-4.0,30.0,20.0,26.428220748901367,35.09521484375,1.220703125,-0.3458251953125,0.043701171875,-0.3455810546875
4.913,334,799,738,738,-4.0,30.0,20.0,25.146482467651367,35.64453125,-8.1787109375,-0.2135009765625,-0.1058349609375,-0.3875732421875
4.921,316,495,731,627,-4.0,30.0,20.0,23.498533248901367,36.19384765625,-19.4091796875,-0.2247314453125,-0.09814453125,-0.3565673828125
4.935,302,344,689,540,-8.0,29.0,22.0,20.568845748901367,32.89794921875,-21.972654342651367,-0.3306884765625,0.2213134765625,-0.265625
4.943,296,355,660,548,-8.0,29.0,22.0,8.1787109375,23.437498092651367,-14.831542015075684,-0.4912109375,0.5255126953125,-0.1368408203125
4.951,294,369,646,547,-8.0,29.0,22.0,8.1787109375,23.437498092651367,-14.831542015075684,-0.644775390625,0.5955810546875,-0.0263671875
4.964,294,374,625,527,-8.0,29.0,22.0,-35.7666015625,6.774901866912842,-12.695311546325684,-0.714111328125,0.490234375,0.02978515625
4.973,291,378,620,539,-8.0,29.0,22.0,-44.189449310302734,7.202147960662842,-21.057126998901367,-0.706298828125,0.3585205078125,0.0316162109375
4.991,292,404,598,532,-8.0,29.0,22.0,-44.189449310302734,7.202147960662842,-21.057126998901367,-0.67431640625,0.2890625,0.0135498046875
5.014,280,402,616,537,-8.0,29.0,22.0,-31.799314498901367,13.610838890075684,-21.545408248901367,-0.649169921875,0.245361328125,-0.0084228515625
5.014,294,387,630,547,-8.0,29.0,22.0,-24.597166061401367,13.427733421325684,-15.624999046325684,-0.6405029296875,0.185791015625,-0.0133056640625
5.015,296,385,642,551,-8.0,29.0,22.0,-24.597166061401367,13.427733421325684,-15.624999046325684,-0.639892578125,0.127197265625,0.0106201171875
5.025,296,390,631,533,-8.0,29.0,22.0,-14.526366233825684,6.652831554412842,-3.601073980331421,-0.622314453125,0.0970458984375,0.03759765625
5.033,294,386,646,561,-2.0,30.0,20.0,-7.385253429412842,3.723144292831421,2.746581792831421,-0.572998046875,0.094482421875,0.0401611328125
5.040,292,391,651,566,-2.0,30.0,20.0,-7.385253429412842,3.723144292831421,2.746581792831421,-0.50634765625,0.0980224609375,0.03076171875
5.055,300,425,639,551,-2.0,30.0,20.0,12.390135765075684,2.685546636581421,13.427733421325684,-0.4345703125,0.0882568359375,0.0360107421875
5.062,308,475,646,580,-2.0,30.0,20.0,17.63916015625,3.234863042831421,16.66259765625,-0.3995361328125,0.030029296875,0.046875
5.071,321,572,644,614,-2.0,30.0,20.0,17.63916015625,3.234863042831421,16.66259765625,-0.437255859375,-0.116455078125,0.0372314453125
5.114,316,1217,561,826,-2.0,30.0,20.0,19.10400390625,5.249022960662842,25.512693405151367,-0.46875,-0.125732421875,-0.009521484375
5.114,315,1439,548,937,-2.0,30.0,20.0,28.991697311401367,1.8310545682907104,38.02490234375,-0.5380859375,0.178466796875,-0.0810546875
5.114,338,1544,679,1014,-2.0,30.0,20.0,28.991697311401367,1.8310545682907104,38.02490234375,-0.636474609375,0.57080078125,-0.1602783203125
5.122,354,1772,757,887,-2.0,30.0,20.0,57.434078216552734,-18.24951171875,52.795406341552734,-0.4842529296875,0.6871337890625,-0.2030029296875
5.123,405,1890,936,1289,-2.0,30.0,20.0,47.302242279052734,-34.85107421875,38.51318359375,-0.0379638671875,0.4326171875,-0.0006103515625
5.130,456,1974,1160,1419,-6.0,28.0,22.0,47.302242279052734,-34.85107421875,38.51318359375,0.306396484375,-0.0682373046875,0.429443359375
5.145,481,2071,1316,1455,-6.0,28.0,22.0,-12.390135765075684,-77.57568359375,-15.319823265075684,0.1671142578125,-0.5111083984375,0.4725341796875
5.153,497,2306,1305,1580,-6.0,28.0,22.0,18.98193359375,-64.5751953125,-16.11328125,-0.4317626953125,-0.216552734375,-0.2413330078125
5.161,509,2194,1488,1686,-6.0,28.0,22.0,18.98193359375,-64.5751953125,-16.11328125,-1.1480712890625,0.82373046875,-1.157470703125
5.174,495,2330,1454,1591,-6.0,28.0,22.0,84.53368377685547,-9.09423828125,12.878417015075684,-1.5947265625,1.567138671875,-1.5045166015625
5.184,513,2467,1416,1695,-6.0,28.0,22.0,84.53368377685547,-9.09423828125,12.878417015075684,-1.825927734375,1.26220703125,-1.0048828125
5.214,514,2356,1595,1755,-6.0,28.0,22.0,21.850584030151367,-13.305663108825684,-0.6103515625,-1.825927734375,1.26220703125,-1.0048828125
5.215,439,2624,1470,1730,-6.0,28.0,22.0,-69.39697265625,-38.14697265625,-27.832029342651367,-2.5537109375,0.3160400390625,-0.022705078125
5.215,521,2367,1607,1790,-6.0,28.0,22.0,-69.39697265625,-38.14697265625,-27.832029342651367,-2.833984375,0.2174072265625,0.06640625
5.221,501,2333,1604,1757,-6.0,28.0,22.0,-56.396480560302734,-39.55078125,-23.681638717651367,-2.833984375,0.2174072265625,0.06640625
5.236,508,2340,1521,1624,-4.0,28.0,19.0,-0.6713866591453552,-33.38623046875,-22.399900436401367,-1.61376953125,0.30859375,0.0018310546875
5.243,506,2316,1604,1789,-4.0,28.0,19.0,-0.6713866591453552,-33.38623046875,-22.399900436401367,-1.314208984375,0.638671875,0.01611328125
5.251,521,2293,1596,1786,-4.0,28.0,19.0,21.118162155151367,-27.343748092651367,-25.817869186401367,-1.314208984375,0.638671875,0.01611328125
5.265,506,2245,1492,1616,-4.0,28.0,19.0,16.357421875,-8.11767578125,-33.0810546875,-1.8477783203125,0.5341796875,-0.0616455078125
5.273,506,2220,1555,1735,-4.0,28.0,19.0,16.357421875,-8.11767578125,-33.0810546875,-1.8050537109375,0.306640625,-0.0667724609375
5.281,499,2172,1516,1700,-4.0,28.0,19.0,8.36181640625,-2.50244140625,-30.029294967651367,-1.8050537109375,0.306640625,-0.0667724609375
5.309,482,2104,1437,1561,-4.0,28.0,19.0,3.356933355331421,7.751464366912842,-14.526366233825684,-1.360107421875,0.31103515625,-0.092041015625
5.309,478,2035,1383,1553,-4.0,28.0,19.0,3.356933355331421,7.751464366912842,-14.526366233825684,-1.198974609375,0.3822021484375,-0.048583984375
5.321,382,2507,1387,1521,-4.0,28.0,19.0,0.6103515625,14.465331077575684,-9.94873046875,-1.198974609375,0.3822021484375,-0.048583984375
5.325,419,1852,1188,1390,-5.0,29.0,28.0,-8.30078125,36.2548828125,-1.8920897245407104,-0.9635009765625,0.134033203125,0.0223388671875
5.333,406,1727,1081,1316,-5.0,29.0,28.0,-8.30078125,36.2548828125,-1.8920897245407104,-0.8616943359375,-0.052734375,0.0023193359375
5.346,388,1592,1001,1220,-5.0,29.0,28.0,-6.164550304412842,47.790523529052734,4.150390625,-0.8616943359375,-0.052734375,0.0023193359375
5.355,361,1313,845,978,-5.0,29.0,28.0,7.568358898162842,54.504390716552734,15.441893577575684,-0.54150390625,-0.2552490234375,-0.23828125
5.363,351,1067,837,932,-5.0,29.0,28.0,7.568358898162842,54.504390716552734,15.441893577575684,-0.344970703125,-0.222412109375,-0.3599853515625
5.371,332,867,784,816,-5.0,29.0,28.0,19.4091796875,49.438472747802734,13.977049827575684,-0.344970703125,-0.222412109375,-0.3599853515625
5.385,296,494,702,588,-5.0,29.0,28.0,30.639646530151367,35.58349609375,1.4648436307907104,-0.3604736328125,0.248046875,-0.37353515625
5.396,301,382,700,572,-5.0,29.0,28.0,30.639646530151367,35.58349609375,1.4648436307907104,-0.4483642578125,0.515380859375,-0.23046875
5.411,294,372,682,561,-5.0,29.0,28.0,12.817381858825684,24.047849655151367,-4.69970703125,-0.4483642578125,0.515380859375,-0.23046875
5.415,289,369,656,553,-5.0,29.0,28.0,-14.953612327575684,15.686034202575684,-5.859374523162842,-0.6361083984375,0.677490234375,-0.0926513671875
5.456,294,382,644,551,-9.0,26.0,22.0,-42.297359466552734,12.084959983825684,-4.7607421875,-0.6361083984375,0.677490234375,-0.0926513671875
5.464,292,388,642,551,-9.0,26.0,22.0,-55.236812591552734,10.803221702575684,-9.1552734375,-0.6756591796875,0.4637451171875,-0.0419921875
5.466,298,391,631,539,-9.0,26.0,22.0,-47.973628997802734,10.620116233825684,-18.49365234375,-0.654296875,0.207763671875,0.0281982421875
5.466,286,411,629,546,-9.0,26.0,22.0,-33.87451171875,9.21630859375,-24.230955123901367,-0.654296875,0.207763671875,0.0281982421875
5.466,294,403,653,561,-9.0,26.0,22.0,-27.343748092651367,6.164550304412842,-22.705076217651367,-0.6585693359375,0.1859130859375,0.0357666015625
5.483,294,391,646,548,-9.0,26.0,22.0,-26.977537155151367,3.906249761581421,-17.51708984375,-0.636962890625,0.1317138671875,0.0386962890625
5.484,298,417,644,499,-9.0,26.0,22.0,-25.634763717651367,2.929687261581421,-11.657713890075684,-0.636962890625,0.1317138671875,0.0386962890625
5.514,294,400,661,574,-9.0,26.0,22.0,-20.935056686401367,2.929687261581421,-5.798339366912842,-0.5794677734375,0.1295166015625,0.0364990234375
5.514,300,430,666,582,-9.0,26.0,22.0,-14.160155296325684,4.33349609375,0.0610351525247097,-0.499267578125,0.0321044921875,0.029296875
5.515,305,473,666,548,-9.0,26.0,22.0,-8.056640625,5.737304210662842,5.554198741912842,-0.499267578125,0.0321044921875,0.029296875
5.520,307,559,656,636,-3.0,30.0,20.0,-2.44140625,5.737304210662842,10.925292015075684,-0.4759521484375,-0.1331787109375,0.0433349609375
5.534,324,1157,620,816,-3.0,30.0,20.0,5.249022960662842,5.798339366912842,18.9208984375,-0.4251708984375,-0.1351318359375,-0.11083984375
5.543,345,1318,706,973,-3.0,30.0,20.0,13.916014671325684,5.737304210662842,32.2265625,-0.4251708984375,-0.1351318359375,-0.11083984375
5.550,348,1437,754,1038,-3.0,30.0,20.0,19.287109375,0.4882812201976776,49.682613372802734,-0.5390625,0.186767578125,-0.2215576171875
5.571,389,1669,867,1120,-3.0,30.0,20.0,22.827146530151367,-10.314940452575684,63.964839935302734,-0.4305419921875,0.6370849609375,-0.30859375
5.573,438,1941,1182,1316,-3.0,30.0,20.0,21.728513717651367,-23.071287155151367,60.424800872802734,-0.4305419921875,0.6370849609375,-0.30859375
5.581,465,1862,1258,1399,-3.0,30.0,20.0,2.624511480331421,-41.442867279052734,35.33935546875,-0.0286865234375,0.126953125,-0.035400390625
5.606,499,2008,1409,1316,-3.0,30.0,20.0,-24.536130905151367,-64.697265625,9.58251953125,0.07080078125,-0.4136962890625,0.441162109375
5.606,532,2100,1541,1487,-3.0,30.0,20.0,-14.221190452575684,-81.78710174560547,3.295898199081421,0.07080078125,-0.4136962890625,0.441162109375
5.615,532,2175,1564,1675,-3.0,30.0,20.0,45.043941497802734,-80.93260955810547,14.587401390075684,-0.4195556640625,0.3543701171875,-0.15234375
5.625,521,2253,1553,1592,-6.0,28.0,24.0,89.35546112060547,-58.715816497802734,25.939939498901367,-0.935302734375,1.418701171875,-0.99169921875
5.632,512,2322,1665,1748,-6.0,28.0,24.0,63.537593841552734,-34.3017578125,19.04296875,-1.248291015625,1.830078125,-1.1871337890625
5.641,531,2359,1640,1766,-6.0,28.0,24.0,-12.634276390075684,-28.259275436401367,-7.873534679412842,-1.58837890625,1.2442626953125,-0.563720703125
5.654,533,2408,1616,1650,-6.0,28.0,24.0,-77.2705078125,-26.916501998901367,-33.02001953125,-2.2496337890625,0.438232421875,-0.008056640625
5.663,531,2396,1702,1796,-6.0,28.0,24.0,-95.52001190185547,-18.310546875,-36.4990234375,-2.9556884765625,-0.0208740234375,0.2255859375
5.670,526,2370,1681,1773,-6.0,28.0,24.0,-73.8525390625,-12.145995140075684,-21.789548873901367,-3.2225341796875,-0.0521240234375,0.22265625
5.685,527,2354,1615,1656,-6.0,28.0,24.0,-30.639646530151367,-9.82666015625,-5.0048828125,-2.492919921875,0.0318603515625,0.0531005859375
5.693,525,2497,1652,1774,-6.0,28.0,24.0,15.808104515075684,-12.268065452575684,-0.30517578125,-1.419921875,0.1873779296875,0.0328369140625
5.719,514,2372,1652,1770,-6.0,28.0,24.0,44.189449310302734,-11.901854515075684,-1.3427733182907104,-1.18798828125,0.5323486328125,0.0517578125
5.719,514,2323,1624,1675,-4.0,30.0,26.0,41.198726654052734,2.01416015625,1.8310545682907104,-1.5396728515625,0.6751708984375,-0.0567626953125
5.723,508,2308,1569,1719,-4.0,30.0,26.0,20.263669967651367,19.4091796875,7.019042491912842,-1.8551025390625,0.639404296875,-0.1614990234375
5.731,508,2314,1577,1695,-4.0,30.0,26.0,0.30517578125,28.991697311401367,12.145995140075684,-1.9002685546875,0.6102294921875,-0.1632080078125
5.750,495,2178,1452,1497,-4.0,30.0,26.0,-12.390135765075684,32.40966796875,11.413573265075684,-1.745849609375,0.518310546875,-0.1346435546875
5.753,497,2249,1341,1527,-4.0,30.0,26.0,-14.404295921325684,33.63037109375,4.08935546875,-1.5089111328125,0.372802734375,-0.096435546875
5.761,484,2032,1443,1534,-4.0,30.0,26.0,-5.920409679412842,33.203125,-3.356933355331421,-1.268310546875,0.2620849609375,-0.0235595703125
5.775,456,1862,1278,1316,-4.0,30.0,26.0,7.507323741912842,32.2265625,-5.310058116912842,-1.076904296875,0.23583984375,0.0091552734375
5.783,455,1852,1132,1323,-4.0,30.0,26.0,22.583005905151367,34.24072265625,-1.6479490995407104,-0.9368896484375,0.2630615234375,-0.0858154296875
5.797,419,1627,1149,1237,-4.0,30.0,26.0,35.70556640625,37.841796875,3.295898199081421,-0.8175048828125,0.281982421875,-0.250244140625
5.820,383,1419,968,1067,-4.0,30.0,26.0,41.076656341552734,37.17041015625,5.0048828125,-0.64208984375,0.268798828125,-0.367919921875
5.820,376,1202,923,988,-8.0,32.0,23.0,36.68212890625,32.65380859375,1.5258787870407104,-0.4130859375,0.2138671875,-0.4317626953125
5.821,365,986,820,843,-8.0,32.0,23.0,26.977537155151367,29.602048873901367,-5.920409679412842,-0.25341796875,0.110107421875,-0.4859619140625
5.837,336,485,806,628,-8.0,32.0,23.0,16.29638671875,28.991697311401367,-15.869139671325684,-0.212890625,-0.007080078125,-0.4842529296875
5.843,323,373,765,580,-8.0,32.0,23.0,6.530761241912842,27.709959030151367,-24.597166061401367,-0.2420654296875,0.0809326171875,-0.3812255859375
5.853,316,383,713,561,-8.0,32.0,23.0,-4.8828125,22.766111373901367,-25.207517623901367,-0.3182373046875,0.3701171875,-0.227294921875
5.865,302,360,684,537,-8.0,32.0,23.0,-24.536130905151367,14.404295921325684,-20.263669967651367,-0.4674072265625,0.56396484375,-0.075439453125
5.872,308,375,683,548,-8.0,32.0,23.0,-49.865718841552734,6.225585460662842,-19.1650390625,-0.598876953125,0.55908203125,0.0633544921875
5.881,305,375,674,555,-8.0,32.0,23.0,-70.9228515625,2.563476324081421,-24.841306686401367,-0.639404296875,0.41748046875,0.14697265625
5.894,300,385,657,539,-8.0,32.0,23.0,-80.50536346435547,5.981444835662842,-31.188962936401367,-0.6400146484375,0.239013671875,0.15087890625
5.922,294,462,643,548,-8.0,32.0,23.0,-76.5380859375,12.939452171325684,-31.188962936401367,-0.6368408203125,0.11376953125,0.1097412109375
5.934,300,385,677,564,-2.0,29.0,21.0,-63.720699310302734,17.51708984375,-24.597166061401367,-0.6419677734375,0.0428466796875,0.0670166015625
5.936,308,445,679,533,-2.0,29.0,21.0,-49.560543060302734,17.27294921875,-15.502928733825684,-0.6634521484375,0.0069580078125,0.050048828125
5.938,310,416,679,574,-2.0,29.0,21.0,-36.43798828125,13.549803733825684,-6.469726085662842,-0.6868896484375,0.0001220703125,0.05322265625
5.941,310,437,684,577,-2.0,29.0,21.0,-21.118162155151367,9.33837890625,1.6479490995407104,-0.6868896484375,0.0067138671875,0.051025390625
5.949,308,456,689,594,-2.0,29.0,21.0,-1.6479490995407104,6.652831554412842,8.48388671875,-0.6512451171875,0.0125732421875,0.019287109375
5.963,316,536,673,603,-2.0,29.0,21.0,17.9443359375,4.69970703125,14.404295921325684,-0.5948486328125,0.0169677734375,-0.03076171875
5.971,328,714,695,713,-2.0,29.0,21.0,32.04345703125,2.38037109375,20.690916061401367,-0.5528564453125,0.0477294921875,-0.07666015625
5.981,329,999,689,840,-2.0,29.0,21.0,32.04345703125,2.38037109375,20.690916061401367,-0.529541015625,0.1068115234375,-0.125
5.993,348,1292,707,920,-2.0,29.0,21.0,31.677244186401367,-3.723144292831421,36.0107421875,-0.5828857421875,0.203125,-0.2010498046875
6.003,361,1429,778,1050,-2.0,29.0,21.0,24.108884811401367,-7.202147960662842,44.433589935302734,-0.65087890625,0.4134521484375,-0.2947998046875
6.033,383,1588,853,1148,-6.0,30.0,20.0,24.108884811401367,-7.202147960662842,44.433589935302734,-0.53271484375,0.551025390625,-0.3092041015625
6.034,431,1739,1109,1095,-6.0,30.0,20.0,20.629880905151367,-27.038572311401367,35.70556640625,-0.1591796875,0.3179931640625,-0.0758056640625
6.035,402,2129,1117,1303,-6.0,30.0,20.0,12.329100608825684,-46.813961029052734,16.05224609375,0.2989501953125,-0.21875,0.4183349609375
6.040,485,1997,1355,1490,-6.0,30.0,20.0,12.329100608825684,-46.813961029052734,16.05224609375,0.4700927734375,-0.5789794921875,0.835693359375
6.053,512,2105,1419,1487,-6.0,30.0,20.0,27.893064498901367,-63.171382904052734,11.840819358825684,0.1270751953125,-0.38623046875,0.7177734375
6.066,521,2183,1545,1675,-6.0,30.0,20.0,70.3125,-48.400875091552734,28.015134811401367,-0.630615234375,0.459716796875,-0.2679443359375
6.070,518,2364,1411,1652,-6.0,30.0,20.0,70.3125,-48.400875091552734,28.015134811401367,-1.37158203125,1.5107421875,-1.5841064453125
6.084,518,2295,1544,1600,-6.0,30.0,20.0,56.640621185302734,-1.7089842557907104,35.46142578125,-1.7320556640625,1.6597900390625,-1.7806396484375
6.092,526,2347,1640,1757,-6.0,30.0,20.0,-30.761716842651367,-10.742186546325684,9.1552734375,-1.8165283203125,0.97998046875,-0.8505859375
6.100,533,2418,1650,1759,-6.0,30.0,20.0,-30.761716842651367,-10.742186546325684,9.1552734375,-2.07958984375,0.384033203125,-0.04296875
6.134,535,2410,1602,1635,-8.0,29.0,19.0,-108.88671112060547,-24.963376998901367,-13.916014671325684,-2.5970458984375,0.20751953125,0.2061767578125
6.135,518,2803,1478,1476,-8.0,29.0,19.0,-76.96533203125,-23.620603561401367,-3.356933355331421,-2.924072265625,0.3792724609375,0.1058349609375
6.135,518,2481,1548,1709,-8.0,29.0,19.0,-76.96533203125,-23.620603561401367,-3.356933355331421,-2.3765869140625,0.400634765625,-0.0384521484375
6.144,513,2384,1653,1610,-8.0,29.0,19.0,2.929687261581421,-20.629880905151367,-5.065917491912842,-1.484130859375,0.398681640625,-0.1329345703125
6.152,521,2384,1681,1759,-8.0,29.0,19.0,25.756834030151367,-21.667478561401367,-14.465331077575684,-1.3251953125,0.60205078125,-0.1710205078125
6.160,522,2382,1662,1761,-8.0,29.0,19.0,25.756834030151367,-21.667478561401367,-14.465331077575684,-1.640380859375,0.67236328125,-0.1309814453125
6.174,508,2298,1552,1580,-8.0,29.0,19.0,15.991209983825684,-12.817381858825684,-13.977049827575684,-1.868896484375,0.6373291015625,-0.03759765625
6.181,508,2254,1611,1694,-8.0,29.0,19.0,5.065917491912842,-5.432128429412842,-8.72802734375,-1.849365234375,0.5908203125,0.0155029296875
6.190,512,2213,1602,1665,-8.0,29.0,19.0,5.065917491912842,-5.432128429412842,-8.72802734375,-1.667724609375,0.5126953125,-0.0264892578125
6.203,494,2197,1582,1615,-4.0,29.0,21.0,-0.1831054538488388,13.305663108825684,-12.023924827575684,-1.441162109375,0.423828125,-0.05810546875
6.229,493,2048,1502,1529,-4.0,29.0,21.0,-0.1831054538488388,13.305663108825684,-12.023924827575684,-1.2310791015625,0.34033203125,-0.0133056640625
6.230,473,1996,1343,1464,-4.0,29.0,21.0,3.417968511581421,19.1650390625,-14.831542015075684,-1.2310791015625,0.34033203125,-0.0133056640625
6.234,458,1773,1326,1375,-4.0,29.0,21.0,17.4560546875,27.526853561401367,-9.82666015625,-0.9151611328125,0.157470703125,-0.0645751953125
6.242,455,1627,1220,1280,-4.0,29.0,21.0,17.4560546875,27.526853561401367,-9.82666015625,-0.752685546875,0.114990234375,-0.17138671875
6.252,430,1490,1131,1199,-4.0,29.0,21.0,28.259275436401367,29.785154342651367,-4.94384765625,-0.752685546875,0.114990234375,-0.17138671875
6.263,390,1170,944,942,-4.0,29.0,21.0,34.72900390625,24.536130905151367,-4.82177734375,-0.253173828125,0.1146240234375,-0.3907470703125
6.271,376,955,920,883,-4.0,29.0,21.0,34.72900390625,24.536130905151367,-4.82177734375,-0.120849609375,0.00439453125,-0.446044921875
6.280,364,711,887,763,-4.0,29.0,21.0,29.052732467651367,24.902341842651367,-12.451170921325684,-0.120849609375,0.00439453125,-0.446044921875
6.294,348,421,788,585,-4.0,29.0,21.0,6.408690929412842,26.489255905151367,-25.146482467651367,-0.2471923828125,0.2222900390625,-0.2279052734375
6.303,344,411,744,576,-5.0,29.0,19.0,6.408690929412842,26.489255905151367,-25.146482467651367,-0.378173828125,0.467041015625,-0.0267333984375
6.311,330,416,705,553,-5.0,29.0,19.0,-13.122557640075684,20.507810592651367,-22.338865280151367,-0.378173828125,0.467041015625,-0.0267333984375
6.332,321,402,684,540,-5.0,29.0,19.0,-52.001949310302734,12.145995140075684,-23.864744186401367,-0.649658203125,0.468017578125,0.154296875
6.332,323,425,706,578,-5.0,29.0,19.0,-52.001949310302734,12.145995140075684,-23.864744186401367,-0.7249755859375,0.3343505859375,0.1236572265625
6.341,323,401,687,564,-5.0,29.0,19.0,-56.213375091552734,13.061522483825684,-28.808591842651367,-0.7249755859375,0.3343505859375,0.1236572265625
6.359,315,403,675,548,-5.0,29.0,19.0,-40.283199310302734,16.66259765625,-25.451658248901367,-0.7203369140625,0.160888671875,0.0223388671875
6.368,317,470,694,562,-5.0,29.0,19.0,-40.283199310302734,16.66259765625,-25.451658248901367,-0.724365234375,0.107177734375,-0.00390625
6.370,316,423,678,567,-5.0,29.0,19.0,-28.869626998901367,17.02880859375,-18.73779296875,-0.724365234375,0.107177734375,-0.00390625
6.388,316,413,689,562,-5.0,29.0,19.0,-9.033203125,13.610838890075684,-5.798339366912842,-0.75,0.059814453125,-0.02099609375
6.394,321,438,698,588,-5.0,29.0,19.0,-9.033203125,13.610838890075684,-5.798339366912842,-0.725830078125,0.0687255859375,-0.03076171875
6.400,322,470,687,589,-4.0,31.0,19.0,2.01416015625,11.047362327575684,1.3427733182907104,-0.725830078125,0.0687255859375,-0.03076171875
6.437,321,625,683,679,-4.0,31.0,19.0,26.489255905151367,5.432128429412842,13.061522483825684,-0.595947265625,0.0704345703125,-0.0384521484375
6.438,334,914,657,780,-4.0,31.0,19.0,35.09521484375,3.356933355331421,16.845703125,-0.556884765625,0.0872802734375,-0.0614013671875
6.445,344,1268,723,918,-4.0,31.0,19.0,39.55078125,0.6103515625,20.874021530151367,-0.585205078125,0.2142333984375,-0.1656494140625
6.452,359,1393,723,1009,-4.0,31.0,19.0,38.87939453125,-3.601073980331421,26.428220748901367,-0.585205078125,0.2142333984375,-0.1656494140625
6.460,364,1580,757,1078,-4.0,31.0,19.0,34.7900390625,-6.896972179412842,34.60693359375,-0.57275390625,0.315673828125,-0.236083984375
6.480,400,1757,865,1143,-4.0,31.0,19.0,27.160642623901367,-8.1787109375,42.907711029052734,-0.0987548828125,0.357177734375,0.013427734375
6.482,441,2161,1004,1239,-4.0,31.0,19.0,10.131834983825684,-9.521484375,43.884273529052734,-0.0987548828125,0.357177734375,0.013427734375
6.495,470,1925,1251,1419,-4.0,31.0,19.0,-19.71435546875,-13.427733421325684,31.921384811401367,0.1492919921875,0.0386962890625,0.4306640625
6.503,509,2074,1365,1440,-5.0,30.0,22.0,-49.560543060302734,-15.808104515075684,12.756346702575684,-0.141845703125,-0.7313232421875,0.4822998046875
6.512,529,2205,1468,1602,-5.0,30.0,22.0,-52.612300872802734,-11.962889671325684,6.652831554412842,-0.141845703125,-0.7313232421875,0.4822998046875
6.541,519,2267,1529,1664,-5.0,30.0,22.0,-15.869139671325684,-2.01416015625,24.353025436401367,-0.7103271484375,-0.285400390625,-0.2340087890625
6.541,527,2268,1548,1569,-5.0,30.0,22.0,32.5927734375,11.596678733825684,51.330562591552734,-1.3280029296875,1.51171875,-1.48681640625
6.542,496,2340,2030,1371,-5.0,30.0,22.0,39.794921875,17.63916015625,63.293453216552734,-1.3280029296875,1.51171875,-1.48681640625
6.551,536,2367,1659,1770,-5.0,30.0,22.0,-9.70458984375,7.263183116912842,48.645015716552734,-1.36279296875,1.515380859375,-0.9149169921875
6.563,542,2450,1596,1634,-5.0,30.0,22.0,-71.96044921875,-6.591796398162842,18.61572265625,-2.1431884765625,0.973388671875,-0.122314453125
6.572,540,2440,1713,1810,-5.0,30.0,22.0,-102.90526580810547,-10.070799827575684,-5.615233898162842,-2.1431884765625,0.973388671875,-0.122314453125
6.585,533,2424,1683,1791,-5.0,30.0,22.0,-99.48729705810547,-3.662109136581421,-10.314940452575684,-2.9462890625,0.9195556640625,-0.1297607421875
6.599,526,2409,1600,1637,-5.0,30.0,22.0,-84.28954315185547,4.2724609375,-5.432128429412842,-1.888427734375,-0.1446533203125,0.0098876953125
6.601,536,2464,1662,1789,-2.0,29.0,22.0,-49.255367279052734,2.197265625,-16.4794921875,-1.888427734375,-0.1446533203125,0.0098876953125
6.609,527,2417,1664,1786,-2.0,29.0,22.0,11.291502952575684,-8.9111328125,-29.724119186401367,-1.31591796875,0.037841796875,-0.0936279296875
6.640,516,2372,1555,1613,-2.0,29.0,22.0,52.001949310302734,-14.099120140075684,-23.986814498901367,-1.7757568359375,0.7503662109375,-0.2275390625
6.640,508,2760,1704,1743,-2.0,29.0,22.0,49.621578216552734,-7.995604991912842,-10.742186546325684,-1.7757568359375,0.7503662109375,-0.2275390625
6.641,470,2890,1552,1757,-2.0,29.0,22.0,25.817869186401367,2.3193359375,-0.1831054538488388,-1.872314453125,0.7459716796875,-0.09765625
6.654,499,2233,1428,1496,-2.0,29.0,22.0,5.0048828125,14.038084983825684,3.417968511581421,-1.745361328125,0.5567626953125,0.0086669921875
6.662,497,2171,1450,1582,-2.0,29.0,22.0,0.1220703050494194,26.611326217651367,0.8544921278953552,-1.5213623046875,0.3131103515625,0.0545654296875
6.669,473,2105,1387,1529,-2.0,29.0,22.0,10.498045921325684,37.78076171875,-1.2817381620407104,-1.27587890625,0.127197265625,0.066650390625
6.683,454,1927,1167,1330,-2.0,29.0,22.0,26.306150436401367,45.288082122802734,0.7934569716453552,-1.039794921875,0.0657958984375,0.0328369140625
6.697,439,1855,1123,1348,-2.0,29.0,22.0,42.114253997802734,51.086421966552734,7.751464366912842,-0.8455810546875,0.1839599609375,-0.12548828125
6.705,423,1855,922,1217,-6.0,30.0,23.0,54.382320404052734,55.358882904052734,16.4794921875,-0.6937255859375,0.3731689453125,-0.37158203125
6.714,383,1544,864,1039,-6.0,30.0,23.0,58.654781341552734,51.818843841552734,18.6767578125,-0.5218505859375,0.47412109375,-0.5389404296875
6.742,364,1424,834,1029,-6.0,30.0,23.0,56.518550872802734,39.794921875,9.3994140625,-0.359619140625,0.4691162109375,-0.6104736328125
6.742,333,1289,755,920,-6.0,30.0,23.0,48.034664154052734,27.526853561401367,-7.019042491912842,-0.2642822265625,0.37451171875,-0.5968017578125
6.744,323,987,694,747,-6.0,30.0,23.0,31.188962936401367,19.47021484375,-24.169919967651367,-0.2530517578125,0.21337890625,-0.5201416015625
6.752,346,598,750,654,-6.0,30.0,23.0,14.709471702575684,16.845703125,-35.5224609375,-0.311767578125,0.2012939453125,-0.4571533203125
6.760,330,438,740,590,-6.0,30.0,23.0,5.554198741912842,14.709471702575684,-36.68212890625,-0.375,0.349365234375,-0.342041015625
6.774,318,388,700,548,-6.0,30.0,23.0,-6.591796398162842,5.798339366912842,-33.69140625,-0.4371337890625,0.4432373046875,-0.130615234375
6.782,313,375,705,561,-6.0,30.0,23.0,-26.062009811401367,-6.225585460662842,-34.1796875,-0.55859375,0.4134521484375,0.0606689453125
6.790,309,369,693,551,-6.0,30.0,23.0,-41.137691497802734,-13.305663108825684,-39.306640625,-0.7078857421875,0.3272705078125,0.137451171875
6.818,306,371,679,538,-2.0,29.0,19.0,-44.982906341552734,-13.488768577575684,-44.494625091552734,-0.7841796875,0.2413330078125,0.1337890625
6.819,304,371,725,498,-2.0,29.0,19.0,-42.724605560302734,-8.85009765625,-44.067378997802734,-0.783447265625,0.1639404296875,0.0841064453125
6.820,304,382,660,484,-2.0,29.0,19.0,-38.63525390625,-1.3427733182907104,-36.31591796875,-0.750732421875,0.106201171875,0.0321044921875
6.845,302,379,673,548,-2.0,29.0,19.0,-31.311033248901367,5.676269054412842,-23.986814498901367,-0.7083740234375,0.0753173828125,-0.0040283203125
6.845,304,378,707,513,-2.0,29.0,19.0,-23.071287155151367,9.1552734375,-10.559081077575684,-0.6787109375,0.0535888671875,-0.01708984375
6.850,304,388,691,571,-2.0,29.0,19.0,-17.578125,8.85009765625,2.0751953125,-0.669677734375,0.0184326171875,-0.00146484375
6.863,302,419,682,572,-2.0,29.0,19.0,-12.695311546325684,7.080077648162842,12.573241233825684,-0.65576171875,-0.035888671875,0.0047607421875
6.872,306,442,694,601,-2.0,29.0,19.0,-4.638671875,5.920409679412842,20.263669967651367,-0.607177734375,-0.0980224609375,-0.025390625
6.880,307,527,682,634,-2.0,29.0,19.0,6.469726085662842,6.103515148162842,26.489255905151367,-0.51611328125,-0.1417236328125,-0.081298828125
6.896,315,1004,601,772,-7.0,33.0,19.0,16.41845703125,6.652831554412842,34.11865234375,-0.43603515625,-0.105712890625,-0.1507568359375
6.901,327,1213,644,913,-7.0,33.0,19.0,18.6767578125,4.82177734375,44.494625091552734,-0.4490966796875,0.06005859375,-0.2032470703125
6.910,338,1355,677,984,-7.0,33.0,19.0,11.169432640075684,-1.8920897245407104,55.114742279052734,-0.6015625,0.3258056640625,-0.2039794921875
6.924,360,1588,728,1054,-7.0,33.0,19.0,4.5166015625,-10.314940452575684,61.401363372802734,-0.6910400390625,0.5361328125,-0.2041015625
6.952,416,1862,757,1146,-7.0,33.0,19.0,7.263183116912842,-17.02880859375,56.213375091552734,-0.4512939453125,0.48291015625,-0.21728515625
6.967,456,1961,922,1009,-7.0,33.0,19.0,4.39453125,-28.198240280151367,35.46142578125,0.05615234375,0.133544921875,-0.009765625
6.970,490,2030,1264,1336,-7.0,33.0,19.0,-16.05224609375,-51.269527435302734,7.629394054412842,0.4510498046875,-0.2843017578125,0.4451904296875
6.985,512,2105,1427,1537,-7.0,33.0,19.0,-20.629880905151367,-75.8056640625,-7.812499523162842,0.3658447265625,-0.33056640625,0.5245361328125
6.985,518,2242,1506,1596,-7.0,33.0,19.0,24.291990280151367,-85.44921112060547,-1.4038084745407104,-0.154296875,0.2406005859375,-0.0980224609375
6.985,516,2235,1519,1561,-7.0,33.0,19.0,82.76366424560547,-74.52392578125,13.854979515075684,-0.771484375,1.2618408203125,-1.0386962890625
6.994,527,2273,1624,1742,-7.0,29.0,20.0,87.40233612060547,-54.016109466552734,14.099120140075684,-1.146484375,1.906494140625,-1.4569091796875
6.999,523,2354,1691,1757,-7.0,29.0,20.0,21.484373092651367,-46.997066497802734,-9.46044921875,-1.3934326171875,1.48681640625,-0.8612060546875
7.015,525,2395,1588,1627,-7.0,29.0,20.0,-62.377925872802734,-48.767086029052734,-37.90283203125,-1.8924560546875,0.6607666015625,-0.133056640625
7.050,546,2437,1693,1750,-7.0,29.0,20.0,-96.86278533935547,-27.282712936401367,-36.43798828125,-3.2762451171875,-0.0325927734375,0.0595703125
7.050,532,2391,2060,1781,-7.0,29.0,20.0,-56.945796966552734,-25.573728561401367,-20.812986373901367,-3.0650634765625,0.0330810546875,-0.05712890625
7.052,536,2984,1796,1592,-7.0,29.0,20.0,-4.33349609375,-32.470703125,-17.51708984375,-1.9840087890625,0.052734375,-0.035888671875
7.061,533,2386,1675,1768,-7.0,29.0,20.0,43.273921966552734,-40.10009765625,-23.132322311401367,-1.3067626953125,0.386474609375,0.0762939453125
7.074,524,2344,1575,1624,-7.0,29.0,20.0,63.903804779052734,-33.50830078125,-22.216794967651367,-1.4580078125,0.7662353515625,0.0081787109375
7.081,526,2330,1643,1742,-7.0,29.0,20.0,49.865718841552734,-13.610838890075684,-15.441893577575684,-1.78515625,0.808349609375,-0.1475830078125
7.089,531,2286,1602,1711,-2.0,29.0,24.0,17.9443359375,5.920409679412842,-6.713866710662842,-1.904296875,0.6771240234375,-0.1712646484375
7.103,513,2161,1469,1518,-2.0,29.0,24.0,-11.779784202575684,21.606443405151367,-0.8544921278953552,-1.80517578125,0.465087890625,-0.1043701171875
7.112,512,2111,1504,1592,-2.0,29.0,24.0,-26.123044967651367,34.48486328125,0.7324218153953552,-1.6007080078125,0.288330078125,-0.0325927734375
7.120,497,2016,1452,1541,-2.0,29.0,24.0,-26.123044967651367,34.48486328125,0.7324218153953552,-1.377197265625,0.2447509765625,0.0172119140625
7.156,473,1881,1276,1306,-2.0,29.0,24.0,-16.41845703125,45.166011810302734,6.347655773162842,-1.157958984375,0.2471923828125,0.0078125
7.156,457,1759,1231,943,-2.0,29.0,24.0,-0.7934569716453552,44.494625091552734,9.21630859375,-0.9559326171875,0.18359375,-0.07275390625
7.157,438,1656,1117,1239,-2.0,29.0,24.0,-0.7934569716453552,44.494625091552734,9.21630859375,-0.7542724609375,0.11328125,-0.1817626953125
7.165,378,1387,902,1053,-2.0,29.0,24.0,35.0341796875,41.870113372802734,11.291502952575684,-0.4788818359375,0.0660400390625,-0.2730712890625
7.172,371,1151,855,927,-2.0,29.0,24.0,39.73388671875,41.259761810302734,9.82666015625,-0.2152099609375,-0.0123291015625,-0.3916015625
7.179,348,883,803,800,-2.0,29.0,24.0,39.73388671875,41.259761810302734,9.82666015625,-0.103515625,-0.12255859375,-0.4990234375
7.194,332,439,711,562,-5.0,32.0,26.0,31.677244186401367,42.785640716552734,-2.868652105331421,-0.1239013671875,-0.058837890625,-0.4566650390625
7.202,323,385,698,552,-5.0,32.0,26.0,18.00537109375,36.1328125,-6.103515148162842,-0.2056884765625,0.2735595703125,-0.3172607421875
7.211,318,371,684,539,-5.0,32.0,26.0,18.00537109375,36.1328125,-6.103515148162842,-0.3519287109375,0.5968017578125,-0.2137451171875
7.224,318,376,648,519,-5.0,32.0,26.0,-36.62109375,19.59228515625,-3.967284917831421,-0.5372314453125,0.670166015625,-0.125244140625
7.232,310,373,648,526,-5.0,32.0,26.0,-60.119625091552734,14.465331077575684,-13.732909202575684,-0.63623046875,0.5321044921875,0.0098876953125
7.263,304,384,636,535,-5.0,32.0,26.0,-60.119625091552734,14.465331077575684,-13.732909202575684,-0.65625,0.3507080078125,0.1104736328125
7.267,307,385,639,535,-5.0,32.0,26.0,-58.715816497802734,15.197752952575684,-33.26416015625,-0.672119140625,0.220458984375,0.13916015625
7.269,304,383,644,548,-5.0,32.0,26.0,-44.738765716552734,15.014647483825684,-28.076169967651367,-0.687744140625,0.130615234375,0.1116943359375
7.270,304,403,601,491,-5.0,32.0,26.0,-44.738765716552734,15.014647483825684,-28.076169967651367,-0.697265625,0.0706787109375,0.04736328125
7.284,306,390,644,540,0.0,30.0,19.0,-18.4326171875,11.230467796325684,-11.230467796325684,-0.6998291015625,0.0631103515625,-0.0013427734375
7.292,308,404,647,551,0.0,30.0,19.0,-7.995604991912842,8.48388671875,-3.723144292831421,-0.6788330078125,0.1099853515625,-0.0291748046875
7.300,310,405,654,551,0.0,30.0,19.0,-7.995604991912842,8.48388671875,-3.723144292831421,-0.634521484375,0.174072265625,-0.0511474609375
7.316,316,430,651,548,0.0,30.0,19.0,12.268065452575684,5.554198741912842,10.742186546325684,-0.599365234375,0.1964111328125,-0.055419921875
7.322,315,470,648,572,0.0,30.0,19.0,18.49365234375,5.310058116912842,15.502928733825684,-0.58544921875,0.14697265625,-0.0325927734375
7.330,316,481,695,590,0.0,30.0,19.0,18.49365234375,5.310058116912842,15.502928733825684,-0.5706787109375,0.0670166015625,-0.013427734375
7.359,323,766,654,706,0.0,30.0,19.0,24.230955123901367,6.469726085662842,22.399900436401367,-0.5673828125,0.0458984375,-0.037841796875
7.359,330,1056,651,859,0.0,30.0,19.0,24.230955123901367,6.469726085662842,22.399900436401367,-0.5938720703125,0.1046142578125,-0.1024169921875
7.360,336,1306,571,900,0.0,30.0,19.0,25.512693405151367,6.286620616912842,29.052732467651367,-0.5938720703125,0.1046142578125,-0.1024169921875
7.376,356,1452,673,963,0.0,30.0,19.0,20.629880905151367,0.1220703050494194,49.987789154052734,-0.7581787109375,0.44384765625,-0.31494140625
7.382,364,1582,762,1097,-6.0,30.0,14.0,20.629880905151367,0.1220703050494194,49.987789154052734,-0.688232421875,0.5439453125,-0.3572998046875
7.390,388,1719,858,1156,-6.0,30.0,14.0,18.73779296875,-4.150390625,53.283687591552734,-0.688232421875,0.5439453125,-0.3572998046875
7.404,442,1925,1057,1220,-6.0,30.0,14.0,-3.417968511581421,-37.59765625,19.83642578125,-0.061279296875,-0.0084228515625,0.251708984375
7.412,478,2001,1251,1434,-6.0,30.0,14.0,-3.417968511581421,-37.59765625,19.83642578125,0.2288818359375,-0.28076171875,0.6015625
7.420,495,2091,1355,1518,-6.0,30.0,14.0,6.652831554412842,-66.40625,1.8310545682907104,0.2288818359375,-0.28076171875,0.6015625
7.434,499,2205,1382,1472,-6.0,30.0,14.0,101.37938690185547,-76.59912109375,8.6669921875,-0.3399658203125,0.5540771484375,-0.32568359375
7.460,507,2247,1501,1664,-6.0,30.0,14.0,101.37938690185547,-76.59912109375,8.6669921875,-1.0020751953125,1.28466796875,-1.20263671875
7.461,479,2823,1506,1602,-6.0,30.0,14.0,116.45507049560547,-46.752925872802734,19.1650390625,-1.0020751953125,1.28466796875,-1.20263671875
7.463,514,2322,1573,1743,-6.0,30.0,14.0,-14.343260765075684,-8.4228515625,0.1220703050494194,-1.7696533203125,0.9130859375,-0.7578125
7.473,523,2341,1607,1739,-6.0,30.0,14.0,-14.343260765075684,-8.4228515625,0.1220703050494194,-2.0880126953125,0.271484375,-0.051513671875
7.486,537,2489,1445,1700,-9.0,29.0,19.0,-83.67919158935547,-12.329100608825684,-14.099120140075684,-2.0880126953125,0.271484375,-0.051513671875
7.494,519,2337,1545,1607,-9.0,29.0,19.0,-61.218257904052734,-17.333984375,-8.30078125,-2.6767578125,0.2672119140625,-0.0638427734375
7.502,521,2341,1611,1746,-9.0,29.0,19.0,-61.218257904052734,-17.333984375,-8.30078125,-2.331787109375,0.328857421875,-0.2919921875
7.511,523,2345,1610,1759,-9.0,29.0,19.0,-26.550291061401367,-19.1650390625,-6.896972179412842,-2.331787109375,0.328857421875,-0.2919921875
7.524,518,2320,1533,1604,-9.0,29.0,19.0,12.756346702575684,-17.15087890625,-14.953612327575684,-1.4190673828125,0.5526123046875,-0.2608642578125
7.532,506,2344,1600,1743,-9.0,29.0,19.0,12.756346702575684,-17.15087890625,-14.953612327575684,-1.6630859375,0.7315673828125,-0.1632080078125
7.566,504,2318,1592,1716,-9.0,29.0,19.0,9.46044921875,-15.441893577575684,-10.253905296325684,-1.6630859375,0.7315673828125,-0.1632080078125
7.566,513,2179,1455,1340,-9.0,29.0,19.0,-11.535643577575684,-0.30517578125,-7.080077648162842,-1.791015625,0.5489501953125,-0.12841796875
7.566,525,2142,1508,1634,-9.0,29.0,19.0,-11.535643577575684,-0.30517578125,-7.080077648162842,-1.585693359375,0.5238037109375,-0.1033935546875
7.572,519,2080,1478,1602,-9.0,29.0,19.0,-13.366698265075684,6.408690929412842,-7.446288585662842,-1.585693359375,0.5238037109375,-0.1033935546875
7.585,491,1981,1345,1382,-5.0,30.0,27.0,-12.878417015075684,13.000487327575684,-14.404295921325684,-1.1708984375,0.40673828125,-0.0269775390625
7.599,473,1880,1336,1447,-5.0,30.0,27.0,-12.878417015075684,13.000487327575684,-14.404295921325684,-1.0458984375,0.2869873046875,-0.055419921875
7.601,428,1890,1129,1323,-5.0,30.0,27.0,-7.202147960662842,18.37158203125,-15.930174827575684,-1.0458984375,0.2869873046875,-0.055419921875
7.621,418,1552,1055,1108,-5.0,30.0,27.0,20.996091842651367,29.968259811401367,-10.620116233825684,-0.7198486328125,0.0611572265625,-0.1954345703125
7.626,388,1433,922,980,-5.0,30.0,27.0,20.996091842651367,29.968259811401367,-10.620116233825684,-0.478515625,-0.0308837890625,-0.2764892578125
7.631,376,1116,927,939,-5.0,30.0,27.0,29.541013717651367,32.53173828125,-8.36181640625,-0.478515625,-0.0308837890625,-0.2764892578125
7.677,347,628,869,720,-5.0,30.0,27.0,31.494138717651367,31.249998092651367,-7.629394054412842,-0.2156982421875,-0.082763671875,-0.2635498046875
7.677,348,430,780,531,-5.0,30.0,27.0,31.494138717651367,31.249998092651367,-7.629394054412842,-0.2850341796875,0.0595703125,-0.208251953125
7.677,332,437,680,508,-5.0,30.0,27.0,25.268552780151367,27.038572311401367,-10.498045921325684,-0.2850341796875,0.0595703125,-0.208251953125
7.677,308,402,673,497,-7.0,32.0,26.0,15.319823265075684,20.446775436401367,-11.840819358825684,-0.5565185546875,0.572998046875,-0.1453857421875
7.683,306,390,657,539,-7.0,32.0,26.0,-1.7089842557907104,12.695311546325684,-10.620116233825684,-0.5565185546875,0.572998046875,-0.1453857421875
7.691,299,375,658,551,-7.0,32.0,26.0,-24.169919967651367,7.751464366912842,-10.192870140075684,-0.712890625,0.612060546875,-0.16064453125
7.711,292,376,633,536,-7.0,32.0,26.0,-38.26904296875,6.652831554412842,-16.9677734375,-0.7684326171875,0.3453369140625,-0.13671875
7.713,292,375,646,551,-7.0,32.0,26.0,-34.11865234375,7.934569835662842,-27.954099655151367,-0.7684326171875,0.3453369140625,-0.13671875
7.724,291,378,634,553,-7.0,32.0,26.0,-21.850584030151367,8.1787109375,-33.3251953125,-0.73095703125,0.2567138671875,-0.0989990234375
7.735,289,385,631,537,-7.0,32.0,26.0,-14.648436546325684,6.286620616912842,-32.53173828125,-0.6334228515625,0.0560302734375,-0.0255126953125
7.744,282,383,639,557,-7.0,32.0,26.0,-13.488768577575684,3.723144292831421,-28.442380905151367,-0.6334228515625,0.0560302734375,-0.0255126953125
7.773,294,388,644,552,-7.0,32.0,26.0,-12.451170921325684,1.03759765625,-20.935056686401367,-0.5892333984375,0.00048828125,0.0318603515625
7.773,300,400,646,551,-7.0,32.0,26.0,-7.202147960662842,-1.2817381620407104,-10.070799827575684,-0.4681396484375,0.0377197265625,0.1009521484375
7.774,304,404,644,553,-3.0,32.0,21.0,2.929687261581421,-2.01416015625,2.25830078125,-0.4681396484375,0.0377197265625,0.1009521484375
7.781,306,414,652,555,-3.0,32.0,21.0,15.319823265075684,-1.8310545682907104,13.488768577575684,-0.4061279296875,0.0751953125,0.1239013671875
7.794,330,480,625,537,-3.0,32.0,21.0,24.047849655151367,-2.624511480331421,21.850584030151367,-0.284912109375,-0.0301513671875,0.181396484375
7.803,348,591,636,591,-3.0,32.0,21.0,25.634763717651367,-3.784179449081421,27.221677780151367,-0.284912109375,-0.0301513671875,0.181396484375
7.811,365,963,636,756,-3.0,32.0,21.0,24.353025436401367,-3.173827886581421,31.677244186401367,-0.2476806640625,-0.2255859375,0.1376953125
7.825,371,1445,697,939,-3.0,32.0,21.0,31.127927780151367,-2.746581792831421,40.954586029052734,-0.3924560546875,0.28857421875,-0.0853271484375
7.833,382,1531,833,1092,-3.0,32.0,21.0,50.659175872802734,-9.09423828125,58.898921966552734,-0.3924560546875,0.28857421875,-0.0853271484375
7.841,411,1622,974,1199,-3.0,32.0,21.0,78.61328125,-24.230955123901367,75.1953125,-0.4967041015625,0.8509521484375,-0.2125244140625
7.869,490,1853,1236,1228,-3.0,32.0,21.0,96.55760955810547,-41.870113372802734,66.22314453125,0.181884765625,0.26025390625,0.117919921875
7.869,485,2203,1201,1163,-3.0,32.0,21.0,72.57080078125,-63.964839935302734,30.151365280151367,0.181884765625,0.26025390625,0.117919921875
7.880,441,2240,1341,1440,-9.0,31.0,29.0,23.559568405151367,-85.20507049560547,-4.5166015625,0.237060546875,-0.099853515625,0.431640625
7.885,514,2141,1561,1613,-9.0,31.0,29.0,17.63916015625,-79.7119140625,-18.6767578125,-1.10205078125,0.9268798828125,-1.329345703125
7.895,513,2137,1616,1669,-9.0,31.0,29.0,48.522945404052734,-47.119136810302734,-14.221190452575684,-1.10205078125,0.9268798828125,-1.329345703125
7.901,513,2178,1651,1691,-9.0,31.0,29.0,38.51318359375,-23.498533248901367,-9.6435546875,-1.5692138671875,1.447509765625,-1.67236328125
7.915,527,2203,1602,1578,-9.0,31.0,29.0,-28.808591842651367,-28.137205123901367,-22.216794967651367,-1.8885498046875,1.065185546875,-0.99951171875
7.923,543,2235,1718,1732,-9.0,31.0,29.0,-93.99413299560547,-39.4287109375,-40.344234466552734,-2.3868408203125,0.392333984375,-0.2191162109375
7.936,543,2259,1761,1761,-9.0,31.0,29.0,-115.60057830810547,-44.555660247802734,-45.959468841552734,-2.88671875,-0.0567626953125,0.2364501953125
7.945,497,2392,1675,1700,-9.0,31.0,29.0,-92.16307830810547,-48.950191497802734,-37.9638671875,-3.0576171875,-0.0015869140625,0.3406982421875
7.972,527,2246,1693,1711,-9.0,31.0,29.0,-39.73388671875,-48.950191497802734,-24.780271530151367,-2.4130859375,0.28173828125,0.189208984375
7.972,522,2217,1922,1428,-9.0,31.0,29.0,10.070799827575684,-41.870113372802734,-20.751951217651367,-1.4517822265625,0.4952392578125,0.1185302734375
7.974,532,2191,1669,1727,-5.0,28.0,33.0,32.77587890625,-27.099607467651367,-26.123044967651367,-1.2701416015625,0.608154296875,0.113037109375
7.984,519,2316,1534,1662,-5.0,28.0,33.0,28.076169967651367,-8.4228515625,-29.113767623901367,-1.655517578125,0.5025634765625,0.05615234375
7.991,521,2135,1613,1686,-5.0,28.0,33.0,15.991209983825684,4.45556640625,-21.240232467651367,-1.9383544921875,0.447265625,-0.0086669921875
8.006,509,2035,1527,1518,-5.0,28.0,33.0,6.408690929412842,11.291502952575684,-6.713866710662842,-1.8828125,0.44384765625,-0.035888671875
8.013,500,1994,1557,1611,-5.0,28.0,33.0,-0.54931640625,19.04296875,1.8310545682907104,-1.6578369140625,0.373046875,-0.0333251953125
8.021,491,1948,1531,1557,-5.0,28.0,33.0,-2.38037109375,28.991697311401367,4.0283203125,-1.4334716796875,0.305419921875,0.0262451171875
8.035,473,1801,1357,1345,-5.0,28.0,33.0,1.0986328125,38.14697265625,6.896972179412842,-1.2723388671875,0.3232421875,0.0931396484375
8.051,445,1744,1316,1362,-5.0,28.0,33.0,6.896972179412842,45.776363372802734,11.840819358825684,-1.1380615234375,0.3001708984375,0.077392578125
8.052,423,1610,1223,1303,-5.0,28.0,33.0,14.465331077575684,53.588863372802734,14.831542015075684,-0.9794921875,0.1514892578125,-0.0047607421875
8.073,385,1313,999,1004,-5.0,28.0,33.0,23.254392623901367,60.241695404052734,14.953612327575684,-0.814697265625,-0.00732421875,-0.09130859375
8.074,371,1172,858,932,-5.0,29.0,18.0,30.029294967651367,62.072750091552734,14.709471702575684,-0.5924072265625,-0.1441650390625,-0.21044921875
8.082,344,827,865,815,-5.0,29.0,18.0,34.0576171875,58.898921966552734,13.305663108825684,-0.31640625,-0.2149658203125,-0.363037109375
8.094,305,456,731,590,-5.0,29.0,18.0,39.9169921875,53.405757904052734,6.896972179412842,-0.1663818359375,-0.10693359375,-0.483154296875
8.103,292,361,691,564,-5.0,29.0,18.0,44.799800872802734,45.288082122802734,-4.33349609375,-0.2618408203125,0.2166748046875,-0.5003662109375
8.111,270,391,625,536,-5.0,29.0,18.0,33.75244140625,31.555173873901367,-13.122557640075684,-0.51025390625,0.71337890625,-0.400390625
8.127,280,387,620,533,-5.0,29.0,18.0,-5.371093273162842,13.732909202575684,-13.000487327575684,-0.6881103515625,1.129150390625,-0.2392578125
8.134,282,411,624,543,-5.0,29.0,18.0,-64.697265625,-0.9765624403953552,-11.230467796325684,-0.6744384765625,1.065185546875,-0.0789794921875
8.141,279,401,607,548,-5.0,29.0,18.0,-109.00878143310547,-4.33349609375,-20.263669967651367,-0.5760498046875,0.607666015625,0.00390625
8.179,276,401,591,522,-5.0,29.0,18.0,-112.85399627685547,2.44140625,-34.72900390625,-0.5120849609375,0.215087890625,0.010986328125
8.180,273,406,594,547,-2.0,30.0,19.0,-91.61376190185547,8.97216796875,-40.344234466552734,-0.489013671875,0.0830078125,0.009521484375
8.180,275,411,593,548,-2.0,30.0,19.0,-73.974609375,9.09423828125,-33.99658203125,-0.4749755859375,0.08447265625,0.0115966796875
8.186,274,415,591,545,-2.0,30.0,19.0,-70.4345703125,5.310058116912842,-22.705076217651367,-0.4486083984375,0.0528564453125,0.0010986328125
8.197,279,439,571,540,-2.0,30.0,19.0,-72.44873046875,1.7700194120407104,-12.878417015075684,-0.414794921875,-0.04345703125,-0.004150390625
8.201,281,433,593,551,-2.0,30.0,19.0,-68.4814453125,0.1220703050494194,-5.615233898162842,-0.378173828125,-0.1212158203125,0.01123046875
8.215,282,441,593,546,-2.0,30.0,19.0,-53.588863372802734,0.6103515625,0.7934569716453552,-0.3511962890625,-0.1285400390625,0.0343017578125
8.223,290,437,617,571,-2.0,30.0,19.0,-32.2265625,1.9531248807907104,7.263183116912842,-0.3365478515625,-0.08837890625,0.0499267578125
8.231,291,454,625,576,-2.0,30.0,19.0,-13.122557640075684,2.44140625,13.610838890075684,-0.35302734375,-0.0662841796875,0.0628662109375
8.245,308,669,628,644,-2.0,30.0,19.0,-1.3427733182907104,1.6479490995407104,18.06640625,-0.4564208984375,-0.1754150390625,0.0570068359375
8.253,328,1081,630,844,-2.0,30.0,19.0,8.85009765625,0.9765624403953552,21.667478561401367,-0.556884765625,-0.2745361328125,-0.0068359375
8.282,334,1318,668,958,-5.0,26.0,22.0,23.925779342651367,1.15966796875,32.1044921875,-0.623291015625,-0.05029296875,-0.1356201171875
8.283,356,1504,722,1018,-5.0,26.0,22.0,35.64453125,-1.5869139432907104,51.452632904052734,-0.7763671875,0.4439697265625,-0.2843017578125
8.283,376,1702,748,1123,-5.0,26.0,22.0,31.433103561401367,-7.751464366912842,65.673828125,-0.8040771484375,0.740966796875,-0.3741455078125
8.293,406,1748,923,1222,-5.0,26.0,22.0,8.056640625,-19.34814453125,58.532711029052734,-0.450439453125,0.54443359375,-0.1300048828125
8.306,465,1838,1211,1313,-5.0,26.0,22.0,-18.12744140625,-41.625972747802734,32.77587890625,0.00634765625,0.050048828125,0.4300537109375
8.313,482,1904,1411,1499,-5.0,26.0,22.0,-12.573241233825684,-64.3310546875,5.920409679412842,0.1419677734375,-0.4146728515625,0.7633056640625
8.320,482,1978,1464,1560,-5.0,26.0,22.0,35.0341796875,-69.27490234375,-3.723144292831421,-0.12548828125,-0.3751220703125,0.449462890625
8.334,494,2076,1504,1519,-5.0,26.0,22.0,93.26171112060547,-49.987789154052734,8.30078125,-0.69384765625,0.4412841796875,-0.5203857421875
8.343,497,2115,1613,1666,-5.0,26.0,22.0,114.92919158935547,-20.690916061401367,23.986814498901367,-1.3048095703125,1.421630859375,-1.4945068359375
8.351,518,2180,1650,1678,-5.0,26.0,22.0,67.68798828125,-8.30078125,21.362302780151367,-1.7203369140625,1.480712890625,-1.540771484375
8.366,509,2183,1627,1560,-5.0,28.0,18.0,-17.578125,-15.014647483825684,2.929687261581421,-2.093505859375,0.8546142578125,-0.8267822265625
8.380,518,2220,1691,1743,-5.0,28.0,18.0,-77.57568359375,-23.254392623901367,-8.1787109375,-2.52099609375,0.2659912109375,-0.0308837890625
8.388,523,2207,1722,1786,-5.0,28.0,18.0,-77.57568359375,-23.254392623901367,-8.1787109375,-2.7972412109375,0.00146484375,0.3636474609375
8.396,512,2134,1634,1604,-5.0,28.0,18.0,-55.786128997802734,-27.893064498901367,5.493163585662842,-2.662353515625,0.2161865234375,0.156494140625
8.410,523,2207,1689,1730,-5.0,28.0,18.0,-14.648436546325684,-20.01953125,12.756346702575684,-1.9090576171875,0.438720703125,-0.190185546875
8.411,522,2143,1703,1750,-5.0,28.0,18.0,-14.648436546325684,-20.01953125,12.756346702575684,-1.2574462890625,0.60986328125,-0.276611328125
8.427,518,2091,1611,1604,-5.0,28.0,18.0,6.164550304412842,-9.09423828125,0.4272460639476776,-1.387939453125,0.7691650390625,-0.1124267578125
8.433,513,2087,1659,1711,-5.0,28.0,18.0,-5.310058116912842,-3.784179449081421,-3.479003667831421,-1.78369140625,0.7510986328125,0.066162109375
8.441,514,2047,1655,1694,-5.0,28.0,18.0,-5.310058116912842,-3.784179449081421,-3.479003667831421,-1.9407958984375,0.669189453125,0.1124267578125
8.455,508,1957,1534,1499,-5.0,28.0,18.0,-15.075682640075684,8.85009765625,-2.563476324081421,-1.822998046875,0.629638671875,0.0208740234375
8.485,499,1904,1573,1595,-4.0,30.0,19.0,-12.817381858825684,17.9443359375,-5.676269054412842,-1.5767822265625,0.59521484375,-0.0675048828125
8.491,485,2155,1607,1411,-4.0,30.0,19.0,-12.817381858825684,17.9443359375,-5.676269054412842,-1.3424072265625,0.566650390625,-0.0517578125
8.491,437,2117,1336,1401,-4.0,30.0,19.0,-4.8828125,26.855466842651367,-15.197752952575684,-1.14794921875,0.482666015625,0.0003662109375
8.502,441,1757,1253,1294,-4.0,30.0,19.0,2.50244140625,27.343748092651367,-17.27294921875,-0.9639892578125,0.2861328125,-0.00341796875
8.502,423,1540,1251,1268,-4.0,30.0,19.0,2.50244140625,27.343748092651367,-17.27294921875,-0.7991943359375,0.1236572265625,-0.087646484375
8.521,385,1274,1012,1012,-4.0,30.0,19.0,32.1044921875,23.864744186401367,-19.59228515625,-0.6304931640625,0.0460205078125,-0.2176513671875
8.523,371,1267,934,959,-4.0,30.0,19.0,36.7431640625,20.751951217651367,-22.827146530151367,-0.39990234375,-0.05712890625,-0.32470703125
8.531,361,846,938,853,-4.0,30.0,19.0,36.7431640625,20.751951217651367,-22.827146530151367,-0.2083740234375,-0.210205078125,-0.39208984375
8.549,327,485,827,636,-4.0,30.0,19.0,28.259275436401367,23.071287155151367,-36.92626953125,-0.223388671875,-0.2088623046875,-0.42041015625
8.556,308,390,750,579,-4.0,30.0,19.0,23.071287155151367,24.414060592651367,-36.7431640625,-0.3489990234375,0.0672607421875,-0.327392578125
8.587,302,359,706,546,-4.0,30.0,24.0,-22.644041061401367,11.169432640075684,-22.705076217651367,-0.497314453125,0.6448974609375,-0.017822265625
8.588,304,376,683,562,-4.0,30.0,24.0,-53.222652435302734,6.164550304412842,-19.34814453125,-0.554443359375,0.59619140625,0.0889892578125
8.591,299,376,688,564,-4.0,30.0,24.0,-53.222652435302734,6.164550304412842,-19.34814453125,-0.554443359375,0.59619140625,0.0889892578125
8.612,296,387,673,546,-4.0,30.0,24.0,-63.293453216552734,7.446288585662842,-29.174802780151367,-0.5875244140625,0.2171630859375,0.146240234375
8.613,299,385,682,563,-4.0,30.0,24.0,-63.293453216552734,7.446288585662842,-29.174802780151367,-0.5687255859375,0.1365966796875,0.1317138671875
