time,compression0,compression1,compression2,compression3,magn_x,magn_y,magn_z,gyro_x,gyro_y,gyro_z,accel_x,accel_y,accel_z
0.005,289,1317,508,894,3.0,37.0,8.0,0.1831054538488388,2.44140625,-9.33837890625,-0.793212890625,0.4317626953125,0.4471435546875
0.025,280,1261,519,899,3.0,37.0,8.0,0.1220703050494194,2.624511480331421,-9.94873046875,-0.78955078125,0.43017578125,0.447265625
0.027,296,1253,589,815,3.0,37.0,8.0,0.0610351525247097,2.685546636581421,-10.681151390075684,-0.7852783203125,0.4285888671875,0.4473876953125
0.034,280,1231,517,888,3.0,37.0,8.0,-0.0610351525247097,2.746581792831421,-11.474608421325684,-0.78271484375,0.4288330078125,0.4481201171875
0.045,280,1231,514,888,4.0,37.0,7.0,-0.3662109076976776,2.929687261581421,-12.329100608825684,-0.7825927734375,0.4290771484375,0.4483642578125
0.063,280,1231,493,829,4.0,37.0,7.0,-1.15966796875,3.234863042831421,-13.000487327575684,-0.78564453125,0.4256591796875,0.4451904296875
0.065,263,1399,525,853,4.0,37.0,7.0,-1.8920897245407104,3.417968511581421,-13.549803733825684,-0.7904052734375,0.4212646484375,0.4410400390625
0.072,282,1214,521,879,4.0,37.0,7.0,-2.44140625,3.479003667831421,-14.099120140075684,-0.794189453125,0.4176025390625,0.4385986328125
0.087,280,1211,496,834,4.0,37.0,7.0,-2.990722417831421,3.479003667831421,-14.770506858825684,-0.796142578125,0.4130859375,0.437255859375
0.121,280,1214,519,882,4.0,37.0,7.0,-3.540038824081421,3.417968511581421,-15.380858421325684,-0.797119140625,0.405517578125,0.4365234375
0.141,279,1217,518,867,4.0,37.0,7.0,-3.784179449081421,3.417968511581421,-15.869139671325684,-0.7978515625,0.3968505859375,0.437744140625
0.145,282,1213,500,829,4.0,37.0,7.0,-3.723144292831421,3.356933355331421,-16.2353515625,-0.7994384765625,0.389892578125,0.44091796875
0.145,282,1271,518,835,4.0,37.0,7.0,-3.540038824081421,3.356933355331421,-16.4794921875,-0.80224609375,0.3857421875,0.4429931640625
0.145,282,1289,518,834,4.0,37.0,7.0,-3.112792730331421,3.479003667831421,-16.4794921875,-0.8056640625,0.3861083984375,0.4415283203125
0.146,286,1251,495,790,4.0,34.0,9.0,-2.685546636581421,3.417968511581421,-16.41845703125,-0.807861328125,0.3883056640625,0.4390869140625
0.156,279,1243,523,832,4.0,34.0,9.0,-2.50244140625,3.234863042831421,-16.29638671875,-0.8096923828125,0.3895263671875,0.437255859375
0.171,286,1233,522,828,4.0,34.0,9.0,-2.25830078125,2.807616949081421,-16.17431640625,-0.8138427734375,0.3924560546875,0.4344482421875
0.176,282,1213,517,767,4.0,34.0,9.0,-2.197265625,2.197265625,-16.11328125,-0.8175048828125,0.39501953125,0.43115234375
0.184,281,1183,531,814,4.0,34.0,9.0,-2.3193359375,1.4648436307907104,-16.11328125,-0.8203125,0.393310546875,0.430419921875
0.192,280,1173,531,750,4.0,34.0,9.0,-2.685546636581421,0.6103515625,-16.11328125,-0.8251953125,0.3875732421875,0.435302734375
0.206,279,1109,516,750,4.0,34.0,9.0,-2.990722417831421,-0.3662109076976776,-16.05224609375,-0.83154296875,0.381591796875,0.439697265625
0.229,280,1093,536,780,4.0,34.0,9.0,-3.540038824081421,-1.5869139432907104,-15.624999046325684,-0.8408203125,0.3812255859375,0.4344482421875
0.229,267,1091,508,731,4.0,34.0,9.0,-4.2724609375,-3.417968511581421,-14.953612327575684,-0.8563232421875,0.38623046875,0.42431640625
0.236,279,971,535,695,6.0,35.0,6.0,-4.5166015625,-6.042479991912842,-13.977049827575684,-0.8753662109375,0.388671875,0.4185791015625
0.248,279,927,548,723,6.0,35.0,6.0,-4.45556640625,-8.97216796875,-12.817381858825684,-0.8875732421875,0.3837890625,0.418701171875
0.252,280,905,553,706,6.0,35.0,6.0,-4.69970703125,-12.023924827575684,-11.169432640075684,-0.8807373046875,0.370849609375,0.4193115234375
0.272,278,865,537,667,6.0,35.0,6.0,-5.371093273162842,-15.014647483825684,-9.1552734375,-0.848876953125,0.3463134765625,0.414794921875
0.280,279,890,521,707,6.0,35.0,6.0,-5.615233898162842,-17.822265625,-7.080077648162842,-0.794189453125,0.3062744140625,0.404052734375
0.283,279,887,546,736,6.0,35.0,6.0,-5.615233898162842,-17.822265625,-7.080077648162842,-0.7183837890625,0.25146484375,0.3897705078125
0.296,277,1001,513,737,6.0,35.0,6.0,-0.30517578125,-23.193357467651367,-4.57763671875,-0.6322021484375,0.185791015625,0.367431640625
0.305,279,1123,481,790,6.0,35.0,6.0,6.591796398162842,-26.916501998901367,-5.371093273162842,-0.5360107421875,0.12109375,0.3087158203125
0.328,278,1236,495,865,6.0,35.0,6.0,6.591796398162842,-26.916501998901367,-5.371093273162842,-0.4061279296875,0.0916748046875,0.2249755859375
0.330,282,1569,432,883,6.0,35.0,6.0,23.437498092651367,-37.9638671875,-14.648436546325684,-0.2432861328125,0.11181640625,0.1864013671875
0.334,289,1746,423,1039,8.0,34.0,7.0,29.541013717651367,-42.724605560302734,-23.681638717651367,-0.0238037109375,0.178466796875,0.1739501953125
0.342,293,1874,428,1112,8.0,34.0,7.0,29.541013717651367,-42.724605560302734,-23.681638717651367,0.23583984375,0.3243408203125,0.145751953125
0.357,308,2074,414,1117,8.0,34.0,7.0,11.108397483825684,-39.6728515625,-49.987789154052734,0.4453125,0.4893798828125,0.1954345703125
0.364,313,2249,510,1236,8.0,34.0,7.0,-15.624999046325684,-33.75244140625,-73.79150390625,0.5167236328125,0.4996337890625,0.2991943359375
0.372,316,2286,495,1289,8.0,34.0,7.0,-15.624999046325684,-33.75244140625,-73.79150390625,0.23095703125,0.3419189453125,0.356201171875
0.393,323,2532,468,1191,8.0,34.0,7.0,-83.86229705810547,-8.72802734375,-111.02294158935547,-0.4459228515625,0.232177734375,0.4508056640625
0.395,332,2636,600,1401,8.0,34.0,7.0,-85.87645721435547,-8.30078125,-96.98485565185547,-1.258056640625,0.2974853515625,0.743408203125
0.403,337,2530,563,1411,8.0,34.0,7.0,-85.87645721435547,-8.30078125,-96.98485565185547,-2.0205078125,0.474365234375,1.14306640625
0.432,354,2610,548,1343,8.0,34.0,7.0,-57.861324310302734,-65.00244140625,-38.51318359375,-2.528564453125,0.524169921875,1.1961669921875
0.435,352,2648,639,1487,8.0,34.0,7.0,-69.091796875,-97.04589080810547,-12.268065452575684,-2.5623779296875,0.1571044921875,0.868896484375
0.440,360,2753,634,1490,9.0,30.0,13.0,-69.091796875,-97.04589080810547,-12.268065452575684,-2.052001953125,-0.3565673828125,0.6077880859375
0.454,347,2864,661,1456,9.0,30.0,13.0,-45.959468841552734,-112.67089080810547,15.991209983825684,-1.2835693359375,-0.496337890625,0.6600341796875
0.455,375,2958,536,1306,9.0,30.0,13.0,2.197265625,-82.76366424560547,10.620116233825684,-0.7640380859375,-0.142333984375,0.922119140625
0.462,347,2765,601,1521,9.0,30.0,13.0,2.197265625,-82.76366424560547,10.620116233825684,-0.6876220703125,0.477294921875,1.072021484375
0.476,352,2710,526,1400,9.0,30.0,13.0,49.194332122802734,16.17431640625,5.187987804412842,-0.805908203125,0.88232421875,0.93115234375
0.487,336,2777,617,1440,9.0,30.0,13.0,33.0810546875,44.311519622802734,5.554198741912842,-0.9029541015625,0.8402099609375,0.6715087890625
0.493,359,2672,614,1504,9.0,30.0,13.0,33.0810546875,44.311519622802734,5.554198741912842,-0.9029541015625,0.8402099609375,0.6715087890625
0.506,360,2587,578,1398,9.0,30.0,13.0,7.629394054412842,41.137691497802734,-7.263183116912842,-1.476318359375,0.572265625,0.9066162109375
0.514,354,2516,636,1472,9.0,30.0,13.0,7.629394054412842,41.137691497802734,-7.263183116912842,-1.6109619140625,0.628662109375,1.1650390625
0.535,347,2473,642,1428,9.0,30.0,13.0,1.7089842557907104,16.7236328125,-6.591796398162842,-1.6109619140625,0.628662109375,1.1650390625
0.537,338,2489,522,1334,12.0,34.0,12.0,-9.46044921875,-23.925779342651367,13.549803733825684,-1.1295166015625,0.2073974609375,0.9661865234375
0.544,334,2218,594,1323,12.0,34.0,12.0,-9.46044921875,-23.925779342651367,13.549803733825684,-0.8602294921875,0.008544921875,0.7357177734375
0.555,330,2122,590,1289,12.0,34.0,12.0,-1.3427733182907104,-26.428220748901367,21.789548873901367,-0.8602294921875,0.008544921875,0.7357177734375
0.567,316,1981,523,1104,12.0,34.0,12.0,26.977537155151367,-3.601073980331421,23.620603561401367,-0.50390625,-0.1546630859375,0.41162109375
0.575,315,1865,563,1163,12.0,34.0,12.0,26.977537155151367,-3.601073980331421,23.620603561401367,-0.522216796875,-0.1221923828125,0.38232421875
0.583,316,1730,549,1143,12.0,34.0,12.0,34.912109375,22.277830123901367,16.41845703125,-0.522216796875,-0.1221923828125,0.38232421875
0.596,304,1548,519,1004,12.0,34.0,12.0,45.104976654052734,67.19970703125,4.94384765625,-0.771484375,0.1741943359375,0.39599609375
0.607,292,1411,527,951,12.0,34.0,12.0,45.104976654052734,67.19970703125,4.94384765625,-0.8599853515625,0.2252197265625,0.2987060546875
0.618,286,1264,525,890,12.0,34.0,12.0,42.785640716552734,78.125,-0.2441406100988388,-0.8599853515625,0.2252197265625,0.2987060546875
0.637,275,1005,508,736,8.0,32.0,9.0,37.353515625,81.05467987060547,-12.939452171325684,-0.753173828125,0.349609375,0.12060546875
0.637,275,840,523,653,8.0,32.0,9.0,37.353515625,81.05467987060547,-12.939452171325684,-0.6861572265625,0.4058837890625,0.1685791015625
0.643,274,772,540,687,8.0,32.0,9.0,40.893550872802734,75.927734375,-17.15087890625,-0.6861572265625,0.4058837890625,0.1685791015625
0.656,267,644,516,614,8.0,32.0,9.0,37.109375,54.260250091552734,-12.817381858825684,-0.727783203125,0.527587890625,0.551025390625
0.665,263,623,537,630,8.0,32.0,9.0,37.109375,54.260250091552734,-12.817381858825684,-0.642822265625,0.2879638671875,0.6024169921875
0.672,264,621,536,628,8.0,32.0,9.0,3.723144292831421,35.70556640625,-17.15087890625,-0.642822265625,0.2879638671875,0.6024169921875
0.687,263,614,519,600,8.0,32.0,9.0,-32.2265625,21.911619186401367,-32.2265625,-0.597412109375,0.1563720703125,0.43115234375
0.699,263,605,536,617,8.0,32.0,9.0,-32.2265625,21.911619186401367,-32.2265625,-0.623291015625,0.2498779296875,0.4241943359375
0.711,263,597,533,614,8.0,32.0,9.0,-13.244627952575684,23.803709030151367,-28.991697311401367,-0.623291015625,0.2498779296875,0.4241943359375
0.751,263,585,537,607,9.0,30.0,8.0,7.507323741912842,16.2353515625,-18.37158203125,-0.5941162109375,0.3057861328125,0.4359130859375
0.760,265,591,533,601,9.0,30.0,8.0,0.30517578125,10.437010765075684,-15.930174827575684,-0.5867919921875,0.285888671875,0.4033203125
0.760,265,599,526,562,9.0,30.0,8.0,-3.540038824081421,6.591796398162842,-13.977049827575684,-0.642578125,0.2672119140625,0.36865234375
0.760,264,589,538,601,9.0,30.0,8.0,0.1831054538488388,4.57763671875,-11.474608421325684,-0.642578125,0.2672119140625,0.36865234375
0.764,265,579,540,601,9.0,30.0,8.0,7.019042491912842,4.0283203125,-8.1787109375,-0.687255859375,0.2747802734375,0.3818359375
0.776,265,592,531,578,9.0,30.0,8.0,10.437010765075684,3.845214605331421,-5.126952648162842,-0.740478515625,0.2548828125,0.402587890625
0.784,263,589,543,603,9.0,30.0,8.0,8.48388671875,2.807616949081421,-3.417968511581421,-0.740478515625,0.2548828125,0.402587890625
0.792,265,579,543,603,9.0,30.0,8.0,4.45556640625,0.9155272841453552,-2.929687261581421,-0.760986328125,0.2137451171875,0.373779296875
0.806,265,588,539,588,9.0,30.0,8.0,2.624511480331421,-0.7934569716453552,-2.44140625,-0.7933349609375,0.1378173828125,0.2939453125
0.814,266,593,540,601,9.0,30.0,8.0,4.8828125,-1.3427733182907104,-1.15966796875,-0.7933349609375,0.1378173828125,0.2939453125
0.823,265,590,546,605,9.0,30.0,8.0,10.864256858825684,-0.7324218153953552,0.7324218153953552,-0.80810546875,0.120361328125,0.2803955078125
0.847,267,614,529,584,9.0,32.0,7.0,19.71435546875,0.0610351525247097,2.746581792831421,-0.8345947265625,0.1444091796875,0.3485107421875
0.848,267,631,540,614,9.0,32.0,7.0,29.663084030151367,0.2441406100988388,4.638671875,-0.8345947265625,0.1444091796875,0.3485107421875
0.853,268,638,547,617,9.0,32.0,7.0,38.0859375,-0.54931640625,6.103515148162842,-0.853271484375,0.197509765625,0.39599609375
0.867,268,638,536,605,9.0,32.0,7.0,41.687007904052734,-2.868652105331421,7.812499523162842,-0.9017333984375,0.321044921875,0.46337890625
0.875,267,658,547,636,9.0,32.0,7.0,38.39111328125,-7.141112804412842,10.559081077575684,-0.9017333984375,0.321044921875,0.46337890625
0.883,268,673,552,644,9.0,32.0,7.0,29.235837936401367,-12.939452171325684,14.038084983825684,-0.88232421875,0.3463134765625,0.473388671875
0.896,274,720,537,634,9.0,32.0,7.0,17.88330078125,-18.73779296875,17.333984375,-0.673583984375,0.2867431640625,0.4371337890625
0.910,277,799,562,697,9.0,32.0,7.0,7.019042491912842,-23.254392623901367,18.85986328125,-0.673583984375,0.2867431640625,0.4371337890625
0.914,279,1005,514,733,9.0,32.0,7.0,-1.2817381620407104,-25.451658248901367,15.686034202575684,-0.4559326171875,0.188232421875,0.4193115234375
0.926,286,1336,500,845,11.0,32.0,8.0,-3.479003667831421,-24.658201217651367,4.94384765625,-0.027587890625,0.16162109375,0.43408203125
0.944,290,1550,506,980,11.0,32.0,8.0,3.601073980331421,-22.094724655151367,-11.840819358825684,-0.027587890625,0.16162109375,0.43408203125
0.944,300,1750,497,1054,11.0,32.0,8.0,14.892577171325684,-19.8974609375,-29.541013717651367,0.1248779296875,0.3521728515625,0.425048828125
0.956,318,2041,487,1138,11.0,32.0,8.0,10.986327171325684,-17.02880859375,-42.846675872802734,0.290283203125,0.463134765625,0.3167724609375
0.964,327,2139,564,1317,11.0,32.0,8.0,-24.291990280151367,-12.451170921325684,-49.621578216552734,0.4149169921875,0.2703857421875,0.2496337890625
0.972,338,2258,579,1363,11.0,32.0,8.0,-73.73046875,-2.197265625,-54.870601654052734,0.2923583984375,-0.103759765625,0.218994140625
0.986,349,2456,574,1331,11.0,32.0,8.0,-100.95214080810547,12.939452171325684,-62.316890716552734,-0.2235107421875,-0.385498046875,0.196044921875
0.994,362,2512,669,1474,11.0,32.0,8.0,-81.97020721435547,17.4560546875,-66.5283203125,-0.9873046875,-0.2744140625,0.3958740234375
1.003,373,2493,685,1560,11.0,32.0,8.0,-28.625486373901367,3.112792730331421,-61.828609466552734,-1.8924560546875,0.30908203125,0.831298828125
1.018,383,2526,669,1504,11.0,32.0,8.0,8.1787109375,-24.353025436401367,-46.752925872802734,-2.747802734375,0.8525390625,1.0545654296875
1.025,385,2569,731,1588,11.0,32.0,4.0,5.676269054412842,-52.001949310302734,-22.583005905151367,-3.11572265625,0.8565673828125,0.921142578125
1.047,378,2601,738,1550,11.0,32.0,4.0,-12.878417015075684,-75.01220703125,1.8310545682907104,-2.62646484375,0.2852783203125,0.6859130859375
1.047,361,2703,656,1428,11.0,32.0,4.0,-23.376462936401367,-86.73094940185547,12.390135765075684,-1.5616455078125,-0.38427734375,0.598388671875
1.055,374,2635,667,1550,11.0,32.0,4.0,1.8920897245407104,-66.95556640625,6.896972179412842,-0.7718505859375,-0.3206787109375,0.8265380859375
1.072,373,2578,693,1592,11.0,32.0,4.0,49.682613372802734,-19.71435546875,0.30517578125,-0.63134765625,0.4376220703125,1.0787353515625
1.076,369,2560,666,1450,11.0,32.0,4.0,64.51416015625,26.794431686401367,-0.1831054538488388,-1.0318603515625,1.06884765625,1.1160888671875
1.085,363,2486,673,1533,11.0,32.0,4.0,35.7666015625,49.621578216552734,-0.0610351525247097,-1.6383056640625,1.244873046875,1.000244140625
1.092,351,2464,666,1447,11.0,32.0,4.0,-6.286620616912842,42.297359466552734,-2.13623046875,-1.97021484375,0.9935302734375,0.844970703125
1.106,356,2279,586,1340,11.0,32.0,4.0,-36.376953125,15.624999046325684,-4.33349609375,-1.847412109375,0.5452880859375,0.7567138671875
1.115,344,2395,472,1335,11.0,32.0,4.0,-44.738765716552734,-10.131834983825684,-4.33349609375,-1.4439697265625,0.136962890625,0.720947265625
1.123,344,2111,614,1335,10.0,30.0,7.0,-34.48486328125,-20.996091842651367,-0.1831054538488388,-1.0404052734375,-0.0867919921875,0.7254638671875
1.150,327,1874,567,1160,10.0,30.0,7.0,-15.930174827575684,-18.1884765625,7.446288585662842,-0.72216796875,-0.1080322265625,0.678955078125
1.150,323,1798,572,1175,10.0,30.0,7.0,-2.990722417831421,-4.8828125,12.634276390075684,-0.46875,-0.1224365234375,0.5047607421875
1.153,313,1704,574,1067,10.0,30.0,7.0,4.94384765625,18.85986328125,9.1552734375,-0.3236083984375,-0.1627197265625,0.306884765625
1.166,304,1480,552,923,10.0,30.0,7.0,17.15087890625,46.691890716552734,-1.2817381620407104,-0.312255859375,-0.130615234375,0.182861328125
1.181,300,1366,576,975,10.0,30.0,7.0,32.3486328125,67.93212890625,-11.840819358825684,-0.4046630859375,-0.09619140625,0.1407470703125
1.183,292,1286,562,900,10.0,30.0,7.0,41.748043060302734,76.59912109375,-18.85986328125,-0.532470703125,-0.0880126953125,0.1429443359375
1.196,289,1160,526,784,10.0,30.0,7.0,44.494625091552734,75.3173828125,-21.362302780151367,-0.622802734375,0.031494140625,0.1317138671875
1.206,281,1096,548,800,10.0,30.0,7.0,45.043941497802734,69.03076171875,-18.85986328125,-0.626953125,0.2138671875,0.1280517578125
1.214,280,1018,537,780,10.0,30.0,7.0,43.884273529052734,59.570308685302734,-14.282225608825684,-0.6177978515625,0.3321533203125,0.17529296875
1.229,274,917,537,711,11.0,30.0,9.0,39.1845703125,48.034664154052734,-8.85009765625,-0.6497802734375,0.412109375,0.267578125
1.256,275,860,539,732,11.0,30.0,9.0,27.954099655151367,34.66796875,-2.50244140625,-0.6510009765625,0.4168701171875,0.3809814453125
1.256,276,837,548,723,11.0,30.0,9.0,9.82666015625,20.324705123901367,2.01416015625,-0.6014404296875,0.30859375,0.4635009765625
1.257,275,855,485,675,11.0,30.0,9.0,-7.568358898162842,9.3994140625,2.624511480331421,-0.56494140625,0.178466796875,0.4989013671875
1.264,276,849,562,737,11.0,30.0,9.0,-15.869139671325684,4.21142578125,1.220703125,-0.600830078125,0.122802734375,0.5028076171875
1.272,276,860,562,742,11.0,30.0,9.0,-13.977049827575684,3.051757574081421,-0.0610351525247097,-0.6986083984375,0.1435546875,0.4881591796875
1.286,279,887,546,715,11.0,30.0,9.0,-6.774901866912842,3.540038824081421,-0.8544921278953552,-0.8009033203125,0.185302734375,0.4619140625
1.294,277,888,564,749,11.0,30.0,9.0,0.1831054538488388,3.967284917831421,-1.7700194120407104,-0.861572265625,0.214599609375,0.427001953125
1.302,279,894,566,750,11.0,30.0,9.0,4.33349609375,3.540038824081421,-2.685546636581421,-0.8831787109375,0.2318115234375,0.3953857421875
1.316,280,891,551,720,10.0,31.0,9.0,5.126952648162842,1.8920897245407104,-3.540038824081421,-0.885498046875,0.2320556640625,0.3763427734375
1.326,278,891,564,753,10.0,31.0,9.0,3.356933355331421,-0.6103515625,-4.21142578125,-0.8787841796875,0.2149658203125,0.3590087890625
1.335,281,905,571,750,10.0,31.0,9.0,0.7324218153953552,-3.173827886581421,-4.0283203125,-0.866455078125,0.1983642578125,0.341064453125
1.354,281,920,561,735,10.0,31.0,9.0,-0.9765624403953552,-5.187987804412842,-2.807616949081421,-0.8524169921875,0.1893310546875,0.33447265625
1.355,322,936,575,678,10.0,31.0,9.0,-2.01416015625,-6.958007335662842,-1.15966796875,-0.8468017578125,0.184326171875,0.34375
1.362,282,932,582,778,10.0,31.0,9.0,-3.356933355331421,-8.85009765625,0.7324218153953552,-0.8565673828125,0.1839599609375,0.365966796875
1.378,289,944,564,748,10.0,31.0,9.0,-5.737304210662842,-10.864256858825684,3.051757574081421,-0.882080078125,0.1876220703125,0.39306640625
1.384,286,963,576,780,10.0,31.0,9.0,-8.23974609375,-12.817381858825684,5.615233898162842,-0.92138671875,0.1954345703125,0.4163818359375
1.393,282,944,579,784,10.0,31.0,9.0,-10.070799827575684,-14.587401390075684,8.4228515625,-0.9632568359375,0.202880859375,0.4346923828125
1.406,286,899,559,730,10.0,31.0,9.0,-10.681151390075684,-16.6015625,11.291502952575684,-0.986328125,0.2008056640625,0.4483642578125
1.414,279,879,578,749,11.0,33.0,10.0,-9.70458984375,-18.98193359375,13.916014671325684,-0.9793701171875,0.187744140625,0.4539794921875
1.422,280,841,573,731,11.0,33.0,10.0,-9.70458984375,-18.98193359375,13.916014671325684,-0.958740234375,0.1787109375,0.4500732421875
1.460,277,802,561,682,11.0,33.0,10.0,-2.13623046875,-24.902341842651367,16.41845703125,-0.9359130859375,0.1875,0.4410400390625
1.460,274,780,555,694,11.0,33.0,10.0,3.723144292831421,-28.381345748901367,16.4794921875,-0.904296875,0.208251953125,0.4312744140625
1.460,274,780,497,654,11.0,33.0,10.0,3.723144292831421,-28.381345748901367,16.4794921875,-0.86474609375,0.2288818359375,0.4232177734375
1.466,275,819,533,643,11.0,33.0,10.0,12.023924827575684,-33.69140625,14.831542015075684,-0.8076171875,0.2373046875,0.4158935546875
1.474,274,855,551,687,11.0,33.0,10.0,11.718749046325684,-34.66796875,13.000487327575684,-0.6922607421875,0.212890625,0.406494140625
1.482,279,933,562,721,11.0,33.0,10.0,11.718749046325684,-34.66796875,13.000487327575684,-0.483642578125,0.1319580078125,0.3912353515625
1.496,289,1278,516,788,11.0,33.0,10.0,9.70458984375,-32.04345703125,1.2817381620407104,-0.1949462890625,0.0166015625,0.3226318359375
1.504,292,1543,531,922,11.0,33.0,10.0,15.319823265075684,-28.442380905151367,-10.742186546325684,0.09033203125,-0.04150390625,0.1849365234375
1.519,299,1803,531,1017,12.0,29.0,9.0,15.319823265075684,-28.442380905151367,-10.742186546325684,0.34765625,0.0506591796875,0.0465087890625
1.528,321,2106,545,1074,12.0,29.0,9.0,23.803709030151367,-18.06640625,-31.738279342651367,0.5753173828125,0.259765625,0.0078125
1.535,323,2280,628,1202,12.0,29.0,9.0,0.9155272841453552,-7.934569835662842,-38.39111328125,0.7958984375,0.3321533203125,0.0908203125
1.560,338,2334,642,1348,12.0,29.0,9.0,0.9155272841453552,-7.934569835662842,-38.39111328125,0.7313232421875,0.1529541015625,0.302734375
1.561,359,2514,628,1334,12.0,29.0,9.0,-83.43505096435547,39.36767578125,-67.87109375,-0.0191650390625,-0.154052734375,0.4940185546875
1.564,359,2876,642,1375,12.0,29.0,9.0,-74.15771484375,55.480953216552734,-80.078125,-1.2935791015625,-0.094482421875,0.6422119140625
1.576,359,2760,761,1474,12.0,29.0,9.0,-74.15771484375,55.480953216552734,-80.078125,-2.5947265625,0.7679443359375,1.0223388671875
1.587,375,2721,736,1450,12.0,29.0,9.0,37.841796875,-5.554198741912842,-61.462398529052734,-3.4212646484375,1.45068359375,1.205810546875
1.595,371,2809,815,1540,12.0,29.0,9.0,-3.906249761581421,-53.100582122802734,-49.743648529052734,-3.435791015625,0.7735595703125,0.8968505859375
1.603,373,2833,834,1555,12.0,29.0,9.0,-3.906249761581421,-53.100582122802734,-49.743648529052734,-2.4166259765625,-0.6480712890625,0.492431640625
1.616,364,2880,733,1397,13.0,29.0,7.0,-73.18115234375,-81.60399627685547,-21.545408248901367,-1.0716552734375,-1.2908935546875,0.47119140625
1.625,364,2870,797,1529,13.0,29.0,7.0,-5.432128429412842,-50.720211029052734,-2.807616949081421,-0.451416015625,-0.5360107421875,0.90234375
1.633,371,2867,787,1534,13.0,29.0,7.0,-5.432128429412842,-50.720211029052734,-2.807616949081421,-0.451416015625,-0.5360107421875,0.90234375
1.664,365,2830,687,1399,13.0,29.0,7.0,48.339839935302734,43.823238372802734,4.33349609375,-1.3729248046875,1.2869873046875,1.178466796875
1.664,369,2929,630,1464,13.0,29.0,7.0,48.339839935302734,43.823238372802734,4.33349609375,-1.92529296875,1.08056640625,0.852294921875
1.664,373,2598,666,1502,13.0,29.0,7.0,9.1552734375,58.471675872802734,-5.859374523162842,-1.92529296875,1.08056640625,0.852294921875
1.676,360,2514,644,1372,13.0,29.0,7.0,-28.564451217651367,18.98193359375,-21.179197311401367,-1.755615234375,0.015869140625,0.568603515625
1.685,348,2478,706,1382,13.0,29.0,7.0,-28.564451217651367,18.98193359375,-21.179197311401367,-1.4090576171875,-0.170654296875,0.7452392578125
1.694,354,2320,674,1397,13.0,29.0,7.0,-20.874021530151367,-4.45556640625,-19.47021484375,-1.4090576171875,-0.170654296875,0.7452392578125
1.707,327,2215,593,1155,15.0,29.0,3.0,-9.8876953125,-18.6767578125,10.192870140075684,-0.8048095703125,-0.15673828125,0.7047119140625
1.714,324,2105,630,1201,15.0,29.0,3.0,-9.8876953125,-18.6767578125,10.192870140075684,-0.552490234375,-0.1414794921875,0.462890625
1.722,316,1978,601,1134,15.0,29.0,3.0,-9.70458984375,-12.268065452575684,26.000974655151367,-0.552490234375,-0.1414794921875,0.462890625
1.736,300,1714,537,947,15.0,29.0,3.0,5.493163585662842,19.1650390625,24.536130905151367,-0.319091796875,-0.119384765625,0.116943359375
1.745,299,1596,548,977,15.0,29.0,3.0,5.493163585662842,19.1650390625,24.536130905151367,-0.353271484375,-0.0645751953125,0.091796875
1.769,294,1494,545,944,15.0,29.0,3.0,20.690916061401367,40.527339935302734,11.047362327575684,-0.353271484375,-0.0645751953125,0.091796875
1.770,317,1466,508,883,15.0,29.0,3.0,35.7666015625,63.537593841552734,-9.82666015625,-0.5474853515625,0.0028076171875,0.1053466796875
1.775,282,1229,484,808,15.0,29.0,3.0,35.7666015625,63.537593841552734,-9.82666015625,-0.562744140625,0.167724609375,0.092529296875
1.782,279,1104,526,827,15.0,29.0,3.0,40.344234466552734,61.950679779052734,-11.596678733825684,-0.562744140625,0.167724609375,0.092529296875
1.796,280,1000,526,754,15.0,29.0,3.0,36.1328125,42.053218841552734,-4.8828125,-0.594482421875,0.44580078125,0.33154296875
1.805,277,936,552,774,14.0,30.0,7.0,36.1328125,42.053218841552734,-4.8828125,-0.6064453125,0.4586181640625,0.5045166015625
1.812,279,913,566,767,14.0,30.0,7.0,22.338865280151367,26.794431686401367,0.8544921278953552,-0.6064453125,0.4586181640625,0.5045166015625
1.826,280,951,551,749,14.0,30.0,7.0,-18.61572265625,3.173827886581421,0.4882812201976776,-0.53857421875,0.169921875,0.4857177734375
1.835,286,1025,572,759,14.0,30.0,7.0,-18.61572265625,3.173827886581421,0.4882812201976776,-0.60595703125,0.070556640625,0.419677734375
1.843,286,1063,574,765,14.0,30.0,7.0,-25.024412155151367,0.1220703050494194,-2.685546636581421,-0.60595703125,0.070556640625,0.419677734375
1.877,286,1085,548,740,14.0,30.0,7.0,-20.385740280151367,-0.8544921278953552,-4.638671875,-0.797119140625,0.0582275390625,0.34228515625
1.877,273,1237,525,777,14.0,30.0,7.0,-11.657713890075684,-2.25830078125,-4.5166015625,-0.797119140625,0.0582275390625,0.34228515625
1.877,289,1123,575,754,14.0,30.0,7.0,-5.126952648162842,-5.126952648162842,-2.929687261581421,-0.848876953125,0.09326171875,0.3525390625
1.888,289,1148,555,772,14.0,30.0,7.0,-3.295898199081421,-9.3994140625,-1.6479490995407104,-0.912841796875,0.10595703125,0.4312744140625
1.895,292,1191,578,818,14.0,30.0,7.0,-4.69970703125,-13.793944358825684,-0.6103515625,-0.912841796875,0.10595703125,0.4312744140625
1.902,291,1182,590,840,15.0,30.0,3.0,-6.896972179412842,-16.6015625,1.4648436307907104,-0.9327392578125,0.10791015625,0.4271240234375
1.916,296,1202,578,806,15.0,30.0,3.0,-7.751464366912842,-17.63916015625,4.7607421875,-0.9248046875,0.1134033203125,0.3843994140625
1.925,294,1220,604,858,15.0,30.0,3.0,-6.774901866912842,-17.88330078125,7.995604991912842,-0.9248046875,0.1134033203125,0.3843994140625
1.932,294,1231,605,861,15.0,30.0,3.0,-5.554198741912842,-18.310546875,10.498045921325684,-0.9276123046875,0.12353515625,0.401123046875
1.946,296,1239,579,811,15.0,30.0,3.0,-5.615233898162842,-19.775390625,12.634276390075684,-0.95849609375,0.1253662109375,0.4776611328125
1.981,298,1220,607,858,15.0,30.0,3.0,-7.080077648162842,-21.911619186401367,15.014647483825684,-0.95849609375,0.1253662109375,0.4776611328125
1.982,296,1224,604,845,15.0,30.0,3.0,-8.30078125,-24.353025436401367,17.88330078125,-0.972900390625,0.111328125,0.4979248046875
1.982,355,1369,553,814,15.0,30.0,3.0,-6.713866710662842,-27.099607467651367,20.690916061401367,-0.9716796875,0.083740234375,0.5159912109375
1.985,292,1101,600,800,15.0,30.0,3.0,-1.15966796875,-30.029294967651367,22.888181686401367,-0.9716796875,0.083740234375,0.5159912109375
1.993,289,1078,601,803,15.0,30.0,3.0,7.019042491912842,-32.8369140625,24.108884811401367,-0.9326171875,0.08447265625,0.5054931640625
2.007,292,1129,578,784,12.0,27.0,11.0,14.526366233825684,-35.21728515625,24.353025436401367,-0.6455078125,0.1103515625,0.3560791015625
2.014,292,1204,586,844,12.0,27.0,11.0,17.822265625,-37.17041015625,22.827146530151367,-0.6455078125,0.1103515625,0.3560791015625
2.022,292,1308,580,878,12.0,27.0,11.0,18.4326171875,-38.2080078125,18.37158203125,-0.48779296875,0.1029052734375,0.2880859375
2.036,286,1580,553,899,12.0,27.0,11.0,20.751951217651367,-37.841796875,11.779784202575684,-0.166748046875,0.1700439453125,0.25341796875
2.044,310,1756,605,1050,12.0,27.0,11.0,22.644041061401367,-36.7431640625,5.0048828125,-0.166748046875,0.1700439453125,0.25341796875
2.053,315,1943,628,1138,12.0,27.0,11.0,18.61572265625,-34.48486328125,-3.234863042831421,0.119384765625,0.27392578125,0.2034912109375
2.072,334,2197,625,1160,12.0,27.0,11.0,8.85009765625,-30.151365280151367,-15.258788108825684,0.846435546875,0.49072265625,0.097900390625
2.089,338,2388,689,1273,12.0,27.0,11.0,-3.479003667831421,-20.874021530151367,-32.28759765625,0.846435546875,0.49072265625,0.097900390625
2.090,328,2562,620,1345,12.0,27.0,11.0,-17.02880859375,-1.4038084745407104,-57.617183685302734,1.00830078125,0.43798828125,0.18359375
2.096,385,2530,740,1450,12.0,27.0,11.0,-35.09521484375,23.376462936401367,-87.03612518310547,0.5582275390625,0.3292236328125,0.5692138671875
2.104,405,2507,846,1637,16.0,26.0,5.0,-57.617183685302734,40.161128997802734,-105.22460174560547,-0.5845947265625,0.153564453125,1.1165771484375
2.112,426,2526,895,1664,16.0,26.0,5.0,-71.71630859375,41.687007904052734,-104.12596893310547,-2.1104736328125,-0.0748291015625,1.40185546875
2.126,430,2587,899,1574,16.0,26.0,5.0,-71.2890625,25.024412155151367,-86.54784393310547,-3.3359375,-0.2969970703125,1.05419921875
2.134,415,2713,959,1653,16.0,26.0,5.0,-57.434078216552734,-2.50244140625,-57.678218841552734,-3.7099609375,-0.412353515625,0.405029296875
2.158,409,2777,910,1640,16.0,26.0,5.0,-26.245115280151367,-33.14208984375,-28.869626998901367,-3.0335693359375,-0.447021484375,0.1480712890625
2.159,415,2736,845,1536,16.0,26.0,5.0,8.85009765625,-55.786128997802734,-9.6435546875,-1.618896484375,-0.444091796875,0.3560791015625
2.174,416,2713,898,1678,16.0,26.0,5.0,32.71484375,-49.560543060302734,-0.4882812201976776,-0.5648193359375,-0.1298828125,0.8792724609375
2.175,439,2760,1042,1582,16.0,26.0,5.0,42.541500091552734,-14.770506858825684,4.8828125,-0.417724609375,0.5343017578125,1.269287109375
2.198,404,2671,802,1506,16.0,26.0,5.0,28.198240280151367,28.442380905151367,7.263183116912842,-0.741943359375,0.928466796875,1.1417236328125
2.198,404,2636,853,1615,16.0,26.0,5.0,1.8920897245407104,58.959957122802734,-1.5258787870407104,-1.256591796875,0.77197265625,0.822265625
2.202,413,2541,842,1624,14.0,28.0,6.0,-12.084959983825684,62.438961029052734,-17.822265625,-1.788330078125,0.3616943359375,0.6961669921875
2.216,400,2443,766,1468,14.0,28.0,6.0,-15.686034202575684,41.564937591552734,-26.672361373901367,-2.024658203125,-0.0726318359375,0.7132568359375
2.224,391,2379,814,1546,14.0,28.0,6.0,-14.465331077575684,13.610838890075684,-21.423337936401367,-1.9083251953125,-0.3740234375,0.7518310546875
2.232,388,2320,780,1509,14.0,28.0,6.0,-6.347655773162842,-9.033203125,-5.432128429412842,-1.61572265625,-0.3973388671875,0.8089599609375
2.246,370,2206,695,1336,14.0,28.0,6.0,4.69970703125,-24.414060592651367,16.78466796875,-1.22900390625,-0.244384765625,0.773681640625
2.254,361,2142,693,1386,14.0,28.0,6.0,9.82666015625,-30.273435592651367,38.39111328125,-0.7830810546875,-0.11083984375,0.6121826171875
2.283,348,2091,683,1303,14.0,28.0,6.0,9.6435546875,-24.597166061401367,50.781246185302734,-0.4232177734375,-0.00732421875,0.45556640625
2.283,373,2122,698,1284,14.0,28.0,6.0,10.009765625,-8.85009765625,50.170894622802734,-0.263671875,0.0540771484375,0.3533935546875
2.284,313,1846,574,1159,14.0,28.0,6.0,12.939452171325684,12.817381858825684,40.222164154052734,-0.30126953125,0.0770263671875,0.3155517578125
2.295,316,1640,604,1108,14.0,28.0,6.0,18.61572265625,33.87451171875,27.832029342651367,-0.4515380859375,0.137451171875,0.3182373046875
2.308,302,1422,567,949,15.0,25.0,6.0,22.949216842651367,49.560543060302734,17.15087890625,-0.5906982421875,0.1590576171875,0.2786865234375
2.315,304,1276,588,958,15.0,25.0,6.0,20.080564498901367,58.410640716552734,8.23974609375,-0.6773681640625,0.0535888671875,0.2078857421875
2.323,295,1182,586,912,15.0,25.0,6.0,14.221190452575684,60.607906341552734,1.03759765625,-0.71875,-0.0430908203125,0.175537109375
2.344,289,1014,555,790,15.0,25.0,6.0,13.122557640075684,57.556148529052734,-2.38037109375,-0.732666015625,-0.0086669921875,0.203857421875
2.350,296,986,555,799,15.0,25.0,6.0,17.578125,51.696773529052734,-1.3427733182907104,-0.7005615234375,0.09619140625,0.2744140625
2.352,280,883,570,763,15.0,25.0,6.0,21.545408248901367,46.325679779052734,1.7700194120407104,-0.6566162109375,0.167236328125,0.3319091796875
2.387,275,731,566,682,15.0,25.0,6.0,19.59228515625,42.724605560302734,5.554198741912842,-0.6722412109375,0.216552734375,0.37548828125
2.388,277,714,572,689,15.0,25.0,6.0,12.145995140075684,37.109375,10.192870140075684,-0.67919921875,0.248291015625,0.427978515625
2.388,275,706,572,683,15.0,25.0,6.0,0.9765624403953552,27.160642623901367,13.427733421325684,-0.6341552734375,0.234375,0.4420166015625
2.412,274,724,555,656,16.0,30.0,2.0,-10.681151390075684,16.6015625,13.000487327575684,-0.59765625,0.1826171875,0.39599609375
2.412,275,728,531,632,16.0,30.0,2.0,-17.02880859375,10.009765625,9.46044921875,-0.6044921875,0.1192626953125,0.329345703125
2.421,279,775,551,588,16.0,30.0,2.0,-13.793944358825684,7.690429210662842,6.103515148162842,-0.648193359375,0.081787109375,0.2950439453125
2.432,275,731,576,666,16.0,30.0,2.0,-3.356933355331421,6.164550304412842,5.432128429412842,-0.7076416015625,0.06982421875,0.3179931640625
2.436,267,757,562,696,16.0,30.0,2.0,6.164550304412842,2.746581792831421,6.774901866912842,-0.7537841796875,0.065673828125,0.367919921875
2.442,279,759,591,711,16.0,30.0,2.0,10.009765625,-1.8920897245407104,8.30078125,-0.7882080078125,0.06494140625,0.407958984375
2.456,279,800,576,706,16.0,30.0,2.0,9.33837890625,-5.920409679412842,9.27734375,-0.822998046875,0.0670166015625,0.4248046875
2.480,283,827,594,740,16.0,30.0,2.0,7.568358898162842,-8.60595703125,10.009765625,-0.861572265625,0.0787353515625,0.4227294921875
2.480,277,947,497,648,16.0,30.0,2.0,7.446288585662842,-9.8876953125,11.413573265075684,-0.9052734375,0.1051025390625,0.417724609375
2.486,286,900,591,764,16.0,30.0,2.0,8.60595703125,-10.375975608825684,13.488768577575684,-0.9434814453125,0.1322021484375,0.4141845703125
2.495,286,905,588,774,15.0,30.0,5.0,8.60595703125,-10.681151390075684,15.258788108825684,-0.965576171875,0.1427001953125,0.4052734375
2.509,286,939,593,747,15.0,30.0,5.0,6.530761241912842,-11.413573265075684,16.29638671875,-0.980712890625,0.144775390625,0.396484375
2.521,289,933,572,728,15.0,30.0,5.0,3.906249761581421,-13.183592796325684,17.4560546875,-0.9954833984375,0.1500244140625,0.3946533203125
2.525,286,946,596,737,15.0,30.0,5.0,2.01416015625,-15.869139671325684,19.22607421875,-0.9957275390625,0.1527099609375,0.39990234375
2.534,286,932,593,734,15.0,30.0,5.0,1.2817381620407104,-19.287109375,21.606443405151367,-0.9674072265625,0.1463623046875,0.4097900390625
2.549,280,905,578,683,15.0,30.0,5.0,1.7700194120407104,-23.071287155151367,23.742673873901367,-0.9237060546875,0.1356201171875,0.41552734375
2.555,267,944,572,705,15.0,30.0,5.0,3.356933355331421,-27.343748092651367,25.207517623901367,-0.8798828125,0.138671875,0.4034423828125
2.562,289,949,568,711,15.0,30.0,5.0,3.356933355331421,-27.343748092651367,25.207517623901367,-0.802978515625,0.1551513671875,0.3577880859375
2.585,291,1108,555,746,15.0,30.0,5.0,7.507323741912842,-37.04833984375,25.390623092651367,-0.6370849609375,0.142822265625,0.275390625
2.586,274,1403,523,813,15.0,30.0,5.0,7.934569835662842,-39.97802734375,21.423337936401367,-0.372802734375,0.068603515625,0.1651611328125
2.593,298,1519,555,932,12.0,27.0,14.0,7.934569835662842,-39.97802734375,21.423337936401367,-0.0537109375,0.0087890625,0.0625
2.613,312,1912,537,1012,12.0,27.0,14.0,12.512206077575684,-38.0859375,-0.1831054538488388,0.2803955078125,0.0836181640625,0.0238037109375
2.615,317,2085,614,1170,12.0,27.0,14.0,18.798828125,-32.40966796875,-16.4794921875,0.6343994140625,0.298583984375,0.0469970703125
2.623,345,2129,654,1294,12.0,27.0,14.0,18.798828125,-32.40966796875,-16.4794921875,1.0228271484375,0.477294921875,0.091552734375
2.636,361,2430,651,1308,12.0,27.0,14.0,-21.667478561401367,9.70458984375,-60.119625091552734,1.08984375,0.31982421875,0.31103515625
2.646,379,2473,739,1531,12.0,27.0,14.0,-55.114742279052734,41.076656341552734,-77.57568359375,0.3607177734375,-0.049560546875,0.6485595703125
2.655,390,2565,774,1580,12.0,27.0,14.0,-55.114742279052734,41.076656341552734,-77.57568359375,-1.0657958984375,-0.0096435546875,0.9820556640625
2.666,417,2703,784,1501,12.0,27.0,14.0,-0.54931640625,34.7900390625,-64.208984375,-2.696533203125,0.5709228515625,1.441162109375
2.685,411,2710,899,1664,12.0,27.0,14.0,20.080564498901367,-23.437498092651367,-51.879878997802734,-3.74462890625,0.55810546875,1.3475341796875
2.685,447,3141,767,1588,12.0,27.0,14.0,20.080564498901367,-23.437498092651367,-51.879878997802734,-3.74609375,-0.40771484375,0.55810546875
2.696,413,2807,794,1499,12.0,29.0,9.0,-47.790523529052734,-86.73094940185547,-17.88330078125,-2.56689453125,-1.1610107421875,0.0814208984375
2.708,416,2744,830,1695,12.0,29.0,9.0,-3.356933355331421,-74.40185546875,8.11767578125,-1.0325927734375,-0.8929443359375,0.448486328125
2.719,406,2785,794,1666,12.0,29.0,9.0,-3.356933355331421,-74.40185546875,8.11767578125,-0.389404296875,0.3123779296875,1.1812744140625
2.726,411,2750,759,1529,12.0,29.0,9.0,99.67040252685547,28.503416061401367,10.681151390075684,-0.728759765625,1.3333740234375,1.4102783203125
2.735,402,2721,788,1698,12.0,29.0,9.0,44.616695404052734,71.10595703125,-0.7324218153953552,-1.5487060546875,1.4039306640625,1.08984375
2.743,401,2651,787,1658,12.0,29.0,9.0,44.616695404052734,71.10595703125,-0.7324218153953552,-2.138427734375,0.9228515625,0.6409912109375
2.758,381,2591,725,1456,12.0,29.0,9.0,-33.447265625,48.400875091552734,-15.624999046325684,-2.14892578125,0.2728271484375,0.39404296875
2.765,375,2519,761,1516,12.0,29.0,9.0,-35.400390625,16.6015625,-17.333984375,-1.81201171875,-0.2275390625,0.5252685546875
2.790,371,2404,746,1463,12.0,29.0,9.0,-35.400390625,16.6015625,-17.333984375,-1.81201171875,-0.2275390625,0.5252685546875
2.790,355,2268,654,1265,17.0,27.0,9.0,-4.45556640625,-23.193357467651367,3.295898199081421,-1.0977783203125,-0.2432861328125,0.9390869140625
2.795,347,2190,673,1292,17.0,27.0,9.0,-4.45556640625,-23.193357467651367,3.295898199081421,-0.7696533203125,-0.1776123046875,0.760498046875
2.803,337,2047,651,1251,17.0,27.0,9.0,-3.173827886581421,-23.803709030151367,23.620603561401367,-0.7696533203125,-0.1776123046875,0.760498046875
2.816,318,1811,562,1042,17.0,27.0,9.0,-8.544921875,2.50244140625,40.588375091552734,-0.2730712890625,-0.2681884765625,0.16845703125
2.829,310,1617,574,1067,17.0,27.0,9.0,-8.544921875,2.50244140625,40.588375091552734,-0.2220458984375,-0.1900634765625,0.0513916015625
2.833,300,1518,543,1005,17.0,27.0,9.0,16.4794921875,23.559568405151367,31.555173873901367,-0.2220458984375,-0.1900634765625,0.0513916015625
2.846,292,1266,535,897,17.0,27.0,9.0,65.0634765625,62.744136810302734,5.676269054412842,-0.423583984375,-0.0223388671875,0.1533203125
2.855,286,1146,537,883,17.0,27.0,9.0,65.0634765625,62.744136810302734,5.676269054412842,-0.5257568359375,0.0379638671875,0.1646728515625
2.862,280,1063,545,846,17.0,27.0,9.0,62.133785247802734,70.556640625,-1.5869139432907104,-0.5257568359375,0.0379638671875,0.1646728515625
2.892,279,959,537,779,17.0,27.0,9.0,52.124019622802734,67.2607421875,2.746581792831421,-0.563720703125,0.2989501953125,0.1580810546875
2.892,280,895,495,738,15.0,29.0,6.0,52.124019622802734,67.2607421875,2.746581792831421,-0.643798828125,0.39501953125,0.285888671875
2.893,327,827,571,673,15.0,29.0,6.0,47.546382904052734,57.312007904052734,8.30078125,-0.643798828125,0.39501953125,0.285888671875
2.907,277,767,562,707,15.0,29.0,6.0,5.0048828125,26.611326217651367,15.869139671325684,-0.615966796875,0.3328857421875,0.47216796875
2.915,276,788,578,748,15.0,29.0,6.0,5.0048828125,26.611326217651367,15.869139671325684,-0.568603515625,0.2056884765625,0.4114990234375
2.923,277,803,579,754,15.0,29.0,6.0,-18.5546875,15.136717796325684,12.756346702575684,-0.568603515625,0.2056884765625,0.4114990234375
2.945,280,853,567,747,15.0,29.0,6.0,-20.202634811401367,8.544921875,6.347655773162842,-0.6883544921875,0.1015625,0.3353271484375
2.949,279,879,585,787,15.0,29.0,6.0,-20.202634811401367,8.544921875,6.347655773162842,-0.7822265625,0.09521484375,0.337646484375
2.956,280,900,582,793,15.0,29.0,6.0,-12.878417015075684,6.958007335662842,6.408690929412842,-0.7822265625,0.09521484375,0.337646484375
2.966,282,938,567,766,15.0,29.0,6.0,-3.479003667831421,-0.6103515625,8.9111328125,-0.888671875,0.1395263671875,0.3616943359375
2.974,286,934,588,815,15.0,29.0,6.0,-3.479003667831421,-0.6103515625,8.9111328125,-0.8961181640625,0.1480712890625,0.36083984375
2.994,290,949,590,816,13.0,30.0,11.0,-1.6479490995407104,-5.371093273162842,8.97216796875,-0.8961181640625,0.1480712890625,0.36083984375
2.996,291,989,591,834,13.0,30.0,11.0,-1.7089842557907104,-9.27734375,8.6669921875,-0.9244384765625,0.165771484375,0.321044921875
3.005,291,996,593,840,13.0,30.0,11.0,-2.685546636581421,-12.145995140075684,9.6435546875,-0.9244384765625,0.165771484375,0.321044921875
3.013,292,996,598,842,13.0,30.0,11.0,-3.967284917831421,-14.648436546325684,12.329100608825684,-0.9415283203125,0.1815185546875,0.30859375
3.065,294,1000,579,803,13.0,30.0,11.0,-5.676269054412842,-17.51708984375,15.808104515075684,-0.9686279296875,0.177734375,0.333984375
3.066,292,1104,481,778,13.0,30.0,11.0,-7.629394054412842,-21.057126998901367,18.73779296875,-0.9686279296875,0.177734375,0.333984375
3.066,307,1042,684,790,13.0,30.0,11.0,-8.72802734375,-24.841306686401367,21.057126998901367,-0.993896484375,0.16650390625,0.3583984375
3.066,277,986,563,753,13.0,30.0,11.0,-8.30078125,-28.320310592651367,22.949216842651367,-1.02490234375,0.152099609375,0.399169921875
3.066,289,910,591,796,13.0,30.0,11.0,-6.225585460662842,-31.433103561401367,24.658201217651367,-1.02490234375,0.152099609375,0.399169921875
3.072,279,868,585,761,13.0,30.0,11.0,-3.051757574081421,-34.36279296875,25.817869186401367,-1.0029296875,0.1444091796875,0.4171142578125
3.101,279,816,575,720,12.0,27.0,8.0,1.03759765625,-37.65869140625,26.550291061401367,-0.9019775390625,0.1668701171875,0.4283447265625
3.101,279,810,576,735,12.0,27.0,8.0,5.859374523162842,-41.748043060302734,27.160642623901367,-0.9019775390625,0.1668701171875,0.4283447265625
3.103,298,888,548,711,12.0,27.0,8.0,11.169432640075684,-46.508785247802734,27.709959030151367,-0.8209228515625,0.18212890625,0.3663330078125
3.116,290,978,570,744,12.0,27.0,8.0,17.578125,-52.612300872802734,27.770994186401367,-0.4971923828125,0.1654052734375,0.0511474609375
3.125,289,1195,572,820,12.0,27.0,8.0,26.000974655151367,-60.424800872802734,25.695798873901367,-0.4971923828125,0.1654052734375,0.0511474609375
3.133,292,1411,553,922,12.0,27.0,8.0,37.78076171875,-67.9931640625,19.04296875,-0.27783203125,0.0914306640625,-0.13330078125
3.146,305,1761,483,1038,12.0,27.0,8.0,52.734371185302734,-72.998046875,8.6669921875,0.2633056640625,0.09228515625,-0.02685546875
3.155,313,2012,570,1157,12.0,27.0,8.0,69.51904296875,-74.951171875,-2.0751953125,0.2633056640625,0.09228515625,-0.02685546875
3.162,328,2287,473,1268,12.0,27.0,8.0,81.54296112060547,-68.78662109375,-13.366698265075684,0.7047119140625,0.2286376953125,0.2730712890625
3.176,346,2347,555,1305,12.0,27.0,8.0,62.072750091552734,-43.640132904052734,-30.273435592651367,0.8704833984375,0.414306640625,0.8052978515625
3.199,359,2440,633,1480,12.0,29.0,7.0,0.30517578125,-0.7934569716453552,-52.429195404052734,0.8704833984375,0.414306640625,0.8052978515625
3.199,371,2543,607,1199,12.0,29.0,7.0,-67.2607421875,39.794921875,-69.091796875,-0.1400146484375,0.3372802734375,1.21044921875
3.209,390,2601,763,1624,12.0,29.0,7.0,-101.92870330810547,58.044429779052734,-67.07763671875,-2.8228759765625,0.5792236328125,1.6920166015625
3.215,401,2568,774,1679,12.0,29.0,7.0,-79.9560546875,39.73388671875,-44.738765716552734,-2.8228759765625,0.5792236328125,1.6920166015625
3.223,401,2608,774,1689,12.0,29.0,7.0,-31.982419967651367,-9.82666015625,-25.024412155151367,-3.4705810546875,0.4913330078125,1.3553466796875
3.236,391,2716,720,1574,12.0,29.0,7.0,-29.113767623901367,-55.236812591552734,-19.8974609375,-3.1395263671875,-0.2996826171875,0.3287353515625
3.244,391,2724,744,1669,12.0,29.0,7.0,-56.396480560302734,-65.673828125,-13.671874046325684,-1.9234619140625,-1.10302734375,-0.3101806640625
3.255,390,2700,725,1647,12.0,29.0,7.0,-17.88330078125,-48.583980560302734,-4.82177734375,-0.824462890625,-0.8974609375,0.2154541015625
3.266,386,2713,682,1546,12.0,29.0,7.0,95.58104705810547,-15.808104515075684,3.173827886581421,-0.552490234375,0.402099609375,1.09228515625
3.275,385,2691,689,1640,12.0,29.0,7.0,153.62548828125,33.3251953125,7.995604991912842,-1.034423828125,1.5997314453125,1.4693603515625
3.299,379,2636,679,1627,13.0,27.0,12.0,84.71678924560547,73.18115234375,1.220703125,-1.754150390625,1.8414306640625,1.2320556640625
3.301,375,2507,618,1464,13.0,27.0,12.0,-30.639646530151367,76.2939453125,-13.916014671325684,-2.1119384765625,1.1898193359375,0.62939453125
3.305,371,2432,646,1508,13.0,27.0,12.0,-90.14891815185547,47.668453216552734,-27.099607467651367,-2.031494140625,0.278564453125,0.265380859375
3.312,354,2372,636,1445,13.0,27.0,12.0,-68.66455078125,10.559081077575684,-29.968259811401367,-1.7210693359375,-0.1673583984375,0.376220703125
3.328,333,2195,570,1198,13.0,27.0,12.0,-18.310546875,-14.404295921325684,-22.277830123901367,-1.3648681640625,-0.17822265625,0.664306640625
3.334,338,1983,620,1269,13.0,27.0,12.0,8.36181640625,-21.606443405151367,-8.544921875,-0.99169921875,-0.1217041015625,0.7818603515625
3.342,330,1881,620,1189,13.0,27.0,12.0,6.896972179412842,-14.526366233825684,6.347655773162842,-0.5728759765625,-0.179443359375,0.6295166015625
3.360,308,1573,551,1038,13.0,27.0,12.0,-1.03759765625,3.051757574081421,14.648436546325684,-0.2083740234375,-0.319580078125,0.3701171875
3.365,302,1428,578,999,13.0,27.0,12.0,5.249022960662842,26.672361373901367,12.390135765075684,-0.040771484375,-0.3372802734375,0.1795654296875
3.373,299,1313,585,919,13.0,27.0,12.0,24.902341842651367,50.537105560302734,3.540038824081421,-0.10498046875,-0.2510986328125,0.140869140625
3.403,291,1116,567,799,13.0,30.0,14.0,40.649410247802734,67.56591796875,-6.408690929412842,-0.269287109375,-0.176513671875,0.2066650390625
3.403,321,1095,523,774,13.0,30.0,14.0,45.043941497802734,74.40185546875,-11.901854515075684,-0.4039306640625,-0.049072265625,0.2786865234375
3.404,280,891,572,772,13.0,30.0,14.0,42.907711029052734,72.1435546875,-11.169432640075684,-0.490234375,0.1510009765625,0.316650390625
3.416,278,826,553,711,13.0,30.0,14.0,38.2080078125,63.293453216552734,-6.530761241912842,-0.5242919921875,0.353759765625,0.3292236328125
3.424,274,808,567,746,13.0,30.0,14.0,29.846189498901367,51.452632904052734,0.2441406100988388,-0.5738525390625,0.4935302734375,0.343017578125
3.434,274,794,572,739,13.0,30.0,14.0,18.24951171875,39.12353515625,4.39453125,-0.6689453125,0.5118408203125,0.3466796875
3.447,277,802,562,711,13.0,30.0,14.0,6.774901866912842,28.137205123901367,2.3193359375,-0.7156982421875,0.42578125,0.315185546875
3.454,276,816,576,754,13.0,30.0,14.0,-0.6713866591453552,20.874021530151367,-2.685546636581421,-0.6944580078125,0.3077392578125,0.2645263671875
3.466,279,858,580,750,13.0,30.0,14.0,-4.21142578125,17.08984375,-6.286620616912842,-0.682373046875,0.1881103515625,0.255126953125
3.476,280,894,600,784,15.0,28.0,3.0,-5.920409679412842,14.038084983825684,-7.812499523162842,-0.722412109375,0.0968017578125,0.28564453125
3.484,281,909,590,790,15.0,28.0,3.0,-5.981444835662842,10.803221702575684,-7.141112804412842,-0.7841796875,0.070068359375,0.3114013671875
3.506,286,918,598,802,15.0,28.0,3.0,-5.310058116912842,7.568358898162842,-4.45556640625,-0.8306884765625,0.0716552734375,0.3233642578125
3.507,329,973,605,710,15.0,28.0,3.0,-5.615233898162842,4.21142578125,-0.7934569716453552,-0.8658447265625,0.081787109375,0.330322265625
3.515,292,1003,603,841,15.0,28.0,3.0,-6.469726085662842,0.7934569716453552,3.356933355331421,-0.8968505859375,0.1123046875,0.3370361328125
3.522,294,1031,601,853,15.0,28.0,3.0,-7.751464366912842,-2.44140625,7.568358898162842,-0.925048828125,0.145263671875,0.3433837890625
3.536,296,1095,591,800,15.0,28.0,3.0,-9.70458984375,-5.615233898162842,11.352538108825684,-0.947998046875,0.1680908203125,0.3411865234375
3.547,299,1096,619,860,15.0,28.0,3.0,-11.291502952575684,-8.85009765625,14.648436546325684,-0.947998046875,0.1759033203125,0.3299560546875
3.553,301,1120,625,879,15.0,28.0,3.0,-11.901854515075684,-12.145995140075684,16.6015625,-0.9276123046875,0.1612548828125,0.3258056640625
3.574,300,1172,594,846,15.0,28.0,3.0,-11.596678733825684,-15.197752952575684,16.9677734375,-0.906494140625,0.136474609375,0.3382568359375
3.575,336,1219,614,785,13.0,30.0,12.0,-11.047362327575684,-17.7001953125,16.41845703125,-0.8970947265625,0.119140625,0.359375
3.582,301,1250,614,899,13.0,30.0,12.0,-10.803221702575684,-19.22607421875,15.869139671325684,-0.9100341796875,0.126953125,0.3839111328125
3.608,304,1320,586,855,13.0,30.0,12.0,-10.009765625,-20.446775436401367,16.6015625,-0.9466552734375,0.162109375,0.4134521484375
3.608,338,1526,495,845,13.0,30.0,12.0,-7.934569835662842,-22.338865280151367,19.04296875,-0.9957275390625,0.2001953125,0.451416015625
3.613,304,1289,607,918,13.0,30.0,12.0,-4.7607421875,-25.695798873901367,22.216794967651367,-1.0257568359375,0.2215576171875,0.490478515625
3.626,302,1239,578,846,13.0,30.0,12.0,-1.3427733182907104,-29.846189498901367,24.719236373901367,-1.02490234375,0.215087890625,0.51513671875
3.634,296,1189,604,872,13.0,30.0,12.0,1.03759765625,-33.935546875,25.695798873901367,-1.0040283203125,0.185546875,0.519775390625
3.643,293,1125,590,855,13.0,30.0,12.0,2.929687261581421,-37.41455078125,26.000974655151367,-0.9654541015625,0.1622314453125,0.50244140625
3.659,294,1054,562,780,13.0,30.0,12.0,6.225585460662842,-40.344234466552734,26.550291061401367,-0.9139404296875,0.16650390625,0.4530029296875
3.665,289,1070,576,820,13.0,30.0,12.0,12.145995140075684,-43.762203216552734,26.672361373901367,-0.835205078125,0.1851806640625,0.3475341796875
3.684,292,1163,582,858,12.0,28.0,11.0,19.4091796875,-49.377437591552734,24.841306686401367,-0.628662109375,0.1898193359375,0.166748046875
3.687,298,1519,490,936,12.0,28.0,11.0,26.428220748901367,-56.457515716552734,17.51708984375,-0.2734375,0.1480712890625,-0.0595703125
3.710,299,1759,527,1009,12.0,28.0,11.0,35.09521484375,-61.645503997802734,1.8920897245407104,0.1358642578125,0.0894775390625,-0.296875
3.710,306,2076,466,1067,12.0,28.0,11.0,35.09521484375,-61.645503997802734,1.8920897245407104,0.5821533203125,0.1337890625,-0.3310546875
3.717,330,2205,580,1138,12.0,28.0,11.0,61.706539154052734,-54.687496185302734,-33.5693359375,1.0101318359375,0.2896728515625,-0.0098876953125
3.725,342,2308,605,1386,12.0,28.0,11.0,61.035152435302734,-32.65380859375,-52.917476654052734,1.1737060546875,0.498046875,0.355712890625
3.732,347,2400,628,1467,12.0,28.0,11.0,61.035152435302734,-32.65380859375,-52.917476654052734,0.6834716796875,0.619873046875,0.728271484375
3.749,383,2569,669,1468,12.0,28.0,11.0,-71.1669921875,45.959468841552734,-89.66063690185547,-0.5284423828125,0.531982421875,1.0921630859375
3.765,400,2601,763,1643,12.0,28.0,11.0,-136.5966796875,58.044429779052734,-80.2001953125,-2.0303955078125,0.415771484375,1.38525390625
3.794,409,2659,785,1653,12.0,28.0,11.0,-136.5966796875,58.044429779052734,-80.2001953125,-3.2012939453125,0.3048095703125,1.646484375
3.812,388,2756,658,1548,14.0,27.0,10.0,26.000974655151367,-31.982419967651367,3.356933355331421,-0.5086669921875,-0.7044677734375,0.6160888671875
3.815,389,2757,698,1669,14.0,27.0,10.0,145.56884765625,6.408690929412842,4.8828125,-0.5606689453125,0.681396484375,1.3397216796875
3.823,390,2744,706,1687,14.0,27.0,10.0,145.56884765625,6.408690929412842,4.8828125,-1.3077392578125,1.6812744140625,1.404541015625
3.837,382,2725,620,1533,14.0,27.0,10.0,51.513668060302734,73.05908203125,6.835937023162842,-1.9407958984375,1.58984375,0.8409423828125
3.845,383,2630,689,1637,14.0,27.0,10.0,-52.368160247802734,62.683101654052734,-1.7700194120407104,-2.1107177734375,0.763916015625,0.247314453125
3.852,376,2541,687,1600,14.0,27.0,10.0,-52.368160247802734,62.683101654052734,-1.7700194120407104,-1.9141845703125,0.0811767578125,0.16650390625
3.866,363,2415,601,1412,13.0,27.0,11.0,-33.69140625,0.1220703050494194,-5.126952648162842,-1.5501708984375,-0.11376953125,0.4600830078125
3.875,360,2319,639,1463,13.0,27.0,11.0,-4.69970703125,-19.59228515625,3.845214605331421,-1.1976318359375,-0.0728759765625,0.737060546875
3.893,354,2195,644,1398,13.0,27.0,11.0,-4.69970703125,-19.59228515625,3.845214605331421,-0.8856201171875,-0.0213623046875,0.794677734375
3.896,338,2005,607,1283,13.0,27.0,11.0,-2.50244140625,-21.728513717651367,29.724119186401367,-0.5679931640625,-0.06201171875,0.6190185546875
3.915,330,1837,621,1229,13.0,27.0,11.0,-6.774901866912842,-7.934569835662842,35.400390625,-0.27880859375,-0.185546875,0.3687744140625
3.915,323,1704,594,1146,13.0,27.0,11.0,-6.774901866912842,-7.934569835662842,35.400390625,-0.27880859375,-0.185546875,0.3687744140625
3.927,304,1437,567,971,13.0,27.0,11.0,18.37158203125,37.04833984375,15.197752952575684,-0.2293701171875,-0.1478271484375,0.1900634765625
3.937,304,1313,597,989,13.0,27.0,11.0,18.37158203125,37.04833984375,15.197752952575684,-0.4322509765625,-0.0596923828125,0.273681640625
3.942,300,1206,582,906,13.0,27.0,11.0,38.14697265625,56.640621185302734,-0.7934569716453552,-0.4322509765625,-0.0596923828125,0.273681640625
3.956,293,992,564,799,13.0,27.0,11.0,49.011226654052734,68.4814453125,-14.099120140075684,-0.679443359375,0.2257080078125,0.3082275390625
3.965,277,883,582,788,14.0,29.0,11.0,49.011226654052734,68.4814453125,-14.099120140075684,-0.6541748046875,0.3231201171875,0.2899169921875
3.972,275,784,590,750,14.0,29.0,11.0,43.945308685302734,64.88037109375,-11.901854515075684,-0.6541748046875,0.3231201171875,0.2899169921875
3.986,274,705,571,688,14.0,29.0,11.0,21.301267623901367,49.682613372802734,-2.197265625,-0.639404296875,0.35400390625,0.3865966796875
4.019,277,689,587,712,14.0,29.0,11.0,21.301267623901367,49.682613372802734,-2.197265625,-0.681884765625,0.303955078125,0.438720703125
4.019,274,684,571,695,14.0,29.0,11.0,7.141112804412842,39.73388671875,1.3427733182907104,-0.681884765625,0.303955078125,0.438720703125
4.019,253,687,555,644,14.0,29.0,11.0,-15.808104515075684,22.338865280151367,-1.8920897245407104,-0.7388916015625,0.24462890625,0.30712890625
4.025,273,644,576,687,14.0,29.0,11.0,-15.808104515075684,22.338865280151367,-1.8920897245407104,-0.74072265625,0.2177734375,0.2197265625
4.033,272,648,579,689,14.0,29.0,11.0,-19.10400390625,17.333984375,-5.0048828125,-0.74072265625,0.2177734375,0.2197265625
4.046,277,632,582,667,14.0,29.0,11.0,-8.544921875,7.873534679412842,-6.652831554412842,-0.7735595703125,0.144775390625,0.2059326171875
4.054,273,630,599,691,14.0,29.0,11.0,-8.544921875,7.873534679412842,-6.652831554412842,-0.7872314453125,0.108154296875,0.239501953125
4.062,275,630,605,693,14.0,29.0,12.0,-3.112792730331421,2.624511480331421,-5.371093273162842,-0.7872314453125,0.108154296875,0.239501953125
4.076,280,642,605,678,14.0,29.0,12.0,-2.0751953125,-4.94384765625,-0.2441406100988388,-0.833984375,0.1025390625,0.3095703125
4.085,279,661,619,706,14.0,29.0,12.0,-2.0751953125,-4.94384765625,-0.2441406100988388,-0.8563232421875,0.114501953125,0.330810546875
4.092,280,673,621,707,14.0,29.0,12.0,-3.540038824081421,-7.019042491912842,3.784179449081421,-0.8563232421875,0.114501953125,0.330810546875
4.120,289,683,625,700,14.0,29.0,12.0,-4.5166015625,-9.8876953125,11.352538108825684,-0.8712158203125,0.1129150390625,0.3426513671875
4.121,291,715,636,738,14.0,29.0,12.0,-4.5166015625,-9.8876953125,11.352538108825684,-0.878173828125,0.100830078125,0.3446044921875
4.122,274,778,601,731,14.0,29.0,12.0,-3.112792730331421,-11.535643577575684,13.061522483825684,-0.878173828125,0.100830078125,0.3446044921875
4.136,294,806,617,728,14.0,29.0,12.0,-0.7324218153953552,-13.916014671325684,13.916014671325684,-0.94091796875,0.1102294921875,0.389404296875
4.145,291,820,631,767,14.0,29.0,12.0,1.8920897245407104,-17.578125,15.136717796325684,-0.94091796875,0.1102294921875,0.389404296875
4.154,290,829,628,773,14.0,29.0,12.0,4.21142578125,-22.460935592651367,17.4560546875,-0.98681640625,0.12841796875,0.4229736328125
4.167,287,819,594,720,12.0,31.0,8.0,6.103515148162842,-28.503416061401367,20.812986373901367,-1.0208740234375,0.142333984375,0.4473876953125
4.175,282,818,607,740,12.0,31.0,8.0,7.141112804412842,-35.21728515625,24.719236373901367,-1.0208740234375,0.142333984375,0.4473876953125
4.183,280,827,601,710,12.0,31.0,8.0,7.385253429412842,-42.358394622802734,28.747556686401367,-0.9798583984375,0.14404296875,0.3895263671875
4.196,281,853,588,711,12.0,31.0,8.0,7.934569835662842,-50.231929779052734,32.40966796875,-0.76904296875,0.1572265625,0.14111328125
4.227,286,1029,590,827,12.0,31.0,8.0,12.145995140075684,-59.265132904052734,34.912109375,-0.76904296875,0.1572265625,0.14111328125
4.228,294,1419,540,927,12.0,31.0,8.0,20.385740280151367,-66.58935546875,34.423828125,-0.394287109375,0.0689697265625,-0.0743408203125
4.228,299,1929,433,1063,12.0,31.0,8.0,26.550291061401367,-67.3828125,27.282712936401367,0.706787109375,-0.051513671875,-0.1016845703125
4.235,306,2117,465,1201,12.0,31.0,8.0,27.709959030151367,-63.781734466552734,11.718749046325684,0.706787109375,-0.051513671875,-0.1016845703125
4.242,326,2172,548,1336,12.0,31.0,8.0,36.1328125,-55.114742279052734,-11.657713890075684,1.0655517578125,0.2591552734375,0.35205078125
4.257,359,2395,554,1375,12.0,31.0,8.0,46.081539154052734,-25.329587936401367,-45.104976654052734,0.7799072265625,0.5631103515625,0.6971435546875
4.265,363,2526,639,1536,12.0,30.0,9.0,18.49365234375,23.864744186401367,-78.857421875,0.7799072265625,0.5631103515625,0.6971435546875
4.274,385,2610,710,1615,12.0,30.0,9.0,-52.185054779052734,58.288570404052734,-89.17235565185547,-0.18505859375,0.355712890625,0.9844970703125
4.286,401,2676,731,1550,12.0,30.0,9.0,-117.85887908935547,64.14794921875,-63.110347747802734,-2.8773193359375,0.7498779296875,1.2347412109375
4.294,406,2699,887,1748,12.0,30.0,9.0,-121.27684783935547,40.893550872802734,-17.08984375,-2.8773193359375,0.7498779296875,1.2347412109375
4.303,414,2736,853,1739,12.0,30.0,9.0,-81.29882049560547,-10.620116233825684,5.187987804412842,-3.7060546875,0.688232421875,1.0284423828125
4.335,406,2870,746,1603,12.0,30.0,9.0,-72.32666015625,-52.551265716552734,-7.080077648162842,-2.34521484375,-1.0494384765625,0.0382080078125
4.335,411,2840,695,1636,12.0,30.0,9.0,-78.125,-61.950679779052734,-20.080564498901367,-2.34521484375,-1.0494384765625,0.0382080078125
4.336,400,2912,778,1656,12.0,30.0,9.0,-27.404783248901367,-49.011226654052734,-20.385740280151367,-0.91796875,-0.958984375,0.370361328125
4.347,410,2785,713,1635,12.0,30.0,9.0,78.7353515625,-19.04296875,-13.549803733825684,-0.945556640625,1.398193359375,1.5155029296875
4.354,402,2763,761,1730,12.0,30.0,9.0,136.474609375,24.597166061401367,-1.5869139432907104,-0.945556640625,1.398193359375,1.5155029296875
4.363,398,2707,754,1702,11.0,28.0,11.0,76.59912109375,60.485836029052734,2.50244140625,-1.71435546875,1.65966796875,1.32373046875
4.376,388,2587,683,1529,11.0,28.0,11.0,-25.573728561401367,68.54248046875,-5.981444835662842,-2.1392822265625,0.975341796875,0.6917724609375
4.386,376,2492,714,1574,11.0,28.0,11.0,-72.8759765625,51.757808685302734,-15.747069358825684,-2.141357421875,0.120361328125,0.2755126953125
4.393,371,2375,673,1490,11.0,28.0,11.0,-55.969234466552734,21.972654342651367,-16.11328125,-1.940673828125,-0.214111328125,0.38134765625
4.406,343,2117,588,1224,11.0,28.0,11.0,-23.376462936401367,-8.36181640625,-2.197265625,-1.6807861328125,-0.096923828125,0.697509765625
4.436,338,1882,648,1251,11.0,28.0,11.0,-12.329100608825684,-30.090330123901367,22.155759811401367,-1.3563232421875,-0.004638671875,0.8023681640625
4.436,324,1750,642,1157,11.0,28.0,11.0,-18.98193359375,-38.26904296875,48.889156341552734,-0.8936767578125,-0.0792236328125,0.568115234375
4.437,337,1362,697,858,11.0,28.0,11.0,-26.489255905151367,-31.555173873901367,67.0166015625,-0.3489990234375,-0.35546875,0.1868896484375
4.451,308,1108,636,872,11.0,28.0,11.0,-20.935056686401367,-10.559081077575684,67.56591796875,0.0665283203125,-0.54638671875,-0.0662841796875
4.453,274,1031,601,793,11.0,28.0,11.0,6.408690929412842,22.033689498901367,51.757808685302734,0.1788330078125,-0.399658203125,-0.088134765625
4.466,286,666,620,680,15.0,28.0,15.0,40.710445404052734,54.138179779052734,27.221677780151367,0.007080078125,-0.114990234375,0.085693359375
4.475,272,572,596,648,15.0,28.0,15.0,62.988277435302734,71.1669921875,1.8310545682907104,-0.2950439453125,0.179443359375,0.332275390625
4.483,263,551,562,625,15.0,28.0,15.0,68.54248046875,70.73974609375,-15.808104515075684,-0.55810546875,0.4677734375,0.534423828125
4.498,262,517,551,591,15.0,28.0,15.0,58.349605560302734,58.593746185302734,-19.59228515625,-0.6923828125,0.6207275390625,0.6259765625
4.504,263,513,567,605,15.0,28.0,15.0,35.7666015625,44.494625091552734,-14.099120140075684,-0.7105712890625,0.5438232421875,0.5491943359375
4.537,263,513,571,607,15.0,28.0,15.0,13.061522483825684,36.80419921875,-7.934569835662842,-0.6474609375,0.358642578125,0.4150390625
4.538,260,519,562,588,15.0,28.0,15.0,2.13623046875,32.04345703125,-2.563476324081421,-0.5601806640625,0.2091064453125,0.3626708984375
4.538,280,564,552,607,15.0,28.0,15.0,-0.7934569716453552,23.986814498901367,1.0986328125,-0.474853515625,0.1231689453125,0.3201904296875
4.542,263,531,566,607,15.0,28.0,15.0,-7.019042491912842,15.930174827575684,1.7089842557907104,-0.429443359375,0.083984375,0.23779296875
4.561,267,526,562,601,13.0,30.0,9.0,-16.9677734375,12.390135765075684,0.4882812201976776,-0.4727783203125,0.0621337890625,0.1788330078125
4.565,263,533,578,625,13.0,30.0,9.0,-18.73779296875,13.000487327575684,0.1220703050494194,-0.575927734375,0.0592041015625,0.1778564453125
4.573,266,536,582,625,13.0,30.0,9.0,-5.676269054412842,14.404295921325684,2.01416015625,-0.6683349609375,0.07763671875,0.2178955078125
4.588,267,548,576,601,13.0,30.0,9.0,13.977049827575684,14.892577171325684,5.310058116912842,-0.741455078125,0.1080322265625,0.273681640625
4.594,268,548,594,636,13.0,30.0,9.0,26.184080123901367,14.526366233825684,8.544921875,-0.8121337890625,0.134765625,0.3121337890625
4.602,275,571,601,642,13.0,30.0,9.0,24.963376998901367,13.366698265075684,10.437010765075684,-0.9039306640625,0.1402587890625,0.3126220703125
4.639,279,617,600,627,13.0,30.0,9.0,15.869139671325684,10.559081077575684,11.230467796325684,-0.9757080078125,0.1380615234375,0.2904052734375
4.639,280,625,624,673,13.0,30.0,9.0,8.11767578125,5.981444835662842,12.329100608825684,-0.9884033203125,0.1470947265625,0.264892578125
4.639,323,767,540,601,13.0,30.0,9.0,5.310058116912842,1.220703125,14.404295921325684,-0.978515625,0.1644287109375,0.2508544921875
4.649,290,731,619,682,13.0,30.0,9.0,5.798339366912842,-2.807616949081421,16.66259765625,-0.9737548828125,0.1907958984375,0.2662353515625
4.655,291,785,625,725,15.0,31.0,6.0,6.469726085662842,-6.225585460662842,18.37158203125,-0.9769287109375,0.22509765625,0.3125
4.663,292,827,631,750,15.0,31.0,6.0,4.57763671875,-9.46044921875,19.22607421875,-0.9783935546875,0.2608642578125,0.374755859375
4.676,294,853,614,733,15.0,31.0,6.0,0.1220703050494194,-12.634276390075684,19.1650390625,-0.985595703125,0.29443359375,0.4359130859375
4.685,294,867,631,759,15.0,31.0,6.0,-4.7607421875,-15.624999046325684,18.37158203125,-1.0037841796875,0.323486328125,0.4730224609375
4.693,292,902,634,746,15.0,31.0,6.0,-8.1787109375,-18.24951171875,17.27294921875,-1.0150146484375,0.3326416015625,0.4677734375
4.706,292,895,620,695,15.0,31.0,6.0,-9.70458984375,-20.812986373901367,16.41845703125,-1.0106201171875,0.3079833984375,0.435302734375
4.715,291,883,631,731,15.0,31.0,6.0,-9.033203125,-24.291990280151367,16.4794921875,-0.98681640625,0.257568359375,0.4046630859375
4.734,290,887,634,734,15.0,31.0,6.0,-6.469726085662842,-29.113767623901367,17.4560546875,-0.9300537109375,0.1990966796875,0.375732421875
4.747,293,909,625,750,15.0,31.0,6.0,-3.845214605331421,-34.97314453125,19.10400390625,-0.7935791015625,0.138427734375,0.3128662109375
4.747,280,1250,554,845,15.0,31.0,6.0,-2.807616949081421,-40.222164154052734,19.22607421875,-0.5211181640625,0.048095703125,0.194580078125
4.753,304,1362,601,954,11.0,28.0,10.0,-2.25830078125,-42.480464935302734,13.732909202575684,-0.10009765625,-0.0489501953125,0.0634765625
4.767,323,1813,584,1074,11.0,28.0,10.0,1.220703125,-40.222164154052734,0.6103515625,0.4193115234375,-0.045166015625,-0.0167236328125
4.774,338,1954,638,1262,11.0,28.0,10.0,4.2724609375,-32.470703125,-17.15087890625,0.8658447265625,0.1796875,0.0374755859375
4.786,345,2151,658,1345,11.0,28.0,10.0,-7.446288585662842,-18.06640625,-34.85107421875,1.1622314453125,0.493408203125,0.2509765625
4.796,375,2341,625,1393,11.0,28.0,10.0,-45.593257904052734,6.835937023162842,-52.062984466552734,1.023681640625,0.5164794921875,0.591796875
4.805,386,2458,728,1550,11.0,28.0,10.0,-92.22411346435547,39.306640625,-67.07763671875,0.138427734375,0.23681640625,0.8419189453125
4.813,401,2645,763,1595,11.0,28.0,10.0,-99.73143768310547,62.988277435302734,-72.75390625,-1.2314453125,0.183349609375,0.8770751953125
4.837,418,2612,790,1546,11.0,28.0,10.0,-48.095699310302734,54.443355560302734,-70.6787109375,-2.72314453125,0.6612548828125,1.0616455078125
4.837,411,2692,922,1351,11.0,28.0,10.0,-4.69970703125,5.615233898162842,-73.91357421875,-3.6619873046875,0.7060546875,1.032470703125
4.842,425,2659,865,1689,11.0,28.0,10.0,-4.69970703125,5.615233898162842,-73.91357421875,-3.69775390625,-0.1134033203125,0.3829345703125
4.856,406,2704,763,1550,14.0,29.0,7.0,-78.06396484375,-60.913082122802734,-48.767086029052734,-2.7315673828125,-0.93115234375,-0.1868896484375
4.865,383,2843,806,1572,14.0,29.0,7.0,-46.569820404052734,-50.781246185302734,-18.310546875,-1.2755126953125,-1.141845703125,0.08349609375
4.873,400,2769,782,1627,14.0,29.0,7.0,-46.569820404052734,-50.781246185302734,-18.310546875,-0.498291015625,-0.3619384765625,0.9561767578125
4.886,409,2708,705,1580,14.0,29.0,7.0,78.91845703125,23.864744186401367,23.437498092651367,-0.789306640625,0.8592529296875,1.5076904296875
4.899,398,2663,746,1669,14.0,29.0,7.0,51.208492279052734,55.969234466552734,31.311033248901367,-1.56103515625,1.4400634765625,1.307373046875
4.902,391,2612,724,1638,14.0,29.0,7.0,51.208492279052734,55.969234466552734,31.311033248901367,-2.006103515625,1.1336669921875,0.6700439453125
4.934,377,2498,644,1450,14.0,29.0,7.0,-21.911619186401367,38.4521484375,2.50244140625,-2.013671875,0.470458984375,0.253662109375
4.951,373,2379,694,1516,14.0,29.0,7.0,-25.268552780151367,10.620116233825684,-11.047362327575684,-1.7647705078125,0.0089111328125,0.2637939453125
4.965,376,2308,669,1450,14.0,29.0,7.0,-25.268552780151367,10.620116233825684,-11.047362327575684,-1.4049072265625,-0.16015625,0.447998046875
4.965,356,2076,689,1355,14.0,26.0,8.0,-7.812499523162842,-37.17041015625,4.7607421875,-1.007568359375,-0.1837158203125,0.5548095703125
4.965,351,1943,669,1303,14.0,26.0,8.0,-3.906249761581421,-42.053218841552734,24.291990280151367,-0.6248779296875,-0.2196044921875,0.4686279296875
4.965,343,1948,564,1172,14.0,26.0,8.0,-3.906249761581421,-42.053218841552734,24.291990280151367,-0.3543701171875,-0.287353515625,0.3035888671875
4.980,322,1526,600,1007,14.0,26.0,8.0,3.601073980331421,-5.065917491912842,39.794921875,-0.268798828125,-0.2327880859375,0.2005615234375
4.984,313,1416,618,973,14.0,26.0,8.0,22.827146530151367,26.794431686401367,30.151365280151367,-0.3465576171875,-0.0968017578125,0.1881103515625
4.994,304,1266,619,920,14.0,26.0,8.0,22.827146530151367,26.794431686401367,30.151365280151367,-0.505615234375,-0.0247802734375,0.2633056640625
5.011,299,1018,604,811,14.0,26.0,8.0,56.518550872802734,65.73486328125,4.0283203125,-0.6275634765625,0.0770263671875,0.3095703125
5.014,292,893,607,800,14.0,26.0,8.0,59.326168060302734,67.07763671875,-2.3193359375,-0.6461181640625,0.2503662109375,0.2548828125
5.023,290,813,601,753,14.0,26.0,8.0,59.326168060302734,67.07763671875,-2.3193359375,-0.6055908203125,0.374755859375,0.197265625
5.041,286,744,579,687,14.0,26.0,8.0,43.762203216552734,51.025386810302734,-4.39453125,-0.63720703125,0.44384765625,0.2540283203125
5.045,277,697,582,696,11.0,30.0,7.0,26.123044967651367,35.46142578125,-2.50244140625,-0.69384765625,0.451904296875,0.396484375
5.053,272,673,571,683,11.0,30.0,7.0,26.123044967651367,35.46142578125,-2.50244140625,-0.69384765625,0.451904296875,0.396484375
5.068,277,654,567,649,11.0,30.0,7.0,-13.366698265075684,8.72802734375,-7.873534679412842,-0.5916748046875,0.2662353515625,0.425537109375
5.075,277,658,584,651,11.0,30.0,7.0,-13.366698265075684,8.72802734375,-7.873534679412842,-0.6007080078125,0.200439453125,0.35546875
5.082,275,644,590,648,11.0,30.0,7.0,-15.014647483825684,6.103515148162842,-11.535643577575684,-0.6007080078125,0.200439453125,0.35546875
5.100,279,644,579,628,11.0,30.0,7.0,-4.82177734375,2.868652105331421,-7.629394054412842,-0.697998046875,0.1226806640625,0.302978515625
5.107,275,648,593,648,11.0,30.0,7.0,-4.82177734375,2.868652105331421,-7.629394054412842,-0.7396240234375,0.106201171875,0.2969970703125
5.113,279,661,593,651,11.0,30.0,7.0,-4.7607421875,-0.6103515625,-4.33349609375,-0.7396240234375,0.106201171875,0.2969970703125
5.143,280,646,597,632,11.0,30.0,7.0,-4.94384765625,-4.5166015625,-2.807616949081421,-0.815185546875,0.1258544921875,0.3118896484375
5.143,267,706,582,644,11.0,30.0,7.0,-4.94384765625,-4.5166015625,-2.807616949081421,-0.8450927734375,0.1424560546875,0.308349609375
5.143,282,654,593,603,13.0,32.0,5.0,-2.563476324081421,-5.065917491912842,-2.38037109375,-0.8450927734375,0.1424560546875,0.308349609375
5.156,289,654,625,644,13.0,32.0,5.0,-5.432128429412842,-5.554198741912842,1.220703125,-0.8577880859375,0.134765625,0.2271728515625
5.175,282,682,642,683,13.0,32.0,5.0,-5.432128429412842,-5.554198741912842,1.220703125,-0.845703125,0.118408203125,0.1895751953125
5.175,292,713,648,695,13.0,32.0,5.0,-7.812499523162842,-5.798339366912842,3.540038824081421,-0.845703125,0.118408203125,0.1895751953125
5.186,296,772,642,683,13.0,32.0,5.0,-5.493163585662842,-8.056640625,6.225585460662842,-0.830078125,0.127685546875,0.2432861328125
5.194,296,816,666,736,13.0,32.0,5.0,-5.493163585662842,-8.056640625,6.225585460662842,-0.8553466796875,0.1610107421875,0.315673828125
5.202,299,853,669,759,13.0,32.0,5.0,-4.638671875,-9.8876953125,6.713866710662842,-0.8553466796875,0.1610107421875,0.315673828125
5.217,304,980,644,785,13.0,32.0,5.0,-9.82666015625,-15.014647483825684,9.1552734375,-0.94384765625,0.2276611328125,0.43994140625
5.224,302,923,677,816,13.0,32.0,5.0,-9.82666015625,-15.014647483825684,9.1552734375,-0.9844970703125,0.23779296875,0.4632568359375
5.264,304,946,673,830,13.0,32.0,5.0,-12.878417015075684,-18.4326171875,11.413573265075684,-0.9844970703125,0.23779296875,0.4632568359375
5.265,306,947,694,828,13.0,26.0,9.0,-18.00537109375,-26.428220748901367,18.00537109375,-1.0616455078125,0.2001953125,0.4793701171875
5.266,308,958,679,830,13.0,26.0,9.0,-18.00537109375,-26.428220748901367,18.00537109375,-1.0859375,0.141357421875,0.501220703125
5.266,342,973,669,820,13.0,26.0,9.0,-19.53125,-31.372068405151367,21.850584030151367,-1.0859375,0.141357421875,0.501220703125
5.276,302,962,648,780,13.0,26.0,9.0,-18.73779296875,-36.56005859375,25.634763717651367,-0.975830078125,-0.0009765625,0.44970703125
5.285,306,1009,666,846,13.0,26.0,9.0,-14.831542015075684,-41.748043060302734,29.418943405151367,-0.975830078125,-0.0009765625,0.44970703125
5.295,306,1163,648,907,13.0,26.0,9.0,-6.652831554412842,-47.668453216552734,31.555173873901367,-0.7418212890625,-0.0404052734375,0.2926025390625
5.306,313,1559,582,998,13.0,26.0,9.0,6.774901866912842,-52.795406341552734,26.611326217651367,0.1353759765625,-0.174072265625,-0.123046875
5.319,332,1820,636,1188,13.0,26.0,9.0,24.169919967651367,-54.077144622802734,12.268065452575684,0.1353759765625,-0.174072265625,-0.123046875
5.323,346,2047,654,1278,13.0,26.0,9.0,38.2080078125,-50.537105560302734,-6.164550304412842,0.6590576171875,-0.103271484375,-0.1392822265625
5.357,369,2254,625,1353,18.0,30.0,11.0,36.0107421875,-41.015621185302734,-19.6533203125,1.312744140625,0.3663330078125,0.5621337890625
5.357,417,2692,710,1488,18.0,30.0,11.0,11.169432640075684,-19.8974609375,-27.465818405151367,1.312744140625,0.3663330078125,0.5621337890625
5.358,390,2512,721,1561,18.0,30.0,11.0,-24.047849655151367,18.49365234375,-40.710445404052734,0.8189697265625,0.21435546875,0.8953857421875
5.371,404,2647,778,1543,18.0,30.0,11.0,-37.4755859375,60.424800872802734,-58.837886810302734,-2.16796875,0.4996337890625,0.9205322265625
5.375,415,2683,816,1683,18.0,30.0,11.0,6.835937023162842,74.40185546875,-66.58935546875,-2.16796875,0.4996337890625,0.9205322265625
5.390,416,2658,842,1693,18.0,30.0,11.0,74.951171875,41.503902435302734,-63.903804779052734,-3.602294921875,1.5443115234375,0.962158203125
5.397,414,2722,853,1715,18.0,30.0,11.0,58.532711029052734,-18.12744140625,-65.00244140625,-3.2716064453125,-0.182861328125,-0.08740234375
5.405,410,2909,871,1575,18.0,30.0,11.0,-38.6962890625,-67.2607421875,-62.622066497802734,-3.2716064453125,-0.182861328125,-0.08740234375
5.412,401,2832,814,1666,18.0,30.0,11.0,-86.85301971435547,-84.53368377685547,-43.518062591552734,-1.5787353515625,-1.493896484375,-0.0345458984375
5.426,401,2808,733,1547,18.0,30.0,11.0,-27.832029342651367,-60.119625091552734,-14.648436546325684,-0.6849365234375,0.3594970703125,1.595947265625
5.452,400,2769,790,1681,15.0,28.0,10.0,48.583980560302734,-3.112792730331421,13.183592796325684,-0.6849365234375,0.3594970703125,1.595947265625
5.452,361,2869,603,1442,15.0,28.0,10.0,48.156734466552734,44.799800872802734,28.503416061401367,-1.522705078125,1.383056640625,1.5
5.462,375,2657,784,1545,15.0,28.0,10.0,-0.0610351525247097,53.833003997802734,24.780271530151367,-2.020751953125,0.55126953125,0.276123046875
5.466,371,2527,731,1504,15.0,28.0,10.0,-31.616209030151367,34.48486328125,8.60595703125,-2.020751953125,0.55126953125,0.276123046875
5.473,371,2473,713,1427,15.0,28.0,10.0,-29.663084030151367,5.187987804412842,-6.286620616912842,-1.7008056640625,0.08935546875,0.261962890625
5.492,351,2213,657,1239,15.0,28.0,10.0,-10.986327171325684,-20.01953125,-9.8876953125,-1.3070068359375,-0.0491943359375,0.5029296875
5.495,347,2178,603,1228,15.0,28.0,10.0,3.295898199081421,-31.372068405151367,-0.6713866591453552,-0.964599609375,-0.005615234375,0.6729736328125
5.503,342,1954,698,1220,15.0,28.0,10.0,1.8310545682907104,-27.893064498901367,14.465331077575684,-0.66259765625,-0.047119140625,0.581298828125
5.517,328,1634,620,989,15.0,28.0,10.0,-8.48388671875,-13.427733421325684,25.817869186401367,-0.421630859375,-0.220458984375,0.3643798828125
5.525,316,1453,644,976,15.0,28.0,10.0,-7.507323741912842,8.6669921875,27.770994186401367,-0.3006591796875,-0.2733154296875,0.2215576171875
5.532,308,1267,651,912,14.0,27.0,11.0,6.652831554412842,33.8134765625,21.850584030151367,-0.3035888671875,-0.220458984375,0.169921875
5.551,302,977,625,802,14.0,27.0,11.0,18.5546875,53.161617279052734,12.634276390075684,-0.3856201171875,-0.2066650390625,0.158447265625
5.555,302,883,645,797,14.0,27.0,11.0,24.841306686401367,59.265132904052734,4.638671875,-0.456787109375,-0.11767578125,0.1219482421875
5.563,293,803,639,767,14.0,27.0,11.0,31.921384811401367,54.809566497802734,0.4272460639476776,-0.4744873046875,0.070556640625,0.0965576171875
5.576,294,754,619,720,14.0,27.0,11.0,40.0390625,46.020503997802734,-1.5869139432907104,-0.4730224609375,0.248779296875,0.1549072265625
5.585,290,725,630,737,14.0,27.0,11.0,41.687007904052734,36.68212890625,-0.7324218153953552,-0.5421142578125,0.3736572265625,0.3055419921875
5.598,282,707,625,734,14.0,27.0,11.0,32.89794921875,27.038572311401367,3.662109136581421,-0.6268310546875,0.4197998046875,0.4814453125
5.606,287,725,617,702,14.0,27.0,11.0,18.00537109375,17.76123046875,7.080077648162842,-0.6268310546875,0.4014892578125,0.5521240234375
5.617,289,708,632,737,14.0,27.0,11.0,2.929687261581421,11.596678733825684,6.896972179412842,-0.607421875,0.3404541015625,0.48388671875
5.625,292,721,634,735,14.0,27.0,11.0,-9.27734375,9.033203125,4.69970703125,-0.6395263671875,0.239990234375,0.3756103515625
5.636,290,735,629,713,14.0,29.0,10.0,-15.380858421325684,7.629394054412842,2.563476324081421,-0.716064453125,0.1348876953125,0.307373046875
5.655,292,757,646,733,14.0,29.0,10.0,-13.916014671325684,5.249022960662842,1.8310545682907104,-0.800537109375,0.0687255859375,0.295654296875
5.656,291,746,644,744,14.0,29.0,10.0,-7.568358898162842,2.3193359375,3.051757574081421,-0.8712158203125,0.0584716796875,0.3270263671875
5.667,294,762,632,723,14.0,29.0,10.0,-1.3427733182907104,-0.1831054538488388,5.554198741912842,-0.92333984375,0.085693359375,0.3681640625
5.675,294,784,652,738,14.0,29.0,10.0,1.03759765625,-2.3193359375,8.056640625,-0.951171875,0.1148681640625,0.38330078125
5.687,294,785,649,746,14.0,29.0,10.0,-0.4882812201976776,-4.150390625,9.765625,-0.953369140625,0.127197265625,0.3616943359375
5.703,294,794,629,722,14.0,29.0,10.0,-4.08935546875,-5.310058116912842,11.291502952575684,-0.93896484375,0.1319580078125,0.3193359375
5.705,302,846,619,739,14.0,29.0,10.0,-7.446288585662842,-5.981444835662842,13.183592796325684,-0.9195556640625,0.141357421875,0.2872314453125
5.713,295,794,656,754,14.0,29.0,10.0,-9.09423828125,-7.080077648162842,15.380858421325684,-0.9049072265625,0.157470703125,0.2906494140625
5.727,294,820,636,725,14.0,29.0,10.0,-9.46044921875,-9.46044921875,17.4560546875,-0.894775390625,0.172119140625,0.32373046875
5.735,294,837,648,753,15.0,30.0,7.0,-9.765625,-12.573241233825684,19.22607421875,-0.894775390625,0.1839599609375,0.36328125
5.759,294,849,654,749,15.0,30.0,7.0,-10.253905296325684,-15.502928733825684,20.874021530151367,-0.914306640625,0.1986083984375,0.3995361328125
5.759,271,895,628,728,15.0,30.0,7.0,-10.192870140075684,-18.24951171875,22.155759811401367,-0.942138671875,0.2108154296875,0.4310302734375
5.765,294,845,642,725,15.0,30.0,7.0,-8.7890625,-20.996091842651367,22.766111373901367,-0.953369140625,0.216064453125,0.4537353515625
5.776,290,813,638,725,15.0,30.0,7.0,-6.103515148162842,-23.803709030151367,22.521970748901367,-0.9375,0.21875,0.4638671875
5.786,289,793,620,668,15.0,30.0,7.0,-2.990722417831421,-26.428220748901367,22.033689498901367,-0.9122314453125,0.223388671875,0.458251953125
5.799,291,753,633,702,15.0,30.0,7.0,-0.0610351525247097,-29.235837936401367,21.972654342651367,-0.8946533203125,0.2265625,0.43701171875
5.810,289,723,636,698,15.0,30.0,7.0,3.112792730331421,-32.71484375,22.338865280151367,-0.8765869140625,0.2197265625,0.400390625
5.818,289,725,654,711,15.0,30.0,7.0,7.751464366912842,-37.4755859375,22.460935592651367,-0.835693359375,0.2130126953125,0.3343505859375
5.825,292,832,639,667,15.0,30.0,7.0,13.183592796325684,-43.640132904052734,21.728513717651367,-0.71728515625,0.216064453125,0.2254638671875
5.833,294,952,632,803,12.0,27.0,2.0,16.7236328125,-50.170894622802734,18.24951171875,-0.4853515625,0.17529296875,0.088623046875
5.860,304,1521,566,912,12.0,27.0,2.0,15.686034202575684,-54.199214935302734,9.765625,-0.1488037109375,0.041748046875,-0.0216064453125
5.860,315,1908,497,1067,12.0,27.0,2.0,11.047362327575684,-53.955074310302734,-3.479003667831421,0.25244140625,-0.0802001953125,-0.020751953125
5.863,328,2018,594,1231,12.0,27.0,2.0,3.479003667831421,-49.133296966552734,-18.37158203125,0.6422119140625,0.000732421875,0.106689453125
5.877,356,2240,620,1289,12.0,27.0,2.0,-10.498045921325684,-33.8134765625,-33.0810546875,0.9945068359375,0.29150390625,0.2376708984375
5.885,371,2375,697,1490,12.0,27.0,2.0,-31.982419967651367,-0.9155272841453552,-50.476070404052734,1.0753173828125,0.412841796875,0.41162109375
5.893,371,2567,757,1506,12.0,27.0,2.0,-55.175777435302734,39.794921875,-66.58935546875,0.4608154296875,0.169921875,0.705322265625
5.923,405,2704,788,1490,12.0,27.0,2.0,-59.326168060302734,67.7490234375,-70.1904296875,-0.8912353515625,0.0858154296875,0.85791015625
5.924,438,2879,923,1656,12.0,27.0,2.0,-26.672361373901367,61.950679779052734,-65.36865234375,-2.542724609375,0.5848388671875,1.05419921875
5.924,432,2722,900,1700,12.0,27.0,2.0,6.835937023162842,10.131834983825684,-66.83349609375,-3.6761474609375,0.8101806640625,1.167236328125
5.937,432,2897,765,1673,15.0,27.0,15.0,-14.282225608825684,-56.518550872802734,-67.44384765625,-3.7830810546875,0.0294189453125,0.7259521484375
5.947,416,2820,935,1705,15.0,27.0,15.0,-51.208492279052734,-93.13964080810547,-44.921871185302734,-2.6685791015625,-0.935302734375,0.2203369140625
5.963,411,2797,899,1722,15.0,27.0,15.0,-28.320310592651367,-88.37889862060547,-10.314940452575684,-1.111572265625,-1.1207275390625,0.42138671875
5.966,411,2790,832,1703,15.0,27.0,15.0,43.823238372802734,-47.668453216552734,12.145995140075684,-0.3792724609375,-0.1356201171875,1.1148681640625
5.974,415,2753,849,1729,15.0,27.0,15.0,77.392578125,14.831542015075684,20.629880905151367,-0.56494140625,1.179931640625,1.3460693359375
5.984,411,2734,846,1715,15.0,27.0,15.0,77.392578125,14.831542015075684,20.629880905151367,-1.24951171875,1.5281982421875,1.0189208984375
5.996,406,2676,766,1546,15.0,27.0,15.0,-15.808104515075684,72.32666015625,-7.202147960662842,-1.904541015625,1.03173828125,0.61865234375
6.004,402,2568,837,1655,15.0,27.0,15.0,-33.02001953125,47.363277435302734,-22.705076217651367,-2.148681640625,0.338134765625,0.418212890625
6.012,401,2492,813,1597,15.0,27.0,15.0,-33.02001953125,47.363277435302734,-22.705076217651367,-2.010009765625,-0.13525390625,0.5218505859375
6.027,376,2295,712,1393,16.0,27.0,6.0,-17.51708984375,-18.61572265625,-19.47021484375,-1.6690673828125,-0.2119140625,0.7479248046875
6.035,376,2153,754,1437,16.0,27.0,6.0,-1.7700194120407104,-37.353515625,-2.990722417831421,-1.2603759765625,-0.1051025390625,0.8314208984375
6.043,363,2068,739,1292,16.0,27.0,6.0,-1.7700194120407104,-37.353515625,-2.990722417831421,-0.8736572265625,-0.0443115234375,0.7012939453125
6.066,347,1840,684,1169,16.0,27.0,6.0,-3.845214605331421,-34.36279296875,33.63037109375,-0.536865234375,-0.15185546875,0.437255859375
6.066,346,1659,695,1173,16.0,27.0,6.0,-10.437010765075684,-18.1884765625,45.104976654052734,-0.299072265625,-0.3089599609375,0.2186279296875
6.073,334,1504,675,1078,16.0,27.0,6.0,-10.437010765075684,-18.1884765625,45.104976654052734,-0.21435546875,-0.2723388671875,0.1317138671875
6.087,316,1209,646,910,16.0,27.0,6.0,11.779784202575684,26.672361373901367,40.283199310302734,-0.263427734375,-0.125732421875,0.096923828125
6.095,313,1065,673,894,16.0,27.0,6.0,25.573728561401367,42.358394622802734,25.512693405151367,-0.3687744140625,-0.0445556640625,0.070068359375
6.103,300,1022,648,827,16.0,27.0,6.0,25.573728561401367,42.358394622802734,25.512693405151367,-0.43994140625,0.0543212890625,0.1060791015625
6.117,299,883,631,731,16.0,27.0,6.0,43.090816497802734,46.813961029052734,-2.929687261581421,-0.4945068359375,0.2178955078125,0.2200927734375
6.129,294,827,645,739,14.0,26.0,10.0,46.020503997802734,40.344234466552734,-8.60595703125,-0.4989013671875,0.3328857421875,0.353271484375
6.137,299,840,625,733,14.0,26.0,10.0,46.020503997802734,40.344234466552734,-8.60595703125,-0.4620361328125,0.3726806640625,0.459716796875
6.146,293,835,628,713,14.0,26.0,10.0,23.742673873901367,25.756834030151367,3.479003667831421,-0.469482421875,0.362060546875,0.530517578125
6.167,295,865,644,765,14.0,26.0,10.0,8.23974609375,19.22607421875,10.742186546325684,-0.4835205078125,0.2802734375,0.5389404296875
6.167,296,888,644,792,14.0,26.0,10.0,8.23974609375,19.22607421875,10.742186546325684,-0.5135498046875,0.177978515625,0.461181640625
6.177,300,939,631,800,14.0,26.0,10.0,-6.164550304412842,12.756346702575684,8.48388671875,-0.6136474609375,0.1273193359375,0.355224609375
6.186,300,975,648,856,14.0,26.0,10.0,-6.164550304412842,12.756346702575684,8.48388671875,-0.7589111328125,0.1295166015625,0.2940673828125
6.193,306,1022,636,867,14.0,26.0,10.0,-2.0751953125,12.939452171325684,5.737304210662842,-0.7589111328125,0.1295166015625,0.2940673828125
6.207,307,1065,625,853,14.0,26.0,10.0,8.6669921875,6.774901866912842,6.591796398162842,-0.9635009765625,0.1990966796875,0.3363037109375
6.215,304,1108,654,872,14.0,26.0,10.0,8.6669921875,6.774901866912842,6.591796398162842,-0.989990234375,0.2138671875,0.38720703125
6.223,304,1111,660,888,13.0,31.0,7.0,6.225585460662842,0.3662109076976776,8.23974609375,-0.989990234375,0.2138671875,0.38720703125
6.236,310,1091,645,872,13.0,31.0,7.0,-8.056640625,-9.46044921875,12.512206077575684,-0.992919921875,0.17431640625,0.39990234375
6.250,310,1104,660,913,13.0,31.0,7.0,-8.056640625,-9.46044921875,12.512206077575684,-0.98486328125,0.1444091796875,0.3880615234375
6.271,306,1143,668,889,13.0,31.0,7.0,-13.305663108825684,-10.925292015075684,15.258788108825684,-0.98486328125,0.1444091796875,0.3880615234375
6.271,309,1083,689,906,13.0,31.0,7.0,-14.587401390075684,-10.925292015075684,20.080564498901367,-0.981689453125,0.1536865234375,0.4154052734375
6.274,310,1061,669,894,13.0,31.0,7.0,-14.587401390075684,-10.925292015075684,20.080564498901367,-0.9764404296875,0.165771484375,0.4637451171875
6.283,309,1025,679,883,13.0,31.0,7.0,-12.878417015075684,-11.596678733825684,21.301267623901367,-0.9764404296875,0.165771484375,0.4637451171875
6.296,306,947,648,811,13.0,31.0,7.0,-10.498045921325684,-15.014647483825684,23.498533248901367,-0.9599609375,0.1680908203125,0.5413818359375
6.305,300,910,658,808,13.0,31.0,7.0,-10.498045921325684,-15.014647483825684,23.498533248901367,-0.9571533203125,0.171630859375,0.5408935546875
6.313,299,832,651,765,13.0,31.0,7.0,-8.97216796875,-17.51708984375,25.634763717651367,-0.9571533203125,0.171630859375,0.5408935546875
6.326,291,723,631,668,11.0,32.0,13.0,0.4882812201976776,-25.146482467651367,30.395505905151367,-0.941650390625,0.18505859375,0.4822998046875
6.344,282,628,644,673,11.0,32.0,13.0,0.4882812201976776,-25.146482467651367,30.395505905151367,-0.89892578125,0.1844482421875,0.401611328125
6.344,282,625,631,643,11.0,32.0,13.0,6.469726085662842,-32.04345703125,32.3486328125,-0.89892578125,0.1844482421875,0.401611328125
6.373,292,784,630,654,11.0,32.0,13.0,23.803709030151367,-52.795406341552734,33.26416015625,-0.506103515625,0.1826171875,0.0338134765625
6.373,300,1302,628,800,11.0,32.0,13.0,23.803709030151367,-52.795406341552734,33.26416015625,0.034423828125,0.058349609375,-0.248779296875
6.373,302,1557,579,917,11.0,32.0,13.0,33.99658203125,-60.974117279052734,24.902341842651367,0.034423828125,0.058349609375,-0.248779296875
6.387,308,2052,531,1064,11.0,32.0,13.0,35.70556640625,-62.744136810302734,-19.04296875,1.0443115234375,-0.1668701171875,-0.010986328125
6.395,331,2156,631,1303,11.0,32.0,13.0,35.70556640625,-62.744136810302734,-19.04296875,1.31005859375,0.188232421875,0.4013671875
6.402,354,2284,679,1398,11.0,32.0,13.0,39.306640625,-57.861324310302734,-37.2314453125,1.31005859375,0.188232421875,0.4013671875
6.417,371,2563,679,1386,11.0,23.0,11.0,27.038572311401367,-25.146482467651367,-56.457515716552734,0.5531005859375,0.3740234375,0.89794921875
6.424,389,2581,769,1632,11.0,23.0,11.0,-8.72802734375,26.184080123901367,-78.0029296875,0.5531005859375,0.3740234375,0.89794921875
6.433,411,2627,811,1675,11.0,23.0,11.0,-42.724605560302734,61.340328216552734,-80.13916015625,-0.9581298828125,0.2852783203125,1.191162109375
6.448,425,2638,828,1598,11.0,23.0,11.0,-47.729488372802734,62.561031341552734,-54.748531341552734,-4.0,0.8909912109375,0.949462890625
6.455,431,2717,853,1714,11.0,23.0,11.0,-36.19384765625,25.695798873901367,-20.568845748901367,-4.0,0.8909912109375,0.949462890625
6.481,431,2758,864,1730,11.0,23.0,11.0,-57.617183685302734,-29.907224655151367,3.540038824081421,-4.0,0.318603515625,0.315673828125
6.482,411,2798,835,1598,11.0,23.0,11.0,-85.75438690185547,-71.2890625,12.939452171325684,-0.836669921875,-0.9757080078125,0.542236328125
6.485,423,2782,816,1718,11.0,23.0,11.0,-46.630855560302734,-78.7353515625,7.202147960662842,-0.836669921875,-0.9757080078125,0.542236328125
6.495,418,2760,815,1735,11.0,23.0,11.0,45.532222747802734,-44.372554779052734,0.30517578125,-0.1534423828125,-0.054931640625,1.409912109375
6.506,407,2748,728,1580,11.0,23.0,11.0,91.55272674560547,18.5546875,4.2724609375,-1.3602294921875,1.5140380859375,1.314453125
6.515,404,2676,780,1689,11.0,29.0,10.0,50.537105560302734,68.17626953125,5.920409679412842,-1.3602294921875,1.5140380859375,1.314453125
6.522,400,2605,778,1660,11.0,29.0,10.0,-12.023924827575684,72.021484375,-1.9531248807907104,-2.0244140625,1.025634765625,0.7041015625
6.536,390,2448,698,1473,11.0,29.0,10.0,-44.860836029052734,44.494625091552734,-9.6435546875,-1.99560546875,0.0667724609375,0.4351806640625
6.546,375,2341,730,1504,11.0,29.0,10.0,-43.457027435302734,11.413573265075684,-8.72802734375,-1.99560546875,0.0667724609375,0.4351806640625
6.555,356,2317,731,1390,11.0,29.0,10.0,-27.282712936401367,-16.54052734375,1.6479490995407104,-1.5831298828125,0.1024169921875,0.6734619140625
6.577,348,1980,654,1198,11.0,29.0,10.0,-16.29638671875,-33.63037109375,18.1884765625,-0.7099609375,0.0123291015625,0.6192626953125
6.578,344,1838,669,1163,11.0,29.0,10.0,-15.197752952575684,-35.82763671875,34.66796875,-0.7099609375,0.0123291015625,0.6192626953125
6.588,330,1613,661,1131,11.0,29.0,10.0,-18.37158203125,-23.437498092651367,44.555660247802734,-0.39208984375,-0.265869140625,0.3197021484375
6.596,313,1292,639,932,11.0,29.0,10.0,-11.596678733825684,-0.9155272841453552,44.860836029052734,-0.1004638671875,-0.3612060546875,-0.037353515625
6.605,308,1100,666,907,11.0,29.0,10.0,9.21630859375,24.841306686401367,37.4755859375,-0.1004638671875,-0.3612060546875,-0.037353515625
6.612,302,971,656,846,12.0,29.0,9.0,32.5927734375,45.654293060302734,24.353025436401367,-0.1580810546875,-0.2135009765625,0.06494140625
6.626,292,834,631,713,12.0,29.0,9.0,48.217769622802734,56.213375091552734,8.30078125,-0.2635498046875,-0.001220703125,0.2142333984375
6.635,291,731,642,726,12.0,29.0,9.0,53.222652435302734,57.250972747802734,-5.0048828125,-0.370849609375,0.2415771484375,0.3125
6.643,286,741,634,737,12.0,29.0,9.0,50.292964935302734,51.696773529052734,-11.596678733825684,-0.4197998046875,0.3955078125,0.388671875
6.680,289,725,618,706,12.0,29.0,9.0,42.602535247802734,43.273921966552734,-9.6435546875,-0.4554443359375,0.4560546875,0.4913330078125
6.680,289,714,632,735,12.0,29.0,9.0,30.944822311401367,34.48486328125,-1.4648436307907104,-0.526123046875,0.4305419921875,0.6036376953125
6.680,280,782,594,724,12.0,29.0,9.0,16.29638671875,26.367185592651367,5.859374523162842,-0.55859375,0.3341064453125,0.615478515625
6.687,286,763,614,723,12.0,29.0,9.0,3.967284917831421,21.911619186401367,8.36181640625,-0.5850830078125,0.239990234375,0.5020751953125
6.701,289,767,625,761,12.0,29.0,9.0,-0.4272460639476776,20.935056686401367,6.713866710662842,-0.6688232421875,0.185791015625,0.37939453125
6.703,298,842,584,745,12.0,29.0,9.0,2.868652105331421,19.83642578125,3.417968511581421,-0.7950439453125,0.1893310546875,0.3333740234375
6.717,289,772,603,730,11.0,29.0,11.0,9.1552734375,16.41845703125,1.15966796875,-0.8941650390625,0.2274169921875,0.347412109375
6.725,283,766,625,753,11.0,29.0,11.0,13.122557640075684,11.657713890075684,0.4882812201976776,-0.9375,0.254638671875,0.36962890625
6.733,290,780,620,749,11.0,29.0,11.0,13.305663108825684,7.568358898162842,0.7324218153953552,-0.9522705078125,0.2706298828125,0.3775634765625
6.746,291,749,636,749,11.0,29.0,11.0,11.413573265075684,4.82177734375,1.4648436307907104,-0.95068359375,0.2750244140625,0.3731689453125
6.755,291,772,614,722,11.0,29.0,11.0,8.11767578125,3.234863042831421,2.13623046875,-0.9324951171875,0.26025390625,0.35986328125
6.785,282,750,625,713,11.0,29.0,11.0,3.723144292831421,2.38037109375,2.685546636581421,-0.918212890625,0.2496337890625,0.34716796875
6.786,272,774,590,631,11.0,29.0,11.0,-0.9155272841453552,1.4648436307907104,3.662109136581421,-0.912353515625,0.24951171875,0.35205078125
6.786,289,693,582,643,11.0,29.0,11.0,-5.187987804412842,-0.4272460639476776,5.065917491912842,-0.9041748046875,0.240966796875,0.3760986328125
6.792,286,668,628,697,11.0,29.0,11.0,-8.23974609375,-3.234863042831421,6.958007335662842,-0.8953857421875,0.22265625,0.4033203125
6.814,286,628,613,656,11.0,29.0,11.0,-9.70458984375,-6.286620616912842,9.21630859375,-0.89013671875,0.204345703125,0.4234619140625
6.814,280,651,620,640,12.0,31.0,9.0,-9.82666015625,-9.033203125,11.535643577575684,-0.8851318359375,0.1959228515625,0.436279296875
6.822,279,625,617,630,12.0,31.0,9.0,-8.9111328125,-11.535643577575684,13.488768577575684,-0.8765869140625,0.1993408203125,0.4447021484375
6.837,276,614,588,593,12.0,31.0,9.0,-7.019042491912842,-14.221190452575684,14.770506858825684,-0.86328125,0.206298828125,0.44287109375
6.846,276,591,606,616,12.0,31.0,9.0,-4.39453125,-17.7001953125,15.624999046325684,-0.8525390625,0.2196044921875,0.41650390625
6.853,277,582,599,604,12.0,31.0,9.0,-1.03759765625,-21.911619186401367,16.2353515625,-0.84814453125,0.2374267578125,0.3626708984375
6.891,276,568,598,614,12.0,31.0,9.0,3.112792730331421,-27.099607467651367,16.78466796875,-0.822998046875,0.2432861328125,0.2882080078125
6.892,313,691,601,614,12.0,31.0,9.0,6.896972179412842,-33.5693359375,17.333984375,-0.7236328125,0.2357177734375,0.1920166015625
6.892,293,806,658,648,12.0,31.0,9.0,7.568358898162842,-40.405269622802734,16.41845703125,-0.4937744140625,0.1817626953125,0.04833984375
6.897,292,1488,562,946,12.0,31.0,9.0,4.21142578125,-44.189449310302734,9.8876953125,-0.0716552734375,-0.0091552734375,-0.144775390625
6.906,308,1808,576,1081,12.0,31.0,9.0,-1.3427733182907104,-42.419429779052734,-5.859374523162842,0.4180908203125,-0.236083984375,-0.162841796875
6.913,322,2074,601,1206,11.0,29.0,11.0,-3.173827886581421,-38.818359375,-28.076169967651367,0.762939453125,-0.153076171875,0.1654052734375
6.927,361,2257,614,1328,11.0,29.0,11.0,-3.723144292831421,-24.780271530151367,-45.532222747802734,1.03759765625,0.2926025390625,0.512451171875
6.935,371,2348,697,1503,11.0,29.0,11.0,-20.812986373901367,14.892577171325684,-57.250972747802734,1.013671875,0.6485595703125,0.7066650390625
6.942,382,2493,748,1557,11.0,29.0,11.0,-54.565425872802734,60.668941497802734,-69.64111328125,0.2559814453125,0.5877685546875,0.8641357421875
6.957,403,2677,785,1497,11.0,29.0,11.0,-69.03076171875,81.66503143310547,-75.50048828125,-1.158935546875,0.4022216796875,0.8621826171875
6.965,437,2713,758,1643,11.0,29.0,11.0,-35.33935546875,65.91796875,-70.37353515625,-2.7510986328125,0.671142578125,0.9732666015625
6.988,439,2585,917,1735,11.0,29.0,11.0,-0.30517578125,11.718749046325684,-68.4814453125,-3.71142578125,0.708740234375,1.0772705078125
6.989,389,3098,766,1623,11.0,29.0,11.0,-29.968259811401367,-50.170894622802734,-67.138671875,-3.6546630859375,-0.1839599609375,0.6561279296875
6.995,428,2927,749,1580,11.0,29.0,11.0,-65.24658203125,-77.08740234375,-46.936031341552734,-2.4788818359375,-1.1273193359375,0.1566162109375
7.006,426,2760,894,1693,11.0,29.0,11.0,-20.629880905151367,-60.913082122802734,-20.01953125,-0.9842529296875,-1.1336669921875,0.404052734375
7.017,418,2782,788,1590,12.0,29.0,11.0,66.46728515625,-15.563963890075684,-4.0283203125,-0.364013671875,0.0633544921875,1.1378173828125
7.025,411,2760,816,1715,12.0,29.0,11.0,94.48241424560547,38.57421875,2.44140625,-0.706298828125,1.3226318359375,1.4005126953125
7.039,411,2722,808,1715,12.0,29.0,11.0,44.982906341552734,71.83837890625,-1.5258787870407104,-1.4371337890625,1.52978515625,1.0521240234375
7.047,411,2627,750,1577,12.0,29.0,11.0,-11.047362327575684,70.556640625,-12.573241233825684,-1.904052734375,0.9407958984375,0.531494140625
7.055,402,2569,785,1616,12.0,29.0,11.0,-37.53662109375,47.546382904052734,-20.996091842651367,-1.9849853515625,0.26513671875,0.25732421875
7.063,332,2769,601,1516,12.0,29.0,11.0,-36.68212890625,17.27294921875,-21.667478561401367,-1.811279296875,-0.091796875,0.3226318359375
7.095,378,2247,697,1371,12.0,29.0,11.0,-19.775390625,-10.253905296325684,-13.549803733825684,-1.4912109375,-0.2037353515625,0.530029296875
7.095,363,2223,631,1287,12.0,29.0,11.0,-1.5869139432907104,-27.526853561401367,1.7700194120407104,-1.11279296875,-0.1939697265625,0.6600341796875
7.095,361,2030,720,1294,12.0,29.0,11.0,6.958007335662842,-32.71484375,19.34814453125,-0.76953125,-0.1898193359375,0.60791015625
7.107,334,1816,643,1078,13.0,30.0,6.0,6.652831554412842,-27.893064498901367,33.14208984375,-0.5213623046875,-0.283447265625,0.4271240234375
7.116,330,1592,683,1116,13.0,30.0,6.0,8.7890625,-15.686034202575684,40.710445404052734,-0.37353515625,-0.3294677734375,0.259033203125
7.125,323,1411,656,1026,13.0,30.0,6.0,19.59228515625,0.4272460639476776,43.151851654052734,-0.3189697265625,-0.2373046875,0.188720703125
7.154,313,1118,634,861,13.0,30.0,6.0,30.822751998901367,16.78466796875,41.015621185302734,-0.333251953125,-0.1492919921875,0.177001953125
7.164,300,1014,648,859,13.0,30.0,6.0,34.24072265625,30.883787155151367,35.09521484375,-0.3857421875,-0.0836181640625,0.18603515625
7.167,304,894,659,806,13.0,30.0,6.0,36.0107421875,40.10009765625,27.404783248901367,-0.469970703125,0.09130859375,0.2178955078125
7.184,282,790,593,720,13.0,30.0,6.0,42.724605560302734,42.663570404052734,19.34814453125,-0.53955078125,0.33642578125,0.2564697265625
7.199,286,773,603,746,13.0,30.0,6.0,46.386714935302734,39.4287109375,13.000487327575684,-0.5660400390625,0.5052490234375,0.31884765625
7.199,316,780,644,713,13.0,30.0,6.0,39.61181640625,32.40966796875,12.023924827575684,-0.6119384765625,0.5521240234375,0.4210205078125
7.199,289,774,574,600,13.0,30.0,6.0,25.512693405151367,23.193357467651367,15.258788108825684,-0.661865234375,0.499267578125,0.5172119140625
7.207,282,660,625,707,12.0,32.0,14.0,10.070799827575684,14.038084983825684,17.2119140625,-0.6385498046875,0.3758544921875,0.5313720703125
7.215,281,677,628,713,12.0,32.0,14.0,10.070799827575684,14.038084983825684,17.2119140625,-0.5902099609375,0.23291015625,0.4459228515625
7.227,282,702,618,695,12.0,32.0,14.0,-5.859374523162842,8.9111328125,11.474608421325684,-0.59912109375,0.141357421875,0.348876953125
7.236,282,706,636,733,12.0,32.0,14.0,-2.563476324081421,10.742186546325684,8.97216796875,-0.6815185546875,0.140869140625,0.311767578125
7.243,290,731,634,735,12.0,32.0,14.0,-2.563476324081421,10.742186546325684,8.97216796875,-0.795166015625,0.18896484375,0.3226318359375
7.264,291,759,621,723,12.0,32.0,14.0,6.408690929412842,9.94873046875,10.070799827575684,-0.8785400390625,0.2181396484375,0.341552734375
7.266,292,820,639,763,12.0,32.0,14.0,4.638671875,7.324218273162842,11.657713890075684,-0.9176025390625,0.223876953125,0.35400390625
7.274,292,785,639,757,12.0,32.0,14.0,4.638671875,7.324218273162842,11.657713890075684,-0.932861328125,0.2198486328125,0.3636474609375
7.301,293,803,620,725,12.0,32.0,14.0,-0.7324218153953552,0.4882812201976776,14.831542015075684,-0.9390869140625,0.2066650390625,0.3594970703125
7.302,298,827,631,758,12.0,32.0,14.0,-2.25830078125,-2.868652105331421,16.17431640625,-0.9346923828125,0.19287109375,0.3353271484375
7.304,294,827,633,771,8.0,31.0,7.0,-2.25830078125,-2.868652105331421,16.17431640625,-0.9259033203125,0.1915283203125,0.3187255859375
7.318,294,841,607,739,8.0,31.0,7.0,-1.9531248807907104,-7.263183116912842,17.822265625,-0.9267578125,0.2166748046875,0.338623046875
7.326,289,832,624,763,8.0,31.0,7.0,0.1220703050494194,-9.58251953125,17.51708984375,-0.9317626953125,0.26025390625,0.3807373046875
7.333,291,827,621,761,8.0,31.0,7.0,0.1220703050494194,-9.58251953125,17.51708984375,-0.931396484375,0.2999267578125,0.4122314453125
7.348,292,805,607,723,8.0,31.0,7.0,2.01416015625,-14.099120140075684,14.709471702575684,-0.9244384765625,0.3245849609375,0.4241943359375
7.356,286,784,628,741,8.0,31.0,7.0,2.13623046875,-15.686034202575684,12.756346702575684,-0.9156494140625,0.330078125,0.4273681640625
7.366,289,766,630,723,8.0,31.0,7.0,2.13623046875,-15.686034202575684,12.756346702575684,-0.916259765625,0.3238525390625,0.4293212890625
7.377,280,702,600,661,8.0,31.0,7.0,3.295898199081421,-21.118162155151367,9.3994140625,-0.925537109375,0.3173828125,0.4217529296875
7.396,282,667,607,666,8.0,31.0,7.0,3.906249761581421,-25.695798873901367,8.6669921875,-0.9234619140625,0.3115234375,0.3916015625
7.396,263,673,586,598,8.0,31.0,7.0,3.906249761581421,-25.695798873901367,8.6669921875,-0.8812255859375,0.30322265625,0.3289794921875
7.407,286,721,620,636,9.0,30.0,10.0,10.498045921325684,-39.36767578125,6.774901866912842,-0.73291015625,0.2855224609375,0.2166748046875
7.416,294,883,644,763,9.0,30.0,10.0,17.4560546875,-45.288082122802734,2.01416015625,-0.37646484375,0.19482421875,0.0264892578125
7.425,300,1282,601,933,9.0,30.0,10.0,17.4560546875,-45.288082122802734,2.01416015625,0.1893310546875,-0.0416259765625,-0.18896484375
7.438,310,1920,548,1042,9.0,30.0,10.0,3.356933355331421,-32.470703125,-28.442380905151367,0.74072265625,-0.216796875,-0.0516357421875
7.445,329,2047,607,1278,9.0,30.0,10.0,3.356933355331421,-32.470703125,-28.442380905151367,1.1483154296875,0.0308837890625,0.4954833984375
7.455,345,2205,646,1369,9.0,30.0,10.0,-12.023924827575684,-17.822265625,-46.081539154052734,1.1483154296875,0.0308837890625,0.4954833984375
7.468,364,2424,630,1393,9.0,30.0,10.0,-37.29248046875,68.78662109375,-78.125,0.811767578125,0.54296875,0.8446044921875
7.475,387,2559,739,1564,9.0,30.0,10.0,-37.29248046875,68.78662109375,-78.125,-0.466064453125,0.21484375,0.981689453125
7.500,411,2560,803,1662,9.0,30.0,10.0,-75.927734375,109.55809783935547,-88.07372283935547,-0.466064453125,0.21484375,0.981689453125
7.500,425,2571,826,1568,13.0,31.0,3.0,-42.297359466552734,76.59912109375,-70.6787109375,-3.52294921875,0.95166015625,0.725341796875
7.515,418,2608,882,1666,13.0,31.0,3.0,-42.297359466552734,76.59912109375,-70.6787109375,-4.0,0.4156494140625,0.293701171875
7.515,416,2704,790,1604,13.0,31.0,3.0,-29.663084030151367,-1.5258787870407104,-73.42529296875,-4.0,0.4156494140625,0.293701171875
7.522,390,3023,826,1533,13.0,31.0,3.0,-62.377925872802734,-65.49072265625,-65.0634765625,-3.26318359375,-0.8109130859375,-0.2291259765625
7.536,400,2757,754,1521,13.0,31.0,3.0,-55.236812591552734,-79.40673828125,-35.15625,-0.5518798828125,-0.8916015625,0.7139892578125
7.544,403,2778,826,1662,13.0,31.0,3.0,18.798828125,-50.231929779052734,-4.57763671875,-0.5518798828125,-0.8916015625,0.7139892578125
7.557,401,2746,728,1550,13.0,31.0,3.0,52.978511810302734,53.100582122802734,37.04833984375,-1.1181640625,1.4141845703125,1.3831787109375
7.566,398,2698,827,1691,13.0,31.0,3.0,52.978511810302734,53.100582122802734,37.04833984375,-1.810302734375,1.315673828125,0.8760986328125
7.574,393,2633,733,1615,13.0,31.0,3.0,-10.681151390075684,67.07763671875,33.02001953125,-1.810302734375,1.315673828125,0.8760986328125
7.607,372,2578,666,1387,13.0,31.0,3.0,-38.87939453125,5.493163585662842,0.9765624403953552,-1.9156494140625,0.0889892578125,0.2432861328125
7.608,364,2510,638,1351,15.0,30.0,10.0,-38.87939453125,5.493163585662842,0.9765624403953552,-1.527587890625,-0.1976318359375,0.3760986328125
7.608,360,2333,680,1398,15.0,30.0,10.0,-20.874021530151367,-26.306150436401367,-1.5869139432907104,-1.527587890625,-0.1976318359375,0.3760986328125
7.620,338,2174,666,1131,15.0,30.0,10.0,19.8974609375,-44.738765716552734,19.22607421875,-0.7857666015625,-0.1268310546875,0.5906982421875
7.626,344,2115,614,1085,15.0,30.0,10.0,19.8974609375,-44.738765716552734,19.22607421875,-0.565673828125,-0.1884765625,0.4066162109375
7.633,327,1846,678,1101,15.0,30.0,10.0,19.775390625,-33.38623046875,33.50830078125,-0.565673828125,-0.1884765625,0.4066162109375
7.647,316,1516,634,918,15.0,30.0,10.0,16.29638671875,3.784179449081421,45.959468841552734,-0.380615234375,-0.1727294921875,0.063232421875
7.656,313,1386,660,912,15.0,30.0,10.0,16.29638671875,3.784179449081421,45.959468841552734,-0.3939208984375,-0.0928955078125,0.0645751953125
7.664,309,1189,639,894,15.0,30.0,10.0,26.062009811401367,20.629880905151367,38.51318359375,-0.3939208984375,-0.0928955078125,0.0645751953125
7.677,299,1025,607,780,15.0,30.0,10.0,33.87451171875,31.555173873901367,26.062009811401367,-0.4967041015625,0.2664794921875,0.0982666015625
7.704,291,958,614,800,15.0,30.0,10.0,41.015621185302734,37.29248046875,13.366698265075684,-0.4967041015625,0.2664794921875,0.0982666015625
7.704,292,900,586,708,12.0,27.0,7.0,48.828121185302734,38.57421875,2.685546636581421,-0.539794921875,0.402587890625,0.179931640625
7.714,289,801,620,734,12.0,27.0,7.0,51.696773529052734,35.400390625,-1.4648436307907104,-0.625244140625,0.5533447265625,0.5194091796875
7.716,292,746,621,721,12.0,27.0,7.0,43.884273529052734,27.526853561401367,4.2724609375,-0.625244140625,0.5533447265625,0.5194091796875
7.726,287,723,629,713,12.0,27.0,7.0,23.559568405151367,15.808104515075684,12.451170921325684,-0.5806884765625,0.4583740234375,0.6043701171875
7.738,291,748,620,692,12.0,27.0,7.0,-1.220703125,5.737304210662842,15.136717796325684,-0.545654296875,0.1329345703125,0.4619140625
7.746,289,765,631,725,12.0,27.0,7.0,-15.563963890075684,1.4038084745407104,14.038084983825684,-0.545654296875,0.1329345703125,0.4619140625
7.754,291,793,630,722,12.0,27.0,7.0,-15.380858421325684,1.6479490995407104,12.634276390075684,-0.627685546875,0.06982421875,0.39111328125
7.768,295,806,628,697,12.0,27.0,7.0,-7.446288585662842,2.929687261581421,12.756346702575684,-0.831298828125,0.16015625,0.3812255859375
7.776,291,848,644,711,12.0,27.0,7.0,1.220703125,3.112792730331421,14.526366233825684,-0.831298828125,0.16015625,0.3812255859375
7.784,292,822,646,734,12.0,27.0,7.0,5.676269054412842,2.13623046875,15.991209983825684,-0.9007568359375,0.2225341796875,0.3941650390625
7.807,294,837,630,682,12.0,32.0,9.0,4.8828125,0.54931640625,16.41845703125,-0.9974365234375,0.262451171875,0.365234375
7.807,294,858,644,711,12.0,32.0,9.0,0.3662109076976776,-1.2817381620407104,16.9677734375,-0.9974365234375,0.262451171875,0.365234375
7.814,292,843,653,713,12.0,32.0,9.0,-5.737304210662842,-2.929687261581421,17.7001953125,-1.0035400390625,0.2330322265625,0.325439453125
7.833,296,827,644,687,12.0,32.0,9.0,-10.498045921325684,-4.0283203125,18.00537109375,-0.9395751953125,0.19970703125,0.262451171875
7.836,294,841,653,713,12.0,32.0,9.0,-12.390135765075684,-5.554198741912842,17.76123046875,-0.9395751953125,0.19970703125,0.262451171875
7.843,294,818,656,721,12.0,32.0,9.0,-11.413573265075684,-8.4228515625,16.90673828125,-0.8970947265625,0.2296142578125,0.27294921875
7.858,295,793,636,679,12.0,32.0,9.0,-9.58251953125,-12.451170921325684,15.930174827575684,-0.9080810546875,0.267822265625,0.33447265625
7.865,291,788,646,706,12.0,32.0,9.0,-8.36181640625,-16.54052734375,15.808104515075684,-0.9080810546875,0.267822265625,0.33447265625
7.874,292,788,638,695,12.0,32.0,9.0,-6.713866710662842,-20.01953125,16.357421875,-0.900146484375,0.2850341796875,0.3818359375
7.889,289,761,614,646,11.0,31.0,8.0,-4.21142578125,-23.315427780151367,16.29638671875,-0.8917236328125,0.291259765625,0.4259033203125
7.910,286,720,631,669,11.0,31.0,8.0,-1.7089842557907104,-26.977537155151367,15.319823265075684,-0.8929443359375,0.2822265625,0.4580078125
7.910,287,679,632,646,11.0,31.0,8.0,0.6103515625,-30.578611373901367,14.343260765075684,-0.899169921875,0.2735595703125,0.4737548828125
7.917,280,630,632,614,11.0,31.0,8.0,3.051757574081421,-33.50830078125,14.343260765075684,-0.8956298828125,0.2572021484375,0.465087890625
7.925,282,636,632,636,11.0,31.0,8.0,5.676269054412842,-36.19384765625,15.258788108825684,-0.8646240234375,0.2264404296875,0.4217529296875
7.945,291,673,658,646,11.0,31.0,8.0,9.70458984375,-39.36767578125,16.41845703125,-0.7901611328125,0.202880859375,0.3326416015625
7.947,274,992,603,750,11.0,31.0,8.0,15.869139671325684,-43.762203216552734,16.17431640625,-0.6231689453125,0.1873779296875,0.198974609375
7.955,299,1306,594,923,11.0,31.0,8.0,22.338865280151367,-47.851558685302734,11.169432640075684,-0.2891845703125,0.080078125,0.022705078125
7.965,304,1742,572,1026,11.0,31.0,8.0,23.925779342651367,-47.180171966552734,-2.25830078125,0.2332763671875,-0.1876220703125,-0.1036376953125
7.982,328,2165,543,1206,11.0,31.0,8.0,16.54052734375,-41.198726654052734,-22.521970748901367,0.7779541015625,-0.3544921875,0.051513671875
7.986,347,2394,553,1294,11.0,29.0,9.0,5.859374523162842,-26.672361373901367,-38.39111328125,1.165283203125,0.00439453125,0.4188232421875
8.010,359,2453,678,1401,11.0,29.0,9.0,-8.30078125,9.94873046875,-50.537105560302734,1.235595703125,0.535888671875,0.5281982421875
8.011,348,2746,683,1518,11.0,29.0,9.0,-43.273921966552734,59.753414154052734,-68.4814453125,0.5928955078125,0.511962890625,0.595947265625
8.015,398,2833,808,1550,11.0,29.0,9.0,-70.86181640625,84.22850799560547,-81.72606658935547,-0.7841796875,0.2601318359375,0.7462158203125
8.024,391,2848,859,1597,11.0,29.0,9.0,-38.75732421875,72.1435546875,-80.44432830810547,-2.3909912109375,0.698486328125,0.870849609375
8.037,423,2756,830,1564,11.0,29.0,9.0,18.4326171875,27.770994186401367,-77.33154296875,-3.6068115234375,1.3817138671875,1.0584716796875
8.052,424,2788,907,1713,11.0,29.0,9.0,14.404295921325684,-34.97314453125,-81.05467987060547,-3.8558349609375,0.8878173828125,0.8165283203125
8.053,419,2842,912,1716,11.0,29.0,9.0,-39.0625,-74.27978515625,-74.21875,-2.850830078125,-0.513427734375,0.228271484375
8.070,402,2973,830,1541,11.0,29.0,9.0,-54.626461029052734,-69.2138671875,-49.194332122802734,-1.3509521484375,-1.346435546875,0.1685791015625
8.075,406,2978,920,1662,11.0,29.0,9.0,-10.314940452575684,-33.14208984375,-19.10400390625,-0.500732421875,-0.82763671875,0.763916015625
8.084,403,3147,815,1613,14.0,29.0,10.0,31.555173873901367,16.11328125,8.11767578125,-0.587890625,0.466552734375,1.2388916015625
8.114,406,2871,794,1508,14.0,29.0,10.0,22.766111373901367,53.710933685302734,20.935056686401367,-1.276611328125,1.2869873046875,1.1923828125
8.114,454,3147,837,1582,14.0,29.0,10.0,-9.94873046875,55.297847747802734,12.268065452575684,-1.9033203125,1.155029296875,0.7994384765625
8.114,401,2630,809,1634,14.0,29.0,10.0,-30.090330123901367,27.526853561401367,-5.371093273162842,-2.0732421875,0.51904296875,0.45166015625
8.127,388,2514,705,1419,14.0,29.0,10.0,-28.686521530151367,-8.9111328125,-14.587401390075684,-1.8297119140625,0.0074462890625,0.392333984375
8.135,376,2404,739,1452,14.0,29.0,10.0,-12.573241233825684,-38.75732421875,-8.23974609375,-1.3955078125,-0.175048828125,0.5106201171875
8.144,360,2254,720,1411,14.0,29.0,10.0,4.57763671875,-53.283687591552734,9.033203125,-1.0069580078125,-0.1270751953125,0.613037109375
8.165,354,1941,684,1184,14.0,29.0,10.0,12.145995140075684,-52.795406341552734,29.541013717651367,-0.7586669921875,-0.052490234375,0.571533203125
8.166,346,1754,711,1175,14.0,29.0,10.0,10.070799827575684,-42.175289154052734,46.813961029052734,-0.61865234375,-0.0748291015625,0.417236328125
8.174,330,1521,708,1071,14.0,29.0,10.0,6.225585460662842,-26.000974655151367,55.969234466552734,-0.5391845703125,-0.0938720703125,0.260986328125
8.188,316,1173,656,867,10.0,27.0,6.0,6.164550304412842,-7.873534679412842,56.213375091552734,-0.4788818359375,-0.0811767578125,0.1702880859375
8.196,312,937,700,841,10.0,27.0,6.0,9.8876953125,7.934569835662842,49.926753997802734,-0.4427490234375,-0.1309814453125,0.1971435546875
8.215,304,779,697,772,10.0,27.0,6.0,15.258788108825684,17.2119140625,40.283199310302734,-0.417236328125,-0.140625,0.24462890625
8.218,294,559,693,669,10.0,27.0,6.0,22.338865280151367,21.850584030151367,30.883787155151367,-0.4034423828125,0.02734375,0.2423095703125
8.226,282,521,673,648,10.0,27.0,6.0,33.447265625,24.108884811401367,22.766111373901367,-0.4161376953125,0.2750244140625,0.2891845703125
8.235,279,490,660,642,10.0,27.0,6.0,41.687007904052734,21.667478561401367,15.380858421325684,-0.4522705078125,0.4405517578125,0.389892578125
8.247,277,485,636,614,10.0,27.0,6.0,36.56005859375,15.319823265075684,10.742186546325684,-0.497314453125,0.4788818359375,0.483642578125
8.259,277,495,643,636,10.0,27.0,6.0,21.545408248901367,9.3994140625,9.58251953125,-0.5037841796875,0.4080810546875,0.511962890625
8.264,280,506,652,645,10.0,27.0,6.0,7.751464366912842,7.934569835662842,9.21630859375,-0.49169921875,0.2982177734375,0.4603271484375
8.278,280,525,647,639,10.0,27.0,6.0,1.4038084745407104,10.437010765075684,7.812499523162842,-0.507568359375,0.2188720703125,0.382568359375
8.287,291,545,661,673,12.0,30.0,10.0,2.44140625,13.549803733825684,5.554198741912842,-0.5860595703125,0.1785888671875,0.312255859375
8.294,290,598,666,660,12.0,30.0,10.0,6.408690929412842,15.258788108825684,3.723144292831421,-0.700927734375,0.1688232421875,0.2659912109375
8.317,294,645,656,659,12.0,30.0,10.0,10.070799827575684,14.587401390075684,3.906249761581421,-0.7945556640625,0.1905517578125,0.2623291015625
8.317,332,754,668,723,12.0,30.0,10.0,13.916014671325684,11.901854515075684,5.981444835662842,-0.861328125,0.23388671875,0.30078125
8.324,299,702,679,721,12.0,30.0,10.0,16.9677734375,7.629394054412842,8.23974609375,-0.915283203125,0.277099609375,0.3682861328125
8.339,299,746,658,693,12.0,30.0,10.0,15.014647483825684,2.0751953125,9.82666015625,-0.949951171875,0.288330078125,0.4312744140625
8.346,300,759,675,737,12.0,30.0,10.0,7.873534679412842,-3.540038824081421,11.230467796325684,-0.965576171875,0.266845703125,0.464111328125
8.354,294,740,679,746,12.0,30.0,10.0,7.873534679412842,-3.540038824081421,11.230467796325684,-0.9744873046875,0.2376708984375,0.4735107421875
8.367,299,737,661,711,12.0,30.0,10.0,-2.868652105331421,-10.986327171325684,15.502928733825684,-0.979248046875,0.2105712890625,0.47412109375
8.376,296,721,673,735,12.0,30.0,10.0,-3.417968511581421,-13.488768577575684,17.822265625,-0.97509765625,0.1925048828125,0.4747314453125
8.394,292,707,662,721,11.0,29.0,11.0,-3.417968511581421,-13.488768577575684,17.822265625,-0.958984375,0.188720703125,0.478271484375
8.398,289,660,646,658,11.0,29.0,11.0,1.2817381620407104,-17.51708984375,22.644041061401367,-0.944580078125,0.2020263671875,0.484130859375
8.423,282,625,648,666,11.0,29.0,11.0,4.82177734375,-19.22607421875,25.512693405151367,-0.9376220703125,0.2255859375,0.484130859375
8.423,292,648,574,571,11.0,29.0,11.0,4.82177734375,-19.22607421875,25.512693405151367,-0.8978271484375,0.2508544921875,0.465576171875
8.428,282,582,652,654,11.0,29.0,11.0,11.413573265075684,-24.658201217651367,32.5927734375,-0.790283203125,0.2750244140625,0.398681640625
8.438,289,679,660,694,11.0,29.0,11.0,13.732909202575684,-28.869626998901367,33.935546875,-0.615478515625,0.2386474609375,0.2615966796875
8.444,290,907,636,735,11.0,29.0,11.0,13.732909202575684,-28.869626998901367,33.935546875,-0.257568359375,0.073486328125,0.0635986328125
8.458,302,1634,562,932,11.0,29.0,11.0,11.962889671325684,-28.808591842651367,17.2119140625,0.368408203125,-0.1669921875,-0.1146240234375
8.470,321,1862,601,1170,11.0,29.0,11.0,7.629394054412842,-21.484373092651367,-7.934569835662842,0.90234375,-0.2264404296875,-0.0318603515625
8.474,328,2073,651,1206,11.0,29.0,11.0,7.629394054412842,-21.484373092651367,-7.934569835662842,1.06884765625,0.1492919921875,0.21875
8.487,352,2552,651,1330,12.0,29.0,13.0,13.732909202575684,12.878417015075684,-65.97900390625,1.0394287109375,0.6202392578125,0.32470703125
8.496,359,2505,732,1404,12.0,29.0,13.0,6.225585460662842,48.217769622802734,-92.95653533935547,0.56298828125,0.6541748046875,0.6298828125
8.503,386,2503,767,1577,12.0,29.0,13.0,6.225585460662842,48.217769622802734,-92.95653533935547,-0.5767822265625,0.4609375,1.0400390625
8.522,416,2538,774,1544,12.0,29.0,13.0,-22.338865280151367,68.4814453125,-87.34130096435547,-2.237060546875,0.69287109375,1.172119140625
8.526,426,2565,868,1686,12.0,29.0,13.0,-9.6435546875,47.851558685302734,-60.180660247802734,-3.7431640625,1.137939453125,1.056640625
8.534,414,2624,855,1686,12.0,29.0,13.0,-9.6435546875,47.851558685302734,-60.180660247802734,-4.0,0.6595458984375,0.4964599609375
8.547,404,2757,828,1518,12.0,29.0,13.0,-87.46337127685547,-42.053218841552734,-21.911619186401367,-2.9066162109375,-0.6939697265625,-0.1820068359375
8.556,407,2741,865,1640,12.0,29.0,13.0,-78.7353515625,-47.851558685302734,-16.29638671875,-1.177734375,-1.3753662109375,0.0369873046875
8.564,402,2750,853,1650,12.0,29.0,13.0,-78.7353515625,-47.851558685302734,-16.29638671875,-0.3917236328125,-0.522216796875,1.058349609375
8.577,402,2788,751,1531,12.0,28.0,13.0,88.56200408935547,29.235837936401367,-7.568358898162842,-0.6846923828125,0.963134765625,1.697509765625
8.586,388,2756,790,1640,12.0,28.0,13.0,88.56200408935547,29.235837936401367,-7.568358898162842,-1.37939453125,1.60986328125,1.4373779296875
8.594,386,2711,780,1613,12.0,28.0,13.0,63.049312591552734,61.584468841552734,5.737304210662842,-1.37939453125,1.60986328125,1.4373779296875
8.625,383,2587,687,1422,12.0,28.0,13.0,-40.222164154052734,42.358394622802734,-4.150390625,-1.8052978515625,0.4447021484375,0.2205810546875
8.625,373,2491,723,1483,12.0,28.0,13.0,-40.222164154052734,42.358394622802734,-4.150390625,-1.653076171875,0.0218505859375,0.102294921875
8.625,364,2340,659,1387,12.0,28.0,13.0,-39.24560546875,19.287109375,-11.108397483825684,-1.653076171875,0.0218505859375,0.102294921875
8.638,361,2060,689,1275,12.0,28.0,13.0,0.0,-21.911619186401367,2.563476324081421,-1.04443359375,0.0347900390625,0.4150390625
8.646,360,1912,725,1316,12.0,28.0,13.0,0.0,-21.911619186401367,2.563476324081421,-0.6767578125,-0.097412109375,0.3953857421875
8.654,346,1787,693,1228,12.0,28.0,13.0,3.967284917831421,-29.785154342651367,15.869139671325684,-0.6767578125,-0.097412109375,0.3953857421875
8.667,328,1521,646,1043,12.0,28.0,13.0,7.751464366912842,-4.57763671875,26.245115280151367,-0.26513671875,-0.330810546875,0.15185546875
8.676,328,1375,685,1050,13.0,31.0,11.0,7.751464366912842,-4.57763671875,26.245115280151367,-0.2626953125,-0.25537109375,0.1903076171875
8.684,315,1292,673,949,13.0,31.0,11.0,22.827146530151367,18.06640625,24.047849655151367,-0.2626953125,-0.25537109375,0.1903076171875
8.698,304,1109,628,832,13.0,31.0,11.0,32.04345703125,42.602535247802734,12.695311546325684,-0.495361328125,0.1026611328125,0.314453125
8.706,301,1041,636,840,13.0,31.0,11.0,32.04345703125,42.602535247802734,12.695311546325684,-0.58349609375,0.383056640625,0.2900390625
8.733,296,968,639,806,13.0,31.0,11.0,31.249998092651367,45.532222747802734,7.995604991912842,-0.58349609375,0.383056640625,0.2900390625
8.734,294,900,633,737,13.0,31.0,11.0,34.97314453125,38.9404296875,5.676269054412842,-0.6673583984375,0.6353759765625,0.465087890625
8.736,296,888,603,737,13.0,31.0,11.0,34.97314453125,38.9404296875,5.676269054412842,-0.6610107421875,0.5054931640625,0.5284423828125
8.744,291,802,631,738,13.0,31.0,11.0,23.681638717651367,29.113767623901367,5.859374523162842,-0.6610107421875,0.5054931640625,0.5284423828125
8.758,292,767,631,698,13.0,31.0,11.0,-4.5166015625,14.953612327575684,-1.8920897245407104,-0.6180419921875,0.1448974609375,0.3985595703125
8.765,292,773,644,733,13.0,31.0,11.0,-4.5166015625,14.953612327575684,-1.8920897245407104,-0.6851806640625,0.10888671875,0.326904296875
8.774,292,780,644,734,9.0,29.0,10.0,-3.967284917831421,13.305663108825684,-5.676269054412842,-0.6851806640625,0.10888671875,0.326904296875
8.792,294,785,630,694,9.0,29.0,10.0,2.563476324081421,12.817381858825684,-6.835937023162842,-0.8712158203125,0.1971435546875,0.3017578125
8.796,297,799,647,725,9.0,29.0,10.0,8.97216796875,12.390135765075684,-5.798339366912842,-0.92041015625,0.22412109375,0.309326171875
