time,compression0,compression1,compression2,compression3,magn_x,magn_y,magn_z,gyro_x,gyro_y,gyro_z,accel_x,accel_y,accel_z
0.008,263,1709,321,830,9.0,26.0,16.0,3.540038824081421,-0.2441406100988388,-3.173827886581421,-0.9498291015625,0.2982177734375,0.0302734375
0.017,268,1600,372,859,9.0,26.0,16.0,4.39453125,-0.0610351525247097,-3.906249761581421,-0.9498291015625,0.2982177734375,0.0302734375
0.024,268,1596,371,860,9.0,26.0,16.0,4.638671875,0.0,-4.2724609375,-0.946044921875,0.2861328125,0.0277099609375
0.038,267,1592,344,816,9.0,26.0,16.0,4.33349609375,0.0,-4.33349609375,-0.94287109375,0.2774658203125,0.0299072265625
0.046,267,1595,371,871,9.0,26.0,16.0,4.0283203125,-0.30517578125,-4.2724609375,-0.9405517578125,0.275146484375,0.0361328125
0.061,268,1600,372,871,9.0,26.0,16.0,3.967284917831421,-0.9155272841453552,-4.2724609375,-0.9429931640625,0.277099609375,0.040283203125
0.068,268,1610,360,816,9.0,26.0,16.0,3.906249761581421,-1.7700194120407104,-4.45556640625,-0.9471435546875,0.280029296875,0.040771484375
0.076,268,1613,375,867,8.0,30.0,21.0,3.479003667831421,-2.685546636581421,-4.57763671875,-0.94921875,0.2769775390625,0.0352783203125
0.098,272,1608,377,872,8.0,30.0,21.0,2.868652105331421,-3.356933355331421,-4.69970703125,-0.9483642578125,0.2679443359375,0.0289306640625
0.098,272,1635,347,814,8.0,30.0,21.0,2.13623046875,-3.723144292831421,-4.45556640625,-0.9495849609375,0.2598876953125,0.0303955078125
0.106,272,1632,378,860,8.0,30.0,21.0,1.4038084745407104,-3.906249761581421,-3.845214605331421,-0.9554443359375,0.26171875,0.0377197265625
0.115,275,1641,388,859,8.0,30.0,21.0,0.6713866591453552,-3.784179449081421,-2.868652105331421,-0.9605712890625,0.2705078125,0.04931640625
0.128,279,1762,380,737,8.0,30.0,21.0,-0.0610351525247097,-3.356933355331421,-1.8310545682907104,-0.962890625,0.2735595703125,0.0587158203125
0.142,279,1756,424,792,8.0,30.0,21.0,-0.1831054538488388,-2.563476324081421,-0.9765624403953552,-0.9560546875,0.27197265625,0.0616455078125
0.148,277,1708,406,826,8.0,30.0,21.0,0.54931640625,-1.7700194120407104,-0.54931640625,-0.9456787109375,0.267822265625,0.0595703125
0.175,276,1719,383,762,8.0,30.0,21.0,1.5869139432907104,-1.2817381620407104,-0.4882812201976776,-0.9410400390625,0.26513671875,0.0540771484375
0.219,275,1715,411,827,7.0,26.0,22.0,2.685546636581421,-1.2817381620407104,-0.8544921278953552,-0.9393310546875,0.2796630859375,0.0460205078125
0.219,277,1722,404,775,7.0,26.0,22.0,3.173827886581421,-1.3427733182907104,-1.2817381620407104,-0.9437255859375,0.28564453125,0.049072265625
0.220,277,1733,401,800,7.0,26.0,22.0,4.0283203125,-1.220703125,-1.7700194120407104,-0.953857421875,0.28662109375,0.0565185546875
0.220,280,1727,402,802,7.0,26.0,22.0,5.065917491912842,-0.9155272841453552,-2.0751953125,-0.9619140625,0.2857666015625,0.0616455078125
0.220,278,1718,388,782,7.0,26.0,22.0,5.615233898162842,-0.54931640625,-2.13623046875,-0.966064453125,0.2841796875,0.05859375
0.250,278,1733,423,834,7.0,26.0,22.0,5.371093273162842,-0.2441406100988388,-2.197265625,-0.96923828125,0.279541015625,0.051513671875
0.251,277,1735,418,806,7.0,26.0,22.0,4.638671875,-0.0610351525247097,-2.197265625,-0.968994140625,0.272216796875,0.042236328125
0.251,279,1732,411,788,7.0,26.0,22.0,3.723144292831421,-0.0610351525247097,-2.01416015625,-0.96826171875,0.265380859375,0.0301513671875
0.262,278,1746,424,837,7.0,26.0,22.0,2.563476324081421,-0.30517578125,-1.7089842557907104,-0.9691162109375,0.2607421875,0.022216796875
0.272,279,1739,424,844,7.0,26.0,22.0,1.4038084745407104,-0.9155272841453552,-1.3427733182907104,-0.968017578125,0.260498046875,0.0220947265625
0.304,279,1757,415,843,8.0,29.0,27.0,0.6103515625,-1.8310545682907104,-0.9765624403953552,-0.9664306640625,0.2650146484375,0.025634765625
0.304,279,1773,430,827,8.0,29.0,27.0,0.0610351525247097,-2.685546636581421,-0.9155272841453552,-0.9666748046875,0.2724609375,0.0289306640625
0.304,280,1770,430,829,8.0,29.0,27.0,-0.54931640625,-3.356933355331421,-1.0986328125,-0.964599609375,0.277587890625,0.0340576171875
0.308,280,1779,404,778,8.0,29.0,27.0,-1.5258787870407104,-3.601073980331421,-1.4038084745407104,-0.95703125,0.2772216796875,0.0413818359375
0.316,280,1811,453,803,8.0,29.0,27.0,-2.685546636581421,-3.356933355331421,-1.5869139432907104,-0.9459228515625,0.272705078125,0.0487060546875
0.324,280,1801,439,816,8.0,29.0,27.0,-3.845214605331421,-2.929687261581421,-1.5869139432907104,-0.9337158203125,0.26708984375,0.05615234375
0.338,280,1790,400,774,8.0,29.0,27.0,-4.45556640625,-2.50244140625,-1.5869139432907104,-0.92431640625,0.2623291015625,0.0634765625
0.346,280,1803,445,814,8.0,29.0,27.0,-4.0283203125,-2.197265625,-1.7089842557907104,-0.924560546875,0.263427734375,0.0655517578125
0.354,279,1789,437,840,8.0,29.0,27.0,-2.50244140625,-1.8310545682907104,-1.9531248807907104,-0.9351806640625,0.2701416015625,0.064208984375
0.368,280,1766,390,803,9.0,30.0,23.0,-0.7324218153953552,-1.5869139432907104,-2.01416015625,-0.95166015625,0.27734375,0.065185546875
0.379,280,1761,416,867,9.0,30.0,23.0,0.9155272841453552,-1.2817381620407104,-1.6479490995407104,-0.96533203125,0.2825927734375,0.066650390625
0.417,279,1816,371,853,9.0,30.0,23.0,2.25830078125,-0.7324218153953552,-0.9765624403953552,-0.9683837890625,0.28564453125,0.065185546875
0.434,280,1899,430,705,9.0,30.0,23.0,2.990722417831421,-0.3662109076976776,-0.7934569716453552,-0.9639892578125,0.2855224609375,0.0599365234375
0.437,281,1895,473,765,9.0,30.0,23.0,3.112792730331421,-0.3662109076976776,-1.4038084745407104,-0.9620361328125,0.276611328125,0.0555419921875
0.437,282,1908,479,759,9.0,30.0,23.0,2.929687261581421,-0.4882812201976776,-2.3193359375,-0.96533203125,0.2626953125,0.0546875
0.438,282,1904,433,707,9.0,30.0,23.0,3.051757574081421,-0.4882812201976776,-2.746581792831421,-0.96826171875,0.2550048828125,0.0537109375
0.438,282,1905,481,766,9.0,30.0,23.0,3.479003667831421,-0.4272460639476776,-2.563476324081421,-0.9697265625,0.254150390625,0.05224609375
0.444,280,1904,481,772,9.0,30.0,23.0,3.784179449081421,-0.54931640625,-2.01416015625,-0.9708251953125,0.2581787109375,0.0509033203125
0.462,280,1798,402,803,9.0,30.0,23.0,3.540038824081421,-0.6713866591453552,-1.2817381620407104,-0.96875,0.2628173828125,0.048828125
0.466,280,1869,388,858,10.0,29.0,26.0,2.624511480331421,-0.6713866591453552,-0.6713866591453552,-0.9635009765625,0.2630615234375,0.0472412109375
0.474,280,1779,434,884,10.0,29.0,26.0,1.5258787870407104,-0.54931640625,-0.2441406100988388,-0.95703125,0.260498046875,0.049560546875
0.488,279,1794,387,811,10.0,29.0,26.0,0.7934569716453552,-0.4272460639476776,0.0,-0.9501953125,0.26025390625,0.0545654296875
0.513,281,1775,430,885,10.0,29.0,26.0,0.7934569716453552,-0.54931640625,-0.0610351525247097,-0.9466552734375,0.26416015625,0.056396484375
0.514,280,1786,431,882,10.0,29.0,26.0,0.7934569716453552,-0.54931640625,-0.0610351525247097,-0.9478759765625,0.26953125,0.0533447265625
0.518,281,1794,399,814,10.0,29.0,26.0,1.5258787870407104,-0.9155272841453552,-0.4272460639476776,-0.9501953125,0.2738037109375,0.04638671875
0.526,280,1781,437,890,10.0,29.0,26.0,1.0986328125,-0.8544921278953552,-0.54931640625,-0.9530029296875,0.27392578125,0.039306640625
0.534,282,1785,434,888,10.0,29.0,26.0,1.0986328125,-0.8544921278953552,-0.54931640625,-0.9539794921875,0.2696533203125,0.0369873046875
0.548,282,1786,402,820,10.0,29.0,26.0,-0.7934569716453552,-0.7324218153953552,-0.4272460639476776,-0.9532470703125,0.264404296875,0.041015625
0.556,280,1838,456,846,10.0,29.0,26.0,-1.0986328125,-0.8544921278953552,-0.1831054538488388,-0.9539794921875,0.2633056640625,0.0498046875
0.568,279,1801,439,879,11.0,27.0,20.0,-1.0986328125,-0.8544921278953552,-0.1831054538488388,-0.9569091796875,0.2677001953125,0.0574951171875
0.578,280,1819,410,802,11.0,27.0,20.0,0.0,-1.03759765625,0.2441406100988388,-0.9613037109375,0.27197265625,0.0595703125
0.586,280,1815,439,869,11.0,27.0,20.0,0.1831054538488388,-0.8544921278953552,0.3662109076976776,-0.96337890625,0.2720947265625,0.059326171875
0.611,280,1794,445,891,11.0,27.0,20.0,0.1831054538488388,-0.8544921278953552,0.3662109076976776,-0.9609375,0.2679443359375,0.0625
0.612,280,1794,411,829,11.0,27.0,20.0,-0.3662109076976776,0.0,0.3662109076976776,-0.9573974609375,0.2630615234375,0.0673828125
0.616,287,1850,428,888,11.0,27.0,20.0,0.1220703050494194,0.30517578125,0.30517578125,-0.957275390625,0.2620849609375,0.06640625
0.625,280,1794,445,891,11.0,27.0,20.0,0.1220703050494194,0.30517578125,0.30517578125,-0.9593505859375,0.2659912109375,0.05908203125
0.638,280,1789,409,830,11.0,27.0,20.0,1.3427733182907104,0.3662109076976776,0.6713866591453552,-0.959716796875,0.2701416015625,0.0516357421875
0.646,280,1794,442,890,11.0,27.0,20.0,1.2817381620407104,0.3662109076976776,1.03759765625,-0.960693359375,0.2698974609375,0.047119140625
0.655,279,1796,447,890,11.0,27.0,20.0,1.2817381620407104,0.3662109076976776,1.03759765625,-0.9639892578125,0.2647705078125,0.048095703125
0.675,289,1807,414,811,7.0,28.0,17.0,1.03759765625,0.6103515625,1.4648436307907104,-0.969970703125,0.26220703125,0.05078125
0.676,282,1821,537,767,7.0,28.0,17.0,0.9765624403953552,0.4882812201976776,1.5869139432907104,-0.9749755859375,0.270751953125,0.047607421875
0.686,280,1806,456,867,7.0,28.0,17.0,0.9765624403953552,0.4882812201976776,1.5869139432907104,-0.973876953125,0.281982421875,0.0452880859375
0.712,282,1816,411,793,7.0,28.0,17.0,0.2441406100988388,0.3662109076976776,1.220703125,-0.977783203125,0.28076171875,0.04833984375
0.712,281,1810,446,848,7.0,28.0,17.0,0.8544921278953552,1.2817381620407104,1.5869139432907104,-0.985595703125,0.27392578125,0.050537109375
0.715,278,1874,391,840,7.0,28.0,17.0,0.8544921278953552,1.2817381620407104,1.5869139432907104,-0.9764404296875,0.273193359375,0.056884765625
0.728,282,1786,408,790,7.0,28.0,17.0,4.33349609375,4.33349609375,5.249022960662842,-0.960205078125,0.2718505859375,0.0654296875
0.741,280,1773,442,846,7.0,28.0,17.0,4.33349609375,4.33349609375,5.249022960662842,-0.951904296875,0.2686767578125,0.0677490234375
0.744,280,1772,442,844,7.0,28.0,17.0,6.042479991912842,5.371093273162842,5.859374523162842,-0.951904296875,0.2686767578125,0.0677490234375
0.758,280,1762,398,779,7.0,28.0,17.0,7.507323741912842,6.042479991912842,5.187987804412842,-0.9375,0.268798828125,0.068115234375
0.766,280,1748,428,842,7.0,30.0,23.0,7.507323741912842,6.042479991912842,5.187987804412842,-0.9361572265625,0.2698974609375,0.0665283203125
0.782,278,1735,426,846,7.0,30.0,23.0,7.568358898162842,6.103515148162842,4.33349609375,-0.9361572265625,0.2698974609375,0.0665283203125
0.789,277,1742,404,860,7.0,30.0,23.0,9.33837890625,6.347655773162842,2.38037109375,-0.940673828125,0.273681640625,0.056640625
0.796,277,1655,402,887,7.0,30.0,23.0,9.33837890625,6.347655773162842,2.38037109375,-0.9454345703125,0.2779541015625,0.0382080078125
0.814,279,1809,465,738,7.0,30.0,23.0,10.253905296325684,6.164550304412842,1.7089842557907104,-0.9454345703125,0.2779541015625,0.0382080078125
0.818,277,1700,370,780,7.0,30.0,23.0,7.751464366912842,5.126952648162842,1.3427733182907104,-0.9542236328125,0.2760009765625,0.010498046875
0.826,274,1691,395,828,7.0,30.0,23.0,7.751464366912842,5.126952648162842,1.3427733182907104,-0.9564208984375,0.2742919921875,0.011962890625
0.834,274,1684,382,846,7.0,30.0,23.0,5.554198741912842,4.5166015625,1.2817381620407104,-0.9564208984375,0.2742919921875,0.011962890625
0.850,275,1715,348,749,7.0,30.0,23.0,2.44140625,2.990722417831421,1.0986328125,-0.956298828125,0.2684326171875,0.0279541015625
0.856,268,1635,363,865,7.0,30.0,23.0,2.44140625,2.990722417831421,1.0986328125,-0.955078125,0.259033203125,0.037109375
0.864,272,1615,363,869,6.0,25.0,21.0,1.2817381620407104,2.01416015625,1.0986328125,-0.955078125,0.259033203125,0.037109375
0.878,268,1610,330,820,6.0,25.0,21.0,2.25830078125,0.7324218153953552,1.7089842557907104,-0.9459228515625,0.261962890625,0.031494140625
0.888,268,1652,398,891,6.0,25.0,21.0,2.25830078125,0.7324218153953552,1.7089842557907104,-0.945556640625,0.2850341796875,0.0130615234375
0.894,268,1613,356,867,6.0,25.0,21.0,3.540038824081421,0.30517578125,2.0751953125,-0.945556640625,0.2850341796875,0.0130615234375
0.918,268,1607,324,808,6.0,25.0,21.0,2.01416015625,-0.9155272841453552,2.38037109375,-0.9390869140625,0.3154296875,0.012451171875
0.918,268,1604,352,855,6.0,25.0,21.0,2.01416015625,-0.9155272841453552,2.38037109375,-0.9395751953125,0.3021240234375,0.0240478515625
0.924,268,1598,356,858,6.0,25.0,21.0,-0.0610351525247097,-0.9155272841453552,2.3193359375,-0.9395751953125,0.3021240234375,0.0240478515625
0.938,267,1595,321,814,6.0,25.0,21.0,-3.906249761581421,-0.3662109076976776,1.8310545682907104,-0.94873046875,0.267578125,0.04541015625
0.946,268,1602,354,855,6.0,25.0,21.0,-3.906249761581421,-0.3662109076976776,1.8310545682907104,-0.946044921875,0.252197265625,0.0665283203125
0.954,272,1613,354,849,6.0,25.0,21.0,-5.065917491912842,-0.7324218153953552,1.5258787870407104,-0.946044921875,0.252197265625,0.0665283203125
0.968,267,1611,321,806,7.0,32.0,22.0,-4.21142578125,-1.15966796875,1.4648436307907104,-0.9473876953125,0.2545166015625,0.06982421875
0.976,268,1613,354,859,7.0,32.0,22.0,-1.8920897245407104,-1.3427733182907104,1.6479490995407104,-0.9473876953125,0.2545166015625,0.06982421875
0.984,267,1613,359,865,7.0,32.0,22.0,0.1220703050494194,-1.5258787870407104,2.0751953125,-0.9505615234375,0.2764892578125,0.0494384765625
0.998,268,1623,327,803,7.0,32.0,22.0,0.54931640625,-1.5869139432907104,2.50244140625,-0.9488525390625,0.303466796875,0.007080078125
1.019,267,1610,361,871,7.0,32.0,22.0,-0.9155272841453552,-1.220703125,2.624511480331421,-0.9488525390625,0.303466796875,0.007080078125
1.020,258,1743,304,855,7.0,32.0,22.0,-3.601073980331421,-0.6103515625,2.50244140625,-0.9466552734375,0.296875,-0.000732421875
1.028,268,1635,347,814,7.0,32.0,22.0,-6.286620616912842,-0.4882812201976776,2.25830078125,-0.9412841796875,0.2796630859375,0.029296875
1.036,272,1627,363,869,7.0,32.0,22.0,-7.385253429412842,-1.0986328125,1.8920897245407104,-0.9412841796875,0.2796630859375,0.029296875
1.044,268,1627,364,879,7.0,32.0,22.0,-6.958007335662842,-2.197265625,1.7089842557907104,-0.9398193359375,0.2783203125,0.0484619140625
1.058,274,1640,334,818,8.0,25.0,23.0,-5.798339366912842,-3.112792730331421,1.6479490995407104,-0.9510498046875,0.2808837890625,0.052734375
1.066,271,1640,363,872,8.0,25.0,23.0,-4.82177734375,-3.540038824081421,1.6479490995407104,-0.9510498046875,0.2808837890625,0.052734375
1.076,268,1643,363,879,8.0,25.0,23.0,-4.5166015625,-3.173827886581421,1.6479490995407104,-0.9541015625,0.283203125,0.0450439453125
1.088,272,1646,333,827,8.0,25.0,23.0,-4.82177734375,-2.3193359375,1.7089842557907104,-0.94970703125,0.2900390625,0.0384521484375
1.100,272,1652,364,883,8.0,25.0,23.0,-5.187987804412842,-1.4648436307907104,1.9531248807907104,-0.94970703125,0.2900390625,0.0384521484375
1.122,272,1656,337,827,8.0,25.0,23.0,-4.5166015625,-0.6713866591453552,2.38037109375,-0.9508056640625,0.297119140625,0.0362548828125
1.126,272,1652,373,891,8.0,25.0,23.0,-4.0283203125,-0.7324218153953552,2.3193359375,-0.9508056640625,0.297119140625,0.0362548828125
1.134,272,1652,370,891,8.0,25.0,23.0,-3.662109136581421,-1.03759765625,1.9531248807907104,-0.9560546875,0.2977294921875,0.03125
1.148,275,1655,344,832,8.0,25.0,23.0,-3.540038824081421,-1.3427733182907104,1.5869139432907104,-0.958740234375,0.2957763671875,0.0404052734375
1.156,272,1653,372,891,9.0,29.0,26.0,-3.601073980331421,-1.4038084745407104,1.3427733182907104,-0.958740234375,0.2957763671875,0.0404052734375
1.164,274,1650,376,895,9.0,29.0,26.0,-3.479003667831421,-1.2817381620407104,1.220703125,-0.952880859375,0.28955078125,0.05224609375
1.178,275,1656,344,834,9.0,29.0,26.0,-2.746581792831421,-1.220703125,1.0986328125,-0.946044921875,0.2811279296875,0.0606689453125
1.188,275,1653,375,894,9.0,29.0,26.0,-1.5869139432907104,-1.2817381620407104,1.0986328125,-0.9444580078125,0.2802734375,0.0594482421875
1.194,274,1656,373,883,9.0,29.0,26.0,-0.4272460639476776,-1.4038084745407104,1.0986328125,-0.9482421875,0.2904052734375,0.0496826171875
1.226,275,1665,346,829,9.0,29.0,26.0,0.0610351525247097,-1.3427733182907104,1.15966796875,-0.9525146484375,0.3038330078125,0.04052734375
1.227,265,1806,302,830,9.0,29.0,26.0,-0.4882812201976776,-0.9155272841453552,1.15966796875,-0.953369140625,0.3072509765625,0.0377197265625
1.227,273,1651,375,890,9.0,29.0,26.0,-1.6479490995407104,-0.1220703050494194,1.15966796875,-0.9498291015625,0.296875,0.0433349609375
1.238,275,1665,354,818,9.0,29.0,26.0,-2.624511480331421,0.6103515625,1.15966796875,-0.943359375,0.280029296875,0.0538330078125
1.246,275,1655,378,889,9.0,29.0,26.0,-2.50244140625,0.9155272841453552,1.0986328125,-0.938232421875,0.26904296875,0.061279296875
1.254,273,1659,378,891,7.0,25.0,16.0,-1.5258787870407104,0.6713866591453552,0.9155272841453552,-0.9395751953125,0.2762451171875,0.0579833984375
1.268,272,1659,351,834,7.0,25.0,16.0,-0.54931640625,0.0,0.6103515625,-0.9456787109375,0.297607421875,0.04345703125
1.276,274,1662,383,888,7.0,25.0,16.0,-0.4882812201976776,-0.6103515625,0.1831054538488388,-0.952392578125,0.31494140625,0.0262451171875
1.284,274,1652,382,891,7.0,25.0,16.0,-1.5258787870407104,-0.6713866591453552,-0.1220703050494194,-0.959228515625,0.317626953125,0.0164794921875
1.300,274,1648,352,840,7.0,25.0,16.0,-3.356933355331421,-0.3662109076976776,-0.1220703050494194,-0.9658203125,0.30810546875,0.02001953125
1.331,275,1652,385,887,7.0,25.0,16.0,-5.371093273162842,0.0,0.1220703050494194,-0.968505859375,0.29052734375,0.0369873046875
1.331,274,1681,371,869,7.0,25.0,16.0,-6.713866710662842,0.1831054538488388,0.4272460639476776,-0.9638671875,0.2733154296875,0.0604248046875
1.331,275,1652,354,793,7.0,25.0,16.0,-6.591796398162842,0.2441406100988388,0.7934569716453552,-0.9515380859375,0.2623291015625,0.078369140625
1.337,275,1718,400,811,7.0,25.0,16.0,-4.69970703125,0.30517578125,1.0986328125,-0.9383544921875,0.260986328125,0.0850830078125
1.344,275,1715,403,814,7.0,25.0,16.0,-1.8310545682907104,0.2441406100988388,1.2817381620407104,-0.9366455078125,0.2750244140625,0.0782470703125
1.358,275,1652,360,800,6.0,31.0,22.0,0.7324218153953552,0.1831054538488388,1.2817381620407104,-0.9464111328125,0.299072265625,0.0596923828125
1.366,277,1695,404,816,6.0,31.0,22.0,1.8920897245407104,0.2441406100988388,1.220703125,-0.95654296875,0.319580078125,0.0411376953125
1.375,275,1681,406,820,6.0,31.0,22.0,1.4648436307907104,0.54931640625,0.9765624403953552,-0.9632568359375,0.3250732421875,0.02880859375
1.389,279,1662,371,761,6.0,31.0,22.0,-0.1220703050494194,1.03759765625,0.54931640625,-0.968017578125,0.3131103515625,0.0255126953125
1.396,275,1650,404,814,6.0,31.0,22.0,-1.9531248807907104,1.2817381620407104,0.2441406100988388,-0.9696044921875,0.29443359375,0.0330810546875
1.404,274,1733,328,785,6.0,31.0,22.0,-3.112792730331421,1.15966796875,0.1220703050494194,-0.96728515625,0.28271484375,0.04443359375
1.428,278,1613,373,740,6.0,31.0,22.0,-3.295898199081421,0.9155272841453552,0.0610351525247097,-0.9609375,0.2806396484375,0.0556640625
1.429,277,1610,398,793,6.0,31.0,22.0,-2.685546636581421,0.6713866591453552,0.0,-0.9534912109375,0.2825927734375,0.0643310546875
1.434,276,1596,409,784,6.0,31.0,22.0,-1.220703125,0.4272460639476776,-0.0610351525247097,-0.949951171875,0.28759765625,0.0638427734375
1.448,275,1572,378,728,7.0,29.0,18.0,0.0610351525247097,0.2441406100988388,-0.1220703050494194,-0.9515380859375,0.296630859375,0.05322265625
1.456,274,1546,411,780,7.0,29.0,18.0,0.1831054538488388,0.1220703050494194,-0.2441406100988388,-0.9534912109375,0.305419921875,0.0374755859375
1.464,275,1531,411,777,7.0,29.0,18.0,-0.9765624403953552,0.1831054538488388,-0.3662109076976776,-0.9539794921875,0.3116455078125,0.03076171875
1.478,275,1506,382,714,7.0,29.0,18.0,-2.990722417831421,0.4882812201976776,-0.2441406100988388,-0.9534912109375,0.312744140625,0.049560546875
1.486,280,1623,454,693,7.0,29.0,18.0,-5.0048828125,0.9155272841453552,0.0,-0.9473876953125,0.3023681640625,0.076171875
1.494,274,1488,418,744,7.0,29.0,18.0,-5.859374523162842,1.7700194120407104,0.0,-0.9378662109375,0.2818603515625,0.080078125
1.509,274,1499,376,722,7.0,29.0,18.0,-5.126952648162842,2.746581792831421,-0.4882812201976776,-0.9366455078125,0.2635498046875,0.0550537109375
1.534,273,1413,416,733,7.0,29.0,18.0,-3.173827886581421,2.868652105331421,-1.0986328125,-0.9482421875,0.26611328125,0.015869140625
1.535,272,1336,400,759,7.0,29.0,18.0,-1.4648436307907104,1.6479490995407104,-1.220703125,-0.9639892578125,0.29248046875,-0.0133056640625
1.538,268,1268,418,737,7.0,29.0,18.0,-1.4648436307907104,-0.54931640625,-0.7934569716453552,-0.9725341796875,0.3197021484375,-0.0203857421875
1.546,272,1278,418,700,7.0,27.0,23.0,-3.112792730331421,-2.197265625,-0.4882812201976776,-0.96923828125,0.3212890625,-0.0059814453125
1.555,268,1264,411,705,7.0,27.0,23.0,-4.7607421875,-2.38037109375,-0.30517578125,-0.957275390625,0.2962646484375,0.0252685546875
1.568,268,1225,388,654,7.0,27.0,23.0,-5.0048828125,-1.5869139432907104,0.1831054538488388,-0.939208984375,0.2662353515625,0.0584716796875
1.576,268,1220,409,691,7.0,27.0,23.0,-4.21142578125,-0.7934569716453552,0.9765624403953552,-0.9251708984375,0.2486572265625,0.075927734375
1.584,275,1268,437,614,7.0,27.0,23.0,-3.601073980331421,-1.0986328125,1.4648436307907104,-0.9259033203125,0.2469482421875,0.071044921875
1.598,273,1213,388,617,7.0,27.0,23.0,-3.784179449081421,-2.807616949081421,0.9765624403953552,-0.9334716796875,0.2562255859375,0.0579833984375
1.607,272,1234,414,653,7.0,27.0,23.0,-4.21142578125,-4.7607421875,-0.0610351525247097,-0.9300537109375,0.272216796875,0.0548095703125
1.614,268,1260,413,657,7.0,27.0,23.0,-3.784179449081421,-6.042479991912842,-0.9155272841453552,-0.908935546875,0.289794921875,0.0577392578125
1.647,265,1236,375,687,7.0,27.0,23.0,-2.25830078125,-6.835937023162842,-1.4648436307907104,-0.8734130859375,0.3026123046875,0.0543212890625
1.647,268,1318,398,725,7.0,27.0,23.0,-0.7324218153953552,-7.934569835662842,-2.197265625,-0.835693359375,0.3092041015625,0.043212890625
1.647,265,1341,400,753,9.0,28.0,21.0,-0.7324218153953552,-7.934569835662842,-2.197265625,-0.8125,0.30126953125,0.0299072265625
1.658,272,1476,354,723,9.0,28.0,21.0,-2.929687261581421,-14.282225608825684,-4.8828125,-0.793701171875,0.27587890625,0.0150146484375
1.667,272,1506,398,802,9.0,28.0,21.0,-6.469726085662842,-18.4326171875,-5.981444835662842,-0.7396240234375,0.2421875,-0.0013427734375
1.674,277,1675,419,765,9.0,28.0,21.0,-6.469726085662842,-18.4326171875,-5.981444835662842,-0.6229248046875,0.22998046875,-0.0157470703125
1.688,291,1838,455,724,9.0,28.0,21.0,-25.329587936401367,-24.291990280151367,-7.263183116912842,-0.4259033203125,0.251708984375,-0.023193359375
1.696,299,1922,559,822,9.0,28.0,21.0,-42.907711029052734,-27.099607467651367,-14.648436546325684,-0.192626953125,0.2127685546875,-0.072998046875
1.704,305,2116,689,787,9.0,28.0,21.0,-42.907711029052734,-27.099607467651367,-14.648436546325684,-0.0770263671875,0.0152587890625,-0.213623046875
1.718,322,2172,702,802,9.0,28.0,21.0,-91.00341033935547,-28.686521530151367,-36.865234375,-0.070068359375,-0.23388671875,-0.3028564453125
1.743,322,2217,746,980,9.0,28.0,21.0,-102.29491424560547,-30.090330123901367,-28.015134811401367,-0.052734375,-0.32421875,-0.26953125
1.751,321,2306,738,1004,9.0,28.0,21.0,-102.29491424560547,-30.090330123901367,-28.015134811401367,-0.1412353515625,-0.1007080078125,-0.195068359375
1.751,318,2728,947,739,11.0,23.0,23.0,-62.805171966552734,-33.935546875,13.000487327575684,-0.5020751953125,0.4261474609375,-0.0423583984375
1.756,315,2807,1064,925,11.0,23.0,23.0,-56.823726654052734,-47.119136810302734,17.76123046875,-0.9527587890625,0.8572998046875,0.2625732421875
1.764,317,2919,1058,858,11.0,23.0,23.0,-56.823726654052734,-47.119136810302734,17.76123046875,-1.27587890625,0.9439697265625,0.58056640625
1.778,325,2869,951,815,11.0,23.0,23.0,-116.88231658935547,-75.5615234375,-7.934569835662842,-1.526611328125,0.8680419921875,0.7130126953125
1.786,332,2868,1034,1063,11.0,23.0,23.0,-127.50243377685547,-71.4111328125,-20.446775436401367,-1.7984619140625,0.78271484375,0.7593994140625
1.794,336,2914,1101,1045,11.0,23.0,23.0,-127.50243377685547,-71.4111328125,-20.446775436401367,-2.067138671875,0.6484375,0.8543701171875
1.808,318,3147,1146,778,11.0,23.0,23.0,-84.65575408935547,-47.119136810302734,-43.762203216552734,-2.3509521484375,0.39013671875,0.8369140625
1.817,332,2859,1026,1026,11.0,23.0,23.0,-53.588863372802734,-29.907224655151367,-53.039546966552734,-2.3470458984375,-0.0213623046875,0.602783203125
1.831,334,2897,1010,1058,11.0,23.0,23.0,-53.588863372802734,-29.907224655151367,-53.039546966552734,-1.916259765625,-0.3927001953125,0.421142578125
1.848,331,2769,910,971,16.0,25.0,18.0,27.221677780151367,19.34814453125,-43.273921966552734,-1.7637939453125,-0.10791015625,0.2813720703125
1.848,316,2989,1122,840,16.0,25.0,18.0,46.569820404052734,20.751951217651367,-23.986814498901367,-1.94677734375,0.4544677734375,0.037109375
1.855,315,3012,1112,809,16.0,25.0,18.0,46.569820404052734,20.751951217651367,-23.986814498901367,-1.976806640625,0.4776611328125,-0.0552978515625
1.868,309,2937,1018,648,16.0,25.0,18.0,-7.629394054412842,7.995604991912842,3.845214605331421,-1.8131103515625,0.2041015625,0.114501953125
1.876,308,2750,957,774,16.0,25.0,18.0,-7.629394054412842,7.995604991912842,3.845214605331421,-1.5428466796875,0.1240234375,0.373779296875
1.884,308,2758,865,820,16.0,25.0,18.0,-8.6669921875,6.774901866912842,9.58251953125,-1.5428466796875,0.1240234375,0.373779296875
1.898,306,2340,651,713,16.0,25.0,18.0,33.02001953125,13.732909202575684,13.122557640075684,-0.9647216796875,0.3116455078125,0.5623779296875
1.906,302,2203,644,811,16.0,25.0,18.0,33.02001953125,13.732909202575684,13.122557640075684,-0.75634765625,0.3084716796875,0.4755859375
1.914,299,2020,614,767,16.0,25.0,18.0,47.607418060302734,23.132322311401367,10.253905296325684,-0.75634765625,0.3084716796875,0.4755859375
1.942,296,1808,537,648,16.0,25.0,18.0,66.0400390625,35.2783203125,-5.737304210662842,-0.477294921875,-0.1182861328125,0.31591796875
1.942,291,1739,551,557,9.0,26.0,25.0,66.0400390625,35.2783203125,-5.737304210662842,-0.40771484375,-0.38232421875,0.224609375
1.944,291,1413,569,603,9.0,26.0,25.0,77.7587890625,38.51318359375,-15.624999046325684,-0.40771484375,-0.38232421875,0.224609375
1.958,286,987,527,483,9.0,26.0,25.0,104.49217987060547,33.447265625,-19.47021484375,-0.3623046875,-0.131591796875,-0.0892333984375
1.966,279,762,521,526,9.0,26.0,25.0,104.49217987060547,33.447265625,-19.47021484375,-0.32958984375,0.1893310546875,-0.219482421875
1.976,274,669,509,501,9.0,26.0,25.0,97.77831268310547,25.512693405151367,-13.183592796325684,-0.32958984375,0.1893310546875,-0.219482421875
1.988,274,679,482,519,9.0,26.0,25.0,47.302242279052734,2.807616949081421,7.446288585662842,-0.596435546875,0.4510498046875,-0.216552734375
1.996,271,683,496,564,9.0,26.0,25.0,47.302242279052734,2.807616949081421,7.446288585662842,-0.65625,0.2716064453125,-0.0655517578125
2.004,272,691,493,568,9.0,26.0,25.0,15.136717796325684,-6.835937023162842,11.291502952575684,-0.65625,0.2716064453125,-0.0655517578125
2.018,268,684,480,523,9.0,26.0,25.0,14.343260765075684,-1.2817381620407104,0.0,-0.7281494140625,0.051025390625,0.0859375
2.045,268,685,490,562,9.0,26.0,25.0,14.343260765075684,-1.2817381620407104,0.0,-0.8040771484375,0.1319580078125,0.1761474609375
2.045,269,689,490,568,9.0,27.0,25.0,38.26904296875,4.0283203125,-4.2724609375,-0.8040771484375,0.1319580078125,0.1761474609375
2.048,268,702,497,567,9.0,27.0,25.0,52.978511810302734,0.9765624403953552,-6.774901866912842,-0.8802490234375,0.349365234375,0.2486572265625
2.059,271,700,493,570,9.0,27.0,25.0,52.978511810302734,0.9765624403953552,-6.774901866912842,-0.853515625,0.3914794921875,0.2069091796875
2.065,269,714,495,570,9.0,27.0,25.0,40.954586029052734,-2.868652105331421,-7.690429210662842,-0.853515625,0.3914794921875,0.2069091796875
2.078,272,757,493,513,9.0,27.0,25.0,16.05224609375,-4.82177734375,-6.103515148162842,-0.755859375,0.2537841796875,0.0640869140625
2.089,275,803,513,546,9.0,27.0,25.0,16.05224609375,-4.82177734375,-6.103515148162842,-0.7301025390625,0.143310546875,0.0103759765625
2.094,274,917,497,623,9.0,27.0,25.0,14.465331077575684,-3.906249761581421,-4.0283203125,-0.7301025390625,0.143310546875,0.0103759765625
2.108,278,1155,465,623,9.0,27.0,25.0,20.446775436401367,-3.906249761581421,-2.01416015625,-0.82177734375,0.2073974609375,0.012451171875
2.116,279,1336,513,620,9.0,27.0,25.0,26.794431686401367,-6.347655773162842,0.54931640625,-0.82177734375,0.2073974609375,0.012451171875
2.124,280,1450,509,644,9.0,27.0,25.0,26.000974655151367,-10.498045921325684,3.723144292831421,-0.8372802734375,0.32080078125,0.05029296875
2.155,290,1770,533,592,9.0,27.0,21.0,16.66259765625,-13.244627952575684,5.187987804412842,-0.7803955078125,0.3446044921875,0.0352783203125
2.155,292,1757,563,697,9.0,27.0,21.0,3.112792730331421,-14.343260765075684,3.234863042831421,-0.7803955078125,0.3446044921875,0.0352783203125
2.155,299,2010,693,588,9.0,27.0,21.0,-10.681151390075684,-16.6015625,-1.15966796875,-0.670166015625,0.273681640625,0.0068359375
2.168,317,1952,713,697,9.0,27.0,21.0,-23.742673873901367,-20.935056686401367,-7.690429210662842,-0.3785400390625,0.027587890625,-0.1427001953125
2.176,331,2052,843,917,9.0,27.0,21.0,-37.90283203125,-26.550291061401367,-16.17431640625,-0.3785400390625,0.027587890625,-0.1427001953125
2.184,348,2144,874,1018,9.0,27.0,21.0,-55.725093841552734,-31.921384811401367,-22.277830123901367,-0.254638671875,-0.1285400390625,-0.2275390625
2.203,356,2246,981,1013,9.0,27.0,21.0,-76.96533203125,-34.7900390625,-21.423337936401367,-0.110107421875,-0.279052734375,-0.4295654296875
2.206,370,2372,978,1160,9.0,27.0,21.0,-91.91893768310547,-32.470703125,-14.282225608825684,-0.110107421875,-0.279052734375,-0.4295654296875
2.214,378,2430,1085,1157,9.0,27.0,21.0,-91.85790252685547,-31.127927780151367,-3.173827886581421,-0.2772216796875,-0.011962890625,-0.3564453125
2.228,376,2551,1038,1129,9.0,27.0,21.0,-85.93749237060547,-42.541500091552734,7.873534679412842,-0.8321533203125,0.5517578125,0.895263671875
2.250,363,2772,1268,1094,13.0,25.0,19.0,-86.91405487060547,-63.842769622802734,13.977049827575684,-0.8321533203125,0.5517578125,0.895263671875
2.250,364,2840,1501,1063,13.0,25.0,19.0,-90.75926971435547,-75.25634765625,15.258788108825684,-1.0968017578125,0.69775390625,1.2457275390625
2.258,369,2936,1555,986,13.0,25.0,19.0,-88.07372283935547,-64.453125,11.474608421325684,-1.5758056640625,0.7296142578125,0.966796875
2.273,336,3147,1557,1162,13.0,25.0,19.0,-79.52880859375,-42.297359466552734,-0.2441406100988388,-1.5758056640625,0.7296142578125,0.966796875
2.274,327,3147,1920,890,13.0,25.0,19.0,-69.76318359375,-25.756834030151367,-19.10400390625,-1.8734130859375,0.4239501953125,0.6690673828125
2.289,324,3147,1874,867,13.0,25.0,19.0,-54.260250091552734,-16.845703125,-37.41455078125,-2.648681640625,0.2828369140625,0.1416015625
2.296,321,3147,1840,792,13.0,25.0,19.0,-32.71484375,-14.160155296325684,-48.034664154052734,-2.648681640625,0.2828369140625,0.1416015625
2.304,319,3147,1855,808,13.0,25.0,19.0,-15.991209983825684,-13.061522483825684,-50.354000091552734,-2.25634765625,-0.1190185546875,0.1004638671875
2.318,318,3147,1800,794,13.0,25.0,19.0,7.812499523162842,-7.812499523162842,-44.189449310302734,-1.603515625,-0.401123046875,0.199951171875
2.326,318,3147,1786,767,13.0,25.0,19.0,40.405269622802734,-8.72802734375,-30.273435592651367,-1.474853515625,-0.0721435546875,0.4093017578125
2.353,318,3147,1748,738,16.0,23.0,25.0,47.607418060302734,-10.742186546325684,-13.854979515075684,-1.6727294921875,0.2725830078125,0.515869140625
2.354,318,3147,1616,648,16.0,23.0,25.0,26.672361373901367,-0.9765624403953552,-1.5869139432907104,-1.8001708984375,0.4013671875,0.57958984375
2.357,299,3147,1543,601,16.0,23.0,25.0,3.479003667831421,10.131834983825684,4.33349609375,-1.7291259765625,0.4112548828125,0.64013671875
2.364,315,3147,1521,548,16.0,23.0,25.0,-8.9111328125,17.08984375,5.310058116912842,-1.5347900390625,0.3018798828125,0.6171875
2.383,310,3112,1348,468,16.0,23.0,25.0,-6.225585460662842,25.817869186401367,4.0283203125,-1.3515625,0.18017578125,0.520751953125
2.386,313,3039,1323,479,16.0,23.0,25.0,9.33837890625,34.36279296875,3.356933355331421,-1.216796875,0.220703125,0.4002685546875
2.394,307,2872,1229,487,16.0,23.0,25.0,26.000974655151367,37.29248046875,2.990722417831421,-1.0758056640625,0.2720947265625,0.2611083984375
2.408,304,2382,905,588,16.0,23.0,25.0,36.43798828125,35.888671875,0.9155272841453552,-0.908447265625,0.1583251953125,0.108642578125
2.416,306,2498,1050,312,16.0,23.0,25.0,46.020503997802734,32.77587890625,-1.5869139432907104,-0.7059326171875,-0.025390625,0.035400390625
2.429,302,2155,913,413,16.0,23.0,25.0,58.166500091552734,29.663084030151367,-3.601073980331421,-0.453125,-0.237548828125,0.130615234375
2.454,304,1954,749,438,13.0,24.0,20.0,70.80078125,30.334470748901367,-5.798339366912842,-0.2547607421875,-0.390625,0.2537841796875
2.454,304,1757,766,359,13.0,24.0,20.0,82.21434783935547,34.912109375,-7.385253429412842,-0.21630859375,-0.360595703125,0.2498779296875
2.455,289,1328,546,631,13.0,24.0,20.0,87.46337127685547,37.41455078125,-6.530761241912842,-0.2701416015625,-0.213623046875,0.1463623046875
2.468,299,1362,628,337,13.0,24.0,20.0,84.28954315185547,35.33935546875,-2.563476324081421,-0.2994384765625,0.0048828125,0.0205078125
2.476,290,1149,555,455,13.0,24.0,20.0,76.35498046875,29.479978561401367,4.2724609375,-0.3175048828125,0.2510986328125,-0.0855712890625
2.485,289,1104,543,428,13.0,24.0,20.0,66.40625,21.911619186401367,12.817381858825684,-0.4014892578125,0.3934326171875,-0.1248779296875
2.498,289,1178,532,433,13.0,24.0,20.0,53.161617279052734,15.502928733825684,21.301267623901367,-0.530029296875,0.391845703125,-0.082275390625
2.506,282,1266,551,482,13.0,24.0,20.0,36.865234375,11.596678733825684,27.160642623901367,-0.6368408203125,0.3330078125,-0.0206298828125
2.514,280,1258,526,564,13.0,24.0,20.0,23.681638717651367,8.85009765625,26.611326217651367,-0.7115478515625,0.3079833984375,0.0333251953125
2.529,281,1374,497,582,11.0,23.0,21.0,18.06640625,4.57763671875,18.37158203125,-0.7684326171875,0.323974609375,0.0838623046875
2.556,282,1450,521,625,11.0,23.0,21.0,16.17431640625,-1.2817381620407104,6.347655773162842,-0.7823486328125,0.314208984375,0.1141357421875
2.556,282,1456,472,748,11.0,23.0,21.0,12.451170921325684,-6.103515148162842,-3.295898199081421,-0.77587890625,0.2554931640625,0.10302734375
2.558,267,1735,445,654,11.0,23.0,21.0,7.141112804412842,-9.1552734375,-7.446288585662842,-0.7855224609375,0.2088623046875,0.090087890625
2.566,289,1546,497,841,11.0,23.0,21.0,3.112792730331421,-12.268065452575684,-6.530761241912842,-0.782470703125,0.194580078125,0.11279296875
2.574,292,1638,516,865,11.0,23.0,21.0,0.9765624403953552,-15.319823265075684,-3.906249761581421,-0.7572021484375,0.1778564453125,0.135009765625
2.591,304,1824,561,790,11.0,23.0,21.0,-1.4648436307907104,-17.51708984375,-3.967284917831421,-0.726806640625,0.147216796875,0.1295166015625
2.597,309,1899,667,867,11.0,23.0,21.0,-6.774901866912842,-19.6533203125,-8.36181640625,-0.730224609375,0.1114501953125,0.080078125
2.604,322,1959,777,899,11.0,23.0,21.0,-16.6015625,-21.484373092651367,-14.465331077575684,-0.76953125,0.0599365234375,-0.0220947265625
2.618,319,2478,1134,540,11.0,23.0,21.0,-30.029294967651367,-22.827146530151367,-18.06640625,-0.7735595703125,-0.008544921875,-0.13916015625
2.626,321,2758,1236,589,12.0,25.0,24.0,-42.480464935302734,-24.291990280151367,-17.2119140625,-0.687744140625,-0.0540771484375,-0.22900390625
2.634,315,3076,1560,370,12.0,25.0,24.0,-52.001949310302734,-25.634763717651367,-13.732909202575684,-0.486328125,-0.0579833984375,-0.3067626953125
2.660,318,2911,1343,673,12.0,25.0,24.0,-60.241695404052734,-25.634763717651367,-10.864256858825684,-0.2685546875,0.0057373046875,-0.3839111328125
2.660,325,2993,1478,830,12.0,25.0,24.0,-68.9697265625,-28.198240280151367,-9.09423828125,-0.155029296875,0.16357421875,-0.280029296875
2.664,321,3147,1715,636,12.0,25.0,24.0,-82.03124237060547,-40.710445404052734,-6.591796398162842,-0.1324462890625,0.2735595703125,0.1373291015625
2.678,323,3147,1877,737,12.0,25.0,24.0,-94.60448455810547,-59.753414154052734,-3.906249761581421,-0.1827392578125,0.2493896484375,0.7281494140625
2.686,324,3147,2057,788,12.0,25.0,24.0,-91.79686737060547,-73.18115234375,-1.7089842557907104,-0.4288330078125,0.40771484375,1.163330078125
2.698,330,3147,2058,885,12.0,25.0,24.0,-77.57568359375,-72.69287109375,-0.6103515625,-0.9462890625,0.803466796875,1.162353515625
2.708,324,3147,2233,980,12.0,25.0,24.0,-74.15771484375,-57.189937591552734,-7.507323741912842,-1.4613037109375,0.7086181640625,0.9886474609375
2.716,324,3147,2345,1014,12.0,25.0,24.0,-79.77294921875,-32.65380859375,-22.705076217651367,-2.0418701171875,0.1138916015625,0.7777099609375
2.724,311,3147,2375,316,15.0,22.0,23.0,-70.37353515625,-13.610838890075684,-33.75244140625,-2.9208984375,0.12548828125,0.567626953125
2.738,318,3147,2153,907,15.0,22.0,23.0,-53.039546966552734,-13.793944358825684,-34.423828125,-3.22314453125,0.1456298828125,0.35400390625
2.771,336,3147,1878,974,15.0,22.0,23.0,-30.517576217651367,-12.817381858825684,-33.203125,-2.2889404296875,-0.5350341796875,0.21826171875
2.772,323,3147,2100,891,15.0,22.0,23.0,20.690916061401367,-3.784179449081421,-28.503416061401367,-1.2508544921875,-0.6650390625,0.3553466796875
2.772,318,3147,1882,895,15.0,22.0,23.0,68.42041015625,-1.5258787870407104,-11.840819358825684,-1.0902099609375,-0.1220703125,0.442138671875
2.776,321,3147,2057,841,15.0,22.0,23.0,70.6787109375,5.737304210662842,7.263183116912842,-1.48291015625,0.3695068359375,0.38818359375
2.784,324,3147,1905,829,15.0,22.0,23.0,70.6787109375,5.737304210662842,7.263183116912842,-1.8170166015625,0.6126708984375,0.3509521484375
2.805,323,3147,1744,731,15.0,22.0,23.0,-0.8544921278953552,18.24951171875,17.578125,-1.8238525390625,0.5657958984375,0.38671875
2.807,306,3147,1703,725,15.0,22.0,23.0,-22.521970748901367,12.573241233825684,10.925292015075684,-1.6282958984375,0.364013671875,0.462158203125
2.814,321,3147,1643,705,15.0,22.0,23.0,-22.521970748901367,12.573241233825684,10.925292015075684,-1.38720703125,0.1439208984375,0.520751953125
2.828,318,3147,1582,483,15.0,21.0,24.0,-6.408690929412842,16.11328125,-1.15966796875,-1.199462890625,0.06201171875,0.549560546875
2.837,315,3115,1483,493,15.0,21.0,24.0,9.521484375,26.611326217651367,-0.30517578125,-1.07958984375,0.1395263671875,0.5147705078125
2.844,316,2824,1287,659,15.0,21.0,24.0,9.521484375,26.611326217651367,-0.30517578125,-0.9486083984375,0.1358642578125,0.4071044921875
2.863,308,2868,1260,398,15.0,21.0,24.0,28.198240280151367,37.41455078125,4.45556640625,-0.773193359375,-0.033935546875,0.28369140625
2.866,306,2668,1178,424,15.0,21.0,24.0,43.518062591552734,37.78076171875,4.33349609375,-0.5927734375,-0.191650390625,0.2225341796875
2.877,306,2432,1027,521,15.0,21.0,24.0,43.518062591552734,37.78076171875,4.33349609375,-0.4342041015625,-0.2869873046875,0.239501953125
2.888,302,2155,827,497,15.0,21.0,24.0,86.66991424560547,37.59765625,1.9531248807907104,-0.3502197265625,-0.3143310546875,0.26953125
2.898,302,2151,842,364,15.0,21.0,24.0,99.18212127685547,38.6962890625,2.746581792831421,-0.3731689453125,-0.2225341796875,0.2608642578125
2.912,304,2058,794,323,15.0,21.0,24.0,99.18212127685547,38.6962890625,2.746581792831421,-0.4263916015625,-0.0885009765625,0.2147216796875
2.920,296,1705,642,402,12.0,24.0,24.0,91.97997283935547,37.9638671875,8.36181640625,-0.4364013671875,-0.015625,0.137939453125
2.926,299,1508,584,369,12.0,24.0,24.0,82.21434783935547,38.2080078125,13.183592796325684,-0.403564453125,-0.0123291015625,0.025390625
2.934,292,1429,588,438,12.0,24.0,24.0,82.21434783935547,38.2080078125,13.183592796325684,-0.3973388671875,0.0203857421875,-0.1280517578125
2.948,280,1313,509,484,12.0,24.0,24.0,82.94676971435547,35.21728515625,38.51318359375,-0.5150146484375,0.11962890625,-0.256103515625
2.965,280,1326,495,559,12.0,24.0,24.0,86.66991424560547,29.296873092651367,48.767086029052734,-0.6956787109375,0.250732421875,-0.2366943359375
2.965,280,1380,499,564,12.0,24.0,24.0,86.66991424560547,29.296873092651367,48.767086029052734,-0.796875,0.4180908203125,-0.076171875
2.978,280,1499,512,518,12.0,24.0,24.0,84.71678924560547,7.568358898162842,36.07177734375,-0.8125,0.5643310546875,0.075927734375
2.992,282,1518,504,594,12.0,24.0,24.0,77.63671875,0.7934569716453552,22.338865280151367,-0.78173828125,0.6092529296875,0.121337890625
2.995,278,1640,465,591,12.0,24.0,24.0,77.63671875,0.7934569716453552,22.338865280151367,-0.7294921875,0.531005859375,0.0777587890625
3.008,279,1600,453,576,12.0,24.0,24.0,49.377437591552734,-4.21142578125,-0.1220703050494194,-0.7060546875,0.39306640625,0.01025390625
3.017,292,1877,585,497,4.0,23.0,25.0,49.377437591552734,-4.21142578125,-0.1220703050494194,-0.7376708984375,0.2816162109375,-0.0225830078125
3.024,291,1925,590,536,4.0,23.0,25.0,29.052732467651367,-8.30078125,-5.187987804412842,-0.7376708984375,0.2816162109375,-0.0225830078125
3.038,292,2039,580,548,4.0,23.0,25.0,-8.1787109375,-20.446775436401367,-6.591796398162842,-0.7874755859375,0.187744140625,0.040283203125
3.046,296,2155,679,586,4.0,23.0,25.0,-8.1787109375,-20.446775436401367,-6.591796398162842,-0.7081298828125,0.1759033203125,0.09619140625
3.068,302,2215,799,543,4.0,23.0,25.0,-17.333984375,-25.268552780151367,-6.652831554412842,-0.7081298828125,0.1759033203125,0.09619140625
3.069,315,2484,1025,531,4.0,23.0,25.0,-42.480464935302734,-28.015134811401367,-18.06640625,-0.3975830078125,-0.080078125,-0.1422119140625
3.076,312,2921,1398,439,4.0,23.0,25.0,-42.480464935302734,-28.015134811401367,-18.06640625,-0.3013916015625,-0.290771484375,-0.36767578125
3.086,323,3073,1540,371,4.0,23.0,25.0,-74.03564453125,-27.099607467651367,-23.193357467651367,-0.3013916015625,-0.290771484375,-0.36767578125
3.102,331,3105,1499,535,4.0,23.0,25.0,-119.93407440185547,-26.367185592651367,-2.50244140625,-0.2540283203125,-0.230712890625,-0.4979248046875
3.106,328,3147,1711,519,4.0,23.0,25.0,-119.93407440185547,-26.367185592651367,-2.50244140625,-0.399169921875,0.0694580078125,-0.168701171875
3.115,321,3147,1816,580,12.0,24.0,24.0,-114.74608612060547,-26.550291061401367,16.6015625,-0.399169921875,0.0694580078125,-0.168701171875
3.128,323,3147,1952,698,12.0,24.0,24.0,-119.26268768310547,-56.823726654052734,38.02490234375,-0.61572265625,0.5224609375,1.1851806640625
3.136,322,3147,2083,749,12.0,24.0,24.0,-119.26268768310547,-56.823726654052734,38.02490234375,-0.7392578125,0.692626953125,1.3043212890625
3.144,318,3147,2175,797,12.0,24.0,24.0,-127.68553924560547,-65.36865234375,34.1796875,-0.7392578125,0.692626953125,1.3043212890625
3.172,334,3147,2037,936,12.0,24.0,24.0,-87.34130096435547,-38.2080078125,-9.8876953125,-1.5223388671875,0.9727783203125,0.9864501953125
3.172,322,3147,2277,992,12.0,24.0,24.0,-87.34130096435547,-38.2080078125,-9.8876953125,-2.2962646484375,0.62060546875,0.6834716796875
3.174,324,3147,2296,999,12.0,24.0,24.0,-72.69287109375,-16.54052734375,-40.161128997802734,-2.2962646484375,0.62060546875,0.6834716796875
3.189,318,3147,2218,868,12.0,24.0,24.0,-51.940914154052734,-2.807616949081421,-62.805171966552734,-2.815673828125,-0.40673828125,0.153564453125
3.196,318,3147,2210,864,12.0,24.0,24.0,-51.940914154052734,-2.807616949081421,-62.805171966552734,-1.900634765625,-0.9844970703125,-0.02685546875
3.204,319,3147,2166,858,12.0,24.0,24.0,-24.230955123901367,7.019042491912842,-53.405757904052734,-1.900634765625,-0.9844970703125,-0.02685546875
3.218,328,3147,1900,856,12.0,21.0,21.0,62.988277435302734,-10.314940452575684,-5.554198741912842,-1.5557861328125,0.165283203125,0.2999267578125
3.231,323,3147,1936,838,12.0,21.0,21.0,62.988277435302734,-10.314940452575684,-5.554198741912842,-1.71240234375,0.505126953125,0.50341796875
3.234,323,3147,1855,799,12.0,21.0,21.0,46.020503997802734,-12.390135765075684,15.075682640075684,-1.71240234375,0.505126953125,0.50341796875
3.249,323,3147,1687,659,12.0,21.0,21.0,10.803221702575684,-1.8920897245407104,22.399900436401367,-1.4962158203125,0.453857421875,0.6746826171875
3.259,321,3147,1636,707,12.0,21.0,21.0,-13.366698265075684,8.544921875,18.798828125,-1.4962158203125,0.453857421875,0.6746826171875
3.275,321,3093,1543,687,12.0,21.0,21.0,-16.90673828125,16.7236328125,10.253905296325684,-1.3299560546875,0.323486328125,0.6124267578125
3.278,313,3147,1488,455,12.0,21.0,21.0,-5.065917491912842,26.367185592651367,2.50244140625,-1.12109375,0.193603515625,0.4525146484375
3.288,309,3071,1411,438,12.0,21.0,21.0,13.061522483825684,35.09521484375,-0.6713866591453552,-1.12109375,0.193603515625,0.4525146484375
3.294,308,2984,1351,411,12.0,21.0,21.0,28.869626998901367,39.794921875,-1.220703125,-0.98974609375,0.1873779296875,0.360595703125
3.308,306,2701,1178,370,13.0,26.0,23.0,39.0625,41.931148529052734,-2.44140625,-0.5570068359375,-0.0784912109375,0.1837158203125
3.317,306,2601,1109,348,13.0,26.0,23.0,48.217769622802734,42.785640716552734,-3.723144292831421,-0.5570068359375,-0.0784912109375,0.1837158203125
3.328,306,2435,1004,354,13.0,26.0,23.0,60.974117279052734,43.395992279052734,-4.8828125,-0.3436279296875,-0.2607421875,0.18798828125
3.338,299,1954,694,506,13.0,26.0,23.0,77.57568359375,46.325679779052734,-5.676269054412842,-0.21435546875,-0.3824462890625,0.210693359375
3.348,300,1912,644,514,13.0,26.0,23.0,95.82518768310547,48.950191497802734,-3.845214605331421,-0.21435546875,-0.3824462890625,0.210693359375
3.354,299,1978,731,399,13.0,26.0,23.0,109.31395721435547,47.302242279052734,1.3427733182907104,-0.2855224609375,-0.1990966796875,0.07861328125
3.377,294,1849,625,398,13.0,26.0,23.0,110.77880096435547,43.579097747802734,7.812499523162842,-0.401611328125,0.24658203125,-0.084716796875
3.377,292,1700,564,523,13.0,26.0,23.0,99.48729705810547,38.0859375,15.441893577575684,-0.401611328125,0.24658203125,-0.084716796875
3.384,287,1702,514,526,13.0,26.0,23.0,82.09227752685547,31.494138717651367,26.000974655151367,-0.5130615234375,0.3687744140625,-0.03662109375
3.399,291,1785,458,487,13.0,26.0,23.0,65.73486328125,28.625486373901367,38.02490234375,-0.71728515625,0.30517578125,0.0006103515625
3.406,291,1882,508,487,8.0,22.0,29.0,51.940914154052734,31.005857467651367,45.349117279052734,-0.71728515625,0.30517578125,0.0006103515625
3.414,289,1877,482,532,8.0,22.0,29.0,41.381832122802734,33.38623046875,44.372554779052734,-0.8026123046875,0.311279296875,-0.01318359375
3.428,282,1936,441,509,8.0,22.0,29.0,35.09521484375,29.602048873901367,36.56005859375,-0.810791015625,0.376953125,-0.01220703125
3.451,289,2026,512,517,8.0,22.0,29.0,30.212400436401367,19.8974609375,24.169919967651367,-0.810791015625,0.376953125,-0.01220703125
3.451,275,2180,540,497,8.0,22.0,29.0,24.780271530151367,8.36181640625,11.047362327575684,-0.80078125,0.333251953125,0.0631103515625
3.458,290,2156,495,482,8.0,22.0,29.0,20.996091842651367,-0.0610351525247097,2.685546636581421,-0.8338623046875,0.326904296875,0.136962890625
3.479,289,2176,519,540,8.0,22.0,29.0,15.991209983825684,-3.662109136581421,-0.7934569716453552,-0.898681640625,0.342041015625,0.1650390625
3.479,292,2268,551,481,8.0,22.0,29.0,7.690429210662842,-7.751464366912842,-4.39453125,-0.955078125,0.3455810546875,0.1463623046875
3.488,291,2210,462,590,8.0,22.0,29.0,-1.03759765625,-17.39501953125,-11.901854515075684,-0.9815673828125,0.298828125,0.100341796875
3.496,291,2235,531,683,8.0,22.0,29.0,-6.408690929412842,-30.883787155151367,-22.583005905151367,-0.9757080078125,0.1923828125,0.0435791015625
3.504,296,2372,713,624,10.0,24.0,23.0,-8.056640625,-41.320796966552734,-30.273435592651367,-0.9013671875,0.102294921875,-0.0355224609375
3.518,310,2848,1129,376,10.0,24.0,23.0,-11.962889671325684,-45.410152435302734,-31.738279342651367,-0.663818359375,0.1160888671875,-0.1497802734375
3.526,313,2912,1472,437,10.0,24.0,23.0,-27.832029342651367,-46.508785247802734,-33.935546875,-0.323974609375,0.0938720703125,-0.3287353515625
3.535,321,3003,1607,590,10.0,24.0,23.0,-62.316890716552734,-46.630855560302734,-41.381832122802734,-0.0789794921875,-0.121826171875,-0.5426025390625
3.557,315,3147,1798,482,10.0,24.0,23.0,-105.83495330810547,-43.395992279052734,-41.809078216552734,0.015380859375,-0.3023681640625,-0.6524658203125
3.557,327,3147,1877,652,10.0,24.0,23.0,-131.77490234375,-35.0341796875,-25.756834030151367,-0.0802001953125,-0.1949462890625,-0.5726318359375
3.583,328,3147,1997,725,10.0,24.0,23.0,-132.568359375,-28.747556686401367,-7.141112804412842,-0.3753662109375,0.1103515625,-0.131591796875
3.584,329,3147,2186,853,10.0,24.0,23.0,-137.63427734375,-40.161128997802734,0.1831054538488388,-0.5579833984375,0.25927734375,0.6859130859375
3.586,330,3147,2183,905,10.0,24.0,23.0,-161.68211364746094,-64.8193359375,2.929687261581421,-0.550048828125,0.3018798828125,1.313232421875
3.599,332,3147,2299,963,10.0,24.0,23.0,-175.90330505371094,-77.20947265625,8.30078125,-0.696533203125,0.5955810546875,1.3734130859375
3.608,338,3147,2178,1079,16.0,23.0,17.0,-163.69627380371094,-67.81005859375,10.803221702575684,-1.1424560546875,0.7039794921875,1.156005859375
3.617,324,3147,2443,1123,16.0,23.0,17.0,-130.126953125,-44.433589935302734,1.9531248807907104,-1.7935791015625,0.29248046875,1.0003662109375
3.624,344,3147,2183,1172,16.0,23.0,17.0,-81.66503143310547,-21.301267623901367,-15.686034202575684,-2.517578125,-0.00146484375,0.8756103515625
3.638,356,3147,1943,1045,16.0,23.0,17.0,-38.0859375,-8.85009765625,-26.367185592651367,-3.0294189453125,0.062255859375,0.580322265625
3.646,351,3147,2019,1118,16.0,23.0,17.0,-10.253905296325684,0.6103515625,-25.451658248901367,-2.6302490234375,-0.2012939453125,0.1895751953125
3.657,347,3147,2023,1098,16.0,23.0,17.0,24.780271530151367,12.023924827575684,-21.911619186401367,-1.712890625,-0.4771728515625,0.0914306640625
3.684,328,3147,2263,987,16.0,23.0,17.0,67.19970703125,13.122557640075684,-14.892577171325684,-1.396240234375,-0.1451416015625,0.218994140625
3.684,318,3147,2308,921,16.0,23.0,17.0,78.43017578125,7.629394054412842,-1.5258787870407104,-1.5986328125,0.30126953125,0.2762451171875
3.685,302,3147,2261,874,16.0,23.0,17.0,52.551265716552734,7.812499523162842,10.559081077575684,-1.7547607421875,0.4732666015625,0.33984375
3.699,318,3147,2144,766,16.0,23.0,17.0,16.78466796875,8.30078125,16.17431640625,-1.6778564453125,0.414794921875,0.4534912109375
3.708,321,3147,1809,761,13.0,23.0,16.0,-7.507323741912842,7.324218273162842,17.15087890625,-1.4964599609375,0.267333984375,0.5264892578125
3.714,323,3147,1727,735,13.0,23.0,16.0,-15.686034202575684,10.620116233825684,16.6015625,-1.3218994140625,0.1328125,0.5296630859375
3.728,318,3147,1600,582,13.0,23.0,16.0,-10.986327171325684,19.1650390625,16.05224609375,-1.2078857421875,0.16357421875,0.4849853515625
3.736,321,2820,1365,899,13.0,23.0,16.0,0.9155272841453552,26.794431686401367,14.404295921325684,-1.1346435546875,0.3094482421875,0.3931884765625
3.744,312,2702,1231,678,13.0,23.0,16.0,12.695311546325684,29.602048873901367,9.27734375,-1.023681640625,0.33740234375,0.2840576171875
3.764,306,2581,1078,619,13.0,23.0,16.0,21.606443405151367,29.663084030151367,2.25830078125,-0.852294921875,0.22607421875,0.2044677734375
3.767,307,2473,1107,654,13.0,23.0,16.0,30.151365280151367,28.747556686401367,-2.990722417831421,-0.6376953125,0.0528564453125,0.185791015625
3.785,306,2484,1091,473,13.0,23.0,16.0,40.10009765625,28.808591842651367,-6.347655773162842,-0.38671875,-0.22412109375,0.228271484375
3.788,302,2131,890,441,13.0,23.0,16.0,53.527828216552734,32.53173828125,-8.36181640625,-0.181640625,-0.45849609375,0.2923583984375
3.796,304,2178,922,376,13.0,23.0,16.0,71.533203125,38.02490234375,-7.507323741912842,-0.121826171875,-0.4736328125,0.302490234375
3.804,302,2012,803,433,12.0,23.0,24.0,87.89061737060547,43.090816497802734,-3.540038824081421,-0.19140625,-0.3466796875,0.21875
3.818,308,1951,766,348,12.0,23.0,24.0,95.15380096435547,46.203609466552734,4.45556640625,-0.317626953125,-0.107666015625,0.093994140625
3.826,296,1787,711,490,12.0,23.0,24.0,88.62303924560547,42.175289154052734,18.12744140625,-0.4268798828125,0.1806640625,0.0068359375
3.834,302,1945,735,348,12.0,23.0,24.0,68.17626953125,31.982419967651367,33.87451171875,-0.4986572265625,0.3306884765625,-0.0166015625
3.848,296,1880,630,468,12.0,23.0,24.0,44.189449310302734,22.705076217651367,44.799800872802734,-0.5684814453125,0.315673828125,-0.0089111328125
3.856,293,1918,639,519,12.0,23.0,24.0,29.479978561401367,17.39501953125,47.546382904052734,-0.65576171875,0.2882080078125,0.0052490234375
3.869,294,1960,590,552,12.0,23.0,24.0,28.198240280151367,14.038084983825684,43.090816497802734,-0.7413330078125,0.328369140625,0.0179443359375
3.893,294,1997,607,506,12.0,23.0,24.0,34.423828125,10.803221702575684,33.447265625,-0.7967529296875,0.38330078125,0.0318603515625
3.894,294,2024,642,573,12.0,23.0,24.0,37.78076171875,6.958007335662842,22.460935592651367,-0.809326171875,0.3966064453125,0.07080078125
3.894,293,2076,656,543,12.0,23.0,24.0,32.65380859375,2.01416015625,13.793944358825684,-0.7896728515625,0.3662109375,0.1219482421875
3.908,296,2183,648,553,8.0,23.0,22.0,22.338865280151367,-3.173827886581421,7.507323741912842,-0.762939453125,0.3052978515625,0.1439208984375
3.916,299,2268,740,601,8.0,23.0,22.0,11.596678733825684,-8.23974609375,2.197265625,-0.743408203125,0.232177734375,0.1204833984375
3.925,302,2386,818,579,8.0,23.0,22.0,11.596678733825684,-8.23974609375,2.197265625,-0.7333984375,0.1868896484375,0.055908203125
3.938,308,2590,971,507,8.0,23.0,22.0,-4.82177734375,-20.935056686401367,-8.4228515625,-0.7235107421875,0.180419921875,-0.032958984375
3.946,309,2703,1153,558,8.0,23.0,22.0,-14.160155296325684,-26.733396530151367,-13.793944358825684,-0.6953125,0.174072265625,-0.1239013671875
3.954,311,2981,1366,386,8.0,23.0,22.0,-14.160155296325684,-26.733396530151367,-13.793944358825684,-0.6319580078125,0.147216796875,-0.1923828125
3.968,316,3147,1557,377,8.0,23.0,22.0,-38.330078125,-27.954099655151367,-18.37158203125,-0.5128173828125,0.0968017578125,-0.242919921875
3.979,314,3147,1629,424,8.0,23.0,22.0,-48.156734466552734,-23.986814498901367,-17.9443359375,-0.354736328125,-0.0115966796875,-0.32763671875
3.991,315,3147,1700,548,8.0,23.0,22.0,-48.156734466552734,-23.986814498901367,-17.9443359375,-0.249267578125,-0.12646484375,-0.3946533203125
4.004,317,3147,1892,765,11.0,23.0,25.0,-40.0390625,-22.705076217651367,-18.00537109375,-0.372802734375,0.00244140625,-0.3026123046875
4.008,316,3147,2111,859,11.0,23.0,25.0,-35.82763671875,-36.80419921875,-17.2119140625,-0.622314453125,0.325439453125,0.119140625
4.014,323,3147,2128,946,11.0,23.0,25.0,-35.82763671875,-36.80419921875,-17.2119140625,-0.7633056640625,0.5806884765625,0.717041015625
4.028,327,3147,2217,1053,11.0,23.0,25.0,-112.48778533935547,-71.044921875,-5.065917491912842,-0.9022216796875,0.786376953125,1.078369140625
4.036,324,3147,2472,316,11.0,23.0,25.0,-144.59228515625,-66.2841796875,-2.868652105331421,-1.116943359375,0.5985107421875,1.1932373046875
4.044,323,3147,2449,1148,11.0,23.0,25.0,-144.59228515625,-66.2841796875,-2.868652105331421,-1.5,0.0078125,1.17919921875
4.058,331,3147,2422,1206,11.0,23.0,25.0,-89.66063690185547,-21.911619186401367,-24.719236373901367,-2.0616455078125,-0.235595703125,0.92822265625
4.066,347,3147,2367,1224,11.0,23.0,25.0,-32.16552734375,-2.807616949081421,-32.2265625,-2.5531005859375,-0.0069580078125,0.4713134765625
4.081,346,3147,2160,1129,11.0,23.0,25.0,-32.16552734375,-2.807616949081421,-32.2265625,-2.57666015625,0.090576171875,0.0875244140625
4.094,382,3130,1748,1191,11.0,23.0,25.0,16.54052734375,8.60595703125,-22.521970748901367,-1.923828125,-0.1815185546875,0.087890625
4.097,324,3147,2210,1122,15.0,22.0,22.0,36.4990234375,5.187987804412842,-13.366698265075684,-1.410400390625,-0.1451416015625,0.3592529296875
4.104,354,3147,1918,1120,15.0,22.0,22.0,36.4990234375,5.187987804412842,-13.366698265075684,-1.5546875,0.24365234375,0.492431640625
4.119,343,3147,1813,1042,15.0,22.0,22.0,35.70556640625,2.746581792831421,8.60595703125,-1.8006591796875,0.4366455078125,0.4981689453125
4.126,337,3147,1837,1009,15.0,22.0,22.0,14.404295921325684,10.925292015075684,12.023924827575684,-1.7830810546875,0.4273681640625,0.560791015625
4.134,334,3147,1766,951,15.0,22.0,22.0,14.404295921325684,10.925292015075684,12.023924827575684,-1.5858154296875,0.3175048828125,0.603759765625
4.148,327,3147,1608,806,15.0,22.0,22.0,3.845214605331421,21.179197311401367,6.530761241912842,-1.3800048828125,0.20361328125,0.537353515625
4.156,324,3147,1653,759,15.0,22.0,22.0,3.845214605331421,21.179197311401367,6.530761241912842,-1.23388671875,0.2169189453125,0.4149169921875
4.164,334,2803,1236,1108,15.0,22.0,22.0,10.131834983825684,30.517576217651367,4.150390625,-1.23388671875,0.2169189453125,0.4149169921875
4.196,324,2833,1175,780,15.0,22.0,22.0,11.596678733825684,39.73388671875,2.25830078125,-0.946044921875,0.267822265625,0.197998046875
4.197,322,2708,1117,761,15.0,22.0,22.0,11.596678733825684,39.73388671875,2.25830078125,-0.761962890625,0.07861328125,0.1583251953125
4.197,324,2493,1155,897,12.0,23.0,21.0,8.9111328125,38.2080078125,-0.2441406100988388,-0.761962890625,0.07861328125,0.1583251953125
4.208,313,2471,951,619,12.0,23.0,21.0,36.2548828125,35.400390625,-6.530761241912842,-0.4046630859375,-0.3375244140625,0.22607421875
4.216,306,2379,951,487,12.0,23.0,21.0,36.2548828125,35.400390625,-6.530761241912842,-0.2889404296875,-0.4224853515625,0.2554931640625
4.229,304,2091,788,706,12.0,23.0,21.0,59.143062591552734,35.5224609375,-8.1787109375,-0.2889404296875,-0.4224853515625,0.2554931640625
4.238,296,1750,619,684,12.0,23.0,21.0,86.12059783935547,38.14697265625,-0.6713866591453552,-0.3419189453125,-0.244873046875,0.1455078125
4.246,294,1568,578,710,12.0,23.0,21.0,86.12059783935547,38.14697265625,-0.6713866591453552,-0.438720703125,0.00390625,0.0467529296875
4.255,290,1467,598,634,12.0,23.0,21.0,88.25682830810547,37.841796875,5.920409679412842,-0.438720703125,0.00390625,0.0467529296875
4.270,289,1464,591,416,12.0,23.0,21.0,66.46728515625,31.311033248901367,23.498533248901367,-0.5546875,0.3778076171875,-0.05712890625
4.276,295,1483,648,388,12.0,23.0,21.0,66.46728515625,31.311033248901367,23.498533248901367,-0.6171875,0.412353515625,-0.073486328125
4.302,286,1372,572,541,12.0,23.0,21.0,52.917476654052734,29.907224655151367,28.869626998901367,-0.6171875,0.412353515625,-0.073486328125
4.303,289,1480,543,533,8.0,23.0,26.0,30.151365280151367,22.766111373901367,29.602048873901367,-0.6787109375,0.3338623046875,-0.040771484375
4.306,286,1528,607,567,8.0,23.0,26.0,30.151365280151367,22.766111373901367,29.602048873901367,-0.7333984375,0.32373046875,-0.005126953125
4.316,292,1650,572,579,8.0,23.0,26.0,27.160642623901367,16.4794921875,23.559568405151367,-0.7333984375,0.32373046875,-0.005126953125
4.328,289,1761,555,533,8.0,23.0,26.0,22.155759811401367,1.3427733182907104,8.48388671875,-0.7711181640625,0.303955078125,0.0802001953125
4.342,291,1819,603,537,8.0,23.0,26.0,22.155759811401367,1.3427733182907104,8.48388671875,-0.75927734375,0.257568359375,0.103515625
4.345,294,1891,620,621,8.0,23.0,26.0,15.197752952575684,-3.479003667831421,1.8310545682907104,-0.75927734375,0.257568359375,0.103515625
4.358,294,1974,594,614,8.0,23.0,26.0,0.54931640625,-10.986327171325684,-5.0048828125,-0.7760009765625,0.2042236328125,0.0870361328125
4.366,296,2076,683,666,8.0,23.0,26.0,0.54931640625,-10.986327171325684,-5.0048828125,-0.7869873046875,0.158447265625,0.081787109375
4.374,300,2134,707,692,8.0,23.0,26.0,-7.934569835662842,-14.160155296325684,-5.798339366912842,-0.7869873046875,0.158447265625,0.081787109375
4.408,302,2284,782,645,10.0,26.0,19.0,-16.6015625,-18.1884765625,-5.920409679412842,-0.78173828125,0.091796875,0.031982421875
4.409,313,2374,934,778,10.0,26.0,19.0,-23.620603561401367,-21.911619186401367,-5.493163585662842,-0.78173828125,0.091796875,0.031982421875
4.409,318,2601,1066,695,10.0,26.0,19.0,-29.235837936401367,-24.291990280151367,-5.859374523162842,-0.7454833984375,0.068603515625,-0.06884765625
4.440,318,2721,1255,584,10.0,26.0,19.0,-36.2548828125,-25.573728561401367,-8.9111328125,-0.455078125,-0.0457763671875,-0.31689453125
4.450,316,3056,1561,512,10.0,26.0,19.0,-46.020503997802734,-25.573728561401367,-12.451170921325684,-0.455078125,-0.0457763671875,-0.31689453125
4.451,313,3147,1715,315,10.0,26.0,19.0,-57.373043060302734,-23.864744186401367,-13.366698265075684,-0.271484375,-0.0439453125,-0.4658203125
4.454,315,3147,1889,695,10.0,26.0,19.0,-67.81005859375,-21.972654342651367,-10.559081077575684,-0.387939453125,0.1953125,-0.21826171875
4.457,316,3147,1981,785,10.0,26.0,19.0,-78.2470703125,-27.343748092651367,-6.469726085662842,-0.387939453125,0.1953125,-0.21826171875
4.467,318,3147,2076,894,10.0,26.0,19.0,-95.03173065185547,-46.447750091552734,-4.638671875,-0.5118408203125,0.23876953125,0.5205078125
4.478,324,3147,2220,1014,10.0,26.0,19.0,-112.06053924560547,-67.5048828125,-3.540038824081421,-0.843505859375,0.575439453125,1.435546875
4.509,323,3147,2247,1092,15.0,21.0,16.0,-112.54882049560547,-72.44873046875,-0.2441406100988388,-0.843505859375,0.575439453125,1.435546875
4.509,328,3147,2293,1131,15.0,21.0,16.0,-101.80663299560547,-57.067867279052734,0.1220703050494194,-1.264892578125,0.69189453125,1.2645263671875
4.510,328,3147,2299,1198,15.0,21.0,16.0,-87.40233612060547,-26.733396530151367,-9.94873046875,-2.4461669921875,0.19775390625,0.36328125
4.518,327,3147,2419,1204,15.0,21.0,16.0,-65.7958984375,0.2441406100988388,-27.648923873901367,-2.4461669921875,0.19775390625,0.36328125
4.524,324,3147,2334,1112,15.0,21.0,16.0,-43.151851654052734,7.812499523162842,-40.405269622802734,-2.802490234375,0.125,0.0101318359375
4.538,324,3147,2213,1093,15.0,21.0,16.0,-24.108884811401367,-0.2441406100988388,-41.564937591552734,-1.673095703125,-0.48779296875,0.2479248046875
4.546,324,3147,2221,1093,15.0,21.0,16.0,2.25830078125,-8.056640625,-35.46142578125,-1.673095703125,-0.48779296875,0.2479248046875
4.554,323,3147,2127,1078,15.0,21.0,16.0,38.14697265625,-8.6669921875,-23.010251998901367,-1.3333740234375,-0.267578125,0.6339111328125
4.568,323,3147,1908,1009,15.0,21.0,16.0,51.208492279052734,-1.3427733182907104,-3.417968511581421,-1.8868408203125,0.3714599609375,0.73486328125
4.578,321,3147,1855,946,15.0,21.0,16.0,32.65380859375,16.54052734375,14.465331077575684,-1.8868408203125,0.3714599609375,0.73486328125
4.584,319,3147,1755,871,12.0,22.0,25.0,13.854979515075684,31.677244186401367,22.277830123901367,-1.8587646484375,0.3834228515625,0.673583984375
4.603,315,3147,1561,726,12.0,22.0,25.0,11.779784202575684,34.7900390625,21.545408248901367,-1.6392822265625,0.2750244140625,0.5546875
4.606,314,3147,1529,658,12.0,22.0,25.0,23.742673873901367,34.48486328125,17.76123046875,-1.4061279296875,0.2003173828125,0.3973388671875
4.614,309,3147,1442,591,12.0,22.0,25.0,40.10009765625,36.92626953125,14.770506858825684,-1.2357177734375,0.3050537109375,0.2568359375
4.628,308,3045,1224,497,12.0,22.0,25.0,49.194332122802734,39.6728515625,11.596678733825684,-1.0784912109375,0.3994140625,0.148193359375
4.640,306,2874,1185,512,12.0,22.0,25.0,48.400875091552734,40.405269622802734,5.310058116912842,-0.8828125,0.30078125,0.0789794921875
4.645,306,2700,1129,481,12.0,22.0,25.0,44.921871185302734,39.4287109375,-3.112792730331421,-0.63525390625,0.076171875,0.0716552734375
4.658,304,2233,799,548,12.0,22.0,25.0,45.288082122802734,38.330078125,-11.230467796325684,-0.35400390625,-0.2340087890625,0.13134765625
4.666,300,2058,785,591,12.0,22.0,25.0,53.588863372802734,38.63525390625,-15.930174827575684,-0.150390625,-0.47021484375,0.219970703125
4.682,296,1902,738,525,12.0,22.0,25.0,67.93212890625,37.841796875,-14.831542015075684,-0.1175537109375,-0.505126953125,0.2476806640625
4.688,294,1584,668,376,12.0,22.0,22.0,81.35985565185547,36.43798828125,-9.82666015625,-0.2218017578125,-0.3638916015625,0.152587890625
4.707,290,1362,601,473,12.0,22.0,22.0,88.01268768310547,37.17041015625,-1.7089842557907104,-0.33349609375,-0.1038818359375,0.0242919921875
4.708,289,1222,577,487,12.0,22.0,22.0,85.81542205810547,37.29248046875,9.70458984375,-0.424072265625,0.1790771484375,-0.066650390625
4.721,289,1170,548,439,12.0,22.0,22.0,73.54736328125,34.5458984375,22.338865280151367,-0.531005859375,0.3724365234375,-0.1126708984375
4.727,289,1233,571,458,12.0,22.0,22.0,52.368160247802734,29.418943405151367,32.28759765625,-0.61083984375,0.3880615234375,-0.082763671875
4.735,291,1251,572,438,12.0,22.0,22.0,32.1044921875,23.315427780151367,36.68212890625,-0.65771484375,0.3045654296875,-0.014404296875
4.748,290,1366,539,442,12.0,22.0,22.0,24.536130905151367,17.578125,34.5458984375,-0.7166748046875,0.2633056640625,0.0281982421875
4.756,291,1430,567,496,12.0,22.0,22.0,28.808591842651367,12.390135765075684,26.977537155151367,-0.8057861328125,0.2926025390625,0.0281982421875
4.764,289,1490,568,493,12.0,22.0,22.0,35.5224609375,7.446288585662842,16.845703125,-0.879150390625,0.33447265625,0.0233154296875
4.778,291,1607,576,469,9.0,28.0,23.0,37.353515625,2.25830078125,6.774901866912842,-0.8897705078125,0.3331298828125,0.044921875
4.809,292,1675,614,506,9.0,28.0,23.0,33.02001953125,-2.868652105331421,-0.54931640625,-0.871826171875,0.2850341796875,0.0677490234375
4.810,282,1801,607,465,9.0,28.0,23.0,25.268552780151367,-7.263183116912842,-3.234863042831421,-0.876953125,0.229736328125,0.060546875
4.810,292,1830,601,497,9.0,28.0,23.0,17.02880859375,-10.681151390075684,-2.197265625,-0.9080810546875,0.200439453125,0.0364990234375
4.816,292,1878,619,568,9.0,28.0,23.0,8.7890625,-13.610838890075684,-0.1831054538488388,-0.9423828125,0.2017822265625,0.0289306640625
4.829,291,1881,607,607,9.0,28.0,23.0,0.30517578125,-16.54052734375,0.7324218153953552,-0.9560546875,0.2257080078125,0.0341796875
4.838,293,2041,661,522,9.0,28.0,23.0,-8.36181640625,-19.4091796875,-0.0610351525247097,-0.94677734375,0.2559814453125,0.0377197265625
4.846,298,2087,737,579,9.0,28.0,23.0,-17.7001953125,-21.972654342651367,-2.50244140625,-0.915283203125,0.251708984375,0.046142578125
4.854,299,2153,785,601,9.0,28.0,23.0,-27.648923873901367,-24.414060592651367,-6.347655773162842,-0.8563232421875,0.1817626953125,0.0565185546875
4.868,300,2253,808,567,9.0,28.0,23.0,-35.33935546875,-25.939939498901367,-9.3994140625,-0.8043212890625,0.0809326171875,0.0457763671875
4.876,300,2306,897,644,11.0,22.0,16.0,-37.41455078125,-26.062009811401367,-8.97216796875,-0.7886962890625,0.0135498046875,0.0078125
4.886,313,2370,864,746,11.0,22.0,16.0,-34.0576171875,-26.123044967651367,-5.371093273162842,-0.785400390625,0.001220703125,-0.0325927734375
4.939,313,2552,1117,592,11.0,22.0,16.0,-29.418943405151367,-27.770994186401367,-1.4648436307907104,-0.7415771484375,0.0186767578125,-0.0614013671875
4.939,316,2584,1361,614,11.0,22.0,16.0,-30.456541061401367,-30.883787155151367,0.0,-0.6107177734375,0.0234375,-0.1007080078125
4.940,316,2701,1382,588,11.0,22.0,16.0,-40.283199310302734,-33.14208984375,-1.5869139432907104,-0.4100341796875,0.0185546875,-0.176025390625
4.941,316,3057,1534,591,11.0,22.0,16.0,-54.626461029052734,-33.935546875,-4.150390625,-0.2578125,0.0733642578125,-0.230224609375
4.943,318,3147,1850,439,11.0,22.0,16.0,-68.7255859375,-37.2314453125,-5.554198741912842,-0.2586669921875,0.2054443359375,-0.146728515625
4.963,327,3147,1844,594,11.0,22.0,16.0,-82.21434783935547,-46.203609466552734,-5.798339366912842,-0.3563232421875,0.2752685546875,0.137451171875
4.965,318,3147,2100,735,11.0,22.0,16.0,-92.95653533935547,-57.739253997802734,-5.920409679412842,-0.4466552734375,0.2022705078125,0.602294921875
4.969,316,3147,2215,790,11.0,22.0,16.0,-92.95653533935547,-65.0634765625,-4.21142578125,-0.599853515625,0.2784423828125,1.0145263671875
4.983,317,3147,2290,890,12.0,23.0,25.0,-85.08300018310547,-62.377925872802734,-1.3427733182907104,-0.8748779296875,0.5120849609375,1.141357421875
4.989,330,3147,2384,1012,12.0,23.0,25.0,-81.35985565185547,-48.645015716552734,-4.2724609375,-1.193603515625,0.5177001953125,1.0181884765625
5.023,356,3147,2190,1108,12.0,23.0,25.0,-80.62743377685547,-27.954099655151367,-13.305663108825684,-1.5919189453125,0.2371826171875,0.6947021484375
5.023,351,3147,1931,1129,12.0,23.0,25.0,-69.39697265625,-8.4228515625,-21.179197311401367,-2.086669921875,0.046142578125,0.2808837890625
5.024,359,3147,2012,1143,12.0,23.0,25.0,-47.790523529052734,-1.4038084745407104,-25.207517623901367,-2.456787109375,0.0552978515625,0.0252685546875
5.029,355,3147,2091,1056,12.0,23.0,25.0,-27.893064498901367,-8.9111328125,-25.268552780151367,-2.4945068359375,0.041259765625,0.029541015625
5.040,348,3136,1925,1182,12.0,23.0,25.0,-11.840819358825684,-19.47021484375,-21.423337936401367,-1.93994140625,-0.1646728515625,0.2630615234375
5.049,351,3147,1952,1034,12.0,23.0,25.0,13.000487327575684,-19.53125,-14.709471702575684,-1.1341552734375,-0.3321533203125,0.65869140625
5.058,364,3145,1830,1173,12.0,23.0,25.0,45.166011810302734,-7.263183116912842,-5.310058116912842,-0.9957275390625,-0.0509033203125,0.89306640625
5.065,361,3121,1773,1170,12.0,23.0,25.0,54.260250091552734,10.559081077575684,6.591796398162842,-1.4852294921875,0.3875732421875,0.736328125
5.080,352,3110,1583,963,13.0,21.0,21.0,31.066892623901367,27.832029342651367,15.686034202575684,-1.88427734375,0.5892333984375,0.472412109375
5.089,332,3147,1747,999,13.0,21.0,21.0,1.4648436307907104,35.09521484375,17.02880859375,-1.9044189453125,0.5164794921875,0.373779296875
5.095,318,3147,1810,780,13.0,21.0,21.0,-13.305663108825684,30.883787155151367,13.366698265075684,-1.714599609375,0.279296875,0.3763427734375
5.115,323,3014,1289,853,13.0,21.0,21.0,-8.23974609375,24.963376998901367,9.94873046875,-1.516357421875,0.0670166015625,0.3892822265625
5.117,331,2874,1310,978,13.0,21.0,21.0,9.765625,24.963376998901367,8.97216796875,-1.380615234375,0.0804443359375,0.39892578125
5.131,321,2898,1306,801,13.0,21.0,21.0,28.625486373901367,29.235837936401367,9.33837890625,-1.2557373046875,0.24365234375,0.378662109375
5.146,316,2709,1153,744,13.0,21.0,21.0,39.9169921875,34.0576171875,7.568358898162842,-1.06201171875,0.2547607421875,0.3076171875
5.147,316,2359,944,867,13.0,21.0,21.0,46.630855560302734,37.90283203125,2.563476324081421,-0.8223876953125,0.0977783203125,0.2196044921875
5.155,324,2131,922,820,13.0,21.0,21.0,55.297847747802734,38.4521484375,-2.929687261581421,-0.5533447265625,-0.1209716796875,0.1859130859375
5.169,305,1985,733,644,13.0,21.0,21.0,66.2841796875,37.65869140625,-6.347655773162842,-0.3040771484375,-0.3240966796875,0.2091064453125
5.177,300,1826,706,683,12.0,22.0,24.0,78.7353515625,38.39111328125,-6.347655773162842,-0.1558837890625,-0.4005126953125,0.2445068359375
5.186,296,1611,636,695,12.0,22.0,24.0,78.7353515625,38.39111328125,-6.347655773162842,-0.139404296875,-0.3427734375,0.1961669921875
5.199,289,1341,543,582,12.0,22.0,24.0,94.48241424560547,38.2080078125,-1.8920897245407104,-0.203857421875,-0.1739501953125,0.0504150390625
5.219,282,1243,539,618,12.0,22.0,24.0,91.24755096435547,38.02490234375,3.417968511581421,-0.26171875,0.0389404296875,-0.09619140625
5.220,280,1155,512,630,12.0,22.0,24.0,91.24755096435547,38.02490234375,3.417968511581421,-0.3533935546875,0.233154296875,-0.2130126953125
5.229,279,1204,505,600,12.0,22.0,24.0,66.71142578125,30.212400436401367,22.888181686401367,-0.4873046875,0.353271484375,-0.24609375
5.237,281,1326,531,617,12.0,22.0,24.0,46.569820404052734,20.507810592651367,33.63037109375,-0.5970458984375,0.360107421875,-0.171875
5.245,282,1434,531,667,12.0,22.0,24.0,46.569820404052734,20.507810592651367,33.63037109375,-0.6837158203125,0.3358154296875,-0.063720703125
5.259,280,1569,506,578,12.0,22.0,24.0,20.385740280151367,4.0283203125,34.72900390625,-0.7540283203125,0.3634033203125,0.023193359375
5.267,280,1627,536,654,12.0,22.0,24.0,17.333984375,-1.5869139432907104,25.024412155151367,-0.7681884765625,0.3948974609375,0.0955810546875
5.275,289,1664,531,660,5.0,25.0,25.0,17.333984375,-1.5869139432907104,25.024412155151367,-0.7398681640625,0.3543701171875,0.1485595703125
5.289,292,1787,527,614,5.0,25.0,25.0,5.798339366912842,-10.742186546325684,2.685546636581421,-0.7264404296875,0.28857421875,0.1617431640625
5.297,294,1975,654,634,5.0,25.0,25.0,-1.8920897245407104,-13.610838890075684,-4.39453125,-0.7392578125,0.260009765625,0.142822265625
5.320,298,1973,667,705,5.0,25.0,25.0,-1.8920897245407104,-13.610838890075684,-4.39453125,-0.7822265625,0.2603759765625,0.09814453125
5.321,304,2089,683,666,5.0,25.0,25.0,-18.61572265625,-17.2119140625,-6.164550304412842,-0.837890625,0.2113037109375,0.060302734375
5.328,306,2143,780,763,5.0,25.0,25.0,-28.259275436401367,-20.446775436401367,-4.8828125,-0.8707275390625,0.0966796875,0.0526123046875
5.336,313,2202,842,778,5.0,25.0,25.0,-28.259275436401367,-20.446775436401367,-4.8828125,-0.8922119140625,-0.0025634765625,0.0384521484375
5.355,330,2174,828,859,5.0,25.0,25.0,-36.1328125,-24.841306686401367,-2.624511480331421,-0.8961181640625,-0.05078125,0.0
5.357,334,2432,878,912,5.0,25.0,25.0,-35.70556640625,-22.521970748901367,-2.990722417831421,-0.8223876953125,-0.043212890625,-0.0382080078125
5.365,347,2320,1097,1010,5.0,25.0,25.0,-35.70556640625,-22.521970748901367,-2.990722417831421,-0.64208984375,-0.0068359375,-0.1068115234375
5.379,344,2559,1131,917,11.0,23.0,25.0,-43.579097747802734,-15.075682640075684,-3.967284917831421,-0.420166015625,-0.0030517578125,-0.2384033203125
5.387,343,2912,1276,1050,11.0,23.0,25.0,-52.062984466552734,-13.366698265075684,-1.3427733182907104,-0.2435302734375,-0.0301513671875,-0.3575439453125
5.396,323,3147,1721,632,11.0,23.0,25.0,-52.062984466552734,-13.366698265075684,-1.3427733182907104,-0.2435302734375,-0.0301513671875,-0.3575439453125
5.423,328,3147,1709,754,11.0,23.0,25.0,-67.93212890625,-31.616209030151367,8.30078125,-0.3026123046875,0.1800537109375,0.15625
5.424,361,2919,1659,1137,11.0,23.0,25.0,-67.93212890625,-31.616209030151367,8.30078125,-0.4666748046875,0.390625,0.7574462890625
5.426,342,3147,2122,910,11.0,23.0,25.0,-81.23778533935547,-51.696773529052734,11.657713890075684,-0.4666748046875,0.390625,0.7574462890625
5.440,346,3147,2118,989,11.0,23.0,25.0,-98.75487518310547,-67.81005859375,9.94873046875,-1.08984375,1.092529296875,1.035888671875
5.447,344,3147,2135,1048,11.0,23.0,25.0,-98.75487518310547,-67.81005859375,9.94873046875,-1.4625244140625,0.6859130859375,0.909912109375
5.455,338,3147,2233,1097,11.0,23.0,25.0,-102.23387908935547,-57.312007904052734,-7.080077648162842,-1.4625244140625,0.6859130859375,0.909912109375
5.473,344,3147,2280,1148,14.0,22.0,21.0,-65.61279296875,-15.808104515075684,-46.386714935302734,-2.5648193359375,0.009765625,0.5008544921875
5.478,327,3147,2306,1095,14.0,22.0,21.0,-65.61279296875,-15.808104515075684,-46.386714935302734,-2.727783203125,-0.027587890625,0.295166015625
5.486,338,3147,2178,1056,14.0,22.0,21.0,-44.067378997802734,-8.97216796875,-48.889156341552734,-2.727783203125,-0.027587890625,0.295166015625
5.501,336,3147,2024,1038,14.0,22.0,21.0,10.131834983825684,7.141112804412842,-25.573728561401367,-1.17724609375,-0.757080078125,0.3802490234375
5.507,338,3147,2018,1055,14.0,22.0,21.0,10.131834983825684,7.141112804412842,-25.573728561401367,-1.0408935546875,-0.3253173828125,0.5396728515625
5.526,338,3147,1985,1047,14.0,22.0,21.0,60.119625091552734,8.056640625,-5.249022960662842,-1.0408935546875,-0.3253173828125,0.5396728515625
5.529,336,3147,1830,984,14.0,22.0,21.0,54.748531341552734,14.160155296325684,29.785154342651367,-1.7891845703125,0.81591796875,0.29638671875
5.537,332,3147,1905,942,14.0,22.0,21.0,54.748531341552734,14.160155296325684,29.785154342651367,-1.8162841796875,0.837890625,0.3194580078125
5.545,327,3147,1808,900,14.0,22.0,21.0,11.108397483825684,16.05224609375,28.381345748901367,-1.8162841796875,0.837890625,0.3194580078125
5.559,316,3147,1798,711,14.0,22.0,21.0,-31.738279342651367,18.73779296875,4.638671875,-1.5242919921875,0.1795654296875,0.5279541015625
5.578,323,3144,1545,803,15.0,24.0,24.0,-31.738279342651367,18.73779296875,4.638671875,-1.3922119140625,-0.010986328125,0.5562744140625
5.589,316,3128,1377,778,15.0,24.0,24.0,-21.057126998901367,24.291990280151367,0.7934569716453552,-1.3922119140625,-0.010986328125,0.5562744140625
5.599,316,2858,1228,683,15.0,24.0,24.0,28.930662155151367,35.33935546875,6.713866710662842,-1.1773681640625,0.171142578125,0.4039306640625
5.607,313,2763,1112,735,15.0,24.0,24.0,28.930662155151367,35.33935546875,6.713866710662842,-0.9676513671875,0.1802978515625,0.34423828125
5.628,308,2599,1078,691,15.0,24.0,24.0,49.560543060302734,36.68212890625,7.690429210662842,-0.9676513671875,0.1802978515625,0.34423828125
5.628,306,2091,785,660,15.0,24.0,24.0,63.110347747802734,39.0625,5.615233898162842,-0.45751953125,-0.1153564453125,0.3038330078125
5.628,302,1985,753,705,15.0,24.0,24.0,73.2421875,43.457027435302734,1.9531248807907104,-0.45751953125,-0.1153564453125,0.3038330078125
5.635,299,1774,674,689,15.0,24.0,24.0,80.44432830810547,49.682613372802734,-1.4648436307907104,-0.2611083984375,-0.3358154296875,0.3057861328125
5.649,291,1352,538,593,15.0,24.0,24.0,86.66991424560547,54.077144622802734,-2.746581792831421,-0.237060546875,-0.3026123046875,0.0970458984375
5.657,280,1056,525,575,15.0,24.0,24.0,92.59032440185547,54.260250091552734,-1.5258787870407104,-0.237060546875,-0.3026123046875,0.0970458984375
5.666,278,910,523,523,8.0,25.0,22.0,94.11620330810547,51.574703216552734,1.5869139432907104,-0.28076171875,-0.040283203125,-0.1004638671875
5.679,277,778,510,484,8.0,25.0,22.0,87.21923065185547,44.738765716552734,7.263183116912842,-0.536376953125,0.4736328125,-0.2557373046875
5.694,279,787,537,497,8.0,25.0,22.0,69.4580078125,32.40966796875,16.2353515625,-0.536376953125,0.4736328125,-0.2557373046875
5.696,275,869,506,519,8.0,25.0,22.0,39.9169921875,16.845703125,23.681638717651367,-0.7081298828125,0.3770751953125,-0.140625
5.709,277,878,513,499,8.0,25.0,22.0,13.732909202575684,4.33349609375,21.789548873901367,-0.647216796875,0.0289306640625,0.156005859375
5.730,276,883,518,533,8.0,25.0,22.0,9.3994140625,-1.03759765625,10.437010765075684,-0.647216796875,0.0289306640625,0.156005859375
5.731,277,989,518,540,8.0,25.0,22.0,20.507810592651367,-3.479003667831421,-0.9155272841453552,-0.5809326171875,0.1617431640625,0.1925048828125
5.739,279,1231,479,578,8.0,25.0,22.0,29.785154342651367,-6.042479991912842,-4.57763671875,-0.62255859375,0.33447265625,0.014892578125
5.748,280,1357,523,605,8.0,25.0,22.0,30.334470748901367,-6.652831554412842,-1.3427733182907104,-0.62255859375,0.33447265625,0.014892578125
5.755,287,1483,531,621,8.0,25.0,22.0,23.376462936401367,-5.676269054412842,4.82177734375,-0.685791015625,0.3184814453125,-0.040283203125
5.769,289,1662,522,582,11.0,23.0,26.0,12.573241233825684,-4.5166015625,11.596678733825684,-0.8577880859375,0.25390625,-0.0615234375
5.777,292,1806,591,593,11.0,23.0,26.0,4.8828125,-2.624511480331421,16.2353515625,-0.8577880859375,0.25390625,-0.0615234375
5.786,292,1789,607,694,11.0,23.0,26.0,2.50244140625,-3.845214605331421,16.6015625,-0.938720703125,0.266357421875,-0.0263671875
5.799,299,1912,580,661,11.0,23.0,26.0,-1.3427733182907104,-11.474608421325684,13.122557640075684,-0.916259765625,0.3651123046875,0.12646484375
5.807,300,2041,725,683,11.0,23.0,26.0,-11.169432640075684,-21.362302780151367,7.080077648162842,-0.916259765625,0.3651123046875,0.12646484375
5.833,304,2141,872,614,11.0,23.0,26.0,-24.291990280151367,-28.686521530151367,-2.13623046875,-0.88525390625,0.3194580078125,0.140869140625
5.833,315,2202,895,684,11.0,23.0,26.0,-35.33935546875,-30.700681686401367,-13.488768577575684,-0.8209228515625,0.03369140625,0.00048828125
5.837,318,2271,1029,765,11.0,23.0,26.0,-40.954586029052734,-26.855466842651367,-20.874021530151367,-0.8209228515625,0.03369140625,0.00048828125
5.847,330,2261,1079,904,11.0,23.0,26.0,-42.480464935302734,-22.338865280151367,-19.775390625,-0.7877197265625,0.006103515625,-0.056640625
5.859,343,2282,1051,882,12.0,22.0,19.0,-42.785640716552734,-22.033689498901367,-13.732909202575684,-0.7236328125,0.0,-0.07568359375
5.867,324,2504,1303,594,12.0,22.0,19.0,-42.663570404052734,-23.681638717651367,-9.58251953125,-0.6279296875,-0.0245361328125,-0.124267578125
5.876,317,2818,1492,702,12.0,22.0,19.0,-43.884273529052734,-26.000974655151367,-8.36181640625,-0.5064697265625,-0.000732421875,-0.20556640625
5.911,356,2555,1287,963,12.0,22.0,19.0,-49.438472747802734,-29.052732467651367,-7.629394054412842,-0.4093017578125,0.13232421875,-0.2894287109375
5.940,345,2881,1739,788,12.0,22.0,19.0,-81.23778533935547,-40.10009765625,-9.82666015625,-0.444580078125,0.394287109375,0.2388916015625
5.941,333,3147,1955,731,12.0,22.0,19.0,-101.19628143310547,-51.330562591552734,-13.000487327575684,-0.5684814453125,0.4718017578125,0.8212890625
5.941,330,3147,2231,963,12.0,22.0,19.0,-107.78807830810547,-59.509273529052734,-15.197752952575684,-0.8001708984375,0.701416015625,1.162353515625
5.941,334,3147,2266,871,12.0,22.0,19.0,-101.62352752685547,-59.020992279052734,-20.324705123901367,-1.0755615234375,0.7479248046875,1.169677734375
5.954,343,3147,2207,958,12.0,22.0,19.0,-89.90477752685547,-46.386714935302734,-31.005857467651367,-1.42919921875,0.3641357421875,0.974609375
5.957,346,3147,2318,978,16.0,19.0,20.0,-72.8759765625,-24.108884811401367,-42.968746185302734,-1.8875732421875,-0.1317138671875,0.665283203125
5.965,359,3147,2093,1054,16.0,19.0,20.0,-54.931636810302734,-1.8310545682907104,-47.058101654052734,-2.2843017578125,-0.3419189453125,0.306396484375
5.979,360,3102,1867,991,16.0,19.0,20.0,-38.02490234375,11.718749046325684,-39.0625,-2.4603271484375,-0.284423828125,0.0499267578125
5.987,334,3147,2214,986,16.0,19.0,20.0,-18.37158203125,12.145995140075684,-25.390623092651367,-2.1065673828125,-0.310791015625,0.0078125
5.999,338,3147,2155,947,16.0,19.0,20.0,11.047362327575684,4.5166015625,-14.404295921325684,-1.505126953125,-0.29345703125,0.227783203125
6.011,336,3147,1821,986,16.0,19.0,20.0,44.311519622802734,-4.82177734375,-5.310058116912842,-1.3812255859375,-0.001220703125,0.5728759765625
6.017,354,2984,1665,1217,16.0,19.0,20.0,54.809566497802734,-6.286620616912842,6.408690929412842,-1.6461181640625,0.2867431640625,0.7542724609375
6.038,364,2916,1578,1172,16.0,19.0,20.0,39.85595703125,6.408690929412842,16.9677734375,-1.8135986328125,0.401611328125,0.7623291015625
6.039,330,3129,1533,778,16.0,19.0,20.0,21.118162155151367,22.033689498901367,20.874021530151367,-1.749267578125,0.3779296875,0.693115234375
6.047,338,2922,1399,978,16.0,19.0,20.0,11.962889671325684,32.1044921875,19.8974609375,-1.5906982421875,0.2479248046875,0.5604248046875
6.057,330,2945,1385,777,13.0,20.0,19.0,15.930174827575684,39.36767578125,18.12744140625,-1.47216796875,0.151611328125,0.4166259765625
6.069,324,2677,1091,799,13.0,20.0,19.0,28.259275436401367,43.884273529052734,17.15087890625,-1.3868408203125,0.2105712890625,0.296875
6.077,322,2769,1149,811,13.0,20.0,19.0,39.1845703125,43.823238372802734,15.686034202575684,-1.2362060546875,0.2960205078125,0.167724609375
6.085,315,2323,944,900,13.0,20.0,19.0,44.189449310302734,41.503902435302734,11.657713890075684,-0.9769287109375,0.23583984375,0.053955078125
6.107,316,2106,749,750,13.0,20.0,19.0,48.522945404052734,39.55078125,4.69970703125,-0.6387939453125,0.0147705078125,0.055908203125
6.107,316,1816,725,811,13.0,20.0,19.0,58.532711029052734,38.6962890625,-2.929687261581421,-0.320556640625,-0.2747802734375,0.1737060546875
6.116,298,1616,628,810,13.0,20.0,19.0,74.8291015625,39.97802734375,-7.446288585662842,-0.1297607421875,-0.4381103515625,0.291015625
6.146,292,1264,555,667,13.0,20.0,19.0,90.88134002685547,42.907711029052734,-8.36181640625,-0.13623046875,-0.36376953125,0.2615966796875
6.147,283,974,536,648,13.0,20.0,19.0,96.55760955810547,45.959468841552734,-7.202147960662842,-0.2576904296875,-0.13671875,0.0924072265625
6.147,277,865,527,582,13.0,20.0,19.0,86.79198455810547,46.264644622802734,-3.051757574081421,-0.3228759765625,0.1241455078125,-0.0655517578125
6.160,279,824,505,521,9.0,27.0,27.0,65.673828125,41.198726654052734,6.225585460662842,-0.3917236328125,0.3680419921875,-0.15283203125
6.167,279,837,526,527,9.0,27.0,27.0,38.75732421875,30.578611373901367,18.6767578125,-0.5089111328125,0.47265625,-0.1590576171875
6.175,277,816,519,555,9.0,27.0,27.0,10.314940452575684,19.1650390625,27.648923873901367,-0.5870361328125,0.3572998046875,-0.0992431640625
6.189,277,842,497,549,9.0,27.0,27.0,-6.835937023162842,12.573241233825684,29.113767623901367,-0.628173828125,0.17724609375,-0.0228271484375
6.197,279,867,512,590,9.0,27.0,27.0,-3.601073980331421,10.253905296325684,23.986814498901367,-0.66650390625,0.1016845703125,0.0491943359375
6.212,278,932,521,582,9.0,27.0,27.0,11.840819358825684,8.36181640625,16.17431640625,-0.7152099609375,0.132080078125,0.09130859375
6.219,278,1112,481,625,9.0,27.0,27.0,25.207517623901367,5.065917491912842,9.765625,-0.7613525390625,0.185546875,0.0986328125
6.243,279,1236,499,673,9.0,27.0,27.0,28.991697311401367,0.1220703050494194,7.019042491912842,-0.7696533203125,0.2232666015625,0.117431640625
6.244,282,1348,518,668,9.0,27.0,27.0,23.620603561401367,-5.0048828125,8.1787109375,-0.746337890625,0.211181640625,0.1474609375
6.249,281,1474,482,710,9.0,23.0,28.0,16.357421875,-6.713866710662842,11.108397483825684,-0.7550048828125,0.157958984375,0.140625
6.257,290,1561,495,775,9.0,23.0,28.0,14.587401390075684,-6.225585460662842,13.366698265075684,-0.8134765625,0.1578369140625,0.115478515625
6.265,291,1702,549,759,9.0,23.0,28.0,15.197752952575684,-8.97216796875,13.610838890075684,-0.86181640625,0.2318115234375,0.117919921875
6.279,298,1920,548,678,9.0,23.0,28.0,9.8876953125,-15.197752952575684,11.169432640075684,-0.8536376953125,0.30615234375,0.1141357421875
6.287,309,1779,561,890,9.0,23.0,28.0,-3.356933355331421,-20.263669967651367,5.920409679412842,-0.797119140625,0.327880859375,0.0731201171875
6.295,324,1828,659,976,9.0,23.0,28.0,-20.874021530151367,-23.193357467651367,-1.6479490995407104,-0.705810546875,0.2650146484375,0.0145263671875
6.309,338,2024,816,902,9.0,23.0,28.0,-38.330078125,-25.268552780151367,-10.314940452575684,-0.6033935546875,0.110107421875,-0.073486328125
6.320,360,2087,987,1045,9.0,23.0,28.0,-53.405757904052734,-26.367185592651367,-16.9677734375,-0.51513671875,-0.080078125,-0.1630859375
6.325,371,2167,1043,1067,9.0,23.0,28.0,-53.405757904052734,-26.367185592651367,-16.9677734375,-0.4581298828125,-0.1976318359375,-0.221923828125
6.344,371,2231,1043,1039,9.0,23.0,28.0,-63.476558685302734,-25.756834030151367,-13.061522483825684,-0.39990234375,-0.187744140625,-0.271484375
6.347,385,2330,1157,1243,9.0,25.0,22.0,-57.067867279052734,-24.108884811401367,-6.774901866912842,-0.322998046875,-0.11328125,-0.287353515625
6.355,364,2432,1217,1265,9.0,25.0,22.0,-57.067867279052734,-24.108884811401367,-6.774901866912842,-0.33447265625,0.0460205078125,-0.2066650390625
6.371,370,2723,1437,992,9.0,25.0,22.0,-45.166011810302734,-28.137205123901367,-0.6103515625,-0.5057373046875,0.353759765625,0.0897216796875
6.377,351,3084,1838,799,9.0,25.0,22.0,-62.194820404052734,-43.151851654052734,1.6479490995407104,-0.7440185546875,0.7747802734375,0.5225830078125
6.385,334,3024,2012,890,9.0,25.0,22.0,-62.194820404052734,-43.151851654052734,1.6479490995407104,-0.9925537109375,1.2103271484375,0.763671875
6.400,345,3147,2019,920,9.0,25.0,22.0,-141.29638671875,-73.30322265625,-3.540038824081421,-1.243896484375,1.1982421875,0.8719482421875
6.408,346,3147,2337,1000,9.0,25.0,22.0,-163.94041442871094,-68.115234375,-25.390623092651367,-1.5992431640625,0.5067138671875,1.01123046875
6.415,344,3147,2334,1064,9.0,25.0,22.0,-163.94041442871094,-68.115234375,-25.390623092651367,-2.2161865234375,-0.166015625,1.088623046875
6.429,346,3147,2098,1010,9.0,25.0,22.0,-113.95262908935547,-25.024412155151367,-58.471675872802734,-2.822265625,-0.3486328125,0.8973388671875
6.447,348,3147,2160,989,9.0,25.0,22.0,-60.119625091552734,-7.080077648162842,-50.476070404052734,-2.60009765625,-0.59326171875,0.381103515625
6.448,338,3147,2206,991,15.0,20.0,23.0,-60.119625091552734,-7.080077648162842,-50.476070404052734,-1.678466796875,-0.8094482421875,0.0625
6.459,364,3108,1874,1018,15.0,20.0,23.0,71.10595703125,14.404295921325684,-32.89794921875,-1.194091796875,-0.53564453125,0.1895751953125
6.467,361,3084,1845,1160,15.0,20.0,23.0,97.16796112060547,9.521484375,-13.854979515075684,-1.410400390625,-0.071044921875,0.4088134765625
6.482,376,2964,1681,1264,15.0,20.0,23.0,97.16796112060547,9.521484375,-13.854979515075684,-1.76904296875,0.360595703125,0.5252685546875
6.489,328,3147,1801,849,15.0,20.0,23.0,43.518062591552734,20.202634811401367,28.198240280151367,-1.8599853515625,0.59228515625,0.5374755859375
6.497,351,2955,1531,1071,15.0,20.0,23.0,14.343260765075684,19.59228515625,31.738279342651367,-1.71923828125,0.5120849609375,0.485107421875
6.505,370,2746,1323,1191,15.0,20.0,23.0,14.343260765075684,19.59228515625,31.738279342651367,-1.5062255859375,0.2567138671875,0.4490966796875
6.519,336,2757,1137,1014,15.0,20.0,23.0,13.305663108825684,22.766111373901367,18.00537109375,-1.3272705078125,0.078857421875,0.462158203125
6.532,344,2683,1173,1034,15.0,20.0,23.0,28.137205123901367,31.860349655151367,14.221190452575684,-1.2279052734375,0.1268310546875,0.4534912109375
6.552,329,2715,1104,957,15.0,20.0,23.0,28.137205123901367,31.860349655151367,14.221190452575684,-1.2279052734375,0.1268310546875,0.4534912109375
6.553,323,2410,912,815,15.0,26.0,26.0,47.729488372802734,44.067378997802734,11.718749046325684,-0.9935302734375,0.22021484375,0.2384033203125
6.557,328,2287,923,849,15.0,26.0,26.0,47.729488372802734,44.067378997802734,11.718749046325684,-0.72900390625,0.0758056640625,0.1876220703125
6.566,318,2012,774,918,15.0,26.0,26.0,52.795406341552734,46.691890716552734,8.97216796875,-0.72900390625,0.0758056640625,0.1876220703125
6.579,313,1744,642,757,15.0,26.0,26.0,67.3828125,48.339839935302734,0.0,-0.16845703125,-0.3546142578125,0.2484130859375
6.587,307,1544,617,859,15.0,26.0,26.0,67.3828125,48.339839935302734,0.0,-0.092041015625,-0.398681640625,0.1871337890625
6.596,300,1395,572,802,15.0,26.0,26.0,75.37841796875,49.621578216552734,-1.8310545682907104,-0.092041015625,-0.398681640625,0.1871337890625
6.610,279,1107,490,666,15.0,26.0,26.0,85.57128143310547,46.752925872802734,1.7700194120407104,-0.289794921875,-0.00634765625,-0.177978515625
6.617,276,1005,493,667,15.0,26.0,26.0,85.57128143310547,46.752925872802734,1.7700194120407104,-0.3851318359375,0.261962890625,-0.2567138671875
6.626,277,963,495,653,15.0,26.0,26.0,80.44432830810547,40.466304779052734,6.530761241912842,-0.3851318359375,0.261962890625,-0.2567138671875
6.652,275,1039,473,590,15.0,26.0,26.0,39.4287109375,18.6767578125,24.780271530151367,-0.6370849609375,0.4786376953125,-0.142822265625
6.652,277,1078,490,642,9.0,23.0,22.0,39.4287109375,18.6767578125,24.780271530151367,-0.7119140625,0.357421875,-0.0660400390625
6.655,277,1151,488,653,9.0,23.0,22.0,13.061522483825684,11.657713890075684,28.869626998901367,-0.7119140625,0.357421875,-0.0660400390625
6.670,279,1260,473,642,9.0,23.0,22.0,4.69970703125,7.324218273162842,15.136717796325684,-0.7725830078125,0.2362060546875,0.08837890625
6.677,280,1359,508,682,9.0,23.0,22.0,4.69970703125,7.324218273162842,15.136717796325684,-0.7740478515625,0.214599609375,0.1363525390625
6.685,280,1383,499,702,9.0,23.0,22.0,10.375975608825684,3.417968511581421,5.493163585662842,-0.7740478515625,0.214599609375,0.1363525390625
6.699,280,1521,469,691,9.0,23.0,22.0,7.385253429412842,-5.920409679412842,-0.54931640625,-0.7535400390625,0.1400146484375,0.178466796875
6.707,290,1557,485,787,9.0,23.0,22.0,7.385253429412842,-5.920409679412842,-0.54931640625,-0.7965087890625,0.13232421875,0.16259765625
6.715,289,1593,497,818,9.0,23.0,22.0,4.638671875,-7.202147960662842,2.746581792831421,-0.7965087890625,0.13232421875,0.16259765625
6.729,291,1730,456,800,9.0,23.0,22.0,4.08935546875,-9.09423828125,10.009765625,-0.9022216796875,0.1812744140625,0.134521484375
6.754,293,1739,521,879,9.0,23.0,22.0,4.08935546875,-9.09423828125,10.009765625,-0.920166015625,0.19482421875,0.1473388671875
6.755,299,1748,616,750,9.0,26.0,19.0,2.868652105331421,-12.451170921325684,11.291502952575684,-0.920166015625,0.19482421875,0.1473388671875
6.759,306,1952,606,814,9.0,26.0,19.0,1.15966796875,-16.90673828125,9.46044921875,-0.896484375,0.1722412109375,0.1341552734375
6.767,314,2021,695,897,9.0,26.0,19.0,-0.54931640625,-21.240232467651367,5.126952648162842,-0.896484375,0.1722412109375,0.1341552734375
6.775,332,1996,733,996,9.0,26.0,19.0,-3.967284917831421,-24.475095748901367,0.0,-0.8653564453125,0.1614990234375,0.0565185546875
6.789,346,2078,829,951,9.0,26.0,19.0,-11.047362327575684,-26.428220748901367,-5.0048828125,-0.6673583984375,0.09619140625,-0.1497802734375
6.797,360,2151,966,1074,9.0,26.0,19.0,-21.057126998901367,-27.160642623901367,-9.46044921875,-0.6673583984375,0.09619140625,-0.1497802734375
6.806,371,2266,1054,1103,9.0,26.0,19.0,-31.311033248901367,-26.489255905151367,-12.817381858825684,-0.4942626953125,0.0145263671875,-0.2579345703125
6.821,375,2296,1010,1101,9.0,26.0,19.0,-37.78076171875,-25.146482467651367,-14.526366233825684,-0.1773681640625,-0.0670166015625,-0.40673828125
6.830,356,2510,1170,1213,9.0,26.0,19.0,-37.841796875,-26.062009811401367,-14.831542015075684,-0.1773681640625,-0.0670166015625,-0.40673828125
6.835,373,2514,1207,1217,9.0,26.0,19.0,-31.372068405151367,-30.273435592651367,-15.869139671325684,-0.078125,0.0169677734375,-0.3402099609375
6.858,364,2981,1541,1067,11.0,22.0,24.0,-25.878904342651367,-35.21728515625,-18.00537109375,-0.53173828125,0.7457275390625,0.2410888671875
6.860,359,3127,1889,1039,11.0,22.0,24.0,-41.442867279052734,-42.663570404052734,-17.27294921875,-0.53173828125,0.7457275390625,0.2410888671875
6.865,338,3147,2162,922,11.0,22.0,24.0,-94.97069549560547,-57.678218841552734,-12.573241233825684,-0.9033203125,1.1116943359375,0.7493896484375
6.879,346,3147,2205,1026,11.0,22.0,24.0,-164.48973083496094,-71.044921875,-12.023924827575684,-1.48583984375,0.0679931640625,1.2562255859375
6.887,334,3147,2391,1107,11.0,22.0,24.0,-197.38768005371094,-69.580078125,-22.766111373901367,-1.48583984375,0.0679931640625,1.2562255859375
6.895,337,3147,2498,1163,11.0,22.0,24.0,-168.82322692871094,-52.185054779052734,-36.0107421875,-2.058349609375,-0.5194091796875,1.2034912109375
6.909,334,3147,2221,1039,11.0,22.0,24.0,-101.50145721435547,-30.151365280151367,-36.07177734375,-2.8992919921875,-0.0865478515625,0.3876953125
6.922,330,3147,2102,1042,11.0,22.0,24.0,-45.776363372802734,-13.549803733825684,-24.353025436401367,-2.8992919921875,-0.0865478515625,0.3876953125
6.936,352,3147,2235,1034,11.0,22.0,24.0,-8.4228515625,7.141112804412842,-18.24951171875,-1.9456787109375,-0.4781494140625,0.1424560546875
6.939,346,3147,2141,1026,13.0,20.0,21.0,38.39111328125,22.460935592651367,-18.24951171875,-1.2891845703125,-0.1602783203125,0.4710693359375
6.967,338,3147,1957,1039,13.0,20.0,21.0,74.40185546875,22.277830123901367,-10.864256858825684,-1.2891845703125,-0.1602783203125,0.4710693359375
6.968,333,3147,1636,1034,13.0,20.0,21.0,76.11083984375,24.414060592651367,4.45556640625,-1.750244140625,0.276123046875,0.4566650390625
6.969,347,3089,1604,1067,13.0,20.0,21.0,50.598140716552734,27.832029342651367,19.287109375,-1.8603515625,0.5908203125,0.3502197265625
6.979,345,3042,1561,951,13.0,20.0,21.0,15.747069358825684,25.146482467651367,25.390623092651367,-1.8603515625,0.5908203125,0.3502197265625
6.985,334,3113,1534,951,13.0,20.0,21.0,-5.615233898162842,22.216794967651367,21.789548873901367,-1.609619140625,0.3592529296875,0.3507080078125
6.999,330,2807,1243,890,13.0,20.0,21.0,-6.652831554412842,23.864744186401367,14.892577171325684,-1.3817138671875,0.13916015625,0.4056396484375
7.007,327,2697,1243,959,13.0,20.0,21.0,5.798339366912842,29.296873092651367,10.681151390075684,-1.247314453125,0.1373291015625,0.4432373046875
7.018,323,2654,1211,899,13.0,20.0,21.0,20.141599655151367,33.447265625,9.521484375,-1.1309814453125,0.2369384765625,0.3839111328125
7.031,323,2286,978,837,13.0,20.0,21.0,28.564451217651367,35.58349609375,8.1787109375,-0.94482421875,0.2049560546875,0.26171875
7.037,328,2019,910,951,12.0,21.0,19.0,34.36279296875,37.90283203125,4.21142578125,-0.677978515625,0.0396728515625,0.1737060546875
7.045,327,1824,834,891,12.0,21.0,19.0,43.151851654052734,38.9404296875,-2.563476324081421,-0.37841796875,-0.2288818359375,0.1630859375
7.069,315,1627,691,775,12.0,21.0,19.0,57.556148529052734,38.75732421875,-8.85009765625,-0.1756591796875,-0.439208984375,0.17919921875
7.069,318,1422,661,849,12.0,21.0,19.0,74.8291015625,36.9873046875,-10.437010765075684,-0.151123046875,-0.4388427734375,0.158203125
7.077,304,1292,646,737,12.0,21.0,19.0,86.30370330810547,33.3251953125,-7.568358898162842,-0.258544921875,-0.281494140625,0.066650390625
7.089,291,1031,546,661,12.0,21.0,19.0,86.66991424560547,30.517576217651367,-1.8920897245407104,-0.368408203125,-0.0504150390625,-0.0435791015625
7.097,289,991,564,620,12.0,21.0,19.0,78.67431640625,28.503416061401367,6.591796398162842,-0.418701171875,0.1827392578125,-0.0955810546875
7.105,280,890,545,667,12.0,21.0,19.0,65.85693359375,25.085447311401367,17.822265625,-0.470703125,0.349365234375,-0.0986328125
7.123,279,900,510,671,12.0,21.0,19.0,47.485347747802734,21.057126998901367,29.663084030151367,-0.5440673828125,0.376953125,-0.074951171875
7.130,280,1043,494,684,12.0,21.0,19.0,26.794431686401367,17.63916015625,37.90283203125,-0.5943603515625,0.2952880859375,-0.025634765625
7.137,282,1091,525,708,12.0,24.0,23.0,14.648436546325684,15.136717796325684,38.9404296875,-0.6324462890625,0.242431640625,0.0294189453125
7.173,281,1225,497,710,12.0,24.0,23.0,15.258788108825684,12.207030296325684,32.89794921875,-0.691650390625,0.260498046875,0.0738525390625
7.174,290,1264,513,800,12.0,24.0,23.0,21.057126998901367,6.958007335662842,22.644041061401367,-0.739501953125,0.2999267578125,0.10498046875
7.174,292,1343,523,832,12.0,24.0,23.0,23.071287155151367,0.1831054538488388,13.122557640075684,-0.7418212890625,0.315185546875,0.1309814453125
7.182,298,1504,521,784,12.0,24.0,23.0,20.080564498901367,-5.371093273162842,7.263183116912842,-0.7388916015625,0.289794921875,0.1412353515625
7.187,298,1555,514,905,12.0,24.0,23.0,16.6015625,-8.23974609375,3.967284917831421,-0.7806396484375,0.2657470703125,0.11572265625
7.195,300,1595,519,934,12.0,24.0,23.0,13.854979515075684,-10.314940452575684,1.6479490995407104,-0.845947265625,0.2628173828125,0.0770263671875
7.209,312,1653,512,944,12.0,24.0,23.0,9.27734375,-13.916014671325684,-0.1831054538488388,-0.89599609375,0.26953125,0.0509033203125
7.222,316,1694,576,1043,12.0,24.0,23.0,1.8920897245407104,-19.47021484375,-1.9531248807907104,-0.9156494140625,0.2559814453125,0.057861328125
7.229,328,1845,628,1042,12.0,24.0,23.0,-6.713866710662842,-25.573728561401367,-5.0048828125,-0.88525390625,0.178466796875,0.0819091796875
7.241,345,1908,698,1014,10.0,26.0,25.0,-14.343260765075684,-29.418943405151367,-8.48388671875,-0.8189697265625,0.0767822265625,0.071533203125
7.247,359,1960,777,1183,10.0,26.0,25.0,-21.057126998901367,-30.456541061401367,-9.3994140625,-0.739013671875,0.0029296875,0.0242919921875
7.285,365,2308,888,1213,10.0,26.0,25.0,-27.160642623901367,-30.090330123901367,-8.85009765625,-0.6148681640625,-0.06005859375,-0.0623779296875
7.285,371,2372,936,913,10.0,26.0,25.0,-30.395505905151367,-28.930662155151367,-9.1552734375,-0.4329833984375,-0.092041015625,-0.1800537109375
7.286,338,2632,999,1037,10.0,26.0,25.0,-30.029294967651367,-29.541013717651367,-10.314940452575684,-0.2144775390625,-0.1304931640625,-0.2998046875
7.289,400,2704,1264,1211,10.0,26.0,25.0,-28.320310592651367,-32.5927734375,-12.451170921325684,-0.001953125,-0.17041015625,-0.398681640625
7.299,415,2456,1143,1206,10.0,26.0,25.0,-28.686521530151367,-36.56005859375,-13.305663108825684,0.0931396484375,-0.036865234375,-0.3890380859375
7.308,409,2621,1496,1310,10.0,26.0,25.0,-39.4287109375,-41.320796966552734,-10.253905296325684,-0.130859375,0.3946533203125,-0.0982666015625
7.315,410,2851,1704,1336,10.0,26.0,25.0,-72.6318359375,-49.987789154052734,-4.21142578125,-0.6590576171875,0.9779052734375,0.4542236328125
7.332,356,3147,2205,1014,14.0,21.0,19.0,-131.8359375,-62.927242279052734,-0.6713866591453552,-1.12646484375,1.061767578125,0.93603515625
7.338,363,3147,2398,1153,14.0,21.0,19.0,-181.33543395996094,-67.19970703125,-8.48388671875,-1.5013427734375,0.5126953125,1.1396484375
7.345,346,3147,2386,1225,14.0,21.0,19.0,-178.58885192871094,-59.936519622802734,-24.536130905151367,-2.28271484375,0.2982177734375,1.246826171875
7.369,370,3147,2068,1143,14.0,21.0,19.0,-145.44677734375,-58.471675872802734,-29.418943405151367,-3.2742919921875,0.462158203125,1.1534423828125
7.370,371,3147,2091,1184,14.0,21.0,19.0,-120.48339080810547,-46.813961029052734,-24.230955123901367,-3.1033935546875,-0.271484375,0.6275634765625
7.376,348,3147,2279,1081,14.0,21.0,19.0,-62.744136810302734,-6.347655773162842,-27.954099655151367,-1.7474365234375,-1.1038818359375,0.254638671875
7.394,342,3147,2102,1050,14.0,21.0,19.0,33.0810546875,20.263669967651367,-29.174802780151367,-0.815673828125,-0.8582763671875,0.3125
7.398,345,3147,2091,1034,14.0,21.0,19.0,90.63719940185547,21.118162155151367,-17.02880859375,-0.9609375,-0.33935546875,0.35546875
7.405,336,3147,2167,1039,14.0,21.0,19.0,93.50585174560547,25.939939498901367,-0.3662109076976776,-1.5189208984375,0.0850830078125,0.3287353515625
7.419,342,3147,1952,976,14.0,21.0,19.0,68.84765625,32.2265625,16.17431640625,-1.8309326171875,0.547119140625,0.3319091796875
7.430,354,3112,1785,1103,16.0,21.0,24.0,32.1044921875,28.442380905151367,26.794431686401367,-1.852783203125,0.80322265625,0.3094482421875
7.438,337,3147,1838,894,16.0,21.0,24.0,1.15966796875,17.578125,24.475095748901367,-1.7003173828125,0.6788330078125,0.336181640625
7.449,332,3147,1550,830,16.0,21.0,24.0,-8.6669921875,9.58251953125,12.084959983825684,-1.4630126953125,0.3778076171875,0.4774169921875
7.471,344,2868,1380,1026,16.0,21.0,24.0,-1.5258787870407104,13.305663108825684,-0.1831054538488388,-1.25537109375,0.107177734375,0.610595703125
7.471,344,3147,1415,846,16.0,21.0,24.0,-1.5258787870407104,13.305663108825684,-0.1831054538488388,-1.16162109375,0.042236328125,0.6151123046875
7.481,324,2736,1138,829,16.0,21.0,24.0,26.062009811401367,38.330078125,-5.249022960662842,-1.0950927734375,0.12060546875,0.509521484375
7.499,328,2524,1025,977,16.0,21.0,24.0,35.64453125,42.663570404052734,-1.7089842557907104,-0.965087890625,0.1402587890625,0.3494873046875
7.499,318,2517,1067,910,16.0,21.0,24.0,35.64453125,42.663570404052734,-1.7089842557907104,-0.79345703125,0.103759765625,0.1834716796875
7.510,316,2075,816,806,16.0,21.0,24.0,56.396480560302734,44.250484466552734,-3.417968511581421,-0.5872802734375,-0.0230712890625,0.0980224609375
7.517,309,1954,764,853,16.0,21.0,24.0,61.767574310302734,43.762203216552734,-6.896972179412842,-0.3968505859375,-0.2557373046875,0.1259765625
7.528,306,1904,780,735,12.0,23.0,26.0,61.767574310302734,43.762203216552734,-6.896972179412842,-0.3052978515625,-0.42333984375,0.1685791015625
7.540,300,1503,582,710,12.0,23.0,26.0,66.7724609375,41.320796966552734,-3.723144292831421,-0.32666015625,-0.420654296875,0.1209716796875
7.550,293,1323,561,740,12.0,23.0,26.0,72.57080078125,40.344234466552734,2.197265625,-0.38623046875,-0.3006591796875,-0.01025390625
7.555,289,1213,527,707,12.0,23.0,26.0,72.57080078125,40.344234466552734,2.197265625,-0.421875,-0.12255859375,-0.1448974609375
7.573,278,1045,497,630,12.0,23.0,26.0,78.55224609375,39.55078125,17.63916015625,-0.47900390625,0.109130859375,-0.2041015625
7.577,279,1042,527,620,12.0,23.0,26.0,72.1435546875,32.53173828125,27.404783248901367,-0.5645751953125,0.3233642578125,-0.1656494140625
7.585,279,1014,526,631,12.0,23.0,26.0,72.1435546875,32.53173828125,27.404783248901367,-0.6263427734375,0.41259765625,-0.0841064453125
7.609,279,1143,497,629,12.0,23.0,26.0,33.8134765625,12.695311546325684,43.151851654052734,-0.6492919921875,0.39208984375,-0.0242919921875
7.610,281,1214,525,694,12.0,23.0,26.0,16.90673828125,7.995604991912842,40.832515716552734,-0.6580810546875,0.3721923828125,0.018310546875
7.616,280,1260,506,722,12.0,23.0,26.0,16.90673828125,7.995604991912842,40.832515716552734,-0.6568603515625,0.3636474609375,0.064697265625
7.629,292,1390,497,746,10.0,27.0,27.0,5.126952648162842,-1.5258787870407104,22.827146530151367,-0.6353759765625,0.3109130859375,0.100830078125
7.637,292,1543,548,780,10.0,27.0,27.0,2.746581792831421,-6.225585460662842,13.305663108825684,-0.6273193359375,0.2532958984375,0.1165771484375
7.645,299,1650,548,813,10.0,27.0,27.0,2.746581792831421,-6.225585460662842,13.305663108825684,-0.6705322265625,0.2647705078125,0.123291015625
7.676,300,1783,540,782,10.0,27.0,27.0,1.9531248807907104,-13.305663108825684,1.9531248807907104,-0.738037109375,0.322998046875,0.126953125
7.677,302,1878,563,813,10.0,27.0,27.0,-1.03759765625,-16.05224609375,-2.01416015625,-0.7852783203125,0.35400390625,0.1134033203125
7.679,318,1849,632,957,10.0,27.0,27.0,-1.03759765625,-16.05224609375,-2.01416015625,-0.7852783203125,0.35400390625,0.1134033203125
7.690,328,1957,689,929,10.0,27.0,27.0,-20.202634811401367,-21.118162155151367,-10.986327171325684,-0.7603759765625,0.1640625,0.06787109375
7.703,328,2091,841,987,10.0,27.0,27.0,-20.202634811401367,-21.118162155151367,-10.986327171325684,-0.7393798828125,0.0078125,0.0037841796875
7.706,321,2375,809,1010,10.0,27.0,27.0,-28.259275436401367,-22.949216842651367,-17.39501953125,-0.7393798828125,0.0078125,0.0037841796875
7.721,352,2247,991,1067,10.0,27.0,27.0,-32.04345703125,-23.620603561401367,-19.83642578125,-0.732666015625,-0.0965576171875,-0.1065673828125
7.729,364,2275,947,1043,11.0,25.0,26.0,-37.841796875,-29.418943405151367,-7.324218273162842,-0.4688720703125,-0.1260986328125,-0.27490234375
7.736,371,2479,1178,1178,11.0,25.0,26.0,-37.841796875,-29.418943405151367,-7.324218273162842,-0.240478515625,-0.137939453125,-0.37109375
7.744,401,2498,1160,1276,11.0,25.0,26.0,-45.776363372802734,-31.311033248901367,-3.234863042831421,-0.240478515625,-0.137939453125,-0.37109375
7.758,371,3055,1675,907,11.0,25.0,26.0,-78.06396484375,-34.24072265625,-4.57763671875,-0.1575927734375,0.244384765625,0.034423828125
7.784,375,2651,1622,1369,11.0,25.0,26.0,-78.06396484375,-34.24072265625,-4.57763671875,-0.3338623046875,0.6805419921875,0.7001953125
7.784,369,3042,2019,1025,11.0,25.0,26.0,-98.69384002685547,-47.546382904052734,-3.295898199081421,-0.3338623046875,0.6805419921875,0.7001953125
7.789,369,3147,2079,1078,11.0,25.0,26.0,-117.79784393310547,-62.438961029052734,-1.7700194120407104,-1.1031494140625,0.787109375,1.163330078125
7.797,356,3147,2235,1243,11.0,25.0,26.0,-128.5400390625,-64.8193359375,-8.4228515625,-1.1031494140625,0.787109375,1.163330078125
7.810,373,3147,2391,1292,11.0,25.0,26.0,-126.15966033935547,-53.771968841552734,-23.986814498901367,-1.891845703125,0.35888671875,1.1221923828125
7.818,361,3147,2180,1176,17.0,23.0,22.0,-116.82128143310547,-42.785640716552734,-30.883787155151367,-3.451904296875,0.031005859375,0.5865478515625
7.826,355,3147,2291,1148,17.0,23.0,22.0,-119.99510955810547,-34.72900390625,-20.568845748901367,-3.451904296875,0.031005859375,0.5865478515625
7.834,343,3147,2320,1118,17.0,23.0,22.0,-100.52489471435547,-1.7089842557907104,-16.54052734375,-2.3946533203125,-1.0528564453125,0.158447265625
7.861,360,3147,1973,1122,17.0,23.0,22.0,-16.90673828125,30.944822311401367,-21.606443405151367,-1.1954345703125,-0.4049072265625,0.1737060546875
7.864,375,3147,2108,1079,17.0,23.0,22.0,62.683101654052734,27.404783248901367,-12.329100608825684,-1.1954345703125,-0.4049072265625,0.1737060546875
7.896,344,3147,2091,1107,17.0,23.0,22.0,80.87157440185547,19.95849609375,9.033203125,-1.6099853515625,0.195068359375,0.270263671875
7.896,334,3147,1955,963,17.0,23.0,22.0,60.302730560302734,23.254392623901367,26.123044967651367,-1.803955078125,0.738037109375,0.5430908203125
7.896,334,3147,1820,906,17.0,23.0,22.0,31.433103561401367,24.414060592651367,31.494138717651367,-1.803955078125,0.738037109375,0.5430908203125
7.896,330,3147,1834,802,17.0,23.0,22.0,13.854979515075684,19.95849609375,25.329587936401367,-1.6090087890625,0.64501953125,0.49609375
7.908,324,3000,1323,790,17.0,23.0,22.0,14.709471702575684,16.05224609375,12.756346702575684,-1.1636962890625,0.22119140625,0.513427734375
7.918,319,3115,1437,572,8.0,24.0,24.0,26.794431686401367,19.22607421875,1.220703125,-1.1636962890625,0.22119140625,0.513427734375
7.924,332,2830,1085,949,8.0,24.0,24.0,37.7197265625,29.479978561401367,-4.7607421875,-1.0888671875,0.2294921875,0.5030517578125
7.938,332,2340,858,951,8.0,24.0,24.0,40.344234466552734,40.832515716552734,-5.920409679412842,-0.9508056640625,0.12255859375,0.2198486328125
7.946,323,2259,939,885,8.0,24.0,24.0,38.57421875,47.912593841552734,-5.310058116912842,-0.9508056640625,0.12255859375,0.2198486328125
7.957,323,2089,846,894,8.0,24.0,24.0,42.053218841552734,49.133296966552734,-6.042479991912842,-0.7586669921875,-0.0428466796875,0.11181640625
7.984,316,1730,661,806,8.0,24.0,24.0,52.124019622802734,46.936031341552734,-9.3994140625,-0.2537841796875,-0.4808349609375,0.19580078125
7.985,315,1715,572,827,8.0,24.0,24.0,65.3076171875,44.677730560302734,-12.573241233825684,-0.2537841796875,-0.4808349609375,0.19580078125
7.985,289,1383,600,667,8.0,24.0,24.0,78.91845703125,42.785640716552734,-12.939452171325684,-0.180419921875,-0.510009765625,0.160888671875
7.998,280,951,506,658,8.0,24.0,24.0,90.08788299560547,41.259761810302734,-10.192870140075684,-0.278564453125,-0.32177734375,-0.0133056640625
8.006,275,843,518,658,8.0,24.0,24.0,94.78759002685547,39.12353515625,-5.0048828125,-0.3914794921875,-0.0128173828125,-0.1588134765625
8.014,277,813,526,630,9.0,25.0,24.0,89.17235565185547,33.75244140625,2.685546636581421,-0.4678955078125,0.300537109375,-0.2005615234375
8.028,277,780,514,582,9.0,25.0,24.0,70.6787109375,25.207517623901367,14.038084983825684,-0.5421142578125,0.4984130859375,-0.174072265625
8.036,279,815,540,590,9.0,25.0,24.0,41.931148529052734,16.4794921875,25.756834030151367,-0.5633544921875,0.45849609375,-0.107177734375
8.044,279,846,537,601,9.0,25.0,24.0,16.17431640625,11.230467796325684,31.555173873901367,-0.518310546875,0.25634765625,-0.045166015625
8.062,286,1065,526,621,9.0,25.0,24.0,9.33837890625,9.521484375,30.212400436401367,-0.4869384765625,0.0999755859375,0.0001220703125
8.066,286,1222,531,702,9.0,25.0,24.0,20.812986373901367,7.446288585662842,25.329587936401367,-0.5206298828125,0.0667724609375,0.0516357421875
8.087,289,1330,526,765,9.0,25.0,24.0,34.912109375,2.746581792831421,20.263669967651367,-0.5911865234375,0.154541015625,0.1065673828125
8.088,294,1711,490,758,9.0,25.0,24.0,35.94970703125,-4.0283203125,16.9677734375,-0.6478271484375,0.27783203125,0.1505126953125
8.096,299,1681,564,806,9.0,25.0,24.0,22.277830123901367,-9.3994140625,15.991209983825684,-0.7091064453125,0.3363037109375,0.1431884765625
8.104,300,1768,591,833,9.0,25.0,24.0,6.225585460662842,-11.596678733825684,15.258788108825684,-0.79052734375,0.3458251953125,0.0943603515625
8.118,306,1973,689,834,7.0,26.0,26.0,-5.615233898162842,-14.038084983825684,13.305663108825684,-0.8306884765625,0.3026123046875,0.07373046875
8.129,318,2091,642,846,7.0,26.0,26.0,-14.709471702575684,-18.98193359375,9.8876953125,-0.807861328125,0.2037353515625,0.0799560546875
8.134,324,2118,813,899,7.0,26.0,26.0,-20.690916061401367,-25.268552780151367,4.69970703125,-0.7469482421875,0.0997314453125,0.0654296875
8.151,330,2268,802,1074,7.0,26.0,26.0,-23.193357467651367,-30.212400436401367,-2.685546636581421,-0.6534423828125,0.012451171875,0.0130615234375
8.157,351,2296,1025,900,7.0,26.0,26.0,-26.489255905151367,-30.334470748901367,-9.3994140625,-0.5467529296875,-0.0377197265625,-0.0921630859375
8.164,361,2296,1137,1148,7.0,26.0,26.0,-34.3017578125,-26.062009811401367,-12.451170921325684,-0.4200439453125,-0.03369140625,-0.231689453125
8.189,336,2859,1264,841,7.0,26.0,26.0,-44.860836029052734,-23.010251998901367,-12.695311546325684,-0.2347412109375,-0.0579833984375,-0.35302734375
8.191,347,2927,1386,996,7.0,26.0,26.0,-50.231929779052734,-24.414060592651367,-11.596678733825684,-0.07568359375,-0.107666015625,-0.4215087890625
8.195,322,3064,1627,758,7.0,26.0,26.0,-44.250484466552734,-30.822751998901367,-9.82666015625,-0.1131591796875,-0.0531005859375,-0.32080078125
8.210,363,3147,1739,917,7.0,26.0,26.0,-38.39111328125,-43.823238372802734,-6.896972179412842,-0.4918212890625,0.3056640625,0.0814208984375
8.217,355,3147,2275,963,12.0,23.0,21.0,-60.546871185302734,-63.049312591552734,0.54931640625,-1.0382080078125,0.9622802734375,0.6143798828125
8.224,382,3084,2014,1043,12.0,23.0,21.0,-119.20165252685547,-77.7587890625,8.1787109375,-1.4686279296875,1.3280029296875,0.9521484375
8.238,318,3147,2417,1196,12.0,23.0,21.0,-177.12400817871094,-73.73046875,-0.9765624403953552,-1.8121337890625,0.927001953125,1.1634521484375
8.246,342,3147,2584,1175,12.0,23.0,21.0,-190.97898864746094,-54.504390716552734,-26.489255905151367,-2.50732421875,0.44287109375,1.3494873046875
8.254,364,3147,2052,1206,12.0,23.0,21.0,-160.21728515625,-35.15625,-44.372554779052734,-3.064208984375,-0.007568359375,1.161865234375
8.268,364,3147,1867,1129,12.0,23.0,21.0,-94.66551971435547,-6.042479991912842,-52.307125091552734,-2.4444580078125,-0.84033203125,0.6053466796875
8.292,371,3133,1929,1234,12.0,23.0,21.0,8.85009765625,28.015134811401367,-56.762691497802734,-1.4866943359375,-1.11767578125,0.2493896484375
8.292,371,3146,1889,1216,12.0,23.0,21.0,98.99901580810547,36.19384765625,-45.166011810302734,-1.34228515625,-0.5780029296875,0.143310546875
8.298,364,3134,1826,1191,12.0,23.0,21.0,117.91991424560547,30.883787155151367,-16.66259765625,-1.7965087890625,0.09228515625,0.0655517578125
8.306,357,3089,1759,1173,12.0,23.0,21.0,80.62743377685547,28.869626998901367,11.596678733825684,-2.1429443359375,0.5308837890625,0.0970458984375
8.314,348,3102,1578,1231,13.0,23.0,21.0,29.541013717651367,22.644041061401367,25.756834030151367,-2.063232421875,0.6031494140625,0.2232666015625
8.328,359,2853,1310,1047,13.0,23.0,21.0,1.03759765625,12.695311546325684,24.108884811401367,-1.73291015625,0.4366455078125,0.354248046875
8.344,330,2728,1318,1198,13.0,23.0,21.0,4.8828125,7.934569835662842,14.404295921325684,-1.3634033203125,0.23876953125,0.488525390625
8.346,336,2803,1283,1005,13.0,23.0,21.0,22.766111373901367,13.793944358825684,5.187987804412842,-1.0924072265625,0.1990966796875,0.611328125
8.358,328,2601,1094,943,13.0,23.0,21.0,34.5458984375,26.062009811401367,0.8544921278953552,-0.92822265625,0.2752685546875,0.6163330078125
8.367,328,2416,1058,977,13.0,23.0,21.0,36.19384765625,38.63525390625,-0.30517578125,-0.78759765625,0.2679443359375,0.4715576171875
8.399,324,2212,1014,943,13.0,23.0,21.0,35.70556640625,47.851558685302734,-1.5869139432907104,-0.636474609375,0.150146484375,0.2685546875
8.400,328,1948,899,859,13.0,23.0,21.0,39.73388671875,50.354000091552734,-5.310058116912842,-0.45849609375,-0.0863037109375,0.136962890625
8.400,329,1702,778,904,13.0,23.0,21.0,48.461910247802734,46.447750091552734,-11.535643577575684,-0.312744140625,-0.3837890625,0.1253662109375
8.406,323,1623,697,871,9.0,22.0,19.0,60.241695404052734,39.85595703125,-14.892577171325684,-0.29248046875,-0.5172119140625,0.1270751953125
8.419,299,1255,619,689,9.0,22.0,19.0,70.068359375,34.36279296875,-12.145995140075684,-0.3697509765625,-0.429931640625,0.0321044921875
8.428,294,1051,594,684,9.0,22.0,19.0,74.27978515625,32.53173828125,-6.103515148162842,-0.4588623046875,-0.1920166015625,-0.150634765625
8.435,289,905,578,642,9.0,22.0,19.0,73.6083984375,31.799314498901367,0.9155272841453552,-0.513427734375,0.12744140625,-0.293701171875
8.450,280,790,548,590,9.0,22.0,19.0,65.0634765625,27.038572311401367,8.9111328125,-0.5755615234375,0.412353515625,-0.2908935546875
8.457,282,744,569,614,9.0,22.0,19.0,43.151851654052734,19.34814453125,17.51708984375,-0.644775390625,0.531005859375,-0.16064453125
8.465,282,713,574,603,9.0,22.0,19.0,12.390135765075684,14.282225608825684,23.376462936401367,-0.657470703125,0.4161376953125,-0.0062255859375
8.479,286,748,562,582,9.0,22.0,19.0,-8.97216796875,15.258788108825684,22.033689498901367,-0.6461181640625,0.1986083984375,0.0784912109375
8.497,280,774,579,621,9.0,22.0,19.0,-9.46044921875,18.49365234375,14.526366233825684,-0.663330078125,0.07421875,0.1240234375
8.497,286,787,582,548,9.0,22.0,19.0,3.356933355331421,16.6015625,6.896972179412842,-0.6995849609375,0.08203125,0.177490234375
8.509,289,860,594,645,10.0,26.0,29.0,15.808104515075684,9.27734375,2.50244140625,-0.7359619140625,0.1417236328125,0.20849609375
8.517,289,893,598,674,10.0,26.0,29.0,21.057126998901367,1.5869139432907104,1.4038084745407104,-0.767822265625,0.181640625,0.1959228515625
8.525,292,991,617,695,10.0,26.0,29.0,20.324705123901367,-2.563476324081421,3.112792730331421,-0.7938232421875,0.173828125,0.166015625
8.539,296,1129,588,705,10.0,26.0,29.0,19.22607421875,-2.44140625,6.530761241912842,-0.8333740234375,0.1436767578125,0.1422119140625
8.554,299,1236,607,777,10.0,26.0,29.0,21.057126998901367,-0.30517578125,10.620116233825684,-0.889404296875,0.133544921875,0.1331787109375
8.555,298,1336,600,797,10.0,26.0,29.0,23.803709030151367,0.7324218153953552,14.465331077575684,-0.9298095703125,0.1419677734375,0.137451171875
8.571,300,1472,559,787,10.0,26.0,29.0,24.353025436401367,0.30517578125,17.578125,-0.9393310546875,0.1605224609375,0.1302490234375
8.578,304,1555,582,844,10.0,26.0,29.0,21.789548873901367,-1.15966796875,19.775390625,-0.928955078125,0.201904296875,0.09716796875
8.598,313,1561,562,921,10.0,26.0,29.0,21.789548873901367,-1.15966796875,19.775390625,-0.90380859375,0.260009765625,0.061767578125
8.600,316,1888,713,986,10.0,26.0,29.0,10.620116233825684,-10.192870140075684,16.2353515625,-0.849365234375,0.2998046875,0.04541015625
8.608,323,1715,629,1011,9.0,25.0,24.0,5.065917491912842,-15.686034202575684,9.21630859375,-0.7652587890625,0.2899169921875,0.0379638671875
8.616,330,1904,601,951,9.0,25.0,24.0,5.065917491912842,-15.686034202575684,9.21630859375,-0.6739501953125,0.241943359375,0.0203857421875
8.630,334,2047,987,733,9.0,25.0,24.0,-7.202147960662842,-21.362302780151367,-3.906249761581421,-0.59375,0.1744384765625,-0.0164794921875
8.638,323,2298,918,991,9.0,25.0,24.0,-17.88330078125,-23.010251998901367,-6.591796398162842,-0.5533447265625,0.086181640625,-0.079833984375
8.645,371,2127,888,1160,9.0,25.0,24.0,-17.88330078125,-23.010251998901367,-6.591796398162842,-0.5496826171875,-0.0062255859375,-0.1651611328125
8.662,330,2585,1103,803,9.0,25.0,24.0,-37.29248046875,-29.296873092651367,-6.896972179412842,-0.519287109375,-0.071044921875,-0.24072265625
8.668,336,3024,1271,564,9.0,25.0,24.0,-39.00146484375,-35.70556640625,-7.751464366912842,-0.44775390625,-0.0782470703125,-0.294189453125
8.676,328,3077,1239,883,9.0,25.0,24.0,-40.344234466552734,-41.015621185302734,-8.9111328125,-0.4034423828125,-0.0203857421875,-0.303955078125
8.700,347,2880,1411,1010,9.0,25.0,24.0,-40.344234466552734,-41.015621185302734,-8.9111328125,-0.493408203125,0.1331787109375,-0.1185302734375
8.701,356,2921,1524,1043,9.0,25.0,24.0,-77.1484375,-48.583980560302734,-5.737304210662842,-0.6505126953125,0.2379150390625,0.3876953125
