time,compression0,compression1,compression2,compression3,magn_x,magn_y,magn_z,gyro_x,gyro_y,gyro_z,accel_x,accel_y,accel_z
0.002,309,698,577,309,3.0,40.0,21.0,3.173827886581421,-7.934569835662842,-11.169432640075684,-0.8431396484375,0.454833984375,0.0595703125
0.009,308,689,584,309,3.0,40.0,21.0,2.868652105331421,-9.46044921875,-10.498045921325684,-0.843994140625,0.450439453125,0.0721435546875
0.028,309,680,582,310,3.0,40.0,21.0,3.051757574081421,-10.375975608825684,-9.46044921875,-0.84619140625,0.4486083984375,0.0845947265625
0.029,308,669,582,295,4.0,41.0,22.0,3.906249761581421,-10.559081077575684,-8.30078125,-0.8529052734375,0.4510498046875,0.0888671875
0.037,310,654,572,310,4.0,41.0,22.0,4.638671875,-10.681151390075684,-6.896972179412842,-0.860595703125,0.457275390625,0.0897216796875
0.046,310,639,571,309,4.0,41.0,22.0,4.57763671875,-10.986327171325684,-5.371093273162842,-0.8656005859375,0.4588623046875,0.0899658203125
0.074,309,620,575,309,4.0,41.0,22.0,3.967284917831421,-11.413573265075684,-3.723144292831421,-0.8668212890625,0.4505615234375,0.085693359375
0.108,309,609,573,309,4.0,41.0,22.0,3.601073980331421,-12.023924827575684,-1.8310545682907104,-0.8604736328125,0.4320068359375,0.080810546875
0.114,309,609,566,309,4.0,41.0,22.0,3.723144292831421,-13.061522483825684,0.1220703050494194,-0.84619140625,0.406982421875,0.079345703125
0.114,309,630,575,310,4.0,41.0,22.0,4.39453125,-14.648436546325684,2.197265625,-0.8223876953125,0.3818359375,0.0771484375
0.115,309,661,582,309,4.0,41.0,22.0,5.126952648162842,-16.7236328125,4.5166015625,-0.78369140625,0.3541259765625,0.079345703125
0.115,309,697,593,309,4.0,41.0,22.0,4.94384765625,-19.287109375,6.774901866912842,-0.724853515625,0.326171875,0.0943603515625
0.132,309,790,607,309,4.0,41.0,22.0,3.479003667831421,-22.399900436401367,8.11767578125,-0.5703125,0.2882080078125,0.126708984375
0.135,310,848,619,310,4.0,39.0,21.0,2.197265625,-26.123044967651367,7.995604991912842,-0.5703125,0.2882080078125,0.126708984375
0.137,309,923,654,309,4.0,39.0,21.0,3.112792730331421,-30.456541061401367,6.958007335662842,-0.41015625,0.27294921875,0.0810546875
0.150,309,1104,761,310,4.0,39.0,21.0,5.615233898162842,-35.2783203125,3.845214605331421,0.154296875,0.26513671875,0.0618896484375
0.158,311,1239,822,311,4.0,39.0,21.0,10.681151390075684,-40.161128997802734,-4.82177734375,0.154296875,0.26513671875,0.0618896484375
0.169,311,1344,882,309,4.0,39.0,21.0,21.484373092651367,-43.029781341552734,-22.094724655151367,0.5426025390625,0.2945556640625,0.0487060546875
0.180,309,1497,939,310,4.0,39.0,21.0,31.982419967651367,-46.020503997802734,-47.607418060302734,0.7205810546875,0.4898681640625,0.052490234375
0.197,311,1573,996,309,4.0,39.0,21.0,31.372068405151367,-54.870601654052734,-75.8056640625,0.7205810546875,0.4898681640625,0.052490234375
0.198,310,1643,1226,311,4.0,39.0,21.0,19.83642578125,-65.36865234375,-99.42626190185547,0.23046875,0.859375,0.1322021484375
0.236,311,1676,1994,311,4.0,39.0,21.0,-72.265625,-61.279293060302734,-120.78856658935547,-2.2305908203125,1.5963134765625,0.0137939453125
0.236,309,1676,2100,311,8.0,35.0,23.0,-172.60740661621094,-62.988277435302734,-112.79296112060547,-3.38720703125,0.753173828125,0.08154296875
0.241,311,1703,2120,311,8.0,35.0,23.0,-254.15037536621094,-67.7490234375,-73.54736328125,-3.720703125,-0.490478515625,0.16455078125
0.251,311,1730,2108,310,8.0,35.0,23.0,-228.75975036621094,-71.71630859375,-22.583005905151367,-2.8583984375,-1.3133544921875,0.331298828125
0.256,310,1735,1989,311,8.0,35.0,23.0,-102.96630096435547,-69.580078125,8.4228515625,-1.4727783203125,-1.32470703125,0.6683349609375
0.270,311,1725,1750,310,8.0,35.0,23.0,34.85107421875,-59.387203216552734,19.1650390625,-0.6590576171875,-0.3433837890625,1.0115966796875
0.278,310,1711,1700,311,8.0,35.0,23.0,110.71776580810547,-32.2265625,21.606443405151367,-0.50634765625,0.911865234375,0.9423828125
0.291,310,1689,1738,311,8.0,35.0,23.0,105.40770721435547,15.075682640075684,16.6015625,-0.6697998046875,1.505615234375,0.4912109375
0.301,309,1640,1735,311,8.0,35.0,23.0,61.828609466552734,51.696773529052734,5.859374523162842,-1.0584716796875,1.4686279296875,0.0810546875
0.335,309,1580,1676,312,8.0,35.0,23.0,24.047849655151367,52.673336029052734,-4.39453125,-1.581787109375,1.18603515625,-0.07861328125
0.336,297,1508,1615,310,8.0,35.0,23.0,0.0610351525247097,28.198240280151367,-8.1787109375,-1.8983154296875,0.82080078125,0.003662109375
0.337,310,1385,1469,310,8.0,36.0,20.0,-11.657713890075684,1.3427733182907104,-5.432128429412842,-1.85888671875,0.4281005859375,0.2432861328125
0.338,309,1331,1365,309,8.0,36.0,20.0,-8.9111328125,-15.319823265075684,0.1220703050494194,-1.587646484375,0.1199951171875,0.472900390625
0.350,310,1285,1275,310,8.0,36.0,20.0,6.652831554412842,-19.34814453125,7.751464366912842,-1.2501220703125,0.030517578125,0.5523681640625
0.361,309,1194,1104,310,8.0,36.0,20.0,26.672361373901367,-13.854979515075684,16.845703125,-0.941650390625,0.1007080078125,0.4901123046875
0.370,309,1117,1010,310,8.0,36.0,20.0,39.97802734375,-2.990722417831421,22.521970748901367,-0.742431640625,0.1751708984375,0.3480224609375
0.377,310,1039,954,310,8.0,36.0,20.0,44.250484466552734,12.207030296325684,22.460935592651367,-0.6339111328125,0.2308349609375,0.1951904296875
0.393,309,916,869,309,8.0,36.0,20.0,42.724605560302734,29.541013717651367,17.27294921875,-0.5372314453125,0.2386474609375,0.122802734375
0.400,309,861,829,310,8.0,36.0,20.0,38.330078125,44.006343841552734,7.019042491912842,-0.4854736328125,0.1787109375,0.1201171875
0.412,307,792,787,309,8.0,36.0,20.0,33.935546875,53.527828216552734,-6.896972179412842,-0.5142822265625,0.134521484375,0.111083984375
0.436,309,654,726,309,7.0,35.0,27.0,29.418943405151367,58.349605560302734,-20.263669967651367,-0.5576171875,0.15869140625,0.078857421875
0.439,310,616,683,309,7.0,35.0,27.0,25.451658248901367,57.983394622802734,-28.137205123901367,-0.563232421875,0.2474365234375,0.0296630859375
0.440,309,591,653,310,7.0,35.0,27.0,25.024412155151367,52.124019622802734,-28.381345748901367,-0.550537109375,0.38037109375,-0.022705078125
0.451,309,518,625,310,7.0,35.0,27.0,25.817869186401367,42.297359466552734,-23.864744186401367,-0.5653076171875,0.5316162109375,-0.051025390625
0.459,309,495,612,307,7.0,35.0,27.0,22.094724655151367,31.005857467651367,-18.6767578125,-0.5889892578125,0.6312255859375,-0.0350341796875
0.469,309,473,589,311,7.0,35.0,27.0,13.305663108825684,19.71435546875,-15.441893577575684,-0.60498046875,0.6043701171875,0.025634765625
0.480,309,461,577,309,7.0,35.0,27.0,3.662109136581421,9.033203125,-14.709471702575684,-0.637451171875,0.4593505859375,0.1065673828125
0.489,309,446,575,309,7.0,35.0,27.0,0.3662109076976776,1.03759765625,-16.05224609375,-0.6671142578125,0.296875,0.1414794921875
0.501,309,441,582,310,7.0,35.0,27.0,5.981444835662842,-1.9531248807907104,-16.17431640625,-0.6834716796875,0.2154541015625,0.113525390625
0.512,309,452,593,309,7.0,35.0,27.0,12.939452171325684,-2.807616949081421,-11.779784202575684,-0.70068359375,0.199951171875,0.089111328125
0.549,309,465,599,308,8.0,35.0,24.0,13.549803733825684,-5.493163585662842,-3.601073980331421,-0.7176513671875,0.19873046875,0.10009765625
0.550,309,480,590,308,8.0,35.0,24.0,7.568358898162842,-10.192870140075684,5.615233898162842,-0.7252197265625,0.1893310546875,0.125732421875
0.550,311,542,610,309,8.0,35.0,24.0,-0.4882812201976776,-15.502928733825684,14.404295921325684,-0.72021484375,0.1549072265625,0.132568359375
0.550,308,600,631,309,8.0,35.0,24.0,-5.981444835662842,-21.118162155151367,23.132322311401367,-0.6728515625,0.0845947265625,0.100341796875
0.556,309,673,657,309,8.0,35.0,24.0,-7.934569835662842,-26.733396530151367,32.1044921875,-0.52587890625,-0.0125732421875,0.0526123046875
0.573,309,837,792,309,8.0,35.0,24.0,-7.141112804412842,-31.799314498901367,38.4521484375,-0.266845703125,-0.0570068359375,0.0474853515625
0.579,309,985,861,309,8.0,35.0,24.0,-2.25830078125,-37.41455078125,36.4990234375,0.0401611328125,0.0364990234375,0.1280517578125
0.589,309,1153,928,310,8.0,35.0,24.0,10.681151390075684,-43.945308685302734,22.033689498901367,0.30712890625,0.2249755859375,0.1893310546875
0.609,309,1361,1115,310,8.0,35.0,24.0,31.860349655151367,-45.898433685302734,-1.5869139432907104,0.479736328125,0.5479736328125,0.1041259765625
0.610,309,1467,1333,309,8.0,35.0,24.0,49.194332122802734,-40.832515716552734,-31.616209030151367,0.5921630859375,0.9140625,0.0592041015625
0.618,309,1548,1573,311,7.0,36.0,27.0,44.433589935302734,-30.883787155151367,-71.044921875,0.4493408203125,1.1412353515625,0.2689208984375
0.651,309,1642,2119,311,7.0,36.0,27.0,2.563476324081421,-21.240232467651367,-109.55809783935547,-0.2122802734375,1.2615966796875,0.56884765625
0.652,310,1611,2308,309,7.0,36.0,27.0,-79.52880859375,-18.1884765625,-132.01904296875,-1.318359375,1.0460205078125,0.6480712890625
0.653,310,1620,2428,311,7.0,36.0,27.0,-172.42430114746094,-24.353025436401367,-134.8876953125,-2.4835205078125,0.3131103515625,0.4498291015625
0.660,310,1643,2500,311,7.0,36.0,27.0,-206.90916442871094,-33.69140625,-115.84471893310547,-3.2474365234375,-0.580078125,0.1400146484375
0.672,311,1655,2414,310,7.0,36.0,27.0,-137.14599609375,-38.818359375,-77.880859375,-3.4229736328125,-0.959716796875,0.0096435546875
0.676,309,1662,2360,311,7.0,36.0,27.0,-16.90673828125,-45.898433685302734,-33.87451171875,-2.685302734375,-0.820556640625,0.215087890625
0.690,309,1655,2214,311,7.0,36.0,27.0,68.7255859375,-40.710445404052734,-0.54931640625,-1.4344482421875,-0.5516357421875,0.5244140625
0.699,310,1671,2204,311,7.0,36.0,27.0,99.48729705810547,-14.221190452575684,17.02880859375,-0.69140625,0.0550537109375,0.7484130859375
0.716,311,1670,2175,310,7.0,36.0,27.0,86.66991424560547,15.258788108825684,27.404783248901367,-0.8397216796875,0.945068359375,0.6702880859375
0.720,310,1595,2098,311,10.0,31.0,26.0,48.339839935302734,32.1044921875,33.5693359375,-1.53759765625,1.5850830078125,0.3507080078125
0.732,310,1506,2026,311,10.0,31.0,26.0,7.141112804412842,30.822751998901367,31.677244186401367,-2.071533203125,1.5628662109375,0.091796875
0.759,311,1424,1913,311,10.0,31.0,26.0,-23.193357467651367,19.47021484375,23.315427780151367,-2.116455078125,0.949462890625,0.03076171875
0.760,312,1292,1625,311,10.0,31.0,26.0,-31.494138717651367,6.652831554412842,16.11328125,-1.7996826171875,0.2606201171875,0.189208984375
0.760,310,1211,1464,311,10.0,31.0,26.0,-17.7001953125,-1.0986328125,14.465331077575684,-1.392333984375,-0.07568359375,0.3660888671875
0.771,308,1133,1294,311,10.0,31.0,26.0,4.57763671875,-0.7324218153953552,18.1884765625,-1.031494140625,-0.0972900390625,0.4493408203125
0.780,307,1005,1070,311,10.0,31.0,26.0,22.766111373901367,6.347655773162842,21.789548873901367,-0.767578125,-0.0450439453125,0.3975830078125
0.792,309,918,963,311,10.0,31.0,26.0,35.15625,18.61572265625,20.324705123901367,-0.5792236328125,0.01708984375,0.23046875
0.796,309,828,897,311,10.0,31.0,26.0,44.555660247802734,32.8369140625,14.221190452575684,-0.4315185546875,0.0594482421875,0.1058349609375
0.820,309,694,788,310,9.0,34.0,26.0,51.025386810302734,42.053218841552734,4.7607421875,-0.3656005859375,0.0511474609375,0.0831298828125
0.849,310,630,734,309,9.0,34.0,26.0,51.879878997802734,44.982906341552734,-7.263183116912842,-0.3651123046875,0.0301513671875,0.08056640625
0.850,310,572,664,309,9.0,34.0,26.0,47.424312591552734,45.898433685302734,-18.85986328125,-0.3704833984375,0.0792236328125,0.0635986328125
0.855,310,473,629,309,9.0,34.0,26.0,41.992183685302734,45.043941497802734,-24.047849655151367,-0.385986328125,0.228759765625,0.050537109375
0.856,309,441,607,309,9.0,34.0,26.0,37.78076171875,40.10009765625,-19.6533203125,-0.44091796875,0.4505615234375,0.05224609375
0.857,309,447,590,307,9.0,34.0,26.0,31.372068405151367,30.700681686401367,-9.8876953125,-0.515869140625,0.6138916015625,0.0516357421875
0.872,307,436,593,309,9.0,34.0,26.0,20.690916061401367,19.59228515625,-4.33349609375,-0.5538330078125,0.5755615234375,0.0364990234375
0.879,309,436,601,309,9.0,34.0,26.0,11.352538108825684,10.253905296325684,-5.065917491912842,-0.569580078125,0.4173583984375,0.0186767578125
0.889,433,435,603,605,9.0,34.0,26.0,6.469726085662842,2.50244140625,-4.7607421875,-0.5970458984375,0.255615234375,0.0443115234375
0.901,308,431,616,309,9.0,34.0,26.0,1.8920897245407104,-5.737304210662842,0.6713866591453552,-0.618408203125,0.12255859375,0.1102294921875
0.910,439,447,614,619,11.0,33.0,25.0,-4.5166015625,-12.817381858825684,9.33837890625,-0.629638671875,0.0289306640625,0.1390380859375
0.916,309,479,618,310,11.0,33.0,25.0,-9.09423828125,-16.7236328125,18.49365234375,-0.63818359375,-0.03271484375,0.1019287109375
0.953,309,572,667,309,11.0,33.0,25.0,-6.469726085662842,-19.6533203125,26.916501998901367,-0.6414794921875,-0.050048828125,0.0362548828125
0.954,310,625,734,311,11.0,33.0,25.0,5.126952648162842,-25.451658248901367,34.912109375,-0.5718994140625,-0.025146484375,0.0126953125
0.954,309,710,820,309,11.0,33.0,25.0,21.789548873901367,-35.64453125,41.748043060302734,-0.3812255859375,0.0169677734375,0.020751953125
0.961,308,916,957,310,11.0,33.0,25.0,38.0859375,-47.424312591552734,44.189449310302734,-0.1324462890625,0.1131591796875,-0.003662109375
0.969,310,1073,1018,310,11.0,33.0,25.0,46.569820404052734,-57.861324310302734,39.306640625,0.1202392578125,0.32861328125,0.0048828125
0.976,309,1201,1185,311,11.0,33.0,25.0,43.640132904052734,-63.842769622802734,27.465818405151367,0.376220703125,0.646484375,0.1109619140625
0.991,311,1415,1610,310,11.0,33.0,25.0,33.5693359375,-59.753414154052734,8.544921875,0.6591796875,0.9068603515625,0.3160400390625
0.998,311,1506,2007,311,11.0,33.0,25.0,14.953612327575684,-43.457027435302734,-22.583005905151367,0.7747802734375,0.9910888671875,0.5687255859375
1.010,313,1540,2275,311,10.0,35.0,26.0,-25.939939498901367,-21.911619186401367,-64.14794921875,0.267578125,0.8526611328125,0.7410888671875
1.020,310,1620,2563,311,10.0,35.0,26.0,-93.38378143310547,-6.958007335662842,-102.23387908935547,-0.9510498046875,0.3931884765625,0.5760498046875
1.032,311,1666,2660,311,10.0,35.0,26.0,-152.7099609375,0.9155272841453552,-116.14989471435547,-2.386474609375,-0.3046875,0.1148681640625
1.054,311,1709,2724,311,10.0,35.0,26.0,-146.1181640625,-1.220703125,-93.20067596435547,-3.372314453125,-0.7275390625,-0.1531982421875
1.055,309,1750,2708,311,10.0,35.0,26.0,-73.2421875,-20.751951217651367,-45.654293060302734,-3.6722412109375,-0.4742431640625,-0.0450439453125
1.059,311,1752,2667,311,10.0,35.0,26.0,-0.2441406100988388,-44.982906341552734,3.967284917831421,-3.1378173828125,0.02294921875,0.2620849609375
1.071,309,1757,2635,314,10.0,35.0,26.0,29.418943405151367,-47.241207122802734,38.87939453125,-1.85888671875,0.0352783203125,0.514892578125
1.080,312,1703,2481,311,10.0,35.0,26.0,38.2080078125,-27.099607467651367,52.185054779052734,-0.801025390625,0.19482421875,0.75390625
1.096,309,1709,2492,309,10.0,35.0,26.0,44.799800872802734,-0.9765624403953552,47.912593841552734,-0.523681640625,0.9176025390625,0.8302001953125
1.097,310,1669,2488,310,10.0,35.0,26.0,34.3017578125,28.991697311401367,30.273435592651367,-0.9510498046875,1.49072265625,0.5965576171875
1.111,311,1573,2389,310,8.0,34.0,22.0,14.526366233825684,46.813961029052734,7.080077648162842,-1.7044677734375,1.5782470703125,0.330322265625
1.118,310,1480,2328,311,8.0,34.0,22.0,-4.150390625,41.870113372802734,-11.352538108825684,-2.1656494140625,1.0667724609375,0.1669921875
1.157,311,1388,2213,311,8.0,34.0,22.0,-15.747069358825684,26.428220748901367,-19.8974609375,-2.172119140625,0.412841796875,0.19384765625
1.169,310,1234,1957,311,8.0,34.0,22.0,-9.82666015625,9.58251953125,-17.4560546875,-1.8846435546875,0.0733642578125,0.3485107421875
1.169,314,1145,1738,311,8.0,34.0,22.0,6.774901866912842,-0.0610351525247097,-7.934569835662842,-1.505126953125,0.0069580078125,0.4522705078125
1.169,310,1083,1519,309,8.0,34.0,22.0,22.766111373901367,3.295898199081421,3.784179449081421,-1.1343994140625,0.01953125,0.425048828125
1.170,310,955,1142,310,8.0,34.0,22.0,30.761716842651367,15.747069358825684,13.244627952575684,-0.804931640625,-0.0684814453125,0.291748046875
1.178,310,883,1012,310,8.0,34.0,22.0,31.372068405151367,29.541013717651367,17.333984375,-0.5213623046875,-0.173828125,0.1392822265625
1.188,310,780,925,311,8.0,34.0,22.0,31.249998092651367,40.344234466552734,16.05224609375,-0.3095703125,-0.153076171875,0.0706787109375
1.201,309,638,794,311,9.0,32.0,27.0,32.5927734375,46.936031341552734,10.375975608825684,-0.2420654296875,-0.06298828125,0.0748291015625
1.210,308,566,750,311,9.0,32.0,27.0,32.71484375,51.879878997802734,0.1831054538488388,-0.2296142578125,-0.021484375,0.062744140625
1.219,309,508,710,309,9.0,32.0,27.0,29.174802780151367,56.823726654052734,-12.695311546325684,-0.2218017578125,0.0205078125,0.04296875
1.231,309,453,656,309,9.0,32.0,27.0,25.329587936401367,56.518550872802734,-21.423337936401367,-0.279052734375,0.1907958984375,0.030029296875
1.259,309,464,636,309,9.0,32.0,27.0,24.169919967651367,49.438472747802734,-20.080564498901367,-0.3887939453125,0.4674072265625,-0.00048828125
1.263,310,452,617,309,9.0,32.0,27.0,18.5546875,38.57421875,-10.559081077575684,-0.4925537109375,0.6851806640625,-0.0343017578125
1.271,309,449,627,310,9.0,32.0,27.0,4.21142578125,26.184080123901367,-1.220703125,-0.5286865234375,0.680908203125,-0.0504150390625
1.272,310,431,630,309,9.0,32.0,27.0,-8.544921875,14.892577171325684,3.051757574081421,-0.5244140625,0.494140625,-0.0465087890625
1.277,309,437,633,309,9.0,32.0,27.0,-8.544921875,14.892577171325684,3.051757574081421,-0.537353515625,0.2589111328125,-0.0078125
1.290,309,445,638,310,9.0,32.0,27.0,-14.587401390075684,-2.01416015625,11.779784202575684,-0.5684814453125,0.042236328125,0.06005859375
1.298,309,483,631,631,8.0,35.0,24.0,-16.11328125,-6.896972179412842,19.34814453125,-0.615966796875,-0.086669921875,0.1160888671875
1.309,521,531,652,654,8.0,35.0,24.0,-16.11328125,-6.896972179412842,19.34814453125,-0.675537109375,-0.084228515625,0.1396484375
1.323,309,590,711,309,8.0,35.0,24.0,-11.718749046325684,-12.207030296325684,38.57421875,-0.72119140625,0.0093994140625,0.1446533203125
1.329,309,642,775,310,8.0,35.0,24.0,-7.690429210662842,-15.930174827575684,48.828121185302734,-0.7178955078125,0.0955810546875,0.1427001953125
1.337,310,729,823,311,8.0,35.0,24.0,-7.690429210662842,-15.930174827575684,48.828121185302734,-0.6290283203125,0.1224365234375,0.09326171875
1.376,311,858,922,309,8.0,35.0,24.0,-5.065917491912842,-30.151365280151367,61.828609466552734,-0.4306640625,0.1544189453125,-0.0009765625
1.377,310,985,994,310,8.0,35.0,24.0,-2.13623046875,-42.785640716552734,58.654781341552734,-0.1063232421875,0.25244140625,-0.082763671875
1.377,309,1139,1166,310,8.0,35.0,24.0,-2.13623046875,-42.785640716552734,58.654781341552734,0.2239990234375,0.4774169921875,-0.13232421875
1.380,309,1339,1506,311,8.0,35.0,24.0,12.817381858825684,-61.523433685302734,22.644041061401367,0.447021484375,0.82275390625,0.0460205078125
1.389,310,1444,1820,311,8.0,35.0,24.0,15.075682640075684,-60.119625091552734,-8.6669921875,0.60205078125,1.057373046875,0.48193359375
1.397,309,1529,2161,311,10.0,33.0,28.0,15.075682640075684,-60.119625091552734,-8.6669921875,0.4227294921875,0.9188232421875,0.6925048828125
1.411,312,1648,2505,310,10.0,33.0,28.0,-58.959957122802734,-23.559568405151367,-94.11620330810547,-0.39208984375,0.4156494140625,0.5374755859375
1.418,310,1667,2627,311,10.0,33.0,28.0,-110.10741424560547,-13.916014671325684,-115.53954315185547,-1.5987548828125,-0.2337646484375,0.2825927734375
1.434,311,1721,2715,311,10.0,33.0,28.0,-110.10741424560547,-13.916014671325684,-115.53954315185547,-2.62939453125,-0.6812744140625,0.13623046875
1.470,310,1781,2770,311,10.0,33.0,28.0,-62.744136810302734,-33.38623046875,-61.218257904052734,-3.1884765625,-0.555419921875,0.2279052734375
1.471,310,1798,2709,311,10.0,33.0,28.0,-5.493163585662842,-46.569820404052734,-11.596678733825684,-3.26513671875,0.0323486328125,0.4737548828125
1.472,311,1803,2668,311,10.0,33.0,28.0,-5.493163585662842,-46.569820404052734,-11.596678733825684,-2.5447998046875,0.306396484375,0.6046142578125
1.472,309,1791,2552,310,10.0,33.0,28.0,32.71484375,-22.705076217651367,53.710933685302734,-1.40283203125,0.218994140625,0.56201171875
1.479,311,1763,2491,311,10.0,33.0,28.0,41.931148529052734,4.08935546875,48.217769622802734,-0.7413330078125,0.5621337890625,0.5611572265625
1.489,311,1750,2514,311,10.0,33.0,28.0,41.931148529052734,4.08935546875,48.217769622802734,-0.8455810546875,1.236572265625,0.491943359375
1.510,309,1666,2461,311,8.0,34.0,30.0,42.114253997802734,34.72900390625,1.8920897245407104,-1.5399169921875,1.7174072265625,0.3126220703125
1.511,310,1567,2410,311,8.0,34.0,30.0,18.49365234375,33.26416015625,-16.90673828125,-2.157958984375,1.5216064453125,0.1630859375
1.518,311,1469,2339,311,8.0,34.0,30.0,18.49365234375,33.26416015625,-16.90673828125,-2.273193359375,0.7366943359375,0.1519775390625
1.530,311,1303,2091,310,8.0,34.0,30.0,-12.939452171325684,5.920409679412842,-26.184080123901367,-2.0216064453125,0.104248046875,0.3372802734375
1.538,310,1199,1894,311,8.0,34.0,30.0,-0.2441406100988388,-4.638671875,-15.258788108825684,-1.630126953125,-0.11181640625,0.510498046875
1.548,309,1093,1689,310,8.0,34.0,30.0,-0.2441406100988388,-4.638671875,-15.258788108825684,-1.246337890625,-0.075927734375,0.5303955078125
1.572,310,931,1232,310,8.0,34.0,30.0,28.991697311401367,11.596678733825684,16.357421875,-0.92236328125,-0.0838623046875,0.3868408203125
1.577,308,841,1078,296,8.0,34.0,30.0,31.433103561401367,24.963376998901367,25.634763717651367,-0.6295166015625,-0.190185546875,0.16552734375
1.578,309,734,953,310,8.0,34.0,30.0,31.433103561401367,24.963376998901367,25.634763717651367,-0.377197265625,-0.2294921875,0.014404296875
1.590,309,562,806,308,8.0,34.0,30.0,32.53173828125,41.076656341552734,22.644041061401367,-0.2354736328125,-0.20458984375,-0.0224609375
1.598,309,466,723,310,10.0,32.0,27.0,34.1796875,44.128414154052734,10.864256858825684,-0.1612548828125,-0.1610107421875,0.0052490234375
1.610,309,450,684,310,10.0,32.0,27.0,34.1796875,44.128414154052734,10.864256858825684,-0.14697265625,-0.024169921875,0.0634765625
1.621,309,451,612,310,10.0,32.0,27.0,35.400390625,49.072261810302734,-17.02880859375,-0.251220703125,0.2835693359375,0.096435546875
1.629,309,453,612,311,10.0,32.0,27.0,35.70556640625,43.212886810302734,-21.728513717651367,-0.38916015625,0.6021728515625,0.056640625
1.636,309,451,614,310,10.0,32.0,27.0,35.70556640625,43.212886810302734,-21.728513717651367,-0.4403076171875,0.7191162109375,-0.0419921875
1.681,309,445,620,309,10.0,32.0,27.0,8.72802734375,17.39501953125,-10.070799827575684,-0.3846435546875,0.57421875,-0.0970458984375
1.683,309,441,625,309,10.0,32.0,27.0,8.72802734375,17.39501953125,-10.070799827575684,-0.3875732421875,0.396240234375,-0.0216064453125
1.683,309,437,629,309,10.0,32.0,27.0,-6.958007335662842,0.6103515625,13.977049827575684,-0.421142578125,0.1920166015625,0.0599365234375
1.688,309,434,633,311,10.0,32.0,27.0,-21.057126998901367,-4.638671875,21.606443405151367,-0.4619140625,0.02294921875,0.13232421875
1.696,309,426,627,309,11.0,35.0,21.0,-21.057126998901367,-4.638671875,21.606443405151367,-0.5096435546875,-0.076904296875,0.1878662109375
1.711,309,463,660,309,11.0,35.0,21.0,-29.541013717651367,-6.225585460662842,29.113767623901367,-0.5498046875,-0.1031494140625,0.1986083984375
1.718,309,548,721,309,11.0,35.0,21.0,-15.441893577575684,-3.906249761581421,32.3486328125,-0.5947265625,-0.0079345703125,0.1710205078125
1.728,308,630,803,310,11.0,35.0,21.0,-15.441893577575684,-3.906249761581421,32.3486328125,-0.6390380859375,0.15283203125,0.1663818359375
1.740,309,756,899,310,11.0,35.0,21.0,-1.4648436307907104,-11.596678733825684,41.076656341552734,-0.603759765625,0.26318359375,0.129150390625
1.748,315,837,975,311,11.0,35.0,21.0,-5.920409679412842,-21.057126998901367,42.907711029052734,-0.4566650390625,0.3427734375,-0.03076171875
1.790,309,976,1141,311,11.0,35.0,21.0,-5.920409679412842,-21.057126998901367,42.907711029052734,-0.4566650390625,0.3427734375,-0.03076171875
1.791,310,1207,1431,310,11.0,35.0,21.0,-15.747069358825684,-44.799800872802734,27.770994186401367,-0.03857421875,0.6221923828125,-0.179443359375
1.792,297,1334,1632,311,11.0,35.0,21.0,-15.747069358825684,-44.799800872802734,27.770994186401367,0.2420654296875,0.800048828125,0.078369140625
1.793,309,1431,1884,311,11.0,35.0,21.0,-24.475095748901367,-57.739253997802734,10.803221702575684,0.2420654296875,0.800048828125,0.078369140625
1.800,311,1552,2362,311,10.0,32.0,24.0,-76.5380859375,-52.429195404052734,-53.710933685302734,0.222900390625,0.4921875,0.766845703125
1.809,310,1599,2532,311,10.0,32.0,24.0,-76.5380859375,-52.429195404052734,-53.710933685302734,-0.69775390625,0.0281982421875,0.7449951171875
1.817,310,1643,2645,311,10.0,32.0,24.0,-102.47801971435547,-32.77587890625,-87.64647674560547,-0.69775390625,0.0281982421875,0.7449951171875
1.830,310,1714,2745,311,10.0,32.0,24.0,-67.81005859375,-13.610838890075684,-80.078125,-2.8890380859375,-0.4698486328125,0.2418212890625
1.838,311,1745,2758,310,10.0,32.0,24.0,-67.81005859375,-13.610838890075684,-80.078125,-3.296142578125,-0.0391845703125,0.2537841796875
1.870,309,1750,2683,311,10.0,32.0,24.0,-12.939452171325684,-26.916501998901367,-45.288082122802734,-3.296142578125,-0.0391845703125,0.2537841796875
1.871,311,1752,2621,311,10.0,32.0,24.0,25.817869186401367,-29.235837936401367,21.606443405151367,-2.1640625,0.2852783203125,0.3760986328125
1.871,311,1709,2526,311,10.0,32.0,24.0,25.817869186401367,-29.235837936401367,21.606443405151367,-1.10302734375,0.1197509765625,0.5302734375
1.877,311,1703,2475,311,10.0,32.0,24.0,26.550291061401367,-8.7890625,35.400390625,-1.10302734375,0.1197509765625,0.5302734375
1.890,309,1656,2465,309,9.0,34.0,25.0,37.4755859375,33.50830078125,2.563476324081421,-1.1636962890625,1.3662109375,0.6881103515625
1.898,311,1590,2389,311,9.0,34.0,25.0,37.4755859375,33.50830078125,2.563476324081421,-1.98828125,1.6837158203125,0.4342041015625
1.911,311,1509,2316,311,9.0,34.0,25.0,25.756834030151367,48.400875091552734,-19.47021484375,-1.98828125,1.6837158203125,0.4342041015625
1.921,309,1348,2113,311,9.0,34.0,25.0,-5.371093273162842,30.822751998901367,-31.127927780151367,-2.17626953125,0.5828857421875,0.10888671875
1.930,310,1260,1949,311,9.0,34.0,25.0,-5.371093273162842,30.822751998901367,-31.127927780151367,-1.7384033203125,0.0792236328125,0.2445068359375
1.940,310,1129,1716,311,9.0,34.0,25.0,-3.417968511581421,15.197752952575684,-30.822751998901367,-1.7384033203125,0.0792236328125,0.2445068359375
1.961,311,991,1295,311,9.0,34.0,25.0,26.977537155151367,11.840819358825684,-19.1650390625,-0.8798828125,-0.13818359375,0.3922119140625
1.974,310,883,1088,311,9.0,34.0,25.0,26.977537155151367,11.840819358825684,-19.1650390625,-0.56103515625,-0.2340087890625,0.2667236328125
1.975,310,780,973,311,9.0,34.0,25.0,36.9873046875,24.414060592651367,-12.634276390075684,-0.56103515625,-0.2340087890625,0.2667236328125
1.981,309,630,815,311,9.0,34.0,25.0,41.259761810302734,46.203609466552734,-8.056640625,-0.24072265625,-0.2525634765625,0.01611328125
1.999,309,556,747,309,11.0,34.0,24.0,41.259761810302734,46.203609466552734,-8.056640625,-0.2188720703125,-0.2073974609375,-0.026123046875
2.000,311,482,689,310,11.0,34.0,24.0,40.771480560302734,48.339839935302734,-8.72802734375,-0.2188720703125,-0.2073974609375,-0.026123046875
2.013,309,469,638,307,11.0,34.0,24.0,30.639646530151367,45.288082122802734,-13.427733421325684,-0.2098388671875,0.012939453125,-0.0274658203125
2.020,309,477,633,309,11.0,34.0,24.0,30.639646530151367,45.288082122802734,-13.427733421325684,-0.29638671875,0.308349609375,-0.0101318359375
2.028,308,480,644,309,11.0,34.0,24.0,28.015134811401367,37.90283203125,-11.108397483825684,-0.29638671875,0.308349609375,-0.0101318359375
2.040,310,465,671,307,11.0,34.0,24.0,-3.479003667831421,15.258788108825684,5.0048828125,-0.4256591796875,0.5494384765625,-0.0736083984375
2.052,309,465,689,309,11.0,34.0,24.0,-3.479003667831421,15.258788108825684,5.0048828125,-0.4503173828125,0.4610595703125,-0.114501953125
2.061,309,461,687,310,11.0,34.0,24.0,-15.747069358825684,8.60595703125,14.892577171325684,-0.4503173828125,0.4610595703125,-0.114501953125
2.081,437,439,657,664,11.0,34.0,24.0,-8.7890625,-0.7324218153953552,33.203125,-0.498291015625,0.2030029296875,0.03564453125
2.081,455,465,711,715,11.0,34.0,24.0,-8.7890625,-0.7324218153953552,33.203125,-0.528564453125,0.060302734375,0.1253662109375
2.087,509,523,763,772,8.0,37.0,24.0,-8.4228515625,-6.225585460662842,37.29248046875,-0.528564453125,0.060302734375,0.1253662109375
2.100,607,627,832,309,8.0,37.0,24.0,-13.671874046325684,-11.901854515075684,40.832515716552734,-0.7130126953125,0.0572509765625,0.159912109375
2.112,309,666,873,310,8.0,37.0,24.0,-13.671874046325684,-11.901854515075684,40.832515716552734,-0.8238525390625,0.157470703125,0.17041015625
2.116,310,697,901,311,8.0,37.0,24.0,-11.779784202575684,-15.014647483825684,47.058101654052734,-0.8238525390625,0.157470703125,0.17041015625
2.132,310,792,976,310,8.0,37.0,24.0,-13.000487327575684,-30.456541061401367,67.81005859375,-0.7652587890625,0.234130859375,0.0211181640625
2.138,309,877,1078,310,8.0,37.0,24.0,-13.000487327575684,-30.456541061401367,67.81005859375,-0.567626953125,0.1649169921875,-0.1290283203125
2.161,309,996,1188,311,8.0,37.0,24.0,-13.549803733825684,-44.128414154052734,74.76806640625,-0.567626953125,0.1649169921875,-0.1290283203125
2.182,309,1196,1409,311,8.0,37.0,24.0,-5.920409679412842,-79.58984375,60.302730560302734,0.1138916015625,0.3687744140625,0.03857421875
2.182,309,1321,1535,311,8.0,37.0,24.0,-5.920409679412842,-79.58984375,60.302730560302734,0.521728515625,0.5584716796875,0.3082275390625
2.190,311,1417,1684,310,8.0,37.0,24.0,-4.45556640625,-85.87645721435547,33.69140625,0.521728515625,0.5584716796875,0.3082275390625
2.190,311,1552,2158,311,10.0,34.0,29.0,-28.930662155151367,-48.583980560302734,-46.264644622802734,0.53369140625,0.488525390625,0.788330078125
2.215,311,1634,2359,310,10.0,34.0,29.0,-28.930662155151367,-48.583980560302734,-46.264644622802734,-0.527587890625,0.19384765625,0.6103515625
2.223,309,1686,2473,311,10.0,34.0,29.0,-54.321285247802734,-16.4794921875,-80.62743377685547,-0.527587890625,0.19384765625,0.6103515625
2.229,311,1763,2587,311,10.0,34.0,29.0,-57.800289154052734,-15.869139671325684,-62.866207122802734,-3.1048583984375,-0.0115966796875,0.150146484375
2.230,310,1803,2600,311,10.0,34.0,29.0,-57.800289154052734,-15.869139671325684,-62.866207122802734,-3.6234130859375,0.2735595703125,0.3046875
2.236,311,1821,2502,311,10.0,34.0,29.0,-21.057126998901367,-43.151851654052734,-19.6533203125,-3.6234130859375,0.2735595703125,0.3046875
2.250,311,1844,2432,311,10.0,34.0,29.0,5.126952648162842,-59.204097747802734,20.629880905151367,-1.915283203125,0.080810546875,0.606689453125
2.281,310,1812,2310,312,10.0,34.0,29.0,13.183592796325684,-45.288082122802734,44.250484466552734,-1.915283203125,0.080810546875,0.606689453125
2.290,310,1792,2225,311,10.0,34.0,29.0,27.526853561401367,-15.197752952575684,44.189449310302734,-0.8331298828125,0.285400390625,0.7174072265625
2.291,310,1750,2299,311,12.0,33.0,28.0,47.668453216552734,12.145995140075684,25.268552780151367,-0.9923095703125,1.5770263671875,0.5416259765625
2.291,310,1694,2275,311,12.0,33.0,28.0,47.607418060302734,41.198726654052734,-3.112792730331421,-0.9923095703125,1.5770263671875,0.5416259765625
2.296,310,1621,2238,311,12.0,33.0,28.0,31.005857467651367,55.725093841552734,-27.587888717651367,-1.8721923828125,1.609619140625,0.26318359375
2.310,310,1471,2144,311,12.0,33.0,28.0,11.596678733825684,44.067378997802734,-36.9873046875,-2.24853515625,0.427490234375,0.0794677734375
2.318,309,1375,1969,311,12.0,33.0,28.0,1.4038084745407104,23.376462936401367,-33.203125,-2.24853515625,0.427490234375,0.0794677734375
2.336,310,1309,1777,311,12.0,33.0,28.0,6.958007335662842,5.0048828125,-24.047849655151367,-1.8353271484375,0.114013671875,0.3302001953125
2.340,310,1138,1444,310,12.0,33.0,28.0,19.10400390625,-3.662109136581421,-13.732909202575684,-1.0174560546875,0.06689453125,0.525634765625
2.348,309,1035,1259,311,12.0,33.0,28.0,32.65380859375,0.9765624403953552,-2.25830078125,-1.0174560546875,0.06689453125,0.525634765625
2.357,311,931,1063,309,12.0,33.0,28.0,42.053218841552734,13.549803733825684,7.812499523162842,-0.7252197265625,-0.0267333984375,0.3636474609375
2.388,309,745,901,310,12.0,33.0,28.0,42.358394622802734,26.733396530151367,12.145995140075684,-0.2860107421875,-0.189453125,0.041259765625
2.389,309,617,793,309,8.0,32.0,30.0,39.794921875,36.68212890625,9.70458984375,-0.2860107421875,-0.189453125,0.041259765625
2.390,309,572,710,310,8.0,32.0,30.0,39.306640625,42.358394622802734,1.220703125,-0.2237548828125,-0.13232421875,0.0267333984375
2.400,309,441,644,310,8.0,32.0,30.0,38.0859375,47.119136810302734,-12.207030296325684,-0.203857421875,0.03857421875,0.0582275390625
2.408,309,445,589,311,8.0,32.0,30.0,34.5458984375,52.246089935302734,-26.306150436401367,-0.203857421875,0.03857421875,0.0582275390625
2.416,309,441,593,309,8.0,32.0,30.0,32.65380859375,52.612300872802734,-34.1796875,-0.2890625,0.285400390625,0.060791015625
2.430,309,439,601,310,8.0,32.0,30.0,32.958984375,46.569820404052734,-32.04345703125,-0.5352783203125,0.727783203125,-0.064208984375
2.438,310,445,606,310,8.0,32.0,30.0,26.306150436401367,35.82763671875,-24.597166061401367,-0.5352783203125,0.727783203125,-0.064208984375
2.449,309,436,613,309,8.0,32.0,30.0,10.681151390075684,24.353025436401367,-18.310546875,-0.5384521484375,0.6240234375,-0.12548828125
2.461,309,428,625,309,8.0,32.0,30.0,-0.7324218153953552,16.357421875,-12.268065452575684,-0.49755859375,0.29296875,-0.079833984375
2.469,310,423,638,309,8.0,32.0,30.0,-2.929687261581421,9.521484375,-3.295898199081421,-0.49755859375,0.29296875,-0.079833984375
2.488,310,420,631,310,9.0,36.0,26.0,-5.554198741912842,1.220703125,7.019042491912842,-0.4757080078125,0.1300048828125,0.027587890625
2.493,309,433,659,309,9.0,36.0,26.0,-13.977049827575684,-6.408690929412842,16.05224609375,-0.4688720703125,-0.15283203125,0.113525390625
2.499,309,463,706,307,9.0,36.0,26.0,-22.338865280151367,-11.291502952575684,23.681638717651367,-0.4688720703125,-0.15283203125,0.113525390625
2.509,309,547,780,309,9.0,36.0,26.0,-21.606443405151367,-14.038084983825684,31.372068405151367,-0.4798583984375,-0.181396484375,0.0853271484375
2.529,309,684,868,310,9.0,36.0,26.0,-11.718749046325684,-18.1884765625,39.73388671875,-0.5587158203125,0.1197509765625,0.0714111328125
2.530,308,767,899,311,9.0,36.0,26.0,-2.50244140625,-28.320310592651367,47.058101654052734,-0.5587158203125,0.1197509765625,0.0714111328125
2.536,310,869,1009,312,9.0,36.0,26.0,-0.30517578125,-41.931148529052734,51.757808685302734,-0.480712890625,0.311279296875,0.068359375
2.550,310,1083,1289,311,9.0,36.0,26.0,-5.554198741912842,-51.391597747802734,50.231929779052734,-0.128662109375,0.6578369140625,0.0433349609375
2.588,310,1178,1458,311,9.0,36.0,26.0,-15.197752952575684,-56.152339935302734,38.818359375,-0.128662109375,0.6578369140625,0.0433349609375
2.589,310,1276,1628,311,9.0,36.0,26.0,-25.268552780151367,-59.326168060302734,19.775390625,0.041748046875,0.8533935546875,0.2147216796875
2.592,309,1440,2010,311,8.0,34.0,26.0,-41.198726654052734,-56.274410247802734,-5.676269054412842,0.251708984375,0.6607666015625,0.619873046875
2.593,309,1521,2266,311,8.0,34.0,26.0,-65.12451171875,-42.968746185302734,-40.466304779052734,0.251708984375,0.6607666015625,0.619873046875
2.597,311,1573,2424,311,8.0,34.0,26.0,-90.33202362060547,-25.329587936401367,-75.68359375,-0.41943359375,0.2138671875,0.5390625
2.611,310,1625,2568,311,8.0,34.0,26.0,-106.62841033935547,-14.221190452575684,-90.88134002685547,-2.434326171875,-0.4862060546875,0.262939453125
2.618,310,1666,2622,312,8.0,34.0,26.0,-97.04589080810547,-16.78466796875,-77.57568359375,-2.434326171875,-0.4862060546875,0.262939453125
2.629,310,1700,2638,311,8.0,34.0,26.0,-56.701656341552734,-31.433103561401367,-48.156734466552734,-2.984130859375,-0.2572021484375,0.333984375
2.640,309,1730,2484,310,8.0,34.0,26.0,-7.690429210662842,-47.668453216552734,-17.08984375,-2.4781494140625,0.3074951171875,0.5428466796875
2.649,310,1727,2469,311,8.0,34.0,26.0,21.240232467651367,-47.851558685302734,10.498045921325684,-2.4781494140625,0.3074951171875,0.5428466796875
2.657,310,1689,2402,310,8.0,34.0,26.0,28.869626998901367,-23.803709030151367,27.893064498901367,-1.4666748046875,0.07470703125,0.5440673828125
2.676,311,1655,2301,311,10.0,33.0,24.0,36.865234375,4.8828125,28.076169967651367,-0.6927490234375,0.946533203125,0.7344970703125
2.694,311,1617,2335,311,10.0,33.0,24.0,44.311519622802734,29.113767623901367,11.108397483825684,-0.6927490234375,0.946533203125,0.7344970703125
2.694,310,1565,2319,311,10.0,33.0,24.0,38.87939453125,54.504390716552734,-14.709471702575684,-1.2440185546875,1.4161376953125,0.551513671875
2.700,309,1464,2206,311,10.0,33.0,24.0,28.137205123901367,61.950679779052734,-33.50830078125,-2.2645263671875,1.0548095703125,0.130615234375
2.709,311,1366,2105,311,10.0,33.0,24.0,17.9443359375,46.325679779052734,-38.330078125,-2.2645263671875,1.0548095703125,0.130615234375
2.716,311,1289,1965,311,10.0,33.0,24.0,11.718749046325684,24.963376998901367,-35.09521484375,-2.0521240234375,0.443359375,0.1163330078125
2.736,310,1115,1686,311,10.0,33.0,24.0,14.160155296325684,10.009765625,-30.395505905151367,-1.596435546875,-0.002197265625,0.2391357421875
2.738,309,1037,1497,311,10.0,33.0,24.0,23.498533248901367,5.859374523162842,-24.353025436401367,-1.1541748046875,-0.1650390625,0.3687744140625
2.748,310,944,1262,309,10.0,33.0,24.0,34.5458984375,10.986327171325684,-14.526366233825684,-0.8236083984375,-0.197265625,0.40087890625
2.761,309,794,982,310,10.0,33.0,24.0,38.75732421875,22.277830123901367,-4.0283203125,-0.596435546875,-0.2374267578125,0.2960205078125
2.808,309,695,907,311,8.0,34.0,25.0,36.2548828125,33.99658203125,3.295898199081421,-0.4429931640625,-0.260986328125,0.16162109375
2.809,309,645,814,310,8.0,34.0,25.0,35.15625,39.6728515625,6.835937023162842,-0.38330078125,-0.232666015625,0.0849609375
2.809,311,517,710,309,8.0,34.0,25.0,37.4755859375,38.63525390625,7.873534679412842,-0.3963623046875,-0.1683349609375,0.0267333984375
2.809,309,481,679,309,8.0,34.0,25.0,39.00146484375,37.53662109375,7.629394054412842,-0.3482666015625,-0.0709228515625,-0.04150390625
2.810,310,464,657,309,8.0,34.0,25.0,40.161128997802734,39.12353515625,7.385253429412842,-0.238525390625,0.104248046875,-0.075927734375
2.820,309,472,631,309,8.0,34.0,25.0,41.503902435302734,37.109375,6.958007335662842,-0.206298828125,0.3385009765625,-0.0673828125
2.828,309,467,643,309,8.0,34.0,25.0,34.36279296875,28.259275436401367,7.202147960662842,-0.2452392578125,0.5328369140625,-0.035400390625
2.842,309,478,683,310,8.0,34.0,25.0,15.563963890075684,18.12744140625,10.192870140075684,-0.2880859375,0.5784912109375,-0.0142822265625
2.850,314,500,738,309,8.0,34.0,25.0,-1.5258787870407104,11.352538108825684,15.991209983825684,-0.3548583984375,0.48779296875,-0.01806640625
2.859,309,533,763,309,8.0,34.0,25.0,-6.652831554412842,5.493163585662842,22.583005905151367,-0.457275390625,0.3482666015625,0.007568359375
2.872,310,566,799,310,9.0,33.0,26.0,-5.798339366912842,-2.197265625,26.977537155151367,-0.5531005859375,0.2230224609375,0.0694580078125
2.899,309,654,846,309,9.0,33.0,26.0,-7.690429210662842,-9.1552734375,28.808591842651367,-0.60888671875,0.1434326171875,0.105224609375
2.900,310,706,871,310,9.0,33.0,26.0,-11.169432640075684,-12.878417015075684,30.456541061401367,-0.65185546875,0.1287841796875,0.0936279296875
2.901,309,741,904,310,9.0,33.0,26.0,-13.183592796325684,-16.05224609375,34.0576171875,-0.7105712890625,0.1650390625,0.089111328125
2.910,309,846,1010,310,9.0,33.0,26.0,-14.587401390075684,-21.972654342651367,39.6728515625,-0.74267578125,0.2020263671875,0.0875244140625
2.918,311,929,1087,311,9.0,33.0,26.0,-16.54052734375,-30.517576217651367,45.837398529052734,-0.70703125,0.22119140625,0.01708984375
2.928,309,1039,1175,311,9.0,33.0,26.0,-17.51708984375,-41.992183685302734,50.476070404052734,-0.5926513671875,0.2249755859375,-0.04052734375
2.940,310,1260,1384,310,9.0,33.0,26.0,-14.709471702575684,-56.579586029052734,50.476070404052734,-0.3045654296875,0.2340087890625,-0.014892578125
2.949,309,1362,1471,310,9.0,33.0,26.0,-10.864256858825684,-66.83349609375,41.015621185302734,0.1317138671875,0.2935791015625,0.0341796875
2.956,310,1466,1602,310,9.0,33.0,26.0,-11.352538108825684,-66.89453125,18.85986328125,0.5584716796875,0.4271240234375,0.19384765625
2.972,309,1622,1905,311,11.0,31.0,28.0,-20.446775436401367,-57.067867279052734,-14.282225608825684,0.7159423828125,0.5771484375,0.4693603515625
2.999,310,1648,2142,311,11.0,31.0,28.0,-44.433589935302734,-37.9638671875,-52.490230560302734,0.2166748046875,0.6240234375,0.634521484375
2.999,309,1700,2308,311,11.0,31.0,28.0,-78.43017578125,-17.578125,-80.81053924560547,-0.905029296875,0.46337890625,0.5858154296875
3.001,295,1766,2450,307,11.0,31.0,28.0,-99.18212127685547,-5.432128429412842,-83.06884002685547,-2.1707763671875,0.192138671875,0.431396484375
3.015,310,1806,2532,311,11.0,31.0,28.0,-88.13475799560547,-6.652831554412842,-61.279293060302734,-3.064453125,0.0030517578125,0.317626953125
3.016,309,1833,2456,314,11.0,31.0,28.0,-52.734371185302734,-20.202634811401367,-30.639646530151367,-3.3695068359375,0.0648193359375,0.3203125
3.030,311,1853,2303,311,11.0,31.0,28.0,-17.15087890625,-33.63037109375,-1.5258787870407104,-2.9471435546875,0.1431884765625,0.461181640625
3.038,311,1822,2220,311,11.0,31.0,28.0,4.57763671875,-26.306150436401367,17.7001953125,-1.8631591796875,-0.08447265625,0.59521484375
3.046,309,1782,2113,311,11.0,31.0,28.0,19.53125,1.9531248807907104,20.935056686401367,-0.892578125,0.0693359375,0.7637939453125
3.060,309,1752,2183,311,11.0,31.0,28.0,28.259275436401367,31.433103561401367,8.48388671875,-0.6126708984375,0.8399658203125,0.8704833984375
3.068,310,1689,2167,311,11.0,34.0,24.0,22.644041061401367,58.349605560302734,-14.770506858825684,-1.1865234375,1.56005859375,0.6695556640625
3.076,308,1619,2129,311,11.0,34.0,24.0,8.36181640625,70.73974609375,-34.85107421875,-2.08935546875,1.7286376953125,0.327880859375
3.098,310,1452,2050,310,11.0,34.0,24.0,-2.624511480331421,61.096187591552734,-43.457027435302734,-2.44970703125,1.1702880859375,0.0426025390625
3.099,309,1341,1873,311,11.0,34.0,24.0,0.2441406100988388,39.85595703125,-44.677730560302734,-2.2393798828125,0.439453125,0.01806640625
3.107,310,1236,1709,311,11.0,34.0,24.0,12.329100608825684,15.869139671325684,-40.222164154052734,-1.7880859375,0.004150390625,0.2265625
3.124,310,1048,1398,310,11.0,34.0,24.0,22.277830123901367,3.967284917831421,-29.357908248901367,-1.3167724609375,-0.1881103515625,0.3974609375
3.129,311,943,1213,311,11.0,34.0,24.0,31.433103561401367,7.568358898162842,-12.817381858825684,-0.896484375,-0.3245849609375,0.42041015625
3.136,310,809,1071,311,11.0,34.0,24.0,40.588375091552734,18.98193359375,4.45556640625,-0.5489501953125,-0.4580078125,0.31787109375
3.153,309,683,887,309,11.0,34.0,24.0,45.654293060302734,31.677244186401367,15.624999046325684,-0.31005859375,-0.457275390625,0.2020263671875
3.163,309,579,787,311,11.0,34.0,24.0,45.898433685302734,41.015621185302734,18.06640625,-0.22119140625,-0.3387451171875,0.14501953125
3.169,309,496,693,311,10.0,31.0,25.0,41.992183685302734,46.691890716552734,13.977049827575684,-0.222412109375,-0.2178955078125,0.0902099609375
3.183,310,477,629,309,10.0,31.0,25.0,36.376953125,51.940914154052734,6.896972179412842,-0.216064453125,-0.08203125,0.0330810546875
3.203,310,456,587,309,10.0,31.0,25.0,33.50830078125,54.199214935302734,-0.3662109076976776,-0.258056640625,0.181396484375,-0.0118408203125
3.204,309,465,603,309,10.0,31.0,25.0,26.733396530151367,45.959468841552734,-5.981444835662842,-0.3525390625,0.5009765625,-0.056884765625
3.211,309,465,612,307,10.0,31.0,25.0,4.69970703125,28.930662155151367,-8.48388671875,-0.4063720703125,0.6343994140625,-0.08544921875
3.219,309,465,619,309,10.0,31.0,25.0,-21.057126998901367,13.732909202575684,-6.591796398162842,-0.3797607421875,0.5552978515625,-0.1275634765625
3.227,309,454,643,309,10.0,31.0,25.0,-28.320310592651367,7.080077648162842,0.7934569716453552,-0.325927734375,0.446533203125,-0.173095703125
3.241,309,452,645,310,10.0,31.0,25.0,-14.770506858825684,5.432128429412842,12.512206077575684,-0.3253173828125,0.3851318359375,-0.142822265625
3.251,310,452,631,309,10.0,31.0,25.0,2.990722417831421,3.295898199081421,23.925779342651367,-0.375732421875,0.31494140625,-0.02880859375
3.257,309,454,632,309,10.0,31.0,25.0,8.48388671875,-0.7324218153953552,30.456541061401367,-0.429443359375,0.1893310546875,0.0751953125
3.270,311,532,746,309,8.0,35.0,22.0,0.1831054538488388,-5.371093273162842,32.28759765625,-0.4779052734375,0.062255859375,0.1046142578125
3.279,308,617,806,310,8.0,35.0,22.0,-10.620116233825684,-9.8876953125,33.447265625,-0.5391845703125,0.036865234375,0.10009765625
3.286,310,682,837,311,8.0,35.0,22.0,-15.991209983825684,-15.563963890075684,36.0107421875,-0.5828857421875,0.134765625,0.1146240234375
3.305,310,803,907,310,8.0,35.0,22.0,-15.624999046325684,-22.705076217651367,39.1845703125,-0.569091796875,0.27197265625,0.086669921875
3.309,310,886,1018,311,8.0,35.0,22.0,-12.573241233825684,-31.860349655151367,41.687007904052734,-0.4986572265625,0.329345703125,-0.0135498046875
3.317,310,990,1156,310,8.0,35.0,22.0,-11.657713890075684,-44.494625091552734,41.870113372802734,-0.3812255859375,0.33349609375,-0.0972900390625
3.330,310,1178,1427,310,8.0,35.0,22.0,-14.343260765075684,-57.861324310302734,39.6728515625,-0.27294921875,0.4415283203125,-0.0830078125
3.338,310,1280,1643,310,8.0,35.0,22.0,-23.071287155151367,-67.56591796875,33.447265625,-0.0823974609375,0.57861328125,0.0399169921875
3.351,311,1377,1840,311,8.0,35.0,22.0,-46.264644622802734,-68.42041015625,17.51708984375,0.179443359375,0.56982421875,0.2657470703125
3.360,311,1509,2244,311,8.0,32.0,27.0,-80.44432830810547,-59.387203216552734,-10.253905296325684,0.11962890625,0.362060546875,0.5367431640625
3.375,309,1561,2399,311,8.0,32.0,27.0,-106.20116424560547,-41.625972747802734,-40.466304779052734,-0.54541015625,0.03173828125,0.6773681640625
3.377,298,1579,2493,311,8.0,32.0,27.0,-103.51561737060547,-20.690916061401367,-57.983394622802734,-1.572021484375,-0.2489013671875,0.6253662109375
3.403,311,1683,2607,311,8.0,32.0,27.0,-71.59423828125,-10.864256858825684,-55.419918060302734,-2.4610595703125,-0.26318359375,0.5081787109375
3.409,309,1697,2600,311,8.0,32.0,27.0,-30.517576217651367,-16.7236328125,-35.94970703125,-2.9874267578125,0.155517578125,0.476318359375
3.413,309,1701,2491,310,8.0,32.0,27.0,-2.38037109375,-26.245115280151367,-7.568358898162842,-3.027099609375,0.61083984375,0.5040283203125
3.420,310,1689,2421,311,8.0,32.0,27.0,5.0048828125,-22.338865280151367,19.1650390625,-2.2783203125,0.3668212890625,0.4559326171875
3.428,309,1640,2321,310,8.0,32.0,27.0,10.681151390075684,-3.356933355331421,32.04345703125,-1.259521484375,-0.0618896484375,0.4615478515625
3.437,310,1627,2296,311,8.0,32.0,27.0,31.188962936401367,10.803221702575684,27.221677780151367,-0.7532958984375,0.3082275390625,0.662353515625
3.450,310,1562,2280,311,8.0,32.0,27.0,47.424312591552734,22.460935592651367,8.97216796875,-1.0322265625,1.20166015625,0.7421875
3.462,311,1494,2222,311,10.0,34.0,30.0,40.405269622802734,38.0859375,-10.559081077575684,-1.7789306640625,1.77099609375,0.516357421875
3.469,310,1416,2155,311,10.0,34.0,30.0,18.98193359375,43.395992279052734,-21.118162155151367,-2.1749267578125,1.5162353515625,0.175537109375
3.488,310,1246,1954,311,10.0,34.0,30.0,2.929687261581421,33.0810546875,-25.451658248901367,-2.052490234375,0.771728515625,-0.009521484375
3.492,310,1143,1791,311,10.0,34.0,30.0,2.13623046875,13.671874046325684,-28.015134811401367,-1.667236328125,0.148681640625,0.082275390625
3.505,309,1048,1607,311,10.0,34.0,30.0,13.183592796325684,0.4882812201976776,-28.442380905151367,-1.237548828125,-0.1064453125,0.2813720703125
3.509,309,966,1427,311,10.0,34.0,30.0,13.183592796325684,0.4882812201976776,-28.442380905151367,-0.873046875,-0.1309814453125,0.40869140625
3.520,311,787,1153,311,10.0,34.0,30.0,41.931148529052734,11.596678733825684,-18.6767578125,-0.606201171875,-0.1478271484375,0.3817138671875
3.528,309,751,1035,311,10.0,34.0,30.0,45.532222747802734,26.245115280151367,-13.916014671325684,-0.41943359375,-0.1783447265625,0.2381591796875
3.535,310,722,923,310,10.0,34.0,30.0,45.532222747802734,26.245115280151367,-13.916014671325684,-0.2879638671875,-0.205078125,0.11181640625
3.549,311,675,832,310,10.0,34.0,30.0,42.236324310302734,41.809078216552734,-11.657713890075684,-0.260986328125,-0.183837890625,0.0367431640625
3.558,310,638,777,311,10.0,33.0,26.0,40.832515716552734,38.57421875,-10.864256858825684,-0.30419921875,-0.0992431640625,-0.033203125
3.565,309,599,740,309,10.0,33.0,26.0,40.832515716552734,38.57421875,-10.864256858825684,-0.324462890625,0.016845703125,-0.0987548828125
3.579,309,563,725,311,10.0,33.0,26.0,32.53173828125,32.04345703125,-2.13623046875,-0.3365478515625,0.155517578125,-0.1153564453125
3.588,310,570,726,309,10.0,33.0,26.0,27.770994186401367,25.817869186401367,3.723144292831421,-0.3814697265625,0.2957763671875,-0.062255859375
3.601,309,579,734,309,10.0,33.0,26.0,18.310546875,17.2119140625,9.1552734375,-0.445068359375,0.394287109375,-0.0030517578125
3.634,311,613,763,309,10.0,33.0,26.0,3.479003667831421,9.70458984375,15.258788108825684,-0.51708984375,0.42578125,0.018798828125
3.635,309,629,794,311,10.0,33.0,26.0,-10.437010765075684,3.051757574081421,23.437498092651367,-0.5987548828125,0.3983154296875,0.044677734375
3.640,306,642,814,305,10.0,33.0,26.0,-19.59228515625,-4.94384765625,32.470703125,-0.6468505859375,0.309814453125,0.091552734375
3.651,309,687,861,310,10.0,33.0,26.0,-24.353025436401367,-12.634276390075684,40.283199310302734,-0.6510009765625,0.1788330078125,0.1051025390625
3.656,309,721,889,310,10.0,33.0,26.0,-25.146482467651367,-18.49365234375,46.569820404052734,-0.6683349609375,0.0570068359375,0.0784912109375
3.657,309,749,939,310,8.0,34.0,26.0,-21.850584030151367,-25.329587936401367,52.856441497802734,-0.7236328125,0.001220703125,0.063232421875
3.671,311,814,1051,311,8.0,34.0,26.0,-14.953612327575684,-35.33935546875,60.363765716552734,-0.757568359375,0.0294189453125,0.0750732421875
3.678,310,873,1134,309,8.0,34.0,26.0,-7.690429210662842,-47.912593841552734,68.2373046875,-0.689208984375,0.1087646484375,0.095703125
3.717,310,966,1226,311,8.0,34.0,26.0,-6.530761241912842,-60.791011810302734,73.05908203125,-0.5078125,0.216552734375,0.1185302734375
3.717,312,1117,1399,311,8.0,34.0,26.0,-10.437010765075684,-70.068359375,69.76318359375,-0.1917724609375,0.3203125,0.1488037109375
3.718,309,1209,1471,310,8.0,34.0,26.0,-10.559081077575684,-71.533203125,54.687496185302734,0.20166015625,0.441650390625,0.1597900390625
3.718,309,1294,1632,311,8.0,34.0,26.0,-3.845214605331421,-65.00244140625,28.991697311401367,0.5352783203125,0.6260986328125,0.168212890625
3.730,311,1442,2000,307,8.0,34.0,26.0,-0.1831054538488388,-54.504390716552734,-3.112792730331421,0.6873779296875,0.7659912109375,0.2772216796875
3.739,311,1494,2269,310,8.0,34.0,26.0,-14.831542015075684,-44.616695404052734,-36.7431640625,0.2969970703125,0.784912109375,0.4493408203125
3.747,311,1534,2435,312,8.0,34.0,26.0,-48.339839935302734,-39.97802734375,-61.645503997802734,-0.77099609375,0.6533203125,0.541748046875
3.761,311,1565,2607,311,11.0,34.0,29.0,-84.83885955810547,-40.893550872802734,-66.89453125,-2.0428466796875,0.3944091796875,0.4910888671875
3.769,311,1584,2665,311,11.0,34.0,29.0,-100.89110565185547,-45.166011810302734,-53.466793060302734,-2.936767578125,0.163818359375,0.412353515625
3.779,311,1613,2677,311,11.0,34.0,29.0,-100.89110565185547,-45.166011810302734,-53.466793060302734,-3.17138671875,0.1048583984375,0.474609375
3.792,311,1658,2624,311,11.0,34.0,29.0,-37.7197265625,-56.701656341552734,-10.253905296325684,-2.7314453125,-0.02294921875,0.625
3.820,310,1643,2597,311,11.0,34.0,29.0,-2.44140625,-44.494625091552734,3.417968511581421,-1.8299560546875,-0.330322265625,0.74609375
3.821,310,1620,2519,311,11.0,34.0,29.0,-2.44140625,-44.494625091552734,3.417968511581421,-1.0201416015625,-0.174072265625,0.843017578125
3.821,309,1538,2368,297,11.0,34.0,29.0,62.194820404052734,16.845703125,7.995604991912842,-0.634033203125,0.58251953125,0.8525390625
3.829,309,1531,2388,312,11.0,34.0,29.0,64.94140625,52.490230560302734,-9.033203125,-0.66552734375,1.2486572265625,0.6575927734375
3.837,311,1483,2392,312,11.0,34.0,29.0,64.94140625,52.490230560302734,-9.033203125,-1.276123046875,1.525146484375,0.4080810546875
3.851,311,1369,2303,311,10.0,34.0,24.0,18.1884765625,75.25634765625,-54.138179779052734,-2.0968017578125,1.4638671875,0.2598876953125
3.863,311,1260,2178,311,10.0,34.0,24.0,-0.6103515625,50.537105560302734,-50.659175872802734,-2.410888671875,1.08544921875,0.172607421875
3.867,311,1147,2043,311,10.0,34.0,24.0,-0.6103515625,50.537105560302734,-50.659175872802734,-2.1478271484375,0.514892578125,0.1651611328125
3.880,311,1026,1748,310,10.0,34.0,24.0,-11.474608421325684,19.10400390625,-26.062009811401367,-1.598876953125,-0.001708984375,0.2559814453125
3.888,310,976,1577,311,10.0,34.0,24.0,-0.2441406100988388,14.953612327575684,-21.057126998901367,-1.0537109375,-0.2769775390625,0.3792724609375
3.920,310,906,1351,311,10.0,34.0,24.0,-0.2441406100988388,14.953612327575684,-21.057126998901367,-0.66552734375,-0.35009765625,0.42626953125
3.921,309,793,1085,311,10.0,34.0,24.0,32.65380859375,26.794431686401367,-10.681151390075684,-0.3968505859375,-0.348388671875,0.3436279296875
3.921,299,725,966,311,10.0,34.0,24.0,35.400390625,40.771480560302734,-6.958007335662842,-0.2371826171875,-0.3040771484375,0.199951171875
3.927,309,675,901,310,10.0,34.0,24.0,35.400390625,40.771480560302734,-6.958007335662842,-0.2457275390625,-0.1939697265625,0.0863037109375
3.940,309,545,763,310,10.0,34.0,24.0,30.395505905151367,49.743648529052734,-5.981444835662842,-0.333984375,-0.0484619140625,0.011474609375
3.948,309,475,706,310,10.0,34.0,28.0,24.414060592651367,48.828121185302734,-7.019042491912842,-0.37353515625,0.102783203125,-0.0516357421875
3.956,310,447,666,311,10.0,34.0,28.0,24.414060592651367,48.828121185302734,-7.019042491912842,-0.37890625,0.2403564453125,-0.072998046875
3.970,310,454,645,311,10.0,34.0,28.0,13.122557640075684,44.311519622802734,-11.352538108825684,-0.4163818359375,0.398193359375,-0.036376953125
3.979,309,461,628,310,10.0,34.0,28.0,8.23974609375,36.68212890625,-10.009765625,-0.47021484375,0.5614013671875,0.006591796875
3.988,309,454,643,310,10.0,34.0,28.0,8.23974609375,36.68212890625,-10.009765625,-0.498779296875,0.6199951171875,0.0130615234375
4.030,310,452,657,309,10.0,34.0,28.0,-13.793944358825684,20.141599655151367,2.197265625,-0.499755859375,0.5137939453125,-0.0152587890625
4.030,308,442,682,310,10.0,34.0,28.0,-19.59228515625,13.610838890075684,8.1787109375,-0.477294921875,0.314697265625,-0.0272216796875
4.030,308,449,705,309,10.0,34.0,28.0,-19.59228515625,13.610838890075684,8.1787109375,-0.43505859375,0.11767578125,0.0118408203125
4.031,310,488,769,309,10.0,34.0,28.0,-9.94873046875,-0.7934569716453552,18.73779296875,-0.3985595703125,-0.02978515625,0.0494384765625
4.040,311,575,842,311,10.0,34.0,28.0,-5.859374523162842,-9.1552734375,22.705076217651367,-0.4100341796875,-0.0738525390625,0.0611572265625
4.048,310,642,900,310,11.0,33.0,26.0,-5.859374523162842,-9.1552734375,22.705076217651367,-0.45458984375,-0.0062255859375,0.0941162109375
4.056,309,718,996,310,11.0,33.0,26.0,-2.807616949081421,-18.1884765625,26.184080123901367,-0.45458984375,-0.0062255859375,0.0941162109375
4.069,310,884,1276,309,11.0,33.0,26.0,2.990722417831421,-38.4521484375,33.69140625,-0.403564453125,0.3348388671875,0.0716552734375
4.078,310,986,1457,311,11.0,33.0,26.0,2.990722417831421,-38.4521484375,33.69140625,-0.292236328125,0.5235595703125,0.029296875
4.086,310,1091,1655,311,11.0,33.0,26.0,-5.0048828125,-49.865718841552734,35.46142578125,-0.292236328125,0.5235595703125,0.029296875
4.100,311,1276,1997,310,11.0,33.0,26.0,-32.71484375,-70.80078125,17.7001953125,0.3778076171875,0.6405029296875,0.1953125
4.107,310,1370,2267,309,11.0,33.0,26.0,-32.71484375,-70.80078125,17.7001953125,0.621337890625,0.508544921875,0.46630859375
4.130,310,1437,2473,311,11.0,33.0,26.0,-35.64453125,-64.75830078125,-8.72802734375,0.621337890625,0.508544921875,0.46630859375
4.132,296,1518,2691,310,11.0,33.0,26.0,-28.503416061401367,-27.282712936401367,-73.91357421875,-1.11279296875,-0.026611328125,0.560791015625
4.142,310,1538,2762,310,11.0,33.0,26.0,-28.503416061401367,-27.282712936401367,-73.91357421875,-2.4339599609375,0.0283203125,0.318115234375
4.147,311,1561,2824,311,11.0,31.0,33.0,-20.141599655151367,-18.12744140625,-85.32714080810547,-2.4339599609375,0.0283203125,0.318115234375
4.160,310,1574,2831,311,11.0,31.0,33.0,-6.225585460662842,-26.672361373901367,-62.072750091552734,-3.3685302734375,0.5924072265625,0.55908203125
4.168,311,1565,2803,311,11.0,31.0,33.0,-6.225585460662842,-26.672361373901367,-62.072750091552734,-2.69677734375,0.2623291015625,0.7293701171875
4.176,311,1527,2782,311,11.0,31.0,33.0,-10.620116233825684,-21.728513717651367,-41.992183685302734,-2.69677734375,0.2623291015625,0.7293701171875
4.189,311,1471,2695,311,11.0,31.0,33.0,31.982419967651367,31.249998092651367,-22.216794967651367,-0.7784423828125,-0.58349609375,0.7376708984375
4.198,310,1472,2677,311,11.0,31.0,33.0,31.982419967651367,31.249998092651367,-22.216794967651367,-0.9027099609375,0.080810546875,0.742431640625
4.232,307,1453,2636,311,11.0,31.0,33.0,64.0869140625,45.898433685302734,-22.338865280151367,-0.9027099609375,0.080810546875,0.742431640625
4.233,311,1355,2512,311,11.0,31.0,33.0,35.888671875,40.466304779052734,4.33349609375,-2.3692626953125,1.4268798828125,0.095458984375
4.235,309,1257,2389,295,11.0,31.0,33.0,35.888671875,40.466304779052734,4.33349609375,-2.35693359375,1.0648193359375,-0.1107177734375
4.237,309,1159,2261,311,11.0,31.0,33.0,7.751464366912842,25.268552780151367,19.59228515625,-2.35693359375,1.0648193359375,-0.1107177734375
4.252,311,1057,1983,311,9.0,31.0,32.0,-15.930174827575684,-0.3662109076976776,31.249998092651367,-1.2369384765625,-0.07421875,0.2840576171875
4.259,310,1005,1818,310,9.0,31.0,32.0,-15.930174827575684,-0.3662109076976776,31.249998092651367,-0.710205078125,-0.059326171875,0.4560546875
4.268,307,922,1555,311,9.0,31.0,32.0,-6.835937023162842,0.7934569716453552,29.663084030151367,-0.710205078125,-0.059326171875,0.4560546875
4.280,309,756,1130,311,9.0,31.0,32.0,23.742673873901367,27.343748092651367,-0.1831054538488388,-0.277099609375,0.172119140625,0.3162841796875
4.288,310,698,1005,310,9.0,31.0,32.0,23.742673873901367,27.343748092651367,-0.1831054538488388,-0.3179931640625,0.1053466796875,0.1649169921875
4.296,310,633,913,310,9.0,31.0,32.0,30.456541061401367,42.175289154052734,-19.53125,-0.3179931640625,0.1053466796875,0.1649169921875
4.338,309,514,780,310,9.0,31.0,32.0,18.61572265625,48.583980560302734,-36.68212890625,-0.5953369140625,-0.0091552734375,-0.0670166015625
4.340,309,481,733,309,9.0,31.0,32.0,18.61572265625,48.583980560302734,-36.68212890625,-0.589111328125,-0.0328369140625,-0.15673828125
4.340,309,480,671,310,9.0,31.0,32.0,8.60595703125,44.494625091552734,-32.3486328125,-0.589111328125,-0.0328369140625,-0.15673828125
4.352,309,488,620,296,13.0,31.0,26.0,2.685546636581421,28.686521530151367,-15.441893577575684,-0.48388671875,0.1142578125,-0.1226806640625
4.353,310,483,620,310,13.0,31.0,26.0,0.9155272841453552,18.1884765625,-5.0048828125,-0.47265625,0.2569580078125,-0.038818359375
4.371,310,475,618,309,13.0,31.0,26.0,0.9155272841453552,18.1884765625,-5.0048828125,-0.4534912109375,0.3134765625,0.0322265625
4.378,311,465,623,309,13.0,31.0,26.0,-4.45556640625,8.4228515625,6.530761241912842,-0.4534912109375,0.3134765625,0.0322265625
4.388,433,449,631,640,13.0,31.0,26.0,-5.310058116912842,0.2441406100988388,26.000974655151367,-0.3912353515625,0.222412109375,0.0927734375
4.391,451,451,662,671,13.0,31.0,26.0,-5.310058116912842,0.2441406100988388,26.000974655151367,-0.3778076171875,0.1343994140625,0.1461181640625
4.396,447,449,712,721,13.0,31.0,26.0,-0.6103515625,-2.13623046875,33.02001953125,-0.3778076171875,0.1343994140625,0.1461181640625
4.442,531,545,792,803,13.0,31.0,26.0,-5.737304210662842,-9.09423828125,42.419429779052734,-0.5177001953125,-0.0037841796875,0.1661376953125
4.442,572,584,827,834,13.0,31.0,26.0,-5.737304210662842,-9.09423828125,42.419429779052734,-0.705810546875,0.0543212890625,0.1734619140625
4.446,309,646,890,309,13.0,31.0,26.0,-11.779784202575684,-12.329100608825684,48.034664154052734,-0.705810546875,0.0543212890625,0.1734619140625
4.448,310,725,1083,309,10.0,35.0,24.0,-14.160155296325684,-26.672361373901367,68.9697265625,-0.957763671875,0.26318359375,0.0706787109375
4.449,311,770,1231,312,10.0,35.0,24.0,-14.160155296325684,-26.672361373901367,68.9697265625,-0.91845703125,0.204345703125,0.001220703125
4.457,310,823,1355,311,10.0,35.0,24.0,-14.404295921325684,-37.841796875,81.54296112060547,-0.7281494140625,0.0916748046875,-0.0091552734375
4.465,309,914,1499,311,10.0,35.0,24.0,-12.878417015075684,-54.870601654052734,92.59032440185547,-0.7281494140625,0.0916748046875,-0.0091552734375
4.479,311,1104,1686,311,10.0,35.0,24.0,-10.314940452575684,-72.69287109375,98.75487518310547,0.031494140625,0.2923583984375,0.1319580078125
4.490,306,1209,1807,311,10.0,35.0,24.0,-11.779784202575684,-84.65575408935547,92.16307830810547,0.4576416015625,0.5537109375,0.3184814453125
4.495,309,1300,1951,311,10.0,35.0,24.0,-16.54052734375,-86.79198455810547,67.68798828125,0.4576416015625,0.5537109375,0.3184814453125
4.511,309,1428,2392,311,10.0,35.0,24.0,-21.667478561401367,-74.5849609375,27.099607467651367,0.4832763671875,0.86181640625,0.75
4.522,309,1471,2573,311,10.0,35.0,24.0,-29.113767623901367,-48.156734466552734,-23.132322311401367,0.4832763671875,0.86181640625,0.75
4.536,310,1497,2669,311,10.0,35.0,24.0,-42.480464935302734,-18.310546875,-65.4296875,-0.5189208984375,0.7567138671875,0.7120361328125
4.546,310,1516,2758,311,10.0,32.0,24.0,-59.936519622802734,-0.0610351525247097,-76.7822265625,-2.9390869140625,0.4285888671875,0.0777587890625
4.548,309,1524,2801,311,10.0,32.0,24.0,-64.88037109375,-4.21142578125,-55.175777435302734,-2.9390869140625,0.4285888671875,0.0777587890625
4.555,308,1547,2813,311,10.0,32.0,24.0,-51.574703216552734,-25.329587936401367,-24.108884811401367,-3.2979736328125,0.3499755859375,0.1124267578125
4.572,308,1560,2793,311,10.0,32.0,24.0,-41.198726654052734,-42.358394622802734,-5.493163585662842,-1.930908203125,-0.407958984375,0.6141357421875
4.578,310,1531,2754,311,10.0,32.0,24.0,-34.60693359375,-40.344234466552734,0.54931640625,-1.930908203125,-0.407958984375,0.6141357421875
4.590,309,1523,2683,311,10.0,32.0,24.0,-5.126952648162842,-23.010251998901367,3.173827886581421,-0.99560546875,-0.366943359375,0.9501953125
4.599,311,1590,2597,311,10.0,32.0,24.0,40.588375091552734,3.784179449081421,1.220703125,-0.5323486328125,1.125732421875,0.9107666015625
4.612,311,1427,2590,310,10.0,32.0,24.0,61.767574310302734,43.457027435302734,-13.244627952575684,-0.5323486328125,1.125732421875,0.9107666015625
4.624,310,1377,2563,311,10.0,32.0,24.0,53.100582122802734,80.078125,-38.330078125,-1.107421875,1.3804931640625,0.4840087890625
4.636,310,1260,2430,310,10.0,32.0,24.0,35.7666015625,82.51952362060547,-56.518550872802734,-2.4310302734375,1.007080078125,0.0013427734375
4.639,309,1189,2306,311,9.0,31.0,30.0,15.747069358825684,57.434078216552734,-54.077144622802734,-2.4310302734375,1.007080078125,0.0013427734375
4.655,309,1153,2159,310,9.0,31.0,30.0,-2.01416015625,31.982419967651367,-38.6962890625,-2.28271484375,0.516357421875,-0.0177001953125
4.660,316,989,1820,311,9.0,31.0,30.0,-7.324218273162842,13.244627952575684,-23.681638717651367,-1.2366943359375,-0.294921875,0.355712890625
4.669,310,916,1591,311,9.0,31.0,30.0,1.5258787870407104,1.220703125,-12.145995140075684,-1.2366943359375,-0.294921875,0.355712890625
4.681,312,815,1308,309,9.0,31.0,30.0,15.991209983825684,-0.7324218153953552,-1.15966796875,-0.8125,-0.4241943359375,0.449462890625
4.689,310,694,1003,310,9.0,31.0,30.0,29.296873092651367,7.202147960662842,10.009765625,-0.3682861328125,-0.3265380859375,0.2359619140625
4.702,311,617,901,310,9.0,31.0,30.0,39.55078125,18.9208984375,19.10400390625,-0.3682861328125,-0.3265380859375,0.2359619140625
4.706,309,531,780,309,9.0,31.0,30.0,42.968746185302734,26.489255905151367,23.925779342651367,-0.34326171875,-0.143798828125,0.1419677734375
4.725,309,439,654,310,9.0,31.0,30.0,37.9638671875,28.808591842651367,24.047849655151367,-0.283935546875,0.1727294921875,0.0279541015625
4.749,298,416,632,309,9.0,31.0,30.0,29.724119186401367,30.822751998901367,19.6533203125,-0.283935546875,0.1727294921875,0.0279541015625
4.750,309,426,612,309,10.0,33.0,30.0,27.282712936401367,33.0810546875,11.718749046325684,-0.21875,0.30126953125,-0.013427734375
4.750,309,475,605,308,10.0,33.0,30.0,32.5927734375,31.860349655151367,4.150390625,-0.2525634765625,0.649658203125,-0.031005859375
4.771,309,483,633,310,10.0,33.0,30.0,31.921384811401367,24.780271530151367,0.0610351525247097,-0.2525634765625,0.649658203125,-0.031005859375
4.772,309,469,633,310,10.0,33.0,30.0,16.29638671875,15.686034202575684,-0.1220703050494194,-0.29150390625,0.6063232421875,-0.080322265625
4.781,310,431,679,309,10.0,33.0,30.0,-0.4882812201976776,10.498045921325684,3.173827886581421,-0.3707275390625,0.2239990234375,-0.1461181640625
4.788,309,466,725,310,10.0,33.0,30.0,-3.051757574081421,8.72802734375,9.765625,-0.3707275390625,0.2239990234375,-0.1461181640625
4.799,309,524,782,309,10.0,33.0,30.0,5.554198741912842,5.676269054412842,18.9208984375,-0.4119873046875,0.0885009765625,-0.0860595703125
4.814,310,682,875,309,10.0,33.0,30.0,11.047362327575684,-0.6103515625,27.404783248901367,-0.43359375,0.0263671875,0.1175537109375
4.819,309,761,992,311,10.0,33.0,30.0,4.82177734375,-9.3994140625,31.677244186401367,-0.43359375,0.0263671875,0.1175537109375
4.844,311,846,1160,311,10.0,33.0,30.0,-7.873534679412842,-18.73779296875,31.982419967651367,-0.4761962890625,0.12353515625,0.19384765625
4.847,310,992,1464,309,10.0,33.0,30.0,-14.709471702575684,-25.939939498901367,32.2265625,-0.4656982421875,0.450927734375,0.123291015625
4.850,310,1018,1635,311,10.0,33.0,30.0,-16.357421875,-32.5927734375,34.5458984375,-0.4656982421875,0.450927734375,0.123291015625
4.857,309,1112,1798,312,10.0,33.0,30.0,-24.963376998901367,-42.846675872802734,36.56005859375,-0.334228515625,0.6044921875,0.1505126953125
4.872,309,1253,2150,311,10.0,33.0,30.0,-41.809078216552734,-50.659175872802734,31.616209030151367,0.2471923828125,0.5802001953125,0.31005859375
4.878,310,1341,2381,311,10.0,33.0,30.0,-57.373043060302734,-46.874996185302734,11.962889671325684,0.2471923828125,0.5802001953125,0.31005859375
4.887,309,1388,2555,311,10.0,33.0,30.0,-64.453125,-34.11865234375,-22.399900436401367,0.12841796875,0.4473876953125,0.532470703125
4.901,310,1499,2727,311,10.0,33.0,30.0,-62.072750091552734,-19.53125,-58.166500091552734,-1.672607421875,0.176513671875,0.564697265625
4.909,309,1565,2785,311,10.0,33.0,30.0,-55.664058685302734,-7.446288585662842,-77.81982421875,-1.672607421875,0.176513671875,0.564697265625
4.918,310,1605,2824,311,10.0,33.0,30.0,-49.804683685302734,-1.7089842557907104,-75.13427734375,-2.43994140625,0.2352294921875,0.3529052734375
4.943,309,1602,2848,311,12.0,32.0,23.0,-41.503902435302734,-4.57763671875,-57.922359466552734,-2.641845703125,0.4383544921875,0.4100341796875
4.946,310,1583,2833,297,12.0,32.0,23.0,-32.40966796875,-10.498045921325684,-39.1845703125,-2.641845703125,0.4383544921875,0.4100341796875
4.951,293,1497,2809,297,12.0,32.0,23.0,-28.503416061401367,-10.498045921325684,-26.245115280151367,-2.135009765625,0.0882568359375,0.567626953125
4.960,309,1397,2692,311,12.0,32.0,23.0,-18.37158203125,3.479003667831421,-19.6533203125,-0.8740234375,-0.4105224609375,0.7789306640625
4.973,311,1403,2671,311,12.0,32.0,23.0,14.709471702575684,24.902341842651367,-16.845703125,-0.8740234375,-0.4105224609375,0.7789306640625
4.977,307,1362,2645,311,12.0,32.0,23.0,51.696773529052734,43.945308685302734,-18.4326171875,-0.862548828125,0.26953125,0.77734375
4.990,309,1305,2544,311,12.0,32.0,23.0,63.842769622802734,58.654781341552734,-25.451658248901367,-2.2392578125,1.5013427734375,0.2979736328125
5.000,309,1220,2440,310,12.0,32.0,23.0,51.696773529052734,58.837886810302734,-27.709959030151367,-2.2392578125,1.5013427734375,0.2979736328125
5.007,311,1143,2310,311,12.0,32.0,23.0,31.372068405151367,45.654293060302734,-19.47021484375,-2.409912109375,1.273193359375,-0.0167236328125
5.021,311,992,2001,309,12.0,32.0,23.0,15.441893577575684,28.869626998901367,-10.192870140075684,-1.4522705078125,0.0003662109375,-0.0615234375
5.049,310,918,1791,310,10.0,34.0,27.0,7.202147960662842,12.145995140075684,-6.530761241912842,-1.4522705078125,0.0003662109375,-0.0615234375
5.053,310,828,1499,311,10.0,34.0,27.0,4.150390625,0.3662109076976776,-5.310058116912842,-0.900390625,-0.3299560546875,0.1484375
5.055,297,696,1082,311,10.0,34.0,27.0,7.446288585662842,-0.7934569716453552,-4.33349609375,-0.347900390625,-0.31494140625,0.3912353515625
5.060,545,607,955,966,10.0,34.0,27.0,18.85986328125,10.253905296325684,-4.21142578125,-0.347900390625,-0.31494140625,0.3912353515625
5.068,531,538,858,868,10.0,34.0,27.0,29.846189498901367,25.390623092651367,-6.042479991912842,-0.3604736328125,-0.121826171875,0.33837890625
5.080,472,473,766,770,10.0,34.0,27.0,31.249998092651367,35.46142578125,-9.1552734375,-0.4434814453125,0.028564453125,0.2120361328125
5.091,465,473,666,666,10.0,34.0,27.0,24.230955123901367,40.344234466552734,-11.840819358825684,-0.462646484375,0.08251953125,0.0489501953125
5.098,309,463,614,310,10.0,34.0,27.0,16.78466796875,41.564937591552734,-13.671874046325684,-0.4278564453125,0.11376953125,-0.05419921875
5.105,454,461,612,617,10.0,34.0,27.0,12.695311546325684,36.92626953125,-13.427733421325684,-0.40771484375,0.23486328125,-0.072509765625
5.123,451,461,618,625,10.0,34.0,27.0,6.347655773162842,25.939939498901367,-9.70458984375,-0.416015625,0.3812255859375,-0.0533447265625
5.156,449,450,628,630,12.0,34.0,32.0,-4.150390625,12.756346702575684,-3.845214605331421,-0.4031982421875,0.410400390625,-0.059814453125
5.156,447,449,636,638,12.0,34.0,32.0,-7.629394054412842,5.187987804412842,1.15966796875,-0.36865234375,0.38037109375,-0.11474609375
5.158,437,441,616,614,12.0,34.0,32.0,2.01416015625,3.967284917831421,6.225585460662842,-0.3641357421875,0.361572265625,-0.114013671875
5.167,479,493,612,600,12.0,34.0,32.0,15.441893577575684,2.38037109375,12.695311546325684,-0.38134765625,0.3157958984375,-0.009765625
5.169,861,650,645,645,12.0,34.0,32.0,21.057126998901367,-1.6479490995407104,18.73779296875,-0.386474609375,0.2086181640625,0.0938720703125
5.176,644,682,689,695,12.0,34.0,32.0,15.563963890075684,-5.371093273162842,22.644041061401367,-0.3883056640625,0.08447265625,0.133544921875
5.189,311,630,809,820,12.0,34.0,32.0,5.310058116912842,-7.812499523162842,25.695798873901367,-0.415771484375,0.0186767578125,0.1314697265625
5.198,322,609,928,310,12.0,34.0,32.0,-1.5258787870407104,-9.765625,29.541013717651367,-0.49462890625,0.0233154296875,0.123779296875
5.206,309,675,1098,311,12.0,34.0,32.0,-3.051757574081421,-12.695311546325684,35.0341796875,-0.6195068359375,0.1251220703125,0.10986328125
5.220,309,806,1422,310,10.0,34.0,23.0,-3.723144292831421,-19.04296875,43.823238372802734,-0.71435546875,0.27880859375,0.0765380859375
5.227,310,890,1632,310,10.0,34.0,23.0,-7.629394054412842,-29.785154342651367,54.016109466552734,-0.7315673828125,0.3594970703125,0.0341796875
5.253,309,985,1781,311,10.0,34.0,23.0,-19.47021484375,-45.593257904052734,60.485836029052734,-0.62255859375,0.3836669921875,0.028564453125
5.253,310,1330,2060,310,10.0,34.0,23.0,-40.527339935302734,-62.927242279052734,59.326168060302734,-0.300537109375,0.396728515625,0.0450439453125
5.258,307,1280,2251,310,10.0,34.0,23.0,-59.875484466552734,-72.021484375,44.921871185302734,0.146484375,0.3797607421875,0.13818359375
5.271,310,1355,2430,312,10.0,34.0,23.0,-66.0400390625,-68.603515625,13.916014671325684,0.353759765625,0.3841552734375,0.43115234375
5.297,310,1424,2658,312,10.0,34.0,23.0,-61.157222747802734,-53.039546966552734,-26.428220748901367,-0.001953125,0.384521484375,0.759033203125
5.329,309,1469,2738,311,10.0,34.0,23.0,-56.945796966552734,-26.550291061401367,-59.631343841552734,-0.8526611328125,0.2626953125,0.7886962890625
5.331,311,1494,2785,310,10.0,34.0,23.0,-56.335445404052734,-0.3662109076976776,-69.88525390625,-1.8658447265625,0.0965576171875,0.47998046875
5.336,309,1723,2848,295,10.0,34.0,23.0,-47.912593841552734,9.70458984375,-54.321285247802734,-2.65576171875,0.1226806640625,0.163330078125
5.352,311,1593,2834,311,11.0,35.0,24.0,-32.71484375,1.15966796875,-26.184080123901367,-3.0369873046875,0.37158203125,0.095458984375
5.361,309,1572,2792,311,11.0,35.0,24.0,-29.113767623901367,-14.892577171325684,0.30517578125,-2.8426513671875,0.3944091796875,0.2601318359375
5.363,310,1533,2736,311,11.0,35.0,24.0,-33.203125,-20.324705123901367,18.98193359375,-1.9356689453125,-0.201416015625,0.5047607421875
5.366,311,1523,2656,311,11.0,35.0,24.0,-13.366698265075684,-10.559081077575684,27.832029342651367,-0.9749755859375,-0.46875,0.81103515625
5.369,309,1469,2627,311,11.0,35.0,24.0,29.357908248901367,4.45556640625,24.230955123901367,-0.548828125,0.29150390625,1.030029296875
5.370,311,1428,2619,309,11.0,35.0,24.0,56.213375091552734,30.639646530151367,2.990722417831421,-0.826904296875,1.2340087890625,0.825439453125
5.378,310,1362,2589,311,11.0,35.0,24.0,55.358882904052734,55.480953216552734,-24.414060592651367,-1.6282958984375,1.6185302734375,0.3839111328125
5.388,309,1292,2541,312,11.0,35.0,24.0,41.687007904052734,54.931636810302734,-36.80419921875,-2.1676025390625,1.3802490234375,0.014404296875
5.400,309,1172,2389,311,11.0,35.0,24.0,24.597166061401367,36.62109375,-34.24072265625,-2.1348876953125,0.81103515625,-0.1405029296875
5.408,307,1104,2275,310,11.0,35.0,24.0,10.559081077575684,15.930174827575684,-28.442380905151367,-1.755126953125,0.2486572265625,-0.0250244140625
5.416,311,1064,2155,310,11.0,33.0,28.0,7.019042491912842,2.50244140625,-23.254392623901367,-1.2724609375,-0.09326171875,0.2154541015625
5.432,309,1233,1894,310,11.0,33.0,28.0,14.404295921325684,-0.30517578125,-17.578125,-0.877685546875,-0.19970703125,0.430908203125
5.438,310,1118,1683,311,11.0,33.0,28.0,25.207517623901367,7.446288585662842,-10.803221702575684,-0.655029296875,-0.1981201171875,0.4837646484375
5.455,309,715,1466,311,11.0,33.0,28.0,32.5927734375,20.874021530151367,-4.08935546875,-0.578125,-0.1597900390625,0.3702392578125
5.460,309,646,1130,309,11.0,33.0,28.0,34.72900390625,32.53173828125,1.03759765625,-0.56005859375,-0.1219482421875,0.2099609375
5.468,310,593,982,310,11.0,33.0,28.0,32.71484375,37.4755859375,3.540038824081421,-0.568115234375,-0.0955810546875,0.091796875
5.475,307,555,861,309,11.0,33.0,28.0,28.503416061401367,35.5224609375,4.39453125,-0.5970458984375,-0.035400390625,0.0164794921875
5.492,309,475,751,309,11.0,33.0,28.0,24.169919967651367,31.311033248901367,6.286620616912842,-0.6053466796875,0.029541015625,-0.0570068359375
5.498,309,447,713,311,11.0,33.0,28.0,21.972654342651367,27.343748092651367,9.6435546875,-0.5648193359375,0.0733642578125,-0.1058349609375
5.506,309,439,683,309,11.0,33.0,28.0,22.583005905151367,22.277830123901367,12.573241233825684,-0.492431640625,0.1187744140625,-0.093994140625
5.519,309,437,671,310,10.0,34.0,27.0,22.888181686401367,16.6015625,13.671874046325684,-0.444580078125,0.22509765625,-0.037841796875
5.528,310,436,657,310,10.0,34.0,27.0,19.04296875,11.291502952575684,14.282225608825684,-0.4375,0.36962890625,0.03564453125
5.535,311,434,671,311,10.0,34.0,27.0,10.375975608825684,6.469726085662842,16.845703125,-0.44189453125,0.4595947265625,0.0916748046875
5.561,309,432,691,309,10.0,34.0,27.0,-0.54931640625,2.746581792831421,22.399900436401367,-0.4471435546875,0.4442138671875,0.115234375
5.562,309,431,726,310,10.0,34.0,27.0,-8.7890625,0.3662109076976776,29.296873092651367,-0.456298828125,0.324462890625,0.1226806640625
5.568,310,441,761,309,10.0,34.0,27.0,-11.230467796325684,-1.3427733182907104,35.58349609375,-0.4749755859375,0.1671142578125,0.109130859375
5.579,310,531,810,311,10.0,34.0,27.0,-9.94873046875,-3.112792730331421,41.137691497802734,-0.517578125,0.053466796875,0.0889892578125
5.588,309,567,853,311,10.0,34.0,27.0,-9.58251953125,-6.042479991912842,46.447750091552734,-0.5882568359375,0.0159912109375,0.094482421875
5.603,309,617,943,310,10.0,34.0,27.0,-10.559081077575684,-11.108397483825684,51.269527435302734,-0.640869140625,0.039306640625,0.1075439453125
5.612,309,713,1129,311,10.0,34.0,27.0,-8.97216796875,-17.51708984375,55.725093841552734,-0.6202392578125,0.1048583984375,0.0770263671875
5.618,309,770,1295,311,8.0,33.0,28.0,-4.45556640625,-24.353025436401367,59.936519622802734,-0.5537109375,0.209716796875,-0.0140380859375
5.631,309,886,1452,311,8.0,33.0,28.0,-3.479003667831421,-32.71484375,63.903804779052734,-0.464111328125,0.3697509765625,-0.0718994140625
5.734,311,1091,1683,311,8.0,33.0,28.0,-13.183592796325684,-43.457027435302734,65.4296875,-0.2340087890625,0.524169921875,-0.0203857421875
5.739,310,1199,1828,311,8.0,33.0,28.0,-29.907224655151367,-51.452632904052734,56.213375091552734,0.1724853515625,0.659423828125,0.0733642578125
5.763,310,1413,2456,311,8.0,33.0,28.0,-65.185546875,-41.992183685302734,-10.437010765075684,0.4769287109375,0.8314208984375,0.52099609375
5.772,310,1453,2587,311,8.0,33.0,28.0,-86.48680877685547,-27.465818405151367,-49.987789154052734,-0.2611083984375,0.6439208984375,0.7113037109375
5.772,309,1498,2677,311,8.0,33.0,28.0,-108.82567596435547,-14.404295921325684,-67.44384765625,-1.44775390625,0.2713623046875,0.5843505859375
5.774,295,1504,2749,311,8.0,33.0,28.0,-113.64745330810547,-8.11767578125,-56.945796966552734,-2.504150390625,-0.0218505859375,0.236572265625
5.816,311,1549,2803,311,8.0,33.0,28.0,-86.30370330810547,-12.512206077575684,-32.958984375,-3.032470703125,0.020263671875,0.0570068359375
5.817,310,1548,2800,311,10.0,31.0,26.0,-50.231929779052734,-27.648923873901367,-11.108397483825684,-2.975341796875,0.153076171875,0.240966796875
5.817,309,1560,2762,309,10.0,31.0,26.0,-30.883787155151367,-39.1845703125,5.065917491912842,-2.3369140625,-0.0145263671875,0.59375
5.817,309,1546,2730,312,10.0,31.0,26.0,-14.709471702575684,-31.249998092651367,18.85986328125,-1.4051513671875,-0.3135986328125,0.877197265625
5.817,310,1788,2657,310,10.0,31.0,26.0,20.324705123901367,-7.568358898162842,26.916501998901367,-0.772216796875,-0.076904296875,1.0570068359375
5.817,316,1735,2590,312,10.0,31.0,26.0,59.387203216552734,24.108884811401367,20.324705123901367,-0.58203125,0.6318359375,0.9700927734375
5.817,308,1415,2526,311,10.0,31.0,26.0,77.69775390625,59.448238372802734,-3.662109136581421,-0.9339599609375,1.2607421875,0.551025390625
5.831,309,1370,2532,310,10.0,31.0,26.0,76.84326171875,71.10595703125,-28.808591842651367,-1.706787109375,1.5491943359375,0.1754150390625
5.833,312,1640,2409,311,10.0,31.0,26.0,60.119625091552734,50.231929779052734,-34.85107421875,-2.2247314453125,1.3984375,-0.0205078125
5.834,309,1186,2303,311,10.0,31.0,26.0,32.8369140625,24.108884811401367,-24.230955123901367,-2.159912109375,0.8863525390625,-0.0960693359375
5.834,311,1264,2186,311,10.0,34.0,24.0,11.535643577575684,8.30078125,-12.268065452575684,-1.721923828125,0.2789306640625,-0.021728515625
5.835,309,1182,1905,311,10.0,34.0,24.0,5.554198741912842,0.1220703050494194,-6.713866710662842,-1.2275390625,-0.1082763671875,0.1744384765625
5.835,309,989,1714,311,10.0,34.0,24.0,10.742186546325684,-1.3427733182907104,-4.7607421875,-0.8800048828125,-0.2567138671875,0.365234375
5.844,311,918,1485,309,10.0,34.0,24.0,20.751951217651367,7.568358898162842,-0.6103515625,-0.6795654296875,-0.262939453125,0.3985595703125
5.871,311,780,1099,309,10.0,34.0,24.0,31.555173873901367,22.644041061401367,6.713866710662842,-0.545166015625,-0.17822265625,0.2850341796875
5.871,312,687,927,311,10.0,34.0,24.0,38.75732421875,33.50830078125,13.244627952575684,-0.470703125,-0.0673828125,0.1644287109375
5.872,309,625,833,310,10.0,34.0,24.0,38.2080078125,35.33935546875,16.11328125,-0.45654296875,0.0279541015625,0.0855712890625
5.881,309,497,723,310,10.0,34.0,24.0,31.433103561401367,32.40966796875,16.4794921875,-0.4285888671875,0.086669921875,0.0076904296875
5.889,310,483,702,310,10.0,34.0,24.0,26.000974655151367,29.296873092651367,15.808104515075684,-0.365234375,0.1258544921875,-0.0404052734375
5.897,310,483,679,309,10.0,34.0,24.0,25.939939498901367,25.756834030151367,14.465331077575684,-0.295166015625,0.1876220703125,-0.03515625
5.911,310,417,675,309,8.0,33.0,24.0,28.198240280151367,20.996091842651367,13.061522483825684,-0.2486572265625,0.3021240234375,-0.0057373046875
5.919,309,420,678,309,8.0,33.0,24.0,26.306150436401367,14.587401390075684,12.207030296325684,-0.2476806640625,0.416259765625,0.01513671875
5.932,309,426,696,309,8.0,33.0,24.0,16.54052734375,7.446288585662842,13.000487327575684,-0.2738037109375,0.4718017578125,0.025634765625
5.940,309,465,780,311,8.0,33.0,24.0,3.601073980331421,2.3193359375,16.4794921875,-0.3095703125,0.46240234375,0.030029296875
5.969,310,504,815,310,8.0,33.0,24.0,-4.21142578125,0.1831054538488388,21.728513717651367,-0.3743896484375,0.4112548828125,0.03173828125
5.975,309,558,864,311,8.0,33.0,24.0,-7.080077648162842,-0.9155272841453552,26.428220748901367,-0.4688720703125,0.326171875,0.0494384765625
5.979,310,654,990,311,8.0,33.0,24.0,-9.94873046875,-3.173827886581421,29.052732467651367,-0.5313720703125,0.222412109375,0.080078125
5.980,311,694,1125,312,8.0,33.0,24.0,-13.122557640075684,-7.629394054412842,29.846189498901367,-0.53955078125,0.15576171875,0.0731201171875
5.986,309,745,1294,310,8.0,33.0,24.0,-14.770506858825684,-14.465331077575684,30.578611373901367,-0.553466796875,0.187255859375,0.05078125
6.000,309,873,1521,311,8.0,33.0,24.0,-16.78466796875,-25.329587936401367,32.77587890625,-0.6177978515625,0.308349609375,0.07666015625
6.009,310,958,1630,311,8.0,34.0,26.0,-23.620603561401367,-40.283199310302734,37.41455078125,-0.6356201171875,0.417236328125,0.13671875
6.016,309,1043,1739,310,8.0,34.0,26.0,-33.0810546875,-54.443355560302734,40.954586029052734,-0.427490234375,0.4171142578125,0.22998046875
6.052,310,1232,2002,312,8.0,34.0,26.0,-36.4990234375,-61.279293060302734,33.69140625,0.0018310546875,0.353515625,0.3172607421875
6.069,311,1338,2246,311,8.0,34.0,26.0,-34.423828125,-55.847164154052734,9.3994140625,0.3253173828125,0.3651123046875,0.393798828125
6.075,311,1393,2440,311,8.0,34.0,26.0,-39.97802734375,-38.0859375,-25.085447311401367,0.1400146484375,0.4405517578125,0.4967041015625
6.077,311,1527,2630,310,8.0,34.0,26.0,-61.035152435302734,-14.770506858825684,-50.903316497802734,-0.613037109375,0.4310302734375,0.515380859375
6.078,311,1937,2712,311,8.0,34.0,26.0,-83.12987518310547,3.601073980331421,-54.321285247802734,-1.63037109375,0.28662109375,0.30908203125
6.078,310,1796,2757,311,8.0,34.0,26.0,-78.7353515625,8.11767578125,-40.405269622802734,-2.4609375,0.197998046875,0.02099609375
6.090,310,1703,2805,311,8.0,34.0,26.0,-46.081539154052734,-3.967284917831421,-22.888181686401367,-2.74169921875,0.28173828125,-0.0286865234375
6.098,310,1697,2798,311,8.0,34.0,26.0,-16.54052734375,-21.545408248901367,-10.742186546325684,-2.5146484375,0.37060546875,0.2493896484375
6.106,311,2012,2782,312,7.0,35.0,24.0,-7.141112804412842,-29.541013717651367,-2.25830078125,-1.94287109375,0.280517578125,0.67041015625
6.121,326,1588,2741,311,7.0,35.0,24.0,-1.15966796875,-20.996091842651367,6.835937023162842,-1.2308349609375,0.12548828125,0.968994140625
6.130,309,1630,2671,311,7.0,35.0,24.0,20.996091842651367,1.9531248807907104,10.437010765075684,-0.764404296875,0.2972412109375,1.0269775390625
6.147,322,1937,2636,311,7.0,35.0,24.0,51.147457122802734,31.982419967651367,-1.8310545682907104,-0.667236328125,0.7392578125,0.79443359375
6.177,311,2098,2612,311,7.0,35.0,24.0,69.39697265625,58.837886810302734,-29.724119186401367,-1.0101318359375,1.096435546875,0.373046875
6.178,310,1449,2576,312,7.0,35.0,24.0,71.35009765625,62.744136810302734,-54.870601654052734,-1.703125,1.2589111328125,0.0618896484375
6.179,311,1397,2514,311,7.0,35.0,24.0,55.969234466552734,42.846675872802734,-57.128902435302734,-2.192138671875,1.1904296875,-0.0867919921875
6.182,311,1178,2349,311,7.0,35.0,24.0,28.747556686401367,20.874021530151367,-39.1845703125,-2.15673828125,0.83544921875,-0.1290283203125
6.189,309,1050,2224,311,7.0,35.0,24.0,4.638671875,6.530761241912842,-18.6767578125,-1.7286376953125,0.318603515625,-0.0274658203125
6.197,311,971,2098,309,7.0,35.0,24.0,-7.019042491912842,-1.8920897245407104,-5.676269054412842,-1.167236328125,-0.137939453125,0.1732177734375
6.211,311,922,1830,310,9.0,33.0,30.0,-5.676269054412842,-3.417968511581421,0.9765624403953552,-0.7177734375,-0.4366455078125,0.3631591796875
6.219,310,858,1641,310,9.0,33.0,30.0,6.469726085662842,4.2724609375,5.615233898162842,-0.4942626953125,-0.44921875,0.4332275390625
6.227,309,809,1492,310,9.0,33.0,30.0,21.484373092651367,17.822265625,10.498045921325684,-0.4359130859375,-0.2393798828125,0.3660888671875
6.240,309,696,1182,311,9.0,33.0,30.0,29.296873092651367,29.296873092651367,13.732909202575684,-0.4603271484375,-0.000244140625,0.25
6.251,309,643,1012,309,9.0,33.0,30.0,27.160642623901367,33.63037109375,14.099120140075684,-0.505615234375,0.19384765625,0.115234375
6.263,309,572,909,309,9.0,33.0,30.0,27.160642623901367,33.63037109375,14.099120140075684,-0.513916015625,0.296630859375,-0.02734375
6.279,309,517,803,309,9.0,33.0,30.0,12.451170921325684,32.53173828125,12.145995140075684,-0.4586181640625,0.29150390625,-0.1080322265625
6.279,310,512,793,310,9.0,33.0,30.0,8.7890625,28.808591842651367,9.70458984375,-0.3638916015625,0.237548828125,-0.1119384765625
6.287,310,502,799,311,9.0,33.0,30.0,8.7890625,28.808591842651367,9.70458984375,-0.3179931640625,0.2506103515625,-0.075927734375
6.300,309,644,805,311,10.0,36.0,21.0,4.57763671875,15.380858421325684,4.39453125,-0.3538818359375,0.3489990234375,-0.014892578125
6.309,312,604,827,309,10.0,36.0,21.0,-0.0610351525247097,8.544921875,7.019042491912842,-0.42529296875,0.4500732421875,0.05810546875
6.317,309,635,858,311,10.0,36.0,21.0,-0.0610351525247097,8.544921875,7.019042491912842,-0.4990234375,0.4747314453125,0.1187744140625
6.331,309,706,922,309,10.0,36.0,21.0,-13.793944358825684,-2.0751953125,21.911619186401367,-0.5638427734375,0.403564453125,0.1558837890625
6.339,309,679,959,309,10.0,36.0,21.0,-17.333984375,-6.103515148162842,29.602048873901367,-0.5762939453125,0.2554931640625,0.1640625
6.346,311,698,1021,309,10.0,36.0,21.0,-17.333984375,-6.103515148162842,29.602048873901367,-0.5272216796875,0.095703125,0.1322021484375
6.379,309,794,1239,310,10.0,36.0,21.0,-14.709471702575684,-10.681151390075684,41.625972747802734,-0.4537353515625,0.0263671875,0.0760498046875
6.380,310,861,1428,309,10.0,36.0,21.0,-9.765625,-15.930174827575684,44.921871185302734,-0.3707275390625,0.0810546875,0.0272216796875
6.382,310,935,1572,311,10.0,36.0,21.0,-9.765625,-15.930174827575684,44.921871185302734,-0.302490234375,0.2626953125,0.0130615234375
6.392,310,1141,1824,311,10.0,36.0,21.0,-14.160155296325684,-39.85595703125,42.114253997802734,-0.1806640625,0.485107421875,0.06103515625
6.399,312,1234,2023,311,7.0,35.0,24.0,-29.113767623901367,-50.781246185302734,31.311033248901367,0.0887451171875,0.6038818359375,0.1217041015625
6.407,311,1274,2273,311,7.0,35.0,24.0,-29.113767623901367,-50.781246185302734,31.311033248901367,0.33740234375,0.6943359375,0.245361328125
6.420,310,1409,2581,310,7.0,35.0,24.0,-52.795406341552734,-41.259761810302734,-28.503416061401367,0.163818359375,0.7640380859375,0.4481201171875
6.429,311,1458,2674,309,7.0,35.0,24.0,-61.157222747802734,-22.521970748901367,-63.903804779052734,-0.5916748046875,0.6773681640625,0.487548828125
6.441,311,1478,2758,311,7.0,35.0,24.0,-61.157222747802734,-22.521970748901367,-63.903804779052734,-1.6270751953125,0.4853515625,0.3055419921875
6.451,310,1538,2835,311,7.0,35.0,24.0,-58.227535247802734,-1.9531248807907104,-75.68359375,-2.458251953125,0.3289794921875,0.15478515625
6.468,311,1595,2871,311,7.0,35.0,24.0,-42.663570404052734,-12.512206077575684,-59.936519622802734,-2.789794921875,0.2642822265625,0.21435546875
6.484,311,1605,2887,311,7.0,35.0,24.0,-42.663570404052734,-12.512206077575684,-59.936519622802734,-2.6270751953125,0.161376953125,0.423095703125
6.485,311,1557,2875,311,7.0,35.0,24.0,-27.099607467651367,-26.123044967651367,-36.92626953125,-2.048583984375,-0.0672607421875,0.6414794921875
6.490,306,1549,2853,311,7.0,35.0,24.0,-6.530761241912842,-12.451170921325684,-31.494138717651367,-1.309814453125,-0.2664794921875,0.7843017578125
6.503,310,1642,2800,311,9.0,33.0,19.0,-6.530761241912842,-12.451170921325684,-31.494138717651367,-0.830322265625,-0.1187744140625,0.828369140625
6.511,311,1837,2736,310,9.0,33.0,19.0,58.471675872802734,35.46142578125,-26.733396530151367,-0.7412109375,0.379638671875,0.694580078125
6.519,311,1635,2710,311,9.0,33.0,19.0,68.9697265625,56.396480560302734,-34.11865234375,-1.099609375,0.922607421875,0.39208984375
6.527,311,1464,2674,311,9.0,33.0,19.0,68.9697265625,56.396480560302734,-34.11865234375,-1.756103515625,1.257568359375,0.126953125
6.542,310,1260,2535,311,9.0,33.0,19.0,42.419429779052734,44.555660247802734,-39.9169921875,-2.179931640625,1.208740234375,-0.0234375
6.549,312,1160,2440,311,9.0,33.0,19.0,16.357421875,25.390623092651367,-25.085447311401367,-2.11376953125,0.75341796875,-0.05322265625
6.557,310,1069,2328,311,9.0,33.0,19.0,16.357421875,25.390623092651367,-25.085447311401367,-1.69921875,0.1640625,0.0653076171875
6.584,309,982,2165,310,9.0,33.0,19.0,-0.0610351525247097,11.108397483825684,-10.864256858825684,-1.69921875,0.1640625,0.0653076171875
6.585,297,873,1843,309,9.0,33.0,19.0,4.8828125,0.6713866591453552,1.4038084745407104,-0.8101806640625,-0.4140625,0.3643798828125
6.588,309,803,1615,311,9.0,33.0,19.0,4.8828125,0.6713866591453552,1.4038084745407104,-0.6180419921875,-0.3436279296875,0.34912109375
6.596,309,749,1404,310,11.0,33.0,21.0,20.324705123901367,7.019042491912842,3.356933355331421,-0.6180419921875,-0.3436279296875,0.34912109375
6.616,309,654,982,309,11.0,33.0,21.0,47.058101654052734,22.888181686401367,7.141112804412842,-0.499267578125,0.0255126953125,0.132568359375
6.618,305,562,832,311,11.0,33.0,21.0,47.058101654052734,22.888181686401367,7.141112804412842,-0.5040283203125,0.1717529296875,0.045166015625
6.626,310,497,749,309,11.0,33.0,21.0,46.386714935302734,23.803709030151367,7.873534679412842,-0.5040283203125,0.1717529296875,0.045166015625
6.639,454,465,680,685,11.0,33.0,21.0,27.404783248901367,24.902341842651367,4.94384765625,-0.4168701171875,0.2183837890625,-0.05908203125
6.648,452,452,644,650,11.0,33.0,21.0,27.404783248901367,24.902341842651367,4.94384765625,-0.4044189453125,0.285400390625,-0.03125
6.656,437,437,618,627,11.0,33.0,21.0,21.240232467651367,22.949216842651367,1.0986328125,-0.4044189453125,0.285400390625,-0.03125
6.685,465,475,619,618,11.0,33.0,21.0,-0.3662109076976776,7.202147960662842,3.234863042831421,-0.4681396484375,0.527587890625,0.0167236328125
6.685,815,729,617,620,11.0,33.0,21.0,-0.3662109076976776,7.202147960662842,3.234863042831421,-0.47412109375,0.5054931640625,-0.013671875
6.686,304,435,590,612,11.0,33.0,21.0,-18.1884765625,-0.2441406100988388,10.559081077575684,-0.47412109375,0.5054931640625,-0.013671875
6.700,338,420,638,309,9.0,33.0,26.0,-31.860349655151367,-8.23974609375,31.738279342651367,-0.443115234375,0.2001953125,-0.0618896484375
6.708,309,414,651,309,9.0,33.0,26.0,-31.860349655151367,-8.23974609375,31.738279342651367,-0.4068603515625,0.00048828125,-0.063720703125
6.716,309,433,697,309,9.0,33.0,26.0,-24.902341842651367,-12.207030296325684,41.381832122802734,-0.4068603515625,0.00048828125,-0.063720703125
6.729,309,601,793,309,9.0,33.0,26.0,-0.2441406100988388,-22.644041061401367,51.025386810302734,-0.341064453125,-0.1435546875,0.053466796875
6.738,306,691,864,311,9.0,33.0,26.0,-0.2441406100988388,-22.644041061401367,51.025386810302734,-0.3818359375,-0.013427734375,0.22119140625
6.749,309,764,1020,311,9.0,33.0,26.0,9.09423828125,-29.907224655151367,50.964351654052734,-0.3818359375,-0.013427734375,0.22119140625
6.762,311,909,1401,310,9.0,33.0,26.0,11.779784202575684,-42.968746185302734,46.142574310302734,-0.3040771484375,0.41455078125,0.24267578125
6.768,311,1025,1562,311,9.0,33.0,26.0,11.779784202575684,-42.968746185302734,46.142574310302734,-0.185302734375,0.6611328125,0.10693359375
6.785,309,1139,1725,310,9.0,33.0,26.0,5.065917491912842,-43.640132904052734,39.00146484375,-0.185302734375,0.6611328125,0.10693359375
6.794,311,1266,2202,311,10.0,34.0,29.0,-22.766111373901367,-50.659175872802734,5.920409679412842,0.2047119140625,1.028076171875,0.1712646484375
6.799,311,1340,2419,311,10.0,34.0,29.0,-22.766111373901367,-50.659175872802734,5.920409679412842,0.1341552734375,0.8677978515625,0.3389892578125
6.805,310,1409,2560,310,10.0,34.0,29.0,-42.114253997802734,-42.846675872802734,-29.296873092651367,0.1341552734375,0.8677978515625,0.3389892578125
6.819,309,1466,2737,311,10.0,34.0,29.0,-106.44530487060547,-15.869139671325684,-78.43017578125,-1.44970703125,0.042236328125,0.5074462890625
6.828,307,1483,2803,311,10.0,34.0,29.0,-106.44530487060547,-15.869139671325684,-78.43017578125,-2.312744140625,-0.3045654296875,0.328857421875
6.841,311,1513,2840,310,10.0,34.0,29.0,-118.10301971435547,-10.864256858825684,-68.2373046875,-2.312744140625,-0.3045654296875,0.328857421875
6.849,309,1559,2884,311,10.0,34.0,29.0,-37.90283203125,-34.7900390625,-31.127927780151367,-2.70654296875,0.0050048828125,0.3453369140625
6.858,309,1564,2870,311,10.0,34.0,29.0,-37.90283203125,-34.7900390625,-31.127927780151367,-2.3609619140625,0.183349609375,0.6683349609375
6.866,310,1695,2854,311,10.0,34.0,29.0,-4.2724609375,-45.288082122802734,-11.352538108825684,-2.3609619140625,0.183349609375,0.6683349609375
6.889,311,1730,2811,310,10.0,34.0,29.0,14.770506858825684,-1.4038084745407104,24.108884811401367,-1.0076904296875,-0.0457763671875,0.828857421875
6.889,310,1477,2741,311,10.0,32.0,27.0,14.770506858825684,-1.4038084745407104,24.108884811401367,-0.734130859375,0.4786376953125,0.7098388671875
6.896,309,1456,2727,311,10.0,32.0,27.0,40.954586029052734,28.015134811401367,18.85986328125,-0.734130859375,0.4786376953125,0.7098388671875
6.910,310,1415,2713,311,10.0,32.0,27.0,69.88525390625,66.650390625,-36.68212890625,-1.3450927734375,1.403076171875,0.2364501953125
6.918,310,1384,2674,312,10.0,32.0,27.0,69.88525390625,66.650390625,-36.68212890625,-1.9490966796875,1.38037109375,0.1480712890625
6.926,309,1377,2615,311,10.0,32.0,27.0,53.894039154052734,57.617183685302734,-55.053707122802734,-1.9490966796875,1.38037109375,0.1480712890625
6.939,311,1196,2473,311,10.0,32.0,27.0,-1.0986328125,22.827146530151367,-39.36767578125,-1.88427734375,0.4039306640625,0.1126708984375
6.954,308,1117,2368,312,10.0,32.0,27.0,-1.0986328125,22.827146530151367,-39.36767578125,-1.4466552734375,-0.0623779296875,0.2540283203125
6.956,311,1037,2238,310,10.0,32.0,27.0,-5.615233898162842,15.197752952575684,-29.968259811401367,-1.4466552734375,-0.0623779296875,0.2540283203125
6.996,311,949,1973,311,10.0,32.0,27.0,5.432128429412842,13.122557640075684,-24.597166061401367,-0.84716796875,-0.2913818359375,0.490966796875
6.997,309,875,1755,310,10.0,32.0,27.0,21.667478561401367,18.12744140625,-18.98193359375,-0.7276611328125,-0.26513671875,0.37451171875
6.997,310,814,1486,311,10.0,35.0,28.0,34.7900390625,28.503416061401367,-11.108397483825684,-0.7276611328125,-0.26513671875,0.37451171875
7.000,309,782,1029,311,10.0,35.0,28.0,43.579097747802734,37.78076171875,-1.8920897245407104,-0.607421875,-0.1551513671875,0.0477294921875
7.008,311,886,859,311,10.0,35.0,28.0,48.645015716552734,39.4287109375,5.920409679412842,-0.607421875,-0.1551513671875,0.0477294921875
7.016,310,901,764,310,10.0,35.0,28.0,48.767086029052734,33.87451171875,10.986327171325684,-0.593994140625,-0.041748046875,-0.03662109375
7.029,482,491,633,633,10.0,35.0,28.0,43.762203216552734,27.282712936401367,14.221190452575684,-0.469970703125,0.1282958984375,-0.0819091796875
7.038,485,488,603,606,10.0,35.0,28.0,36.9873046875,23.376462936401367,15.686034202575684,-0.469970703125,0.1282958984375,-0.0819091796875
7.046,483,488,603,607,10.0,35.0,28.0,32.958984375,20.690916061401367,15.136717796325684,-0.3941650390625,0.205810546875,-0.0411376953125
7.059,886,922,605,613,10.0,35.0,28.0,30.395505905151367,16.78466796875,14.160155296325684,-0.3468017578125,0.51708984375,0.0482177734375
7.068,734,724,614,616,10.0,35.0,28.0,20.446775436401367,10.314940452575684,14.526366233825684,-0.3468017578125,0.51708984375,0.0482177734375
7.095,647,673,629,628,10.0,35.0,28.0,1.8920897245407104,4.08935546875,16.78466796875,-0.3267822265625,0.5535888671875,0.0169677734375
7.095,309,428,617,309,11.0,36.0,24.0,-13.916014671325684,1.8310545682907104,20.446775436401367,-0.3009033203125,0.318603515625,-0.0684814453125
7.103,309,426,654,309,11.0,36.0,24.0,-17.63916015625,2.50244140625,24.719236373901367,-0.3009033203125,0.318603515625,-0.0684814453125
7.106,309,437,702,311,11.0,36.0,24.0,-11.047362327575684,2.197265625,29.235837936401367,-0.3226318359375,0.136962890625,-0.0513916015625
7.119,309,587,818,310,11.0,36.0,24.0,-1.2817381620407104,-0.9765624403953552,33.0810546875,-0.3399658203125,-0.05224609375,0.068115234375
7.128,309,671,886,309,11.0,36.0,24.0,5.126952648162842,-7.080077648162842,34.97314453125,-0.3399658203125,-0.05224609375,0.068115234375
7.136,310,740,1063,311,11.0,36.0,24.0,6.774901866912842,-15.014647483825684,35.33935546875,-0.4056396484375,0.0394287109375,0.1273193359375
7.150,308,895,1480,310,11.0,36.0,24.0,5.615233898162842,-23.681638717651367,37.59765625,-0.412841796875,0.4403076171875,0.0654296875
7.158,310,982,1643,311,11.0,36.0,24.0,1.0986328125,-30.944822311401367,42.846675872802734,-0.412841796875,0.4403076171875,0.0654296875
7.166,310,1104,1798,314,11.0,36.0,24.0,-13.183592796325684,-39.24560546875,48.217769622802734,-0.34423828125,0.65673828125,0.0146484375
7.194,311,1294,2175,311,8.0,34.0,29.0,-38.6962890625,-53.405757904052734,47.363277435302734,0.091064453125,0.6820068359375,0.1939697265625
7.194,309,1391,2384,310,8.0,34.0,29.0,-64.14794921875,-64.453125,29.052732467651367,0.091064453125,0.6820068359375,0.1939697265625
7.196,310,1453,2517,311,8.0,34.0,29.0,-81.90917205810547,-63.110347747802734,-8.72802734375,-0.0260009765625,0.5352783203125,0.4349365234375
7.215,319,2076,2700,311,8.0,34.0,29.0,-95.45897674560547,-47.485347747802734,-47.363277435302734,-1.484619140625,0.0419921875,0.5355224609375
7.218,307,2057,2762,311,8.0,34.0,29.0,-104.18700408935547,-18.06640625,-66.71142578125,-1.484619140625,0.0419921875,0.5355224609375
7.226,311,2116,2807,311,8.0,34.0,29.0,-95.82518768310547,4.69970703125,-63.293453216552734,-2.30029296875,-0.0462646484375,0.2119140625
7.239,313,2122,2842,311,8.0,34.0,29.0,-64.8193359375,-1.8920897245407104,-44.799800872802734,-2.6954345703125,0.2562255859375,0.3345947265625
7.252,310,2153,2811,310,8.0,34.0,29.0,-29.296873092651367,-26.977537155151367,-22.155759811401367,-2.6954345703125,0.2562255859375,0.3345947265625
7.255,311,2078,2792,311,8.0,34.0,29.0,-11.474608421325684,-40.710445404052734,-2.868652105331421,-2.2572021484375,0.2279052734375,0.67529296875
7.269,309,1798,2737,311,8.0,34.0,29.0,-5.493163585662842,-27.465818405151367,10.131834983825684,-0.8765869140625,-0.0048828125,0.851318359375
7.284,310,1671,2668,311,11.0,33.0,21.0,16.4794921875,-0.4882812201976776,13.366698265075684,-0.8765869140625,-0.0048828125,0.851318359375
7.300,314,1878,2656,311,11.0,33.0,21.0,52.734371185302734,22.644041061401367,4.150390625,-0.671630859375,0.5322265625,0.778076171875
7.301,310,1632,2624,311,11.0,33.0,21.0,74.0966796875,46.630855560302734,-16.90673828125,-1.6060791015625,1.4100341796875,0.20263671875
7.318,311,1449,2578,310,11.0,33.0,21.0,69.76318359375,62.133785247802734,-39.4287109375,-1.6060791015625,1.4100341796875,0.20263671875
7.319,307,1362,2516,312,11.0,33.0,21.0,45.349117279052734,53.283687591552734,-47.973628997802734,-2.0909423828125,1.2769775390625,0.013671875
7.329,309,1386,2372,311,11.0,33.0,21.0,15.441893577575684,32.53173828125,-41.870113372802734,-1.712646484375,0.2318115234375,0.0814208984375
7.338,311,1711,2251,311,11.0,33.0,21.0,-0.9765624403953552,16.17431640625,-32.40966796875,-1.712646484375,0.2318115234375,0.0814208984375
7.346,312,1691,2122,311,11.0,33.0,21.0,1.3427733182907104,8.36181640625,-26.916501998901367,-1.2572021484375,-0.15478515625,0.29833984375
7.359,311,1428,1844,310,11.0,33.0,21.0,14.404295921325684,8.4228515625,-24.169919967651367,-0.763916015625,-0.30712890625,0.47705078125
7.368,307,1306,1619,309,11.0,33.0,21.0,29.541013717651367,16.54052734375,-19.83642578125,-0.763916015625,-0.30712890625,0.47705078125
7.376,310,1104,1383,310,9.0,34.0,26.0,40.893550872802734,29.235837936401367,-12.207030296325684,-0.6964111328125,-0.207275390625,0.33154296875
7.408,309,909,964,311,9.0,34.0,26.0,45.227046966552734,38.63525390625,-3.540038824081421,-0.61572265625,-0.0849609375,0.0238037109375
7.409,310,693,832,309,9.0,34.0,26.0,44.006343841552734,39.0625,3.173827886581421,-0.61572265625,-0.0849609375,0.0238037109375
7.410,309,537,750,310,9.0,34.0,26.0,39.73388671875,32.5927734375,7.934569835662842,-0.5899658203125,-0.0025634765625,-0.0516357421875
7.425,309,479,638,310,9.0,34.0,26.0,34.5458984375,26.733396530151367,12.084959983825684,-0.44873046875,0.125244140625,-0.094482421875
7.428,465,467,610,612,9.0,34.0,26.0,31.066892623901367,23.254392623901367,15.014647483825684,-0.44873046875,0.125244140625,-0.094482421875
7.436,439,440,589,591,9.0,34.0,26.0,30.700681686401367,19.6533203125,16.41845703125,-0.400634765625,0.2452392578125,-0.0570068359375
7.450,409,411,607,607,9.0,34.0,26.0,26.672361373901367,12.634276390075684,17.578125,-0.3843994140625,0.41796875,0.0037841796875
7.458,407,410,630,631,9.0,34.0,26.0,11.596678733825684,2.929687261581421,19.59228515625,-0.3592529296875,0.5242919921875,0.03369140625
7.466,396,401,631,636,9.0,34.0,26.0,-9.09423828125,-4.150390625,22.888181686401367,-0.3341064453125,0.5015869140625,-0.00048828125
7.480,407,411,659,669,10.0,31.0,24.0,-22.033689498901367,-5.920409679412842,27.709959030151367,-0.321044921875,0.3704833984375,-0.0618896484375
7.488,309,426,694,309,10.0,31.0,24.0,-19.83642578125,-5.249022960662842,33.69140625,-0.3277587890625,0.2047119140625,-0.0906982421875
7.505,309,463,736,309,10.0,31.0,24.0,-6.652831554412842,-6.469726085662842,39.55078125,-0.3309326171875,0.05029296875,-0.05078125
7.510,309,645,848,311,10.0,31.0,24.0,6.408690929412842,-11.169432640075684,42.846675872802734,-0.2996826171875,-0.0543212890625,0.0438232421875
7.519,308,711,928,311,10.0,31.0,24.0,12.084959983825684,-18.61572265625,42.480464935302734,-0.34716796875,-0.011962890625,0.150390625
7.528,309,788,1185,311,10.0,31.0,24.0,10.742186546325684,-28.381345748901367,42.114253997802734,-0.445556640625,0.1746826171875,0.2237548828125
7.540,309,944,1497,310,10.0,31.0,24.0,5.432128429412842,-37.04833984375,44.311519622802734,-0.412109375,0.37939453125,0.16015625
7.548,310,1034,1683,309,10.0,31.0,24.0,-3.723144292831421,-43.090816497802734,45.166011810302734,-0.3297119140625,0.607177734375,0.0303955078125
7.556,309,1140,1847,311,10.0,31.0,24.0,-17.39501953125,-53.100582122802734,40.344234466552734,-0.1854248046875,0.8096923828125,0.0469970703125
7.569,309,1317,2278,311,10.0,31.0,24.0,-32.53173828125,-64.02587890625,24.780271530151367,0.054443359375,0.864013671875,0.1644287109375
7.580,311,1372,2449,311,9.0,33.0,26.0,-48.767086029052734,-63.842769622802734,-6.103515148162842,0.05908203125,0.7601318359375,0.3724365234375
7.586,309,1424,2574,311,9.0,33.0,26.0,-70.9228515625,-50.720211029052734,-40.649410247802734,-0.419921875,0.530517578125,0.6126708984375
7.613,310,1471,2713,311,9.0,33.0,26.0,-101.56249237060547,-28.137205123901367,-58.288570404052734,-1.254638671875,0.19091796875,0.5711669921875
7.613,310,1486,2756,311,9.0,33.0,26.0,-121.39891815185547,-6.469726085662842,-54.992671966552734,-2.1270751953125,-0.1175537109375,0.2568359375
7.616,310,1516,2797,311,9.0,33.0,26.0,-103.39354705810547,-5.371093273162842,-40.344234466552734,-2.6488037109375,-0.1944580078125,0.0465087890625
7.637,310,1551,2813,311,9.0,33.0,26.0,-57.556148529052734,-25.878904342651367,-23.681638717651367,-2.6138916015625,-0.094482421875,0.168701171875
7.638,309,1547,2810,311,9.0,33.0,26.0,-17.2119140625,-43.762203216552734,-11.779784202575684,-2.1959228515625,0.098388671875,0.549072265625
7.650,311,1599,2803,310,9.0,33.0,26.0,2.01416015625,-40.710445404052734,-3.601073980331421,-1.6258544921875,0.30712890625,0.90234375
7.660,311,1527,2738,310,9.0,33.0,26.0,10.498045921325684,-16.29638671875,1.3427733182907104,-1.0860595703125,0.41064453125,0.9923095703125
7.668,310,1471,2671,310,9.0,33.0,26.0,23.437498092651367,19.47021484375,-3.723144292831421,-0.7972412109375,0.5107421875,0.848388671875
7.676,310,1456,2659,311,11.0,33.0,27.0,39.48974609375,53.405757904052734,-21.972654342651367,-0.788330078125,0.6416015625,0.5762939453125
7.713,311,1401,2615,311,11.0,33.0,27.0,50.231929779052734,75.1953125,-48.156734466552734,-1.083251953125,0.7510986328125,0.279541015625
7.714,310,1340,2576,311,11.0,33.0,27.0,52.917476654052734,73.54736328125,-67.2607421875,-1.673828125,0.877197265625,0.1346435546875
7.714,310,1249,2502,310,11.0,33.0,27.0,40.954586029052734,50.720211029052734,-63.903804779052734,-2.1512451171875,0.89892578125,0.111572265625
7.720,309,1103,2340,310,11.0,33.0,27.0,16.90673828125,27.465818405151367,-41.442867279052734,-2.184326171875,0.6397705078125,0.0987548828125
7.728,310,1035,2222,311,11.0,33.0,27.0,-1.03759765625,13.916014671325684,-15.441893577575684,-1.8231201171875,0.1380615234375,0.142578125
7.750,309,1066,2089,311,11.0,33.0,27.0,-2.38037109375,6.286620616912842,4.8828125,-1.311279296875,-0.3148193359375,0.2608642578125
7.750,333,1251,1753,310,11.0,33.0,27.0,8.6669921875,2.3193359375,19.4091796875,-0.91943359375,-0.4913330078125,0.3701171875
7.758,311,1294,1508,311,11.0,33.0,27.0,24.353025436401367,4.8828125,30.761716842651367,-0.70556640625,-0.4110107421875,0.3677978515625
7.766,312,1295,1264,310,11.0,33.0,27.0,39.6728515625,14.099120140075684,39.0625,-0.5867919921875,-0.228271484375,0.255126953125
7.779,311,1142,872,310,10.0,34.0,23.0,50.231929779052734,22.216794967651367,41.870113372802734,-0.5211181640625,-0.041015625,0.1195068359375
7.792,310,818,772,308,10.0,34.0,23.0,52.307125091552734,23.986814498901367,38.57421875,-0.4862060546875,0.1448974609375,0.0206298828125
7.796,311,755,697,310,10.0,34.0,23.0,45.532222747802734,23.742673873901367,31.555173873901367,-0.455322265625,0.286376953125,-0.039794921875
7.809,310,715,607,309,10.0,34.0,23.0,35.33935546875,24.475095748901367,22.949216842651367,-0.410888671875,0.335693359375,-0.0599365234375
7.826,308,652,605,309,10.0,34.0,23.0,27.954099655151367,23.864744186401367,14.892577171325684,-0.3759765625,0.3861083984375,-0.0435791015625
7.828,309,561,609,310,10.0,34.0,23.0,21.484373092651367,18.9208984375,9.94873046875,-0.3729248046875,0.4947509765625,-0.0040283203125
7.856,340,420,616,309,10.0,34.0,23.0,8.72802734375,9.765625,9.09423828125,-0.3697509765625,0.5526123046875,0.0230712890625
7.856,295,420,630,309,10.0,34.0,23.0,-9.27734375,1.2817381620407104,11.779784202575684,-0.3436279296875,0.5013427734375,0.0064697265625
7.858,309,420,656,310,10.0,34.0,23.0,-21.728513717651367,-1.8920897245407104,16.9677734375,-0.3104248046875,0.3612060546875,-0.03173828125
7.870,309,418,691,309,10.0,34.0,25.0,-19.71435546875,-0.7324218153953552,22.888181686401367,-0.282958984375,0.186279296875,-0.043212890625
7.878,310,431,738,309,10.0,34.0,25.0,-4.21142578125,0.7934569716453552,27.954099655151367,-0.253173828125,0.01513671875,-0.0201416015625
7.888,309,493,806,311,10.0,34.0,25.0,14.587401390075684,0.0,31.005857467651367,-0.2108154296875,-0.094970703125,0.022216796875
7.916,309,683,1029,310,10.0,34.0,25.0,23.559568405151367,-4.57763671875,31.311033248901367,-0.2122802734375,-0.0501708984375,0.0849609375
7.917,310,758,1243,310,10.0,34.0,25.0,17.27294921875,-13.488768577575684,29.724119186401367,-0.3251953125,0.166015625,0.15966796875
7.917,309,844,1454,311,10.0,34.0,25.0,3.417968511581421,-23.986814498901367,28.747556686401367,-0.41455078125,0.448486328125,0.16015625
7.930,310,1017,1766,311,10.0,34.0,25.0,-9.09423828125,-32.16552734375,29.235837936401367,-0.4306640625,0.697509765625,0.0697021484375
7.938,311,1129,1892,311,10.0,34.0,25.0,-21.240232467651367,-40.832515716552734,28.320310592651367,-0.418212890625,0.862548828125,0.0797119140625
7.957,310,1192,2089,311,10.0,34.0,25.0,-36.62109375,-52.062984466552734,22.216794967651367,-0.3316650390625,0.8765869140625,0.2340087890625
7.961,310,1268,2402,297,10.0,34.0,25.0,-55.908199310302734,-57.128902435302734,6.408690929412842,-0.32080078125,0.72998046875,0.4296875
7.969,311,1335,2505,311,9.0,32.0,25.0,-78.79638671875,-50.354000091552734,-17.88330078125,-0.6302490234375,0.510009765625,0.5853271484375
7.976,311,1375,2584,311,9.0,32.0,25.0,-101.68456268310547,-35.09521484375,-37.59765625,-1.2266845703125,0.1865234375,0.5830078125
7.990,311,1401,2679,311,9.0,32.0,25.0,-111.81639862060547,-17.08984375,-41.992183685302734,-1.90673828125,-0.125244140625,0.388427734375
8.017,309,1429,2719,311,9.0,32.0,25.0,-92.28514862060547,-6.774901866912842,-31.311033248901367,-2.4136962890625,-0.1593017578125,0.1676025390625
8.017,311,1439,2715,311,9.0,32.0,25.0,-50.903316497802734,-11.962889671325684,-12.634276390075684,-2.5086669921875,-0.0142822265625,0.13525390625
8.020,310,1449,2700,311,9.0,32.0,25.0,-16.11328125,-23.986814498901367,5.310058116912842,-2.1529541015625,0.023681640625,0.330322265625
8.030,310,1428,2677,311,9.0,32.0,25.0,2.0751953125,-27.893064498901367,17.88330078125,-1.5198974609375,-0.0177001953125,0.6307373046875
8.036,310,1398,2647,311,9.0,32.0,25.0,19.1650390625,-17.4560546875,21.240232467651367,-0.9542236328125,0.1629638671875,0.867431640625
8.050,311,1318,2530,310,9.0,32.0,25.0,42.907711029052734,5.859374523162842,11.657713890075684,-0.6805419921875,0.5662841796875,0.9122314453125
8.072,311,1292,2512,311,9.0,32.0,25.0,59.753414154052734,38.63525390625,-9.033203125,-0.6768798828125,0.8604736328125,0.69873046875
8.072,311,1251,2492,296,9.0,34.0,25.0,64.208984375,68.90869140625,-33.935546875,-0.9302978515625,0.9378662109375,0.3408203125
8.081,309,1234,2432,311,9.0,34.0,25.0,62.377925872802734,75.13427734375,-51.391597747802734,-1.428955078125,0.947021484375,0.0994873046875
8.089,309,1173,2372,311,9.0,34.0,25.0,51.635738372802734,54.626461029052734,-50.903316497802734,-1.863037109375,0.906982421875,0.0264892578125
8.105,310,1093,2299,311,9.0,34.0,25.0,32.04345703125,30.090330123901367,-35.888671875,-1.95361328125,0.7310791015625,0.0113525390625
8.122,311,963,2105,311,9.0,34.0,25.0,15.014647483825684,16.2353515625,-19.53125,-1.7354736328125,0.4017333984375,0.0599365234375
8.122,309,883,1968,309,9.0,34.0,25.0,8.48388671875,10.131834983825684,-9.58251953125,-1.359619140625,-0.011962890625,0.1702880859375
8.131,310,799,1772,311,9.0,34.0,25.0,13.244627952575684,8.544921875,-5.0048828125,-1.01123046875,-0.2962646484375,0.259033203125
8.140,310,696,1404,311,9.0,34.0,25.0,26.733396530151367,11.779784202575684,-0.54931640625,-0.7896728515625,-0.3154296875,0.278076171875
8.149,305,636,1166,311,9.0,34.0,25.0,41.992183685302734,18.798828125,5.798339366912842,-0.668212890625,-0.183349609375,0.2437744140625
8.156,310,586,936,311,9.0,34.0,25.0,50.415035247802734,25.268552780151367,12.023924827575684,-0.6031494140625,-0.013916015625,0.1737060546875
8.169,309,473,764,309,9.0,35.0,29.0,47.607418060302734,28.198240280151367,16.4794921875,-0.5599365234375,0.13134765625,0.0908203125
8.178,309,441,685,309,9.0,35.0,29.0,36.68212890625,28.564451217651367,18.37158203125,-0.52099609375,0.2156982421875,0.0367431640625
8.186,309,428,630,310,9.0,35.0,29.0,26.489255905151367,27.099607467651367,17.7001953125,-0.4747314453125,0.268310546875,0.037353515625
8.200,310,408,604,309,9.0,35.0,29.0,22.277830123901367,23.437498092651367,16.357421875,-0.439453125,0.37158203125,0.07861328125
8.208,308,386,607,309,9.0,35.0,29.0,20.080564498901367,16.7236328125,15.808104515075684,-0.440185546875,0.506103515625,0.1136474609375
8.230,310,381,620,310,9.0,35.0,29.0,11.779784202575684,7.324218273162842,15.319823265075684,-0.4508056640625,0.570068359375,0.1004638671875
8.230,309,382,657,310,9.0,35.0,29.0,-3.173827886581421,-1.0986328125,15.441893577575684,-0.4326171875,0.536376953125,0.0325927734375
8.238,309,379,661,305,9.0,35.0,29.0,-15.991209983825684,-4.94384765625,17.88330078125,-0.39111328125,0.410888671875,-0.0478515625
8.249,310,381,684,309,9.0,35.0,29.0,-18.798828125,-5.371093273162842,22.094724655151367,-0.337890625,0.21142578125,-0.080322265625
8.259,309,401,749,310,8.0,32.0,24.0,-10.314940452575684,-5.493163585662842,25.756834030151367,-0.2557373046875,-0.009521484375,-0.06298828125
8.274,309,451,799,309,8.0,32.0,24.0,5.187987804412842,-5.676269054412842,27.160642623901367,-0.185546875,-0.1727294921875,-0.0506591796875
8.276,295,559,871,310,8.0,32.0,24.0,20.263669967651367,-6.713866710662842,27.038572311401367,-0.182861328125,-0.14306640625,-0.0301513671875
8.290,309,710,1043,311,8.0,32.0,24.0,25.207517623901367,-13.061522483825684,27.038572311401367,-0.330322265625,0.1304931640625,0.051025390625
8.298,309,788,1213,311,8.0,32.0,24.0,15.930174827575684,-25.573728561401367,28.564451217651367,-0.4967041015625,0.469970703125,0.14697265625
8.318,309,888,1424,311,8.0,32.0,24.0,-0.8544921278953552,-35.94970703125,31.860349655151367,-0.52783203125,0.704345703125,0.10107421875
8.351,309,1070,1656,311,8.0,32.0,24.0,-17.39501953125,-41.748043060302734,34.11865234375,-0.5048828125,0.7938232421875,0.029296875
8.351,309,1153,1805,311,8.0,32.0,24.0,-29.357908248901367,-51.269527435302734,30.517576217651367,-0.3712158203125,0.72998046875,0.1185302734375
8.366,310,1274,1941,311,8.0,32.0,24.0,-37.841796875,-60.791011810302734,16.6015625,-0.163818359375,0.6114501953125,0.2208251953125
8.366,312,1385,2233,311,8.0,32.0,24.0,-51.391597747802734,-61.462398529052734,-7.934569835662842,-0.146728515625,0.5120849609375,0.3621826171875
8.366,311,1454,2379,311,9.0,31.0,27.0,-73.42529296875,-52.246089935302734,-33.63037109375,-0.5081787109375,0.341552734375,0.55517578125
8.368,310,1480,2484,311,9.0,31.0,27.0,-100.70800018310547,-31.738279342651367,-45.593257904052734,-1.205078125,-0.0108642578125,0.600830078125
8.380,309,1560,2587,311,9.0,31.0,27.0,-117.30956268310547,-6.652831554412842,-38.818359375,-1.970458984375,-0.3209228515625,0.4503173828125
8.388,310,1610,2624,311,9.0,31.0,27.0,-97.83934783935547,6.774901866912842,-21.118162155151367,-2.4385986328125,-0.2435302734375,0.2352294921875
8.396,310,1738,2645,311,9.0,31.0,27.0,-47.851558685302734,1.9531248807907104,-3.967284917831421,-2.408447265625,0.0731201171875,0.1644287109375
8.428,310,1742,2638,311,9.0,31.0,27.0,-1.3427733182907104,-9.27734375,4.94384765625,-2.0447998046875,0.4598388671875,0.3475341796875
8.433,309,1791,2598,311,9.0,31.0,27.0,21.545408248901367,-13.671874046325684,5.126952648162842,-1.5943603515625,0.8597412109375,0.6688232421875
8.433,310,1805,2576,311,9.0,31.0,27.0,23.498533248901367,-2.929687261581421,-0.9155272841453552,-1.1263427734375,0.98681640625,0.8372802734375
8.439,311,1691,2512,311,9.0,31.0,27.0,20.629880905151367,23.864744186401367,-15.502928733825684,-0.80810546875,0.83154296875,0.7420654296875
8.448,310,1675,2503,311,9.0,31.0,27.0,24.658201217651367,51.086421966552734,-39.4287109375,-0.780029296875,0.6513671875,0.5306396484375
8.456,311,1624,2514,311,11.0,32.0,30.0,33.02001953125,65.5517578125,-65.5517578125,-1.0758056640625,0.5977783203125,0.2967529296875
8.469,309,1372,2479,311,11.0,32.0,30.0,38.51318359375,62.622066497802734,-79.89501953125,-1.6663818359375,0.71630859375,0.13525390625
8.478,310,1375,2445,311,11.0,32.0,30.0,33.50830078125,44.250484466552734,-70.6787109375,-2.1751708984375,0.828857421875,0.057861328125
8.488,310,1331,2381,314,11.0,32.0,30.0,33.50830078125,44.250484466552734,-70.6787109375,-2.2939453125,0.690185546875,0.018798828125
8.502,328,1508,2204,311,11.0,32.0,30.0,1.8920897245407104,7.324218273162842,-14.953612327575684,-2.021240234375,0.26708984375,0.08642578125
8.509,310,923,2045,309,11.0,32.0,30.0,0.0,-3.662109136581421,7.202147960662842,-1.505126953125,-0.200439453125,0.2235107421875
8.535,311,842,1846,311,11.0,32.0,30.0,0.0,-3.662109136581421,7.202147960662842,-0.994873046875,-0.4578857421875,0.3065185546875
8.535,309,724,1466,310,11.0,32.0,30.0,27.038572311401367,-5.920409679412842,30.761716842651367,-0.649169921875,-0.4422607421875,0.291259765625
8.537,309,724,1251,311,11.0,32.0,30.0,43.212886810302734,2.990722417831421,35.2783203125,-0.4678955078125,-0.260986328125,0.216064453125
8.549,311,801,996,309,11.0,32.0,30.0,43.212886810302734,2.990722417831421,35.2783203125,-0.3782958984375,-0.0660400390625,0.135009765625
8.559,309,479,763,310,9.0,35.0,28.0,49.865718841552734,16.41845703125,33.14208984375,-0.32373046875,0.0943603515625,0.0721435546875
8.568,309,438,693,309,9.0,35.0,28.0,41.687007904052734,18.37158203125,28.686521530151367,-0.287109375,0.2222900390625,0.0341796875
8.576,309,431,650,311,9.0,35.0,28.0,41.687007904052734,18.37158203125,28.686521530151367,-0.257568359375,0.341796875,0.0316162109375
8.594,309,419,630,307,9.0,35.0,28.0,30.395505905151367,20.690916061401367,17.578125,-0.2406005859375,0.513916015625,0.0657958984375
8.598,308,417,631,310,9.0,35.0,28.0,24.475095748901367,17.39501953125,11.779784202575684,-0.2742919921875,0.6904296875,0.0926513671875
8.608,307,411,631,310,9.0,35.0,28.0,24.475095748901367,17.39501953125,11.779784202575684,-0.340576171875,0.729248046875,0.065185546875
8.635,309,405,654,309,9.0,35.0,28.0,-10.742186546325684,4.8828125,2.868652105331421,-0.405517578125,0.6234130859375,-0.0006103515625
8.635,309,390,668,310,9.0,35.0,28.0,-23.315427780151367,2.44140625,2.624511480331421,-0.468017578125,0.444091796875,-0.0528564453125
8.636,293,393,693,309,9.0,35.0,28.0,-23.315427780151367,2.44140625,2.624511480331421,-0.5135498046875,0.2376708984375,-0.0660400390625
8.651,309,417,754,309,8.0,36.0,31.0,-11.718749046325684,-3.479003667831421,11.108397483825684,-0.5357666015625,0.0533447265625,-0.054931640625
8.659,309,435,793,309,8.0,36.0,31.0,-1.7089842557907104,-8.97216796875,17.63916015625,-0.5213623046875,-0.083740234375,-0.0018310546875
8.670,309,506,846,310,8.0,36.0,31.0,3.662109136581421,-15.991209983825684,23.437498092651367,-0.45751953125,-0.1754150390625,0.0909423828125
8.681,309,687,1070,310,8.0,36.0,31.0,7.629394054412842,-23.925779342651367,27.770994186401367,-0.4249267578125,-0.159912109375,0.162841796875
8.691,308,759,1249,310,8.0,36.0,31.0,12.695311546325684,-32.53173828125,32.1044921875,-0.445068359375,0.0185546875,0.1759033203125
8.711,309,868,1444,310,8.0,36.0,31.0,16.41845703125,-40.710445404052734,37.29248046875,-0.42626953125,0.2725830078125,0.10986328125
