time,compression0,compression1,compression2,compression3,magn_x,magn_y,magn_z,gyro_x,gyro_y,gyro_z,accel_x,accel_y,accel_z
0.019,309,467,409,311,-12.0,43.0,44.0,-0.6103515625,-1.8310545682907104,0.8544921278953552,-0.88623046875,0.40673828125,-0.1810302734375
0.019,309,467,408,310,-12.0,43.0,44.0,-0.54931640625,-1.5258787870407104,0.6713866591453552,-0.88427734375,0.4080810546875,-0.181884765625
0.028,309,467,408,310,-12.0,43.0,44.0,-0.54931640625,-1.5258787870407104,0.6713866591453552,-0.8843994140625,0.4085693359375,-0.182861328125
0.047,310,466,408,308,-12.0,44.0,44.0,-0.6103515625,-0.8544921278953552,0.1831054538488388,-0.88525390625,0.4080810546875,-0.18359375
0.049,310,465,408,310,-12.0,44.0,44.0,-0.6103515625,-0.54931640625,-0.0610351525247097,-0.885986328125,0.4072265625,-0.1846923828125
0.070,310,465,408,310,-12.0,44.0,44.0,-0.54931640625,-0.3662109076976776,-0.3662109076976776,-0.8875732421875,0.4061279296875,-0.185791015625
0.070,308,465,410,310,-12.0,44.0,44.0,-0.4882812201976776,-0.4272460639476776,-0.6103515625,-0.88818359375,0.40478515625,-0.1865234375
0.079,308,465,408,309,-12.0,44.0,44.0,-0.3662109076976776,-0.54931640625,-0.7934569716453552,-0.8873291015625,0.404052734375,-0.1866455078125
0.087,310,465,408,309,-12.0,44.0,44.0,-0.30517578125,-0.7324218153953552,-0.9155272841453552,-0.885986328125,0.4024658203125,-0.1859130859375
0.101,310,465,408,310,-12.0,44.0,44.0,-0.2441406100988388,-0.9765624403953552,-0.9155272841453552,-0.885498046875,0.401611328125,-0.185546875
0.115,310,465,408,310,-12.0,44.0,44.0,-0.2441406100988388,-1.220703125,-0.9765624403953552,-0.8875732421875,0.4036865234375,-0.1868896484375
0.118,296,465,408,310,-12.0,44.0,44.0,-0.2441406100988388,-1.4038084745407104,-1.15966796875,-0.8907470703125,0.4071044921875,-0.1884765625
0.132,309,465,408,310,-9.0,44.0,44.0,-0.2441406100988388,-1.5869139432907104,-1.3427733182907104,-0.891845703125,0.4075927734375,-0.1893310546875
0.139,310,465,408,310,-9.0,44.0,44.0,-0.3662109076976776,-1.7700194120407104,-1.6479490995407104,-0.8900146484375,0.403564453125,-0.1893310546875
0.150,310,465,408,309,-9.0,44.0,44.0,-0.54931640625,-2.01416015625,-1.8920897245407104,-0.88818359375,0.3997802734375,-0.1890869140625
0.198,308,465,407,308,-9.0,44.0,44.0,-0.6103515625,-2.25830078125,-1.9531248807907104,-0.8883056640625,0.3975830078125,-0.1883544921875
0.213,308,444,407,310,-9.0,44.0,44.0,-0.6103515625,-2.50244140625,-1.8310545682907104,-0.89013671875,0.396240234375,-0.1856689453125
0.215,310,465,408,310,-9.0,44.0,44.0,-0.30517578125,-2.746581792831421,-1.5869139432907104,-0.8912353515625,0.3975830078125,-0.18212890625
0.218,308,465,408,310,-9.0,44.0,44.0,0.0610351525247097,-3.051757574081421,-1.4038084745407104,-0.890625,0.4012451171875,-0.180419921875
0.233,296,463,407,310,-9.0,44.0,44.0,0.1831054538488388,-3.295898199081421,-1.4038084745407104,-0.8897705078125,0.403564453125,-0.18115234375
0.292,310,465,408,308,-9.0,44.0,44.0,0.1220703050494194,-3.540038824081421,-1.4648436307907104,-0.889892578125,0.404052734375,-0.184814453125
0.302,308,465,408,309,-9.0,44.0,44.0,-0.1831054538488388,-3.662109136581421,-1.5869139432907104,-0.890625,0.40478515625,-0.188720703125
0.332,310,464,407,309,-12.0,44.0,40.0,-0.4882812201976776,-3.723144292831421,-1.7700194120407104,-0.8917236328125,0.407958984375,-0.190185546875
0.378,309,456,408,310,-12.0,44.0,40.0,-0.7324218153953552,-3.967284917831421,-2.13623046875,-0.8934326171875,0.412841796875,-0.1904296875
0.401,309,456,408,310,-12.0,44.0,40.0,-0.9765624403953552,-4.33349609375,-2.624511480331421,-0.894775390625,0.416259765625,-0.1888427734375
0.404,310,452,408,310,-12.0,44.0,40.0,-0.9765624403953552,-4.7607421875,-3.356933355331421,-0.89501953125,0.4168701171875,-0.184814453125
0.426,309,452,408,308,-12.0,44.0,40.0,-0.7324218153953552,-5.126952648162842,-4.21142578125,-0.8939208984375,0.4141845703125,-0.1802978515625
0.430,309,451,407,310,-12.0,44.0,40.0,-0.7934569716453552,-5.371093273162842,-5.065917491912842,-0.895263671875,0.400634765625,-0.16943359375
0.438,309,451,405,308,-12.0,44.0,40.0,-1.0986328125,-5.310058116912842,-5.615233898162842,-0.895263671875,0.400634765625,-0.16943359375
0.442,308,449,408,311,-12.0,44.0,40.0,-1.3427733182907104,-5.0048828125,-5.920409679412842,-0.8955078125,0.3953857421875,-0.161865234375
0.447,309,449,408,309,-12.0,44.0,40.0,-1.4648436307907104,-4.39453125,-5.920409679412842,-0.8892822265625,0.3919677734375,-0.159912109375
0.459,309,430,408,296,-12.0,44.0,40.0,-1.4648436307907104,-3.723144292831421,-5.920409679412842,-0.8892822265625,0.3919677734375,-0.159912109375
0.480,310,449,408,310,-11.0,41.0,42.0,-1.4038084745407104,-3.234863042831421,-5.981444835662842,-0.88623046875,0.3896484375,-0.1610107421875
0.487,308,449,407,309,-11.0,41.0,42.0,-1.0986328125,-3.173827886581421,-6.042479991912842,-0.8897705078125,0.3924560546875,-0.1707763671875
0.499,310,447,407,309,-11.0,41.0,42.0,-0.6713866591453552,-3.356933355331421,-6.164550304412842,-0.8897705078125,0.3924560546875,-0.1707763671875
0.503,310,451,408,310,-11.0,41.0,42.0,-0.2441406100988388,-3.723144292831421,-6.408690929412842,-0.893798828125,0.39453125,-0.17578125
0.503,308,452,407,308,-11.0,41.0,42.0,0.0,-4.33349609375,-6.652831554412842,-0.896240234375,0.385498046875,-0.1759033203125
0.509,310,451,407,308,-11.0,41.0,42.0,-0.0610351525247097,-4.94384765625,-6.774901866912842,-0.896240234375,0.385498046875,-0.1759033203125
0.509,309,452,407,296,-11.0,41.0,42.0,-0.30517578125,-5.493163585662842,-6.591796398162842,-0.8955078125,0.379638671875,-0.1732177734375
0.510,310,452,407,308,-11.0,41.0,42.0,-0.54931640625,-6.103515148162842,-6.225585460662842,-0.89404296875,0.3763427734375,-0.1700439453125
0.530,310,455,407,310,-11.0,41.0,42.0,-0.54931640625,-6.835937023162842,-5.920409679412842,-0.896484375,0.3828125,-0.1695556640625
0.533,310,456,406,309,-11.0,41.0,42.0,-0.6103515625,-7.507323741912842,-5.737304210662842,-0.896484375,0.3828125,-0.1695556640625
0.535,310,456,406,296,-11.0,41.0,42.0,-0.6713866591453552,-8.11767578125,-5.859374523162842,-0.898681640625,0.3883056640625,-0.170654296875
0.535,309,441,402,302,-11.0,40.0,46.0,-1.03759765625,-8.48388671875,-6.164550304412842,-0.900634765625,0.385986328125,-0.164306640625
0.536,309,465,402,310,-11.0,40.0,46.0,-1.7089842557907104,-8.6669921875,-6.408690929412842,-0.9017333984375,0.378662109375,-0.1533203125
0.537,308,447,401,309,-11.0,40.0,46.0,-2.38037109375,-8.9111328125,-6.408690929412842,-0.9017333984375,0.378662109375,-0.1533203125
0.538,310,465,399,310,-11.0,40.0,46.0,-2.38037109375,-9.3994140625,-6.042479991912842,-0.90234375,0.369873046875,-0.142578125
0.538,309,467,401,310,-11.0,40.0,46.0,-1.3427733182907104,-10.253905296325684,-5.310058116912842,-0.9002685546875,0.353759765625,-0.12939453125
0.538,308,469,401,309,-11.0,40.0,46.0,0.9155272841453552,-11.535643577575684,-4.2724609375,-0.899658203125,0.3524169921875,-0.1329345703125
0.538,308,469,385,308,-11.0,40.0,46.0,3.784179449081421,-13.000487327575684,-3.234863042831421,-0.899658203125,0.3524169921875,-0.1329345703125
0.538,308,468,399,309,-11.0,40.0,46.0,8.6669921875,-15.258788108825684,-1.9531248807907104,-0.90771484375,0.3692626953125,-0.16162109375
0.538,308,467,402,309,-11.0,40.0,46.0,8.6669921875,-15.258788108825684,-1.9531248807907104,-0.9129638671875,0.3790283203125,-0.176025390625
0.538,308,473,388,297,-11.0,41.0,45.0,8.85009765625,-15.441893577575684,-1.5869139432907104,-0.9129638671875,0.3790283203125,-0.176025390625
0.542,310,473,409,310,-11.0,41.0,45.0,4.45556640625,-15.014647483825684,-0.7934569716453552,-0.906982421875,0.37744140625,-0.168212890625
0.550,309,475,410,308,-11.0,41.0,45.0,4.45556640625,-15.014647483825684,-0.7934569716453552,-0.8953857421875,0.37109375,-0.1480712890625
0.560,310,475,411,308,-11.0,41.0,45.0,1.6479490995407104,-15.258788108825684,-0.3662109076976776,-0.8953857421875,0.37109375,-0.1480712890625
0.583,309,477,414,310,-11.0,41.0,45.0,-0.9765624403953552,-16.845703125,-0.6713866591453552,-0.884521484375,0.386962890625,-0.1234130859375
0.583,308,478,415,310,-11.0,41.0,45.0,-0.8544921278953552,-17.7001953125,-1.7700194120407104,-0.8875732421875,0.3990478515625,-0.1182861328125
0.590,309,481,417,308,-11.0,41.0,45.0,-0.8544921278953552,-17.7001953125,-1.7700194120407104,-0.88671875,0.40478515625,-0.121826171875
0.602,308,485,418,308,-11.0,41.0,45.0,-1.03759765625,-17.88330078125,-3.845214605331421,-0.88330078125,0.403076171875,-0.12841796875
0.610,309,490,419,310,-11.0,41.0,45.0,-3.173827886581421,-17.27294921875,-4.39453125,-0.8831787109375,0.3905029296875,-0.1190185546875
0.618,309,495,420,310,-11.0,41.0,45.0,-3.173827886581421,-17.27294921875,-4.39453125,-0.8897705078125,0.371826171875,-0.0987548828125
0.635,308,496,421,310,-11.0,39.0,42.0,-6.286620616912842,-15.991209983825684,-5.187987804412842,-0.8997802734375,0.35888671875,-0.0904541015625
0.640,308,497,423,310,-11.0,39.0,42.0,-5.249022960662842,-15.563963890075684,-4.82177734375,-0.90087890625,0.3516845703125,-0.0982666015625
0.652,309,506,423,308,-11.0,39.0,42.0,-5.249022960662842,-15.563963890075684,-4.82177734375,-0.8914794921875,0.348388671875,-0.1153564453125
0.664,308,519,424,308,-11.0,39.0,42.0,-2.868652105331421,-17.578125,-3.601073980331421,-0.8785400390625,0.352783203125,-0.13232421875
0.694,310,531,426,309,-11.0,39.0,42.0,-2.929687261581421,-19.8974609375,-3.540038824081421,-0.867431640625,0.3623046875,-0.142578125
0.694,308,536,427,308,-11.0,39.0,42.0,-2.929687261581421,-19.8974609375,-3.540038824081421,-0.8656005859375,0.373291015625,-0.1468505859375
0.694,309,554,428,310,-11.0,39.0,42.0,-5.187987804412842,-24.841306686401367,-3.784179449081421,-0.8692626953125,0.384033203125,-0.140625
0.700,310,567,426,310,-11.0,39.0,42.0,-7.263183116912842,-26.367185592651367,-2.990722417831421,-0.8623046875,0.3868408203125,-0.1220703125
0.708,308,473,426,310,-11.0,39.0,42.0,-7.263183116912842,-26.367185592651367,-2.990722417831421,-0.8302001953125,0.3651123046875,-0.1009521484375
0.722,310,620,426,310,-11.0,39.0,42.0,-11.535643577575684,-28.930662155151367,-2.929687261581421,-0.7801513671875,0.328857421875,-0.1102294921875
0.741,309,650,430,310,-10.0,42.0,42.0,-10.314940452575684,-33.0810546875,-5.065917491912842,-0.743408203125,0.3232421875,-0.1749267578125
0.741,310,663,436,310,-10.0,42.0,42.0,-7.812499523162842,-40.283199310302734,-7.507323741912842,-0.7293701171875,0.3624267578125,-0.2568359375
0.754,308,317,465,308,-10.0,42.0,42.0,-10.498045921325684,-50.170894622802734,-9.521484375,-0.6749267578125,0.41650390625,-0.2779541015625
0.764,308,313,536,308,-10.0,42.0,42.0,-22.216794967651367,-61.889644622802734,-12.756346702575684,-0.488037109375,0.4283447265625,-0.207275390625
0.789,308,799,616,308,-10.0,42.0,42.0,-38.87939453125,-72.3876953125,-20.141599655151367,-0.177001953125,0.35595703125,-0.0633544921875
0.790,310,305,780,310,-10.0,42.0,42.0,-55.419918060302734,-79.28466796875,-30.395505905151367,0.09326171875,0.2750244140625,0.1246337890625
0.795,310,720,872,312,-10.0,42.0,42.0,-71.044921875,-82.82469940185547,-38.75732421875,0.0618896484375,0.2952880859375,0.3248291015625
0.805,310,322,986,310,-10.0,42.0,42.0,-79.9560546875,-81.48192596435547,-44.311519622802734,-0.419189453125,0.4417724609375,0.562255859375
0.812,308,340,1134,308,-10.0,42.0,42.0,-65.0634765625,-70.12939453125,-46.569820404052734,-1.09423828125,0.6884765625,0.6361083984375
0.820,310,312,1206,310,-10.0,42.0,42.0,-29.296873092651367,-45.959468841552734,-45.349117279052734,-1.59716796875,0.8533935546875,0.371337890625
0.832,310,337,1268,310,-6.0,36.0,44.0,-3.479003667831421,-19.95849609375,-47.424312591552734,-1.8507080078125,0.665771484375,0.07958984375
0.842,310,310,1305,310,-6.0,36.0,44.0,5.065917491912842,-8.30078125,-56.213375091552734,-1.9361572265625,0.2879638671875,-0.007080078125
0.851,308,310,1292,310,-6.0,36.0,44.0,9.70458984375,-12.084959983825684,-62.561031341552734,-1.9403076171875,0.056396484375,-0.0203857421875
0.858,310,308,1271,306,-6.0,36.0,44.0,8.6669921875,-19.71435546875,-56.335445404052734,-1.81201171875,-0.0909423828125,-0.08203125
0.874,310,1173,1215,311,-6.0,36.0,44.0,1.0986328125,-17.2119140625,-39.00146484375,-1.5,-0.2310791015625,-0.1890869140625
0.892,310,1151,1176,310,-6.0,36.0,44.0,-2.197265625,-1.4038084745407104,-18.12744140625,-1.1993408203125,-0.2119140625,-0.187744140625
0.892,309,1112,1111,311,-6.0,36.0,44.0,2.3193359375,16.4794921875,-0.0610351525247097,-1.0184326171875,0.031005859375,-0.0069580078125
0.905,311,1098,1067,309,-6.0,36.0,44.0,9.21630859375,27.893064498901367,9.33837890625,-0.885986328125,0.3265380859375,0.1898193359375
0.910,308,771,1051,310,-6.0,36.0,44.0,11.047362327575684,33.3251953125,7.873534679412842,-0.845458984375,0.511474609375,0.259033203125
0.918,310,1074,1039,310,-6.0,36.0,44.0,6.896972179412842,35.21728515625,0.7934569716453552,-1.055908203125,0.6064453125,0.2366943359375
0.934,308,315,987,308,-7.0,37.0,48.0,4.45556640625,33.38623046875,-4.45556640625,-1.4161376953125,0.6351318359375,0.2156982421875
0.940,310,310,944,310,-7.0,37.0,48.0,7.263183116912842,30.456541061401367,-3.967284917831421,-1.6064453125,0.5869140625,0.1451416015625
0.948,308,310,891,308,-7.0,37.0,48.0,8.85009765625,31.616209030151367,1.5869139432907104,-1.566650390625,0.481689453125,0.020263671875
0.961,308,310,796,310,-7.0,37.0,48.0,4.2724609375,36.43798828125,9.46044921875,-1.4332275390625,0.3314208984375,-0.0587158203125
0.970,309,308,728,308,-7.0,37.0,48.0,-1.7700194120407104,41.870113372802734,18.85986328125,-1.2730712890625,0.1593017578125,-0.0714111328125
0.994,310,311,684,306,-7.0,37.0,48.0,-2.01416015625,45.166011810302734,27.282712936401367,-1.09716796875,0.0306396484375,-0.094482421875
0.994,308,310,594,308,-7.0,37.0,48.0,5.981444835662842,43.273921966552734,29.479978561401367,-0.9197998046875,0.031982421875,-0.1627197265625
1.000,308,310,548,309,-7.0,37.0,48.0,19.04296875,36.31591796875,22.521970748901367,-0.7811279296875,0.110595703125,-0.2259521484375
1.008,307,308,503,308,-7.0,37.0,48.0,25.939939498901367,27.282712936401367,9.58251953125,-0.646240234375,0.1180419921875,-0.1937255859375
1.022,307,634,463,310,-7.0,37.0,48.0,21.484373092651367,20.324705123901367,-4.33349609375,-0.46728515625,0.0599365234375,-0.095458984375
1.038,309,620,447,310,-6.0,40.0,47.0,14.282225608825684,20.690916061401367,-14.221190452575684,-0.4034423828125,0.114501953125,-0.058349609375
1.040,296,594,439,309,-6.0,40.0,47.0,8.72802734375,25.756834030151367,-16.78466796875,-0.515625,0.3173828125,-0.052978515625
1.057,310,572,438,309,-6.0,40.0,47.0,2.685546636581421,27.099607467651367,-14.526366233825684,-0.668212890625,0.4964599609375,-0.012451171875
1.061,310,537,430,308,-6.0,40.0,47.0,-3.845214605331421,23.742673873901367,-12.268065452575684,-0.760009765625,0.5819091796875,0.017578125
1.072,309,513,426,309,-6.0,40.0,47.0,-10.375975608825684,20.01953125,-11.779784202575684,-0.7838134765625,0.60498046875,0.02099609375
1.094,310,485,423,310,-6.0,40.0,47.0,-16.78466796875,16.845703125,-14.953612327575684,-0.793701171875,0.550537109375,0.0478515625
1.095,310,465,414,309,-6.0,40.0,47.0,-19.8974609375,13.244627952575684,-22.033689498901367,-0.8216552734375,0.4263916015625,0.08935546875
1.102,310,442,411,309,-6.0,40.0,47.0,-16.2353515625,11.169432640075684,-29.602048873901367,-0.864013671875,0.3050537109375,0.0816650390625
1.108,310,423,408,309,-6.0,40.0,47.0,-7.507323741912842,12.329100608825684,-33.99658203125,-0.9239501953125,0.2398681640625,0.0147705078125
1.121,309,399,401,310,-6.0,40.0,47.0,0.6713866591453552,14.221190452575684,-33.69140625,-1.010498046875,0.203125,-0.1162109375
1.129,310,391,400,310,-6.0,38.0,49.0,4.82177734375,14.099120140075684,-29.907224655151367,-1.010498046875,0.203125,-0.1162109375
1.155,309,382,396,310,-6.0,38.0,49.0,5.310058116912842,11.840819358825684,-25.329587936401367,-1.0006103515625,0.184814453125,-0.1441650390625
1.155,310,378,393,309,-6.0,38.0,49.0,3.967284917831421,8.544921875,-21.423337936401367,-0.9541015625,0.169677734375,-0.142822265625
1.165,308,371,391,310,-6.0,38.0,49.0,1.5258787870407104,5.0048828125,-18.1884765625,-0.9541015625,0.169677734375,-0.142822265625
1.179,310,372,394,309,-6.0,38.0,49.0,-2.685546636581421,2.3193359375,-14.770506858825684,-0.9390869140625,0.1778564453125,-0.1185302734375
1.181,310,362,391,310,-6.0,38.0,49.0,-8.36181640625,1.220703125,-10.375975608825684,-0.9151611328125,0.2218017578125,-0.048828125
1.190,311,357,391,310,-6.0,38.0,49.0,-14.160155296325684,1.4648436307907104,-5.676269054412842,-0.9151611328125,0.2218017578125,-0.048828125
1.197,309,355,393,310,-6.0,38.0,49.0,-18.61572265625,1.6479490995407104,-2.01416015625,-0.9169921875,0.2305908203125,-0.0281982421875
1.212,308,352,391,310,-6.0,38.0,49.0,-20.507810592651367,0.9155272841453552,0.4882812201976776,-0.9249267578125,0.264404296875,-0.05322265625
1.219,308,354,393,309,-6.0,38.0,49.0,-19.83642578125,-0.4272460639476776,1.9531248807907104,-0.9249267578125,0.264404296875,-0.05322265625
1.227,309,354,393,310,-5.0,41.0,42.0,-18.9208984375,-1.4648436307907104,2.44140625,-0.9315185546875,0.2908935546875,-0.0634765625
1.243,308,357,394,310,-5.0,41.0,42.0,-20.385740280151367,-1.2817381620407104,2.38037109375,-0.9129638671875,0.2667236328125,-0.0302734375
1.258,310,360,396,310,-5.0,41.0,42.0,-23.681638717651367,-0.0610351525247097,2.01416015625,-0.8824462890625,0.20458984375,-0.020751953125
1.259,308,364,396,294,-5.0,41.0,42.0,-26.245115280151367,1.03759765625,2.3193359375,-0.8824462890625,0.20458984375,-0.020751953125
1.278,308,372,399,308,-5.0,41.0,42.0,-21.545408248901367,-0.9155272841453552,8.60595703125,-0.81298828125,0.083251953125,-0.0230712890625
1.279,308,367,384,309,-5.0,41.0,42.0,-21.545408248901367,-0.9155272841453552,8.60595703125,-0.784423828125,0.0582275390625,-0.02880859375
1.300,309,394,399,308,-5.0,41.0,42.0,-14.831542015075684,-3.601073980331421,14.953612327575684,-0.784423828125,0.0582275390625,-0.02880859375
1.301,308,402,399,308,-5.0,41.0,42.0,-4.08935546875,-8.6669921875,30.212400436401367,-0.7757568359375,0.1015625,-0.0047607421875
1.309,308,326,394,310,-5.0,41.0,42.0,-4.08935546875,-8.6669921875,30.212400436401367,-0.751708984375,0.1507568359375,0.0084228515625
1.317,309,481,401,310,-5.0,41.0,42.0,-2.01416015625,-9.765625,37.59765625,-0.751708984375,0.1507568359375,0.0084228515625
1.331,309,574,428,310,-5.0,40.0,43.0,2.929687261581421,-13.427733421325684,44.677730560302734,-0.603759765625,0.226806640625,-0.0418701171875
1.344,310,654,490,308,-5.0,40.0,43.0,2.929687261581421,-13.427733421325684,44.677730560302734,-0.400146484375,0.2230224609375,-0.0931396484375
1.350,308,717,697,309,-5.0,40.0,43.0,5.065917491912842,-20.996091842651367,41.625972747802734,-0.400146484375,0.2230224609375,-0.0931396484375
1.401,308,793,981,309,-5.0,40.0,43.0,9.6435546875,-54.931636810302734,20.629880905151367,0.12109375,0.450927734375,-0.224365234375
1.403,310,846,1078,310,-5.0,40.0,43.0,9.6435546875,-54.931636810302734,20.629880905151367,0.2908935546875,0.727783203125,-0.06103515625
1.403,310,905,1160,310,-5.0,40.0,43.0,5.371093273162842,-82.58055877685547,2.624511480331421,0.2908935546875,0.727783203125,-0.06103515625
1.403,310,1035,1292,310,-5.0,40.0,43.0,-14.831542015075684,-110.04637908935547,-55.297847747802734,-0.6490478515625,0.8858642578125,0.741943359375
1.403,310,311,1395,311,-5.0,40.0,43.0,4.150390625,-96.25243377685547,-68.359375,-1.61865234375,0.816162109375,0.5797119140625
1.408,310,1147,1443,310,-5.0,40.0,43.0,4.150390625,-96.25243377685547,-68.359375,-2.329833984375,0.7470703125,0.0400390625
1.421,308,309,1444,310,-2.0,37.0,46.0,31.311033248901367,-47.851558685302734,-37.29248046875,-2.583984375,0.3302001953125,-0.1895751953125
1.429,308,308,1393,309,-2.0,37.0,46.0,26.245115280151367,-42.724605560302734,-35.82763671875,-2.5233154296875,-0.2489013671875,0.072021484375
1.437,309,310,1348,310,-2.0,37.0,46.0,26.245115280151367,-42.724605560302734,-35.82763671875,-2.0853271484375,-0.609375,0.221435546875
1.452,309,310,1308,310,-2.0,37.0,46.0,7.934569835662842,-21.423337936401367,4.69970703125,-1.4290771484375,-0.6514892578125,0.0283203125
1.459,309,310,1281,310,-2.0,37.0,46.0,7.568358898162842,12.878417015075684,29.907224655151367,-1.0633544921875,-0.3013916015625,-0.1429443359375
1.469,310,330,1239,312,-2.0,37.0,46.0,7.568358898162842,12.878417015075684,29.907224655151367,-1.0078125,0.2183837890625,-0.12548828125
1.512,308,1112,1206,311,-2.0,37.0,46.0,45.776363372802734,48.034664154052734,37.65869140625,-0.9715576171875,0.5833740234375,-0.0152587890625
1.513,295,1094,1201,310,-2.0,37.0,46.0,53.833003997802734,47.119136810302734,27.221677780151367,-1.091064453125,0.8074951171875,0.1243896484375
1.513,309,1081,1188,310,-2.0,37.0,46.0,53.833003997802734,47.119136810302734,27.221677780151367,-1.4232177734375,0.9122314453125,0.210205078125
1.513,310,1042,1129,309,-2.0,37.0,46.0,23.376462936401367,23.498533248901367,-3.906249761581421,-1.638671875,0.826904296875,0.14990234375
1.519,310,1014,1074,310,-6.0,35.0,45.0,6.713866710662842,17.02880859375,-8.48388671875,-1.560546875,0.609130859375,0.004150390625
1.527,310,974,994,310,-6.0,35.0,45.0,6.713866710662842,17.02880859375,-8.48388671875,-1.299072265625,0.3770751953125,-0.098388671875
1.541,308,920,858,310,-6.0,35.0,45.0,-3.784179449081421,21.972654342651367,-3.723144292831421,-1.02587890625,0.2071533203125,-0.15087890625
1.549,310,886,803,310,-6.0,35.0,45.0,-0.3662109076976776,25.085447311401367,-3.540038824081421,-0.8248291015625,0.107177734375,-0.1617431640625
1.558,308,861,745,311,-6.0,35.0,45.0,6.835937023162842,24.108884811401367,-6.591796398162842,-0.7059326171875,0.0604248046875,-0.13525390625
1.572,309,803,663,310,-6.0,35.0,45.0,15.930174827575684,20.01953125,-11.901854515075684,-0.6673583984375,0.0762939453125,-0.094482421875
1.613,309,740,634,309,-6.0,35.0,45.0,19.53125,15.686034202575684,-17.02880859375,-0.658935546875,0.093505859375,-0.0179443359375
1.613,295,749,601,309,-6.0,35.0,45.0,12.573241233825684,11.779784202575684,-21.179197311401367,-0.6116943359375,0.03515625,0.0667724609375
1.613,295,382,587,310,-6.0,35.0,45.0,1.2817381620407104,10.070799827575684,-22.705076217651367,-0.5667724609375,0.0013427734375,0.0789794921875
1.613,308,721,557,297,-6.0,35.0,45.0,-6.042479991912842,10.742186546325684,-18.9208984375,-0.5968017578125,0.0911865234375,0.031005859375
1.617,308,711,566,310,-6.0,35.0,45.0,-7.995604991912842,10.864256858825684,-11.291502952575684,-0.686279296875,0.2333984375,-0.00634765625
1.632,310,683,549,310,-7.0,37.0,45.0,-6.835937023162842,9.09423828125,-3.723144292831421,-0.7703857421875,0.3494873046875,-0.018798828125
1.639,308,383,538,309,-7.0,37.0,45.0,-6.286620616912842,6.408690929412842,2.0751953125,-0.8319091796875,0.4215087890625,-0.00830078125
1.651,310,312,525,310,-7.0,37.0,45.0,-8.4228515625,2.990722417831421,4.8828125,-0.880859375,0.4189453125,0.0384521484375
1.660,309,315,513,308,-7.0,37.0,45.0,-11.169432640075684,-0.54931640625,3.967284917831421,-0.921630859375,0.35400390625,0.0799560546875
1.669,310,488,506,309,-7.0,37.0,45.0,-10.803221702575684,-2.25830078125,1.15966796875,-0.958251953125,0.2965087890625,0.0716552734375
1.677,309,328,500,310,-7.0,37.0,45.0,-6.774901866912842,-1.8920897245407104,-1.2817381620407104,-0.9892578125,0.27685546875,0.0306396484375
1.711,308,331,486,310,-7.0,37.0,45.0,-2.13623046875,-0.7934569716453552,-2.624511480331421,-1.0135498046875,0.2728271484375,-0.0052490234375
1.711,308,312,465,308,-7.0,37.0,45.0,0.2441406100988388,-0.3662109076976776,-3.051757574081421,-1.024658203125,0.263916015625,-0.0206298828125
1.711,309,322,475,310,-7.0,37.0,45.0,0.8544921278953552,-0.4882812201976776,-2.868652105331421,-1.00927734375,0.251220703125,-0.0308837890625
1.722,309,371,454,310,-5.0,36.0,47.0,0.6103515625,-0.54931640625,-2.624511480331421,-0.9818115234375,0.2532958984375,-0.0498046875
1.729,308,353,447,309,-5.0,36.0,47.0,-0.6103515625,-0.3662109076976776,-2.990722417831421,-0.9642333984375,0.2808837890625,-0.0625
1.737,310,481,442,310,-5.0,36.0,47.0,-3.479003667831421,-0.2441406100988388,-4.21142578125,-0.955810546875,0.3193359375,-0.0625
1.753,307,354,437,309,-5.0,36.0,47.0,-8.1787109375,-0.6713866591453552,-6.530761241912842,-0.9508056640625,0.342529296875,-0.056396484375
1.759,310,315,435,309,-5.0,36.0,47.0,-14.221190452575684,-1.5869139432907104,-9.94873046875,-0.940673828125,0.3319091796875,-0.0379638671875
1.767,308,317,435,309,-5.0,36.0,47.0,-19.95849609375,-2.746581792831421,-13.854979515075684,-0.9224853515625,0.29296875,-0.0084228515625
1.781,307,346,433,310,-5.0,36.0,47.0,-23.803709030151367,-3.845214605331421,-16.78466796875,-0.9017333984375,0.2481689453125,0.0111083984375
1.789,308,342,433,309,-5.0,36.0,47.0,-24.963376998901367,-5.0048828125,-17.578125,-0.87841796875,0.2164306640625,0.010009765625
1.823,309,345,420,296,-5.0,36.0,47.0,-23.620603561401367,-6.713866710662842,-16.05224609375,-0.857421875,0.2010498046875,0.0001220703125
1.823,308,338,439,309,-5.0,36.0,47.0,-20.568845748901367,-9.33837890625,-13.000487327575684,-0.8480224609375,0.1962890625,-0.0023193359375
1.823,308,312,440,306,-5.0,39.0,42.0,-17.27294921875,-12.329100608825684,-9.09423828125,-0.845703125,0.1942138671875,0.0146484375
1.827,308,314,444,310,-5.0,39.0,42.0,-14.221190452575684,-15.380858421325684,-4.82177734375,-0.8477783203125,0.18310546875,0.03662109375
1.841,311,482,451,310,-5.0,39.0,42.0,-11.474608421325684,-18.9208984375,-0.3662109076976776,-0.8382568359375,0.15576171875,0.03271484375
1.852,310,371,456,310,-5.0,39.0,42.0,-9.27734375,-23.254392623901367,4.45556640625,-0.7818603515625,0.11669921875,0.0120849609375
1.857,310,394,473,310,-5.0,39.0,42.0,-8.23974609375,-28.137205123901367,9.6435546875,-0.6895751953125,0.0823974609375,-0.008544921875
1.871,308,393,508,310,-5.0,39.0,42.0,-8.48388671875,-33.3251953125,14.038084983825684,-0.5645751953125,0.1207275390625,-0.0826416015625
1.879,308,502,573,309,-5.0,39.0,42.0,-8.60595703125,-39.9169921875,16.54052734375,-0.5645751953125,0.1207275390625,-0.0826416015625
1.892,309,588,678,310,-5.0,39.0,42.0,-7.812499523162842,-47.851558685302734,16.17431640625,-0.4727783203125,0.19580078125,-0.1314697265625
1.923,309,784,917,310,-5.0,39.0,42.0,-7.507323741912842,-56.518550872802734,13.305663108825684,0.0029296875,0.3057861328125,0.036865234375
1.924,296,741,1020,310,-5.0,39.0,42.0,-10.803221702575684,-67.0166015625,9.8876953125,0.0029296875,0.3057861328125,0.036865234375
1.924,310,770,1122,311,-5.0,34.0,50.0,-21.423337936401367,-77.5146484375,6.530761241912842,0.2054443359375,0.3572998046875,0.2432861328125
1.931,310,592,1294,312,-5.0,34.0,50.0,-34.36279296875,-84.89989471435547,-1.5258787870407104,-0.524169921875,0.6453857421875,0.6463623046875
1.939,310,381,1366,310,-5.0,34.0,50.0,-31.066892623901367,-88.13475799560547,-18.12744140625,-0.524169921875,0.6453857421875,0.6463623046875
1.947,312,1091,1406,310,-5.0,34.0,50.0,-7.324218273162842,-84.83885955810547,-33.935546875,-1.308349609375,0.7708740234375,0.72021484375
1.961,309,601,1450,310,-5.0,34.0,50.0,17.08984375,-69.580078125,-37.2314453125,-2.091552734375,0.355224609375,0.313720703125
1.969,310,326,1457,312,-5.0,34.0,50.0,23.376462936401367,-38.9404296875,-35.2783203125,-2.091552734375,0.355224609375,0.313720703125
1.977,309,343,1457,312,-5.0,34.0,50.0,20.202634811401367,-2.807616949081421,-38.87939453125,-2.0999755859375,-0.1500244140625,0.4080810546875
1.996,310,996,1422,310,-5.0,34.0,50.0,24.291990280151367,28.442380905151367,-36.2548828125,-1.82275390625,-0.235595703125,0.3201904296875
2.024,310,326,1409,312,-5.0,34.0,50.0,26.123044967651367,51.330562591552734,-17.333984375,-1.82275390625,-0.235595703125,0.3201904296875
2.025,311,1029,1392,310,-5.0,34.0,50.0,18.73779296875,64.5751953125,6.713866710662842,-1.43115234375,-0.2354736328125,-0.2496337890625
2.025,310,506,1305,310,-3.0,39.0,53.0,22.827146530151367,61.035152435302734,29.174802780151367,-1.06103515625,0.35986328125,-0.4305419921875
2.029,310,959,1255,311,-3.0,39.0,53.0,22.827146530151367,61.035152435302734,29.174802780151367,-1.0069580078125,0.6185302734375,-0.14794921875
2.066,310,369,1245,311,-3.0,39.0,53.0,24.597166061401367,48.339839935302734,21.545408248901367,-1.0069580078125,0.6185302734375,-0.14794921875
2.066,308,955,1215,310,-3.0,39.0,53.0,-1.03759765625,29.968259811401367,-20.202634811401367,-1.423095703125,0.748779296875,0.258056640625
2.066,310,385,1173,312,-3.0,39.0,53.0,-1.03759765625,29.968259811401367,-20.202634811401367,-1.7298583984375,0.6876220703125,0.352294921875
2.067,309,481,1104,310,-3.0,39.0,53.0,-12.451170921325684,21.606443405151367,-35.400390625,-1.7298583984375,0.6876220703125,0.352294921875
2.083,308,496,968,310,-3.0,39.0,53.0,-4.5166015625,16.357421875,-34.3017578125,-1.4625244140625,0.3826904296875,0.156005859375
2.096,309,490,873,310,-3.0,39.0,53.0,-4.5166015625,16.357421875,-34.3017578125,-1.2601318359375,0.2882080078125,-0.036376953125
2.097,308,402,763,310,-3.0,39.0,53.0,8.056640625,23.498533248901367,-33.87451171875,-1.2601318359375,0.2882080078125,-0.036376953125
2.128,308,618,621,311,-3.0,39.0,53.0,25.146482467651367,33.63037109375,-37.29248046875,-0.9677734375,0.0726318359375,-0.1019287109375
2.128,308,854,531,297,-2.0,35.0,48.0,25.146482467651367,33.63037109375,-37.29248046875,-0.7955322265625,-0.146484375,0.0035400390625
2.134,308,662,475,308,-2.0,35.0,48.0,17.76123046875,27.893064498901367,-38.87939453125,-0.6549072265625,-0.322021484375,0.0379638671875
2.141,310,705,454,310,-2.0,35.0,48.0,16.6015625,28.442380905151367,-37.7197265625,-0.527587890625,-0.350830078125,-0.03369140625
2.149,310,683,438,310,-2.0,35.0,48.0,16.6015625,28.442380905151367,-37.7197265625,-0.4111328125,-0.26904296875,-0.10546875
2.160,308,485,424,310,-2.0,35.0,48.0,14.648436546325684,30.273435592651367,-31.799314498901367,-0.4461669921875,-0.097412109375,-0.10791015625
2.171,309,635,415,308,-2.0,35.0,48.0,-4.21142578125,23.376462936401367,-8.36181640625,-0.5859375,0.1312255859375,-0.0399169921875
2.179,309,622,411,310,-2.0,35.0,48.0,-13.000487327575684,15.930174827575684,2.990722417831421,-0.6759033203125,0.31640625,0.0411376953125
2.188,313,608,410,310,-2.0,35.0,48.0,-13.000487327575684,15.930174827575684,2.990722417831421,-0.73095703125,0.4373779296875,0.0885009765625
2.201,310,583,409,310,-2.0,35.0,48.0,-28.015134811401367,10.253905296325684,17.51708984375,-0.7630615234375,0.475830078125,0.1348876953125
2.234,310,577,407,309,-2.0,35.0,48.0,-33.8134765625,9.27734375,21.362302780151367,-0.7822265625,0.369384765625,0.186767578125
2.235,308,583,408,308,-1.0,38.0,42.0,-33.8134765625,9.27734375,21.362302780151367,-0.808349609375,0.1810302734375,0.2027587890625
2.235,308,475,411,309,-1.0,38.0,42.0,-21.240232467651367,8.11767578125,17.578125,-0.8626708984375,0.07958984375,0.1629638671875
2.242,309,574,419,310,-1.0,38.0,42.0,-5.676269054412842,9.8876953125,15.991209983825684,-0.9324951171875,0.118408203125,0.08935546875
2.248,310,476,420,310,-1.0,38.0,42.0,4.94384765625,11.779784202575684,15.197752952575684,-0.9732666015625,0.202880859375,0.0283203125
2.273,308,345,421,310,-1.0,38.0,42.0,7.141112804412842,13.122557640075684,13.916014671325684,-0.977783203125,0.2545166015625,0.00048828125
2.273,310,381,423,309,-1.0,38.0,42.0,5.798339366912842,14.343260765075684,12.023924827575684,-0.97021484375,0.2720947265625,-0.0108642578125
2.278,310,594,426,309,-1.0,38.0,42.0,4.57763671875,15.014647483825684,10.070799827575684,-0.9603271484375,0.2589111328125,-0.00830078125
2.292,310,345,424,310,-1.0,38.0,42.0,3.662109136581421,14.587401390075684,8.48388671875,-0.95361328125,0.228515625,-0.00048828125
2.302,308,340,426,310,-1.0,38.0,42.0,3.051757574081421,13.122557640075684,7.690429210662842,-0.96142578125,0.2041015625,-0.0142822265625
2.334,310,452,424,310,-1.0,38.0,42.0,2.197265625,10.742186546325684,7.934569835662842,-0.9801025390625,0.188720703125,-0.0421142578125
2.335,310,396,411,308,-8.0,35.0,47.0,0.7324218153953552,7.507323741912842,9.21630859375,-0.99560546875,0.178955078125,-0.056396484375
2.335,310,449,409,309,-8.0,35.0,47.0,-1.4648436307907104,4.33349609375,11.047362327575684,-1.0032958984375,0.1781005859375,-0.0589599609375
2.338,309,561,406,310,-8.0,35.0,47.0,-3.845214605331421,2.13623046875,12.756346702575684,-1.002685546875,0.1925048828125,-0.060791015625
2.352,310,482,396,309,-8.0,35.0,47.0,-6.591796398162842,0.6103515625,13.793944358825684,-0.995849609375,0.2152099609375,-0.0577392578125
2.363,308,522,398,310,-8.0,35.0,47.0,-9.6435546875,-0.8544921278953552,13.793944358825684,-0.98974609375,0.2296142578125,-0.0418701171875
2.370,308,549,391,309,-8.0,35.0,47.0,-12.084959983825684,-2.0751953125,13.244627952575684,-0.988037109375,0.228271484375,-0.0177001953125
2.383,309,546,390,310,-8.0,35.0,47.0,-13.244627952575684,-2.746581792831421,12.939452171325684,-0.987060546875,0.2197265625,0.00341796875
2.390,308,540,387,309,-8.0,35.0,47.0,-13.122557640075684,-2.807616949081421,13.366698265075684,-0.977783203125,0.210205078125,0.015380859375
2.403,308,540,386,310,-8.0,35.0,47.0,-12.390135765075684,-2.624511480331421,14.526366233825684,-0.962890625,0.2017822265625,0.017333984375
2.428,310,465,380,308,-8.0,35.0,47.0,-11.962889671325684,-2.685546636581421,16.29638671875,-0.9462890625,0.195068359375,0.0115966796875
2.431,309,558,381,310,-5.0,39.0,41.0,-11.901854515075684,-3.601073980331421,18.37158203125,-0.9254150390625,0.1881103515625,-0.0048828125
2.431,308,619,381,289,-5.0,39.0,41.0,-12.268065452575684,-5.798339366912842,20.568845748901367,-0.910888671875,0.1788330078125,-0.0294189453125
2.443,310,658,384,296,-5.0,39.0,41.0,-13.732909202575684,-9.70458984375,23.010251998901367,-0.9072265625,0.175537109375,-0.0543212890625
2.452,310,377,382,309,-5.0,39.0,41.0,-16.11328125,-15.136717796325684,25.756834030151367,-0.8907470703125,0.1778564453125,-0.080078125
2.458,308,467,379,309,-5.0,39.0,41.0,-18.49365234375,-21.789548873901367,28.747556686401367,-0.830078125,0.1624755859375,-0.118896484375
2.472,310,614,373,310,-5.0,39.0,41.0,-20.446775436401367,-29.968259811401367,32.2265625,-0.71875,0.1199951171875,-0.1763916015625
2.481,310,336,372,310,-5.0,39.0,41.0,-21.667478561401367,-40.466304779052734,36.0107421875,-0.5560302734375,0.068359375,-0.2225341796875
2.495,310,902,373,310,-5.0,39.0,41.0,-21.179197311401367,-51.879878997802734,37.90283203125,-0.4072265625,0.082763671875,-0.18017578125
2.505,308,996,394,309,-5.0,39.0,41.0,-15.441893577575684,-62.744136810302734,34.7900390625,-0.2523193359375,0.228759765625,0.0615234375
2.510,307,1055,562,310,-5.0,39.0,41.0,-4.2724609375,-72.32666015625,27.832029342651367,0.0638427734375,0.413330078125,0.4527587890625
2.521,308,1014,837,314,-3.0,35.0,51.0,3.479003667831421,-78.67431640625,16.11328125,0.334228515625,0.468505859375,0.802978515625
2.534,308,310,1153,309,-3.0,35.0,51.0,9.033203125,-80.74950408935547,-3.417968511581421,0.189453125,0.40771484375,0.951416015625
2.546,308,315,1246,310,-3.0,35.0,51.0,28.442380905151367,-73.486328125,-21.972654342651367,-0.51708984375,0.55810546875,0.738037109375
2.548,308,426,1315,312,-3.0,35.0,51.0,56.457515716552734,-50.720211029052734,-28.686521530151367,-1.446533203125,0.9515380859375,0.228271484375
2.562,308,540,1406,310,-3.0,35.0,51.0,64.94140625,-17.578125,-29.296873092651367,-1.9490966796875,0.5867919921875,-0.1732177734375
2.573,309,310,1416,310,-3.0,35.0,51.0,45.043941497802734,14.953612327575684,-35.7666015625,-1.9490966796875,0.5867919921875,-0.1732177734375
2.578,307,308,1406,310,-3.0,35.0,51.0,18.798828125,40.0390625,-45.593257904052734,-2.0718994140625,0.009033203125,0.2835693359375
2.592,310,317,1325,311,-3.0,35.0,51.0,11.230467796325684,53.833003997802734,-42.663570404052734,-2.0115966796875,-0.3179931640625,0.1097412109375
2.632,306,328,1297,312,-3.0,35.0,51.0,21.972654342651367,61.340328216552734,-16.357421875,-2.0115966796875,-0.3179931640625,0.1097412109375
2.633,310,618,1254,308,-3.0,35.0,51.0,30.761716842651367,69.27490234375,13.427733421325684,-1.393310546875,-0.177490234375,-0.6517333984375
2.633,310,1320,1145,308,-5.0,37.0,46.0,20.568845748901367,71.10595703125,23.010251998901367,-1.0306396484375,0.3284912109375,-0.6126708984375
2.633,310,1275,1122,309,-5.0,37.0,46.0,1.0986328125,63.232418060302734,18.73779296875,-1.0306396484375,0.3284912109375,-0.6126708984375
2.638,310,1313,1087,310,-5.0,37.0,46.0,-12.512206077575684,46.447750091552734,8.60595703125,-1.0594482421875,0.679443359375,-0.201904296875
2.652,310,1292,1009,310,-5.0,37.0,46.0,-28.320310592651367,20.996091842651367,-7.629394054412842,-1.721923828125,0.776611328125,0.49169921875
2.662,310,1266,928,310,-5.0,37.0,46.0,-40.405269622802734,-1.6479490995407104,-22.399900436401367,-1.721923828125,0.776611328125,0.49169921875
2.671,310,1229,849,310,-5.0,37.0,46.0,-36.865234375,-7.995604991912842,-26.733396530151367,-1.67333984375,0.5916748046875,0.4072265625
2.682,309,1157,708,310,-5.0,37.0,46.0,-24.047849655151367,0.7324218153953552,-25.817869186401367,-1.1470947265625,0.3623046875,-0.119384765625
2.690,310,1120,632,310,-5.0,37.0,46.0,-9.3994140625,14.892577171325684,-28.198240280151367,-1.0634765625,0.325927734375,-0.2314453125
2.698,308,1070,587,310,-5.0,37.0,46.0,3.967284917831421,25.573728561401367,-33.8134765625,-1.0634765625,0.325927734375,-0.2314453125
2.712,310,973,495,308,-4.0,37.0,49.0,13.854979515075684,22.460935592651367,-41.809078216552734,-0.864013671875,-0.0047607421875,-0.126953125
2.730,308,929,449,310,-4.0,37.0,49.0,13.854979515075684,22.460935592651367,-41.809078216552734,-0.632568359375,-0.247802734375,-0.12158203125
2.738,309,871,423,308,-4.0,37.0,49.0,10.864256858825684,18.12744140625,-41.076656341552734,-0.632568359375,-0.247802734375,-0.12158203125
2.742,310,823,395,310,-4.0,37.0,49.0,-3.112792730331421,18.798828125,-26.733396530151367,-0.330810546875,-0.2425537109375,-0.0472412109375
2.750,310,805,388,308,-4.0,37.0,49.0,-3.112792730331421,18.798828125,-26.733396530151367,-0.385009765625,-0.0845947265625,0.0196533203125
2.758,310,784,391,310,-4.0,37.0,49.0,-9.82666015625,20.874021530151367,-12.695311546325684,-0.385009765625,-0.0845947265625,0.0196533203125
2.777,310,766,387,310,-4.0,37.0,49.0,-22.521970748901367,6.347655773162842,6.042479991912842,-0.7613525390625,0.14111328125,0.214599609375
2.781,310,749,387,310,-4.0,37.0,49.0,-22.521970748901367,6.347655773162842,6.042479991912842,-0.812255859375,0.2506103515625,0.1942138671875
2.788,310,737,394,310,-4.0,37.0,49.0,-22.033689498901367,0.6713866591453552,12.023924827575684,-0.812255859375,0.2506103515625,0.1942138671875
2.802,308,710,401,310,-4.0,37.0,49.0,-17.9443359375,3.479003667831421,22.399900436401367,-0.8233642578125,0.4334716796875,0.16015625
2.814,310,697,408,310,-2.0,39.0,40.0,-17.9443359375,3.479003667831421,22.399900436401367,-0.801025390625,0.3570556640625,0.175537109375
2.818,309,693,402,310,-2.0,39.0,40.0,-15.014647483825684,6.713866710662842,19.95849609375,-0.801025390625,0.3570556640625,0.175537109375
2.842,310,673,402,309,-2.0,39.0,40.0,-2.50244140625,15.380858421325684,8.36181640625,-0.908935546875,0.27197265625,0.0518798828125
2.843,308,658,408,308,-2.0,39.0,40.0,-2.50244140625,15.380858421325684,8.36181640625,-0.988037109375,0.280029296875,-0.0137939453125
2.848,308,649,408,309,-2.0,39.0,40.0,3.662109136581421,17.27294921875,4.0283203125,-1.037841796875,0.282470703125,-0.0579833984375
2.867,308,606,398,310,-2.0,39.0,40.0,7.629394054412842,16.845703125,-2.624511480331421,-1.0550537109375,0.275146484375,-0.0711669921875
2.870,310,580,394,309,-2.0,39.0,40.0,6.042479991912842,15.686034202575684,-5.065917491912842,-1.04931640625,0.2705078125,-0.062255859375
2.879,308,467,383,310,-2.0,39.0,40.0,6.042479991912842,15.686034202575684,-5.065917491912842,-1.03271484375,0.268798828125,-0.0540771484375
2.892,310,527,379,310,-2.0,39.0,40.0,-0.7934569716453552,14.038084983825684,-8.6669921875,-1.015380859375,0.258056640625,-0.0654296875
2.900,310,509,383,310,-2.0,39.0,40.0,-4.69970703125,13.732909202575684,-10.192870140075684,-1.0040283203125,0.2379150390625,-0.0880126953125
2.915,310,488,386,309,-2.0,39.0,40.0,-4.69970703125,13.732909202575684,-10.192870140075684,-0.99462890625,0.21337890625,-0.095703125
2.947,309,464,384,308,-4.0,38.0,42.0,-10.864256858825684,10.864256858825684,-10.925292015075684,-0.981689453125,0.1885986328125,-0.0816650390625
2.947,308,441,383,310,-4.0,38.0,42.0,-11.474608421325684,7.812499523162842,-10.253905296325684,-0.9635009765625,0.171630859375,-0.0634765625
2.947,311,428,382,310,-4.0,38.0,42.0,-11.474608421325684,7.812499523162842,-10.253905296325684,-0.943115234375,0.1656494140625,-0.0582275390625
2.947,295,423,382,309,-4.0,38.0,42.0,-11.291502952575684,4.33349609375,-8.9111328125,-0.932373046875,0.166259765625,-0.066650390625
2.961,308,417,382,310,-4.0,38.0,42.0,-13.977049827575684,-1.8310545682907104,-5.432128429412842,-0.9349365234375,0.1641845703125,-0.069580078125
2.973,308,411,379,308,-4.0,38.0,42.0,-16.2353515625,-4.33349609375,-3.601073980331421,-0.9444580078125,0.1571044921875,-0.0550537109375
2.983,310,411,381,309,-4.0,38.0,42.0,-16.2353515625,-4.33349609375,-3.601073980331421,-0.9483642578125,0.158203125,-0.0333251953125
2.991,310,408,384,309,-4.0,38.0,42.0,-15.319823265075684,-8.48388671875,1.15966796875,-0.94140625,0.1710205078125,-0.0147705078125
2.999,310,408,382,310,-4.0,38.0,42.0,-13.244627952575684,-10.742186546325684,3.234863042831421,-0.9312744140625,0.1820068359375,0.0035400390625
3.007,308,409,384,309,-4.0,38.0,42.0,-13.244627952575684,-10.742186546325684,3.234863042831421,-0.9180908203125,0.1868896484375,0.01904296875
3.021,309,417,384,310,-2.0,38.0,45.0,-7.995604991912842,-15.014647483825684,5.676269054412842,-0.89990234375,0.1861572265625,0.0218505859375
3.045,310,424,386,310,-2.0,38.0,45.0,-5.0048828125,-15.747069358825684,7.446288585662842,-0.882080078125,0.1702880859375,0.0140380859375
3.046,309,418,371,309,-2.0,38.0,45.0,-5.0048828125,-15.747069358825684,7.446288585662842,-0.8760986328125,0.1312255859375,0.0106201171875
3.059,310,467,386,309,-2.0,38.0,45.0,-1.0986328125,-16.54052734375,15.624999046325684,-0.862060546875,0.0721435546875,0.013427734375
3.060,308,495,371,296,-2.0,38.0,45.0,2.50244140625,-17.822265625,22.888181686401367,-0.78515625,0.0052490234375,0.0020751953125
3.067,309,551,382,310,-2.0,38.0,45.0,2.50244140625,-17.822265625,22.888181686401367,-0.6234130859375,-0.0498046875,-0.0435791015625
3.083,310,710,373,310,-2.0,38.0,45.0,16.29638671875,-26.550291061401367,37.9638671875,-0.428955078125,-0.036865234375,-0.1331787109375
3.089,310,814,379,310,-2.0,38.0,45.0,26.672361373901367,-37.41455078125,41.320796966552734,-0.236328125,0.1324462890625,-0.2294921875
3.097,309,893,372,309,-2.0,38.0,45.0,37.41455078125,-53.344722747802734,38.4521484375,-0.0400390625,0.461669921875,-0.224609375
3.123,309,1022,444,309,-4.0,34.0,44.0,42.297359466552734,-71.22802734375,25.939939498901367,0.22216796875,0.7271728515625,0.0069580078125
3.124,309,1091,634,310,-4.0,34.0,44.0,30.456541061401367,-85.14403533935547,6.958007335662842,0.367431640625,0.710693359375,0.3961181640625
3.191,308,1175,872,310,-4.0,34.0,44.0,6.835937023162842,-87.58544158935547,-14.770506858825684,0.067626953125,0.522705078125,0.75341796875
3.191,311,1300,1216,310,-4.0,34.0,44.0,10.009765625,-75.5615234375,-37.53662109375,-0.725830078125,0.4866943359375,0.875732421875
3.192,310,1357,1334,309,-4.0,34.0,44.0,52.368160247802734,-55.358882904052734,-51.818843841552734,-1.66064453125,0.708984375,0.5445556640625
3.192,310,1404,1413,311,-4.0,34.0,44.0,87.21923065185547,-34.97314453125,-52.795406341552734,-2.120361328125,0.771484375,0.0240478515625
3.193,310,1454,1471,310,-4.0,34.0,44.0,81.90917205810547,-21.057126998901367,-56.579586029052734,-2.1005859375,0.29931640625,-0.14013671875
3.193,308,1429,1484,310,-4.0,34.0,44.0,60.791011810302734,-17.2119140625,-71.96044921875,-2.138671875,-0.198974609375,-0.065673828125
3.194,310,1458,1457,308,-4.0,34.0,44.0,53.771968841552734,-18.310546875,-78.4912109375,-2.302001953125,-0.132080078125,-0.124755859375
3.202,309,1460,1387,310,-4.0,34.0,44.0,49.804683685302734,-17.15087890625,-65.185546875,-2.1005859375,0.0968017578125,-0.2279052734375
3.209,310,1445,1344,310,-2.0,34.0,48.0,28.808591842651367,-8.97216796875,-49.438472747802734,-1.469482421875,-0.06494140625,-0.174072265625
3.222,310,327,1275,310,-2.0,34.0,48.0,2.3193359375,5.798339366912842,-41.442867279052734,-0.99072265625,-0.26708984375,0.0323486328125
3.252,310,1275,1159,312,-2.0,34.0,48.0,-9.27734375,20.935056686401367,-34.24072265625,-0.8780517578125,-0.16162109375,0.2142333984375
3.253,310,1316,1134,310,-2.0,34.0,48.0,-7.507323741912842,31.372068405151367,-26.000974655151367,-0.9434814453125,0.0128173828125,0.2786865234375
3.253,310,1292,1116,310,-2.0,34.0,48.0,-2.746581792831421,36.80419921875,-18.12744140625,-1.2740478515625,0.1744384765625,0.3175048828125
3.261,310,1236,1050,310,-2.0,34.0,48.0,3.784179449081421,37.78076171875,-7.629394054412842,-1.7666015625,0.32763671875,0.375732421875
3.269,310,463,988,310,-2.0,34.0,48.0,8.97216796875,37.29248046875,7.873534679412842,-1.9580078125,0.354248046875,0.3717041015625
3.292,309,1188,918,309,-2.0,34.0,48.0,6.591796398162842,39.794921875,24.719236373901367,-1.7587890625,0.226318359375,0.226806640625
3.293,309,1129,778,310,-2.0,34.0,48.0,0.6103515625,47.241207122802734,38.4521484375,-1.46533203125,0.0587158203125,-0.04248046875
3.299,310,1065,718,310,-2.0,34.0,48.0,-2.807616949081421,58.044429779052734,50.415035247802734,-1.2933349609375,-0.0155029296875,-0.272216796875
3.307,310,996,644,310,-7.0,39.0,49.0,-4.5166015625,64.0869140625,60.913082122802734,-1.2205810546875,0.0716552734375,-0.300048828125
3.327,310,847,517,310,-7.0,39.0,49.0,-4.638671875,59.936519622802734,62.805171966552734,-1.080322265625,0.184814453125,-0.1549072265625
3.329,309,740,477,310,-7.0,39.0,49.0,-3.173827886581421,50.659175872802734,48.583980560302734,-0.80908203125,0.1309814453125,-0.025634765625
3.346,309,685,435,308,-7.0,39.0,49.0,-5.310058116912842,45.104976654052734,23.010251998901367,-0.4447021484375,-0.0191650390625,-0.0650634765625
3.354,310,622,402,310,-7.0,39.0,49.0,-12.084959983825684,46.203609466552734,0.0610351525247097,-0.1317138671875,-0.08984375,-0.221923828125
3.359,310,572,386,308,-7.0,39.0,49.0,-20.507810592651367,47.729488372802734,-11.169432640075684,-0.130126953125,0.0174560546875,-0.2628173828125
3.367,309,541,378,310,-7.0,39.0,49.0,-27.465818405151367,40.466304779052734,-11.230467796325684,-0.3394775390625,0.257080078125,-0.1279296875
3.381,308,516,380,310,-7.0,39.0,49.0,-31.860349655151367,28.320310592651367,-5.737304210662842,-0.490966796875,0.4940185546875,-0.0196533203125
3.404,310,504,382,309,-7.0,39.0,49.0,-39.00146484375,19.71435546875,0.3662109076976776,-0.6070556640625,0.6190185546875,0.050048828125
3.406,310,504,384,310,-7.0,39.0,49.0,-49.072261810302734,12.207030296325684,3.479003667831421,-0.70654296875,0.5328369140625,0.1998291015625
3.412,309,513,386,310,-4.0,37.0,44.0,-50.170894622802734,4.94384765625,1.5869139432907104,-0.721923828125,0.1136474609375,0.317138671875
3.420,308,516,391,310,-4.0,37.0,44.0,-36.0107421875,2.746581792831421,-3.662109136581421,-0.721923828125,0.1136474609375,0.317138671875
3.427,310,519,391,310,-4.0,37.0,44.0,-13.427733421325684,4.82177734375,-8.6669921875,-0.8089599609375,0.1046142578125,0.172119140625
3.449,308,521,393,310,-4.0,37.0,44.0,6.042479991912842,6.958007335662842,-11.169432640075684,-1.02392578125,0.214111328125,-0.1207275390625
3.449,309,522,394,310,-4.0,37.0,44.0,16.357421875,7.690429210662842,-10.559081077575684,-1.02392578125,0.214111328125,-0.1207275390625
3.457,309,523,394,309,-4.0,37.0,44.0,17.822265625,7.141112804412842,-7.202147960662842,-1.06298828125,0.197021484375,-0.1712646484375
3.471,308,523,393,308,-4.0,37.0,44.0,14.831542015075684,5.981444835662842,-2.3193359375,-1.029052734375,0.1016845703125,-0.1290283203125
3.479,309,530,391,310,-4.0,37.0,44.0,11.596678733825684,4.45556640625,2.624511480331421,-1.029052734375,0.1016845703125,-0.1290283203125
3.510,310,531,391,310,-4.0,37.0,44.0,8.7890625,2.563476324081421,6.835937023162842,-0.9857177734375,0.0826416015625,-0.071044921875
3.512,310,530,385,310,-4.0,37.0,44.0,5.432128429412842,0.9155272841453552,10.498045921325684,-0.9837646484375,0.2108154296875,-0.019287109375
3.532,308,533,384,309,-5.0,38.0,44.0,1.8310545682907104,0.2441406100988388,13.183592796325684,-0.9837646484375,0.2108154296875,-0.019287109375
3.552,310,530,384,310,-5.0,38.0,44.0,-1.4038084745407104,0.54931640625,13.732909202575684,-0.9931640625,0.26318359375,-0.027099609375
3.553,308,529,386,309,-5.0,38.0,44.0,-4.33349609375,1.5869139432907104,12.145995140075684,-0.97900390625,0.2113037109375,-0.0499267578125
3.553,308,524,384,310,-5.0,38.0,44.0,-6.042479991912842,2.807616949081421,10.253905296325684,-0.9813232421875,0.17529296875,-0.056396484375
3.554,310,525,382,310,-5.0,38.0,44.0,-5.249022960662842,3.295898199081421,10.253905296325684,-0.9813232421875,0.17529296875,-0.056396484375
3.561,308,530,382,308,-5.0,38.0,44.0,0.0610351525247097,0.9155272841453552,15.930174827575684,-0.963623046875,0.1871337890625,-0.067626953125
3.569,309,529,380,310,-5.0,38.0,44.0,0.0610351525247097,0.9155272841453552,15.930174827575684,-0.9371337890625,0.2259521484375,-0.091064453125
3.577,308,531,382,310,-5.0,38.0,44.0,0.9155272841453552,-1.2817381620407104,17.7001953125,-0.9371337890625,0.2259521484375,-0.091064453125
3.596,310,538,380,308,-5.0,38.0,44.0,0.54931640625,-7.385253429412842,14.343260765075684,-0.949951171875,0.2852783203125,-0.072998046875
3.601,310,525,380,295,-5.0,38.0,44.0,0.54931640625,-7.385253429412842,14.343260765075684,-0.9637451171875,0.3048095703125,-0.04052734375
3.612,310,538,381,310,-8.0,38.0,50.0,3.723144292831421,-10.192870140075684,12.451170921325684,-0.9686279296875,0.286865234375,-0.0133056640625
3.622,308,547,382,310,-8.0,38.0,50.0,10.742186546325684,-13.244627952575684,10.009765625,-0.9613037109375,0.2427978515625,0.00439453125
3.632,308,548,380,309,-8.0,38.0,50.0,13.854979515075684,-13.793944358825684,10.375975608825684,-0.9464111328125,0.1998291015625,0.0062255859375
3.654,309,551,382,310,-8.0,38.0,50.0,13.854979515075684,-13.793944358825684,10.375975608825684,-0.9332275390625,0.1627197265625,0.0006103515625
3.656,309,558,384,309,-8.0,38.0,50.0,18.4326171875,-14.282225608825684,16.66259765625,-0.921875,0.1492919921875,-0.009521484375
3.662,310,312,384,309,-8.0,38.0,50.0,19.83642578125,-14.587401390075684,22.033689498901367,-0.890380859375,0.1624755859375,-0.0257568359375
3.669,310,576,382,308,-8.0,38.0,50.0,19.83642578125,-14.587401390075684,22.033689498901367,-0.8447265625,0.195556640625,-0.0428466796875
3.682,308,310,382,308,-8.0,38.0,50.0,10.375975608825684,-13.916014671325684,28.198240280151367,-0.808349609375,0.2418212890625,-0.0462646484375
3.690,310,644,386,310,-8.0,38.0,50.0,-0.54931640625,-12.207030296325684,26.794431686401367,-0.7664794921875,0.255126953125,-0.0438232421875
3.700,310,310,384,309,-8.0,38.0,50.0,-0.54931640625,-12.207030296325684,26.794431686401367,-0.67041015625,0.2105712890625,-0.048828125
3.718,309,846,384,309,-7.0,39.0,46.0,-24.841306686401367,-5.798339366912842,24.536130905151367,-0.4105224609375,0.1043701171875,-0.026123046875
3.721,310,932,444,310,-7.0,39.0,46.0,-35.58349609375,-2.25830078125,27.770994186401367,-0.0379638671875,0.0428466796875,0.059326171875
3.757,309,996,608,310,-7.0,39.0,46.0,-35.58349609375,-2.25830078125,27.770994186401367,0.360595703125,0.1357421875,0.182373046875
3.758,310,1141,994,310,-7.0,39.0,46.0,-56.701656341552734,-14.587401390075684,31.433103561401367,0.65185546875,0.216796875,0.303955078125
3.758,310,1245,1182,310,-7.0,39.0,46.0,-71.96044921875,-34.66796875,13.977049827575684,0.4083251953125,0.22998046875,0.511474609375
3.759,309,1313,1313,298,-7.0,39.0,46.0,-64.75830078125,-51.940914154052734,-12.817381858825684,-0.5665283203125,0.41796875,0.5977783203125
3.772,308,310,1460,310,-7.0,39.0,46.0,-10.375975608825684,-48.156734466552734,-28.564451217651367,-1.6683349609375,0.850830078125,0.175048828125
3.780,310,310,1502,314,-7.0,39.0,46.0,46.081539154052734,-24.597166061401367,-26.367185592651367,-2.1051025390625,1.0328369140625,-0.3330078125
3.788,310,309,1533,307,-7.0,39.0,46.0,46.020503997802734,-4.7607421875,-21.728513717651367,-2.1734619140625,0.6739501953125,-0.27880859375
3.802,308,308,1566,310,-6.0,35.0,50.0,19.59228515625,-5.737304210662842,-21.789548873901367,-2.3314208984375,0.2823486328125,0.1885986328125
3.810,308,310,1540,310,-6.0,35.0,50.0,23.742673873901367,-19.83642578125,-17.4560546875,-2.3448486328125,0.25634765625,0.4276123046875
3.824,309,310,1516,310,-6.0,35.0,50.0,44.921871185302734,-23.925779342651367,-10.009765625,-1.899169921875,0.155029296875,0.1378173828125
3.833,308,310,1431,312,-6.0,35.0,50.0,37.17041015625,-1.7700194120407104,-11.474608421325684,-1.356689453125,-0.2135009765625,-0.30712890625
3.859,310,1216,1361,311,-6.0,35.0,50.0,11.413573265075684,34.85107421875,-16.17431640625,-1.185791015625,-0.23486328125,-0.5135498046875
3.859,310,1390,1284,310,-6.0,35.0,50.0,8.48388671875,57.861324310302734,-14.709471702575684,-1.1331787109375,0.1715087890625,-0.4764404296875
3.862,310,456,1239,311,-6.0,35.0,50.0,24.475095748901367,55.786128997802734,-15.563963890075684,-1.0557861328125,0.5692138671875,-0.3421630859375
3.870,310,1267,1226,311,-6.0,35.0,50.0,31.799314498901367,36.92626953125,-25.207517623901367,-1.2239990234375,0.8057861328125,-0.1920166015625
3.879,309,543,1204,311,-6.0,35.0,50.0,24.780271530151367,13.183592796325684,-40.405269622802734,-1.6666259765625,0.8115234375,-0.02392578125
3.892,310,1009,1108,311,-6.0,35.0,50.0,10.681151390075684,-6.530761241912842,-51.025386810302734,-1.921630859375,0.5958251953125,0.093505859375
3.901,310,1137,1029,310,-6.0,35.0,50.0,-3.906249761581421,-14.038084983825684,-51.391597747802734,-1.75146484375,0.38818359375,0.1033935546875
3.908,310,1139,948,310,-4.0,35.0,40.0,-13.671874046325684,-8.30078125,-47.668453216552734,-1.362548828125,0.2750244140625,0.0206298828125
3.922,308,1087,824,310,-4.0,35.0,40.0,-14.221190452575684,5.981444835662842,-46.142574310302734,-1.0162353515625,0.206787109375,-0.1011962890625
3.930,308,1022,763,310,-4.0,35.0,40.0,-7.263183116912842,20.446775436401367,-45.593257904052734,-0.803466796875,0.13720703125,-0.1436767578125
3.939,310,968,694,310,-4.0,35.0,40.0,-1.0986328125,26.916501998901367,-43.334957122802734,-0.724609375,0.0126953125,-0.071044921875
3.961,310,884,588,310,-4.0,35.0,40.0,-0.4882812201976776,25.268552780151367,-39.55078125,-0.697021484375,-0.1783447265625,0.0435791015625
3.961,310,823,523,309,-4.0,35.0,40.0,-1.4038084745407104,21.301267623901367,-36.1328125,-0.6619873046875,-0.358642578125,0.12841796875
3.968,310,784,477,310,-4.0,35.0,40.0,0.4882812201976776,19.1650390625,-31.311033248901367,-0.6251220703125,-0.4072265625,0.1412353515625
3.982,310,739,450,308,-4.0,35.0,40.0,5.187987804412842,20.996091842651367,-20.935056686401367,-0.5494384765625,-0.294921875,0.07373046875
3.990,309,310,435,310,-4.0,35.0,40.0,9.033203125,26.367185592651367,-5.249022960662842,-0.5045166015625,-0.0955810546875,-0.0101318359375
3.999,309,331,423,309,-4.0,35.0,40.0,6.347655773162842,29.785154342651367,9.94873046875,-0.5625,0.077392578125,-0.0152587890625
4.012,309,688,420,310,-4.0,35.0,40.0,-3.051757574081421,27.038572311401367,20.202634811401367,-0.66650390625,0.178955078125,0.0411376953125
4.021,310,674,418,310,-4.0,35.0,40.0,-11.169432640075684,21.789548873901367,26.733396530151367,-0.749267578125,0.2708740234375,0.043701171875
4.029,310,666,415,310,-4.0,35.0,40.0,-12.145995140075684,18.4326171875,31.921384811401367,-0.7886962890625,0.3818359375,-0.0245361328125
4.043,309,646,423,310,-4.0,35.0,40.0,-10.620116233825684,15.563963890075684,33.935546875,-0.8258056640625,0.4488525390625,-0.06591796875
4.064,310,644,423,308,-4.0,35.0,40.0,-11.535643577575684,10.986327171325684,30.395505905151367,-0.8587646484375,0.4219970703125,-0.0338134765625
4.072,310,645,426,310,-4.0,35.0,40.0,-11.596678733825684,6.591796398162842,22.399900436401367,-0.8543701171875,0.3446044921875,-0.0057373046875
4.072,309,650,435,310,-4.0,35.0,40.0,-8.97216796875,4.08935546875,13.488768577575684,-0.9144287109375,0.2984619140625,-0.1273193359375
4.080,310,653,437,310,-4.0,35.0,40.0,-6.042479991912842,1.7089842557907104,5.249022960662842,-0.9144287109375,0.2984619140625,-0.1273193359375
4.090,309,654,437,310,-4.0,35.0,40.0,-3.479003667831421,-1.8920897245407104,-2.0751953125,-0.9720458984375,0.296875,-0.1668701171875
4.107,309,658,439,310,-4.0,37.0,46.0,-1.5258787870407104,-5.554198741912842,-6.896972179412842,-0.9874267578125,0.24560546875,-0.1240234375
4.110,310,660,441,308,-4.0,37.0,46.0,-1.9531248807907104,-7.995604991912842,-8.6669921875,-0.9874267578125,0.24560546875,-0.1240234375
4.118,310,662,441,309,-4.0,37.0,46.0,-5.371093273162842,-9.033203125,-8.544921875,-0.97119140625,0.2071533203125,-0.0648193359375
4.133,310,667,442,308,-4.0,37.0,46.0,-10.253905296325684,-8.7890625,-7.812499523162842,-0.9635009765625,0.123046875,0.014404296875
4.166,308,671,440,308,-4.0,37.0,46.0,-14.221190452575684,-7.873534679412842,-6.286620616912842,-0.9635009765625,0.123046875,0.014404296875
4.166,310,673,442,309,-4.0,37.0,46.0,-16.17431640625,-6.835937023162842,-3.662109136581421,-0.9710693359375,0.111083984375,0.00537109375
4.167,309,673,441,308,-4.0,37.0,46.0,-16.7236328125,-6.042479991912842,-0.1831054538488388,-0.99365234375,0.1131591796875,-0.0537109375
4.174,310,673,437,310,-4.0,37.0,46.0,-16.66259765625,-5.432128429412842,4.150390625,-0.99365234375,0.1131591796875,-0.0537109375
4.184,310,668,437,310,-4.0,37.0,46.0,-16.357421875,-4.94384765625,9.46044921875,-0.995361328125,0.1175537109375,-0.0640869140625
4.192,309,662,428,310,-4.0,37.0,46.0,-16.11328125,-4.7607421875,15.258788108825684,-0.968994140625,0.14599609375,-0.027099609375
4.200,308,665,430,308,-4.0,37.0,46.0,-16.29638671875,-4.57763671875,20.568845748901367,-0.968994140625,0.14599609375,-0.027099609375
4.211,308,667,430,310,-4.0,37.0,46.0,-16.90673828125,-4.638671875,24.536130905151367,-0.9554443359375,0.179931640625,-0.0157470703125
4.222,308,673,435,310,-4.0,37.0,46.0,-15.441893577575684,-7.202147960662842,24.719236373901367,-0.9593505859375,0.2947998046875,-0.0413818359375
4.231,310,673,437,310,-4.0,37.0,46.0,-15.441893577575684,-7.202147960662842,24.719236373901367,-0.956298828125,0.3253173828125,-0.0496826171875
4.238,309,684,444,310,-4.0,37.0,46.0,-12.634276390075684,-9.58251953125,20.874021530151367,-0.956298828125,0.3253173828125,-0.0496826171875
4.268,310,687,447,310,-4.0,37.0,46.0,-7.751464366912842,-13.977049827575684,12.695311546325684,-0.9327392578125,0.2757568359375,-0.0357666015625
4.269,308,694,452,310,-4.0,37.0,46.0,-7.751464366912842,-13.977049827575684,12.695311546325684,-0.8978271484375,0.2142333984375,-0.0345458984375
4.269,310,705,465,309,-4.0,37.0,46.0,-7.507323741912842,-15.075682640075684,11.108397483825684,-0.8978271484375,0.2142333984375,-0.0345458984375
4.282,308,739,512,310,-4.0,37.0,46.0,-11.474608421325684,-15.991209983825684,15.258788108825684,-0.7412109375,0.0654296875,-0.0657958984375
4.297,310,780,588,310,-4.0,37.0,46.0,-11.474608421325684,-15.991209983825684,15.258788108825684,-0.6158447265625,0.0313720703125,-0.090576171875
4.298,309,756,732,310,-4.0,37.0,46.0,-15.380858421325684,-17.333984375,20.385740280151367,-0.6158447265625,0.0313720703125,-0.090576171875
4.313,308,371,1039,308,-3.0,37.0,41.0,-25.390623092651367,-19.53125,27.221677780151367,-0.2567138671875,0.0257568359375,-0.0147705078125
4.320,310,928,1176,310,-3.0,37.0,41.0,-25.390623092651367,-19.53125,27.221677780151367,0.119873046875,0.153564453125,0.070556640625
4.328,310,989,1253,310,-3.0,37.0,41.0,-34.11865234375,-19.95849609375,28.869626998901367,0.119873046875,0.153564453125,0.070556640625
4.372,310,1064,1388,310,-3.0,37.0,41.0,-49.255367279052734,-32.470703125,13.427733421325684,0.4127197265625,0.616455078125,0.4605712890625
4.373,310,816,1457,308,-3.0,37.0,41.0,-49.255367279052734,-32.470703125,13.427733421325684,-0.1192626953125,0.738525390625,0.4677734375
4.374,310,1108,1538,312,-3.0,37.0,41.0,-23.681638717651367,-46.936031341552734,-9.521484375,-0.1192626953125,0.738525390625,0.4677734375
4.374,309,1338,1634,311,-3.0,37.0,41.0,24.963376998901367,-64.697265625,-30.151365280151367,-1.961181640625,0.8460693359375,-0.080322265625
4.380,310,1363,1656,311,-3.0,37.0,41.0,26.062009811401367,-57.739253997802734,-31.616209030151367,-2.3114013671875,0.3721923828125,-0.044921875
4.388,309,310,1687,310,-3.0,37.0,41.0,26.062009811401367,-57.739253997802734,-31.616209030151367,-2.2547607421875,-0.1025390625,0.2794189453125
4.402,308,310,1703,310,-5.0,36.0,46.0,7.873534679412842,-33.0810546875,-41.076656341552734,-2.16650390625,-0.27392578125,0.42626953125
4.411,309,308,1675,310,-5.0,36.0,46.0,-10.559081077575684,-9.765625,-19.04296875,-2.1485595703125,-0.2689208984375,0.23583984375
4.418,309,309,1640,310,-5.0,36.0,46.0,-10.559081077575684,-9.765625,-19.04296875,-1.7689208984375,-0.190185546875,-0.093505859375
4.432,311,1403,1547,310,-5.0,36.0,46.0,10.864256858825684,50.659175872802734,29.418943405151367,-1.243896484375,-0.0052490234375,-0.3570556640625
4.440,310,1373,1471,310,-5.0,36.0,46.0,39.9169921875,67.93212890625,28.869626998901367,-1.0350341796875,0.2626953125,-0.3623046875
4.453,311,1367,1444,310,-5.0,36.0,46.0,39.9169921875,67.93212890625,28.869626998901367,-0.978759765625,0.4796142578125,-0.1590576171875
4.476,310,1355,1417,310,-5.0,36.0,46.0,45.166011810302734,56.030269622802734,-1.3427733182907104,-1.19482421875,0.7288818359375,0.0537109375
4.480,311,1340,1390,310,-5.0,36.0,46.0,31.799314498901367,37.4755859375,-20.568845748901367,-1.6673583984375,0.9228515625,0.2452392578125
4.482,310,1313,1325,310,-5.0,36.0,46.0,31.799314498901367,37.4755859375,-20.568845748901367,-1.8719482421875,0.793212890625,0.310546875
4.492,310,1260,1172,310,-5.0,36.0,46.0,-5.310058116912842,12.939452171325684,-34.24072265625,-1.6453857421875,0.455078125,0.1864013671875
4.500,309,1217,1078,310,-3.0,38.0,47.0,-16.41845703125,21.423337936401367,-30.761716842651367,-1.2904052734375,0.1790771484375,-0.076171875
4.508,310,1134,988,310,-3.0,38.0,47.0,-16.41845703125,21.423337936401367,-30.761716842651367,-1.0806884765625,0.1070556640625,-0.31689453125
4.525,308,1103,875,310,-3.0,38.0,47.0,-0.0610351525247097,41.625972747802734,-26.367185592651367,-1.0155029296875,0.16259765625,-0.336669921875
4.530,311,960,813,311,-3.0,38.0,47.0,10.192870140075684,36.43798828125,-24.536130905151367,-0.962646484375,0.1815185546875,-0.1962890625
4.538,309,972,721,310,-3.0,38.0,47.0,14.160155296325684,26.733396530151367,-23.254392623901367,-0.8226318359375,0.082763671875,-0.0587158203125
4.574,310,879,584,310,-3.0,38.0,47.0,13.671874046325684,20.446775436401367,-23.742673873901367,-0.6094970703125,-0.1195068359375,0.0224609375
4.583,310,793,513,310,-3.0,38.0,47.0,10.986327171325684,19.53125,-26.733396530151367,-0.4285888671875,-0.2777099609375,0.046142578125
4.583,310,799,481,310,-3.0,38.0,47.0,8.7890625,22.399900436401367,-28.381345748901367,-0.3287353515625,-0.273193359375,0.0196533203125
4.584,310,780,463,310,-3.0,38.0,47.0,7.751464366912842,26.000974655151367,-25.085447311401367,-0.3680419921875,-0.11376953125,-0.033935546875
4.591,310,769,456,309,-3.0,38.0,47.0,5.554198741912842,25.573728561401367,-18.49365234375,-0.550048828125,0.1234130859375,-0.0389404296875
4.598,309,750,463,309,-3.0,37.0,38.0,1.03759765625,18.73779296875,-13.061522483825684,-0.724609375,0.2978515625,0.018798828125
4.612,309,722,475,308,-3.0,37.0,38.0,-3.906249761581421,11.413573265075684,-9.94873046875,-0.793212890625,0.3763427734375,0.045166015625
4.622,308,714,481,310,-3.0,37.0,38.0,-9.21630859375,9.09423828125,-6.408690929412842,-0.7930908203125,0.4273681640625,0.0257568359375
4.635,310,703,483,308,-3.0,37.0,38.0,-14.648436546325684,9.33837890625,-2.990722417831421,-0.78076171875,0.4178466796875,0.0511474609375
4.642,309,698,488,308,-3.0,37.0,38.0,-15.991209983825684,9.09423828125,-2.990722417831421,-0.7799072265625,0.308837890625,0.110107421875
4.656,309,697,494,310,-3.0,37.0,38.0,-10.681151390075684,9.8876953125,-5.554198741912842,-0.830078125,0.1939697265625,0.095947265625
4.658,310,688,495,310,-3.0,37.0,38.0,-2.807616949081421,12.634276390075684,-6.835937023162842,-0.9342041015625,0.142822265625,0.0101318359375
4.687,308,675,495,310,-3.0,37.0,38.0,2.807616949081421,14.587401390075684,-5.859374523162842,-1.024169921875,0.12255859375,-0.0758056640625
4.688,310,663,496,310,-3.0,37.0,38.0,5.737304210662842,13.793944358825684,-4.21142578125,-1.0654296875,0.112060546875,-0.1302490234375
4.689,309,652,496,294,-3.0,37.0,38.0,6.713866710662842,10.986327171325684,-2.990722417831421,-1.0723876953125,0.12353515625,-0.150146484375
4.702,309,636,497,308,-1.0,38.0,45.0,6.103515148162842,7.812499523162842,-1.8920897245407104,-1.051513671875,0.1474609375,-0.1376953125
4.710,310,630,497,310,-1.0,38.0,45.0,3.479003667831421,5.615233898162842,-0.6713866591453552,-1.0164794921875,0.158935546875,-0.1041259765625
4.723,310,628,497,310,-1.0,38.0,45.0,-0.6103515625,4.5166015625,0.54931640625,-0.986328125,0.1531982421875,-0.0721435546875
4.732,309,613,496,309,-1.0,38.0,45.0,-3.906249761581421,4.0283203125,1.9531248807907104,-0.9669189453125,0.1456298828125,-0.056640625
4.740,310,605,495,310,-1.0,38.0,45.0,-5.065917491912842,3.356933355331421,3.417968511581421,-0.954833984375,0.1416015625,-0.0517578125
4.748,310,601,493,310,-1.0,38.0,45.0,-4.7607421875,2.13623046875,4.7607421875,-0.944091796875,0.1434326171875,-0.063720703125
4.763,308,594,483,310,-1.0,38.0,45.0,-4.69970703125,0.7934569716453552,5.981444835662842,-0.9432373046875,0.1612548828125,-0.0950927734375
4.790,308,592,479,310,-1.0,38.0,45.0,-5.920409679412842,-0.8544921278953552,7.080077648162842,-0.956787109375,0.1864013671875,-0.11279296875
4.790,310,588,481,310,-1.0,38.0,45.0,-6.469726085662842,-3.234863042831421,7.873534679412842,-0.9713134765625,0.2030029296875,-0.0982666015625
4.793,307,576,473,309,-1.0,38.0,45.0,-4.7607421875,-5.798339366912842,8.544921875,-0.976318359375,0.2052001953125,-0.0697021484375
4.800,310,574,473,310,-3.0,41.0,46.0,-2.563476324081421,-7.629394054412842,9.33837890625,-0.9718017578125,0.194580078125,-0.0521240234375
4.808,308,564,469,309,-3.0,41.0,46.0,-2.13623046875,-8.30078125,10.131834983825684,-0.9671630859375,0.177978515625,-0.0501708984375
4.825,310,557,465,310,-3.0,41.0,46.0,-3.051757574081421,-8.30078125,10.864256858825684,-0.9693603515625,0.1627197265625,-0.050537109375
4.830,308,552,464,310,-3.0,41.0,46.0,-3.723144292831421,-8.23974609375,11.962889671325684,-0.976806640625,0.1568603515625,-0.0487060546875
4.849,310,547,465,309,-3.0,41.0,46.0,-3.112792730331421,-8.23974609375,13.732909202575684,-0.983154296875,0.1595458984375,-0.0474853515625
4.870,308,548,465,309,-3.0,41.0,46.0,-2.13623046875,-8.23974609375,16.05224609375,-0.961181640625,0.1375732421875,-0.0406494140625
4.874,308,441,468,310,-3.0,41.0,46.0,-1.8920897245407104,-7.873534679412842,19.287109375,-0.961181640625,0.1375732421875,-0.0406494140625
4.893,309,578,451,308,-3.0,41.0,46.0,-3.173827886581421,-6.713866710662842,24.108884811401367,-0.91015625,0.085205078125,-0.037841796875
4.893,310,648,469,310,-3.0,41.0,46.0,-6.591796398162842,-4.57763671875,31.555173873901367,-0.7283935546875,-0.0228271484375,-0.0445556640625
4.894,311,710,476,308,-3.0,41.0,46.0,-12.145995140075684,-2.624511480331421,41.198726654052734,-0.7283935546875,-0.0228271484375,-0.0445556640625
4.904,309,810,522,310,-3.0,38.0,45.0,-19.71435546875,-2.624511480331421,51.208492279052734,-0.5570068359375,-0.0250244140625,-0.0682373046875
4.913,310,966,676,310,-3.0,38.0,45.0,-28.625486373901367,-5.065917491912842,58.776851654052734,0.10009765625,0.0601806640625,-0.16552734375
4.920,310,1026,806,310,-3.0,38.0,45.0,-36.68212890625,-10.864256858825684,60.913082122802734,0.10009765625,0.0601806640625,-0.16552734375
4.928,310,1087,964,310,-3.0,38.0,45.0,-42.724605560302734,-23.010251998901367,56.640621185302734,0.5543212890625,0.1878662109375,-0.056884765625
4.942,309,1229,1162,310,-3.0,38.0,45.0,-53.833003997802734,-43.029781341552734,44.250484466552734,0.485107421875,1.0086669921875,0.3470458984375
4.951,310,1300,1268,310,-3.0,38.0,45.0,-66.10107421875,-68.115234375,16.05224609375,0.485107421875,1.0086669921875,0.3470458984375
4.964,310,1355,1369,310,-3.0,38.0,45.0,-51.635738372802734,-86.85301971435547,-28.564451217651367,-0.5263671875,1.23486328125,0.61328125
4.986,310,1450,1469,310,-3.0,38.0,45.0,-10.192870140075684,-82.45848846435547,-65.24658203125,-2.501953125,0.7041015625,-0.014404296875
4.987,310,1477,1477,311,-3.0,38.0,45.0,18.73779296875,-55.114742279052734,-75.927734375,-2.5838623046875,-0.011962890625,-0.18212890625
4.996,298,1513,1501,310,-3.0,38.0,45.0,19.287109375,-28.564451217651367,-77.57568359375,-2.5838623046875,-0.011962890625,-0.18212890625
5.000,299,1527,1484,311,0.0,37.0,47.0,14.160155296325684,-17.27294921875,-79.58984375,-2.4178466796875,-0.529296875,-0.007080078125
5.011,310,1531,1353,310,0.0,37.0,47.0,22.949216842651367,-17.4560546875,-65.12451171875,-2.0318603515625,-0.4012451171875,0.0963134765625
5.019,312,1518,1292,310,0.0,37.0,47.0,37.90283203125,-15.014647483825684,-30.395505905151367,-2.0318603515625,-0.4012451171875,0.0963134765625
5.030,310,1486,1245,310,0.0,37.0,47.0,41.748043060302734,9.58251953125,4.82177734375,-1.3734130859375,-0.2745361328125,-0.218994140625
5.041,309,1483,1246,310,0.0,37.0,47.0,33.3251953125,43.579097747802734,24.475095748901367,-1.0084228515625,0.6334228515625,-0.141845703125
5.050,310,1468,1236,310,0.0,37.0,47.0,23.254392623901367,57.067867279052734,25.695798873901367,-1.4326171875,0.9102783203125,0.266845703125
5.057,311,1454,1204,310,0.0,37.0,47.0,15.441893577575684,44.677730560302734,11.596678733825684,-1.4326171875,0.9102783203125,0.266845703125
5.071,310,1392,1129,310,0.0,37.0,47.0,4.7607421875,21.118162155151367,-14.465331077575684,-1.8819580078125,0.5609130859375,0.2757568359375
5.088,309,1349,1050,308,0.0,37.0,47.0,4.7607421875,21.118162155151367,-14.465331077575684,-1.61279296875,0.2623291015625,0.0054931640625
5.088,311,1305,959,312,0.0,37.0,47.0,-1.0986328125,30.334470748901367,-13.061522483825684,-1.61279296875,0.2623291015625,0.0054931640625
5.102,310,1232,803,310,-3.0,38.0,44.0,5.859374523162842,52.246089935302734,-1.7700194120407104,-1.1131591796875,-0.0111083984375,-0.2723388671875
5.109,309,1175,704,310,-3.0,38.0,44.0,5.859374523162842,52.246089935302734,-1.7700194120407104,-0.970458984375,0.1395263671875,-0.265869140625
5.117,310,1104,629,310,-3.0,38.0,44.0,19.10400390625,51.208492279052734,7.873534679412842,-0.970458984375,0.1395263671875,-0.265869140625
5.132,310,976,513,310,-3.0,38.0,44.0,24.841306686401367,28.015134811401367,3.479003667831421,-0.6661376953125,0.0870361328125,-0.065673828125
5.142,310,907,475,310,-3.0,38.0,44.0,24.841306686401367,28.015134811401367,3.479003667831421,-0.4984130859375,-0.1400146484375,-0.0584716796875
5.147,310,826,453,309,-3.0,38.0,44.0,20.996091842651367,21.301267623901367,-11.962889671325684,-0.4984130859375,-0.1400146484375,-0.0584716796875
5.168,310,763,423,309,-3.0,38.0,44.0,21.240232467651367,23.315427780151367,-27.770994186401367,-0.3140869140625,-0.0458984375,-0.263427734375
5.169,310,729,398,308,-3.0,38.0,44.0,21.240232467651367,23.315427780151367,-27.770994186401367,-0.4139404296875,0.170166015625,-0.21484375
5.211,310,703,402,310,-3.0,38.0,44.0,14.099120140075684,22.216794967651367,-22.644041061401367,-0.4139404296875,0.170166015625,-0.21484375
5.211,296,669,410,311,-3.0,38.0,44.0,-15.319823265075684,4.638671875,-19.59228515625,-0.69921875,0.2855224609375,0.0452880859375
5.211,308,657,411,310,-3.0,41.0,40.0,-20.874021530151367,2.0751953125,-16.17431640625,-0.7418212890625,0.3653564453125,0.0240478515625
5.211,310,646,417,309,-3.0,41.0,40.0,-20.874021530151367,2.0751953125,-16.17431640625,-0.754150390625,0.4300537109375,0.0579833984375
5.221,310,636,424,310,-3.0,41.0,40.0,-25.451658248901367,-1.9531248807907104,-8.72802734375,-0.7530517578125,0.3408203125,0.1611328125
5.235,310,644,433,310,-3.0,41.0,40.0,-20.996091842651367,-5.0048828125,-13.488768577575684,-0.771484375,0.1844482421875,0.189208984375
5.240,309,644,437,309,-3.0,41.0,40.0,-20.996091842651367,-5.0048828125,-13.488768577575684,-0.8515625,0.113525390625,0.097412109375
5.251,310,646,451,310,-3.0,41.0,40.0,5.798339366912842,-2.563476324081421,-19.22607421875,-0.9586181640625,0.1220703125,-0.0281982421875
5.259,310,644,456,308,-3.0,41.0,40.0,15.197752952575684,-2.13623046875,-16.90673828125,-1.0333251953125,0.13037109375,-0.1129150390625
5.270,310,642,463,308,-3.0,41.0,40.0,15.197752952575684,-2.13623046875,-16.90673828125,-1.06640625,0.1077880859375,-0.1392822265625
5.300,306,629,465,310,-3.0,41.0,40.0,13.916014671325684,-3.906249761581421,-8.6669921875,-1.0662841796875,0.0772705078125,-0.131103515625
5.301,310,627,465,310,-3.0,41.0,40.0,10.314940452575684,-3.173827886581421,-3.906249761581421,-1.046142578125,0.06396484375,-0.1103515625
5.301,312,620,467,310,-2.0,38.0,51.0,10.314940452575684,-3.173827886581421,-3.906249761581421,-1.0247802734375,0.068359375,-0.0816650390625
5.320,309,604,467,310,-2.0,38.0,51.0,-0.7934569716453552,-2.01416015625,5.920409679412842,-1.0091552734375,0.083251953125,-0.0518798828125
5.320,312,592,467,308,-2.0,38.0,51.0,-5.065917491912842,-2.197265625,10.131834983825684,-0.9959716796875,0.1099853515625,-0.0401611328125
5.327,308,585,467,310,-2.0,38.0,51.0,-5.065917491912842,-2.197265625,10.131834983825684,-0.983642578125,0.148193359375,-0.047119140625
5.344,310,567,465,309,-2.0,38.0,51.0,-5.676269054412842,-2.685546636581421,13.671874046325684,-0.971923828125,0.1807861328125,-0.0556640625
5.352,310,554,465,310,-2.0,38.0,51.0,-4.94384765625,-3.173827886581421,13.000487327575684,-0.964599609375,0.1982421875,-0.065185546875
5.357,309,547,465,310,-2.0,38.0,51.0,-4.82177734375,-3.540038824081421,12.268065452575684,-0.9610595703125,0.2039794921875,-0.0753173828125
5.373,309,543,465,310,-2.0,38.0,51.0,-5.371093273162842,-3.845214605331421,11.779784202575684,-0.9576416015625,0.19677734375,-0.0751953125
5.387,310,539,465,310,-2.0,38.0,51.0,-5.981444835662842,-4.0283203125,11.413573265075684,-0.9559326171875,0.1824951171875,-0.0675048828125
5.390,309,538,457,310,-2.0,38.0,51.0,-6.530761241912842,-4.45556640625,11.230467796325684,-0.9588623046875,0.1751708984375,-0.059814453125
5.403,310,538,454,310,-2.0,37.0,45.0,-6.774901866912842,-5.187987804412842,11.474608421325684,-0.964111328125,0.1768798828125,-0.055908203125
5.409,309,538,453,310,-2.0,37.0,45.0,-7.324218273162842,-6.103515148162842,12.451170921325684,-0.967529296875,0.181396484375,-0.056396484375
5.428,308,538,452,309,-2.0,37.0,45.0,-8.60595703125,-6.958007335662842,13.916014671325684,-0.967041015625,0.1817626953125,-0.05517578125
5.431,309,545,449,310,-2.0,37.0,45.0,-10.314940452575684,-7.873534679412842,15.502928733825684,-0.963623046875,0.1717529296875,-0.0465087890625
5.441,311,548,449,308,-2.0,37.0,45.0,-11.596678733825684,-8.6669921875,17.27294921875,-0.956298828125,0.156494140625,-0.0335693359375
5.447,310,558,451,310,-2.0,37.0,45.0,-11.901854515075684,-9.09423828125,19.6533203125,-0.9423828125,0.142333984375,-0.0255126953125
5.463,309,576,449,310,-2.0,37.0,45.0,-11.291502952575684,-9.21630859375,22.888181686401367,-0.925537109375,0.131103515625,-0.0267333984375
5.475,312,594,449,308,-2.0,37.0,45.0,-10.681151390075684,-9.21630859375,27.221677780151367,-0.8983154296875,0.1207275390625,-0.0235595703125
5.477,309,636,451,310,-2.0,37.0,45.0,-10.498045921325684,-9.21630859375,32.65380859375,-0.8419189453125,0.097412109375,-0.006591796875
5.496,310,726,444,310,-2.0,38.0,42.0,-10.253905296325684,-9.3994140625,38.818359375,-0.7342529296875,0.058349609375,0.00830078125
5.499,310,809,455,309,-2.0,38.0,42.0,-8.60595703125,-10.192870140075684,45.532222747802734,-0.5477294921875,0.02001953125,0.0196533203125
5.508,310,894,513,309,-2.0,38.0,42.0,-3.967284917831421,-13.122557640075684,51.757808685302734,-0.253662109375,-0.0162353515625,0.0367431640625
5.541,310,1010,770,310,-2.0,38.0,42.0,2.868652105331421,-18.73779296875,55.114742279052734,-0.00146484375,0.046630859375,0.012939453125
5.542,310,1069,959,296,-2.0,38.0,42.0,4.8828125,-28.015134811401367,55.603023529052734,0.25,0.2437744140625,0.010986328125
5.542,308,1138,1079,310,-2.0,38.0,42.0,-7.202147960662842,-39.73388671875,51.086421966552734,0.52880859375,0.44580078125,0.072021484375
5.551,310,1275,1297,310,-2.0,38.0,42.0,-31.249998092651367,-52.551265716552734,33.935546875,0.319091796875,0.6959228515625,0.1427001953125
5.561,310,1336,1390,310,-2.0,38.0,42.0,-40.0390625,-68.90869140625,3.356933355331421,-0.6180419921875,0.964599609375,0.1812744140625
5.567,310,325,1453,311,-2.0,38.0,42.0,-11.657713890075684,-81.05467987060547,-23.803709030151367,-1.7305908203125,1.0528564453125,0.0391845703125
5.581,309,310,1543,308,-2.0,38.0,42.0,23.437498092651367,-74.03564453125,-33.5693359375,-2.335693359375,0.80517578125,-0.197265625
5.608,308,310,1565,310,-4.0,37.0,50.0,29.479978561401367,-54.321285247802734,-38.75732421875,-2.3612060546875,0.2481689453125,-0.1876220703125
5.608,299,295,1572,310,-4.0,37.0,50.0,11.718749046325684,-42.846675872802734,-45.837398529052734,-2.159912109375,-0.2203369140625,0.0775146484375
5.611,308,308,1524,310,-4.0,37.0,50.0,-7.446288585662842,-42.053218841552734,-39.24560546875,-2.0960693359375,-0.300048828125,0.35546875
5.619,308,309,1484,308,-4.0,37.0,50.0,-7.324218273162842,-39.0625,-16.2353515625,-1.9522705078125,-0.1683349609375,0.3699951171875
5.634,308,309,1447,311,-4.0,37.0,50.0,12.878417015075684,-19.95849609375,6.408690929412842,-1.4683837890625,-0.0924072265625,0.0506591796875
5.652,309,1447,1351,310,-4.0,37.0,50.0,31.433103561401367,12.756346702575684,16.9677734375,-1.0626220703125,0.0628662109375,-0.20849609375
5.654,310,1447,1345,310,-4.0,37.0,50.0,35.58349609375,36.56005859375,18.4326171875,-0.908935546875,0.3446044921875,-0.1500244140625
5.657,311,1437,1326,309,-4.0,37.0,50.0,32.28759765625,40.893550872802734,11.413573265075684,-0.9632568359375,0.562744140625,0.080810546875
5.671,310,1419,1281,310,-4.0,37.0,50.0,26.489255905151367,31.494138717651367,-3.295898199081421,-1.6531982421875,0.8228759765625,0.394775390625
5.680,310,1400,1236,310,-4.0,37.0,50.0,18.5546875,18.61572265625,-17.822265625,-1.6531982421875,0.8228759765625,0.394775390625
5.703,310,1369,1163,310,-4.0,37.0,50.0,7.446288585662842,14.770506858825684,-25.817869186401367,-1.695068359375,0.6602783203125,0.2655029296875
5.704,309,1309,1020,310,-2.0,37.0,44.0,-6.042479991912842,22.583005905151367,-27.893064498901367,-1.33740234375,0.202392578125,-0.1331787109375
5.709,310,1260,932,310,-2.0,37.0,44.0,-15.075682640075684,34.97314453125,-28.381345748901367,-1.33740234375,0.202392578125,-0.1331787109375
5.717,310,1206,871,309,-2.0,37.0,44.0,-13.427733421325684,45.288082122802734,-26.000974655151367,-1.237060546875,0.1629638671875,-0.2001953125
5.731,310,1086,770,309,-2.0,37.0,44.0,-3.784179449081421,48.095699310302734,-19.22607421875,-0.9969482421875,0.213134765625,0.0157470703125
5.747,310,1017,704,308,-2.0,37.0,44.0,5.310058116912842,44.494625091552734,-12.817381858825684,-0.9969482421875,0.213134765625,0.0157470703125
5.747,309,912,630,310,-2.0,37.0,44.0,9.21630859375,41.259761810302734,-11.596678733825684,-0.788818359375,0.0322265625,0.0845947265625
5.762,310,833,504,308,-2.0,37.0,44.0,14.770506858825684,45.715328216552734,-16.41845703125,-0.4423828125,-0.411865234375,-0.0377197265625
5.770,310,803,488,308,-2.0,37.0,44.0,14.770506858825684,45.715328216552734,-16.41845703125,-0.328857421875,-0.3905029296875,-0.1416015625
5.783,309,780,476,310,-2.0,37.0,44.0,21.118162155151367,48.095699310302734,-10.559081077575684,-0.328857421875,-0.3905029296875,-0.1416015625
5.806,308,756,475,308,-5.0,40.0,48.0,22.399900436401367,34.85107421875,10.681151390075684,-0.4794921875,0.131103515625,-0.1224365234375
5.806,296,742,477,309,-5.0,40.0,48.0,22.399900436401367,34.85107421875,10.681151390075684,-0.651611328125,0.3843994140625,-0.047607421875
5.811,310,731,481,308,-5.0,40.0,48.0,14.953612327575684,21.667478561401367,14.404295921325684,-0.651611328125,0.3843994140625,-0.047607421875
5.822,310,721,490,310,-5.0,40.0,48.0,-8.23974609375,10.803221702575684,14.404295921325684,-0.8089599609375,0.5606689453125,-0.072998046875
5.830,310,716,496,310,-5.0,40.0,48.0,-8.23974609375,10.803221702575684,14.404295921325684,-0.805908203125,0.4915771484375,-0.0235595703125
5.838,310,723,509,310,-5.0,40.0,48.0,-23.559568405151367,10.742186546325684,15.686034202575684,-0.805908203125,0.4915771484375,-0.0235595703125
5.854,310,725,522,310,-5.0,40.0,48.0,-25.085447311401367,6.103515148162842,6.774901866912842,-0.85986328125,0.2034912109375,0.1102294921875
5.860,310,718,530,310,-5.0,40.0,48.0,-25.085447311401367,6.103515148162842,6.774901866912842,-0.949462890625,0.223388671875,0.0487060546875
5.874,308,714,535,310,-5.0,40.0,48.0,-8.85009765625,4.2724609375,3.173827886581421,-0.949462890625,0.223388671875,0.0487060546875
5.885,308,705,535,309,-5.0,40.0,48.0,12.451170921325684,2.990722417831421,1.9531248807907104,-1.02880859375,0.23291015625,-0.1138916015625
5.909,309,698,530,310,-3.0,37.0,43.0,12.329100608825684,2.807616949081421,2.50244140625,-1.026611328125,0.20849609375,-0.137939453125
5.909,305,697,526,310,-3.0,37.0,43.0,12.329100608825684,2.807616949081421,2.50244140625,-1.0181884765625,0.208740234375,-0.1314697265625
5.914,309,688,523,308,-3.0,37.0,43.0,6.591796398162842,0.7324218153953552,4.45556640625,-1.0078125,0.22998046875,-0.109130859375
5.920,310,676,523,310,-3.0,37.0,43.0,3.601073980331421,-1.7089842557907104,4.150390625,-0.989990234375,0.2518310546875,-0.0867919921875
5.928,310,668,523,308,-3.0,37.0,43.0,3.601073980331421,-1.7089842557907104,4.150390625,-0.9661865234375,0.2581787109375,-0.0748291015625
5.942,310,659,518,308,-3.0,37.0,43.0,-1.8310545682907104,-3.295898199081421,1.2817381620407104,-0.9488525390625,0.246337890625,-0.0628662109375
5.961,310,653,512,308,-3.0,37.0,43.0,-5.493163585662842,-2.3193359375,0.1220703050494194,-0.9456787109375,0.223876953125,-0.046630859375
5.961,297,648,510,296,-3.0,37.0,43.0,-5.493163585662842,-2.3193359375,0.1220703050494194,-0.955322265625,0.2064208984375,-0.0380859375
5.972,310,638,497,310,-3.0,37.0,43.0,-7.812499523162842,0.3662109076976776,-0.6713866591453552,-0.969970703125,0.2000732421875,-0.0435791015625
6.011,310,634,488,308,-3.0,37.0,43.0,-7.141112804412842,0.9765624403953552,-0.1220703050494194,-0.9805908203125,0.2008056640625,-0.0621337890625
6.011,309,630,483,310,-4.0,39.0,45.0,-7.141112804412842,0.9765624403953552,-0.1220703050494194,-0.9794921875,0.207275390625,-0.081787109375
6.011,309,621,481,309,-4.0,39.0,45.0,-6.713866710662842,-0.30517578125,2.868652105331421,-0.967529296875,0.213623046875,-0.0869140625
6.012,310,618,478,299,-4.0,39.0,45.0,-6.896972179412842,-1.9531248807907104,4.638671875,-0.9581298828125,0.21728515625,-0.075927734375
6.018,308,616,477,308,-4.0,39.0,45.0,-6.896972179412842,-1.9531248807907104,4.638671875,-0.953369140625,0.2198486328125,-0.05859375
6.032,310,607,475,310,-4.0,39.0,45.0,-5.798339366912842,-5.371093273162842,7.141112804412842,-0.94775390625,0.2216796875,-0.044189453125
6.040,309,607,469,310,-4.0,39.0,45.0,-5.065917491912842,-6.591796398162842,8.1787109375,-0.940673828125,0.2235107421875,-0.0367431640625
6.062,310,607,467,310,-4.0,39.0,45.0,-4.638671875,-7.690429210662842,9.58251953125,-0.935302734375,0.22509765625,-0.0384521484375
6.063,296,601,452,310,-4.0,39.0,45.0,-4.45556640625,-8.85009765625,11.230467796325684,-0.931640625,0.2205810546875,-0.0478515625
6.070,309,628,473,310,-4.0,39.0,45.0,-4.45556640625,-10.009765625,13.244627952575684,-0.92578125,0.19970703125,-0.05712890625
6.079,309,648,479,309,-4.0,39.0,45.0,-5.126952648162842,-11.352538108825684,16.05224609375,-0.8919677734375,0.1552734375,-0.05810546875
6.092,308,712,532,310,-2.0,38.0,46.0,-6.286620616912842,-13.183592796325684,20.263669967651367,-0.7867431640625,0.0885009765625,-0.0673828125
6.113,310,778,606,309,-2.0,38.0,46.0,-7.263183116912842,-16.41845703125,25.695798873901367,-0.590576171875,0.0179443359375,-0.1160888671875
6.114,310,873,732,310,-2.0,38.0,46.0,-7.385253429412842,-22.644041061401367,31.005857467651367,-0.2471923828125,-0.077880859375,-0.1982421875
6.156,310,1003,916,310,-2.0,38.0,46.0,-7.568358898162842,-30.761716842651367,35.400390625,0.1478271484375,-0.1826171875,-0.2545166015625
6.157,294,1054,1039,310,-2.0,38.0,46.0,-9.8876953125,-40.527339935302734,40.527339935302734,0.4285888671875,-0.1435546875,-0.1888427734375
6.157,310,1117,1157,297,-2.0,38.0,46.0,-16.41845703125,-56.213375091552734,46.813961029052734,0.47412109375,0.20849609375,0.072021484375
6.157,308,1236,1323,310,-2.0,38.0,46.0,-19.95849609375,-81.60399627685547,40.283199310302734,0.1546630859375,0.6885986328125,0.4910888671875
6.182,310,1313,1412,309,-2.0,38.0,46.0,-0.1831054538488388,-109.43602752685547,11.413573265075684,-0.5826416015625,0.97900390625,0.8155517578125
6.241,308,310,1477,308,-2.0,38.0,46.0,40.344234466552734,-122.07030487060547,-19.1650390625,-1.6343994140625,1.1314697265625,0.659912109375
6.241,308,310,1533,310,-2.0,38.0,46.0,65.61279296875,-106.01805877685547,-27.832029342651367,-2.3785400390625,1.1160888671875,0.0057373046875
6.241,308,310,1509,310,-6.0,33.0,46.0,48.522945404052734,-66.89453125,-24.902341842651367,-2.422119140625,0.6746826171875,-0.4071044921875
6.241,307,310,1469,296,-6.0,33.0,46.0,6.225585460662842,-35.400390625,-31.799314498901367,-2.1131591796875,0.0704345703125,-0.105712890625
6.241,296,308,1478,310,-6.0,33.0,46.0,-14.526366233825684,-29.785154342651367,-38.6962890625,-1.9212646484375,-0.1239013671875,0.35986328125
6.241,306,308,1422,310,-6.0,33.0,46.0,-2.38037109375,-30.639646530151367,-25.329587936401367,-1.7510986328125,-0.056640625,0.5076904296875
6.241,308,310,1397,308,-6.0,33.0,46.0,19.59228515625,-12.268065452575684,-1.3427733182907104,-1.3214111328125,-0.0968017578125,0.2998046875
6.257,308,310,1369,310,-6.0,33.0,46.0,36.68212890625,22.399900436401367,11.535643577575684,-1.03076171875,-0.046142578125,-0.074951171875
6.257,311,1445,1295,310,-6.0,33.0,46.0,39.73388671875,48.950191497802734,11.413573265075684,-1.019287109375,0.2279052734375,-0.241943359375
6.261,310,1443,1289,310,-6.0,33.0,46.0,33.99658203125,57.250972747802734,3.356933355331421,-0.998779296875,0.5338134765625,-0.130615234375
6.274,309,1422,1282,310,-6.0,33.0,46.0,30.517576217651367,56.091304779052734,-14.221190452575684,-1.05126953125,0.780517578125,0.0198974609375
6.281,310,1391,1234,310,-6.0,33.0,46.0,26.000974655151367,51.025386810302734,-39.61181640625,-1.369384765625,0.924560546875,0.1268310546875
6.296,311,1365,1175,311,-5.0,35.0,42.0,14.587401390075684,40.0390625,-64.208984375,-1.7470703125,0.81494140625,0.1614990234375
6.297,310,1336,1108,310,-5.0,35.0,42.0,-2.13623046875,27.465818405151367,-77.81982421875,-1.86181640625,0.5072021484375,0.0885009765625
6.326,310,1250,974,310,-5.0,35.0,42.0,-15.930174827575684,20.446775436401367,-77.1484375,-1.6953125,0.2647705078125,-0.0283203125
6.326,297,1204,886,310,-5.0,35.0,42.0,-18.37158203125,20.935056686401367,-68.359375,-1.4111328125,0.2027587890625,-0.1527099609375
6.327,309,1137,778,310,-5.0,35.0,42.0,-11.169432640075684,27.038572311401367,-59.875484466552734,-1.1719970703125,0.2391357421875,-0.2152099609375
6.341,309,1008,601,310,-5.0,35.0,42.0,-2.929687261581421,32.65380859375,-56.213375091552734,-1.0181884765625,0.203857421875,-0.1690673828125
6.349,311,932,513,310,-5.0,35.0,42.0,0.7324218153953552,34.24072265625,-56.579586029052734,-0.8575439453125,-0.0250244140625,-0.054931640625
6.360,308,837,454,310,-5.0,35.0,42.0,1.6479490995407104,33.50830078125,-58.593746185302734,-0.64892578125,-0.3455810546875,0.031005859375
6.381,309,764,401,309,-5.0,35.0,42.0,4.69970703125,34.36279296875,-57.739253997802734,-0.4168701171875,-0.509521484375,0.0068359375
6.381,310,728,378,311,-5.0,35.0,42.0,8.85009765625,38.87939453125,-48.828121185302734,-0.230712890625,-0.4390869140625,-0.0828857421875
6.388,312,697,368,310,-2.0,38.0,46.0,5.432128429412842,42.236324310302734,-33.0810546875,-0.266357421875,-0.2249755859375,-0.0797119140625
6.401,310,657,371,310,-2.0,38.0,46.0,-5.798339366912842,36.7431640625,-16.7236328125,-0.4736328125,0.0107421875,0.0462646484375
6.422,308,638,370,310,-2.0,38.0,46.0,-14.587401390075684,26.184080123901367,-3.967284917831421,-0.64306640625,0.184814453125,0.1209716796875
6.422,310,607,372,310,-2.0,38.0,46.0,-19.1650390625,20.324705123901367,6.713866710662842,-0.7412109375,0.3172607421875,0.072509765625
6.437,310,587,377,310,-2.0,38.0,46.0,-25.390623092651367,19.10400390625,16.9677734375,-0.840087890625,0.3553466796875,0.04833984375
6.439,308,587,373,309,-2.0,38.0,46.0,-32.958984375,16.41845703125,23.132322311401367,-0.840087890625,0.3553466796875,0.04833984375
6.447,309,579,373,309,-2.0,38.0,46.0,-36.07177734375,11.657713890075684,21.545408248901367,-0.80517578125,0.19580078125,0.107666015625
6.464,308,579,379,309,-2.0,38.0,46.0,-30.273435592651367,8.97216796875,15.258788108825684,-0.9217529296875,0.1209716796875,-0.01416015625
6.469,308,575,379,309,-2.0,38.0,46.0,-17.2119140625,9.1552734375,11.108397483825684,-0.9217529296875,0.1209716796875,-0.01416015625
6.477,309,562,380,310,-2.0,38.0,46.0,-2.868652105331421,9.09423828125,10.498045921325684,-1.0142822265625,0.2100830078125,-0.0999755859375
6.491,309,548,382,308,-1.0,38.0,42.0,6.530761241912842,6.958007335662842,10.253905296325684,-1.0430908203125,0.2177734375,-0.1453857421875
6.524,310,543,384,309,-1.0,38.0,42.0,8.85009765625,4.150390625,8.97216796875,-1.0430908203125,0.2177734375,-0.1453857421875
6.525,309,525,382,310,-1.0,38.0,42.0,7.019042491912842,2.38037109375,8.30078125,-1.01611328125,0.167724609375,-0.125244140625
6.525,309,548,384,310,-1.0,38.0,42.0,0.9765624403953552,-0.2441406100988388,10.192870140075684,-0.9371337890625,0.1346435546875,-0.08447265625
6.565,310,548,384,309,-1.0,38.0,42.0,0.9765624403953552,-0.2441406100988388,10.192870140075684,-0.92431640625,0.1697998046875,-0.0869140625
6.565,296,552,371,294,-1.0,38.0,42.0,-3.906249761581421,-2.685546636581421,10.864256858825684,-0.92431640625,0.1697998046875,-0.0869140625
6.566,310,562,386,310,-1.0,38.0,42.0,-7.995604991912842,-5.859374523162842,10.314940452575684,-0.930419921875,0.1934814453125,-0.072509765625
6.586,310,577,385,310,-1.0,38.0,42.0,-8.4228515625,-8.72802734375,9.33837890625,-0.95751953125,0.190185546875,-0.0059814453125
6.594,308,577,387,309,-1.0,38.0,42.0,-5.493163585662842,-10.131834983825684,9.33837890625,-0.964599609375,0.1845703125,-0.01708984375
6.594,310,578,390,309,-1.0,38.0,42.0,-4.2724609375,-9.521484375,10.192870140075684,-0.964599609375,0.1845703125,-0.01708984375
6.606,309,586,396,311,-1.0,38.0,45.0,-9.94873046875,-7.873534679412842,12.817381858825684,-0.9696044921875,0.14501953125,-0.0159912109375
6.623,310,587,400,308,-1.0,38.0,45.0,-9.94873046875,-7.873534679412842,12.817381858825684,-0.9681396484375,0.1436767578125,-0.0174560546875
6.627,308,590,410,308,-1.0,38.0,45.0,-9.8876953125,-8.056640625,14.465331077575684,-0.9681396484375,0.1436767578125,-0.0174560546875
6.635,310,310,420,308,-1.0,38.0,45.0,-5.065917491912842,-8.48388671875,16.9677734375,-0.957763671875,0.189208984375,-0.0386962890625
6.636,308,309,424,308,-1.0,38.0,45.0,-5.065917491912842,-8.48388671875,16.9677734375,-0.94873046875,0.20166015625,-0.04150390625
6.638,310,309,426,308,-1.0,38.0,45.0,-4.39453125,-8.7890625,17.39501953125,-0.94873046875,0.20166015625,-0.04150390625
6.669,308,310,435,310,-1.0,38.0,45.0,-6.774901866912842,-9.27734375,18.49365234375,-0.9144287109375,0.1734619140625,-0.025634765625
6.669,310,308,439,308,-1.0,38.0,45.0,-6.774901866912842,-9.27734375,18.49365234375,-0.8853759765625,0.150146484375,-0.0198974609375
6.669,309,310,441,308,-1.0,38.0,45.0,-7.690429210662842,-9.1552734375,20.141599655151367,-0.8853759765625,0.150146484375,-0.0198974609375
6.681,308,310,456,308,-3.0,35.0,42.0,-5.676269054412842,-10.375975608825684,26.123044967651367,-0.7264404296875,0.0960693359375,-0.044677734375
6.689,308,309,467,308,-3.0,35.0,42.0,-5.676269054412842,-10.375975608825684,26.123044967651367,-0.534912109375,0.0640869140625,-0.0760498046875
6.733,308,654,516,310,-3.0,35.0,42.0,-3.234863042831421,-12.817381858825684,30.212400436401367,-0.534912109375,0.0640869140625,-0.0760498046875
6.734,311,309,695,310,-3.0,35.0,42.0,-6.469726085662842,-25.756834030151367,44.616695404052734,0.2569580078125,0.0963134765625,0.01953125
6.734,309,1123,803,311,-3.0,35.0,42.0,-21.972654342651367,-36.92626953125,48.767086029052734,0.693603515625,0.1708984375,0.2220458984375
6.734,296,1213,943,310,-3.0,35.0,42.0,-21.972654342651367,-36.92626953125,48.767086029052734,0.572265625,0.394775390625,0.4544677734375
6.741,308,1357,1191,310,-3.0,35.0,42.0,-40.771480560302734,-77.7587890625,9.09423828125,-0.349853515625,0.6873779296875,0.5745849609375
6.749,311,1403,1306,311,-3.0,35.0,42.0,4.57763671875,-89.41649627685547,-27.282712936401367,-1.650146484375,0.88427734375,0.309326171875
6.757,308,308,1393,310,-3.0,35.0,42.0,4.57763671875,-89.41649627685547,-27.282712936401367,-2.4185791015625,0.900634765625,-0.2979736328125
6.778,310,1524,1470,310,-3.0,35.0,42.0,69.4580078125,-47.668453216552734,-39.6728515625,-2.413818359375,0.5648193359375,-0.58447265625
6.780,296,309,1492,310,-3.0,35.0,42.0,40.466304779052734,-30.822751998901367,-41.931148529052734,-2.0535888671875,-0.00439453125,-0.305419921875
6.791,309,1528,1506,310,-3.0,35.0,48.0,40.466304779052734,-30.822751998901367,-41.931148529052734,-1.7744140625,-0.3875732421875,0.034912109375
6.820,310,1569,1490,312,-3.0,35.0,48.0,0.2441406100988388,-21.118162155151367,-36.0107421875,-1.795654296875,-0.3272705078125,0.1285400390625
6.829,308,1561,1445,310,-3.0,35.0,48.0,-3.540038824081421,-12.145995140075684,-14.648436546325684,-1.7244873046875,0.039306640625,0.1685791015625
6.829,297,1518,1395,311,-3.0,35.0,48.0,-3.540038824081421,-12.145995140075684,-14.648436546325684,-1.2662353515625,0.3323974609375,0.265380859375
6.836,311,1513,1260,310,-3.0,35.0,48.0,-2.929687261581421,12.390135765075684,9.6435546875,-0.8656005859375,0.4285888671875,0.3262939453125
6.839,309,1513,1216,310,-3.0,35.0,48.0,-4.638671875,29.968259811401367,1.4648436307907104,-0.84375,0.3525390625,0.2794189453125
6.847,312,1511,1183,310,-3.0,35.0,48.0,-4.638671875,29.968259811401367,1.4648436307907104,-1.1544189453125,0.2506103515625,0.1712646484375
6.861,310,1471,1129,310,-3.0,35.0,48.0,-1.9531248807907104,45.043941497802734,-13.244627952575684,-1.6512451171875,0.33837890625,0.130615234375
6.871,310,1445,1050,310,-3.0,35.0,48.0,5.126952648162842,35.33935546875,-7.507323741912842,-1.8895263671875,0.504638671875,0.1273193359375
6.877,310,1406,959,310,-3.0,35.0,48.0,7.019042491912842,26.123044967651367,-0.0610351525247097,-1.7392578125,0.509765625,0.0811767578125
6.891,310,1338,790,310,-4.0,38.0,42.0,0.0,26.123044967651367,1.5258787870407104,-1.45947265625,0.335693359375,-0.0350341796875
6.899,310,1275,716,310,-4.0,38.0,42.0,-8.056640625,36.31591796875,0.6713866591453552,-1.2586669921875,0.1781005859375,-0.1627197265625
6.933,310,1225,654,310,-4.0,38.0,42.0,-10.253905296325684,48.095699310302734,4.2724609375,-1.1607666015625,0.1517333984375,-0.1873779296875
6.933,310,1125,567,309,-4.0,38.0,42.0,-9.1552734375,52.307125091552734,11.352538108825684,-1.0804443359375,0.1690673828125,-0.1031494140625
6.934,310,1066,503,310,-4.0,38.0,42.0,-7.324218273162842,48.339839935302734,14.282225608825684,-0.918701171875,0.06689453125,-0.0152587890625
6.939,310,989,456,310,-4.0,38.0,42.0,-4.69970703125,41.748043060302734,8.544921875,-0.70166015625,-0.1263427734375,-0.029052734375
6.951,309,865,408,310,-4.0,38.0,42.0,-1.8920897245407104,37.4755859375,-2.685546636581421,-0.523681640625,-0.189453125,-0.1270751953125
6.959,309,822,387,310,-4.0,38.0,42.0,-0.4882812201976776,36.1328125,-12.023924827575684,-0.3853759765625,-0.08935546875,-0.2060546875
6.967,310,790,384,309,-4.0,38.0,42.0,-4.94384765625,35.21728515625,-16.6015625,-0.3460693359375,0.037109375,-0.1754150390625
6.982,310,725,383,310,-1.0,35.0,39.0,-15.319823265075684,30.578611373901367,-17.9443359375,-0.4638671875,0.137451171875,-0.0281982421875
6.989,308,707,384,308,-1.0,35.0,39.0,-23.925779342651367,22.460935592651367,-17.7001953125,-0.61376953125,0.222412109375,0.0902099609375
7.000,310,689,382,310,-1.0,35.0,39.0,-25.268552780151367,17.4560546875,-14.526366233825684,-0.7061767578125,0.3409423828125,0.06591796875
7.022,310,632,382,308,-1.0,35.0,39.0,-23.864744186401367,16.6015625,-7.690429210662842,-0.7725830078125,0.4775390625,0.0126953125
7.040,310,616,385,310,-1.0,35.0,39.0,-24.902341842651367,14.282225608825684,-2.38037109375,-0.7974853515625,0.4892578125,0.0543212890625
7.041,308,607,391,308,-1.0,35.0,39.0,-26.245115280151367,9.70458984375,-3.784179449081421,-0.7713623046875,0.3525390625,0.13720703125
7.041,308,601,390,309,-1.0,35.0,39.0,-22.644041061401367,6.591796398162842,-9.58251953125,-0.7662353515625,0.2113037109375,0.162841796875
7.050,310,606,393,310,-1.0,35.0,39.0,-13.244627952575684,6.103515148162842,-13.793944358825684,-0.8250732421875,0.146240234375,0.104248046875
7.057,310,613,394,310,-1.0,35.0,39.0,-2.01416015625,6.530761241912842,-13.916014671325684,-0.9197998046875,0.1341552734375,0.0025634765625
7.071,309,612,393,309,-1.0,35.0,39.0,6.958007335662842,5.859374523162842,-10.742186546325684,-1.000732421875,0.138671875,-0.0830078125
7.079,310,614,396,310,-1.0,40.0,48.0,12.451170921325684,3.723144292831421,-6.286620616912842,-1.028076171875,0.131103515625,-0.1331787109375
7.089,309,618,393,310,-1.0,40.0,48.0,14.648436546325684,1.5258787870407104,-2.44140625,-1.0108642578125,0.11376953125,-0.152099609375
7.101,309,622,396,310,-1.0,40.0,48.0,13.122557640075684,-0.1220703050494194,0.9765624403953552,-0.982666015625,0.119873046875,-0.1348876953125
7.139,310,629,399,310,-1.0,40.0,48.0,7.751464366912842,-1.5258787870407104,4.21142578125,-0.9656982421875,0.1519775390625,-0.08642578125
7.142,308,309,395,310,-1.0,40.0,48.0,0.7934569716453552,-2.624511480331421,6.835937023162842,-0.955078125,0.174560546875,-0.037841796875
7.142,308,295,385,307,-1.0,40.0,48.0,-5.310058116912842,-3.112792730331421,8.36181640625,-0.9510498046875,0.1793212890625,-0.0167236328125
7.143,308,294,387,310,-1.0,40.0,48.0,-8.6669921875,-3.295898199081421,8.85009765625,-0.958740234375,0.1865234375,-0.01904296875
7.147,308,308,411,308,-1.0,40.0,48.0,-9.1552734375,-3.540038824081421,8.544921875,-0.96923828125,0.1961669921875,-0.0294189453125
7.161,310,647,420,309,-1.0,40.0,48.0,-8.056640625,-3.723144292831421,8.23974609375,-0.974609375,0.19384765625,-0.0406494140625
7.169,309,654,423,309,-1.0,40.0,48.0,-7.141112804412842,-3.723144292831421,8.97216796875,-0.976318359375,0.18359375,-0.0498046875
7.182,309,660,426,310,-4.0,36.0,43.0,-6.530761241912842,-3.784179449081421,10.803221702575684,-0.97607421875,0.17822265625,-0.05224609375
7.191,307,309,437,308,-4.0,36.0,43.0,-5.432128429412842,-4.21142578125,12.878417015075684,-0.9686279296875,0.18603515625,-0.046142578125
7.199,308,310,441,310,-4.0,36.0,43.0,-4.33349609375,-4.82177734375,14.282225608825684,-0.9686279296875,0.18603515625,-0.046142578125
7.207,308,308,449,310,-4.0,36.0,43.0,-3.601073980331421,-5.737304210662842,15.136717796325684,-0.96875,0.201416015625,-0.0484619140625
7.241,309,665,455,309,-4.0,36.0,43.0,-3.295898199081421,-6.958007335662842,15.686034202575684,-0.9869384765625,0.2520751953125,-0.0526123046875
7.241,308,310,456,308,-4.0,36.0,43.0,-3.051757574081421,-8.6669921875,15.869139671325684,-0.9869384765625,0.2520751953125,-0.0526123046875
7.241,308,308,465,307,-4.0,36.0,43.0,-2.746581792831421,-10.620116233825684,15.197752952575684,-0.982421875,0.2567138671875,-0.0394287109375
7.251,308,308,473,309,-4.0,36.0,43.0,-2.990722417831421,-12.145995140075684,14.160155296325684,-0.9481201171875,0.1920166015625,-0.017333984375
7.259,308,309,476,310,-4.0,36.0,43.0,-4.08935546875,-12.817381858825684,13.854979515075684,-0.9481201171875,0.1920166015625,-0.017333984375
7.268,308,309,480,308,-4.0,36.0,43.0,-5.554198741912842,-12.756346702575684,15.380858421325684,-0.8931884765625,0.12939453125,-0.0244140625
7.284,308,310,525,309,-2.0,38.0,43.0,-6.774901866912842,-12.329100608825684,19.287109375,-0.6025390625,0.0169677734375,-0.052734375
7.290,308,858,572,310,-2.0,38.0,43.0,-7.629394054412842,-12.634276390075684,24.719236373901367,-0.6025390625,0.0169677734375,-0.052734375
7.298,309,309,622,308,-2.0,38.0,43.0,-7.934569835662842,-14.465331077575684,29.602048873901367,-0.349609375,-0.0074462890625,-0.060546875
7.311,310,1078,693,309,-2.0,38.0,43.0,-7.873534679412842,-18.61572265625,33.203125,0.3463134765625,0.2113037109375,0.1385498046875
7.323,310,1160,756,308,-2.0,38.0,43.0,-11.535643577575684,-26.245115280151367,33.99658203125,0.3463134765625,0.2113037109375,0.1385498046875
7.355,310,1243,858,310,-2.0,38.0,43.0,-22.399900436401367,-38.9404296875,25.573728561401367,0.5479736328125,0.3214111328125,0.447021484375
7.355,310,1381,1160,309,-2.0,38.0,43.0,-19.4091796875,-69.4580078125,-14.099120140075684,-0.6142578125,0.376953125,0.4849853515625
7.356,296,1434,1243,310,-2.0,38.0,43.0,-19.4091796875,-69.4580078125,-14.099120140075684,-1.7252197265625,0.7899169921875,0.11669921875
7.357,310,1478,1300,310,-2.0,38.0,43.0,15.441893577575684,-77.08740234375,-16.6015625,-1.7252197265625,0.7899169921875,0.11669921875
7.371,310,1531,1361,310,-2.0,38.0,43.0,49.072261810302734,-43.701168060302734,-10.559081077575684,-1.985107421875,0.9736328125,-0.6658935546875
7.382,310,1555,1383,310,-4.0,35.0,45.0,49.072261810302734,-43.701168060302734,-10.559081077575684,-1.7347412109375,0.2947998046875,-0.4498291015625
7.387,308,1569,1413,311,-4.0,35.0,45.0,8.9111328125,-27.526853561401367,-34.72900390625,-1.7347412109375,0.2947998046875,-0.4498291015625
7.469,310,1588,1419,310,-4.0,35.0,45.0,-22.155759811401367,-30.578611373901367,-62.255855560302734,-2.1109619140625,-0.2879638671875,0.16845703125
7.472,310,1588,1375,311,-4.0,35.0,45.0,-22.155759811401367,-30.578611373901367,-62.255855560302734,-1.8929443359375,0.0523681640625,0.2652587890625
7.472,298,1583,1336,309,-4.0,35.0,45.0,-6.530761241912842,-32.28759765625,-44.067378997802734,-1.8929443359375,0.0523681640625,0.2652587890625
7.472,310,1567,1225,310,-4.0,35.0,45.0,5.981444835662842,-7.202147960662842,-19.34814453125,-0.9329833984375,0.2457275390625,0.1142578125
7.472,310,1546,1131,310,-4.0,35.0,45.0,5.981444835662842,-7.202147960662842,-19.34814453125,-0.900146484375,0.2835693359375,0.1171875
7.472,305,1559,1078,295,-4.0,35.0,45.0,4.8828125,9.82666015625,-21.728513717651367,-0.900146484375,0.2835693359375,0.1171875
7.472,309,1543,1088,309,-4.0,35.0,45.0,5.126952648162842,24.291990280151367,-28.198240280151367,-1.4620361328125,0.35302734375,0.3271484375
7.472,297,1486,1020,310,-4.0,35.0,45.0,5.126952648162842,24.291990280151367,-28.198240280151367,-1.808349609375,0.4139404296875,0.4158935546875
7.477,310,1484,976,310,-1.0,35.0,51.0,7.385253429412842,22.949216842651367,-23.620603561401367,-1.808349609375,0.4139404296875,0.4158935546875
7.491,310,1416,852,310,-1.0,35.0,51.0,1.03759765625,29.296873092651367,-5.798339366912842,-1.55810546875,0.175048828125,0.2000732421875
7.500,310,1369,775,309,-1.0,35.0,51.0,-0.54931640625,41.931148529052734,3.295898199081421,-1.352783203125,-0.0052490234375,0.018798828125
7.507,310,1334,705,310,-1.0,35.0,51.0,-0.54931640625,41.931148529052734,3.295898199081421,-1.199951171875,-0.0501708984375,-0.102294921875
7.524,310,1257,592,310,-1.0,35.0,51.0,14.831542015075684,62.927242279052734,32.8369140625,-1.019287109375,0.041748046875,-0.1507568359375
7.554,310,1206,533,310,-1.0,35.0,51.0,17.27294921875,57.983394622802734,42.175289154052734,-0.8282470703125,0.2119140625,-0.14404296875
7.554,310,1145,490,310,-1.0,35.0,51.0,17.27294921875,57.983394622802734,42.175289154052734,-0.6700439453125,0.313232421875,-0.0887451171875
7.554,309,1038,428,310,-1.0,35.0,51.0,6.652831554412842,32.1044921875,10.192870140075684,-0.56201171875,0.2115478515625,-0.0751953125
7.564,306,974,402,309,-1.0,35.0,51.0,1.7089842557907104,28.320310592651367,-17.2119140625,-0.5400390625,0.0638427734375,-0.161376953125
7.567,298,922,386,308,-1.0,35.0,51.0,1.7089842557907104,28.320310592651367,-17.2119140625,-0.5433349609375,0.0423583984375,-0.247802734375
7.581,309,854,382,310,0.0,38.0,43.0,-7.812499523162842,33.38623046875,-35.888671875,-0.539794921875,0.115966796875,-0.24365234375
7.591,310,814,380,310,0.0,38.0,43.0,-18.37158203125,31.066892623901367,-31.311033248901367,-0.599365234375,0.1986083984375,-0.1201171875
7.597,310,780,384,312,0.0,38.0,43.0,-18.37158203125,31.066892623901367,-31.311033248901367,-0.6796875,0.210693359375,0.0457763671875
7.611,310,749,382,308,0.0,38.0,43.0,-32.71484375,16.2353515625,-27.404783248901367,-0.734619140625,0.20361328125,0.107421875
7.626,310,739,384,308,0.0,38.0,43.0,-29.418943405151367,13.732909202575684,-24.658201217651367,-0.77001953125,0.251220703125,0.0853271484375
7.627,309,711,386,309,0.0,38.0,43.0,-29.418943405151367,13.732909202575684,-24.658201217651367,-0.7901611328125,0.2880859375,0.0850830078125
7.650,310,684,384,308,0.0,38.0,43.0,-19.6533203125,11.291502952575684,-14.953612327575684,-0.788818359375,0.2410888671875,0.115234375
7.656,310,677,386,308,0.0,38.0,43.0,-15.991209983825684,9.09423828125,-13.610838890075684,-0.7972412109375,0.1541748046875,0.1328125
7.657,310,673,384,309,0.0,38.0,43.0,-12.023924827575684,6.713866710662842,-12.084959983825684,-0.8548583984375,0.095703125,0.1268310546875
7.676,309,673,385,310,0.0,38.0,43.0,-5.615233898162842,4.33349609375,-8.23974609375,-0.9293212890625,0.0673828125,0.091796875
7.679,309,683,387,308,-1.0,39.0,44.0,2.685546636581421,3.234863042831421,-3.112792730331421,-0.978271484375,0.052978515625,0.0189208984375
7.709,310,683,383,309,-1.0,39.0,44.0,10.375975608825684,4.0283203125,1.7700194120407104,-1.0032958984375,0.0546875,-0.067138671875
7.723,308,694,391,309,-1.0,39.0,44.0,14.221190452575684,4.94384765625,6.225585460662842,-1.0064697265625,0.0704345703125,-0.1231689453125
7.727,309,695,394,309,-1.0,39.0,44.0,13.061522483825684,4.39453125,10.681151390075684,-0.9912109375,0.0999755859375,-0.1324462890625
7.741,310,698,393,310,-1.0,39.0,44.0,8.36181640625,1.8310545682907104,14.831542015075684,-0.9737548828125,0.14111328125,-0.0999755859375
7.741,310,703,401,309,-1.0,39.0,44.0,3.540038824081421,-1.8310545682907104,17.08984375,-0.961181640625,0.18701171875,-0.0550537109375
7.753,309,710,407,309,-1.0,39.0,44.0,1.15966796875,-4.5166015625,16.66259765625,-0.955810546875,0.2296142578125,-0.03564453125
7.753,308,710,410,310,-1.0,39.0,44.0,0.30517578125,-5.249022960662842,14.099120140075684,-0.9571533203125,0.2493896484375,-0.0413818359375
7.765,308,721,413,310,-1.0,39.0,44.0,-1.03759765625,-4.7607421875,10.864256858825684,-0.95703125,0.2349853515625,-0.0531005859375
7.770,310,725,421,310,-1.0,39.0,44.0,-2.929687261581421,-4.2724609375,8.36181640625,-0.9532470703125,0.204345703125,-0.0574951171875
7.777,310,731,425,309,-3.0,38.0,38.0,-4.33349609375,-4.57763671875,7.263183116912842,-0.9476318359375,0.1787109375,-0.044677734375
7.795,310,745,426,308,-3.0,38.0,38.0,-4.8828125,-5.554198741912842,7.507323741912842,-0.942138671875,0.1641845703125,-0.0242919921875
7.799,308,754,430,309,-3.0,38.0,38.0,-4.57763671875,-6.530761241912842,8.7890625,-0.940673828125,0.1591796875,-0.013671875
7.807,309,758,435,309,-3.0,38.0,38.0,-3.662109136581421,-7.019042491912842,10.681151390075684,-0.9464111328125,0.1602783203125,-0.017578125
7.821,309,778,439,308,-3.0,38.0,38.0,-2.563476324081421,-7.507323741912842,12.512206077575684,-0.958740234375,0.1724853515625,-0.033447265625
7.830,310,780,444,309,-3.0,38.0,38.0,-1.4038084745407104,-8.60595703125,13.793944358825684,-0.9769287109375,0.1956787109375,-0.044921875
7.853,309,794,451,310,-3.0,38.0,38.0,-0.6103515625,-10.559081077575684,14.465331077575684,-0.9893798828125,0.2149658203125,-0.037353515625
7.853,309,810,467,310,-3.0,38.0,38.0,-0.7934569716453552,-12.451170921325684,14.892577171325684,-0.9869384765625,0.218505859375,-0.01806640625
7.859,310,816,475,310,-3.0,38.0,38.0,-1.8310545682907104,-13.610838890075684,15.441893577575684,-0.9737548828125,0.2059326171875,0.0047607421875
7.872,310,823,477,310,-3.0,38.0,38.0,-2.990722417831421,-14.099120140075684,16.6015625,-0.9462890625,0.18408203125,0.0262451171875
7.881,310,853,476,309,-2.0,37.0,47.0,-3.295898199081421,-14.221190452575684,18.798828125,-0.8992919921875,0.1649169921875,0.0419921875
7.889,310,878,473,310,-2.0,37.0,47.0,-2.38037109375,-14.221190452575684,21.667478561401367,-0.815673828125,0.14599609375,0.057373046875
7.904,310,916,453,309,-2.0,37.0,47.0,-0.54931640625,-14.831542015075684,24.536130905151367,-0.7093505859375,0.145263671875,0.07275390625
7.911,310,982,437,309,-2.0,37.0,47.0,1.4648436307907104,-16.66259765625,26.428220748901367,-0.606201171875,0.18359375,0.1038818359375
7.919,310,1026,441,310,-2.0,37.0,47.0,3.601073980331421,-20.01953125,25.390623092651367,-0.5155029296875,0.2403564453125,0.154052734375
7.933,310,1092,457,310,-2.0,37.0,47.0,6.530761241912842,-24.414060592651367,19.8974609375,-0.4127197265625,0.264892578125,0.2403564453125
7.956,310,1228,660,310,-2.0,37.0,47.0,10.620116233825684,-28.869626998901367,11.840819358825684,-0.254638671875,0.1961669921875,0.4051513671875
7.957,310,1316,923,309,-2.0,37.0,47.0,16.9677734375,-32.89794921875,5.737304210662842,-0.12109375,0.0325927734375,0.5853271484375
7.957,310,1369,1071,309,-2.0,37.0,47.0,32.5927734375,-36.865234375,6.713866710662842,-0.17333984375,-0.1759033203125,0.557861328125
7.977,310,1470,1271,310,-5.0,37.0,49.0,68.4814453125,-37.109375,18.310546875,-1.0164794921875,0.181396484375,-0.4296875
7.980,309,1516,1338,311,-5.0,37.0,49.0,115.17333221435547,-30.151365280151367,37.59765625,-1.0164794921875,0.181396484375,-0.4296875
7.987,310,1543,1383,311,-5.0,37.0,49.0,136.1083984375,-22.766111373901367,49.072261810302734,-1.3057861328125,0.7874755859375,-0.751953125
8.002,310,1596,1458,310,-5.0,37.0,49.0,107.66600799560547,-20.080564498901367,38.26904296875,-1.58349609375,0.6541748046875,-0.551025390625
8.014,310,1611,1487,312,-5.0,37.0,49.0,46.691890716552734,-20.751951217651367,13.793944358825684,-1.58349609375,0.6541748046875,-0.551025390625
8.017,310,1627,1514,311,-5.0,37.0,49.0,-7.019042491912842,-27.648923873901367,-7.873534679412842,-1.9254150390625,0.387939453125,-0.2227783203125
8.036,310,1610,1468,310,-5.0,37.0,49.0,-28.686521530151367,-37.17041015625,-18.310546875,-2.0965576171875,0.5487060546875,0.2176513671875
8.039,310,1607,1424,310,-5.0,37.0,49.0,-30.456541061401367,-40.710445404052734,-19.6533203125,-2.0965576171875,0.5487060546875,0.2176513671875
8.059,310,1598,1390,312,-5.0,37.0,49.0,-31.494138717651367,-33.26416015625,-22.460935592651367,-1.5537109375,0.310791015625,0.209228515625
8.064,296,1559,1275,310,-5.0,37.0,49.0,-27.648923873901367,-13.854979515075684,-28.442380905151367,-0.9393310546875,0.0540771484375,-0.078125
8.069,309,1519,1196,310,-5.0,37.0,49.0,-11.535643577575684,7.263183116912842,-31.127927780151367,-0.9393310546875,0.0540771484375,-0.078125
8.083,310,1518,1162,311,-4.0,37.0,45.0,8.85009765625,17.76123046875,-31.005857467651367,-0.9781494140625,0.20361328125,-0.0546875
8.091,309,1511,1153,311,-4.0,37.0,45.0,18.798828125,17.15087890625,-32.89794921875,-1.3822021484375,0.4283447265625,0.1165771484375
8.100,310,1483,1129,310,-4.0,37.0,45.0,15.258788108825684,11.657713890075684,-36.68212890625,-1.7822265625,0.513427734375,0.2449951171875
8.108,310,1454,1078,310,-4.0,37.0,45.0,5.065917491912842,3.601073980331421,-36.865234375,-1.7822265625,0.513427734375,0.2449951171875
8.127,309,1392,946,310,-4.0,37.0,45.0,-18.85986328125,0.2441406100988388,-23.315427780151367,-1.4908447265625,0.3399658203125,0.2393798828125
8.129,311,1345,861,310,-4.0,37.0,45.0,-18.85986328125,0.2441406100988388,-23.315427780151367,-1.2210693359375,0.1627197265625,0.0196533203125
8.138,309,1292,766,310,-4.0,37.0,45.0,-24.475095748901367,12.695311546325684,-20.141599655151367,-1.2210693359375,0.1627197265625,0.0196533203125
8.163,310,1204,636,310,-4.0,37.0,45.0,-17.822265625,41.687007904052734,-4.45556640625,-1.029052734375,0.01513671875,-0.142822265625
8.163,309,1140,579,310,-4.0,37.0,45.0,-17.822265625,41.687007904052734,-4.45556640625,-0.94873046875,-0.0074462890625,-0.0177001953125
8.167,309,1082,527,310,-4.0,37.0,45.0,-18.4326171875,44.799800872802734,9.46044921875,-0.94873046875,-0.0074462890625,-0.0177001953125
8.181,310,982,455,310,-2.0,36.0,47.0,-11.596678733825684,41.809078216552734,19.95849609375,-0.618896484375,-0.1304931640625,0.0908203125
8.190,308,923,433,309,-2.0,36.0,47.0,-11.596678733825684,41.809078216552734,19.95849609375,-0.480712890625,-0.0721435546875,0.0067138671875
8.197,308,875,420,310,-2.0,36.0,47.0,-5.065917491912842,41.870113372802734,16.6015625,-0.480712890625,-0.0721435546875,0.0067138671875
8.211,310,838,406,308,-2.0,36.0,47.0,-9.21630859375,37.353515625,2.01416015625,-0.3768310546875,0.1259765625,-0.092041015625
8.219,310,818,399,310,-2.0,36.0,47.0,-9.21630859375,37.353515625,2.01416015625,-0.5421142578125,0.183837890625,-0.019287109375
8.227,309,805,400,310,-2.0,36.0,47.0,-20.446775436401367,31.433103561401367,-5.0048828125,-0.5421142578125,0.183837890625,-0.019287109375
8.254,310,782,399,310,-2.0,36.0,47.0,-26.916501998901367,16.66259765625,-8.544921875,-0.8240966796875,0.2718505859375,0.032470703125
8.262,310,778,407,310,-2.0,36.0,47.0,-19.287109375,14.770506858825684,-3.967284917831421,-0.8447265625,0.35791015625,-0.036865234375
8.262,310,766,410,310,-2.0,36.0,47.0,-19.287109375,14.770506858825684,-3.967284917831421,-0.8203125,0.414794921875,-0.0377197265625
8.271,310,766,409,310,-3.0,37.0,44.0,-14.465331077575684,9.6435546875,3.601073980331421,-0.8018798828125,0.3719482421875,0.0509033203125
8.279,309,763,411,310,-3.0,37.0,44.0,-13.488768577575684,4.0283203125,0.2441406100988388,-0.8172607421875,0.2998046875,0.12548828125
8.287,312,763,417,309,-3.0,37.0,44.0,-13.488768577575684,4.0283203125,0.2441406100988388,-0.865234375,0.26025390625,0.1148681640625
8.303,308,758,424,310,-3.0,37.0,44.0,-0.4882812201976776,-0.6103515625,-6.713866710662842,-0.9296875,0.2220458984375,0.0457763671875
8.311,308,758,426,310,-3.0,37.0,44.0,5.859374523162842,0.8544921278953552,-8.11767578125,-0.985595703125,0.17138671875,-0.0321044921875
8.317,308,762,423,309,-3.0,37.0,44.0,5.859374523162842,0.8544921278953552,-8.11767578125,-1.0111083984375,0.1409912109375,-0.0848388671875
8.331,309,762,420,309,-3.0,37.0,44.0,8.11767578125,3.295898199081421,-2.929687261581421,-1.0098876953125,0.1441650390625,-0.0885009765625
8.343,309,762,424,308,-3.0,37.0,44.0,5.0048828125,2.25830078125,0.9155272841453552,-0.994873046875,0.1641845703125,-0.04833984375
8.361,309,763,425,308,-3.0,37.0,44.0,5.0048828125,2.25830078125,0.9155272841453552,-0.977294921875,0.1781005859375,-0.0062255859375
8.364,308,763,425,308,-3.0,37.0,44.0,-0.30517578125,-0.1220703050494194,4.8828125,-0.96142578125,0.1734619140625,0.00927734375
8.372,309,766,427,310,-1.0,38.0,46.0,-1.4648436307907104,0.6103515625,6.225585460662842,-0.94921875,0.1591796875,-0.001953125
8.377,310,770,430,310,-1.0,38.0,46.0,-1.4648436307907104,0.6103515625,6.225585460662842,-0.9537353515625,0.162841796875,-0.0230712890625
8.391,308,770,435,309,-1.0,38.0,46.0,-1.8920897245407104,1.7700194120407104,9.09423828125,-0.9696044921875,0.189697265625,-0.035888671875
8.404,310,767,437,309,-1.0,38.0,46.0,-1.220703125,1.220703125,9.70458984375,-0.9808349609375,0.216552734375,-0.042724609375
8.410,310,770,438,308,-1.0,38.0,46.0,-1.2817381620407104,1.15966796875,9.82666015625,-0.9853515625,0.228759765625,-0.04833984375
8.421,309,764,442,310,-1.0,38.0,46.0,-2.563476324081421,1.4648436307907104,9.8876953125,-0.986328125,0.230712890625,-0.049560546875
8.430,308,758,447,309,-1.0,38.0,46.0,-4.0283203125,1.4648436307907104,10.192870140075684,-0.987548828125,0.231689453125,-0.0433349609375
8.437,309,751,449,309,-1.0,38.0,46.0,-4.5166015625,0.7324218153953552,10.437010765075684,-0.9886474609375,0.2322998046875,-0.0343017578125
8.454,310,739,447,310,-1.0,38.0,46.0,-4.21142578125,0.0,10.375975608825684,-0.9903564453125,0.2320556640625,-0.0318603515625
8.468,310,724,449,310,-1.0,38.0,46.0,-4.2724609375,-0.4882812201976776,10.314940452575684,-0.9971923828125,0.2308349609375,-0.035888671875
8.469,310,707,440,309,-1.0,37.0,44.0,-5.0048828125,-0.7934569716453552,10.803221702575684,-1.01123046875,0.2257080078125,-0.039306640625
8.483,308,697,415,309,-1.0,37.0,44.0,-6.225585460662842,-1.15966796875,12.329100608825684,-1.0177001953125,0.2021484375,-0.0413818359375
8.490,308,698,407,310,-1.0,37.0,44.0,-7.812499523162842,-1.220703125,15.624999046325684,-1.0025634765625,0.1571044921875,-0.0546875
8.498,310,705,393,309,-1.0,37.0,44.0,-11.352538108825684,-0.4272460639476776,21.118162155151367,-0.962890625,0.097412109375,-0.0699462890625
8.514,310,741,370,308,-1.0,37.0,44.0,-17.9443359375,1.220703125,28.625486373901367,-0.8997802734375,0.041259765625,-0.0809326171875
8.519,308,780,369,309,-1.0,37.0,44.0,-26.000974655151367,3.479003667831421,37.841796875,-0.8133544921875,0.0404052734375,-0.0872802734375
8.528,308,840,371,310,-1.0,37.0,44.0,-32.958984375,5.187987804412842,47.668453216552734,-0.634521484375,0.0626220703125,-0.0633544921875
8.548,309,1000,444,310,-1.0,37.0,44.0,-37.109375,4.8828125,54.992671966552734,-0.2529296875,-0.0040283203125,-0.0023193359375
8.550,298,1071,673,310,-1.0,37.0,44.0,-34.66796875,1.9531248807907104,55.480953216552734,0.178955078125,-0.0513916015625,0.070556640625
8.577,310,1133,833,310,-1.0,37.0,44.0,-16.845703125,-9.94873046875,45.166011810302734,0.68359375,0.05859375,0.162353515625
8.578,310,1268,1054,310,-4.0,37.0,46.0,16.29638671875,-33.447265625,23.864744186401367,1.0845947265625,0.3172607421875,0.2357177734375
8.579,310,1367,1159,310,-4.0,37.0,46.0,35.94970703125,-63.659664154052734,-6.347655773162842,0.67431640625,0.6971435546875,0.4632568359375
8.588,310,1444,1284,308,-4.0,37.0,46.0,36.92626953125,-90.88134002685547,-36.7431640625,-0.6151123046875,1.033447265625,0.695556640625
8.601,310,1536,1407,307,-4.0,37.0,46.0,58.654781341552734,-94.05516815185547,-50.170894622802734,-1.875244140625,1.2354736328125,0.2899169921875
8.610,311,1572,1437,310,-4.0,37.0,46.0,90.39305877685547,-69.64111328125,-45.471187591552734,-2.2718505859375,1.1236572265625,-0.402587890625
8.622,310,1610,1470,310,-4.0,37.0,46.0,80.81053924560547,-48.400875091552734,-47.363277435302734,-2.27783203125,0.571533203125,-0.4326171875
8.631,310,1611,1432,310,-4.0,37.0,46.0,35.09521484375,-49.743648529052734,-66.162109375,-2.535400390625,0.0087890625,0.07568359375
8.639,310,1596,1344,310,-4.0,37.0,46.0,-0.8544921278953552,-51.513668060302734,-76.11083984375,-2.7567138671875,-0.1800537109375,0.2579345703125
8.650,310,1595,1271,310,-4.0,37.0,46.0,-12.329100608825684,-29.846189498901367,-59.814449310302734,-2.2506103515625,-0.325927734375,-0.01513671875
8.672,309,1557,1162,310,-4.0,37.0,46.0,-5.0048828125,9.521484375,-33.447265625,-1.3592529296875,-0.432861328125,-0.28564453125
8.672,310,1551,1131,310,-3.0,35.0,42.0,13.366698265075684,42.602535247802734,-15.380858421325684,-0.938720703125,-0.1893310546875,-0.3046875
