time,compression0,compression1,compression2,compression3,magn_x,magn_y,magn_z,gyro_x,gyro_y,gyro_z,accel_x,accel_y,accel_z
0.008,309,364,410,310,-1.0,41.0,38.0,13.793944358825684,-13.061522483825684,-12.573241233825684,-0.9349365234375,0.3526611328125,0.0638427734375
0.016,309,364,410,309,-1.0,41.0,38.0,14.038084983825684,-12.207030296325684,-12.756346702575684,-0.928466796875,0.3587646484375,0.0673828125
0.017,310,367,410,310,-1.0,41.0,38.0,11.901854515075684,-10.803221702575684,-12.939452171325684,-0.919189453125,0.3548583984375,0.0701904296875
0.025,310,367,411,309,-1.0,41.0,38.0,11.901854515075684,-10.803221702575684,-12.939452171325684,-0.9110107421875,0.3427734375,0.0703125
0.039,308,368,410,308,-1.0,41.0,38.0,5.554198741912842,-8.97216796875,-14.587401390075684,-0.9093017578125,0.3291015625,0.0701904296875
0.052,310,368,411,310,-1.0,41.0,38.0,4.69970703125,-9.33837890625,-15.563963890075684,-0.9150390625,0.3179931640625,0.0673828125
0.055,309,365,410,310,-1.0,41.0,38.0,4.69970703125,-9.33837890625,-15.563963890075684,-0.9256591796875,0.3148193359375,0.05712890625
0.072,311,369,411,310,-1.0,41.0,38.0,7.629394054412842,-11.596678733825684,-16.845703125,-0.93701171875,0.3187255859375,0.0472412109375
0.077,308,367,411,310,-1.0,41.0,38.0,7.629394054412842,-13.122557640075684,-17.27294921875,-0.93994140625,0.314697265625,0.0482177734375
0.085,308,364,415,310,-1.0,41.0,38.0,7.629394054412842,-13.122557640075684,-17.27294921875,-0.9390869140625,0.3043212890625,0.05126953125
0.099,308,364,414,310,4.0,41.0,42.0,6.103515148162842,-15.014647483825684,-16.78466796875,-0.939453125,0.2977294921875,0.052734375
0.110,310,364,411,310,4.0,41.0,42.0,4.69970703125,-15.136717796325684,-15.686034202575684,-0.935791015625,0.2891845703125,0.0570068359375
0.119,308,364,414,310,4.0,41.0,42.0,2.44140625,-14.892577171325684,-14.160155296325684,-0.92626953125,0.2777099609375,0.06298828125
0.129,309,369,399,310,4.0,41.0,42.0,-0.0610351525247097,-14.831542015075684,-12.451170921325684,-0.9110107421875,0.2701416015625,0.075439453125
0.138,310,369,410,310,4.0,41.0,42.0,-1.4038084745407104,-15.380858421325684,-11.169432640075684,-0.8897705078125,0.265869140625,0.088623046875
0.145,310,371,414,312,4.0,41.0,42.0,-0.6713866591453552,-16.6015625,-10.742186546325684,-0.86279296875,0.2630615234375,0.091796875
0.159,310,379,419,310,4.0,41.0,42.0,1.15966796875,-18.37158203125,-11.230467796325684,-0.8408203125,0.2618408203125,0.0877685546875
0.173,310,384,419,310,4.0,41.0,42.0,2.685546636581421,-20.690916061401367,-12.084959983825684,-0.8345947265625,0.2677001953125,0.0816650390625
0.175,310,391,409,310,4.0,41.0,42.0,2.3193359375,-22.888181686401367,-12.695311546325684,-0.8387451171875,0.2833251953125,0.0679931640625
0.192,310,393,402,310,3.0,37.0,35.0,-1.15966796875,-24.414060592651367,-12.695311546325684,-0.837646484375,0.2974853515625,0.048828125
0.218,308,402,409,312,3.0,37.0,35.0,-8.11767578125,-26.062009811401367,-12.207030296325684,-0.8150634765625,0.2978515625,0.04296875
0.219,308,420,414,310,3.0,37.0,35.0,-17.08984375,-29.113767623901367,-11.718749046325684,-0.7734375,0.28076171875,0.051513671875
0.220,296,442,415,310,3.0,37.0,35.0,-25.512693405151367,-33.203125,-11.230467796325684,-0.72705078125,0.25244140625,0.0557861328125
0.227,310,465,444,311,3.0,37.0,35.0,-31.494138717651367,-37.2314453125,-10.192870140075684,-0.68212890625,0.230224609375,0.0523681640625
0.235,309,482,465,310,3.0,37.0,35.0,-36.56005859375,-41.564937591552734,-8.36181640625,-0.6602783203125,0.2279052734375,0.0687255859375
0.250,310,525,509,311,3.0,37.0,35.0,-42.846675872802734,-47.241207122802734,-6.713866710662842,-0.6728515625,0.2225341796875,0.1263427734375
0.259,310,548,552,310,3.0,37.0,35.0,-49.255367279052734,-53.161617279052734,-6.225585460662842,-0.7061767578125,0.1844482421875,0.1971435546875
0.266,310,579,576,310,3.0,37.0,35.0,-52.062984466552734,-56.335445404052734,-6.958007335662842,-0.7333984375,0.13525390625,0.2562255859375
0.279,310,633,606,310,3.0,37.0,35.0,-49.987789154052734,-55.786128997802734,-8.30078125,-0.69921875,0.09619140625,0.3282470703125
0.290,310,662,606,310,5.0,35.0,38.0,-46.020503997802734,-52.490230560302734,-9.1552734375,-0.6134033203125,0.052490234375,0.3807373046875
0.298,310,685,636,311,5.0,35.0,38.0,-39.6728515625,-46.752925872802734,-8.23974609375,-0.556640625,0.0489501953125,0.353271484375
0.363,310,745,691,311,5.0,35.0,38.0,-27.770994186401367,-42.602535247802734,-6.408690929412842,-0.5556640625,0.1124267578125,0.29443359375
0.377,310,794,737,310,5.0,35.0,38.0,-10.437010765075684,-45.349117279052734,-6.164550304412842,-0.6199951171875,0.2137451171875,0.2794189453125
0.384,310,846,739,312,5.0,35.0,38.0,10.070799827575684,-52.673336029052734,-7.873534679412842,-0.8128662109375,0.4354248046875,0.2437744140625
0.384,310,917,751,310,5.0,35.0,38.0,27.099607467651367,-52.551265716552734,-8.23974609375,-1.1351318359375,0.77783203125,0.0609130859375
0.384,310,938,772,311,5.0,35.0,38.0,24.291990280151367,-39.73388671875,-7.080077648162842,-1.34033203125,0.910400390625,-0.1173095703125
0.384,310,971,803,312,5.0,35.0,38.0,-4.150390625,-25.268552780151367,-10.131834983825684,-1.295166015625,0.7174072265625,-0.0455322265625
0.384,310,1021,918,312,5.0,35.0,38.0,-39.36767578125,-16.845703125,-18.61572265625,-1.2222900390625,0.3902587890625,0.2093505859375
0.384,311,1042,994,312,5.0,35.0,38.0,-64.02587890625,-11.535643577575684,-27.404783248901367,-1.3206787109375,0.04833984375,0.434814453125
0.385,310,1056,1051,312,7.0,35.0,38.0,-70.86181640625,-6.835937023162842,-29.907224655151367,-1.550048828125,-0.084716796875,0.5008544921875
0.418,310,1069,1125,312,7.0,35.0,38.0,-40.527339935302734,-8.1787109375,-10.620116233825684,-1.665283203125,0.2164306640625,0.3853759765625
0.418,310,1074,1123,310,7.0,35.0,38.0,-26.062009811401367,-10.681151390075684,-1.03759765625,-1.307861328125,0.2103271484375,0.338134765625
0.429,310,1071,1133,310,7.0,35.0,38.0,-13.122557640075684,-9.3994140625,1.4038084745407104,-0.797607421875,0.3189697265625,0.3724365234375
0.437,310,1067,1134,310,7.0,35.0,38.0,2.624511480331421,-3.662109136581421,-3.417968511581421,-0.797607421875,0.3189697265625,0.3724365234375
0.445,311,1063,1139,312,7.0,35.0,38.0,8.7890625,7.019042491912842,-12.329100608825684,-0.843994140625,0.4715576171875,0.3438720703125
0.460,311,1038,1143,310,7.0,35.0,38.0,0.0610351525247097,20.141599655151367,-21.789548873901367,-0.95166015625,0.42578125,0.28857421875
0.468,311,1034,1151,311,7.0,35.0,38.0,-13.488768577575684,30.639646530151367,-30.151365280151367,-0.95166015625,0.42578125,0.28857421875
0.475,311,1027,1162,312,7.0,35.0,38.0,-25.024412155151367,36.865234375,-36.92626953125,-1.01123046875,0.3243408203125,0.3409423828125
0.495,309,1014,1175,312,6.0,34.0,36.0,-33.447265625,40.771480560302734,-41.137691497802734,-1.3619384765625,0.2239990234375,0.4136962890625
0.497,312,1000,1178,312,6.0,34.0,36.0,-41.259761810302734,42.785640716552734,-41.503902435302734,-1.3619384765625,0.2239990234375,0.4136962890625
0.524,311,987,1175,311,6.0,34.0,36.0,-48.034664154052734,41.564937591552734,-37.65869140625,-1.4405517578125,0.134033203125,0.38037109375
0.525,310,959,1129,310,6.0,34.0,36.0,-46.691890716552734,37.41455078125,-31.249998092651367,-1.3428955078125,0.06005859375,0.235107421875
0.533,310,933,1089,312,6.0,34.0,36.0,-35.58349609375,32.470703125,-23.742673873901367,-1.3428955078125,0.06005859375,0.235107421875
0.535,310,904,1039,312,6.0,34.0,36.0,-21.972654342651367,27.160642623901367,-15.075682640075684,-1.2828369140625,0.1033935546875,0.1451416015625
0.549,310,846,962,311,6.0,34.0,36.0,-11.230467796325684,20.385740280151367,-6.042479991912842,-1.173583984375,0.2486572265625,0.0867919921875
0.557,310,814,902,312,6.0,34.0,36.0,-5.493163585662842,13.000487327575684,0.7934569716453552,-1.173583984375,0.2486572265625,0.0867919921875
0.567,310,764,822,311,6.0,34.0,36.0,-6.713866710662842,8.1787109375,3.601073980331421,-1.142822265625,0.3333740234375,0.113525390625
0.579,310,694,689,311,6.0,34.0,36.0,-26.306150436401367,11.718749046325684,2.197265625,-1.0067138671875,0.2928466796875,0.1300048828125
0.587,310,654,594,311,11.0,35.0,37.0,-26.306150436401367,11.718749046325684,2.197265625,-0.875,0.1650390625,0.0916748046875
0.597,310,612,538,310,11.0,35.0,37.0,-29.785154342651367,18.9208984375,-0.2441406100988388,-0.875,0.1650390625,0.0916748046875
0.613,310,530,467,310,11.0,35.0,37.0,2.0751953125,41.503902435302734,-8.23974609375,-0.7518310546875,-0.0821533203125,0.059814453125
0.642,310,509,456,310,11.0,35.0,37.0,2.0751953125,41.503902435302734,-8.23974609375,-0.7322998046875,-0.189208984375,0.1380615234375
0.644,308,493,452,309,11.0,35.0,37.0,21.606443405151367,53.649898529052734,-12.451170921325684,-0.7322998046875,-0.189208984375,0.1380615234375
0.644,310,475,435,310,11.0,35.0,37.0,53.039546966552734,67.9931640625,-9.46044921875,-0.6583251953125,-0.1920166015625,0.3062744140625
0.647,309,467,417,310,11.0,35.0,37.0,53.039546966552734,67.9931640625,-9.46044921875,-0.558349609375,0.0557861328125,0.146240234375
0.655,310,467,391,312,11.0,35.0,37.0,70.12939453125,70.1904296875,-0.30517578125,-0.558349609375,0.0557861328125,0.146240234375
0.670,310,450,377,310,11.0,35.0,37.0,54.443355560302734,47.241207122802734,12.878417015075684,-0.54150390625,0.29833984375,0.0406494140625
0.677,310,456,373,309,11.0,35.0,37.0,54.443355560302734,47.241207122802734,12.878417015075684,-0.5423583984375,0.3089599609375,0.1324462890625
0.685,312,463,372,309,7.0,36.0,40.0,43.029781341552734,29.724119186401367,16.845703125,-0.5423583984375,0.3089599609375,0.1324462890625
0.700,311,473,377,309,7.0,36.0,40.0,27.770994186401367,6.286620616912842,16.54052734375,-0.6883544921875,0.345458984375,0.3148193359375
0.707,310,477,393,310,7.0,36.0,40.0,27.770994186401367,6.286620616912842,16.54052734375,-0.756591796875,0.3236083984375,0.318359375
0.722,309,480,399,311,7.0,36.0,40.0,19.47021484375,0.0,10.620116233825684,-0.756591796875,0.3236083984375,0.318359375
0.729,309,490,419,310,7.0,36.0,40.0,21.545408248901367,-2.50244140625,-3.051757574081421,-0.7935791015625,0.19384765625,0.118896484375
0.753,309,496,437,310,7.0,36.0,40.0,28.076169967651367,-5.065917491912842,-5.065917491912842,-0.793212890625,0.156494140625,0.0638427734375
0.753,310,509,444,310,7.0,36.0,40.0,28.076169967651367,-5.065917491912842,-5.065917491912842,-0.8133544921875,0.1326904296875,0.065673828125
0.759,310,530,475,312,7.0,36.0,40.0,24.353025436401367,-19.4091796875,-2.25830078125,-0.8365478515625,0.1136474609375,0.0989990234375
0.771,310,538,497,310,7.0,36.0,40.0,12.634276390075684,-26.977537155151367,-0.8544921278953552,-0.8358154296875,0.093017578125,0.11376953125
0.775,310,554,506,310,7.0,36.0,40.0,12.634276390075684,-26.977537155151367,-0.8544921278953552,-0.8115234375,0.0740966796875,0.0806884765625
0.789,308,588,579,310,9.0,38.0,35.0,-18.85986328125,-36.80419921875,-3.845214605331421,-0.762939453125,0.0714111328125,-0.000732421875
0.803,310,616,630,310,9.0,38.0,35.0,-37.17041015625,-42.114253997802734,-7.202147960662842,-0.705810546875,0.08544921875,-0.09423828125
0.806,310,642,738,311,9.0,38.0,35.0,-37.17041015625,-42.114253997802734,-7.202147960662842,-0.6607666015625,0.106201171875,-0.139892578125
0.834,310,676,876,311,9.0,38.0,35.0,-85.69335174560547,-58.532711029052734,-8.6669921875,-0.6226806640625,0.1175537109375,-0.129638671875
0.835,309,693,953,312,9.0,38.0,35.0,-106.20116424560547,-66.46728515625,-2.868652105331421,-0.575927734375,0.1002197265625,-0.0594482421875
0.835,310,724,1017,299,9.0,38.0,35.0,-106.20116424560547,-66.46728515625,-2.868652105331421,-0.5189208984375,0.0784912109375,0.05126953125
0.854,310,782,1183,311,9.0,38.0,35.0,-106.75048065185547,-72.57080078125,10.742186546325684,-0.488525390625,0.1005859375,0.1387939453125
0.861,310,830,1245,312,9.0,38.0,35.0,-93.38378143310547,-69.580078125,13.549803733825684,-0.5308837890625,0.1744384765625,0.2225341796875
0.865,311,873,1310,312,9.0,38.0,35.0,-93.38378143310547,-69.580078125,13.549803733825684,-0.6224365234375,0.2744140625,0.38525390625
0.880,310,969,1437,312,9.0,38.0,35.0,-57.983394622802734,-53.588863372802734,4.5166015625,-0.7493896484375,0.355712890625,0.600830078125
0.887,310,1035,1529,312,10.0,37.0,33.0,-35.70556640625,-42.053218841552734,-6.835937023162842,-1.0316162109375,0.389892578125,0.76708984375
0.895,311,1074,1607,312,10.0,37.0,33.0,-14.892577171325684,-29.418943405151367,-18.5546875,-1.4766845703125,0.3021240234375,0.737060546875
0.909,311,1125,1674,312,10.0,37.0,33.0,-0.8544921278953552,-14.892577171325684,-24.658201217651367,-1.8348388671875,0.131103515625,0.5045166015625
0.919,310,1139,1694,313,10.0,37.0,33.0,7.934569835662842,-4.0283203125,-18.6767578125,-1.988037109375,0.1119384765625,0.2811279296875
0.925,310,1147,1701,312,10.0,37.0,33.0,14.221190452575684,-6.286620616912842,-2.929687261581421,-2.029296875,0.20166015625,0.2083740234375
0.939,311,1142,1669,312,10.0,37.0,33.0,17.08984375,-16.66259765625,11.901854515075684,-1.8521728515625,0.13525390625,0.2364501953125
0.947,310,1129,1648,312,10.0,37.0,33.0,20.874021530151367,-19.775390625,15.991209983825684,-1.3446044921875,-0.0057373046875,0.2955322265625
0.959,311,1108,1611,312,10.0,37.0,33.0,34.11865234375,-10.375975608825684,7.995604991912842,-0.9163818359375,0.1298828125,0.3824462890625
0.973,310,1108,1619,312,10.0,37.0,33.0,46.508785247802734,6.530761241912842,-6.225585460662842,-0.860107421875,0.45556640625,0.4266357421875
0.979,311,1104,1625,312,10.0,37.0,33.0,34.97314453125,26.489255905151367,-21.057126998901367,-1.107177734375,0.6572265625,0.4215087890625
0.985,310,1086,1619,313,10.0,35.0,39.0,-0.4882812201976776,41.503902435302734,-32.71484375,-1.49755859375,0.6190185546875,0.4205322265625
0.999,311,1047,1583,312,10.0,35.0,39.0,-40.771480560302734,44.494625091552734,-38.63525390625,-1.7119140625,0.3253173828125,0.4110107421875
1.008,311,1021,1559,312,10.0,35.0,39.0,-61.035152435302734,38.0859375,-37.78076171875,-1.653564453125,0.0201416015625,0.386474609375
1.020,310,987,1514,312,10.0,35.0,39.0,-51.269527435302734,29.785154342651367,-30.944822311401367,-1.4888916015625,-0.057373046875,0.3658447265625
1.035,310,921,1409,313,10.0,35.0,39.0,-30.944822311401367,23.681638717651367,-20.568845748901367,-1.3580322265625,0.0301513671875,0.3349609375
1.037,311,886,1342,313,10.0,35.0,39.0,-21.179197311401367,20.935056686401367,-9.09423828125,-1.263671875,0.1077880859375,0.2725830078125
1.046,310,846,1272,312,10.0,35.0,39.0,-22.766111373901367,20.874021530151367,1.4038084745407104,-1.1873779296875,0.111572265625,0.205078125
1.065,310,736,1101,310,10.0,35.0,39.0,-23.925779342651367,21.240232467651367,9.033203125,-1.1162109375,0.1109619140625,0.1536865234375
1.067,310,676,951,310,10.0,35.0,39.0,-17.08984375,21.057126998901367,12.512206077575684,-0.9891357421875,0.08349609375,0.120849609375
1.079,310,633,858,311,10.0,35.0,39.0,-1.4648436307907104,23.559568405151367,10.498045921325684,-0.81201171875,-0.00927734375,0.123291015625
1.091,310,551,698,311,10.0,35.0,36.0,23.986814498901367,31.799314498901367,3.967284917831421,-0.67236328125,-0.082275390625,0.156005859375
1.097,310,512,607,311,10.0,35.0,36.0,51.574703216552734,44.555660247802734,-3.967284917831421,-0.6319580078125,-0.1702880859375,0.1654052734375
1.109,310,493,540,311,10.0,35.0,36.0,70.3125,60.058589935302734,-10.192870140075684,-0.6429443359375,-0.2474365234375,0.093994140625
1.119,310,465,447,310,10.0,35.0,36.0,80.56639862060547,76.23291015625,-10.986327171325684,-0.628662109375,-0.185791015625,-0.001953125
1.131,310,435,419,310,10.0,35.0,36.0,85.38817596435547,85.81542205810547,-6.225585460662842,-0.5843505859375,-0.040283203125,-0.0286865234375
1.135,310,420,385,311,10.0,35.0,36.0,85.44921112060547,84.28954315185547,1.6479490995407104,-0.5185546875,0.141357421875,-0.0250244140625
1.150,309,395,373,310,10.0,35.0,36.0,79.52880859375,73.1201171875,11.230467796325684,-0.4451904296875,0.432373046875,0.06689453125
1.169,309,401,380,310,10.0,35.0,36.0,62.988277435302734,54.382320404052734,21.667478561401367,-0.4451904296875,0.432373046875,0.06689453125
1.172,310,408,384,310,10.0,35.0,36.0,37.9638671875,32.71484375,30.639646530151367,-0.473876953125,0.3863525390625,0.2127685546875
1.181,310,425,396,310,10.0,37.0,35.0,15.075682640075684,13.305663108825684,32.470703125,-0.68017578125,0.1724853515625,0.4229736328125
1.188,310,437,414,310,10.0,37.0,35.0,3.173827886581421,-1.4648436307907104,24.414060592651367,-0.68017578125,0.1724853515625,0.4229736328125
1.198,310,441,424,311,10.0,37.0,35.0,5.554198741912842,-8.4228515625,12.451170921325684,-0.769287109375,0.092041015625,0.362548828125
1.211,310,465,430,310,10.0,37.0,35.0,19.71435546875,-6.042479991912842,4.2724609375,-0.797119140625,0.1497802734375,0.1287841796875
1.218,310,483,437,312,10.0,37.0,35.0,36.19384765625,-0.6103515625,1.3427733182907104,-0.797119140625,0.1497802734375,0.1287841796875
1.236,310,495,441,310,10.0,37.0,35.0,46.325679779052734,0.2441406100988388,1.0986328125,-0.818359375,0.197265625,0.078369140625
1.243,310,513,452,310,10.0,37.0,35.0,48.522945404052734,-4.45556640625,1.8920897245407104,-0.8939208984375,0.197998046875,0.0263671875
1.248,310,519,475,310,10.0,37.0,35.0,43.823238372802734,-10.864256858825684,3.173827886581421,-0.8939208984375,0.197998046875,0.0263671875
1.256,310,533,497,310,10.0,37.0,35.0,32.40966796875,-17.08984375,4.8828125,-0.9124755859375,0.18798828125,0.00048828125
1.270,310,548,538,310,10.0,37.0,35.0,-0.3662109076976776,-33.14208984375,5.310058116912842,-0.9173583984375,0.123046875,0.04345703125
1.280,310,562,562,312,10.0,37.0,35.0,-0.3662109076976776,-33.14208984375,5.310058116912842,-0.845458984375,0.1019287109375,0.0335693359375
1.286,310,579,603,310,8.0,35.0,40.0,-16.29638671875,-41.015621185302734,0.9765624403953552,-0.845458984375,0.1019287109375,0.0335693359375
1.301,310,609,705,310,8.0,35.0,40.0,-69.4580078125,-45.593257904052734,-11.535643577575684,-0.790771484375,0.0745849609375,-0.024169921875
1.340,310,632,772,310,8.0,35.0,40.0,-69.4580078125,-45.593257904052734,-11.535643577575684,-0.7786865234375,0.0504150390625,0.001708984375
1.340,310,662,871,311,8.0,35.0,40.0,-98.93798065185547,-45.166011810302734,-11.779784202575684,-0.7786865234375,0.0504150390625,0.001708984375
1.341,311,705,982,310,8.0,35.0,40.0,-112.06053924560547,-45.837398529052734,-1.4038084745407104,-0.6427001953125,-0.007080078125,0.0792236328125
1.341,310,732,1051,311,8.0,35.0,40.0,-112.06053924560547,-45.837398529052734,-1.4038084745407104,-0.5732421875,0.052978515625,0.1285400390625
1.346,311,770,1129,311,8.0,35.0,40.0,-93.32274627685547,-46.997066497802734,3.112792730331421,-0.5732421875,0.052978515625,0.1285400390625
1.360,310,835,1241,311,8.0,35.0,40.0,-57.617183685302734,-48.278804779052734,5.126952648162842,-0.5452880859375,0.1798095703125,0.2540283203125
1.368,310,875,1297,312,8.0,35.0,40.0,-57.617183685302734,-48.278804779052734,5.126952648162842,-0.586669921875,0.2498779296875,0.335693359375
1.376,310,917,1357,310,8.0,35.0,40.0,-50.720211029052734,-46.081539154052734,3.662109136581421,-0.586669921875,0.2498779296875,0.335693359375
1.391,311,989,1422,312,11.0,33.0,38.0,-36.0107421875,-36.0107421875,-3.601073980331421,-0.827880859375,0.3980712890625,0.5504150390625
1.399,311,1034,1488,314,11.0,33.0,38.0,-36.0107421875,-36.0107421875,-3.601073980331421,-1.072998046875,0.4749755859375,0.6142578125
1.406,310,1082,1545,314,11.0,33.0,38.0,-20.202634811401367,-27.404783248901367,-9.27734375,-1.4632568359375,0.5382080078125,0.58154296875
1.424,310,1153,1640,312,11.0,33.0,38.0,-9.521484375,-9.1552734375,-16.05224609375,-1.9378662109375,0.402587890625,0.426025390625
1.448,310,1163,1669,314,11.0,33.0,38.0,-25.878904342651367,-1.5258787870407104,-10.986327171325684,-2.2398681640625,0.0491943359375,0.243408203125
1.448,310,1170,1649,298,11.0,33.0,38.0,-25.878904342651367,-1.5258787870407104,-10.986327171325684,-2.1396484375,-0.30517578125,0.1531982421875
1.450,310,1160,1578,313,11.0,33.0,38.0,-16.9677734375,-3.479003667831421,9.21630859375,-1.5982666015625,-0.42236328125,0.1368408203125
1.458,311,1143,1541,313,11.0,33.0,38.0,32.958984375,-6.591796398162842,9.09423828125,-1.046875,-0.0924072265625,0.1727294921875
1.466,311,1138,1557,313,11.0,33.0,38.0,32.958984375,-6.591796398162842,9.09423828125,-0.9215087890625,0.4637451171875,0.2550048828125
1.480,310,1131,1569,312,12.0,35.0,35.0,63.293453216552734,8.6669921875,-9.3994140625,-1.2022705078125,0.754638671875,0.3536376953125
1.496,311,1116,1565,314,12.0,35.0,35.0,3.540038824081421,18.5546875,-17.578125,-1.5924072265625,0.608154296875,0.4278564453125
1.497,310,1089,1553,313,12.0,35.0,35.0,3.540038824081421,18.5546875,-17.578125,-1.7501220703125,0.220458984375,0.4354248046875
1.510,308,1029,1492,313,12.0,35.0,35.0,-74.0966796875,19.10400390625,-14.831542015075684,-1.6593017578125,-0.048095703125,0.3994140625
1.520,310,985,1450,311,12.0,35.0,35.0,-55.480953216552734,11.230467796325684,-5.432128429412842,-1.4864501953125,-0.0538330078125,0.3714599609375
1.526,310,944,1381,313,12.0,35.0,35.0,-55.480953216552734,11.230467796325684,-5.432128429412842,-1.334716796875,0.0802001953125,0.3338623046875
1.547,310,871,1243,312,12.0,35.0,35.0,-17.4560546875,3.417968511581421,12.634276390075684,-1.199462890625,0.18798828125,0.2786865234375
1.548,310,816,1137,312,12.0,35.0,35.0,-17.08984375,8.30078125,16.845703125,-1.0916748046875,0.2218017578125,0.2423095703125
1.557,310,763,1017,312,12.0,35.0,35.0,-15.258788108825684,17.39501953125,15.991209983825684,-0.99609375,0.180908203125,0.2235107421875
1.570,311,674,818,311,12.0,35.0,35.0,-6.347655773162842,29.907224655151367,10.131834983825684,-0.8660888671875,0.066162109375,0.2098388671875
1.578,310,621,751,312,12.0,33.0,31.0,10.986327171325684,43.579097747802734,1.5258787870407104,-0.734619140625,-0.068115234375,0.2093505859375
1.590,309,562,697,311,12.0,33.0,31.0,35.400390625,54.748531341552734,-6.958007335662842,-0.71337890625,-0.1923828125,0.19775390625
1.600,309,497,536,310,12.0,33.0,31.0,59.204097747802734,62.866207122802734,-13.061522483825684,-0.7581787109375,-0.294921875,0.1268310546875
1.609,310,465,465,311,12.0,33.0,31.0,76.2939453125,72.021484375,-14.160155296325684,-0.7314453125,-0.288818359375,0.010498046875
1.621,310,441,420,310,12.0,33.0,31.0,88.86717987060547,81.90917205810547,-8.60595703125,-0.64013671875,-0.1500244140625,-0.0775146484375
1.650,308,401,379,310,12.0,33.0,31.0,100.40282440185547,87.46337127685547,1.15966796875,-0.5211181640625,0.0538330078125,-0.1318359375
1.650,311,382,373,310,12.0,33.0,31.0,105.46874237060547,84.89989471435547,11.108397483825684,-0.4466552734375,0.306396484375,-0.1444091796875
1.651,309,352,379,310,12.0,33.0,31.0,92.28514862060547,69.76318359375,21.484373092651367,-0.4271240234375,0.506591796875,-0.0301513671875
1.660,310,369,380,310,12.0,33.0,31.0,59.082027435302734,43.640132904052734,30.456541061401367,-0.3731689453125,0.4072265625,0.148193359375
1.668,310,387,381,310,12.0,33.0,31.0,32.28759765625,25.146482467651367,26.855466842651367,-0.377197265625,0.084228515625,0.1839599609375
1.676,309,401,386,310,10.0,37.0,36.0,46.752925872802734,25.146482467651367,13.305663108825684,-0.554443359375,0.022216796875,0.1939697265625
1.692,310,420,391,309,10.0,37.0,36.0,75.68359375,18.12744140625,8.97216796875,-0.7203369140625,0.2352294921875,0.3482666015625
1.705,308,435,401,310,10.0,37.0,36.0,67.93212890625,-5.615233898162842,12.207030296325684,-0.7747802734375,0.248779296875,0.40869140625
1.706,309,447,410,310,10.0,37.0,36.0,43.151851654052734,-18.4326171875,12.451170921325684,-0.808837890625,0.105712890625,0.260498046875
1.725,310,481,428,310,10.0,37.0,36.0,33.3251953125,-13.427733421325684,12.817381858825684,-0.839599609375,0.1534423828125,0.109619140625
1.728,309,482,437,310,10.0,37.0,36.0,28.442380905151367,-8.23974609375,13.305663108825684,-0.8780517578125,0.280029296875,0.0758056640625
1.751,310,495,441,312,10.0,37.0,36.0,21.606443405151367,-12.451170921325684,9.82666015625,-0.9237060546875,0.2801513671875,0.0904541015625
1.751,308,509,451,310,10.0,37.0,36.0,19.6533203125,-21.728513717651367,4.5166015625,-0.9332275390625,0.2218017578125,0.089111328125
1.762,310,521,452,311,10.0,37.0,36.0,19.95849609375,-28.808591842651367,-0.1220703050494194,-0.8995361328125,0.181640625,0.08251953125
1.766,310,531,456,310,10.0,37.0,36.0,13.061522483825684,-33.0810546875,-5.615233898162842,-0.8638916015625,0.1322021484375,0.0899658203125
1.780,310,566,495,311,8.0,36.0,39.0,-0.6713866591453552,-37.29248046875,-12.207030296325684,-0.853515625,0.0758056640625,0.0909423828125
1.791,309,591,527,310,8.0,36.0,39.0,-14.526366233825684,-40.832515716552734,-17.2119140625,-0.8505859375,0.0401611328125,0.0521240234375
1.796,309,614,562,310,8.0,36.0,39.0,-27.099607467651367,-40.893550872802734,-18.49365234375,-0.831787109375,0.0333251953125,0.0030517578125
1.811,310,648,657,311,8.0,36.0,39.0,-39.97802734375,-38.14697265625,-15.869139671325684,-0.8475341796875,0.0706787109375,0.00048828125
1.818,310,667,723,311,8.0,36.0,39.0,-53.039546966552734,-37.353515625,-10.986327171325684,-0.87890625,0.1312255859375,0.0369873046875
1.826,310,688,785,310,8.0,36.0,39.0,-65.49072265625,-40.649410247802734,-6.042479991912842,-0.84521484375,0.1539306640625,0.0665283203125
1.855,309,736,893,311,8.0,36.0,39.0,-73.974609375,-45.837398529052734,-1.3427733182907104,-0.77685546875,0.1395263671875,0.09912109375
1.855,310,763,959,310,8.0,36.0,39.0,-73.6083984375,-50.231929779052734,2.563476324081421,-0.719970703125,0.114501953125,0.140380859375
1.856,297,794,1037,310,8.0,36.0,39.0,-65.73486328125,-51.696773529052734,5.554198741912842,-0.6876220703125,0.1251220703125,0.1639404296875
1.875,311,832,1137,312,8.0,36.0,39.0,-55.480953216552734,-50.781246185302734,8.85009765625,-0.691162109375,0.22607421875,0.2236328125
1.878,310,868,1185,311,10.0,34.0,36.0,-47.302242279052734,-49.499507904052734,11.718749046325684,-0.691162109375,0.22607421875,0.2236328125
1.886,311,907,1251,312,10.0,34.0,36.0,-38.9404296875,-46.386714935302734,11.779784202575684,-0.682373046875,0.1871337890625,0.302734375
1.900,310,982,1351,312,10.0,34.0,36.0,-25.695798873901367,-40.405269622802734,8.544921875,-1.037841796875,0.4287109375,0.4808349609375
1.908,310,1017,1390,312,10.0,34.0,36.0,-15.502928733825684,-32.89794921875,3.173827886581421,-1.037841796875,0.4287109375,0.4808349609375
1.917,310,1041,1422,312,10.0,34.0,36.0,-19.47021484375,-23.925779342651367,-2.44140625,-1.30908203125,0.571044921875,0.4859619140625
1.930,312,1085,1469,312,10.0,34.0,36.0,-35.0341796875,-13.061522483825684,-6.652831554412842,-1.5029296875,0.4959716796875,0.375732421875
1.958,311,1112,1492,312,10.0,34.0,36.0,-52.368160247802734,-4.0283203125,-8.72802734375,-1.5029296875,0.4959716796875,0.375732421875
1.958,310,1139,1511,312,10.0,34.0,36.0,-61.584468841552734,-0.2441406100988388,-9.033203125,-1.5518798828125,0.240478515625,0.3414306640625
1.960,311,1134,1486,312,10.0,34.0,36.0,-56.701656341552734,-0.1220703050494194,-8.6669921875,-1.6468505859375,-0.410888671875,0.2144775390625
1.968,310,1122,1460,314,10.0,34.0,36.0,-36.9873046875,1.4038084745407104,-8.1787109375,-1.6468505859375,-0.410888671875,0.2144775390625
1.976,310,1123,1473,312,10.0,37.0,36.0,-3.906249761581421,5.981444835662842,-7.507323741912842,-1.2777099609375,-0.3389892578125,0.1678466796875
1.990,310,1116,1486,311,10.0,37.0,36.0,32.2265625,10.375975608825684,-7.446288585662842,-1.379638671875,0.5645751953125,0.308349609375
1.999,310,1104,1486,312,10.0,37.0,36.0,41.687007904052734,12.634276390075684,-8.48388671875,-1.379638671875,0.5645751953125,0.308349609375
2.006,311,1078,1477,314,10.0,37.0,36.0,8.23974609375,14.648436546325684,-10.070799827575684,-1.6646728515625,0.555419921875,0.3851318359375
2.023,310,1022,1443,312,10.0,37.0,36.0,-37.41455078125,16.4794921875,-9.94873046875,-1.5352783203125,0.0142822265625,0.4107666015625
2.032,310,980,1397,312,10.0,37.0,36.0,-55.480953216552734,14.526366233825684,-6.286620616912842,-1.359130859375,-0.0516357421875,0.388427734375
2.036,310,939,1325,312,10.0,37.0,36.0,-41.320796966552734,8.48388671875,0.30517578125,-1.359130859375,-0.0516357421875,0.388427734375
2.056,310,867,1192,310,10.0,37.0,36.0,5.0048828125,8.11767578125,11.962889671325684,-1.104248046875,0.117919921875,0.297607421875
2.058,310,827,1087,312,10.0,37.0,36.0,5.0048828125,8.11767578125,11.962889671325684,-1.0164794921875,0.2125244140625,0.2215576171875
2.066,312,771,971,312,10.0,37.0,36.0,16.357421875,17.2119140625,12.084959983825684,-1.0164794921875,0.2125244140625,0.2215576171875
2.080,309,694,803,312,10.0,35.0,33.0,19.53125,35.70556640625,4.94384765625,-0.7906494140625,0.2359619140625,0.0986328125
2.088,310,653,725,310,10.0,35.0,33.0,19.53125,35.70556640625,4.94384765625,-0.70947265625,0.081787109375,0.095458984375
2.101,310,607,664,310,10.0,35.0,33.0,23.925779342651367,41.259761810302734,1.15966796875,-0.70947265625,0.081787109375,0.095458984375
2.113,311,539,551,311,10.0,35.0,33.0,59.509273529052734,56.701656341552734,-6.408690929412842,-0.747314453125,-0.201171875,-0.015869140625
2.118,309,516,522,311,10.0,35.0,33.0,59.509273529052734,56.701656341552734,-6.408690929412842,-0.6876220703125,-0.2078857421875,-0.010498046875
2.139,310,496,490,310,10.0,35.0,33.0,78.857421875,68.115234375,-3.662109136581421,-0.6876220703125,-0.2078857421875,-0.010498046875
2.140,295,446,439,310,10.0,35.0,33.0,96.55760955810547,72.20458984375,10.253905296325684,-0.552001953125,0.04931640625,0.06982421875
2.161,310,447,438,309,10.0,35.0,33.0,96.55760955810547,72.20458984375,10.253905296325684,-0.5404052734375,0.205078125,0.0386962890625
2.161,310,436,428,309,10.0,35.0,33.0,83.31298065185547,64.02587890625,14.343260765075684,-0.5404052734375,0.205078125,0.0386962890625
2.170,309,424,424,309,10.0,35.0,33.0,32.3486328125,37.109375,22.155759811401367,-0.5782470703125,0.3297119140625,0.15478515625
2.178,310,426,436,309,9.0,39.0,37.0,11.901854515075684,19.83642578125,23.864744186401367,-0.6473388671875,0.270751953125,0.262451171875
2.186,308,428,447,310,9.0,39.0,37.0,11.901854515075684,19.83642578125,23.864744186401367,-0.7259521484375,0.2122802734375,0.3592529296875
2.205,308,437,463,310,9.0,39.0,37.0,0.9155272841453552,-4.8828125,16.9677734375,-0.80224609375,0.181884765625,0.393798828125
2.212,310,441,473,310,9.0,39.0,37.0,10.437010765075684,-6.530761241912842,9.521484375,-0.8624267578125,0.1656494140625,0.3253173828125
2.216,310,452,465,310,9.0,39.0,37.0,10.437010765075684,-6.530761241912842,9.521484375,-0.8704833984375,0.17138671875,0.21630859375
2.261,310,465,481,310,9.0,39.0,37.0,39.12353515625,4.5166015625,-2.13623046875,-0.862548828125,0.199462890625,0.1270751953125
2.261,312,467,490,310,9.0,39.0,37.0,44.982906341552734,6.164550304412842,-5.737304210662842,-0.8836669921875,0.2264404296875,0.0736083984375
2.263,298,475,495,310,9.0,39.0,37.0,44.982906341552734,6.164550304412842,-5.737304210662842,-0.9156494140625,0.221923828125,0.050048828125
2.263,310,479,513,310,9.0,39.0,37.0,34.24072265625,-3.112792730331421,-8.6669921875,-0.9393310546875,0.1903076171875,0.0350341796875
2.268,310,481,524,310,9.0,39.0,37.0,24.841306686401367,-9.033203125,-7.568358898162842,-0.9437255859375,0.1492919921875,0.013916015625
2.276,310,488,538,310,10.0,40.0,35.0,24.841306686401367,-9.033203125,-7.568358898162842,-0.9224853515625,0.10791015625,-0.0067138671875
2.290,309,499,557,310,10.0,40.0,35.0,9.765625,-19.53125,-1.3427733182907104,-0.88623046875,0.0777587890625,-0.0052490234375
2.299,310,517,561,311,10.0,40.0,35.0,3.601073980331421,-26.123044967651367,1.7089842557907104,-0.841064453125,0.072021484375,0.0093994140625
2.309,309,530,572,310,10.0,40.0,35.0,3.601073980331421,-26.123044967651367,1.7089842557907104,-0.787109375,0.0882568359375,0.00732421875
2.325,310,568,634,310,10.0,40.0,35.0,-11.718749046325684,-39.73388671875,2.624511480331421,-0.7158203125,0.1181640625,-0.0118408203125
2.328,309,600,705,310,10.0,40.0,35.0,-27.099607467651367,-45.593257904052734,0.4272460639476776,-0.653076171875,0.169189453125,-0.0380859375
2.345,310,632,770,312,10.0,40.0,35.0,-51.940914154052734,-52.124019622802734,-2.44140625,-0.5977783203125,0.2003173828125,-0.0531005859375
2.367,310,694,916,311,10.0,40.0,35.0,-83.92333221435547,-58.898921966552734,-4.69970703125,-0.5081787109375,0.145751953125,-0.0589599609375
2.367,310,737,1026,312,10.0,40.0,35.0,-110.65673065185547,-62.316890716552734,-3.845214605331421,-0.43798828125,0.0545654296875,-0.0296630859375
2.368,296,779,1103,296,10.0,40.0,35.0,-117.91991424560547,-61.828609466552734,0.7324218153953552,-0.4581298828125,0.020751953125,0.069580078125
2.380,310,845,1199,312,9.0,34.0,36.0,-106.32323455810547,-60.302730560302734,6.958007335662842,-0.5909423828125,0.0740966796875,0.1927490234375
2.388,311,884,1260,312,9.0,34.0,36.0,-86.48680877685547,-57.922359466552734,12.573241233825684,-0.814208984375,0.2022705078125,0.330322265625
2.396,310,912,1318,312,9.0,34.0,36.0,-68.66455078125,-52.978511810302734,14.404295921325684,-1.016845703125,0.33203125,0.4876708984375
2.410,310,971,1406,312,9.0,34.0,36.0,-63.049312591552734,-45.654293060302734,10.986327171325684,-1.1102294921875,0.37451171875,0.591552734375
2.419,310,1008,1457,312,9.0,34.0,36.0,-67.68798828125,-37.04833984375,5.676269054412842,-1.1387939453125,0.325927734375,0.6114501953125
2.426,310,1035,1521,312,9.0,34.0,36.0,-67.07763671875,-28.381345748901367,2.01416015625,-1.240966796875,0.256103515625,0.591796875
2.470,310,1073,1596,312,9.0,34.0,36.0,-56.457515716552734,-21.362302780151367,-0.2441406100988388,-1.469482421875,0.1185302734375,0.552490234375
2.470,311,1064,1625,312,9.0,34.0,36.0,-38.75732421875,-14.404295921325684,-1.6479490995407104,-1.70361328125,-0.069091796875,0.469970703125
2.471,310,1098,1632,297,9.0,34.0,36.0,-10.498045921325684,-4.21142578125,-0.30517578125,-1.826171875,-0.0374755859375,0.334228515625
2.471,312,1064,1598,298,9.0,34.0,36.0,16.78466796875,6.103515148162842,4.94384765625,-1.74609375,0.1597900390625,0.1900634765625
2.478,312,1082,1588,313,10.0,36.0,31.0,24.597166061401367,12.023924827575684,9.33837890625,-1.364990234375,0.201904296875,0.1219482421875
2.486,310,1078,1596,313,10.0,36.0,31.0,24.719236373901367,14.953612327575684,5.981444835662842,-1.0224609375,0.25537109375,0.1573486328125
2.500,310,1074,1591,312,10.0,36.0,31.0,25.268552780151367,15.014647483825684,-3.662109136581421,-1.1072998046875,0.4674072265625,0.2525634765625
2.512,311,1063,1580,312,10.0,36.0,31.0,8.60595703125,13.305663108825684,-11.779784202575684,-1.4027099609375,0.555419921875,0.343994140625
2.517,311,1039,1564,312,10.0,36.0,31.0,-25.634763717651367,13.793944358825684,-14.465331077575684,-1.5660400390625,0.40869140625,0.3826904296875
2.530,310,996,1499,312,10.0,36.0,31.0,-52.246089935302734,15.808104515075684,-13.122557640075684,-1.54931640625,0.1968994140625,0.3922119140625
2.572,310,958,1447,312,10.0,36.0,31.0,-53.222652435302734,15.624999046325684,-10.253905296325684,-1.4805908203125,0.0888671875,0.3974609375
2.573,312,912,1396,312,10.0,36.0,31.0,-35.33935546875,13.671874046325684,-6.774901866912842,-1.4393310546875,0.10546875,0.3837890625
2.574,312,784,1239,312,10.0,36.0,31.0,-17.39501953125,13.183592796325684,-2.44140625,-1.4259033203125,0.1749267578125,0.3431396484375
2.574,310,739,1117,312,10.0,36.0,31.0,-9.58251953125,15.197752952575684,3.173827886581421,-1.385986328125,0.2103271484375,0.2825927734375
2.576,310,678,1024,312,13.0,36.0,31.0,-7.873534679412842,18.24951171875,9.6435546875,-1.251708984375,0.1248779296875,0.2232666015625
2.590,310,578,884,310,13.0,36.0,31.0,1.5869139432907104,22.705076217651367,14.526366233825684,-1.0184326171875,-0.093505859375,0.1962890625
2.598,310,540,778,312,13.0,36.0,31.0,30.761716842651367,30.822751998901367,14.892577171325684,-0.7489013671875,-0.339111328125,0.1953125
2.607,310,502,664,310,13.0,36.0,31.0,76.96533203125,43.701168060302734,11.047362327575684,-0.5762939453125,-0.5115966796875,0.212646484375
2.621,308,453,518,310,13.0,36.0,31.0,125.67137908935547,59.387203216552734,6.896972179412842,-0.5240478515625,-0.5584716796875,0.2506103515625
2.628,310,435,451,310,13.0,36.0,31.0,164.24559020996094,74.89013671875,6.835937023162842,-0.46826171875,-0.408935546875,0.207275390625
2.636,310,415,428,308,13.0,36.0,31.0,187.49998474121094,89.17235565185547,12.084959983825684,-0.4154052734375,-0.0235595703125,0.01611328125
2.650,310,398,401,310,13.0,36.0,31.0,187.37791442871094,95.58104705810547,19.22607421875,-0.3642578125,0.6939697265625,-0.2249755859375
2.676,308,375,402,310,13.0,36.0,31.0,159.11865234375,86.12059783935547,23.559568405151367,-0.3642578125,0.6939697265625,-0.2249755859375
2.677,310,360,402,310,13.0,36.0,31.0,110.65673065185547,61.340328216552734,25.085447311401367,-0.46142578125,0.822021484375,-0.1029052734375
2.680,308,360,410,310,7.0,39.0,38.0,50.659175872802734,29.113767623901367,24.841306686401367,-0.766357421875,0.4622802734375,0.2647705078125
2.688,308,368,417,310,7.0,39.0,38.0,-3.601073980331421,4.0283203125,20.080564498901367,-0.766357421875,0.4622802734375,0.2647705078125
2.696,310,372,423,310,7.0,39.0,38.0,-28.869626998901367,-3.173827886581421,10.742186546325684,-0.790771484375,0.182373046875,0.301513671875
2.712,310,391,428,310,7.0,39.0,38.0,-20.812986373901367,2.929687261581421,0.7324218153953552,-0.8199462890625,0.037353515625,0.12841796875
2.718,310,399,432,309,7.0,39.0,38.0,0.4272460639476776,9.09423828125,-5.798339366912842,-0.8199462890625,0.037353515625,0.12841796875
2.726,310,402,436,311,7.0,39.0,38.0,16.54052734375,8.6669921875,-7.507323741912842,-0.857177734375,0.0791015625,0.1146240234375
2.748,310,413,441,310,7.0,39.0,38.0,25.573728561401367,5.065917491912842,-6.164550304412842,-0.890380859375,0.1884765625,0.13818359375
2.749,310,428,452,310,7.0,39.0,38.0,29.052732467651367,2.38037109375,-3.540038824081421,-0.890380859375,0.1884765625,0.13818359375
2.780,310,437,454,310,7.0,39.0,38.0,28.320310592651367,0.6103515625,-1.2817381620407104,-0.8822021484375,0.1846923828125,0.121826171875
2.781,309,465,475,310,6.0,38.0,35.0,27.038572311401367,-1.3427733182907104,0.1220703050494194,-0.8795166015625,0.1436767578125,0.0260009765625
2.781,310,472,481,310,6.0,38.0,35.0,26.550291061401367,-4.2724609375,1.5258787870407104,-0.8746337890625,0.1478271484375,-0.0042724609375
2.787,309,480,497,310,6.0,38.0,35.0,23.864744186401367,-8.544921875,3.295898199081421,-0.8746337890625,0.1478271484375,-0.0042724609375
2.800,310,496,516,309,6.0,38.0,35.0,3.356933355331421,-21.728513717651367,6.774901866912842,-0.855712890625,0.208251953125,-0.0367431640625
2.809,312,513,526,310,6.0,38.0,35.0,3.356933355331421,-21.728513717651367,6.774901866912842,-0.839111328125,0.241455078125,-0.02490234375
2.819,310,529,551,308,6.0,38.0,35.0,-12.268065452575684,-31.188962936401367,6.835937023162842,-0.839111328125,0.241455078125,-0.02490234375
2.830,310,562,636,310,6.0,38.0,35.0,-46.203609466552734,-50.415035247802734,-2.13623046875,-0.764892578125,0.2808837890625,0.0201416015625
2.838,310,584,689,311,6.0,38.0,35.0,-46.203609466552734,-50.415035247802734,-2.13623046875,-0.7535400390625,0.29541015625,0.0009765625
2.850,310,616,771,311,6.0,38.0,35.0,-65.5517578125,-53.710933685302734,-10.375975608825684,-0.7535400390625,0.29541015625,0.0009765625
2.891,311,664,918,311,6.0,38.0,35.0,-118.89647674560547,-47.607418060302734,-18.4326171875,-0.7679443359375,0.2291259765625,-0.015869140625
2.891,310,708,1013,311,10.0,34.0,35.0,-118.89647674560547,-47.607418060302734,-18.4326171875,-0.6507568359375,0.1064453125,0.0023193359375
2.892,309,740,1101,311,10.0,34.0,35.0,-142.27294921875,-45.898433685302734,-13.488768577575684,-0.6507568359375,0.1064453125,0.0023193359375
2.892,310,799,1215,312,10.0,34.0,35.0,-132.6904296875,-45.715328216552734,0.1831054538488388,-0.549560546875,0.060546875,0.08349609375
2.899,310,840,1294,314,10.0,34.0,35.0,-132.6904296875,-45.715328216552734,0.1831054538488388,-0.65380859375,0.209716796875,0.179931640625
2.906,310,874,1383,312,10.0,34.0,35.0,-107.23876190185547,-49.987789154052734,3.845214605331421,-0.65380859375,0.209716796875,0.179931640625
2.922,312,931,1531,312,10.0,34.0,35.0,-77.20947265625,-57.556148529052734,0.2441406100988388,-0.9466552734375,0.378662109375,0.56982421875
2.929,310,959,1593,312,10.0,34.0,35.0,-78.91845703125,-53.222652435302734,-7.934569835662842,-1.102294921875,0.22607421875,0.7530517578125
2.936,311,988,1650,312,10.0,34.0,35.0,-78.91845703125,-53.222652435302734,-7.934569835662842,-1.2857666015625,-0.05078125,0.741455078125
2.954,310,1039,1718,313,10.0,34.0,35.0,-74.0966796875,-24.230955123901367,-21.667478561401367,-1.4263916015625,-0.2647705078125,0.5419921875
2.958,310,1064,1746,312,10.0,34.0,35.0,-40.771480560302734,-6.652831554412842,-18.73779296875,-1.5107421875,-0.2103271484375,0.30810546875
2.966,311,1078,1770,313,10.0,34.0,35.0,-40.771480560302734,-6.652831554412842,-18.73779296875,-1.591552734375,0.0849609375,0.17333984375
2.984,310,1089,1781,312,12.0,34.0,33.0,29.418943405151367,0.7934569716453552,-0.30517578125,-1.651123046875,0.3302001953125,0.197265625
2.988,312,1081,1759,313,12.0,34.0,33.0,31.188962936401367,-4.69970703125,5.493163585662842,-1.5701904296875,0.3436279296875,0.2586669921875
3.001,310,1069,1735,312,12.0,34.0,33.0,31.188962936401367,-4.69970703125,5.493163585662842,-1.2615966796875,0.1951904296875,0.2857666015625
3.010,310,1050,1727,312,12.0,34.0,33.0,22.705076217651367,2.990722417831421,-2.3193359375,-0.9951171875,0.1580810546875,0.3323974609375
3.024,311,1042,1732,314,12.0,34.0,33.0,34.48486328125,13.183592796325684,-13.122557640075684,-1.10791015625,0.3720703125,0.391845703125
3.027,310,1038,1719,314,12.0,34.0,33.0,34.48486328125,13.183592796325684,-13.122557640075684,-1.4683837890625,0.5777587890625,0.425048828125
3.040,310,1001,1681,312,12.0,34.0,33.0,-13.061522483825684,28.869626998901367,-21.545408248901367,-1.688720703125,0.50244140625,0.415283203125
3.057,310,963,1646,313,12.0,34.0,33.0,-56.701656341552734,32.2265625,-17.39501953125,-1.647216796875,0.2305908203125,0.3941650390625
3.057,310,910,1608,312,12.0,34.0,33.0,-56.701656341552734,32.2265625,-17.39501953125,-1.5164794921875,0.0489501953125,0.383056640625
3.089,311,846,1483,313,11.0,36.0,36.0,-41.564937591552734,27.526853561401367,-8.1787109375,-1.4222412109375,0.057861328125,0.3673095703125
3.090,311,771,1403,312,11.0,36.0,36.0,-14.343260765075684,24.658201217651367,-2.563476324081421,-1.3389892578125,0.109375,0.3236083984375
3.090,307,713,1286,312,11.0,36.0,36.0,-4.57763671875,26.428220748901367,5.676269054412842,-1.1990966796875,0.0374755859375,0.2508544921875
3.100,310,613,1103,312,11.0,36.0,36.0,-2.990722417831421,32.71484375,14.221190452575684,-0.9892578125,-0.14306640625,0.1751708984375
3.114,310,566,1007,312,11.0,36.0,36.0,11.108397483825684,39.9169921875,18.6767578125,-0.7557373046875,-0.320556640625,0.12744140625
3.118,310,533,902,311,11.0,36.0,36.0,46.142574310302734,44.921871185302734,17.2119140625,-0.59130859375,-0.4769287109375,0.1226806640625
3.130,310,482,722,310,11.0,36.0,36.0,95.33690643310547,50.109859466552734,13.000487327575684,-0.5562744140625,-0.554443359375,0.16748046875
3.140,310,472,601,310,11.0,36.0,36.0,144.1650390625,58.166500091552734,10.925292015075684,-0.566162109375,-0.439453125,0.2037353515625
3.146,311,456,513,310,11.0,36.0,36.0,177.97850036621094,69.15283203125,13.427733421325684,-0.552490234375,-0.1265869140625,0.1177978515625
3.160,310,435,456,310,11.0,36.0,36.0,188.65965270996094,79.345703125,18.98193359375,-0.5394287109375,0.2618408203125,-0.0660400390625
3.198,310,428,420,310,10.0,36.0,36.0,174.19432067871094,80.68846893310547,23.437498092651367,-0.52294921875,0.533203125,-0.19140625
3.199,294,413,401,308,10.0,36.0,36.0,140.80810546875,69.27490234375,24.353025436401367,-0.5440673828125,0.654052734375,-0.1890869140625
3.199,310,386,396,310,10.0,36.0,36.0,96.86278533935547,48.400875091552734,24.658201217651367,-0.6248779296875,0.676025390625,-0.0814208984375
3.199,309,380,395,311,10.0,36.0,36.0,49.682613372802734,24.597166061401367,26.062009811401367,-0.7021484375,0.586669921875,0.0772705078125
3.206,310,396,415,308,10.0,36.0,36.0,10.620116233825684,6.958007335662842,25.390623092651367,-0.7340087890625,0.41064453125,0.2122802734375
3.226,308,402,427,310,10.0,36.0,36.0,-7.873534679412842,0.7934569716453552,19.59228515625,-0.7437744140625,0.22802734375,0.26904296875
3.228,308,410,430,310,10.0,36.0,36.0,-4.45556640625,2.807616949081421,9.70458984375,-0.778076171875,0.104736328125,0.2296142578125
3.236,309,414,433,310,10.0,36.0,36.0,8.97216796875,6.164550304412842,1.6479490995407104,-0.831787109375,0.06640625,0.154052734375
3.250,310,433,438,310,10.0,36.0,36.0,20.690916061401367,6.896972179412842,-0.4882812201976776,-0.8662109375,0.103271484375,0.1165771484375
3.261,308,440,439,310,10.0,36.0,36.0,27.038572311401367,5.432128429412842,1.2817381620407104,-0.8782958984375,0.1708984375,0.1148681640625
3.266,309,447,447,310,9.0,37.0,38.0,27.648923873901367,3.784179449081421,2.807616949081421,-0.8885498046875,0.2027587890625,0.1231689453125
3.291,308,465,451,308,9.0,37.0,38.0,26.000974655151367,2.44140625,2.929687261581421,-0.905029296875,0.1883544921875,0.1195068359375
3.291,298,473,456,308,9.0,37.0,38.0,27.099607467651367,1.5258787870407104,3.601073980331421,-0.9158935546875,0.180419921875,0.08203125
3.303,310,481,456,310,9.0,37.0,38.0,29.663084030151367,0.2441406100988388,5.493163585662842,-0.9033203125,0.1900634765625,0.0225830078125
3.310,308,497,469,310,9.0,37.0,38.0,27.709959030151367,-2.807616949081421,6.774901866912842,-0.8743896484375,0.19189453125,-0.026611328125
3.319,310,509,480,310,9.0,37.0,38.0,18.798828125,-8.544921875,6.286620616912842,-0.845947265625,0.18994140625,-0.038330078125
3.332,310,526,505,312,9.0,37.0,38.0,4.7607421875,-16.6015625,4.5166015625,-0.81494140625,0.2017822265625,-0.0062255859375
3.340,309,564,548,312,9.0,37.0,38.0,-11.291502952575684,-25.817869186401367,1.7089842557907104,-0.7529296875,0.224365234375,0.0372314453125
3.348,310,587,576,312,9.0,37.0,38.0,-28.015134811401367,-34.3017578125,-2.929687261581421,-0.6650390625,0.2432861328125,0.0325927734375
3.363,310,609,644,311,9.0,37.0,38.0,-48.767086029052734,-40.0390625,-9.3994140625,-0.608154296875,0.2706298828125,-0.0511474609375
3.370,310,671,832,311,9.0,37.0,38.0,-81.72606658935547,-43.334957122802734,-14.709471702575684,-0.607666015625,0.3138427734375,-0.163330078125
3.390,311,713,955,311,9.0,37.0,38.0,-132.4462890625,-48.706050872802734,-15.441893577575684,-0.575927734375,0.3084716796875,-0.234375
3.390,298,756,1063,311,9.0,37.0,38.0,-191.46726989746094,-58.898921966552734,-10.803221702575684,-0.4857177734375,0.197265625,-0.2401123046875
3.400,310,835,1198,312,9.0,37.0,38.0,-234.43601989746094,-69.03076171875,-2.624511480331421,-0.509765625,-0.0545654296875,0.0985107421875
3.409,310,878,1260,312,9.0,37.0,38.0,-235.65672302246094,-72.57080078125,7.080077648162842,-0.509765625,-0.0545654296875,0.0985107421875
3.416,309,916,1338,312,9.0,37.0,38.0,-191.28416442871094,-66.95556640625,15.563963890075684,-0.681884765625,0.0531005859375,0.3232421875
3.436,311,995,1514,312,9.0,37.0,38.0,-131.7138671875,-54.443355560302734,18.5546875,-1.141357421875,0.2421875,0.73046875
3.439,310,1026,1592,312,9.0,37.0,38.0,-92.65135955810547,-41.931148529052734,13.977049827575684,-1.141357421875,0.2421875,0.73046875
3.452,311,1067,1648,314,9.0,37.0,38.0,-80.99364471435547,-35.0341796875,5.310058116912842,-1.3865966796875,0.0555419921875,0.8868408203125
3.467,310,1104,1698,312,9.0,37.0,38.0,-73.3642578125,-28.503416061401367,-2.01416015625,-1.7200927734375,-0.132568359375,0.576904296875
3.468,296,1101,1734,312,12.0,35.0,31.0,-39.6728515625,-14.831542015075684,-3.295898199081421,-1.7200927734375,-0.132568359375,0.576904296875
3.490,310,1133,1746,312,12.0,35.0,31.0,10.803221702575684,0.8544921278953552,1.9531248807907104,-1.8021240234375,0.1846923828125,0.307373046875
3.491,310,1122,1708,312,12.0,35.0,31.0,42.114253997802734,9.33837890625,8.544921875,-1.572265625,0.464111328125,0.0689697265625
3.498,311,1105,1687,314,12.0,35.0,31.0,44.433589935302734,10.803221702575684,10.803221702575684,-1.572265625,0.464111328125,0.0689697265625
3.506,311,1098,1698,312,12.0,35.0,31.0,38.26904296875,11.840819358825684,5.0048828125,-1.1566162109375,0.3392333984375,0.08935546875
3.525,310,1085,1711,311,12.0,35.0,31.0,43.273921966552734,14.221190452575684,-8.60595703125,-1.2789306640625,0.5411376953125,0.345458984375
3.541,311,1078,1704,312,12.0,35.0,31.0,43.518062591552734,16.357421875,-21.972654342651367,-1.2789306640625,0.5411376953125,0.345458984375
3.542,311,1056,1689,310,12.0,35.0,31.0,13.977049827575684,18.61572265625,-26.611326217651367,-1.5946044921875,0.5406494140625,0.3895263671875
3.550,311,1000,1636,312,12.0,35.0,31.0,-54.504390716552734,22.399900436401367,-14.953612327575684,-1.5772705078125,0.1134033203125,0.3258056640625
3.572,310,959,1588,312,12.0,35.0,31.0,-54.504390716552734,22.399900436401367,-14.953612327575684,-1.4661865234375,0.0574951171875,0.3123779296875
3.572,310,882,1523,312,13.0,36.0,33.0,-42.358394622802734,19.287109375,-9.46044921875,-1.4661865234375,0.0574951171875,0.3123779296875
3.602,310,805,1365,312,13.0,36.0,33.0,5.493163585662842,11.047362327575684,1.2817381620407104,-1.340087890625,0.166259765625,0.2518310546875
3.602,310,731,1265,312,13.0,36.0,33.0,5.493163585662842,11.047362327575684,1.2817381620407104,-1.2188720703125,0.0806884765625,0.183349609375
3.603,310,678,1155,312,13.0,36.0,33.0,9.94873046875,13.488768577575684,9.46044921875,-1.2188720703125,0.0806884765625,0.183349609375
3.610,310,564,963,312,13.0,36.0,33.0,40.283199310302734,31.127927780151367,18.24951171875,-0.7808837890625,-0.2498779296875,0.1510009765625
3.622,309,527,840,308,13.0,36.0,33.0,40.283199310302734,31.127927780151367,18.24951171875,-0.6055908203125,-0.44091796875,0.201904296875
3.626,310,493,714,311,13.0,36.0,33.0,83.31298065185547,44.433589935302734,15.624999046325684,-0.6055908203125,-0.44091796875,0.201904296875
3.640,310,456,537,311,13.0,36.0,33.0,193.72557067871094,76.11083984375,7.690429210662842,-0.5096435546875,-0.462890625,0.2213134765625
3.650,310,437,464,310,13.0,36.0,33.0,193.72557067871094,76.11083984375,7.690429210662842,-0.439697265625,-0.013671875,-0.00048828125
3.657,310,419,437,310,13.0,36.0,33.0,232.42185974121094,90.08788299560547,8.056640625,-0.439697265625,-0.013671875,-0.00048828125
3.677,310,402,394,309,8.0,37.0,35.0,189.63621520996094,84.71678924560547,10.009765625,-0.4100341796875,0.7794189453125,-0.2913818359375
3.683,308,391,396,308,8.0,37.0,35.0,189.63621520996094,84.71678924560547,10.009765625,-0.4986572265625,0.844482421875,-0.1947021484375
3.697,309,373,407,310,8.0,37.0,35.0,123.04686737060547,59.326168060302734,7.934569835662842,-0.4986572265625,0.844482421875,-0.1947021484375
3.700,310,370,418,309,8.0,37.0,35.0,2.929687261581421,6.530761241912842,6.469726085662842,-0.7177734375,0.479248046875,0.1580810546875
3.708,309,379,415,310,8.0,37.0,35.0,-23.925779342651367,-4.7607421875,1.7700194120407104,-0.7642822265625,0.1748046875,0.2510986328125
3.716,310,386,414,310,8.0,37.0,35.0,-23.925779342651367,-4.7607421875,1.7700194120407104,-0.7808837890625,-0.0013427734375,0.23828125
3.730,310,402,419,310,8.0,37.0,35.0,4.69970703125,-0.3662109076976776,-10.131834983825684,-0.796142578125,0.004638671875,0.1536865234375
3.740,310,408,423,310,8.0,37.0,35.0,28.442380905151367,2.50244140625,-11.230467796325684,-0.8135986328125,0.09423828125,0.093017578125
3.746,309,419,427,310,8.0,37.0,35.0,28.442380905151367,2.50244140625,-11.230467796325684,-0.8411865234375,0.187255859375,0.0859375
3.760,309,427,435,308,8.0,37.0,35.0,37.90283203125,-1.7700194120407104,-10.742186546325684,-0.8814697265625,0.2481689453125,0.0966796875
3.775,310,433,439,309,7.0,36.0,40.0,28.564451217651367,-4.82177734375,-11.779784202575684,-0.9183349609375,0.2471923828125,0.0970458984375
3.776,308,439,450,310,7.0,36.0,40.0,28.564451217651367,-4.82177734375,-11.779784202575684,-0.939208984375,0.2095947265625,0.0682373046875
3.798,310,449,467,311,7.0,36.0,40.0,17.08984375,-8.6669921875,-10.803221702575684,-0.9393310546875,0.173583984375,0.0072021484375
3.798,310,464,475,308,7.0,36.0,40.0,17.27294921875,-11.352538108825684,-7.324218273162842,-0.934326171875,0.14453125,-0.0665283203125
3.818,310,469,483,310,7.0,36.0,40.0,17.27294921875,-11.352538108825684,-7.324218273162842,-0.9381103515625,0.1292724609375,-0.1087646484375
3.821,296,485,504,311,7.0,36.0,40.0,5.126952648162842,-22.766111373901367,1.5869139432907104,-0.9273681640625,0.1295166015625,-0.08056640625
3.830,310,499,513,310,7.0,36.0,40.0,-6.408690929412842,-32.1044921875,4.82177734375,-0.878662109375,0.13134765625,-0.0040283203125
3.888,309,519,530,310,7.0,36.0,40.0,-6.408690929412842,-32.1044921875,4.82177734375,-0.806884765625,0.1395263671875,0.0545654296875
3.905,310,555,575,310,7.0,36.0,40.0,-25.817869186401367,-49.865718841552734,2.3193359375,-0.7476806640625,0.175048828125,0.0565185546875
3.920,310,579,622,310,7.0,36.0,40.0,-41.381832122802734,-55.664058685302734,-3.051757574081421,-0.7061767578125,0.2275390625,0.0260009765625
3.927,310,604,698,310,7.0,38.0,39.0,-68.90869140625,-58.654781341552734,-9.6435546875,-0.6324462890625,0.2579345703125,-0.0322265625
3.928,310,657,874,294,7.0,38.0,39.0,-107.97118377685547,-59.448238372802734,-14.953612327575684,-0.55615234375,0.2689208984375,-0.1248779296875
3.928,310,697,1027,311,7.0,38.0,39.0,-153.99169921875,-62.255855560302734,-15.686034202575684,-0.4981689453125,0.280029296875,-0.1876220703125
3.929,310,730,1138,312,7.0,38.0,39.0,-197.69285583496094,-70.00732421875,-10.742186546325684,-0.4342041015625,0.2132568359375,-0.1397705078125
3.929,295,822,1319,311,7.0,38.0,39.0,-221.19139099121094,-78.369140625,-2.929687261581421,-0.40869140625,0.07177734375,0.0487060546875
3.929,311,861,1434,312,7.0,38.0,39.0,-205.32225036621094,-80.01708984375,4.2724609375,-0.4796142578125,0.0640869140625,0.2659912109375
3.930,310,902,1555,314,7.0,38.0,39.0,-162.84178161621094,-73.486328125,7.751464366912842,-0.6610107421875,0.174072265625,0.4376220703125
3.951,311,1000,1709,312,7.0,38.0,39.0,-129.0283203125,-64.453125,4.39453125,-0.9119873046875,0.1334228515625,0.654052734375
3.951,311,1037,1770,312,7.0,38.0,39.0,-110.83983612060547,-55.969234466552734,-5.065917491912842,-1.1976318359375,-0.107177734375,0.8333740234375
3.957,310,1069,1803,312,7.0,38.0,39.0,-87.21923065185547,-41.381832122802734,-13.977049827575684,-1.4678955078125,-0.2908935546875,0.7813720703125
3.978,310,1112,1845,313,11.0,34.0,30.0,-44.555660247802734,-18.12744140625,-15.258788108825684,-1.6944580078125,-0.1739501953125,0.556640625
3.978,310,1127,1860,300,11.0,34.0,30.0,1.8310545682907104,2.01416015625,-8.85009765625,-1.8670654296875,0.1397705078125,0.3612060546875
4.006,311,1139,1865,314,11.0,34.0,30.0,27.526853561401367,9.21630859375,-0.2441406100988388,-1.936767578125,0.36279296875,0.2872314453125
4.006,296,1129,1823,313,11.0,34.0,30.0,32.28759765625,6.347655773162842,5.371093273162842,-1.8216552734375,0.371337890625,0.236328125
4.016,310,1108,1798,314,11.0,34.0,30.0,30.822751998901367,2.44140625,5.920409679412842,-1.422119140625,0.2158203125,0.159912109375
4.017,312,1101,1798,312,11.0,34.0,30.0,39.24560546875,2.197265625,0.6103515625,-1.0247802734375,0.1788330078125,0.1544189453125
4.030,310,1095,1812,313,11.0,34.0,30.0,53.039546966552734,3.723144292831421,-8.9111328125,-1.021728515625,0.3758544921875,0.26025390625
4.048,311,1086,1805,312,11.0,34.0,30.0,43.579097747802734,6.591796398162842,-16.78466796875,-1.3485107421875,0.560791015625,0.3905029296875
4.051,310,1069,1792,312,11.0,34.0,30.0,0.0610351525247097,12.329100608825684,-18.5546875,-1.6336669921875,0.50634765625,0.451904296875
4.060,310,1020,1742,311,13.0,33.0,33.0,-49.316402435302734,18.61572265625,-15.136717796325684,-1.6365966796875,0.24462890625,0.454345703125
4.068,310,980,1698,312,13.0,33.0,33.0,-65.24658203125,20.812986373901367,-10.620116233825684,-1.4906005859375,0.03466796875,0.4339599609375
4.080,310,931,1637,312,13.0,33.0,33.0,-42.541500091552734,18.24951171875,-7.141112804412842,-1.3763427734375,0.010009765625,0.4053955078125
4.108,310,830,1500,312,13.0,33.0,33.0,-10.131834983825684,15.563963890075684,-2.685546636581421,-1.33447265625,0.098388671875,0.3636474609375
4.109,310,756,1398,312,13.0,33.0,33.0,5.737304210662842,16.6015625,4.69970703125,-1.3004150390625,0.1412353515625,0.3033447265625
4.109,310,697,1308,299,13.0,33.0,33.0,5.493163585662842,21.301267623901367,13.488768577575684,-1.1929931640625,0.0386962890625,0.2362060546875
4.120,311,594,1137,311,13.0,33.0,33.0,9.82666015625,28.015134811401367,19.34814453125,-0.997802734375,-0.138427734375,0.1873779296875
4.128,310,537,1029,311,13.0,33.0,33.0,35.21728515625,35.33935546875,18.85986328125,-0.76953125,-0.27490234375,0.166259765625
4.136,312,496,918,312,13.0,33.0,33.0,77.2705078125,44.250484466552734,13.000487327575684,-0.606689453125,-0.3829345703125,0.1693115234375
4.157,310,454,715,311,13.0,33.0,33.0,122.61962127685547,57.617183685302734,5.981444835662842,-0.5513916015625,-0.414306640625,0.1844482421875
4.158,309,438,594,310,13.0,33.0,33.0,158.3251953125,73.2421875,1.8920897245407104,-0.5521240234375,-0.284423828125,0.1724853515625
4.167,310,419,537,310,10.0,38.0,35.0,176.14744567871094,85.32714080810547,2.50244140625,-0.555419921875,-0.0240478515625,0.081298828125
4.182,308,409,465,310,10.0,38.0,35.0,179.62644958496094,90.88134002685547,7.141112804412842,-0.4722900390625,0.58349609375,-0.2303466796875
4.220,310,396,419,308,10.0,38.0,35.0,167.78562927246094,85.69335174560547,11.047362327575684,-0.4722900390625,0.58349609375,-0.2303466796875
4.223,310,387,408,310,10.0,38.0,35.0,131.7138671875,66.34521484375,11.169432640075684,-0.526611328125,0.685791015625,-0.2291259765625
4.223,310,367,415,310,10.0,38.0,35.0,75.86669921875,36.865234375,11.840819358825684,-0.720458984375,0.442626953125,0.1214599609375
4.227,309,364,423,310,10.0,38.0,35.0,21.606443405151367,9.1552734375,14.648436546325684,-0.720458984375,0.442626953125,0.1214599609375
4.227,309,368,426,308,10.0,38.0,35.0,-11.962889671325684,-5.798339366912842,15.441893577575684,-0.73046875,0.2532958984375,0.2408447265625
4.240,310,374,435,310,10.0,38.0,35.0,-20.263669967651367,-7.568358898162842,10.742186546325684,-0.7735595703125,0.031494140625,0.218017578125
4.253,310,386,439,310,10.0,38.0,35.0,-10.009765625,-4.2724609375,2.563476324081421,-0.7735595703125,0.031494140625,0.218017578125
4.261,308,387,444,310,10.0,38.0,35.0,6.652831554412842,-2.13623046875,-2.807616949081421,-0.8255615234375,0.031494140625,0.1544189453125
4.270,310,407,456,310,9.0,37.0,33.0,20.690916061401367,-2.929687261581421,-2.624511480331421,-0.863037109375,0.160400390625,0.142822265625
4.284,310,410,481,309,9.0,37.0,33.0,28.686521530151367,-5.981444835662842,0.2441406100988388,-0.863037109375,0.160400390625,0.142822265625
4.286,311,415,499,310,9.0,37.0,33.0,31.127927780151367,-9.27734375,2.13623046875,-0.868896484375,0.19091796875,0.1533203125
4.301,310,433,525,309,9.0,37.0,33.0,30.578611373901367,-11.169432640075684,1.5869139432907104,-0.87890625,0.1883544921875,0.0875244140625
4.309,310,439,537,310,9.0,37.0,33.0,27.404783248901367,-12.268065452575684,0.1831054538488388,-0.86474609375,0.16162109375,0.037109375
4.316,310,447,551,310,9.0,37.0,33.0,20.568845748901367,-14.465331077575684,-0.8544921278953552,-0.86474609375,0.16162109375,0.037109375
4.330,310,477,599,310,9.0,37.0,33.0,-0.54931640625,-25.573728561401367,0.7934569716453552,-0.79833984375,0.159912109375,-0.0760498046875
4.338,310,494,654,310,9.0,37.0,33.0,-0.54931640625,-25.573728561401367,0.7934569716453552,-0.715576171875,0.2091064453125,-0.0693359375
4.353,310,517,708,311,9.0,37.0,33.0,-14.465331077575684,-36.31591796875,2.0751953125,-0.715576171875,0.2091064453125,-0.0693359375
4.371,309,578,891,310,10.0,36.0,33.0,-64.88037109375,-59.387203216552734,-6.347655773162842,-0.5556640625,0.322265625,-0.1109619140625
4.371,311,629,1022,311,10.0,36.0,33.0,-64.88037109375,-59.387203216552734,-6.347655773162842,-0.55126953125,0.3155517578125,-0.1580810546875
4.376,312,664,1129,312,10.0,36.0,33.0,-111.26708221435547,-66.2841796875,-12.634276390075684,-0.55126953125,0.3155517578125,-0.1580810546875
4.390,310,756,1323,312,10.0,36.0,33.0,-204.22361755371094,-76.23291015625,-7.324218273162842,-0.4400634765625,0.1072998046875,-0.0521240234375
4.415,311,805,1455,312,10.0,36.0,33.0,-204.22361755371094,-76.23291015625,-7.324218273162842,-0.4617919921875,0.103515625,0.141357421875
4.415,310,853,1553,310,10.0,36.0,33.0,-203.30809020996094,-76.35498046875,1.3427733182907104,-0.4617919921875,0.103515625,0.141357421875
4.421,311,919,1763,312,10.0,36.0,33.0,-143.98193359375,-72.8759765625,3.906249761581421,-0.90869140625,0.0693359375,0.6429443359375
4.428,312,963,1819,312,10.0,36.0,33.0,-143.98193359375,-72.8759765625,3.906249761581421,-1.1068115234375,-0.2501220703125,0.8929443359375
4.436,312,1000,1858,314,10.0,36.0,33.0,-127.31932830810547,-69.51904296875,-3.784179449081421,-1.1068115234375,-0.2501220703125,0.8929443359375
4.458,310,1051,1907,313,10.0,36.0,33.0,-32.1044921875,-27.893064498901367,-14.831542015075684,-1.4462890625,-0.2637939453125,0.7041015625
4.472,311,1069,1922,312,12.0,34.0,34.0,23.315427780151367,-1.7089842557907104,-11.230467796325684,-1.6185302734375,0.0535888671875,0.451416015625
4.473,311,1087,1941,314,12.0,34.0,34.0,23.315427780151367,-1.7089842557907104,-11.230467796325684,-1.7850341796875,0.3853759765625,0.291259765625
4.480,310,1101,1939,314,12.0,34.0,34.0,53.466793060302734,12.207030296325684,-0.2441406100988388,-1.89794921875,0.53173828125,0.20947265625
4.489,310,1089,1914,314,12.0,34.0,34.0,37.65869140625,6.164550304412842,2.25830078125,-1.74853515625,0.38037109375,0.1409912109375
4.496,311,1074,1906,313,12.0,34.0,34.0,37.65869140625,6.164550304412842,2.25830078125,-1.302734375,0.1614990234375,0.128173828125
4.516,310,1065,1900,312,12.0,34.0,34.0,43.884273529052734,1.5258787870407104,-7.934569835662842,-0.9921875,0.194580078125,0.2479248046875
4.518,311,1065,1908,314,12.0,34.0,34.0,60.180660247802734,4.150390625,-18.9208984375,-1.142578125,0.447998046875,0.4095458984375
4.528,311,1050,1898,312,12.0,34.0,34.0,60.180660247802734,4.150390625,-18.9208984375,-1.4986572265625,0.5809326171875,0.4998779296875
4.540,312,1020,1869,312,12.0,34.0,34.0,-20.935056686401367,22.033689498901367,-23.559568405151367,-1.64599609375,0.3983154296875,0.497314453125
4.550,312,989,1844,312,12.0,34.0,34.0,-68.05419921875,30.151365280151367,-18.00537109375,-1.5382080078125,0.107177734375,0.4573974609375
4.563,311,953,1798,314,12.0,34.0,30.0,-68.05419921875,30.151365280151367,-18.00537109375,-1.390869140625,-0.0111083984375,0.4205322265625
4.570,311,862,1691,310,12.0,34.0,30.0,-27.160642623901367,27.282712936401367,-10.803221702575684,-1.3245849609375,0.066650390625,0.3828125
4.592,310,801,1618,313,12.0,34.0,30.0,3.540038824081421,24.047849655151367,-5.920409679412842,-1.2855224609375,0.1414794921875,0.3270263671875
4.592,311,741,1500,311,12.0,34.0,30.0,3.540038824081421,24.047849655151367,-5.920409679412842,-1.1915283203125,0.0526123046875,0.2569580078125
4.621,310,640,1338,313,12.0,34.0,30.0,5.859374523162842,32.77587890625,9.521484375,-1.033203125,-0.1595458984375,0.199951171875
4.621,311,579,1219,312,12.0,34.0,30.0,21.728513717651367,39.85595703125,13.183592796325684,-0.8697509765625,-0.3206787109375,0.1546630859375
4.621,310,530,1087,312,12.0,34.0,30.0,59.875484466552734,45.349117279052734,13.183592796325684,-0.736083984375,-0.3941650390625,0.1182861328125
4.625,310,483,939,310,12.0,34.0,30.0,59.875484466552734,45.349117279052734,13.183592796325684,-0.6298828125,-0.4356689453125,0.118408203125
4.639,310,439,721,310,12.0,34.0,30.0,148.25439453125,63.232418060302734,10.742186546325684,-0.5662841796875,-0.35205078125,0.1456298828125
4.647,310,426,586,310,12.0,34.0,30.0,178.89402770996094,73.974609375,10.864256858825684,-0.542236328125,-0.0848388671875,0.1312255859375
4.656,310,413,519,312,12.0,34.0,30.0,178.89402770996094,73.974609375,10.864256858825684,-0.5382080078125,0.2593994140625,0.0335693359375
4.669,309,401,440,310,10.0,36.0,38.0,173.40086364746094,77.57568359375,12.023924827575684,-0.5294189453125,0.506591796875,-0.0833740234375
4.677,311,383,433,310,10.0,36.0,38.0,142.88330078125,68.359375,11.047362327575684,-0.5380859375,0.6129150390625,-0.1390380859375
4.701,310,367,420,310,10.0,36.0,38.0,100.52489471435547,52.734371185302734,11.108397483825684,-0.6075439453125,0.6680908203125,-0.0999755859375
4.708,309,337,424,310,10.0,36.0,38.0,48.706050872802734,32.1044921875,13.244627952575684,-0.6922607421875,0.6185302734375,0.02880859375
4.721,310,336,430,310,10.0,36.0,38.0,-0.8544921278953552,11.779784202575684,12.695311546325684,-0.72412109375,0.3743896484375,0.16162109375
4.721,310,338,428,310,10.0,36.0,38.0,-26.916501998901367,0.3662109076976776,6.591796398162842,-0.7230224609375,0.081298828125,0.2034912109375
4.729,310,359,437,310,10.0,36.0,38.0,-21.789548873901367,-0.6713866591453552,-1.03759765625,-0.748779296875,-0.0662841796875,0.1480712890625
4.737,310,369,439,310,10.0,36.0,38.0,-2.44140625,1.9531248807907104,-4.94384765625,-0.812255859375,-0.0445556640625,0.0714111328125
4.745,308,379,439,311,10.0,36.0,38.0,11.169432640075684,1.4648436307907104,-3.784179449081421,-0.8682861328125,0.0570068359375,0.0589599609375
4.761,310,393,447,310,10.0,38.0,31.0,13.916014671325684,-2.929687261581421,-0.0610351525247097,-0.8973388671875,0.15966796875,0.110107421875
4.767,310,395,454,310,10.0,38.0,31.0,10.559081077575684,-7.507323741912842,3.173827886581421,-0.912353515625,0.2044677734375,0.1724853515625
4.775,310,411,475,309,10.0,38.0,31.0,7.568358898162842,-8.97216796875,3.967284917831421,-0.9202880859375,0.1871337890625,0.1966552734375
4.823,311,423,494,310,10.0,38.0,31.0,8.60595703125,-7.812499523162842,3.723144292831421,-0.9263916015625,0.1553955078125,0.1700439453125
4.823,310,427,496,311,10.0,38.0,31.0,12.329100608825684,-6.774901866912842,3.723144292831421,-0.9190673828125,0.13232421875,0.1160888671875
4.824,310,438,508,310,10.0,38.0,31.0,14.892577171325684,-7.263183116912842,4.150390625,-0.9000244140625,0.12744140625,0.0458984375
4.824,310,465,523,310,10.0,38.0,31.0,13.366698265075684,-9.70458984375,5.310058116912842,-0.8814697265625,0.1480712890625,-0.007080078125
4.827,310,480,543,310,10.0,38.0,31.0,7.812499523162842,-14.770506858825684,7.263183116912842,-0.853271484375,0.1851806640625,0.00048828125
4.835,310,499,576,310,10.0,38.0,31.0,1.15966796875,-22.705076217651367,8.97216796875,-0.780517578125,0.211181640625,0.0489501953125
4.849,310,535,687,310,10.0,38.0,31.0,-4.94384765625,-32.28759765625,8.6669921875,-0.642822265625,0.218505859375,0.07373046875
4.857,310,575,810,311,8.0,37.0,35.0,-14.892577171325684,-42.419429779052734,4.2724609375,-0.4482421875,0.24560546875,0.0191650390625
4.868,310,614,981,310,8.0,37.0,35.0,-42.114253997802734,-52.001949310302734,-6.652831554412842,-0.3013916015625,0.3211669921875,-0.1524658203125
4.879,311,698,1243,311,8.0,37.0,35.0,-103.75975799560547,-58.776851654052734,-20.935056686401367,-0.308837890625,0.371826171875,-0.361572265625
4.887,310,763,1380,311,8.0,37.0,35.0,-193.60350036621094,-63.537593841552734,-26.794431686401367,-0.3587646484375,0.280517578125,-0.3963623046875
4.907,310,830,1498,312,8.0,37.0,35.0,-262.51220703125,-68.115234375,-18.9208984375,-0.3726806640625,0.106201171875,-0.1331787109375
4.931,311,923,1739,314,8.0,37.0,35.0,-258.97216796875,-69.9462890625,-6.103515148162842,-0.4913330078125,0.0975341796875,0.2459716796875
4.932,311,974,1842,312,8.0,37.0,35.0,-197.14353942871094,-66.95556640625,-0.0610351525247097,-0.814453125,0.217529296875,0.556640625
4.933,311,984,1907,312,8.0,37.0,35.0,-143.00537109375,-62.622066497802734,-3.845214605331421,-1.2227783203125,0.076171875,0.849853515625
4.939,311,1064,1969,314,8.0,37.0,35.0,-120.97167205810547,-57.495113372802734,-12.207030296325684,-1.5147705078125,-0.322998046875,1.0196533203125
4.947,310,1092,1994,314,8.0,37.0,35.0,-93.99413299560547,-43.029781341552734,-15.747069358825684,-1.6328125,-0.5665283203125,0.8953857421875
4.955,310,1112,2005,314,12.0,34.0,35.0,-34.423828125,-16.90673828125,-10.375975608825684,-1.68359375,-0.399169921875,0.577880859375
4.970,312,1142,2021,312,12.0,34.0,35.0,31.616209030151367,7.019042491912842,-0.7934569716453552,-1.7430419921875,0.056396484375,0.3193359375
4.977,311,1140,2003,313,12.0,34.0,35.0,64.5751953125,15.808104515075684,6.774901866912842,-1.782958984375,0.417236328125,0.234619140625
4.985,310,1134,1979,313,12.0,34.0,35.0,60.668941497802734,13.610838890075684,9.70458984375,-1.708251953125,0.4873046875,0.18505859375
5.031,312,1112,1941,312,12.0,34.0,35.0,42.297359466552734,12.023924827575684,7.873534679412842,-1.041259765625,0.26953125,0.106689453125
5.031,312,1105,1944,313,12.0,34.0,35.0,35.15625,14.648436546325684,0.6713866591453552,-1.041259765625,0.26953125,0.106689453125
5.032,310,1101,1952,314,12.0,34.0,35.0,40.649410247802734,17.76123046875,-10.681151390075684,-1.0064697265625,0.342529296875,0.206787109375
5.032,310,1082,1951,313,12.0,34.0,35.0,34.7900390625,21.484373092651367,-20.629880905151367,-1.643310546875,0.4486083984375,0.356689453125
5.039,311,1065,1936,312,12.0,34.0,35.0,1.8310545682907104,26.733396530151367,-23.864744186401367,-1.643310546875,0.4486083984375,0.356689453125
5.049,310,1035,1908,314,12.0,34.0,35.0,-44.860836029052734,29.846189498901367,-20.507810592651367,-1.7298583984375,0.23876953125,0.3585205078125
5.059,310,971,1831,312,14.0,36.0,33.0,-69.27490234375,28.137205123901367,-14.404295921325684,-1.4415283203125,-0.0379638671875,0.377197265625
5.074,311,917,1757,312,14.0,36.0,33.0,-55.175777435302734,22.644041061401367,-7.751464366912842,-1.4415283203125,-0.0379638671875,0.377197265625
5.079,297,861,1681,312,14.0,36.0,33.0,-25.451658248901367,17.88330078125,-0.4272460639476776,-1.376220703125,0.065185546875,0.3665771484375
5.090,311,741,1518,312,14.0,36.0,33.0,-9.521484375,17.08984375,8.11767578125,-1.1982421875,0.0526123046875,0.2152099609375
5.104,310,683,1415,312,14.0,36.0,33.0,-10.070799827575684,20.385740280151367,16.357421875,-1.1982421875,0.0526123046875,0.2152099609375
5.133,297,608,1297,311,14.0,36.0,33.0,-5.981444835662842,25.939939498901367,20.202634811401367,-0.9825439453125,-0.1536865234375,0.1651611328125
5.133,310,522,1071,311,14.0,36.0,33.0,21.545408248901367,32.71484375,17.333984375,-0.6094970703125,-0.3529052734375,0.1412353515625
5.133,310,477,944,311,14.0,36.0,33.0,66.7724609375,41.809078216552734,10.070799827575684,-0.6094970703125,-0.3529052734375,0.1412353515625
5.142,309,444,809,311,14.0,36.0,33.0,112.24364471435547,55.175777435302734,2.685546636581421,-0.53271484375,-0.37158203125,0.1502685546875
5.149,310,423,601,310,14.0,36.0,33.0,174.49949645996094,81.60399627685547,-2.0751953125,-0.5419921875,-0.00537109375,0.10888671875
5.161,310,402,530,310,12.0,36.0,37.0,174.49949645996094,81.60399627685547,-2.0751953125,-0.5377197265625,0.3238525390625,-0.0101318359375
5.166,310,396,473,311,12.0,36.0,37.0,182.49510192871094,84.96092987060547,2.44140625,-0.5377197265625,0.3238525390625,-0.0101318359375
5.179,308,381,438,310,12.0,36.0,37.0,132.568359375,65.61279296875,6.835937023162842,-0.517333984375,0.63427734375,-0.121337890625
5.187,310,368,436,311,12.0,36.0,37.0,132.568359375,65.61279296875,6.835937023162842,-0.581298828125,0.5687255859375,-0.0234375
5.196,310,364,435,309,12.0,36.0,37.0,77.63671875,44.372554779052734,6.347655773162842,-0.581298828125,0.5687255859375,-0.0234375
5.209,310,373,442,309,12.0,36.0,37.0,-13.854979515075684,6.652831554412842,6.225585460662842,-0.6600341796875,0.171630859375,0.224853515625
5.235,310,383,439,310,12.0,36.0,37.0,-13.854979515075684,6.652831554412842,6.225585460662842,-0.680419921875,0.017578125,0.2235107421875
5.235,310,391,450,309,12.0,36.0,37.0,-17.4560546875,1.6479490995407104,0.3662109076976776,-0.680419921875,0.017578125,0.2235107421875
5.240,310,400,467,308,12.0,36.0,37.0,20.080564498901367,2.685546636581421,-11.535643577575684,-0.84716796875,0.0059814453125,0.08984375
5.254,311,410,483,310,12.0,36.0,37.0,20.080564498901367,2.685546636581421,-11.535643577575684,-0.8995361328125,0.10107421875,0.0760498046875
5.255,308,419,483,310,10.0,36.0,34.0,31.616209030151367,1.7700194120407104,-10.742186546325684,-0.8995361328125,0.10107421875,0.0760498046875
5.269,310,424,496,310,10.0,36.0,34.0,31.616209030151367,-1.4648436307907104,-3.662109136581421,-0.9202880859375,0.2054443359375,0.128173828125
5.278,309,430,508,310,10.0,36.0,34.0,31.616209030151367,-1.4648436307907104,-3.662109136581421,-0.9376220703125,0.1719970703125,0.12109375
5.285,310,439,518,310,10.0,36.0,34.0,27.038572311401367,-3.295898199081421,-2.807616949081421,-0.9376220703125,0.1719970703125,0.12109375
5.299,310,465,527,310,10.0,36.0,34.0,22.521970748901367,-8.48388671875,-0.6103515625,-0.95849609375,0.0740966796875,0.061767578125
5.308,308,481,531,310,10.0,36.0,34.0,20.874021530151367,-12.207030296325684,3.295898199081421,-0.939697265625,0.071533203125,0.038818359375
5.315,310,502,526,310,10.0,36.0,34.0,20.874021530151367,-12.207030296325684,3.295898199081421,-0.911376953125,0.0897216796875,0.0250244140625
5.336,310,530,540,310,10.0,36.0,34.0,10.070799827575684,-21.972654342651367,12.390135765075684,-0.9014892578125,0.093994140625,0.0206298828125
5.337,309,551,561,310,10.0,36.0,34.0,4.39453125,-28.076169967651367,14.709471702575684,-0.9105224609375,0.087890625,0.0028076171875
5.345,308,573,594,310,10.0,36.0,34.0,4.39453125,-28.076169967651367,14.709471702575684,-0.8907470703125,0.0743408203125,-0.025634765625
5.359,310,629,740,310,8.0,37.0,33.0,2.01416015625,-41.748043060302734,16.845703125,-0.7791748046875,0.0712890625,-0.048583984375
5.368,311,658,861,311,8.0,37.0,33.0,-3.967284917831421,-53.649898529052734,13.000487327575684,-0.5693359375,0.143798828125,-0.1224365234375
5.379,310,698,1022,311,8.0,37.0,33.0,-3.967284917831421,-53.649898529052734,13.000487327575684,-0.39990234375,0.307373046875,-0.3172607421875
5.390,310,756,1268,312,8.0,37.0,33.0,-109.19188690185547,-78.91845703125,-14.160155296325684,-0.3736572265625,0.4271240234375,-0.47216796875
5.398,310,803,1374,312,8.0,37.0,33.0,-205.32225036621094,-80.50536346435547,-14.892577171325684,-0.394287109375,0.3509521484375,-0.323974609375
5.411,310,861,1500,311,8.0,37.0,33.0,-205.32225036621094,-80.50536346435547,-14.892577171325684,-0.4493408203125,0.181884765625,0.0667724609375
5.422,310,933,1743,313,8.0,37.0,33.0,-244.07957458496094,-76.35498046875,9.033203125,-0.646240234375,0.17431640625,0.4093017578125
5.446,311,973,1845,314,8.0,37.0,33.0,-187.92723083496094,-68.7255859375,9.33837890625,-0.9854736328125,0.185791015625,0.6676025390625
5.447,312,1008,1905,313,8.0,37.0,33.0,-187.92723083496094,-68.7255859375,9.33837890625,-1.29833984375,-0.1070556640625,0.9058837890625
5.450,310,1051,1963,314,8.0,37.0,33.0,-118.10301971435547,-55.419918060302734,-15.563963890075684,-1.4302978515625,-0.4560546875,0.96630859375
5.457,312,1078,1991,312,14.0,31.0,33.0,-62.805171966552734,-36.31591796875,-21.179197311401367,-1.4676513671875,-0.4268798828125,0.7469482421875
5.465,310,1094,2008,315,14.0,31.0,33.0,7.202147960662842,-11.840819358825684,-15.991209983825684,-1.5609130859375,-0.0458984375,0.4227294921875
5.479,310,1122,2035,313,14.0,31.0,33.0,48.889156341552734,2.13623046875,-6.408690929412842,-1.7125244140625,0.3616943359375,0.2230224609375
5.490,311,1112,2035,314,14.0,31.0,33.0,49.377437591552734,1.03759765625,1.7700194120407104,-1.8062744140625,0.4970703125,0.1732177734375
5.499,312,1103,2032,314,14.0,31.0,33.0,28.686521530151367,-5.493163585662842,5.798339366912842,-1.61962890625,0.2972412109375,0.1510009765625
5.514,311,1087,1997,312,14.0,31.0,33.0,15.502928733825684,-6.713866710662842,4.2724609375,-1.1947021484375,0.0516357421875,0.1646728515625
5.517,310,1076,1975,312,14.0,31.0,33.0,24.841306686401367,-3.051757574081421,-2.624511480331421,-0.912109375,0.0684814453125,0.263671875
5.545,310,1076,1974,313,14.0,31.0,33.0,42.053218841552734,2.197265625,-11.901854515075684,-0.8822021484375,0.2303466796875,0.3599853515625
5.545,310,1035,1948,312,14.0,31.0,33.0,43.579097747802734,11.657713890075684,-19.95849609375,-1.0821533203125,0.3779296875,0.3807373046875
5.547,310,1051,1979,313,14.0,31.0,33.0,21.606443405151367,23.437498092651367,-24.108884811401367,-1.4178466796875,0.4468994140625,0.3487548828125
5.558,311,1038,1965,313,14.0,33.0,34.0,-16.54052734375,30.090330123901367,-23.803709030151367,-1.61083984375,0.3172607421875,0.3233642578125
5.569,311,1000,1920,314,14.0,33.0,34.0,-46.691890716552734,28.930662155151367,-20.751951217651367,-1.57421875,0.0831298828125,0.3201904296875
5.585,312,964,1880,312,14.0,33.0,34.0,-49.133296966552734,23.376462936401367,-15.930174827575684,-1.4561767578125,-0.042236328125,0.3341064453125
5.596,297,902,1816,312,14.0,33.0,34.0,-32.71484375,17.08984375,-8.9111328125,-1.3861083984375,-0.0133056640625,0.3466796875
5.601,311,846,1682,314,14.0,33.0,34.0,-18.85986328125,12.268065452575684,0.8544921278953552,-1.3614501953125,0.0462646484375,0.329345703125
5.617,311,780,1584,312,14.0,33.0,34.0,-16.7236328125,10.437010765075684,12.084959983825684,-1.3258056640625,0.03955078125,0.282958984375
5.618,311,716,1472,312,14.0,33.0,34.0,-15.686034202575684,11.596678733825684,21.484373092651367,-1.2259521484375,-0.039306640625,0.24462890625
5.646,309,621,1284,312,14.0,33.0,34.0,-0.6713866591453552,15.136717796325684,25.390623092651367,-1.040283203125,-0.1256103515625,0.2359619140625
5.647,309,566,1157,312,14.0,33.0,34.0,31.249998092651367,21.728513717651367,22.460935592651367,-0.82421875,-0.1865234375,0.2333984375
5.647,298,519,1029,312,14.0,33.0,34.0,70.3125,32.89794921875,14.465331077575684,-0.6746826171875,-0.2921142578125,0.2239990234375
5.660,310,439,827,310,12.0,38.0,36.0,109.19188690185547,49.865718841552734,5.0048828125,-0.6180419921875,-0.3824462890625,0.2095947265625
5.667,309,419,705,312,12.0,38.0,36.0,145.32470703125,69.76318359375,-2.38037109375,-0.59619140625,-0.294677734375,0.1695556640625
5.682,309,409,618,310,12.0,38.0,36.0,171.20359802246094,85.44921112060547,-5.371093273162842,-0.5838623046875,-0.0203857421875,0.0565185546875
5.689,310,386,496,309,12.0,38.0,36.0,179.38230895996094,92.04100799560547,-3.051757574081421,-0.563232421875,0.2979736328125,-0.1190185546875
5.705,309,372,437,310,12.0,38.0,36.0,169.12840270996094,88.50096893310547,1.7700194120407104,-0.5269775390625,0.5220947265625,-0.2449951171875
5.706,310,359,435,310,12.0,38.0,36.0,138.671875,74.0966796875,6.591796398162842,-0.5325927734375,0.625244140625,-0.24951171875
5.719,310,345,441,310,12.0,38.0,36.0,86.30370330810547,49.560543060302734,12.573241233825684,-0.5718994140625,0.591796875,-0.1407470703125
5.752,308,349,434,310,12.0,38.0,36.0,23.315427780151367,20.935056686401367,18.61572265625,-0.6007080078125,0.4052734375,0.03369140625
5.752,309,341,437,310,12.0,38.0,36.0,-25.695798873901367,-1.9531248807907104,20.324705123901367,-0.601806640625,0.1622314453125,0.2027587890625
5.752,310,380,464,309,11.0,38.0,34.0,-41.564937591552734,-13.549803733825684,15.624999046325684,-0.783203125,-0.0714111328125,0.231201171875
5.759,309,386,477,311,11.0,38.0,34.0,-25.329587936401367,-15.014647483825684,7.934569835662842,-0.783203125,-0.0714111328125,0.231201171875
5.765,310,394,490,310,11.0,38.0,34.0,2.44140625,-12.878417015075684,3.234863042831421,-0.896728515625,-0.0233154296875,0.204833984375
5.779,309,410,512,310,11.0,38.0,34.0,20.446775436401367,-12.145995140075684,3.784179449081421,-0.853515625,0.1795654296875,0.2713623046875
5.788,312,419,525,310,11.0,38.0,34.0,25.268552780151367,-11.596678733825684,6.408690929412842,-0.853515625,0.1795654296875,0.2713623046875
5.797,310,430,538,310,11.0,38.0,34.0,25.695798873901367,-9.521484375,6.896972179412842,-0.829345703125,0.21240234375,0.2828369140625
5.809,307,444,562,311,11.0,38.0,34.0,28.015134811401367,-7.141112804412842,4.82177734375,-0.863525390625,0.180419921875,0.127197265625
5.826,310,456,577,312,11.0,38.0,34.0,31.860349655151367,-6.530761241912842,1.8310545682907104,-0.863525390625,0.180419921875,0.127197265625
5.826,310,481,601,311,11.0,38.0,34.0,34.1796875,-8.97216796875,-0.1831054538488388,-0.8721923828125,0.1593017578125,0.02392578125
5.849,309,525,663,310,11.0,38.0,34.0,32.04345703125,-15.014647483825684,-0.1831054538488388,-0.7830810546875,0.17919921875,-0.0362548828125
5.849,295,546,740,310,9.0,36.0,40.0,22.888181686401367,-24.414060592651367,1.220703125,-0.7830810546875,0.17919921875,-0.0362548828125
5.861,310,572,819,310,9.0,36.0,40.0,6.225585460662842,-37.29248046875,1.0986328125,-0.7083740234375,0.215576171875,-0.0072021484375
5.869,310,646,1035,312,9.0,36.0,40.0,-18.85986328125,-52.124019622802734,-3.601073980331421,-0.509765625,0.26904296875,-0.20068359375
5.878,310,694,1175,312,9.0,36.0,40.0,-58.471675872802734,-63.171382904052734,-12.329100608825684,-0.509765625,0.26904296875,-0.20068359375
5.892,310,745,1300,312,9.0,36.0,40.0,-116.39403533935547,-68.115234375,-19.10400390625,-0.4678955078125,0.2091064453125,-0.3026123046875
5.899,310,835,1547,312,9.0,36.0,40.0,-173.64500427246094,-71.533203125,-16.05224609375,-0.431640625,0.1678466796875,0.0146484375
5.909,312,889,1704,312,9.0,36.0,40.0,-200.19529724121094,-76.96533203125,-3.662109136581421,-0.560302734375,0.2305908203125,0.2525634765625
5.930,310,938,1829,313,9.0,36.0,40.0,-192.81004333496094,-83.43505096435547,7.751464366912842,-0.560302734375,0.2305908203125,0.2525634765625
5.941,310,1009,1948,312,9.0,36.0,40.0,-161.01072692871094,-81.97020721435547,2.868652105331421,-1.2193603515625,-0.3450927734375,0.706298828125
5.947,310,1018,1985,310,9.0,36.0,40.0,-161.01072692871094,-81.97020721435547,2.868652105331421,-1.3946533203125,-0.618408203125,0.801025390625
5.954,311,1065,2001,314,9.0,36.0,40.0,-122.25341033935547,-61.950679779052734,-5.737304210662842,-1.3946533203125,-0.618408203125,0.801025390625
5.964,311,1112,2024,312,12.0,35.0,35.0,14.282225608825684,-3.479003667831421,-4.5166015625,-1.519287109375,0.0294189453125,0.48388671875
5.967,311,1133,2043,312,12.0,35.0,35.0,14.282225608825684,-3.479003667831421,-4.5166015625,-1.64453125,0.4638671875,0.3607177734375
5.975,311,1143,2057,314,12.0,35.0,35.0,46.386714935302734,10.437010765075684,1.9531248807907104,-1.64453125,0.4638671875,0.3607177734375
5.994,310,1134,2047,312,12.0,35.0,35.0,13.549803733825684,6.286620616912842,7.019042491912842,-1.8013916015625,0.461181640625,0.2598876953125
6.000,312,1129,2018,314,12.0,35.0,35.0,13.549803733825684,6.286620616912842,7.019042491912842,-1.4683837890625,0.1412353515625,0.194580078125
6.005,311,1103,1994,314,12.0,35.0,35.0,-5.126952648162842,2.197265625,5.249022960662842,-1.4683837890625,0.1412353515625,0.194580078125
6.028,310,1092,2001,312,12.0,35.0,35.0,34.72900390625,3.356933355331421,-10.070799827575684,-1.0157470703125,0.2218017578125,0.31201171875
6.028,312,1079,2003,314,12.0,35.0,35.0,34.72900390625,3.356933355331421,-10.070799827575684,-1.3243408203125,0.4725341796875,0.4288330078125
6.043,310,1065,1991,313,12.0,35.0,35.0,43.945308685302734,7.751464366912842,-18.5546875,-1.3243408203125,0.4725341796875,0.4288330078125
6.050,310,1020,1954,312,11.0,33.0,33.0,-42.785640716552734,21.850584030151367,-15.624999046325684,-1.7230224609375,0.239013671875,0.4537353515625
6.057,311,980,1913,313,11.0,33.0,33.0,-68.9697265625,23.803709030151367,-9.521484375,-1.5732421875,-0.020263671875,0.4188232421875
6.071,311,938,1865,312,11.0,33.0,33.0,-68.9697265625,23.803709030151367,-9.521484375,-1.428466796875,-0.06005859375,0.385009765625
6.081,311,853,1748,312,11.0,33.0,33.0,-17.76123046875,14.282225608825684,2.563476324081421,-1.341064453125,0.0341796875,0.346435546875
6.088,310,782,1665,312,11.0,33.0,33.0,0.2441406100988388,12.634276390075684,10.559081077575684,-1.2471923828125,0.0838623046875,0.295166015625
6.098,310,717,1565,312,11.0,33.0,33.0,0.2441406100988388,12.634276390075684,10.559081077575684,-1.0809326171875,-0.0023193359375,0.25048828125
6.109,310,614,1349,310,11.0,33.0,33.0,8.7890625,26.916501998901367,20.202634811401367,-0.864501953125,-0.1287841796875,0.21484375
6.117,311,563,1229,312,11.0,33.0,33.0,34.97314453125,37.41455078125,17.15087890625,-0.6822509765625,-0.217529296875,0.173583984375
6.129,310,510,1103,312,11.0,33.0,33.0,34.97314453125,37.41455078125,17.15087890625,-0.6131591796875,-0.3272705078125,0.144775390625
6.142,310,435,885,310,11.0,33.0,33.0,116.82128143310547,57.434078216552734,3.784179449081421,-0.6490478515625,-0.4178466796875,0.1300048828125
6.158,310,419,767,310,10.0,34.0,35.0,156.31103515625,70.61767578125,0.9155272841453552,-0.658447265625,-0.3243408203125,0.106201171875
6.158,311,410,654,311,10.0,34.0,35.0,156.31103515625,70.61767578125,0.9155272841453552,-0.5914306640625,0.0001220703125,0.0517578125
6.169,310,380,509,310,10.0,34.0,35.0,190.12449645996094,86.30370330810547,5.798339366912842,-0.5498046875,0.400634765625,-0.038330078125
6.189,310,354,444,309,10.0,34.0,35.0,163.45213317871094,77.94189453125,6.652831554412842,-0.5440673828125,0.637451171875,-0.09326171875
6.205,310,338,430,310,10.0,34.0,35.0,163.45213317871094,77.94189453125,6.652831554412842,-0.5487060546875,0.650390625,-0.0645751953125
6.206,310,327,420,310,10.0,34.0,35.0,57.861324310302734,40.222164154052734,5.249022960662842,-0.6038818359375,0.5484619140625,0.0362548828125
6.240,310,326,414,310,10.0,34.0,35.0,6.530761241912842,19.4091796875,6.713866710662842,-0.63525390625,0.3359375,0.17529296875
6.240,310,326,419,310,10.0,34.0,35.0,-19.10400390625,5.737304210662842,6.408690929412842,-0.663330078125,0.0794677734375,0.2088623046875
6.240,310,327,426,306,10.0,34.0,35.0,-1.4648436307907104,5.493163585662842,2.746581792831421,-0.7470703125,-0.0577392578125,0.116943359375
6.240,310,337,430,310,10.0,34.0,35.0,41.503902435302734,11.169432640075684,-0.6103515625,-0.7828369140625,-0.01806640625,0.0655517578125
6.258,310,345,436,309,9.0,36.0,37.0,68.359375,11.230467796325684,-2.807616949081421,-0.78564453125,0.11962890625,0.1124267578125
6.260,310,367,441,310,9.0,36.0,37.0,61.645503997802734,4.5166015625,-6.408690929412842,-0.831298828125,0.204833984375,0.23291015625
6.270,310,373,444,310,9.0,36.0,37.0,39.97802734375,-2.197265625,-10.681151390075684,-0.8978271484375,0.17822265625,0.3670654296875
6.275,310,372,451,310,9.0,36.0,37.0,30.273435592651367,-3.173827886581421,-12.573241233825684,-0.951904296875,0.0849609375,0.4127197265625
6.289,310,391,485,310,9.0,36.0,37.0,44.738765716552734,0.6103515625,-11.047362327575684,-0.95751953125,0.013916015625,0.3056640625
6.309,310,393,495,310,9.0,36.0,37.0,73.3642578125,3.906249761581421,-7.507323741912842,-0.9029541015625,0.038818359375,0.085693359375
6.309,310,399,491,296,9.0,36.0,37.0,91.24755096435547,3.479003667831421,-4.57763671875,-0.8612060546875,0.1312255859375,-0.124755859375
6.320,310,415,530,310,9.0,36.0,37.0,80.01708984375,-2.44140625,-2.624511480331421,-0.8829345703125,0.202392578125,-0.226318359375
6.332,314,430,533,309,9.0,36.0,37.0,44.372554779052734,-13.977049827575684,0.0,-0.92138671875,0.2003173828125,-0.20556640625
6.336,310,444,548,310,9.0,36.0,37.0,5.920409679412842,-27.526853561401367,4.08935546875,-0.9141845703125,0.1568603515625,-0.1378173828125
6.367,309,479,599,311,10.0,36.0,35.0,-19.59228515625,-38.6962890625,8.72802734375,-0.845458984375,0.1219482421875,-0.0712890625
6.367,309,505,631,309,10.0,36.0,35.0,-32.470703125,-47.546382904052734,11.901854515075684,-0.7288818359375,0.10888671875,-0.0048828125
6.367,310,533,683,296,10.0,36.0,35.0,-40.222164154052734,-55.541988372802734,11.779784202575684,-0.596435546875,0.14306640625,0.0274658203125
6.382,310,587,830,311,10.0,36.0,35.0,-53.405757904052734,-63.232418060302734,6.958007335662842,-0.4886474609375,0.2396240234375,-0.0025634765625
6.390,310,629,995,312,10.0,36.0,35.0,-85.87645721435547,-71.10595703125,-3.295898199081421,-0.443359375,0.350830078125,-0.0989990234375
6.403,310,660,1147,311,10.0,36.0,35.0,-145.5078125,-76.904296875,-14.099120140075684,-0.477783203125,0.426513671875,-0.2218017578125
6.412,310,756,1404,311,10.0,36.0,35.0,-223.44969177246094,-81.17675018310547,-16.17431640625,-0.5703125,0.4168701171875,-0.2191162109375
6.421,310,808,1557,312,10.0,36.0,35.0,-288.0859375,-88.68407440185547,-6.469726085662842,-0.6812744140625,0.2608642578125,0.03955078125
6.437,310,861,1698,312,10.0,36.0,35.0,-302.18505859375,-94.54344940185547,6.469726085662842,-0.8160400390625,0.041259765625,0.4215087890625
6.441,311,920,1846,312,10.0,36.0,35.0,-261.90185546875,-88.50096893310547,11.779784202575684,-0.945068359375,-0.1805419921875,0.7071533203125
6.465,310,966,1894,312,13.0,33.0,32.0,-196.28904724121094,-70.3125,5.859374523162842,-1.0218505859375,-0.4193115234375,0.8385009765625
6.465,298,1000,1927,313,13.0,33.0,32.0,-122.07030487060547,-45.837398529052734,-4.21142578125,-1.115478515625,-0.497802734375,0.8179931640625
6.470,310,1050,1961,313,13.0,33.0,32.0,-46.142574310302734,-20.202634811401367,-8.9111328125,-1.2864990234375,-0.3084716796875,0.6793212890625
6.480,310,1078,1966,313,13.0,33.0,32.0,9.94873046875,0.0610351525247097,-7.263183116912842,-1.4793701171875,-0.02294921875,0.52490234375
6.486,310,1094,1975,314,13.0,33.0,32.0,34.48486328125,10.925292015075684,-4.08935546875,-1.6192626953125,0.1951904296875,0.4248046875
6.508,310,1109,1989,314,13.0,33.0,32.0,39.0625,14.038084983825684,-2.197265625,-1.7008056640625,0.3544921875,0.3358154296875
6.508,310,1089,1975,295,13.0,33.0,32.0,33.63037109375,12.695311546325684,-0.7324218153953552,-1.712158203125,0.4241943359375,0.2315673828125
6.516,312,1098,1965,314,13.0,33.0,32.0,20.935056686401367,9.58251953125,0.6103515625,-1.5340576171875,0.3062744140625,0.135986328125
6.539,310,1055,1929,313,13.0,33.0,32.0,11.901854515075684,7.690429210662842,-0.3662109076976776,-0.97802734375,0.099609375,0.191650390625
6.539,297,1054,1925,312,13.0,33.0,32.0,17.4560546875,7.629394054412842,-5.615233898162842,-0.97802734375,0.099609375,0.191650390625
6.566,311,1039,1927,312,9.0,33.0,38.0,26.916501998901367,9.6435546875,-13.549803733825684,-1.0020751953125,0.1641845703125,0.34619140625
6.566,297,1018,1913,312,9.0,33.0,38.0,20.812986373901367,16.11328125,-18.98193359375,-1.5650634765625,0.3243408203125,0.5006103515625
6.568,310,992,1894,314,9.0,33.0,38.0,-8.7890625,24.902341842651367,-17.51708984375,-1.5650634765625,0.3243408203125,0.5006103515625
6.578,310,966,1860,312,9.0,33.0,38.0,-47.119136810302734,30.151365280151367,-10.742186546325684,-1.6500244140625,0.1837158203125,0.48583984375
6.592,312,894,1761,312,9.0,33.0,38.0,-60.729976654052734,30.151365280151367,-3.967284917831421,-1.4544677734375,-0.0087890625,0.40234375
6.605,310,848,1701,312,9.0,33.0,38.0,-39.6728515625,27.587888717651367,0.30517578125,-1.3614501953125,0.0545654296875,0.34375
6.617,310,794,1625,312,9.0,33.0,38.0,-9.58251953125,25.207517623901367,4.5166015625,-1.3614501953125,0.0545654296875,0.34375
6.622,308,691,1460,312,9.0,33.0,38.0,12.695311546325684,26.550291061401367,16.11328125,-1.040283203125,-0.0654296875,0.244384765625
6.628,310,635,1362,312,9.0,33.0,38.0,12.695311546325684,26.550291061401367,16.11328125,-0.8280029296875,-0.220947265625,0.2183837890625
6.641,310,600,1264,312,9.0,33.0,38.0,26.245115280151367,31.311033248901367,18.00537109375,-0.8280029296875,-0.220947265625,0.2183837890625
6.653,308,524,1051,310,10.0,34.0,41.0,93.44481658935547,46.508785247802734,10.864256858825684,-0.655029296875,-0.2506103515625,0.1431884765625
6.675,308,475,935,311,10.0,34.0,41.0,93.44481658935547,46.508785247802734,10.864256858825684,-0.680908203125,-0.2598876953125,0.132080078125
6.675,310,425,840,310,10.0,34.0,41.0,124.38964080810547,58.471675872802734,6.225585460662842,-0.680908203125,-0.2598876953125,0.132080078125
6.683,309,423,689,310,10.0,34.0,41.0,186.03514099121094,90.45409393310547,5.493163585662842,-0.5794677734375,0.0318603515625,0.1217041015625
6.688,309,419,639,309,10.0,34.0,41.0,186.03514099121094,90.45409393310547,5.493163585662842,-0.5045166015625,0.3875732421875,-0.024658203125
6.696,310,408,594,311,10.0,34.0,41.0,201.90428161621094,99.24315643310547,5.126952648162842,-0.5045166015625,0.3875732421875,-0.024658203125
6.710,309,396,561,310,10.0,34.0,41.0,119.99510955810547,75.74462890625,-2.624511480331421,-0.5531005859375,0.455810546875,-0.10205078125
6.726,309,400,551,310,10.0,34.0,41.0,119.99510955810547,75.74462890625,-2.624511480331421,-0.6038818359375,0.3487548828125,0.013427734375
6.727,299,382,554,310,10.0,34.0,41.0,71.10595703125,55.541988372802734,-0.30517578125,-0.6038818359375,0.3487548828125,0.013427734375
6.742,309,399,566,309,10.0,34.0,41.0,29.968259811401367,22.644041061401367,12.634276390075684,-0.67822265625,0.2294921875,0.2320556640625
6.748,310,402,563,310,7.0,36.0,33.0,26.245115280151367,13.610838890075684,8.30078125,-0.740478515625,0.1383056640625,0.24755859375
6.769,310,407,564,310,7.0,36.0,33.0,26.245115280151367,13.610838890075684,8.30078125,-0.8375244140625,0.0535888671875,0.1751708984375
6.770,308,411,561,310,7.0,36.0,33.0,34.36279296875,11.291502952575684,-8.9111328125,-0.9219970703125,0.0284423828125,0.0531005859375
6.778,310,423,566,310,7.0,36.0,33.0,37.4755859375,11.596678733825684,-9.33837890625,-0.968505859375,0.0675048828125,-0.039794921875
6.786,310,424,562,310,7.0,36.0,33.0,37.4755859375,11.596678733825684,-9.33837890625,-0.9825439453125,0.13330078125,-0.0693359375
6.801,310,444,578,310,7.0,36.0,33.0,31.555173873901367,0.54931640625,-2.01416015625,-0.9754638671875,0.164794921875,-0.0513916015625
6.822,310,452,584,310,7.0,36.0,33.0,24.047849655151367,-7.873534679412842,0.4272460639476776,-0.9576416015625,0.13134765625,-0.009521484375
6.823,310,465,585,309,7.0,36.0,33.0,24.047849655151367,-7.873534679412842,0.4272460639476776,-0.941650390625,0.07470703125,0.03271484375
6.834,310,481,599,312,7.0,36.0,33.0,10.192870140075684,-17.822265625,2.868652105331421,-0.933837890625,0.0372314453125,0.0679931640625
6.845,308,485,605,308,7.0,36.0,33.0,4.94384765625,-20.324705123901367,5.310058116912842,-0.91748046875,0.0142822265625,0.0989990234375
6.846,310,495,616,309,9.0,36.0,39.0,4.94384765625,-20.324705123901367,5.310058116912842,-0.883056640625,0.01318359375,0.1002197265625
6.977,309,530,653,310,9.0,36.0,39.0,-0.4272460639476776,-28.137205123901367,12.756346702575684,-0.836669921875,0.0496826171875,0.0555419921875
6.979,309,548,689,310,9.0,36.0,39.0,-4.2724609375,-36.1328125,15.197752952575684,-0.7862548828125,0.1171875,-0.0203857421875
6.979,311,574,749,310,9.0,36.0,39.0,-4.2724609375,-36.1328125,15.197752952575684,-0.7177734375,0.198974609375,-0.0927734375
6.979,310,629,884,311,9.0,36.0,39.0,-37.4755859375,-60.119625091552734,12.023924827575684,-0.5980224609375,0.3092041015625,-0.15380859375
6.979,310,668,1001,297,9.0,36.0,39.0,-74.8291015625,-69.091796875,5.920409679412842,-0.4697265625,0.419189453125,-0.2159423828125
6.979,310,703,1175,312,9.0,36.0,39.0,-132.01904296875,-74.5849609375,-1.2817381620407104,-0.39501953125,0.4539794921875,-0.2337646484375
6.980,310,796,1377,298,9.0,36.0,39.0,-195.80076599121094,-78.369140625,-3.906249761581421,-0.3870849609375,0.4193115234375,-0.1640625
6.980,296,840,1598,311,9.0,36.0,39.0,-240.35643005371094,-80.62743377685547,-0.0610351525247097,-0.4462890625,0.341552734375,0.0179443359375
6.980,311,901,1774,312,9.0,36.0,39.0,-251.22068786621094,-80.44432830810547,4.2724609375,-0.6231689453125,0.2054443359375,0.2735595703125
6.980,298,959,1920,313,12.0,34.0,41.0,-237.12156677246094,-75.5615234375,2.38037109375,-0.9306640625,-0.125,0.537353515625
6.980,310,964,1927,311,12.0,34.0,41.0,-204.58982849121094,-63.903804779052734,-6.164550304412842,-1.1741943359375,-0.5841064453125,0.77099609375
6.980,312,1003,2000,311,12.0,34.0,41.0,-137.0849609375,-43.029781341552734,-14.953612327575684,-1.2767333984375,-0.7200927734375,0.8243408203125
6.980,310,1078,2024,313,12.0,34.0,41.0,-46.142574310302734,-15.991209983825684,-16.66259765625,-1.4036865234375,-0.3896484375,0.626220703125
6.989,310,1099,2032,314,12.0,34.0,41.0,18.00537109375,5.554198741912842,-10.070799827575684,-1.5992431640625,0.0562744140625,0.3662109375
6.997,310,1117,2045,312,12.0,34.0,41.0,34.3017578125,13.305663108825684,-0.6103515625,-1.8052978515625,0.36279296875,0.2244873046875
7.010,310,1105,2030,312,12.0,34.0,41.0,22.766111373901367,8.97216796875,5.981444835662842,-1.95068359375,0.499267578125,0.19482421875
7.019,311,1092,2005,313,12.0,34.0,41.0,6.347655773162842,0.6103515625,7.507323741912842,-1.7735595703125,0.3616943359375,0.197265625
7.032,311,1050,1981,312,12.0,34.0,41.0,4.57763671875,-2.01416015625,1.8920897245407104,-1.2896728515625,0.1298828125,0.232177734375
7.041,310,1029,1974,312,11.0,33.0,34.0,27.465818405151367,2.746581792831421,-10.925292015075684,-0.9630126953125,0.1385498046875,0.3111572265625
7.049,310,1017,1979,312,11.0,33.0,34.0,48.400875091552734,9.94873046875,-24.475095748901367,-1.06201171875,0.3231201171875,0.3992919921875
7.079,311,1000,1974,312,11.0,33.0,34.0,34.97314453125,17.76123046875,-29.113767623901367,-1.4329833984375,0.4488525390625,0.449951171875
7.079,311,963,1943,313,11.0,33.0,34.0,-10.803221702575684,25.268552780151367,-22.827146530151367,-1.6640625,0.3182373046875,0.439208984375
7.080,310,935,1911,313,11.0,33.0,34.0,-52.734371185302734,29.907224655151367,-12.878417015075684,-1.5916748046875,0.039794921875,0.3931884765625
7.090,310,904,1867,312,11.0,33.0,34.0,-53.283687591552734,29.235837936401367,-5.981444835662842,-1.4176025390625,-0.0880126953125,0.336669921875
7.104,311,834,1774,311,11.0,33.0,34.0,-19.6533203125,23.742673873901367,-2.25830078125,-1.3045654296875,-0.0208740234375,0.2801513671875
7.108,310,778,1694,312,11.0,33.0,34.0,11.657713890075684,18.310546875,1.6479490995407104,-1.2412109375,0.0748291015625,0.23046875
7.121,310,725,1619,312,11.0,33.0,34.0,22.399900436401367,16.90673828125,7.019042491912842,-1.1524658203125,0.0390625,0.199951171875
7.136,310,632,1445,310,11.0,33.0,34.0,24.963376998901367,19.59228515625,11.474608421325684,-1.0030517578125,-0.1265869140625,0.1903076171875
7.138,310,594,1355,311,14.0,36.0,31.0,40.466304779052734,25.085447311401367,13.000487327575684,-0.8450927734375,-0.2569580078125,0.1815185546875
7.154,310,542,1232,313,14.0,36.0,31.0,72.998046875,31.311033248901367,12.268065452575684,-0.7608642578125,-0.2950439453125,0.16552734375
7.176,310,473,1013,311,14.0,36.0,31.0,108.58153533935547,38.57421875,10.803221702575684,-0.7425537109375,-0.2926025390625,0.1451416015625
7.182,310,435,904,310,14.0,36.0,31.0,136.23046875,49.499507904052734,10.070799827575684,-0.72265625,-0.2615966796875,0.1044921875
7.182,310,425,806,310,14.0,36.0,31.0,157.89794921875,64.02587890625,12.023924827575684,-0.6826171875,-0.1859130859375,0.084228515625
7.190,310,417,673,310,14.0,36.0,31.0,180.17576599121094,76.0498046875,16.41845703125,-0.6190185546875,0.006591796875,0.066650390625
7.198,310,408,608,310,14.0,36.0,31.0,195.12937927246094,79.9560546875,19.59228515625,-0.5616455078125,0.2977294921875,-0.01806640625
7.206,310,399,561,310,14.0,36.0,31.0,183.10545349121094,74.0966796875,18.5546875,-0.538330078125,0.513427734375,-0.11572265625
7.223,310,391,509,310,14.0,36.0,31.0,139.6484375,59.082027435302734,13.916014671325684,-0.53076171875,0.52099609375,-0.0631103515625
7.228,310,391,512,311,14.0,36.0,31.0,81.42089080810547,38.87939453125,8.85009765625,-0.53076171875,0.52099609375,-0.0631103515625
7.243,310,393,524,310,14.0,36.0,31.0,25.878904342651367,17.02880859375,5.310058116912842,-0.6143798828125,0.4178466796875,0.07958984375
7.254,310,396,531,310,10.0,41.0,36.0,-13.671874046325684,-2.0751953125,1.8920897245407104,-0.8165283203125,0.0494384765625,0.30517578125
7.258,308,407,537,310,10.0,41.0,36.0,-24.047849655151367,-11.108397483825684,-2.990722417831421,-0.8165283203125,0.0494384765625,0.30517578125
7.286,310,411,540,310,10.0,41.0,36.0,-6.469726085662842,-8.30078125,-7.629394054412842,-0.867431640625,0.04736328125,0.2757568359375
7.286,311,423,547,310,10.0,41.0,36.0,17.88330078125,-0.4882812201976776,-10.620116233825684,-0.8935546875,0.158935546875,0.145263671875
7.288,310,425,558,310,10.0,41.0,36.0,31.738279342651367,5.554198741912842,-12.695311546325684,-0.8935546875,0.158935546875,0.145263671875
7.297,310,433,554,310,10.0,41.0,36.0,35.0341796875,7.568358898162842,-13.488768577575684,-0.9034423828125,0.1630859375,0.0892333984375
7.310,309,454,572,310,10.0,41.0,36.0,33.87451171875,5.798339366912842,-12.573241233825684,-0.9139404296875,0.0960693359375,-0.0096435546875
7.327,309,473,579,310,10.0,41.0,36.0,31.066892623901367,1.03759765625,-10.253905296325684,-0.9139404296875,0.0960693359375,-0.0096435546875
7.328,308,481,587,310,10.0,41.0,36.0,26.794431686401367,-6.286620616912842,-6.530761241912842,-0.9132080078125,0.0496826171875,-0.0296630859375
7.348,310,506,606,309,11.0,37.0,40.0,20.874021530151367,-15.075682640075684,-1.3427733182907104,-0.9024658203125,0.0208740234375,0.02685546875
7.356,309,527,620,310,11.0,37.0,40.0,14.343260765075684,-23.376462936401367,4.5166015625,-0.89794921875,0.057373046875,0.0701904296875
7.356,308,547,657,310,11.0,37.0,40.0,9.1552734375,-29.479978561401367,10.192870140075684,-0.89794921875,0.057373046875,0.0701904296875
7.387,310,588,763,310,11.0,37.0,40.0,5.981444835662842,-37.29248046875,17.76123046875,-0.779541015625,0.0982666015625,0.0726318359375
7.394,309,620,907,311,11.0,37.0,40.0,5.981444835662842,-37.29248046875,17.76123046875,-0.537841796875,0.126953125,-0.0164794921875
7.395,310,657,1096,311,11.0,37.0,40.0,6.286620616912842,-43.640132904052734,18.1884765625,-0.537841796875,0.126953125,-0.0164794921875
7.401,310,728,1351,311,11.0,37.0,40.0,-67.68798828125,-66.83349609375,-9.58251953125,-0.0865478515625,0.5185546875,-0.620361328125
7.408,310,799,1474,312,11.0,37.0,40.0,-67.68798828125,-66.83349609375,-9.58251953125,-0.302001953125,0.47412109375,-0.53759765625
7.417,311,861,1634,311,11.0,37.0,40.0,-184.87547302246094,-75.8056640625,-22.888181686401367,-0.302001953125,0.47412109375,-0.53759765625
7.430,308,947,1900,312,11.0,37.0,40.0,-289.24560546875,-82.51952362060547,-3.051757574081421,-0.7694091796875,0.2646484375,0.38330078125
7.438,310,982,1994,312,14.0,36.0,31.0,-289.24560546875,-82.51952362060547,-3.051757574081421,-1.16552734375,0.0252685546875,0.7044677734375
7.448,310,1000,2030,314,14.0,36.0,31.0,-256.4697265625,-71.96044921875,-2.929687261581421,-1.16552734375,0.0252685546875,0.7044677734375
7.464,310,1054,2087,312,14.0,36.0,31.0,-167.23631286621094,-39.48974609375,-21.789548873901367,-1.50634765625,-0.5107421875,0.9559326171875
7.488,310,1078,2104,313,14.0,36.0,31.0,-167.23631286621094,-39.48974609375,-21.789548873901367,-1.6123046875,-0.37841796875,0.6829833984375
7.488,311,1089,2108,311,14.0,36.0,31.0,-89.47753143310547,-15.930174827575684,-21.057126998901367,-1.6123046875,-0.37841796875,0.6829833984375
7.490,310,1108,2116,312,14.0,36.0,31.0,18.37158203125,12.268065452575684,-6.896972179412842,-1.830810546875,0.014404296875,0.3118896484375
7.499,311,1103,2089,314,14.0,36.0,31.0,18.37158203125,12.268065452575684,-6.896972179412842,-1.819091796875,0.133056640625,0.232666015625
7.507,311,1094,2069,312,14.0,36.0,31.0,32.53173828125,11.413573265075684,-1.2817381620407104,-1.4686279296875,0.1060791015625,0.1385498046875
7.521,312,1041,2024,312,14.0,36.0,31.0,43.579097747802734,14.709471702575684,-2.563476324081421,-1.055419921875,0.1932373046875,0.1016845703125
7.530,311,1035,2020,311,14.0,36.0,31.0,55.053707122802734,18.37158203125,-10.681151390075684,-0.9171142578125,0.3419189453125,0.15673828125
7.537,310,1034,2030,310,13.0,34.0,36.0,55.053707122802734,18.37158203125,-10.681151390075684,-1.065673828125,0.37353515625,0.2476806640625
7.551,311,1014,2026,312,13.0,34.0,36.0,18.06640625,20.812986373901367,-19.6533203125,-1.3681640625,0.3096923828125,0.3260498046875
7.574,311,1000,2009,313,13.0,34.0,36.0,-17.333984375,21.362302780151367,-15.197752952575684,-1.52783203125,0.12255859375,0.3638916015625
7.591,310,982,1991,312,13.0,34.0,36.0,-17.333984375,21.362302780151367,-15.197752952575684,-1.463623046875,-0.07373046875,0.33837890625
7.591,296,943,1939,311,13.0,34.0,36.0,-32.28759765625,15.869139671325684,0.0,-1.3436279296875,-0.1341552734375,0.281005859375
7.592,311,917,1892,312,13.0,34.0,36.0,-11.108397483825684,10.498045921325684,7.324218273162842,-1.2906494140625,-0.066650390625,0.2486572265625
7.597,311,877,1838,313,13.0,34.0,36.0,-11.108397483825684,10.498045921325684,7.324218273162842,-1.2913818359375,0.035888671875,0.25244140625
7.610,310,819,1721,312,13.0,34.0,36.0,12.390135765075684,3.662109136581421,23.376462936401367,-1.2681884765625,0.0694580078125,0.27783203125
7.619,311,784,1627,314,13.0,34.0,36.0,14.404295921325684,4.8828125,29.052732467651367,-1.1689453125,0.0230712890625,0.307861328125
7.633,310,744,1529,312,13.0,34.0,36.0,14.404295921325684,4.8828125,29.052732467651367,-1.0093994140625,-0.0565185546875,0.32275390625
7.640,310,654,1340,310,13.0,33.0,33.0,47.485347747802734,16.357421875,25.085447311401367,-0.879638671875,-0.095703125,0.30517578125
7.648,311,603,1231,312,13.0,33.0,33.0,73.8525390625,25.329587936401367,18.24951171875,-0.836181640625,-0.065185546875,0.2364501953125
7.671,309,558,1108,311,13.0,33.0,33.0,93.56688690185547,37.109375,13.000487327575684,-0.8267822265625,-0.0830078125,0.1387939453125
7.671,310,478,891,310,13.0,33.0,33.0,108.09325408935547,52.062984466552734,10.070799827575684,-0.8067626953125,-0.2044677734375,0.05810546875
7.694,308,449,803,310,13.0,33.0,33.0,131.8359375,67.93212890625,9.33837890625,-0.7606201171875,-0.2423095703125,-0.0003662109375
7.694,310,437,704,310,13.0,33.0,33.0,162.29246520996094,79.1015625,9.94873046875,-0.6749267578125,-0.063720703125,-0.05029296875
7.701,310,411,590,310,13.0,33.0,33.0,174.37742614746094,79.04052734375,10.192870140075684,-0.6041259765625,0.2032470703125,-0.103759765625
7.708,310,407,545,310,13.0,33.0,33.0,153.1982421875,67.81005859375,9.09423828125,-0.581298828125,0.37744140625,-0.1500244140625
7.716,309,400,508,310,13.0,33.0,33.0,109.49706268310547,50.842281341552734,6.530761241912842,-0.56689453125,0.39208984375,-0.149169921875
7.732,309,394,456,309,13.0,33.0,33.0,63.659664154052734,32.8369140625,4.45556640625,-0.575439453125,0.36376953125,-0.08935546875
7.742,310,394,449,310,10.0,35.0,39.0,27.282712936401367,15.624999046325684,6.103515148162842,-0.638916015625,0.369140625,0.0174560546875
7.746,310,394,449,308,10.0,35.0,39.0,1.7700194120407104,0.2441406100988388,10.681151390075684,-0.727294921875,0.3316650390625,0.1497802734375
7.795,310,402,468,310,10.0,35.0,39.0,-11.901854515075684,-9.94873046875,12.756346702575684,-0.7879638671875,0.238037109375,0.2618408203125
7.795,310,407,475,310,10.0,35.0,39.0,-11.352538108825684,-12.451170921325684,8.97216796875,-0.81640625,0.1629638671875,0.30908203125
7.796,310,411,495,309,10.0,35.0,39.0,-1.15966796875,-9.033203125,1.2817381620407104,-0.8443603515625,0.1275634765625,0.2872314453125
7.796,310,419,518,310,10.0,35.0,39.0,10.375975608825684,-3.601073980331421,-5.859374523162842,-0.862548828125,0.1083984375,0.2244873046875
7.799,308,425,522,310,10.0,35.0,39.0,20.263669967651367,1.03759765625,-9.1552734375,-0.8692626953125,0.107666015625,0.1427001953125
7.806,310,430,530,310,10.0,35.0,39.0,27.587888717651367,2.685546636581421,-8.30078125,-0.876953125,0.1134033203125,0.0736083984375
7.820,309,438,552,310,10.0,35.0,39.0,30.883787155151367,0.30517578125,-5.493163585662842,-0.880126953125,0.103515625,0.0299072265625
7.828,310,469,574,310,10.0,35.0,39.0,30.090330123901367,-5.065917491912842,-2.01416015625,-0.886962890625,0.0950927734375,-0.0078125
7.838,310,483,588,311,9.0,37.0,39.0,24.291990280151367,-12.451170921325684,2.38037109375,-0.8935546875,0.0911865234375,-0.02978515625
7.850,310,510,636,310,9.0,37.0,39.0,13.854979515075684,-21.118162155151367,7.446288585662842,-0.8829345703125,0.077880859375,-0.0189208984375
7.859,310,530,678,312,9.0,37.0,39.0,2.624511480331421,-29.907224655151367,12.329100608825684,-0.853759765625,0.073486328125,0.013671875
7.869,310,555,737,312,9.0,37.0,39.0,-4.7607421875,-37.90283203125,15.869139671325684,-0.802001953125,0.093505859375,0.0523681640625
7.897,310,601,907,311,9.0,37.0,39.0,-8.6669921875,-45.593257904052734,15.808104515075684,-0.7193603515625,0.1551513671875,0.0478515625
7.898,310,635,1104,312,9.0,37.0,39.0,-18.9208984375,-53.344722747802734,10.070799827575684,-0.5726318359375,0.2647705078125,-0.0709228515625
7.898,310,684,1258,311,9.0,37.0,39.0,-55.664058685302734,-58.837886810302734,-0.7324218153953552,-0.40673828125,0.3497314453125,-0.3096923828125
7.910,310,784,1472,311,9.0,37.0,39.0,-128.7841796875,-61.340328216552734,-9.6435546875,-0.326416015625,0.33056640625,-0.488525390625
7.918,310,853,1636,312,9.0,37.0,39.0,-208.31297302246094,-65.4296875,-7.019042491912842,-0.327880859375,0.2423095703125,-0.3555908203125
7.926,310,902,1792,312,9.0,37.0,39.0,-243.89646911621094,-74.15771484375,4.08935546875,-0.451416015625,0.209228515625,0.0361328125
7.941,312,959,1949,312,14.0,33.0,35.0,-229.98045349121094,-82.03124237060547,10.864256858825684,-0.80078125,0.169677734375,0.441650390625
7.949,311,982,1999,312,14.0,33.0,35.0,-205.13914489746094,-83.37401580810547,9.09423828125,-1.1962890625,-0.099365234375,0.7491455078125
7.958,310,1017,2028,312,14.0,33.0,35.0,-181.09129333496094,-74.40185546875,3.784179449081421,-1.381103515625,-0.4398193359375,0.8914794921875
7.971,311,1051,2055,313,14.0,33.0,35.0,-137.6953125,-53.955074310302734,0.8544921278953552,-1.4459228515625,-0.3204345703125,0.6265869140625
7.978,311,1064,2063,314,14.0,33.0,35.0,-72.509765625,-29.541013717651367,2.624511480331421,-1.4459228515625,-0.3204345703125,0.6265869140625
8.006,310,1074,2072,314,14.0,33.0,35.0,-5.432128429412842,-11.901854515075684,5.981444835662842,-1.5184326171875,0.00048828125,0.4737548828125
8.006,311,1092,2032,312,14.0,33.0,35.0,40.710445404052734,-5.554198741912842,7.629394054412842,-1.712890625,0.501220703125,0.343505859375
8.009,311,1081,2057,313,14.0,33.0,35.0,53.405757904052734,-6.530761241912842,9.033203125,-1.712890625,0.501220703125,0.343505859375
8.017,310,1067,2037,314,14.0,33.0,35.0,38.330078125,-7.324218273162842,10.681151390075684,-1.5753173828125,0.4232177734375,0.252197265625
8.032,311,1022,2001,314,14.0,33.0,35.0,22.155759811401367,-3.112792730331421,8.11767578125,-0.945068359375,0.2154541015625,0.2652587890625
8.042,310,1022,1999,314,14.0,33.0,33.0,26.672361373901367,4.150390625,-1.4038084745407104,-0.945068359375,0.2154541015625,0.2652587890625
8.047,310,1020,2003,314,14.0,33.0,33.0,36.68212890625,11.718749046325684,-13.610838890075684,-0.9676513671875,0.28564453125,0.3663330078125
8.061,310,999,1989,312,14.0,33.0,33.0,28.015134811401367,21.240232467651367,-21.301267623901367,-1.5390625,0.2841796875,0.4210205078125
8.079,311,985,1973,314,14.0,33.0,33.0,-3.662109136581421,30.456541061401367,-20.751951217651367,-1.5390625,0.2841796875,0.4210205078125
8.080,311,963,1951,314,14.0,33.0,33.0,-38.26904296875,34.5458984375,-14.404295921325684,-1.5819091796875,0.0882568359375,0.3916015625
8.103,310,913,1884,312,14.0,33.0,33.0,-44.433589935302734,32.40966796875,-7.873534679412842,-1.3262939453125,0.0062255859375,0.34130859375
8.103,311,874,1838,312,14.0,33.0,33.0,-19.8974609375,26.489255905151367,-3.295898199081421,-1.3262939453125,0.0062255859375,0.34130859375
8.106,311,832,1778,312,14.0,33.0,33.0,8.9111328125,21.057126998901367,1.5258787870407104,-1.2625732421875,0.1119384765625,0.3255615234375
8.122,312,742,1636,312,14.0,33.0,33.0,19.8974609375,21.667478561401367,14.648436546325684,-1.1356201171875,0.03466796875,0.2596435546875
8.128,310,693,1523,312,14.0,33.0,33.0,19.8974609375,21.667478561401367,14.648436546325684,-0.9993896484375,-0.131591796875,0.251708984375
8.137,311,644,1390,312,12.0,35.0,33.0,23.803709030151367,25.939939498901367,18.5546875,-0.9993896484375,-0.131591796875,0.251708984375
8.150,310,566,1139,311,12.0,35.0,33.0,86.60887908935547,37.4755859375,15.808104515075684,-0.81396484375,-0.274658203125,0.2578125
8.158,310,509,982,311,12.0,35.0,33.0,86.60887908935547,37.4755859375,15.808104515075684,-0.8125,-0.3009033203125,0.183349609375
8.166,311,467,847,312,12.0,35.0,33.0,126.83104705810547,46.203609466552734,12.145995140075684,-0.8125,-0.3009033203125,0.183349609375
8.183,310,428,666,311,12.0,35.0,33.0,189.14793395996094,75.68359375,8.1787109375,-0.705078125,-0.165771484375,-0.0299072265625
8.204,310,408,543,311,12.0,35.0,33.0,189.14793395996094,75.68359375,8.1787109375,-0.648681640625,0.135498046875,-0.075927734375
8.204,310,386,480,310,12.0,35.0,33.0,207.64158630371094,83.98436737060547,7.019042491912842,-0.648681640625,0.135498046875,-0.075927734375
8.210,310,364,430,311,12.0,35.0,33.0,149.23095703125,61.279293060302734,0.30517578125,-0.5032958984375,0.52783203125,-0.2373046875
8.218,310,345,414,310,12.0,35.0,33.0,149.23095703125,61.279293060302734,0.30517578125,-0.48681640625,0.54736328125,-0.2337646484375
8.226,309,349,411,310,12.0,35.0,33.0,86.36473846435547,43.823238372802734,-0.9765624403953552,-0.48681640625,0.54736328125,-0.2337646484375
8.243,311,340,423,310,9.0,36.0,37.0,-6.652831554412842,6.713866710662842,10.375975608825684,-0.7083740234375,0.3951416015625,0.1265869140625
8.248,310,338,419,310,9.0,36.0,37.0,-6.652831554412842,6.713866710662842,10.375975608825684,-0.761474609375,0.1617431640625,0.246826171875
8.256,310,349,420,310,9.0,36.0,37.0,-18.49365234375,-8.6669921875,14.038084983825684,-0.761474609375,0.1617431640625,0.246826171875
8.270,308,364,428,310,9.0,36.0,37.0,27.160642623901367,-5.615233898162842,4.638671875,-0.7950439453125,-0.0294189453125,0.0904541015625
8.278,310,377,426,310,9.0,36.0,37.0,45.593257904052734,-1.03759765625,1.9531248807907104,-0.8251953125,0.1075439453125,0.095947265625
8.311,309,387,428,310,9.0,36.0,37.0,45.593257904052734,-1.03759765625,1.9531248807907104,-0.8319091796875,0.1915283203125,0.2054443359375
8.312,310,401,435,310,9.0,36.0,37.0,14.953612327575684,-15.808104515075684,1.4648436307907104,-0.859619140625,0.1922607421875,0.27392578125
8.312,309,396,451,310,9.0,36.0,37.0,4.638671875,-17.2119140625,1.03759765625,-0.88427734375,0.177490234375,0.2618408203125
8.318,309,420,465,308,9.0,36.0,37.0,4.638671875,-17.2119140625,1.03759765625,-0.8841552734375,0.169189453125,0.1993408203125
8.331,310,438,495,310,9.0,36.0,40.0,18.310546875,-15.869139671325684,2.38037109375,-0.876708984375,0.181884765625,0.10107421875
8.338,309,444,521,311,9.0,36.0,40.0,26.245115280151367,-18.37158203125,3.601073980331421,-0.869384765625,0.220947265625,-0.005126953125
8.349,310,468,549,308,9.0,36.0,40.0,26.245115280151367,-18.37158203125,3.601073980331421,-0.83740234375,0.247802734375,-0.0577392578125
8.361,310,506,622,310,9.0,36.0,40.0,7.141112804412842,-24.169919967651367,4.21142578125,-0.779296875,0.2366943359375,-0.0361328125
8.368,310,532,687,312,9.0,36.0,40.0,-10.559081077575684,-30.395505905151367,2.01416015625,-0.732666015625,0.1927490234375,0.0040283203125
8.381,311,561,737,311,9.0,36.0,40.0,-10.559081077575684,-30.395505905151367,2.01416015625,-0.7227783203125,0.155517578125,-0.0159912109375
8.416,310,616,861,310,9.0,36.0,40.0,-54.748531341552734,-44.616695404052734,-9.58251953125,-0.7344970703125,0.169677734375,-0.1082763671875
8.416,311,654,931,311,9.0,36.0,40.0,-92.28514862060547,-46.936031341552734,-13.122557640075684,-0.7706298828125,0.211669921875,-0.1798095703125
8.417,310,685,1063,312,9.0,36.0,40.0,-92.28514862060547,-46.936031341552734,-13.122557640075684,-0.798583984375,0.22265625,-0.1446533203125
8.421,310,754,1251,311,9.0,36.0,40.0,-156.494140625,-51.757808685302734,-1.3427733182907104,-0.724609375,0.22021484375,-0.0655517578125
8.428,311,806,1338,312,9.0,36.0,40.0,-158.447265625,-54.382320404052734,6.652831554412842,-0.6083984375,0.257568359375,0.001953125
8.436,311,858,1472,311,10.0,35.0,36.0,-151.18408203125,-57.312007904052734,10.559081077575684,-0.5721435546875,0.316650390625,0.11328125
8.452,310,917,1724,312,10.0,35.0,36.0,-149.2919921875,-63.659664154052734,11.352538108825684,-0.6292724609375,0.31689453125,0.3067626953125
8.459,310,957,1819,312,10.0,35.0,36.0,-159.3017578125,-72.69287109375,8.97216796875,-0.7200927734375,0.133544921875,0.5777587890625
8.467,311,985,1886,312,10.0,35.0,36.0,-169.92185974121094,-77.69775390625,2.01416015625,-0.794189453125,-0.2296142578125,0.798095703125
8.483,310,1047,1955,314,10.0,35.0,36.0,-150.390625,-65.673828125,-6.713866710662842,-0.9085693359375,-0.47509765625,0.785888671875
8.488,312,1071,1989,314,10.0,35.0,36.0,-88.56200408935547,-33.50830078125,-12.329100608825684,-1.1683349609375,-0.305908203125,0.580322265625
8.511,310,1091,2008,314,10.0,35.0,36.0,-19.22607421875,-0.1831054538488388,-13.061522483825684,-1.53466796875,0.1038818359375,0.4091796875
8.512,311,1104,2043,312,10.0,35.0,36.0,15.014647483825684,15.624999046325684,-11.047362327575684,-1.874755859375,0.410400390625,0.357666015625
8.527,311,1092,2043,313,10.0,35.0,36.0,10.437010765075684,14.953612327575684,-6.958007335662842,-2.0867919921875,0.481201171875,0.3389892578125
8.527,310,1078,2030,314,10.0,35.0,36.0,-10.498045921325684,7.446288585662842,-0.8544921278953552,-1.9522705078125,0.2303466796875,0.2626953125
8.540,312,1041,1993,314,14.0,34.0,30.0,-19.34814453125,0.6103515625,2.0751953125,-1.41943359375,-0.13134765625,0.18994140625
8.555,310,1025,1975,313,14.0,34.0,30.0,6.896972179412842,-2.3193359375,-2.01416015625,-0.9781494140625,-0.1314697265625,0.2186279296875
8.557,310,1020,1978,312,14.0,34.0,30.0,45.227046966552734,-0.54931640625,-9.27734375,-0.9239501953125,0.160400390625,0.3306884765625
8.571,311,998,1963,312,14.0,34.0,30.0,51.025386810302734,9.27734375,-14.465331077575684,-1.1903076171875,0.443115234375,0.4329833984375
8.585,311,982,1948,312,14.0,34.0,30.0,13.488768577575684,23.193357467651367,-14.343260765075684,-1.5457763671875,0.50927734375,0.469970703125
8.589,310,959,1922,312,14.0,34.0,30.0,-38.75732421875,30.822751998901367,-9.94873046875,-1.665771484375,0.267578125,0.45556640625
8.616,311,907,1850,312,14.0,34.0,30.0,-59.631343841552734,29.479978561401367,-5.249022960662842,-1.5650634765625,0.003173828125,0.4013671875
8.618,311,864,1792,312,14.0,34.0,30.0,-39.24560546875,23.620603561401367,-1.0986328125,-1.417236328125,-0.0826416015625,0.353515625
8.618,311,813,1735,298,14.0,34.0,30.0,-9.3994140625,18.06640625,5.0048828125,-1.3165283203125,-0.03515625,0.3270263671875
8.634,311,751,1574,312,12.0,34.0,34.0,4.638671875,15.563963890075684,15.075682640075684,-1.2474365234375,0.01513671875,0.31005859375
8.639,310,705,1472,312,12.0,34.0,34.0,5.676269054412842,15.686034202575684,26.184080123901367,-1.1380615234375,-0.04296875,0.2979736328125
8.646,310,653,1355,311,12.0,34.0,34.0,12.451170921325684,17.63916015625,32.958984375,-0.95263671875,-0.1636962890625,0.284912109375
8.660,310,579,1122,311,12.0,34.0,34.0,38.330078125,21.850584030151367,33.14208984375,-0.7620849609375,-0.2100830078125,0.25341796875
8.668,310,532,986,312,12.0,34.0,34.0,77.0263671875,28.503416061401367,29.113767623901367,-0.67919921875,-0.2052001953125,0.2098388671875
8.676,310,486,865,310,12.0,34.0,34.0,115.23436737060547,38.4521484375,24.841306686401367,-0.7098388671875,-0.2626953125,0.1728515625
8.690,309,442,703,311,12.0,34.0,34.0,153.50341796875,54.016109466552734,23.071287155151367,-0.7271728515625,-0.295166015625,0.10009765625
8.698,310,430,630,310,12.0,34.0,34.0,191.16209411621094,72.81494140625,22.766111373901367,-0.655029296875,-0.13037109375,-0.00390625
