time,compression0,compression1,compression2,compression3,magn_x,magn_y,magn_z,gyro_x,gyro_y,gyro_z,accel_x,accel_y,accel_z
0.002,308,452,419,310,-3.0,40.0,45.0,0.2441406100988388,0.8544921278953552,0.54931640625,-0.921875,0.3681640625,0.0201416015625
0.002,309,452,419,309,-3.0,40.0,45.0,0.0610351525247097,0.9155272841453552,0.4272460639476776,-0.92236328125,0.3681640625,0.02001953125
0.002,309,452,419,310,-3.0,40.0,45.0,0.0610351525247097,0.9155272841453552,0.2441406100988388,-0.9228515625,0.367919921875,0.0203857421875
0.003,310,437,419,310,-3.0,40.0,45.0,0.1220703050494194,0.8544921278953552,0.1220703050494194,-0.9224853515625,0.367431640625,0.0216064453125
0.016,310,454,420,310,-3.0,40.0,45.0,0.30517578125,0.7934569716453552,0.0,-0.9212646484375,0.3665771484375,0.0234375
0.024,308,454,420,310,-3.0,40.0,45.0,0.54931640625,0.6713866591453552,-0.0610351525247097,-0.9217529296875,0.36669921875,0.0230712890625
0.036,310,452,419,310,-3.0,40.0,45.0,0.6103515625,0.6103515625,-0.1831054538488388,-0.923095703125,0.367919921875,0.020751953125
0.046,307,452,419,309,-3.0,40.0,45.0,0.4882812201976776,0.4882812201976776,-0.3662109076976776,-0.9228515625,0.3662109375,0.0201416015625
0.054,310,453,420,310,-3.0,40.0,45.0,0.30517578125,0.54931640625,-0.4882812201976776,-0.9228515625,0.3662109375,0.0201416015625
0.066,310,454,419,309,-3.0,40.0,45.0,0.30517578125,0.7324218153953552,-0.4272460639476776,-0.923583984375,0.365966796875,0.0208740234375
0.094,308,454,417,310,-3.0,39.0,35.0,0.3662109076976776,0.7934569716453552,-0.1831054538488388,-0.9246826171875,0.362548828125,0.021484375
0.096,308,454,420,310,-3.0,39.0,35.0,0.6103515625,0.6103515625,0.0610351525247097,-0.9246826171875,0.362548828125,0.021484375
0.096,296,439,420,310,-3.0,39.0,35.0,0.9765624403953552,0.30517578125,0.2441406100988388,-0.9241943359375,0.3642578125,0.0211181640625
0.114,308,453,420,309,-3.0,39.0,35.0,1.15966796875,0.1220703050494194,0.30517578125,-0.921630859375,0.3717041015625,0.0218505859375
0.114,298,452,402,310,-3.0,39.0,35.0,1.0986328125,0.2441406100988388,0.1831054538488388,-0.921630859375,0.3717041015625,0.0218505859375
0.122,310,452,420,310,-3.0,39.0,35.0,1.03759765625,0.4272460639476776,0.0,-0.9215087890625,0.3720703125,0.0224609375
0.139,310,454,419,310,-3.0,39.0,35.0,1.0986328125,0.4882812201976776,-0.2441406100988388,-0.9248046875,0.3721923828125,0.0224609375
0.145,309,452,419,310,-3.0,39.0,35.0,1.4648436307907104,0.4882812201976776,-0.54931640625,-0.9248046875,0.3721923828125,0.0224609375
0.152,310,452,419,310,-3.0,39.0,35.0,1.8920897245407104,0.4882812201976776,-0.8544921278953552,-0.9276123046875,0.3721923828125,0.02099609375
0.169,310,452,419,309,-2.0,40.0,38.0,2.3193359375,0.54931640625,-1.03759765625,-0.9295654296875,0.368896484375,0.018310546875
0.175,309,451,415,309,-2.0,40.0,38.0,2.563476324081421,0.54931640625,-1.0986328125,-0.9281005859375,0.366455078125,0.0186767578125
0.192,309,447,417,310,-2.0,40.0,38.0,2.868652105331421,0.4882812201976776,-0.9765624403953552,-0.9281005859375,0.366455078125,0.0186767578125
0.200,308,451,411,310,-2.0,40.0,38.0,3.601073980331421,0.1831054538488388,-0.8544921278953552,-0.92529296875,0.36572265625,0.018310546875
0.212,310,449,415,310,-2.0,40.0,38.0,3.601073980331421,0.1831054538488388,-0.8544921278953552,-0.9239501953125,0.36669921875,0.0189208984375
0.216,309,449,415,310,-2.0,40.0,38.0,4.08935546875,-0.1220703050494194,-0.9765624403953552,-0.9239501953125,0.36669921875,0.0189208984375
0.263,308,447,411,310,-2.0,40.0,38.0,5.126952648162842,-0.7934569716453552,-1.4648436307907104,-0.921630859375,0.3662109375,0.022216796875
0.263,310,447,411,310,-2.0,40.0,38.0,5.126952648162842,-0.7934569716453552,-1.4648436307907104,-0.921875,0.365966796875,0.024658203125
0.263,298,447,410,310,-2.0,40.0,38.0,5.737304210662842,-1.15966796875,-1.7089842557907104,-0.921875,0.365966796875,0.024658203125
0.263,308,444,408,310,-2.0,40.0,38.0,7.446288585662842,-1.6479490995407104,-2.01416015625,-0.92626953125,0.3671875,0.021240234375
0.273,310,442,407,308,-2.0,39.0,44.0,7.446288585662842,-1.6479490995407104,-2.01416015625,-0.9293212890625,0.3670654296875,0.0181884765625
0.275,310,444,407,308,-2.0,39.0,44.0,7.995604991912842,-1.5869139432907104,-1.9531248807907104,-0.9293212890625,0.3670654296875,0.0181884765625
0.301,309,441,402,310,-2.0,39.0,44.0,9.21630859375,-1.9531248807907104,-2.0751953125,-0.9305419921875,0.3734130859375,0.0159912109375
0.302,310,441,402,308,-2.0,39.0,44.0,9.21630859375,-1.9531248807907104,-2.0751953125,-0.927490234375,0.3726806640625,0.0167236328125
0.302,297,444,402,310,-2.0,39.0,44.0,10.131834983825684,-2.563476324081421,-2.624511480331421,-0.927490234375,0.3726806640625,0.0167236328125
0.316,310,441,402,310,-2.0,39.0,44.0,11.108397483825684,-3.845214605331421,-3.479003667831421,-0.920166015625,0.363525390625,0.0152587890625
0.324,310,439,402,309,-2.0,39.0,44.0,10.864256858825684,-4.33349609375,-3.479003667831421,-0.9171142578125,0.3602294921875,0.0133056640625
0.345,310,439,402,311,-2.0,39.0,44.0,10.864256858825684,-4.33349609375,-3.479003667831421,-0.916015625,0.360107421875,0.0091552734375
0.346,296,439,401,298,-2.0,39.0,44.0,10.253905296325684,-5.065917491912842,-2.990722417831421,-0.9176025390625,0.3599853515625,0.0052490234375
0.354,308,439,402,310,-2.0,39.0,44.0,9.765625,-5.615233898162842,-2.807616949081421,-0.92138671875,0.35791015625,0.005615234375
0.374,309,439,399,310,-3.0,39.0,41.0,9.765625,-5.615233898162842,-2.807616949081421,-0.9261474609375,0.3603515625,0.007080078125
0.377,309,439,402,310,-3.0,39.0,41.0,10.070799827575684,-7.812499523162842,-3.295898199081421,-0.930908203125,0.3690185546875,0.0050048828125
0.390,310,439,399,310,-3.0,39.0,41.0,10.314940452575684,-8.6669921875,-4.08935546875,-0.9329833984375,0.375,0.001708984375
0.405,308,438,401,310,-3.0,39.0,41.0,10.314940452575684,-8.6669921875,-4.08935546875,-0.9310302734375,0.37548828125,0.000732421875
0.407,308,438,399,310,-3.0,39.0,41.0,9.46044921875,-9.8876953125,-6.286620616912842,-0.9256591796875,0.372314453125,0.0040283203125
0.414,310,438,396,310,-3.0,39.0,41.0,8.85009765625,-10.437010765075684,-7.202147960662842,-0.920166015625,0.3660888671875,0.009521484375
0.422,308,437,402,310,-3.0,39.0,41.0,8.85009765625,-10.437010765075684,-7.202147960662842,-0.9176025390625,0.35888671875,0.01123046875
0.438,308,438,400,309,-3.0,39.0,41.0,6.469726085662842,-11.230467796325684,-7.751464366912842,-0.91796875,0.35205078125,0.01123046875
0.453,310,437,401,309,-3.0,39.0,41.0,4.69970703125,-11.474608421325684,-7.507323741912842,-0.9183349609375,0.3463134765625,0.015625
0.453,308,439,407,310,-3.0,39.0,41.0,4.69970703125,-11.474608421325684,-7.507323741912842,-0.9183349609375,0.3406982421875,0.0230712890625
0.480,310,439,401,309,-3.0,39.0,41.0,3.112792730331421,-12.939452171325684,-6.896972179412842,-0.920654296875,0.336669921875,0.0289306640625
0.481,309,441,402,310,-3.0,39.0,41.0,3.417968511581421,-14.099120140075684,-6.713866710662842,-0.92626953125,0.3343505859375,0.03173828125
0.482,308,440,402,310,-3.0,39.0,41.0,3.845214605331421,-15.014647483825684,-6.408690929412842,-0.93017578125,0.3348388671875,0.0325927734375
0.504,308,441,406,310,-3.0,39.0,41.0,4.21142578125,-15.319823265075684,-5.920409679412842,-0.92919921875,0.338134765625,0.03173828125
0.505,309,441,407,310,-3.0,39.0,41.0,4.39453125,-15.197752952575684,-5.615233898162842,-0.92724609375,0.33984375,0.032958984375
0.512,310,441,409,310,-3.0,39.0,41.0,4.39453125,-15.136717796325684,-5.493163585662842,-0.9263916015625,0.34033203125,0.0404052734375
0.527,308,441,408,310,-3.0,39.0,41.0,4.21142578125,-15.197752952575684,-5.371093273162842,-0.923583984375,0.3463134765625,0.04931640625
0.534,310,444,408,312,-3.0,39.0,41.0,4.08935546875,-15.380858421325684,-5.249022960662842,-0.919921875,0.3526611328125,0.0560302734375
0.548,310,447,408,309,-3.0,39.0,41.0,4.45556640625,-15.930174827575684,-5.432128429412842,-0.919677734375,0.35205078125,0.0596923828125
0.563,308,444,410,309,-3.0,39.0,41.0,5.554198741912842,-16.9677734375,-5.859374523162842,-0.9232177734375,0.351806640625,0.055419921875
0.566,310,444,410,312,-3.0,36.0,41.0,7.141112804412842,-17.9443359375,-6.225585460662842,-0.9302978515625,0.35498046875,0.0439453125
0.586,310,449,411,310,-3.0,36.0,41.0,8.4228515625,-18.49365234375,-6.469726085662842,-0.93798828125,0.35693359375,0.033447265625
0.589,309,427,411,311,-3.0,36.0,41.0,8.60595703125,-18.5546875,-6.347655773162842,-0.9444580078125,0.35400390625,0.0299072265625
0.609,309,447,411,310,-3.0,36.0,41.0,7.446288585662842,-18.24951171875,-5.981444835662842,-0.949462890625,0.3453369140625,0.0343017578125
0.609,309,428,411,310,-3.0,36.0,41.0,5.310058116912842,-17.822265625,-5.432128429412842,-0.951171875,0.333251953125,0.0478515625
0.617,310,444,415,310,-3.0,36.0,41.0,3.173827886581421,-17.4560546875,-4.57763671875,-0.9471435546875,0.3192138671875,0.0721435546875
0.624,308,442,414,310,-3.0,36.0,41.0,2.0751953125,-17.51708984375,-3.479003667831421,-0.937744140625,0.306884765625,0.0955810546875
0.633,309,447,415,310,-3.0,36.0,41.0,3.051757574081421,-18.37158203125,-2.25830078125,-0.928466796875,0.3096923828125,0.1014404296875
0.651,310,447,415,310,-3.0,36.0,41.0,4.8828125,-19.47021484375,-0.9155272841453552,-0.9239501953125,0.3277587890625,0.0908203125
0.655,308,444,415,310,-3.0,36.0,41.0,5.981444835662842,-19.95849609375,0.30517578125,-0.92626953125,0.34423828125,0.0760498046875
0.663,310,444,414,310,-2.0,37.0,46.0,5.554198741912842,-19.22607421875,1.4648436307907104,-0.93701171875,0.3482666015625,0.06884765625
0.710,310,439,413,310,-2.0,37.0,46.0,3.784179449081421,-17.63916015625,2.563476324081421,-0.9515380859375,0.338623046875,0.0738525390625
0.711,310,419,411,308,-2.0,37.0,46.0,1.3427733182907104,-15.808104515075684,4.150390625,-0.9566650390625,0.321533203125,0.0877685546875
0.712,310,430,411,309,-2.0,37.0,46.0,-1.2817381620407104,-13.793944358825684,6.652831554412842,-0.9495849609375,0.31005859375,0.0992431640625
0.712,294,419,411,310,-2.0,37.0,46.0,-4.21142578125,-11.718749046325684,9.94873046875,-0.9410400390625,0.31494140625,0.10107421875
0.715,310,414,410,310,-2.0,37.0,46.0,-8.1787109375,-9.21630859375,13.427733421325684,-0.9315185546875,0.328125,0.093017578125
0.722,310,410,411,310,-2.0,37.0,46.0,-14.221190452575684,-5.737304210662842,16.90673828125,-0.91455078125,0.32958984375,0.074462890625
0.736,309,407,414,310,-2.0,37.0,46.0,-23.193357467651367,-1.4038084745407104,20.812986373901367,-0.885009765625,0.3121337890625,0.0638427734375
0.745,310,408,419,308,-2.0,37.0,46.0,-33.935546875,2.197265625,25.512693405151367,-0.8428955078125,0.27490234375,0.0858154296875
0.753,310,411,419,310,-2.0,37.0,46.0,-43.090816497802734,3.479003667831421,30.639646530151367,-0.80810546875,0.2230224609375,0.1217041015625
0.766,310,426,414,309,-2.0,36.0,44.0,-47.058101654052734,1.3427733182907104,36.376953125,-0.7596435546875,0.17236328125,0.1590576171875
0.774,310,447,426,310,-2.0,36.0,44.0,-42.785640716552734,-5.371093273162842,42.419429779052734,-0.5623779296875,0.0931396484375,0.1326904296875
0.814,309,479,438,311,-2.0,36.0,44.0,-28.747556686401367,-20.263669967651367,45.227046966552734,-0.1802978515625,-0.0889892578125,0.074951171875
0.815,309,519,454,311,-2.0,36.0,44.0,0.1220703050494194,-48.889156341552734,44.494625091552734,0.875,-0.4053955078125,0.1097412109375
0.815,308,547,467,309,-2.0,36.0,44.0,51.818843841552734,-83.37401580810547,43.518062591552734,0.875,-0.4053955078125,0.1097412109375
0.816,310,592,496,311,-2.0,36.0,44.0,114.07469940185547,-96.92382049560547,37.65869140625,0.9898681640625,-0.298828125,-0.1041259765625
0.827,309,676,614,311,-2.0,36.0,44.0,139.404296875,-87.46337127685547,21.484373092651367,-0.5745849609375,0.8841552734375,-0.2344970703125
0.834,310,729,654,310,-2.0,36.0,44.0,100.95214080810547,-73.42529296875,-3.967284917831421,-0.5745849609375,0.8841552734375,-0.2344970703125
0.847,310,781,710,310,-2.0,36.0,44.0,32.40966796875,-49.621578216552734,-30.822751998901367,-1.569580078125,1.333740234375,-0.2611083984375
0.856,308,853,873,310,-2.0,36.0,44.0,-45.532222747802734,-18.9208984375,-38.330078125,-2.4136962890625,1.8062744140625,0.138671875
0.867,310,877,966,311,-1.0,34.0,48.0,-142.822265625,-2.563476324081421,-19.95849609375,-2.4136962890625,1.8062744140625,0.138671875
0.873,310,902,998,312,-1.0,34.0,48.0,-221.92381286621094,-7.995604991912842,-4.638671875,-2.2933349609375,0.8328857421875,1.076416015625
0.886,310,877,858,311,-1.0,34.0,48.0,-211.60887145996094,-21.972654342651367,-8.11767578125,-1.9957275390625,-0.8594970703125,1.327392578125
0.910,310,867,830,310,-1.0,34.0,48.0,-98.44969940185547,-23.681638717651367,-5.0048828125,-1.9957275390625,-0.8594970703125,1.327392578125
0.913,310,873,853,312,-1.0,34.0,48.0,54.199214935302734,-10.681151390075684,17.15087890625,-1.3616943359375,-0.069091796875,0.4862060546875
0.916,310,865,853,311,-1.0,34.0,48.0,154.96826171875,4.2724609375,30.090330123901367,-1.4244384765625,1.58740234375,-0.4415283203125
0.926,310,860,858,312,-1.0,34.0,48.0,145.69091796875,16.29638671875,18.37158203125,-1.4244384765625,1.58740234375,-0.4415283203125
0.932,310,846,865,311,-1.0,34.0,48.0,57.434078216552734,22.705076217651367,-2.197265625,-1.789794921875,1.3046875,-0.2628173828125
0.946,310,810,848,310,-1.0,34.0,48.0,-43.212886810302734,7.568358898162842,-19.10400390625,-1.6707763671875,0.37451171875,0.1630859375
0.958,308,785,799,312,-1.0,34.0,48.0,-43.212886810302734,7.568358898162842,-19.10400390625,-1.484130859375,0.44287109375,0.134765625
0.962,310,754,755,312,-3.0,35.0,43.0,-25.939939498901367,-3.967284917831421,-15.747069358825684,-1.484130859375,0.44287109375,0.134765625
0.977,310,689,693,310,-3.0,35.0,43.0,7.446288585662842,-8.6669921875,-7.812499523162842,-0.999267578125,0.6326904296875,0.2213134765625
0.986,311,651,662,310,-3.0,35.0,43.0,7.446288585662842,-8.6669921875,-7.812499523162842,-0.759765625,0.4803466796875,0.3577880859375
0.992,310,621,616,310,-3.0,35.0,43.0,2.929687261581421,-5.310058116912842,-10.742186546325684,-0.759765625,0.4803466796875,0.3577880859375
1.022,309,566,561,310,-3.0,35.0,43.0,-9.765625,13.183592796325684,-18.85986328125,-0.4873046875,0.211181640625,0.3167724609375
1.022,310,540,537,310,-3.0,35.0,43.0,-9.765625,13.183592796325684,-18.85986328125,-0.4185791015625,0.0955810546875,0.2325439453125
1.023,310,523,522,311,-3.0,35.0,43.0,-10.498045921325684,20.629880905151367,-20.507810592651367,-0.4185791015625,0.0955810546875,0.2325439453125
1.036,309,488,504,310,-3.0,35.0,43.0,2.25830078125,23.864744186401367,-29.663084030151367,-0.4346923828125,-0.1171875,0.185546875
1.044,309,473,497,309,-3.0,35.0,43.0,2.25830078125,23.864744186401367,-29.663084030151367,-0.539306640625,-0.0960693359375,0.1265869140625
1.053,310,465,491,310,-3.0,35.0,43.0,13.427733421325684,25.207517623901367,-32.53173828125,-0.539306640625,-0.0960693359375,0.1265869140625
1.066,310,447,488,309,-3.0,36.0,42.0,34.48486328125,27.526853561401367,-22.216794967651367,-0.6048583984375,0.1239013671875,0.0491943359375
1.074,309,439,485,311,-3.0,36.0,42.0,34.48486328125,27.526853561401367,-22.216794967651367,-0.5987548828125,0.253662109375,0.091552734375
1.090,310,438,477,310,-3.0,36.0,42.0,39.12353515625,23.376462936401367,-14.282225608825684,-0.5987548828125,0.253662109375,0.091552734375
1.096,308,433,473,311,-3.0,36.0,42.0,23.803709030151367,15.441893577575684,-3.417968511581421,-0.675048828125,0.429931640625,0.114501953125
1.112,310,425,465,310,-3.0,36.0,42.0,12.329100608825684,15.075682640075684,-1.5258787870407104,-0.7364501953125,0.4737548828125,0.10107421875
1.127,310,424,473,310,-3.0,36.0,42.0,12.329100608825684,15.075682640075684,-1.5258787870407104,-0.8118896484375,0.4888916015625,0.0902099609375
1.128,308,423,477,309,-3.0,36.0,42.0,-0.7324218153953552,11.901854515075684,-3.173827886581421,-0.874755859375,0.4658203125,0.0745849609375
1.134,309,418,481,308,-3.0,36.0,42.0,-0.8544921278953552,9.033203125,-7.751464366912842,-0.914306640625,0.4072265625,0.0552978515625
1.142,309,415,481,310,-3.0,36.0,42.0,-0.8544921278953552,9.033203125,-7.751464366912842,-0.9404296875,0.3487548828125,0.0560302734375
1.159,310,414,484,309,-6.0,37.0,42.0,3.540038824081421,0.9765624403953552,-15.380858421325684,-0.946044921875,0.317626953125,0.09130859375
1.165,309,411,485,311,-6.0,37.0,42.0,5.371093273162842,-3.601073980331421,-15.624999046325684,-0.9326171875,0.3106689453125,0.1309814453125
1.172,310,410,493,309,-6.0,37.0,42.0,5.371093273162842,-3.601073980331421,-15.624999046325684,-0.9144287109375,0.3131103515625,0.14599609375
1.192,309,408,494,309,-6.0,37.0,42.0,5.981444835662842,-6.225585460662842,-13.183592796325684,-0.90185546875,0.3040771484375,0.1353759765625
1.194,308,408,497,309,-6.0,37.0,42.0,4.33349609375,-5.310058116912842,-10.864256858825684,-0.8934326171875,0.28369140625,0.1175537109375
1.225,310,409,496,310,-6.0,37.0,42.0,4.33349609375,-5.310058116912842,-10.864256858825684,-0.875,0.2554931640625,0.1043701171875
1.225,310,414,508,310,-6.0,37.0,42.0,-4.8828125,-3.051757574081421,-1.4038084745407104,-0.8416748046875,0.205078125,0.0765380859375
1.226,308,420,502,310,-6.0,37.0,42.0,-12.939452171325684,-2.01416015625,7.263183116912842,-0.8006591796875,0.1527099609375,0.0294189453125
1.240,310,430,509,310,-6.0,37.0,42.0,-12.939452171325684,-2.01416015625,7.263183116912842,-0.721435546875,0.1077880859375,-0.00341796875
1.246,310,465,519,310,-6.0,37.0,42.0,-36.0107421875,-5.615233898162842,34.11865234375,-0.54736328125,0.0274658203125,-0.03369140625
1.255,308,499,509,310,-4.0,36.0,49.0,-44.555660247802734,-11.718749046325684,47.851558685302734,-0.222412109375,-0.113525390625,-0.0548095703125
1.265,310,538,502,310,-4.0,36.0,49.0,-45.471187591552734,-24.658201217651367,57.373043060302734,0.2576904296875,-0.267333984375,-0.08935546875
1.278,310,607,548,310,-4.0,36.0,49.0,-33.75244140625,-45.898433685302734,59.875484466552734,0.74267578125,-0.339599609375,-0.1142578125
1.284,309,660,628,310,-4.0,36.0,49.0,-2.929687261581421,-71.10595703125,52.368160247802734,0.96142578125,-0.24853515625,-0.0791015625
1.294,310,714,731,310,-4.0,36.0,49.0,34.912109375,-87.58544158935547,31.738279342651367,0.636962890625,0.1258544921875,0.079345703125
1.306,310,823,856,311,-4.0,36.0,49.0,46.081539154052734,-85.57128143310547,0.8544921278953552,-0.1776123046875,0.58544921875,0.33837890625
1.332,311,873,933,311,-4.0,36.0,49.0,20.385740280151367,-62.194820404052734,-27.832029342651367,-1.168701171875,0.976806640625,0.392578125
1.333,310,920,1037,311,-4.0,36.0,49.0,-29.418943405151367,-26.062009811401367,-33.14208984375,-2.051513671875,1.54248046875,0.1580810546875
1.336,310,981,1206,310,-4.0,36.0,49.0,-94.23827362060547,-2.197265625,-14.709471702575684,-2.5,1.6556396484375,0.2919921875
1.345,310,1013,1251,312,-4.0,36.0,49.0,-144.1650390625,-5.798339366912842,-3.356933355331421,-2.57666015625,0.6995849609375,0.9520263671875
1.378,310,1000,1175,310,-4.0,36.0,49.0,-136.04736328125,-16.357421875,-2.44140625,-2.687744140625,-0.2205810546875,1.29541015625
1.380,311,982,1022,311,0.0,33.0,48.0,-61.828609466552734,-11.474608421325684,16.17431640625,-2.3521728515625,-0.28662109375,1.0850830078125
1.384,310,971,1003,312,0.0,33.0,48.0,42.907711029052734,4.0283203125,39.85595703125,-1.384033203125,0.105712890625,0.6129150390625
1.385,310,974,1014,311,0.0,33.0,48.0,117.12645721435547,20.385740280151367,37.353515625,-0.8046875,0.7950439453125,0.130859375
1.396,310,971,1000,311,0.0,33.0,48.0,115.05126190185547,32.5927734375,15.624999046325684,-1.1033935546875,1.34423828125,-0.1695556640625
1.405,310,959,996,312,0.0,33.0,48.0,54.809566497802734,39.61181640625,-5.310058116912842,-1.7451171875,1.315673828125,-0.1640625
1.416,310,943,987,311,0.0,33.0,48.0,-5.859374523162842,37.353515625,-16.78466796875,-2.0438232421875,0.903564453125,0.0826416015625
1.433,310,889,955,310,0.0,33.0,48.0,-31.188962936401367,25.634763717651367,-19.04296875,-1.95703125,0.5303955078125,0.283935546875
1.436,310,834,895,311,0.0,33.0,48.0,-23.742673873901367,13.610838890075684,-15.380858421325684,-1.7684326171875,0.4488525390625,0.32763671875
1.443,310,813,827,311,0.0,33.0,48.0,-3.967284917831421,8.72802734375,-11.108397483825684,-1.5750732421875,0.4891357421875,0.279296875
1.458,310,731,691,310,-2.0,34.0,40.0,14.831542015075684,10.803221702575684,-8.36181640625,-1.337890625,0.5477294921875,0.215576171875
1.470,310,691,616,310,-2.0,34.0,40.0,25.634763717651367,14.892577171325684,-4.5166015625,-1.0245361328125,0.5609130859375,0.2030029296875
1.472,310,648,559,310,-2.0,34.0,40.0,25.390623092651367,17.2119140625,-1.8920897245407104,-0.685546875,0.4443359375,0.2464599609375
1.487,310,588,525,310,-2.0,34.0,40.0,18.5546875,19.10400390625,-4.82177734375,-0.41259765625,0.268798828125,0.2523193359375
1.500,311,545,509,310,-2.0,34.0,40.0,11.413573265075684,23.071287155151367,-12.817381858825684,-0.2550048828125,0.105712890625,0.212646484375
1.502,310,514,488,311,-2.0,34.0,40.0,7.385253429412842,28.015134811401367,-23.681638717651367,-0.194580078125,-0.0565185546875,0.2059326171875
1.516,309,465,473,309,-2.0,34.0,40.0,9.521484375,32.28759765625,-34.60693359375,-0.2210693359375,-0.193603515625,0.2283935546875
1.525,310,437,475,310,-2.0,34.0,40.0,20.996091842651367,35.400390625,-42.175289154052734,-0.348388671875,-0.21337890625,0.1605224609375
1.545,310,411,467,310,-2.0,34.0,40.0,39.9169921875,38.51318359375,-43.762203216552734,-0.4996337890625,-0.087158203125,-0.006103515625
1.546,310,398,440,310,-2.0,34.0,40.0,56.274410247802734,38.26904296875,-38.9404296875,-0.585693359375,0.1536865234375,-0.0899658203125
1.554,309,394,430,310,-1.0,36.0,43.0,57.678218841552734,29.907224655151367,-29.052732467651367,-0.6092529296875,0.3895263671875,-0.0445556640625
1.562,310,391,406,310,-1.0,36.0,43.0,45.043941497802734,19.71435546875,-18.49365234375,-0.612060546875,0.4833984375,0.021728515625
1.579,310,377,394,310,-1.0,36.0,43.0,28.564451217651367,15.930174827575684,-11.169432640075684,-0.7178955078125,0.44580078125,0.084228515625
1.584,309,368,398,309,-1.0,36.0,43.0,13.427733421325684,15.930174827575684,-6.225585460662842,-0.7178955078125,0.44580078125,0.084228515625
1.593,310,363,396,311,-1.0,36.0,43.0,2.746581792831421,14.404295921325684,-3.662109136581421,-0.771728515625,0.3876953125,0.10595703125
1.606,310,357,395,310,-1.0,36.0,43.0,-0.6103515625,10.742186546325684,-4.82177734375,-0.847900390625,0.3016357421875,0.1019287109375
1.619,310,356,396,308,-1.0,36.0,43.0,1.5869139432907104,5.981444835662842,-8.7890625,-0.847900390625,0.3016357421875,0.1019287109375
1.633,308,355,402,310,-1.0,36.0,43.0,5.981444835662842,0.7324218153953552,-12.268065452575684,-0.876953125,0.2984619140625,0.092529296875
1.644,309,359,414,310,-1.0,36.0,43.0,11.169432640075684,-4.39453125,-13.732909202575684,-0.875732421875,0.24951171875,0.063232421875
1.645,309,362,431,308,-1.0,36.0,43.0,15.380858421325684,-8.72802734375,-12.756346702575684,-0.875732421875,0.24951171875,0.063232421875
1.652,310,364,439,310,-4.0,34.0,44.0,14.831542015075684,-12.207030296325684,-9.27734375,-0.87109375,0.2149658203125,0.0430908203125
1.666,310,371,467,310,-4.0,34.0,44.0,8.1787109375,-14.404295921325684,-4.08935546875,-0.862548828125,0.1590576171875,0.04638671875
1.675,310,377,481,310,-4.0,34.0,44.0,-1.6479490995407104,-14.465331077575684,2.0751953125,-0.862548828125,0.1590576171875,0.04638671875
1.682,308,381,493,309,-4.0,34.0,44.0,-11.657713890075684,-12.573241233825684,9.8876953125,-0.835205078125,0.131591796875,0.034912109375
1.741,310,400,519,310,-4.0,34.0,44.0,-21.484373092651367,-10.070799827575684,20.629880905151367,-0.7745361328125,0.09716796875,-0.0855712890625
1.772,310,410,530,310,-4.0,34.0,44.0,-33.3251953125,-7.934569835662842,35.0341796875,-0.7257080078125,0.0704345703125,-0.1046142578125
1.848,310,423,535,311,-4.0,34.0,44.0,-47.912593841552734,-6.652831554412842,52.856441497802734,-0.7257080078125,0.0704345703125,-0.1046142578125
1.848,309,504,535,310,-4.0,34.0,44.0,-57.617183685302734,-14.038084983825684,87.70751190185547,-0.1353759765625,-0.0694580078125,-0.066162109375
1.859,311,549,540,310,-4.0,34.0,44.0,-57.617183685302734,-14.038084983825684,87.70751190185547,0.352783203125,-0.068359375,0.1253662109375
1.871,309,593,574,311,-4.0,34.0,44.0,-42.419429779052734,-32.77587890625,87.46337127685547,0.352783203125,-0.068359375,0.1253662109375
1.876,310,675,758,310,-4.0,35.0,46.0,45.349117279052734,-86.18163299560547,30.334470748901367,0.95361328125,0.1290283203125,0.1270751953125
1.876,311,730,845,311,-4.0,35.0,46.0,45.349117279052734,-86.18163299560547,30.334470748901367,0.68408203125,0.39501953125,0.005859375
1.890,311,790,918,310,-4.0,35.0,46.0,84.41161346435547,-96.43553924560547,-9.58251953125,0.68408203125,0.39501953125,0.005859375
1.890,310,884,1064,311,-4.0,35.0,46.0,-22.583005905151367,-55.419918060302734,-23.681638717651367,-1.4171142578125,1.4166259765625,-0.1044921875
1.896,310,918,1243,312,-4.0,35.0,46.0,-22.583005905151367,-55.419918060302734,-23.681638717651367,-2.4608154296875,1.76416015625,0.072998046875
1.897,310,955,1377,312,-4.0,35.0,46.0,-119.32372283935547,-23.498533248901367,-1.4648436307907104,-2.4608154296875,1.76416015625,0.072998046875
1.897,310,994,1452,312,-4.0,35.0,46.0,-215.02684020996094,-28.808591842651367,21.118162155151367,-2.8385009765625,-0.3759765625,1.6123046875
1.897,310,986,1380,312,-4.0,35.0,46.0,-215.02684020996094,-28.808591842651367,21.118162155151367,-2.746826171875,-0.7088623046875,1.483642578125
1.898,310,982,1315,312,-4.0,35.0,46.0,-137.939453125,-35.888671875,34.1796875,-2.746826171875,-0.7088623046875,1.483642578125
1.899,310,960,1196,310,-4.0,35.0,46.0,124.20653533935547,11.291502952575684,59.936519622802734,-0.922607421875,0.7467041015625,0.2855224609375
1.899,309,957,1162,315,-4.0,34.0,48.0,143.5546875,36.7431640625,33.87451171875,-0.646484375,1.2388916015625,-0.0626220703125
1.899,310,957,1183,312,-4.0,34.0,48.0,143.5546875,36.7431640625,33.87451171875,-0.98876953125,1.246337890625,-0.1695556640625
1.899,311,943,1183,312,-4.0,34.0,48.0,21.484373092651367,46.325679779052734,-15.136717796325684,-1.652587890625,1.140869140625,-0.1043701171875
1.902,310,927,1175,310,-4.0,34.0,48.0,-19.53125,38.6962890625,-20.507810592651367,-2.071044921875,0.98876953125,0.1063232421875
1.916,312,901,1162,312,-4.0,34.0,48.0,-19.53125,38.6962890625,-20.507810592651367,-2.002685546875,0.686767578125,0.3331298828125
1.917,310,832,1122,311,-4.0,34.0,48.0,-30.456541061401367,12.939452171325684,-18.37158203125,-1.737060546875,0.5225830078125,0.4354248046875
1.917,310,806,1065,312,-4.0,34.0,48.0,-8.36181640625,9.33837890625,-20.141599655151367,-1.49072265625,0.4925537109375,0.4095458984375
1.947,311,766,982,312,-4.0,34.0,48.0,-8.36181640625,9.33837890625,-20.141599655151367,-1.278076171875,0.4881591796875,0.321044921875
1.948,310,688,827,311,-4.0,34.0,48.0,29.602048873901367,20.507810592651367,-23.132322311401367,-1.052490234375,0.5081787109375,0.230224609375
1.950,311,644,757,311,-4.0,34.0,48.0,34.36279296875,23.864744186401367,-18.61572265625,-0.8243408203125,0.4755859375,0.200439453125
1.953,312,601,683,311,-2.0,34.0,43.0,34.36279296875,23.864744186401367,-18.61572265625,-0.64208984375,0.368408203125,0.20556640625
1.966,310,525,594,311,-2.0,34.0,43.0,21.118162155151367,25.634763717651367,-18.798828125,-0.513427734375,0.22021484375,0.20166015625
1.982,310,497,566,311,-2.0,34.0,43.0,16.05224609375,30.212400436401367,-24.414060592651367,-0.421630859375,0.006591796875,0.241455078125
1.983,310,449,523,310,-2.0,34.0,43.0,16.05224609375,30.212400436401367,-24.414060592651367,-0.372802734375,-0.2491455078125,0.3289794921875
1.997,310,402,490,310,-2.0,34.0,43.0,35.5224609375,38.330078125,-38.818359375,-0.435791015625,-0.3748779296875,0.324951171875
2.005,310,379,435,308,-2.0,34.0,43.0,63.720699310302734,41.198726654052734,-38.87939453125,-0.535400390625,-0.2596435546875,0.2052001953125
2.013,310,355,391,309,-2.0,34.0,43.0,92.52928924560547,38.4521484375,-31.005857467651367,-0.5657958984375,0.0052490234375,0.0784912109375
2.040,310,342,323,310,-2.0,34.0,43.0,106.38426971435547,25.390623092651367,-18.00537109375,-0.5760498046875,0.2418212890625,0.0050048828125
2.040,309,336,328,310,-2.0,34.0,43.0,108.09325408935547,11.779784202575684,-7.385253429412842,-0.550537109375,0.1741943359375,-0.0557861328125
2.042,310,329,327,310,-2.0,34.0,43.0,118.10301971435547,17.578125,-14.404295921325684,-0.5159912109375,-0.0225830078125,-0.14599609375
2.057,308,327,331,310,-6.0,38.0,42.0,137.451171875,34.5458984375,-32.5927734375,-0.4794921875,0.11474609375,-0.291015625
2.071,310,331,338,310,-6.0,38.0,42.0,137.39013671875,37.841796875,-41.625972747802734,-0.4940185546875,0.567138671875,-0.463623046875
2.074,310,336,338,310,-6.0,38.0,42.0,91.79686737060547,33.38623046875,-41.503902435302734,-0.5958251953125,0.8663330078125,-0.3797607421875
2.086,308,337,339,310,-6.0,38.0,42.0,24.230955123901367,31.005857467651367,-37.9638671875,-0.63916015625,0.7470703125,-0.0001220703125
2.095,310,332,369,310,-6.0,38.0,42.0,-14.160155296325684,23.620603561401367,-34.72900390625,-0.6280517578125,0.5341796875,0.3045654296875
2.102,310,340,401,308,-6.0,38.0,42.0,-13.366698265075684,11.901854515075684,-31.066892623901367,-0.670654296875,0.4613037109375,0.3504638671875
2.116,311,357,420,309,-6.0,38.0,42.0,-1.5258787870407104,5.676269054412842,-23.437498092651367,-0.7431640625,0.4150390625,0.25341796875
2.144,310,356,434,310,-6.0,38.0,42.0,2.746581792831421,8.056640625,-13.671874046325684,-0.7745361328125,0.33544921875,0.146728515625
2.144,310,357,439,310,-6.0,38.0,42.0,-0.7324218153953552,13.610838890075684,-5.0048828125,-0.79833984375,0.2628173828125,0.065673828125
2.146,307,367,444,310,-6.0,38.0,42.0,-9.09423828125,16.9677734375,1.8920897245407104,-0.874267578125,0.2293701171875,0.014404296875
2.155,310,374,447,310,-5.0,35.0,48.0,-19.34814453125,15.563963890075684,8.7890625,-0.9920654296875,0.245361328125,-0.0189208984375
2.163,309,380,447,310,-5.0,35.0,48.0,-28.869626998901367,11.962889671325684,17.578125,-1.083740234375,0.2581787109375,-0.044677734375
2.178,309,395,452,310,-5.0,35.0,48.0,-36.4990234375,10.070799827575684,27.832029342651367,-1.116455078125,0.236328125,-0.0714111328125
2.187,310,396,454,310,-5.0,35.0,48.0,-41.809078216552734,8.97216796875,38.51318359375,-1.09716796875,0.2091064453125,-0.0987548828125
2.192,310,396,465,310,-5.0,35.0,48.0,-45.410152435302734,6.713866710662842,49.011226654052734,-1.0380859375,0.2171630859375,-0.1300048828125
2.206,310,407,467,312,-5.0,35.0,48.0,-49.682613372802734,3.784179449081421,57.495113372802734,-0.9542236328125,0.251708984375,-0.15185546875
2.216,310,411,447,310,-5.0,35.0,48.0,-57.434078216552734,1.9531248807907104,62.438961029052734,-0.8885498046875,0.2703857421875,-0.141357421875
2.222,310,428,481,310,-5.0,35.0,48.0,-67.7490234375,0.7934569716453552,66.5283203125,-0.7982177734375,0.22509765625,-0.118896484375
2.254,309,481,578,310,-5.0,35.0,48.0,-74.76806640625,-3.417968511581421,73.1201171875,-0.5035400390625,0.1268310546875,-0.1322021484375
2.260,310,519,593,312,-5.0,35.0,48.0,-79.833984375,-15.808104515075684,75.62255859375,0.0213623046875,0.0426025390625,-0.0748291015625
2.263,309,547,647,311,-5.0,36.0,41.0,-88.98925018310547,-36.0107421875,61.157222747802734,0.517333984375,-0.093017578125,0.152099609375
2.267,310,634,823,311,-5.0,36.0,41.0,-89.84374237060547,-54.748531341552734,29.296873092651367,0.7962646484375,-0.1798095703125,0.3712158203125
2.274,310,689,916,312,-5.0,36.0,41.0,-63.903804779052734,-62.316890716552734,-9.8876953125,0.7459716796875,0.052734375,0.392333984375
2.289,310,739,948,312,-5.0,36.0,41.0,-29.479978561401367,-59.814449310302734,-46.264644622802734,0.2314453125,0.5091552734375,0.235107421875
2.298,309,833,1050,312,-5.0,36.0,41.0,-22.216794967651367,-54.138179779052734,-62.622066497802734,-0.6973876953125,1.111083984375,0.028564453125
2.319,310,864,1137,312,-5.0,36.0,41.0,-43.395992279052734,-50.476070404052734,-50.231929779052734,-1.7264404296875,1.78125,-0.0198974609375
2.322,311,873,1268,311,-5.0,36.0,41.0,-79.4677734375,-52.673336029052734,-25.756834030151367,-2.3203125,1.7060546875,0.483642578125
2.349,310,916,1309,312,-5.0,36.0,41.0,-114.01366424560547,-61.157222747802734,-9.8876953125,-2.8160400390625,-0.7872314453125,1.3431396484375
2.349,309,888,1237,312,-5.0,36.0,41.0,-99.36522674560547,-54.748531341552734,-4.94384765625,-2.8160400390625,-0.7872314453125,1.3431396484375
2.350,312,874,1196,298,-5.0,36.0,41.0,-11.657713890075684,-22.827146530151367,10.498045921325684,-2.7293701171875,-0.704833984375,0.752685546875
2.358,308,853,1153,312,-3.0,35.0,39.0,94.60448455810547,11.474608421325684,39.55078125,-0.8924560546875,0.9814453125,-0.2664794921875
2.367,311,858,1145,312,-3.0,35.0,39.0,143.9208984375,33.3251953125,49.865718841552734,-0.8924560546875,0.9814453125,-0.2664794921875
2.373,310,848,1140,312,-3.0,35.0,39.0,105.65184783935547,41.870113372802734,31.799314498901367,-1.0611572265625,1.6451416015625,-0.348388671875
2.389,311,826,1122,312,-3.0,35.0,39.0,20.690916061401367,39.1845703125,5.310058116912842,-1.9976806640625,0.9892578125,0.0828857421875
2.394,311,809,1101,312,-3.0,35.0,39.0,-43.518062591552734,25.939939498901367,-13.916014671325684,-1.9976806640625,0.9892578125,0.0828857421875
2.403,310,772,1071,313,-3.0,35.0,39.0,-56.152339935302734,6.774901866912842,-21.911619186401367,-1.8692626953125,0.507568359375,0.3250732421875
2.421,311,710,1000,310,-3.0,35.0,39.0,-30.090330123901367,-4.57763671875,-24.108884811401367,-1.4739990234375,0.510498046875,0.2552490234375
2.424,310,662,943,312,-3.0,35.0,39.0,3.112792730331421,-1.8920897245407104,-26.794431686401367,-1.4739990234375,0.510498046875,0.2552490234375
2.444,310,622,867,312,-3.0,35.0,39.0,23.193357467651367,8.60595703125,-28.198240280151367,-1.29833984375,0.60546875,0.13623046875
2.447,310,548,757,310,-2.0,36.0,47.0,26.428220748901367,16.41845703125,-24.353025436401367,-0.7115478515625,0.419189453125,0.190185546875
2.455,297,485,685,313,-2.0,36.0,47.0,20.080564498901367,18.12744140625,-20.01953125,-0.7115478515625,0.419189453125,0.190185546875
2.462,310,465,666,310,-2.0,36.0,47.0,15.014647483825684,20.202634811401367,-21.057126998901367,-0.4505615234375,0.2366943359375,0.2318115234375
2.478,311,407,594,310,-2.0,36.0,47.0,24.475095748901367,30.822751998901367,-40.832515716552734,-0.162353515625,-0.134521484375,0.304443359375
2.485,310,395,568,310,-2.0,36.0,47.0,24.475095748901367,30.822751998901367,-40.832515716552734,-0.17724609375,-0.2305908203125,0.3233642578125
2.501,309,369,543,310,-2.0,36.0,47.0,39.55078125,33.50830078125,-52.185054779052734,-0.17724609375,-0.2305908203125,0.3233642578125
2.507,310,364,512,310,-2.0,36.0,47.0,79.9560546875,40.10009765625,-55.664058685302734,-0.3558349609375,-0.0333251953125,-0.034423828125
2.514,310,360,506,310,-2.0,36.0,47.0,79.9560546875,40.10009765625,-55.664058685302734,-0.4498291015625,0.259765625,-0.1329345703125
2.523,310,354,493,310,-2.0,36.0,47.0,88.56200408935547,35.7666015625,-49.926753997802734,-0.4498291015625,0.259765625,-0.1329345703125
2.537,310,357,468,308,-2.0,36.0,47.0,41.931148529052734,16.54052734375,-26.916501998901367,-0.6114501953125,0.5589599609375,0.0069580078125
2.549,310,356,465,310,-5.0,39.0,41.0,41.931148529052734,16.54052734375,-26.916501998901367,-0.653564453125,0.5006103515625,0.0408935546875
2.553,309,353,452,310,-5.0,39.0,41.0,10.559081077575684,20.01953125,-15.686034202575684,-0.653564453125,0.5006103515625,0.0408935546875
2.566,310,353,452,310,-5.0,39.0,41.0,-23.925779342651367,27.526853561401367,-12.817381858825684,-0.8140869140625,0.2205810546875,0.0345458984375
2.574,310,352,452,310,-5.0,39.0,41.0,-23.925779342651367,27.526853561401367,-12.817381858825684,-0.9227294921875,0.1444091796875,-0.026611328125
2.582,311,353,456,309,-5.0,39.0,41.0,-23.986814498901367,22.521970748901367,-16.2353515625,-0.9227294921875,0.1444091796875,-0.026611328125
2.606,309,354,479,310,-5.0,39.0,41.0,-12.268065452575684,3.417968511581421,-10.437010765075684,-1.01318359375,0.1778564453125,-0.06201171875
2.606,295,352,483,310,-5.0,39.0,41.0,-12.268065452575684,3.417968511581421,-10.437010765075684,-0.983154296875,0.214111328125,-0.012451171875
2.612,310,354,493,310,-5.0,39.0,41.0,-6.469726085662842,-6.042479991912842,-3.784179449081421,-0.93310546875,0.244384765625,0.064697265625
2.626,308,357,499,310,-5.0,39.0,41.0,-7.141112804412842,-15.502928733825684,6.652831554412842,-0.887939453125,0.252197265625,0.1275634765625
2.634,310,357,509,311,-5.0,39.0,41.0,-9.8876953125,-14.343260765075684,9.46044921875,-0.85595703125,0.243408203125,0.1497802734375
2.661,309,359,510,310,-5.0,39.0,41.0,-9.8876953125,-14.343260765075684,9.46044921875,-0.8363037109375,0.231689453125,0.13916015625
2.661,308,360,519,310,-1.0,36.0,51.0,-13.732909202575684,-9.521484375,16.7236328125,-0.8275146484375,0.2257080078125,0.1036376953125
2.665,310,360,527,310,-1.0,36.0,51.0,-17.4560546875,-8.1787109375,22.644041061401367,-0.821533203125,0.2410888671875,0.0555419921875
2.672,309,359,543,310,-1.0,36.0,51.0,-17.4560546875,-8.1787109375,22.644041061401367,-0.8111572265625,0.258056640625,0.0146484375
2.686,310,368,579,310,-1.0,36.0,51.0,-38.02490234375,-5.676269054412842,39.36767578125,-0.7589111328125,0.234375,-0.0284423828125
2.712,309,386,588,310,-1.0,36.0,51.0,-53.771968841552734,-4.69970703125,49.865718841552734,-0.58056640625,0.1610107421875,-0.1334228515625
2.713,310,415,619,310,-1.0,36.0,51.0,-53.771968841552734,-4.69970703125,49.865718841552734,-0.2054443359375,0.0494384765625,-0.233642578125
2.729,310,477,710,311,-1.0,36.0,51.0,-86.60887908935547,-21.606443405151367,59.692378997802734,0.3037109375,-0.0799560546875,-0.1978759765625
2.729,310,506,785,312,-1.0,36.0,51.0,-92.89550018310547,-42.663570404052734,48.339839935302734,0.7039794921875,-0.135009765625,-0.07958984375
2.732,310,549,918,312,-1.0,36.0,51.0,-92.89550018310547,-42.663570404052734,48.339839935302734,0.7991943359375,0.1265869140625,0.001953125
2.758,311,633,1132,312,0.0,34.0,41.0,-44.799800872802734,-68.359375,-11.352538108825684,0.492919921875,0.58056640625,0.071533203125
2.759,310,714,1236,312,0.0,34.0,41.0,-35.5224609375,-72.44873046875,-50.781246185302734,-0.16650390625,0.77587890625,0.1558837890625
2.762,310,778,1348,312,0.0,34.0,41.0,-35.5224609375,-72.44873046875,-50.781246185302734,-1.1461181640625,0.892333984375,0.1959228515625
2.778,310,873,1508,312,0.0,34.0,41.0,-82.21434783935547,-57.434078216552734,-72.021484375,-2.1971435546875,0.9951171875,0.3658447265625
2.784,310,910,1578,311,0.0,34.0,41.0,-129.45556640625,-60.607906341552734,-40.588375091552734,-2.7509765625,0.3719482421875,0.856689453125
2.792,310,927,1619,312,0.0,34.0,41.0,-131.77490234375,-59.326168060302734,-8.30078125,-2.9127197265625,-0.4144287109375,1.2005615234375
2.821,310,893,1518,311,0.0,34.0,41.0,-53.527828216552734,-39.73388671875,25.512693405151367,-2.974609375,-0.37109375,1.0672607421875
2.831,311,878,1471,312,0.0,34.0,41.0,44.006343841552734,-16.05224609375,64.5751953125,-2.2369384765625,-0.046875,0.769287109375
2.832,310,861,1415,313,0.0,34.0,41.0,113.52538299560547,6.774901866912842,76.47705078125,-1.0543212890625,0.4097900390625,0.4879150390625
2.837,310,861,1401,313,0.0,34.0,41.0,138.671875,29.602048873901367,53.527828216552734,-0.683349609375,1.123046875,0.1732177734375
2.864,310,858,1401,312,-1.0,36.0,43.0,102.23387908935547,45.349117279052734,22.094724655151367,-1.219970703125,1.5230712890625,-0.1396484375
2.864,310,840,1387,312,-1.0,36.0,43.0,30.639646530151367,46.691890716552734,0.1831054538488388,-1.9404296875,1.3033447265625,-0.2042236328125
2.867,310,803,1365,313,-1.0,36.0,43.0,-24.658201217651367,31.738279342651367,-8.1787109375,-2.1474609375,0.758056640625,0.023681640625
2.878,312,780,1325,312,-1.0,36.0,43.0,-36.1328125,11.962889671325684,-9.1552734375,-1.9423828125,0.4117431640625,0.2618408203125
2.885,310,751,1271,312,-1.0,36.0,43.0,-16.78466796875,0.54931640625,-8.97216796875,-1.66455078125,0.3668212890625,0.3258056640625
2.904,310,677,1133,311,-1.0,36.0,43.0,8.11767578125,0.1220703050494194,-8.97216796875,-1.401611328125,0.459716796875,0.2652587890625
2.911,311,632,1050,311,-1.0,36.0,43.0,23.437498092651367,5.126952648162842,-4.94384765625,-1.1187744140625,0.5211181640625,0.2216796875
2.921,310,583,966,309,-1.0,36.0,43.0,25.329587936401367,9.765625,1.7089842557907104,-0.8167724609375,0.41064453125,0.261474609375
2.937,310,518,838,311,-1.0,36.0,43.0,20.812986373901367,14.038084983825684,3.906249761581421,-0.546630859375,0.2276611328125,0.30859375
2.937,309,481,809,311,-1.0,36.0,43.0,21.179197311401367,18.9208984375,-1.4648436307907104,-0.3489990234375,0.093505859375,0.2890625
2.960,311,451,778,311,-2.0,37.0,46.0,32.3486328125,22.827146530151367,-14.221190452575684,-0.245849609375,0.0185546875,0.22314453125
2.961,310,408,710,310,-2.0,37.0,46.0,47.973628997802734,24.230955123901367,-30.578611373901367,-0.2374267578125,-0.033203125,0.175048828125
2.965,310,398,673,310,-2.0,37.0,46.0,58.105464935302734,24.047849655151367,-43.273921966552734,-0.2958984375,-0.084228515625,0.1453857421875
2.976,310,371,658,310,-2.0,37.0,46.0,65.12451171875,25.390623092651367,-46.203609466552734,-0.40087890625,-0.0517578125,0.050048828125
2.988,310,368,629,310,-2.0,37.0,46.0,72.69287109375,27.893064498901367,-39.794921875,-0.5013427734375,0.088623046875,-0.083740234375
2.996,310,359,593,309,-2.0,37.0,46.0,74.27978515625,26.611326217651367,-30.578611373901367,-0.5594482421875,0.2396240234375,-0.122314453125
3.006,309,356,566,310,-2.0,37.0,46.0,66.0400390625,19.95849609375,-22.338865280151367,-0.595458984375,0.3388671875,-0.0369873046875
3.019,308,363,558,310,-2.0,37.0,46.0,53.833003997802734,12.451170921325684,-14.343260765075684,-0.620361328125,0.414794921875,0.0611572265625
3.043,310,360,563,312,-2.0,37.0,46.0,42.114253997802734,6.896972179412842,-7.202147960662842,-0.6485595703125,0.474609375,0.093017578125
3.044,310,363,566,311,-2.0,37.0,46.0,29.357908248901367,3.295898199081421,-4.5166015625,-0.700927734375,0.4820556640625,0.082763671875
3.064,310,367,574,310,-2.0,36.0,48.0,16.54052734375,1.8310545682907104,-6.958007335662842,-0.7945556640625,0.44189453125,0.047119140625
3.064,310,353,579,310,-2.0,36.0,48.0,6.835937023162842,1.8310545682907104,-10.681151390075684,-0.896240234375,0.3701171875,-0.0013427734375
3.064,309,367,585,310,-2.0,36.0,48.0,0.0610351525247097,1.0986328125,-11.718749046325684,-0.9468994140625,0.280029296875,-0.0169677734375
3.078,310,373,590,310,-2.0,36.0,48.0,-6.225585460662842,-1.6479490995407104,-8.544921875,-0.9410400390625,0.20263671875,0.0263671875
3.087,310,373,592,310,-2.0,36.0,48.0,-12.695311546325684,-5.0048828125,-2.0751953125,-0.91015625,0.1561279296875,0.0921630859375
3.092,310,379,590,311,-2.0,36.0,48.0,-18.12744140625,-6.530761241912842,6.225585460662842,-0.8846435546875,0.129150390625,0.127685546875
3.109,310,379,587,310,-2.0,36.0,48.0,-21.118162155151367,-6.286620616912842,16.2353515625,-0.8436279296875,0.1190185546875,0.0972900390625
3.118,310,382,588,311,-2.0,36.0,48.0,-22.949216842651367,-6.042479991912842,28.625486373901367,-0.8436279296875,0.1190185546875,0.0972900390625
3.124,310,384,594,310,-2.0,36.0,48.0,-26.916501998901367,-6.835937023162842,43.395992279052734,-0.8233642578125,0.13525390625,0.071044921875
3.145,310,396,601,310,-2.0,36.0,48.0,-35.82763671875,-8.1787109375,60.363765716552734,-0.76220703125,0.143798828125,0.1134033203125
3.145,310,414,590,298,-4.0,37.0,43.0,-49.194332122802734,-9.3994140625,78.79638671875,-0.76220703125,0.143798828125,0.1134033203125
3.165,310,430,607,310,-4.0,37.0,43.0,-59.387203216552734,-13.244627952575684,95.21483612060547,-0.578369140625,0.05419921875,0.1180419921875
3.167,310,483,630,310,-4.0,37.0,43.0,-55.480953216552734,-22.705076217651367,102.11180877685547,0.435302734375,-0.1787109375,0.1109619140625
3.174,310,533,710,312,-4.0,37.0,43.0,-30.212400436401367,-35.7666015625,90.27098846435547,0.435302734375,-0.1787109375,0.1109619140625
3.184,310,576,796,311,-4.0,37.0,43.0,18.61572265625,-44.738765716552734,54.077144622802734,0.911376953125,-0.1356201171875,0.082275390625
3.203,310,662,987,311,-4.0,37.0,43.0,73.66943359375,-43.762203216552734,-1.15966796875,0.4615478515625,0.572998046875,-0.3690185546875
3.210,310,741,1089,312,-4.0,37.0,43.0,87.64647674560547,-39.24560546875,-51.940914154052734,0.4615478515625,0.572998046875,-0.3690185546875
3.217,310,799,1206,311,-4.0,37.0,43.0,34.11865234375,-36.19384765625,-71.6552734375,-0.5140380859375,0.979736328125,-0.443359375
3.226,311,879,1413,312,-4.0,37.0,43.0,-60.607906341552734,-31.677244186401367,-53.405757904052734,-2.5982666015625,1.758056640625,0.3685302734375
3.249,310,916,1521,312,-4.0,37.0,43.0,-163.39109802246094,-42.663570404052734,-16.845703125,-2.7335205078125,0.4598388671875,1.4315185546875
3.249,310,939,1528,312,0.0,33.0,47.0,-231.26219177246094,-72.6318359375,6.286620616912842,-2.7335205078125,0.4598388671875,1.4315185546875
3.271,310,917,1345,310,0.0,33.0,47.0,-46.997066497802734,-45.471187591552734,27.954099655151367,-2.482177734375,-0.7574462890625,1.45458984375
3.271,310,912,1281,312,0.0,33.0,47.0,-46.997066497802734,-45.471187591552734,27.954099655151367,-1.582763671875,0.0328369140625,0.6173095703125
3.273,312,891,1231,312,0.0,33.0,47.0,117.61473846435547,-2.3193359375,55.358882904052734,-1.582763671875,0.0328369140625,0.6173095703125
3.288,308,895,1225,312,0.0,33.0,47.0,169.61668395996094,55.175777435302734,37.53662109375,-0.9287109375,1.5272216796875,-0.516357421875
3.296,312,889,1211,299,0.0,33.0,47.0,169.61668395996094,55.175777435302734,37.53662109375,-1.44384765625,1.4439697265625,-0.4161376953125
3.304,311,885,1198,310,0.0,33.0,47.0,63.232418060302734,52.856441497802734,9.8876953125,-1.44384765625,1.4439697265625,-0.4161376953125
3.317,312,859,1162,311,0.0,33.0,47.0,-66.83349609375,12.207030296325684,-9.46044921875,-1.9345703125,0.6448974609375,0.346923828125
3.324,311,833,1129,313,0.0,33.0,47.0,-66.83349609375,12.207030296325684,-9.46044921875,-1.72998046875,0.5020751953125,0.49951171875
3.332,310,803,1078,312,0.0,33.0,47.0,-53.405757904052734,-1.8920897245407104,-8.30078125,-1.72998046875,0.5020751953125,0.49951171875
3.350,310,744,968,311,-4.0,37.0,44.0,6.286620616912842,4.5166015625,-12.634276390075684,-1.36669921875,0.511474609375,0.3553466796875
3.354,310,700,884,312,-4.0,37.0,44.0,6.286620616912842,4.5166015625,-12.634276390075684,-1.207275390625,0.4710693359375,0.21533203125
3.382,310,660,809,312,-4.0,37.0,44.0,24.108884811401367,12.817381858825684,-16.17431640625,-1.207275390625,0.4710693359375,0.21533203125
3.382,311,592,716,312,-4.0,37.0,44.0,35.5224609375,15.319823265075684,-9.8876953125,-0.656005859375,0.4429931640625,0.1409912109375
3.385,310,535,697,310,-4.0,37.0,44.0,30.639646530151367,12.756346702575684,-14.465331077575684,-0.3258056640625,0.3133544921875,0.1689453125
3.393,311,523,676,312,-4.0,37.0,44.0,30.639646530151367,12.756346702575684,-14.465331077575684,-0.1297607421875,0.2283935546875,0.1400146484375
3.406,310,457,666,311,-4.0,37.0,44.0,20.874021530151367,17.7001953125,-45.532222747802734,-0.108642578125,0.19091796875,0.118408203125
3.416,310,434,640,310,-4.0,37.0,44.0,14.221190452575684,20.446775436401367,-58.410640716552734,-0.18896484375,0.1126708984375,0.15087890625
3.422,311,419,622,311,-4.0,37.0,44.0,14.221190452575684,20.446775436401367,-58.410640716552734,-0.3331298828125,0.0318603515625,0.1832275390625
3.436,308,396,582,310,-4.0,37.0,44.0,17.2119140625,22.827146530151367,-63.476558685302734,-0.4869384765625,0.052001953125,0.126953125
3.444,310,386,576,312,-2.0,35.0,43.0,26.855466842651367,22.216794967651367,-56.335445404052734,-0.605712890625,0.1463623046875,0.0206298828125
3.476,310,379,562,309,-2.0,35.0,43.0,26.855466842651367,22.216794967651367,-56.335445404052734,-0.6795654296875,0.2286376953125,-0.0089111328125
3.477,310,379,542,310,-2.0,35.0,43.0,28.991697311401367,13.183592796325684,-40.893550872802734,-0.702880859375,0.251953125,0.0419921875
3.477,310,369,525,310,-2.0,35.0,43.0,26.672361373901367,9.521484375,-32.77587890625,-0.7139892578125,0.2757568359375,0.0943603515625
3.483,310,381,533,311,-2.0,35.0,43.0,26.672361373901367,9.521484375,-32.77587890625,-0.7259521484375,0.322509765625,0.10986328125
3.497,310,384,536,311,-2.0,35.0,43.0,22.888181686401367,3.417968511581421,-18.61572265625,-0.759765625,0.3370361328125,0.0965576171875
3.507,308,391,535,312,-2.0,35.0,43.0,14.587401390075684,2.13623046875,-16.357421875,-0.8350830078125,0.3192138671875,0.0760498046875
3.519,310,385,543,310,-2.0,35.0,43.0,14.587401390075684,2.13623046875,-16.357421875,-0.918212890625,0.2977294921875,0.0615234375
3.526,310,386,548,311,-2.0,35.0,43.0,-3.234863042831421,3.295898199081421,-10.009765625,-0.9658203125,0.2677001953125,0.0601806640625
3.534,310,386,557,310,-2.0,35.0,43.0,-8.7890625,2.25830078125,-4.94384765625,-0.97509765625,0.227294921875,0.0775146484375
3.550,310,384,558,313,-2.0,37.0,46.0,-12.573241233825684,-0.2441406100988388,1.0986328125,-0.9603271484375,0.1871337890625,0.1080322265625
3.578,310,383,561,310,-2.0,37.0,46.0,-15.197752952575684,-1.8920897245407104,8.544921875,-0.935302734375,0.165771484375,0.1302490234375
3.578,309,383,561,311,-2.0,37.0,46.0,-16.4794921875,-1.8310545682907104,17.333984375,-0.902587890625,0.16748046875,0.1348876953125
3.578,297,371,562,310,-2.0,37.0,46.0,-17.578125,-1.4648436307907104,27.343748092651367,-0.862060546875,0.1827392578125,0.126220703125
3.588,310,385,576,310,-2.0,37.0,46.0,-20.935056686401367,-1.6479490995407104,38.4521484375,-0.83740234375,0.210693359375,0.1033935546875
3.596,309,393,582,310,-2.0,37.0,46.0,-29.663084030151367,-1.03759765625,50.964351654052734,-0.8277587890625,0.2479248046875,0.0794677734375
3.605,310,396,607,310,-2.0,37.0,46.0,-45.349117279052734,0.9155272841453552,64.697265625,-0.7576904296875,0.2591552734375,0.10302734375
3.621,310,427,628,310,-2.0,37.0,46.0,-60.913082122802734,-0.4272460639476776,76.11083984375,-0.525390625,0.15673828125,0.1400146484375
3.625,310,463,621,310,-2.0,37.0,46.0,-61.584468841552734,-9.58251953125,80.01708984375,-0.0926513671875,-0.1160888671875,0.14306640625
3.633,310,506,622,311,-2.0,37.0,46.0,-35.400390625,-25.085447311401367,71.2890625,0.4710693359375,-0.4378662109375,0.1605224609375
3.650,310,586,748,311,-6.0,35.0,46.0,25.329587936401367,-42.419429779052734,44.372554779052734,1.0205078125,-0.512939453125,0.1414794921875
3.655,308,634,869,312,-6.0,35.0,46.0,106.44530487060547,-53.222652435302734,-2.3193359375,1.170654296875,-0.0660400390625,-0.09716796875
3.687,309,695,948,312,-6.0,35.0,46.0,146.78955078125,-51.879878997802734,-51.879878997802734,0.632080078125,0.5325927734375,-0.4190673828125
3.687,308,827,1145,299,-6.0,35.0,46.0,93.13964080810547,-44.677730560302734,-74.03564453125,-0.47900390625,1.0889892578125,-0.604736328125
3.688,311,882,1280,312,-6.0,35.0,46.0,-25.695798873901367,-32.1044921875,-55.969234466552734,-1.863525390625,1.92919921875,-0.5465087890625
3.693,310,932,1416,312,-6.0,35.0,46.0,-153.62548828125,-33.75244140625,-26.245115280151367,-2.743408203125,2.0306396484375,0.200439453125
3.706,310,974,1492,312,-6.0,35.0,46.0,-238.83055114746094,-63.232418060302734,-19.10400390625,-2.806884765625,0.5452880859375,1.3739013671875
3.726,310,951,1393,312,-6.0,35.0,46.0,-208.86228942871094,-77.1484375,-22.888181686401367,-2.744873046875,-0.9365234375,1.953369140625
3.726,296,944,1309,310,-6.0,35.0,46.0,-54.687496185302734,-52.185054779052734,-2.25830078125,-2.5487060546875,-1.0030517578125,1.6046142578125
3.737,310,922,1216,310,-3.0,35.0,46.0,126.89208221435547,-9.46044921875,37.29248046875,-1.639404296875,-0.2349853515625,0.7315673828125
3.752,311,922,1206,312,-3.0,35.0,46.0,227.29490661621094,34.85107421875,53.283687591552734,-0.87890625,0.7786865234375,-0.121337890625
3.752,310,927,1213,312,-3.0,35.0,46.0,196.59422302246094,60.791011810302734,39.0625,-1.0394287109375,1.476318359375,-0.5703125
3.787,310,918,1204,311,-3.0,35.0,46.0,79.833984375,55.053707122802734,16.845703125,-1.5877685546875,1.39013671875,-0.49951171875
3.789,310,906,1196,311,-3.0,35.0,46.0,-23.620603561401367,30.334470748901367,1.4038084745407104,-1.9559326171875,0.9595947265625,-0.1016845703125
3.789,310,861,1153,312,-3.0,35.0,46.0,-64.02587890625,5.310058116912842,-3.906249761581421,-1.9129638671875,0.636474609375,0.282958984375
3.796,310,832,1147,312,-3.0,35.0,46.0,-55.297847747802734,-8.4228515625,-6.408690929412842,-1.7027587890625,0.5615234375,0.441162109375
3.805,310,805,1091,312,-3.0,35.0,46.0,-29.418943405151367,-8.544921875,-10.498045921325684,-1.5411376953125,0.59521484375,0.4189453125
3.814,310,765,1039,312,-3.0,35.0,46.0,-5.798339366912842,-1.8920897245407104,-15.441893577575684,-1.4017333984375,0.5389404296875,0.3541259765625
3.831,311,689,910,311,-3.0,35.0,46.0,12.329100608825684,5.187987804412842,-17.822265625,-1.2313232421875,0.466796875,0.2581787109375
3.836,310,642,823,312,-3.0,35.0,46.0,23.986814498901367,10.925292015075684,-15.197752952575684,-1.0107421875,0.4986572265625,0.155029296875
3.842,310,601,766,310,-3.0,34.0,46.0,23.681638717651367,13.671874046325684,-10.803221702575684,-0.7213134765625,0.4921875,0.1492919921875
3.856,310,531,721,310,-3.0,34.0,46.0,13.671874046325684,14.160155296325684,-12.573241233825684,-0.1904296875,0.2647705078125,0.17822265625
3.865,310,493,738,311,-3.0,34.0,46.0,4.82177734375,15.747069358825684,-24.475095748901367,-0.1904296875,0.2647705078125,0.17822265625
3.891,310,452,684,296,-3.0,34.0,46.0,2.197265625,18.4326171875,-43.334957122802734,-0.11669921875,0.150146484375,0.1588134765625
3.891,310,411,646,312,-3.0,34.0,46.0,2.807616949081421,20.629880905151367,-61.462398529052734,-0.267333984375,-0.1058349609375,0.2237548828125
3.895,310,391,636,310,-3.0,34.0,46.0,6.896972179412842,22.460935592651367,-70.73974609375,-0.267333984375,-0.1058349609375,0.2237548828125
3.903,310,372,631,312,-3.0,34.0,46.0,17.08984375,24.841306686401367,-67.81005859375,-0.415771484375,-0.0723876953125,0.16748046875
3.917,310,367,612,310,-3.0,34.0,46.0,29.052732467651367,28.747556686401367,-57.922359466552734,-0.619140625,0.113525390625,-0.016845703125
3.927,309,356,601,310,-3.0,34.0,46.0,34.36279296875,29.907224655151367,-47.180171966552734,-0.619140625,0.113525390625,-0.016845703125
3.933,308,354,592,310,-3.0,34.0,46.0,31.616209030151367,24.658201217651367,-35.5224609375,-0.6802978515625,0.1717529296875,0.01318359375
3.946,310,349,548,310,-5.0,33.0,44.0,26.428220748901367,17.08984375,-22.277830123901367,-0.7587890625,0.2711181640625,0.08544921875
3.956,309,353,554,310,-5.0,33.0,44.0,21.484373092651367,11.962889671325684,-10.131834983825684,-0.7587890625,0.2711181640625,0.08544921875
3.962,307,356,547,311,-5.0,33.0,44.0,14.343260765075684,9.70458984375,-1.5258787870407104,-0.8101806640625,0.2906494140625,0.10009765625
3.990,310,357,543,310,-5.0,33.0,44.0,5.0048828125,9.033203125,3.479003667831421,-0.9381103515625,0.2767333984375,0.114013671875
3.990,310,360,538,309,-5.0,33.0,44.0,-3.845214605331421,9.09423828125,5.920409679412842,-0.96875,0.2532958984375,0.1090087890625
3.993,309,364,538,310,-5.0,33.0,44.0,-9.765625,8.85009765625,7.141112804412842,-0.96875,0.2532958984375,0.1090087890625
4.006,310,370,530,310,-5.0,33.0,44.0,-12.023924827575684,5.065917491912842,12.207030296325684,-0.932373046875,0.21142578125,0.1326904296875
4.015,310,371,529,310,-5.0,33.0,44.0,-12.023924827575684,5.065917491912842,12.207030296325684,-0.9112548828125,0.209716796875,0.1593017578125
4.030,308,371,525,310,-5.0,33.0,44.0,-11.413573265075684,3.601073980331421,17.51708984375,-0.9112548828125,0.209716796875,0.1593017578125
4.037,310,371,523,310,-2.0,33.0,51.0,-14.282225608825684,6.286620616912842,32.16552734375,-0.90283203125,0.21630859375,0.111572265625
4.045,308,371,523,310,-2.0,33.0,51.0,-14.282225608825684,6.286620616912842,32.16552734375,-0.906494140625,0.20751953125,0.084716796875
4.063,310,368,527,310,-2.0,33.0,51.0,-21.850584030151367,7.507323741912842,42.541500091552734,-0.906494140625,0.20751953125,0.084716796875
4.067,309,371,537,310,-2.0,33.0,51.0,-44.616695404052734,7.812499523162842,70.61767578125,-0.903076171875,0.197265625,0.138427734375
4.094,310,371,545,310,-2.0,33.0,51.0,-44.616695404052734,7.812499523162842,70.61767578125,-0.8741455078125,0.1695556640625,0.1873779296875
4.095,310,372,543,311,-2.0,33.0,51.0,-57.495113372802734,9.8876953125,87.15819549560547,-0.8741455078125,0.1695556640625,0.1873779296875
4.097,309,399,554,310,-2.0,33.0,51.0,-58.166500091552734,-1.9531248807907104,115.41747283935547,-0.5169677734375,-0.0181884765625,0.222412109375
4.105,309,433,527,310,-2.0,33.0,51.0,-58.166500091552734,-1.9531248807907104,115.41747283935547,0.003173828125,-0.17822265625,0.203857421875
4.113,308,454,493,311,-2.0,33.0,51.0,-31.311033248901367,-20.324705123901367,115.96678924560547,0.003173828125,-0.17822265625,0.203857421875
4.131,310,529,601,311,-2.0,33.0,51.0,95.33690643310547,-54.260250091552734,41.259761810302734,1.05712890625,-0.535888671875,0.088134765625
4.135,309,587,750,310,-5.0,34.0,48.0,95.33690643310547,-54.260250091552734,41.259761810302734,1.065185546875,0.0467529296875,-0.4691162109375
4.143,310,645,814,311,-5.0,34.0,48.0,172.72947692871094,-51.879878997802734,-22.705076217651367,0.4920654296875,0.800048828125,-1.0118408203125
4.190,310,772,882,311,-5.0,34.0,48.0,73.486328125,-39.306640625,-79.1015625,-0.6219482421875,1.43017578125,-1.241455078125
4.190,309,832,1043,312,-5.0,34.0,48.0,-78.4912109375,-33.8134765625,-38.330078125,-2.021484375,2.413818359375,-1.0855712890625
4.191,310,873,1292,298,-5.0,34.0,48.0,-78.4912109375,-33.8134765625,-38.330078125,-2.9010009765625,2.6376953125,0.1214599609375
4.191,310,912,1442,311,-5.0,34.0,48.0,-208.67918395996094,-43.884273529052734,7.202147960662842,-2.9010009765625,2.6376953125,0.1214599609375
4.201,310,922,1351,312,-5.0,34.0,48.0,-285.15625,-113.89159393310547,-4.57763671875,-2.4847412109375,-1.602294921875,2.830322265625
4.204,310,907,1225,312,-5.0,34.0,48.0,-285.15625,-113.89159393310547,-4.57763671875,-2.08837890625,-1.8099365234375,2.1370849609375
4.211,309,901,1137,312,-5.0,34.0,48.0,-97.77831268310547,-78.18603515625,-5.920409679412842,-2.08837890625,-1.8099365234375,2.1370849609375
4.225,309,902,1104,312,-5.0,34.0,48.0,314.697265625,54.321285247802734,51.147457122802734,-0.869140625,1.294921875,-0.52490234375
4.236,310,902,1122,312,-4.0,34.0,46.0,268.73779296875,84.41161346435547,35.82763671875,-1.1973876953125,1.9649658203125,-0.97509765625
4.242,310,904,1122,312,-4.0,34.0,46.0,268.73779296875,84.41161346435547,35.82763671875,-1.6708984375,1.501220703125,-0.6378173828125
4.256,311,891,1112,312,-4.0,34.0,46.0,-45.532222747802734,28.381345748901367,-10.131834983825684,-1.9130859375,0.8497314453125,0.0030517578125
4.264,310,877,1098,312,-4.0,34.0,46.0,-95.21483612060547,1.4038084745407104,-10.803221702575684,-1.865966796875,0.5350341796875,0.4263916015625
4.271,310,854,1092,312,-4.0,34.0,46.0,-95.21483612060547,1.4038084745407104,-10.803221702575684,-1.721923828125,0.550048828125,0.4854736328125
4.293,310,808,1043,310,-4.0,34.0,46.0,-38.330078125,-4.0283203125,-6.835937023162842,-1.56494140625,0.6365966796875,0.381591796875
4.296,310,765,994,312,-4.0,34.0,46.0,-3.906249761581421,0.7934569716453552,-10.559081077575684,-1.3665771484375,0.6016845703125,0.31201171875
4.308,308,712,948,312,-4.0,34.0,46.0,-3.906249761581421,0.7934569716453552,-10.559081077575684,-1.1307373046875,0.552001953125,0.2647705078125
4.315,308,636,840,311,-4.0,34.0,46.0,36.376953125,7.507323741912842,-13.854979515075684,-0.8729248046875,0.5921630859375,0.201904296875
4.324,310,589,795,311,-4.0,34.0,46.0,34.5458984375,10.192870140075684,-13.977049827575684,-0.6005859375,0.606201171875,0.1708984375
4.338,310,547,757,312,-5.0,35.0,48.0,34.5458984375,10.192870140075684,-13.977049827575684,-0.335693359375,0.5142822265625,0.143798828125
4.345,312,477,753,312,-5.0,35.0,48.0,-2.197265625,18.49365234375,-34.36279296875,-0.1612548828125,0.3590087890625,0.0909423828125
4.354,310,441,756,310,-5.0,35.0,48.0,-19.53125,22.338865280151367,-53.771968841552734,-0.1153564453125,0.1676025390625,0.0802001953125
4.367,308,415,741,310,-5.0,35.0,48.0,-19.53125,22.338865280151367,-53.771968841552734,-0.1702880859375,-0.0380859375,0.13037109375
4.375,310,384,673,311,-5.0,35.0,48.0,-20.690916061401367,19.4091796875,-82.64159393310547,-0.3134765625,-0.1357421875,0.18408203125
4.398,309,373,650,312,-5.0,35.0,48.0,-3.295898199081421,19.34814453125,-80.26123046875,-0.487060546875,-0.072998046875,0.158935546875
4.398,310,367,634,310,-5.0,35.0,48.0,16.17431640625,24.047849655151367,-69.76318359375,-0.6190185546875,0.0623779296875,0.07275390625
4.412,310,360,613,310,-5.0,35.0,48.0,26.855466842651367,29.296873092651367,-59.143062591552734,-0.70166015625,0.17822265625,0.037841796875
4.414,310,355,601,311,-5.0,35.0,48.0,23.376462936401367,29.724119186401367,-49.682613372802734,-0.7518310546875,0.22900390625,0.0872802734375
4.421,310,354,594,310,-5.0,35.0,48.0,12.084959983825684,26.794431686401367,-38.63525390625,-0.768798828125,0.2401123046875,0.14794921875
4.440,310,356,587,309,-4.0,36.0,49.0,3.417968511581421,24.047849655151367,-26.306150436401367,-0.772216796875,0.2476806640625,0.162109375
4.443,310,356,582,311,-4.0,36.0,49.0,-0.1220703050494194,21.179197311401367,-15.808104515075684,-0.7806396484375,0.249267578125,0.149658203125
4.452,310,356,578,311,-4.0,36.0,49.0,-1.4038084745407104,17.39501953125,-9.033203125,-0.8033447265625,0.24609375,0.1287841796875
4.471,310,356,579,310,-4.0,36.0,49.0,-1.9531248807907104,14.160155296325684,-5.187987804412842,-0.85888671875,0.2564697265625,0.09326171875
4.474,310,354,579,310,-4.0,36.0,49.0,-3.723144292831421,12.451170921325684,-1.5869139432907104,-0.9288330078125,0.271240234375,0.0587158203125
4.507,309,352,579,311,-4.0,36.0,49.0,-7.568358898162842,11.047362327575684,3.234863042831421,-0.971435546875,0.2620849609375,0.0501708984375
4.507,310,352,566,310,-4.0,36.0,49.0,-11.291502952575684,9.033203125,9.27734375,-0.9718017578125,0.22265625,0.06689453125
4.508,310,352,564,311,-4.0,36.0,49.0,-12.145995140075684,6.408690929412842,16.05224609375,-0.9461669921875,0.1820068359375,0.095947265625
4.511,308,355,562,308,-4.0,36.0,49.0,-9.1552734375,3.723144292831421,23.803709030151367,-0.9180908203125,0.1796875,0.1195068359375
4.525,308,360,564,310,-4.0,36.0,49.0,-5.126952648162842,1.5869139432907104,32.40966796875,-0.9002685546875,0.216552734375,0.1302490234375
4.535,310,357,564,310,-4.0,34.0,48.0,-4.82177734375,0.3662109076976776,41.015621185302734,-0.8876953125,0.2490234375,0.1270751953125
4.542,302,363,572,310,-4.0,34.0,48.0,-10.253905296325684,0.1220703050494194,49.926753997802734,-0.8665771484375,0.2427978515625,0.1048583984375
4.555,310,372,590,309,-4.0,34.0,48.0,-20.874021530151367,0.3662109076976776,60.180660247802734,-0.7987060546875,0.2135009765625,0.0792236328125
4.563,310,382,613,312,-4.0,34.0,48.0,-34.3017578125,-2.197265625,71.35009765625,-0.6466064453125,0.17919921875,0.068115234375
4.574,310,410,619,310,-4.0,34.0,48.0,-45.654293060302734,-11.474608421325684,79.65087890625,-0.35302734375,0.115966796875,0.0728759765625
4.595,310,482,601,310,-4.0,34.0,48.0,-44.189449310302734,-28.137205123901367,77.5146484375,0.1654052734375,-0.071044921875,0.0909423828125
4.605,311,530,678,312,-4.0,34.0,48.0,-14.221190452575684,-46.936031341552734,56.701656341552734,0.735595703125,-0.4083251953125,0.118896484375
4.606,310,585,766,311,-4.0,34.0,48.0,52.856441497802734,-56.701656341552734,16.41845703125,1.072021484375,-0.388427734375,-0.0042724609375
4.627,310,705,959,311,-4.0,34.0,48.0,121.70409393310547,-51.330562591552734,-36.0107421875,0.931884765625,0.33740234375,-0.343994140625
4.628,296,793,1022,299,-4.0,34.0,48.0,111.99950408935547,-37.4755859375,-82.70262908935547,0.225341796875,0.9874267578125,-0.5760498046875
4.632,311,852,1189,312,-6.0,36.0,44.0,2.3193359375,-25.878904342651367,-98.02245330810547,-1.0133056640625,1.4534912109375,-0.5894775390625
4.645,311,955,1380,312,-6.0,36.0,44.0,-129.21142578125,-32.5927734375,-76.11083984375,-2.2947998046875,1.90869140625,-0.231201171875
4.658,311,982,1443,312,-6.0,36.0,44.0,-209.71678161621094,-70.1904296875,-54.016109466552734,-2.7755126953125,1.172607421875,0.773681640625
4.665,312,989,1444,314,-6.0,36.0,44.0,-205.56639099121094,-100.52489471435547,-56.701656341552734,-2.6806640625,-0.3876953125,1.734375
4.675,312,959,1334,312,-6.0,36.0,44.0,-101.44042205810547,-82.33641815185547,-52.307125091552734,-2.724609375,-0.9459228515625,1.8428955078125
4.704,312,943,1275,312,-6.0,36.0,44.0,47.790523529052734,-37.9638671875,-13.427733421325684,-2.2640380859375,-0.5506591796875,1.2568359375
4.705,310,931,1251,311,-6.0,36.0,44.0,163.33006286621094,7.751464366912842,26.550291061401367,-1.22998046875,-0.0286865234375,0.475341796875
4.706,309,938,1243,310,-6.0,36.0,44.0,202.20945739746094,45.959468841552734,36.43798828125,-1.3192138671875,1.2857666015625,-0.410888671875
4.714,311,933,1236,313,-6.0,36.0,44.0,140.31982421875,60.852046966552734,30.761716842651367,-1.3192138671875,1.2857666015625,-0.410888671875
4.721,310,927,1225,311,-6.0,36.0,44.0,26.794431686401367,51.025386810302734,20.324705123901367,-1.910888671875,1.1827392578125,-0.30029296875
4.739,310,902,1199,310,-1.0,33.0,39.0,-50.048824310302734,29.479978561401367,10.192870140075684,-1.8271484375,0.4957275390625,0.3656005859375
4.746,310,873,1175,311,-1.0,33.0,39.0,-64.39208984375,9.765625,5.737304210662842,-1.8271484375,0.4957275390625,0.3656005859375
4.751,310,846,1122,311,-1.0,33.0,39.0,-43.273921966552734,2.0751953125,4.5166015625,-1.552490234375,0.451416015625,0.4495849609375
4.765,311,766,1000,312,-1.0,33.0,39.0,-14.892577171325684,5.249022960662842,3.295898199081421,-1.3424072265625,0.519287109375,0.3095703125
4.775,310,710,922,310,-1.0,33.0,39.0,7.141112804412842,10.742186546325684,3.967284917831421,-1.3424072265625,0.519287109375,0.3095703125
4.781,310,648,858,311,-1.0,33.0,39.0,18.5546875,15.258788108825684,10.375975608825684,-1.20458984375,0.5673828125,0.2152099609375
4.808,310,562,741,311,-1.0,33.0,39.0,17.333984375,17.9443359375,20.629880905151367,-0.623291015625,0.2681884765625,0.2392578125
4.808,308,509,718,311,-1.0,33.0,39.0,8.6669921875,18.85986328125,27.709959030151367,-0.623291015625,0.2681884765625,0.2392578125
4.812,310,472,694,311,-1.0,33.0,39.0,5.065917491912842,20.263669967651367,25.634763717651367,-0.311279296875,0.013916015625,0.2320556640625
4.825,308,414,639,311,-1.0,33.0,39.0,13.916014671325684,20.202634811401367,13.305663108825684,-0.0419921875,-0.164306640625,0.275634765625
4.834,310,386,629,312,-3.0,33.0,43.0,31.677244186401367,17.333984375,-7.141112804412842,-0.1492919921875,-0.0938720703125,0.2103271484375
4.851,310,373,606,311,-3.0,33.0,43.0,48.950191497802734,17.15087890625,-29.907224655151367,-0.1492919921875,-0.0938720703125,0.2103271484375
4.856,310,357,588,309,-3.0,33.0,43.0,61.401363372802734,33.5693359375,-50.109859466552734,-0.506591796875,0.2806396484375,-0.1064453125
4.864,309,352,576,310,-3.0,33.0,43.0,61.401363372802734,33.5693359375,-50.109859466552734,-0.5943603515625,0.44384765625,-0.1268310546875
4.881,310,352,564,310,-3.0,33.0,43.0,54.565425872802734,35.2783203125,-42.602535247802734,-0.5943603515625,0.44384765625,-0.1268310546875
4.886,309,352,554,309,-3.0,33.0,43.0,24.169919967651367,27.099607467651367,-18.85986328125,-0.671630859375,0.463134765625,-0.0123291015625
4.914,310,346,549,311,-3.0,33.0,43.0,24.169919967651367,27.099607467651367,-18.85986328125,-0.7374267578125,0.3314208984375,0.054931640625
4.915,310,349,543,310,-3.0,33.0,43.0,7.385253429412842,22.094724655151367,-12.756346702575684,-0.7374267578125,0.3314208984375,0.054931640625
4.915,297,349,527,310,-3.0,33.0,43.0,-4.638671875,13.610838890075684,-5.981444835662842,-0.906005859375,0.203857421875,0.12060546875
4.924,310,346,518,308,-3.0,33.0,43.0,-4.638671875,13.610838890075684,-5.981444835662842,-0.9847412109375,0.2548828125,0.11572265625
4.932,310,341,508,308,-5.0,33.0,41.0,-1.3427733182907104,11.047362327575684,-0.9155272841453552,-0.9847412109375,0.2548828125,0.11572265625
4.949,310,345,496,310,-5.0,33.0,41.0,1.7089842557907104,6.469726085662842,9.27734375,-1.02880859375,0.2880859375,0.083984375
4.959,308,340,483,310,-5.0,33.0,41.0,1.7089842557907104,6.469726085662842,9.27734375,-0.9991455078125,0.2662353515625,0.070068359375
4.962,309,342,477,312,-5.0,33.0,41.0,0.9155272841453552,4.21142578125,13.854979515075684,-0.9991455078125,0.2662353515625,0.070068359375
4.983,309,342,456,310,-5.0,33.0,41.0,-0.9765624403953552,0.0610351525247097,22.033689498901367,-0.9176025390625,0.2532958984375,0.078369140625
4.984,307,342,465,310,-5.0,33.0,41.0,-1.8310545682907104,-1.5869139432907104,25.817869186401367,-0.8743896484375,0.2822265625,0.094482421875
5.009,309,338,465,310,-5.0,33.0,41.0,-1.8310545682907104,-1.5869139432907104,25.817869186401367,-0.8341064453125,0.318359375,0.0914306640625
5.009,308,342,481,308,-5.0,33.0,41.0,-7.385253429412842,-2.746581792831421,31.433103561401367,-0.7978515625,0.3375244140625,0.0726318359375
5.014,310,343,481,310,-5.0,33.0,41.0,-14.404295921325684,-2.868652105331421,34.97314453125,-0.769287109375,0.3319091796875,0.0546875
5.022,310,345,499,310,-5.0,33.0,41.0,-14.404295921325684,-2.868652105331421,34.97314453125,-0.7196044921875,0.29931640625,0.045166015625
5.036,309,364,531,310,-7.0,35.0,45.0,-39.0625,-7.385253429412842,49.133296966552734,-0.5828857421875,0.2066650390625,0.0157470703125
5.054,310,386,557,310,-7.0,35.0,45.0,-48.461910247802734,-16.17431640625,56.518550872802734,-0.2642822265625,0.078369140625,-0.0484619140625
5.054,310,400,578,310,-7.0,35.0,45.0,-48.461910247802734,-16.17431640625,56.518550872802734,0.2576904296875,-0.076904296875,-0.082763671875
5.069,309,488,545,310,-7.0,35.0,45.0,-44.921871185302734,-51.513668060302734,48.278804779052734,0.6942138671875,-0.3692626953125,-0.005126953125
5.074,311,540,657,308,-7.0,35.0,45.0,-9.521484375,-62.499996185302734,29.052732467651367,0.869384765625,-0.560302734375,0.054931640625
5.083,310,594,756,311,-7.0,35.0,45.0,-9.521484375,-62.499996185302734,29.052732467651367,0.7216796875,-0.0399169921875,-0.0731201171875
5.113,310,723,944,310,-7.0,35.0,45.0,72.3876953125,-39.0625,-33.50830078125,0.1219482421875,0.75048828125,-0.25439453125
5.136,310,797,1065,311,-7.0,35.0,45.0,-1.220703125,-24.780271530151367,-62.866207122802734,-0.8568115234375,1.111328125,-0.2327880859375
5.138,293,835,1196,311,-7.0,35.0,45.0,-1.220703125,-24.780271530151367,-62.866207122802734,-1.9189453125,1.4051513671875,-0.005859375
5.141,298,939,1340,312,-3.0,33.0,49.0,-175.72019958496094,-58.410640716552734,-21.179197311401367,-2.60595703125,1.4630126953125,0.51513671875
5.144,310,957,1395,298,-3.0,33.0,49.0,-174.19432067871094,-84.65575408935547,1.7089842557907104,-2.8243408203125,0.727783203125,1.303466796875
5.146,310,938,1349,312,-3.0,33.0,49.0,-115.11229705810547,-81.72606658935547,7.629394054412842,-2.864501953125,-0.220947265625,1.7481689453125
5.166,311,927,1219,311,-3.0,33.0,49.0,-9.09423828125,-50.048824310302734,18.12744140625,-2.2923583984375,-0.5704345703125,1.4534912109375
5.173,310,910,1162,312,-3.0,33.0,49.0,108.15428924560547,-4.39453125,33.63037109375,-1.1964111328125,-0.2222900390625,0.692626953125
5.175,310,912,1157,312,-3.0,33.0,49.0,180.66404724121094,39.6728515625,39.4287109375,-0.738525390625,0.7412109375,-0.0389404296875
5.189,311,917,1162,312,-3.0,33.0,49.0,155.57861328125,61.767574310302734,33.203125,-1.10595703125,1.5140380859375,-0.4246826171875
5.218,310,913,1149,312,-3.0,33.0,49.0,53.710933685302734,57.678218841552734,15.624999046325684,-1.7054443359375,1.440185546875,-0.346923828125
5.218,308,902,1134,313,-3.0,33.0,49.0,-37.78076171875,39.6728515625,-2.929687261581421,-2.03564453125,0.9464111328125,0.0146484375
5.220,310,874,1089,312,-3.0,33.0,49.0,-68.84765625,20.141599655151367,-10.498045921325684,-1.9681396484375,0.5345458984375,0.31494140625
5.225,310,840,1050,312,-3.0,34.0,46.0,-52.429195404052734,8.056640625,-8.72802734375,-1.73583984375,0.41845703125,0.4000244140625
5.233,309,813,989,312,-3.0,34.0,46.0,-21.850584030151367,4.8828125,-4.82177734375,-1.5184326171875,0.4471435546875,0.36083984375
5.247,310,740,891,310,-3.0,34.0,46.0,6.042479991912842,6.225585460662842,-4.2724609375,-1.3270263671875,0.4517822265625,0.3345947265625
5.265,311,689,833,311,-3.0,34.0,46.0,28.991697311401367,9.33837890625,-4.69970703125,-1.1270751953125,0.4940185546875,0.2984619140625
5.266,310,644,767,311,-3.0,34.0,46.0,40.527339935302734,13.244627952575684,-1.6479490995407104,-0.8721923828125,0.563720703125,0.209228515625
5.277,310,561,723,310,-3.0,34.0,46.0,35.888671875,16.41845703125,0.4272460639476776,-0.54931640625,0.533447265625,0.144775390625
5.295,310,518,703,310,-3.0,34.0,46.0,22.338865280151367,17.08984375,-6.774901866912842,-0.2320556640625,0.424560546875,0.1243896484375
5.295,310,475,711,312,-3.0,34.0,46.0,8.7890625,16.4794921875,-25.817869186401367,-0.043701171875,0.31787109375,0.1077880859375
5.368,308,428,685,312,-3.0,34.0,46.0,-1.8310545682907104,17.7001953125,-51.330562591552734,-0.015625,0.2032470703125,0.1092529296875
5.368,309,410,657,310,-3.0,34.0,46.0,-6.652831554412842,21.484373092651367,-71.8994140625,-0.109375,0.066162109375,0.129638671875
5.368,310,401,635,307,-3.0,34.0,46.0,-1.15966796875,25.939939498901367,-78.67431640625,-0.2808837890625,-0.005859375,0.1153564453125
5.368,311,393,620,310,-3.0,35.0,44.0,14.160155296325684,28.869626998901367,-72.509765625,-0.44873046875,0.0506591796875,0.0377197265625
5.368,310,386,606,310,-3.0,35.0,44.0,29.907224655151367,28.686521530151367,-62.438961029052734,-0.587890625,0.17138671875,-0.0257568359375
5.368,310,391,601,310,-3.0,35.0,44.0,32.71484375,23.193357467651367,-55.236812591552734,-0.6898193359375,0.23388671875,0.009521484375
5.371,310,399,592,310,-3.0,35.0,44.0,21.179197311401367,14.587401390075684,-49.377437591552734,-0.7376708984375,0.2225341796875,0.100341796875
5.374,310,402,588,310,-3.0,35.0,44.0,6.652831554412842,8.544921875,-41.320796966552734,-0.7701416015625,0.2110595703125,0.1536865234375
5.384,310,408,585,310,-3.0,35.0,44.0,-3.356933355331421,7.324218273162842,-31.372068405151367,-0.8319091796875,0.2244873046875,0.121337890625
5.396,309,409,585,310,-3.0,35.0,44.0,-8.6669921875,8.60595703125,-23.071287155151367,-0.970458984375,0.278564453125,0.0125732421875
5.421,310,411,585,310,-3.0,35.0,44.0,-10.742186546325684,8.1787109375,-18.12744140625,-0.970458984375,0.278564453125,0.0125732421875
5.421,310,396,582,292,-3.0,35.0,44.0,-11.901854515075684,4.45556640625,-15.441893577575684,-1.000244140625,0.2802734375,0.0311279296875
5.426,309,411,590,310,-3.0,35.0,46.0,-13.854979515075684,-0.7324218153953552,-13.305663108825684,-0.9833984375,0.224853515625,0.1339111328125
5.435,310,409,590,310,-3.0,35.0,46.0,-16.357421875,-4.45556640625,-10.314940452575684,-0.9833984375,0.224853515625,0.1339111328125
5.442,310,410,592,310,-3.0,35.0,46.0,-18.73779296875,-5.432128429412842,-6.103515148162842,-0.964111328125,0.2041015625,0.18359375
5.459,310,409,594,310,-3.0,35.0,46.0,-20.690916061401367,-3.906249761581421,-1.03759765625,-0.9539794921875,0.185546875,0.2001953125
5.466,310,408,601,310,-3.0,35.0,46.0,-21.728513717651367,-1.6479490995407104,4.82177734375,-0.9539794921875,0.185546875,0.2001953125
5.478,309,402,603,311,-3.0,35.0,46.0,-21.850584030151367,-0.4882812201976776,11.718749046325684,-0.9420166015625,0.187255859375,0.1962890625
5.494,309,396,603,310,-3.0,35.0,46.0,-21.545408248901367,-0.6713866591453552,19.59228515625,-0.9061279296875,0.1802978515625,0.1524658203125
5.495,310,395,607,292,-3.0,35.0,46.0,-22.521970748901367,-1.220703125,28.686521530151367,-0.9061279296875,0.1802978515625,0.1524658203125
5.528,310,396,616,311,-3.0,35.0,46.0,-26.855466842651367,-0.7324218153953552,39.97802734375,-0.8912353515625,0.1890869140625,0.118408203125
5.528,310,411,657,310,-3.0,35.0,46.0,-52.734371185302734,1.7700194120407104,68.84765625,-0.7589111328125,0.173828125,0.108154296875
5.529,310,428,662,310,-1.0,35.0,44.0,-52.734371185302734,1.7700194120407104,68.84765625,-0.4393310546875,0.07666015625,0.045654296875
5.533,310,465,673,311,-1.0,35.0,44.0,-65.3076171875,-2.563476324081421,81.23778533935547,-0.4393310546875,0.07666015625,0.045654296875
5.547,310,524,710,311,-1.0,35.0,44.0,-26.916501998901367,-35.400390625,65.00244140625,0.800537109375,-0.360595703125,0.04296875
5.556,309,572,790,310,-1.0,35.0,44.0,-26.916501998901367,-35.400390625,65.00244140625,1.0615234375,-0.213134765625,0.07763671875
5.567,310,620,910,311,-1.0,35.0,44.0,35.64453125,-49.072261810302734,29.846189498901367,1.0615234375,-0.213134765625,0.07763671875
5.586,310,750,1103,312,-1.0,35.0,44.0,91.67479705810547,-43.579097747802734,-55.297847747802734,0.1231689453125,0.9349365234375,-0.178466796875
5.588,311,813,1209,312,-1.0,35.0,44.0,91.67479705810547,-43.579097747802734,-55.297847747802734,-0.8603515625,1.22509765625,-0.3514404296875
5.595,311,884,1336,312,-1.0,35.0,44.0,15.319823265075684,-31.738279342651367,-78.67431640625,-0.8603515625,1.22509765625,-0.3514404296875
5.625,311,966,1484,312,-1.0,35.0,44.0,-153.01513671875,-50.415035247802734,-59.692378997802734,-2.4454345703125,1.092041015625,0.44775390625
5.633,310,990,1534,312,-1.0,35.0,44.0,-153.01513671875,-50.415035247802734,-59.692378997802734,-2.5211181640625,-0.0877685546875,1.3900146484375
5.633,310,1013,1506,312,-1.0,31.0,47.0,-168.94529724121094,-79.52880859375,-58.044429779052734,-2.5211181640625,-0.0877685546875,1.3900146484375
5.638,311,987,1464,312,-1.0,31.0,47.0,11.047362327575684,-39.4287109375,-30.151365280151367,-2.591796875,-0.240478515625,1.147705078125
5.645,311,980,1430,313,-1.0,31.0,47.0,11.047362327575684,-39.4287109375,-30.151365280151367,-1.708984375,-0.0015869140625,0.5535888671875
5.653,310,958,1392,311,-1.0,31.0,47.0,99.73143768310547,-3.234863042831421,3.417968511581421,-1.708984375,-0.0015869140625,0.5535888671875
5.671,310,963,1383,311,-1.0,31.0,47.0,113.34227752685547,44.555660247802734,10.559081077575684,-0.9569091796875,0.75,-0.1214599609375
5.676,310,966,1374,312,-1.0,31.0,47.0,40.649410247802734,45.471187591552734,5.615233898162842,-1.5072021484375,0.90087890625,-0.1260986328125
5.699,311,958,1363,312,-1.0,31.0,47.0,40.649410247802734,45.471187591552734,5.615233898162842,-1.9981689453125,0.818115234375,0.06201171875
5.699,310,931,1316,312,-1.0,31.0,47.0,-49.438472747802734,20.935056686401367,1.4648436307907104,-1.988525390625,0.575927734375,0.3131103515625
5.705,309,904,1289,312,-1.0,31.0,47.0,-41.625972747802734,8.72802734375,1.5869139432907104,-1.677734375,0.393310546875,0.4591064453125
5.718,310,871,1234,311,-1.0,31.0,47.0,-41.625972747802734,8.72802734375,1.5869139432907104,-1.4205322265625,0.3671875,0.4578857421875
5.727,310,811,1143,311,1.0,34.0,42.0,-0.7934569716453552,11.474608421325684,5.798339366912842,-1.27880859375,0.3516845703125,0.3980712890625
5.734,308,763,1067,312,1.0,34.0,42.0,11.962889671325684,17.333984375,11.596678733825684,-1.16455078125,0.373046875,0.311279296875
5.745,311,716,975,310,1.0,34.0,42.0,11.962889671325684,17.333984375,11.596678733825684,-0.9925537109375,0.4482421875,0.2259521484375
5.757,310,640,853,311,1.0,34.0,42.0,17.15087890625,23.864744186401367,22.216794967651367,-0.7479248046875,0.408935546875,0.2001953125
5.766,310,601,799,312,1.0,34.0,42.0,12.939452171325684,23.620603561401367,15.808104515075684,-0.5106201171875,0.2750244140625,0.1834716796875
5.773,310,557,772,311,1.0,34.0,42.0,12.939452171325684,23.620603561401367,15.808104515075684,-0.358154296875,0.1907958984375,0.1220703125
5.786,310,508,741,310,1.0,34.0,42.0,12.756346702575684,24.658201217651367,-15.747069358825684,-0.3082275390625,0.155517578125,0.0552978515625
5.805,311,485,713,311,1.0,34.0,42.0,11.962889671325684,26.916501998901367,-31.066892623901367,-0.3333740234375,0.0809326171875,0.057861328125
5.805,310,463,689,310,1.0,34.0,42.0,11.962889671325684,26.916501998901367,-31.066892623901367,-0.3897705078125,-0.0218505859375,0.1090087890625
5.832,310,442,657,310,1.0,34.0,42.0,13.549803733825684,29.663084030151367,-40.710445404052734,-0.4488525390625,-0.0572509765625,0.123291015625
5.832,309,437,633,298,-2.0,35.0,47.0,19.287109375,29.174802780151367,-34.423828125,-0.505126953125,-0.008544921875,0.0992431640625
5.833,308,438,620,311,-2.0,35.0,47.0,23.986814498901367,26.367185592651367,-24.658201217651367,-0.5572509765625,0.07861328125,0.0777587890625
5.846,310,439,606,312,-2.0,35.0,47.0,27.099607467651367,22.460935592651367,-14.343260765075684,-0.61572265625,0.1868896484375,0.07177734375
5.858,310,439,607,310,-2.0,35.0,47.0,26.428220748901367,18.00537109375,-5.615233898162842,-0.694091796875,0.2896728515625,0.0760498046875
5.863,310,441,601,310,-2.0,35.0,47.0,19.53125,13.427733421325684,0.30517578125,-0.7901611328125,0.3594970703125,0.080078125
5.876,310,439,594,310,-2.0,35.0,47.0,8.48388671875,9.6435546875,3.479003667831421,-0.87841796875,0.4111328125,0.08544921875
5.885,311,435,592,310,-2.0,35.0,47.0,-2.685546636581421,7.263183116912842,4.39453125,-0.945068359375,0.424072265625,0.0885009765625
5.893,310,434,589,310,-2.0,35.0,47.0,-10.925292015075684,7.141112804412842,3.112792730331421,-0.9869384765625,0.374755859375,0.0947265625
5.909,310,423,587,310,-2.0,35.0,47.0,-13.793944358825684,8.23974609375,0.6103515625,-1.0009765625,0.30126953125,0.1220703125
5.933,310,420,588,312,-2.0,35.0,47.0,-10.070799827575684,7.507323741912842,-1.8310545682907104,-0.9981689453125,0.26611328125,0.15966796875
5.934,310,409,588,309,0.0,34.0,47.0,-1.220703125,4.39453125,-4.45556640625,-0.9830322265625,0.2801513671875,0.1802978515625
5.936,310,402,584,310,0.0,34.0,47.0,7.141112804412842,0.9155272841453552,-7.202147960662842,-0.9569091796875,0.2877197265625,0.1810302734375
5.944,310,402,576,310,0.0,34.0,47.0,10.986327171325684,-0.9155272841453552,-8.4228515625,-0.93017578125,0.262939453125,0.164794921875
5.952,310,402,572,309,0.0,34.0,47.0,11.108397483825684,-1.0986328125,-6.835937023162842,-0.90673828125,0.2294921875,0.1356201171875
5.972,309,406,575,310,0.0,34.0,47.0,9.82666015625,-1.5258787870407104,-2.990722417831421,-0.87939453125,0.209228515625,0.10205078125
5.976,310,402,578,310,0.0,34.0,47.0,7.568358898162842,-3.601073980331421,1.8920897245407104,-0.8582763671875,0.2103271484375,0.0655517578125
5.982,311,408,584,309,0.0,34.0,47.0,2.44140625,-6.958007335662842,7.019042491912842,-0.8651123046875,0.2313232421875,0.035400390625
5.996,310,408,599,310,0.0,34.0,47.0,-7.446288585662842,-10.070799827575684,12.573241233825684,-0.8863525390625,0.249267578125,0.0228271484375
6.012,309,413,607,310,0.0,34.0,47.0,-21.972654342651367,-10.986327171325684,18.85986328125,-0.885009765625,0.2420654296875,0.0426025390625
6.013,310,424,628,296,0.0,34.0,47.0,-39.12353515625,-9.82666015625,25.451658248901367,-0.8021240234375,0.2064208984375,0.0791015625
6.031,310,465,676,310,0.0,36.0,44.0,-55.114742279052734,-9.6435546875,30.395505905151367,-0.5306396484375,0.1253662109375,0.0616455078125
6.035,310,495,721,311,0.0,36.0,44.0,-60.791011810302734,-15.197752952575684,30.395505905151367,-0.0081787109375,-0.0167236328125,-0.03515625
6.043,310,531,796,311,0.0,36.0,44.0,-46.325679779052734,-28.625486373901367,23.559568405151367,0.565185546875,-0.122802734375,-0.1800537109375
6.057,310,618,976,311,0.0,36.0,44.0,-16.9677734375,-47.424312591552734,10.864256858825684,0.8695068359375,-0.050537109375,-0.2642822265625
6.065,310,677,1120,312,0.0,36.0,44.0,6.469726085662842,-66.58935546875,-6.469726085662842,0.7132568359375,0.206298828125,-0.1181640625
6.085,310,745,1254,311,0.0,36.0,44.0,5.249022960662842,-75.3173828125,-24.108884811401367,0.0897216796875,0.504150390625,0.1885986328125
6.087,310,848,1431,312,0.0,36.0,44.0,-24.169919967651367,-66.40625,-40.283199310302734,-0.7138671875,0.5980224609375,0.436767578125
6.095,310,916,1518,312,0.0,36.0,44.0,-61.157222747802734,-48.339839935302734,-57.250972747802734,-1.406494140625,0.468994140625,0.5538330078125
6.109,310,958,1564,312,0.0,36.0,44.0,-77.94189453125,-36.62109375,-67.32177734375,-1.92431640625,0.315185546875,0.6031494140625
6.116,312,1009,1623,312,0.0,36.0,44.0,-64.27001953125,-35.7666015625,-62.988277435302734,-2.275634765625,0.404052734375,0.66015625
6.138,311,1020,1625,312,2.0,30.0,46.0,-31.921384811401367,-38.63525390625,-48.583980560302734,-2.5191650390625,0.608154296875,0.7540283203125
6.139,310,996,1592,312,2.0,30.0,46.0,-0.7324218153953552,-37.353515625,-33.38623046875,-2.6962890625,0.514404296875,0.7945556640625
6.147,311,981,1553,312,2.0,30.0,46.0,21.728513717651367,-26.733396530151367,-19.775390625,-1.324462890625,-0.1552734375,0.5311279296875
6.155,310,959,1486,312,2.0,30.0,46.0,47.119136810302734,-7.690429210662842,-9.09423828125,-1.324462890625,-0.1552734375,0.5311279296875
6.163,310,953,1470,312,2.0,30.0,46.0,70.61767578125,12.390135765075684,-4.69970703125,-0.72119140625,0.0760498046875,0.3841552734375
6.180,310,959,1462,311,2.0,30.0,46.0,58.715816497802734,29.418943405151367,-3.540038824081421,-1.5076904296875,0.68212890625,0.1343994140625
6.185,310,953,1447,312,2.0,30.0,46.0,18.12744140625,43.029781341552734,-6.408690929412842,-1.5076904296875,0.68212890625,0.1343994140625
6.196,310,943,1422,312,2.0,30.0,46.0,-19.10400390625,45.715328216552734,-10.314940452575684,-2.0941162109375,0.620849609375,0.159423828125
6.212,310,895,1361,312,2.0,30.0,46.0,-35.46142578125,34.423828125,-10.437010765075684,-1.8177490234375,0.27197265625,0.3765869140625
6.215,310,861,1306,311,2.0,30.0,46.0,-26.428220748901367,19.95849609375,-8.6669921875,-1.8177490234375,0.27197265625,0.3765869140625
6.241,310,837,1253,311,0.0,33.0,47.0,-8.60595703125,13.366698265075684,-5.187987804412842,-1.4600830078125,0.2381591796875,0.436767578125
6.241,311,775,1127,313,0.0,33.0,47.0,5.126952648162842,17.08984375,-0.0610351525247097,-1.047607421875,0.33935546875,0.359130859375
6.245,311,730,1054,312,0.0,33.0,47.0,14.465331077575684,25.695798873901367,6.408690929412842,-1.047607421875,0.33935546875,0.359130859375
6.253,311,682,973,312,0.0,33.0,47.0,17.15087890625,32.77587890625,11.901854515075684,-0.920654296875,0.4305419921875,0.2139892578125
6.267,310,599,858,311,0.0,33.0,47.0,13.671874046325684,36.0107421875,11.962889671325684,-0.613037109375,0.2626953125,0.1214599609375
6.275,310,535,805,310,0.0,33.0,47.0,9.82666015625,35.7666015625,5.981444835662842,-0.613037109375,0.2626953125,0.1214599609375
6.283,310,506,767,311,0.0,33.0,47.0,6.713866710662842,34.48486328125,-2.38037109375,-0.486083984375,0.1392822265625,0.130126953125
6.297,310,444,695,311,0.0,33.0,47.0,6.286620616912842,37.109375,-17.63916015625,-0.39208984375,-0.1494140625,0.170166015625
6.317,310,424,659,311,0.0,33.0,47.0,6.286620616912842,37.109375,-17.63916015625,-0.450927734375,-0.2030029296875,0.1458740234375
6.318,310,386,629,310,0.0,33.0,47.0,12.207030296325684,39.73388671875,-18.61572265625,-0.450927734375,-0.2030029296875,0.1458740234375
6.345,310,367,592,310,-1.0,34.0,46.0,27.160642623901367,40.893550872802734,-3.112792730331421,-0.586181640625,-0.133544921875,0.0914306640625
6.345,310,349,564,311,-1.0,34.0,46.0,27.160642623901367,40.893550872802734,-3.112792730331421,-0.6539306640625,0.0303955078125,0.123046875
6.346,310,338,551,310,-1.0,34.0,46.0,34.66796875,38.0859375,7.507323741912842,-0.6539306640625,0.0303955078125,0.123046875
6.357,308,328,508,309,-1.0,34.0,46.0,39.73388671875,28.686521530151367,23.071287155151367,-0.80419921875,0.3118896484375,0.1048583984375
6.365,311,328,503,310,-1.0,34.0,46.0,39.73388671875,28.686521530151367,23.071287155151367,-0.83203125,0.3653564453125,0.054931640625
6.373,310,325,496,310,-1.0,34.0,46.0,35.21728515625,25.085447311401367,22.827146530151367,-0.83203125,0.3653564453125,0.054931640625
6.387,308,327,484,310,-1.0,34.0,46.0,29.113767623901367,14.587401390075684,15.563963890075684,-0.820068359375,0.509521484375,-0.0343017578125
6.395,310,325,482,310,-1.0,34.0,46.0,29.113767623901367,14.587401390075684,15.563963890075684,-0.8023681640625,0.510986328125,-0.0335693359375
6.403,310,325,488,310,-1.0,34.0,46.0,20.874021530151367,9.27734375,10.742186546325684,-0.8023681640625,0.510986328125,-0.0335693359375
6.421,310,324,493,310,1.0,36.0,50.0,-2.01416015625,5.493163585662842,-2.990722417831421,-0.79345703125,0.337890625,0.0179443359375
6.425,310,325,495,310,1.0,36.0,50.0,-2.01416015625,5.493163585662842,-2.990722417831421,-0.8154296875,0.25439453125,0.036865234375
6.440,310,327,495,310,1.0,36.0,50.0,-7.019042491912842,4.0283203125,-7.263183116912842,-0.8272705078125,0.1962890625,0.05517578125
6.446,309,334,512,310,1.0,36.0,50.0,-10.742186546325684,-6.286620616912842,-3.784179449081421,-0.806884765625,0.142822265625,0.060302734375
6.455,310,334,522,311,1.0,36.0,50.0,-11.718749046325684,-11.840819358825684,2.01416015625,-0.7723388671875,0.0953369140625,0.0330810546875
6.462,310,345,530,310,1.0,36.0,50.0,-11.718749046325684,-11.840819358825684,2.01416015625,-0.767333984375,0.0933837890625,-0.0078125
6.477,310,360,551,311,1.0,36.0,50.0,-15.808104515075684,-16.7236328125,17.76123046875,-0.80224609375,0.1417236328125,-0.0107421875
6.488,310,368,562,310,1.0,36.0,50.0,-26.367185592651367,-17.02880859375,27.160642623901367,-0.853515625,0.1907958984375,0.0400390625
6.494,310,381,579,310,1.0,36.0,50.0,-26.367185592651367,-17.02880859375,27.160642623901367,-0.8843994140625,0.2022705078125,0.0965576171875
6.507,308,423,642,310,1.0,36.0,50.0,-64.51416015625,-12.023924827575684,44.921871185302734,-0.73291015625,0.14599609375,0.0987548828125
6.517,310,454,636,311,-1.0,30.0,43.0,-76.416015625,-18.9208984375,46.936031341552734,-0.22216796875,-0.08203125,-0.016845703125
6.523,310,506,662,311,-1.0,30.0,43.0,-76.416015625,-18.9208984375,46.936031341552734,0.5203857421875,-0.4332275390625,-0.129150390625
6.548,310,590,823,310,-1.0,30.0,43.0,-14.282225608825684,-71.1669921875,27.648923873901367,1.1976318359375,-0.5916748046875,-0.070556640625
6.548,309,653,992,311,-1.0,30.0,43.0,49.621578216552734,-88.19579315185547,11.596678733825684,1.2896728515625,-0.269775390625,0.0830078125
6.553,310,721,1123,312,-1.0,30.0,43.0,49.621578216552734,-88.19579315185547,11.596678733825684,0.4737548828125,0.30224609375,0.281982421875
6.567,310,824,1286,312,-1.0,30.0,43.0,36.19384765625,-57.250972747802734,-21.667478561401367,-0.80517578125,0.82666015625,0.4561767578125
6.575,310,885,1395,312,-1.0,30.0,43.0,-32.89794921875,-32.3486328125,-29.479978561401367,-1.9814453125,1.430419921875,0.364501953125
6.589,310,943,1473,312,-1.0,30.0,43.0,-92.40721893310547,-22.155759811401367,-28.930662155151367,-2.6358642578125,1.5709228515625,0.3382568359375
6.598,310,1022,1541,312,-1.0,30.0,43.0,-117.18749237060547,-38.330078125,-30.517576217651367,-2.7451171875,0.7822265625,0.7781982421875
6.605,310,996,1437,310,-1.0,30.0,43.0,-73.6083984375,-55.725093841552734,-33.75244140625,-3.020751953125,0.097412109375,1.2188720703125
6.619,310,987,1393,312,-1.0,30.0,43.0,21.179197311401367,-52.612300872802734,-17.9443359375,-2.8934326171875,-0.134765625,1.1011962890625
6.627,311,982,1352,312,0.0,33.0,51.0,118.89647674560547,-30.578611373901367,1.03759765625,-1.6951904296875,-0.4293212890625,0.521728515625
6.637,310,978,1326,312,0.0,33.0,51.0,185.66893005371094,5.493163585662842,1.4038084745407104,-0.9183349609375,0.0244140625,0.0048828125
6.656,310,976,1323,312,0.0,33.0,51.0,161.86521911621094,34.60693359375,2.3193359375,-1.183349609375,0.880126953125,-0.201416015625
6.657,296,966,1312,311,0.0,33.0,51.0,59.326168060302734,40.466304779052734,3.051757574081421,-1.68408203125,1.0081787109375,-0.1156005859375
6.665,310,948,1308,311,0.0,33.0,51.0,-29.418943405151367,29.785154342651367,-3.845214605331421,-1.9659423828125,0.8089599609375,0.156005859375
6.673,311,933,1292,311,0.0,33.0,51.0,-65.3076171875,15.197752952575684,-10.559081077575684,-1.92236328125,0.599365234375,0.37890625
6.690,310,886,1243,311,0.0,33.0,51.0,-61.096187591552734,7.080077648162842,-16.357421875,-1.7003173828125,0.4158935546875,0.4378662109375
6.696,310,852,1188,309,0.0,33.0,51.0,-39.1845703125,7.507323741912842,-20.263669967651367,-1.4747314453125,0.3203125,0.4093017578125
6.780,310,816,1133,312,0.0,33.0,51.0,-15.624999046325684,12.145995140075684,-19.8974609375,-1.275390625,0.258544921875,0.3619384765625
6.781,310,745,1027,312,0.0,33.0,48.0,2.807616949081421,19.04296875,-15.869139671325684,-1.097412109375,0.30029296875,0.26953125
6.792,310,695,960,311,0.0,33.0,48.0,11.413573265075684,26.306150436401367,-11.413573265075684,-0.91748046875,0.4312744140625,0.1651611328125
6.792,310,635,873,311,0.0,33.0,48.0,6.591796398162842,29.357908248901367,-11.474608421325684,-0.7049560546875,0.444091796875,0.139892578125
6.792,310,548,802,311,0.0,33.0,48.0,-6.469726085662842,28.381345748901367,-18.61572265625,-0.494873046875,0.3311767578125,0.1585693359375
6.794,310,506,763,310,0.0,33.0,48.0,-20.080564498901367,28.137205123901367,-29.174802780151367,-0.353515625,0.20654296875,0.1470947265625
6.796,310,479,750,312,0.0,33.0,48.0,-28.991697311401367,29.907224655151367,-37.9638671875,-0.287841796875,0.05126953125,0.1409912109375
6.816,309,425,685,310,0.0,33.0,48.0,-29.541013717651367,30.517576217651367,-42.175289154052734,-0.2822265625,-0.153076171875,0.19384765625
6.829,310,411,647,311,0.0,33.0,48.0,-21.240232467651367,29.724119186401367,-39.48974609375,-0.327392578125,-0.2908935546875,0.2236328125
6.871,310,394,562,308,0.0,33.0,44.0,19.10400390625,34.85107421875,-1.220703125,-0.6107177734375,-0.05419921875,0.1097412109375
6.876,310,393,579,311,0.0,33.0,44.0,23.071287155151367,34.5458984375,11.962889671325684,-0.7327880859375,0.21875,0.0545654296875
6.891,310,387,578,310,0.0,33.0,44.0,15.747069358825684,33.0810546875,18.5546875,-0.836181640625,0.4124755859375,-0.026611328125
6.895,310,382,588,310,0.0,33.0,44.0,-1.8310545682907104,30.029294967651367,16.54052734375,-0.8863525390625,0.4439697265625,-0.0753173828125
6.896,309,377,591,310,0.0,33.0,44.0,-17.2119140625,23.254392623901367,9.8876953125,-0.8863525390625,0.3817138671875,-0.0445556640625
6.897,310,373,594,310,0.0,33.0,44.0,-20.202634811401367,13.549803733825684,3.479003667831421,-0.8701171875,0.3118896484375,0.05615234375
6.898,310,378,601,310,0.0,33.0,44.0,-12.573241233825684,4.8828125,-0.7324218153953552,-0.8656005859375,0.268798828125,0.17578125
6.899,310,379,604,311,0.0,33.0,44.0,-1.8310545682907104,0.0610351525247097,-2.990722417831421,-0.8682861328125,0.2421875,0.261474609375
6.899,310,367,601,298,0.0,33.0,44.0,6.286620616912842,-0.4272460639476776,-3.601073980331421,-0.8680419921875,0.2177734375,0.290283203125
6.905,310,386,601,310,0.0,33.0,44.0,9.94873046875,1.3427733182907104,-2.50244140625,-0.8646240234375,0.1893310546875,0.2666015625
6.914,308,391,601,311,0.0,34.0,46.0,10.375975608825684,2.38037109375,0.54931640625,-0.861328125,0.158447265625,0.1942138671875
6.922,312,401,601,312,0.0,34.0,46.0,10.192870140075684,1.7089842557907104,5.554198741912842,-0.865234375,0.1485595703125,0.0802001953125
6.936,310,408,608,310,0.0,34.0,46.0,9.033203125,-0.6103515625,11.596678733825684,-0.8734130859375,0.1767578125,-0.03955078125
6.953,310,415,620,311,0.0,34.0,46.0,2.929687261581421,-4.82177734375,17.02880859375,-0.87255859375,0.222412109375,-0.1097412109375
6.954,310,423,630,310,0.0,34.0,46.0,-10.681151390075684,-9.82666015625,21.057126998901367,-0.866455078125,0.2528076171875,-0.1160888671875
6.969,310,426,651,310,0.0,34.0,46.0,-30.517576217651367,-12.695311546325684,24.780271530151367,-0.8802490234375,0.2679443359375,-0.0750732421875
6.974,309,435,703,310,0.0,34.0,46.0,-55.541988372802734,-12.329100608825684,30.090330123901367,-0.9075927734375,0.2640380859375,0.0115966796875
6.984,309,449,740,310,0.0,34.0,46.0,-83.98436737060547,-10.253905296325684,37.29248046875,-0.8922119140625,0.1907958984375,0.1087646484375
7.002,309,486,767,310,0.0,34.0,46.0,-106.38426971435547,-11.169432640075684,43.884273529052734,-0.19140625,-0.3040771484375,-0.0152587890625
7.004,309,530,826,311,0.0,34.0,46.0,-103.94286346435547,-22.155759811401367,47.424312591552734,-0.19140625,-0.3040771484375,-0.0152587890625
7.012,311,582,882,311,0.0,33.0,47.0,-64.697265625,-42.907711029052734,47.546382904052734,0.537841796875,-0.4500732421875,0.013671875
7.067,310,674,1109,312,0.0,33.0,47.0,-0.6713866591453552,-60.424800872802734,39.48974609375,1.0194091796875,0.1162109375,0.3302001953125
7.067,310,732,1232,312,0.0,33.0,47.0,56.640621185302734,-64.3310546875,16.357421875,1.0194091796875,0.1162109375,0.3302001953125
7.077,310,799,1318,310,0.0,33.0,47.0,74.76806640625,-59.265132904052734,-16.17431640625,0.2974853515625,0.4864501953125,0.438232421875
7.078,310,907,1464,312,0.0,33.0,47.0,50.048824310302734,-48.278804779052734,-44.128414154052734,-1.8580322265625,1.078125,0.1336669921875
7.079,310,959,1531,311,0.0,33.0,47.0,7.385253429412842,-31.005857467651367,-55.053707122802734,-1.8580322265625,1.078125,0.1336669921875
7.079,310,990,1569,312,0.0,33.0,47.0,-36.56005859375,-22.277830123901367,-51.452632904052734,-2.5765380859375,1.0557861328125,0.150390625
7.087,308,1043,1575,312,0.0,33.0,47.0,-38.2080078125,-39.794921875,-35.400390625,-2.7861328125,-0.05517578125,0.96435546875
7.106,312,1025,1508,312,0.0,33.0,47.0,-38.2080078125,-39.794921875,-35.400390625,-2.6629638671875,-0.19970703125,0.8856201171875
7.106,312,1013,1474,312,0.0,33.0,47.0,26.672361373901367,-35.46142578125,-15.747069358825684,-2.6629638671875,-0.19970703125,0.8856201171875
7.117,311,992,1422,312,0.0,32.0,46.0,119.01854705810547,7.202147960662842,22.277830123901367,-0.8934326171875,0.273681640625,0.2442626953125
7.134,312,996,1419,313,0.0,32.0,46.0,119.01854705810547,7.202147960662842,22.277830123901367,-0.9273681640625,0.7303466796875,0.0694580078125
7.135,312,971,1373,312,0.0,32.0,46.0,93.87206268310547,33.3251953125,18.798828125,-0.9273681640625,0.7303466796875,0.0694580078125
7.243,311,974,1369,311,0.0,32.0,46.0,-32.04345703125,45.104976654052734,0.9765624403953552,-2.0601806640625,0.6845703125,0.1270751953125
7.248,310,947,1351,312,0.0,32.0,46.0,-32.04345703125,45.104976654052734,0.9765624403953552,-2.0810546875,0.5062255859375,0.266845703125
7.248,310,902,1294,297,0.0,32.0,46.0,-49.621578216552734,32.04345703125,-1.9531248807907104,-2.0810546875,0.5062255859375,0.266845703125
7.248,310,873,1246,312,0.0,32.0,46.0,-21.118162155151367,13.427733421325684,-5.859374523162842,-1.5177001953125,0.3157958984375,0.3582763671875
7.248,297,846,1198,312,0.0,32.0,46.0,-21.118162155151367,13.427733421325684,-5.859374523162842,-1.2935791015625,0.252197265625,0.3291015625
7.248,310,782,1112,311,0.0,32.0,46.0,-6.225585460662842,16.6015625,-6.469726085662842,-1.1080322265625,0.299560546875,0.2723388671875
7.248,296,726,1009,298,0.0,32.0,46.0,11.291502952575684,29.052732467651367,-0.7324218153953552,-0.950439453125,0.4447021484375,0.1739501953125
7.248,311,673,923,311,0.0,34.0,50.0,5.0048828125,33.38623046875,-0.4272460639476776,-0.7884521484375,0.467529296875,0.108642578125
7.248,311,621,832,298,0.0,34.0,50.0,5.0048828125,33.38623046875,-0.4272460639476776,-0.6075439453125,0.3468017578125,0.1146240234375
7.248,310,522,805,293,0.0,34.0,50.0,-15.869139671325684,31.066892623901367,-15.991209983825684,-0.435546875,0.1856689453125,0.15087890625
7.264,310,499,756,312,0.0,34.0,50.0,-15.869139671325684,27.893064498901367,-25.207517623901367,-0.3089599609375,-0.006591796875,0.1915283203125
7.264,310,477,710,310,0.0,34.0,50.0,-15.869139671325684,27.893064498901367,-25.207517623901367,-0.2679443359375,-0.19775390625,0.238525390625
7.267,310,428,644,311,0.0,34.0,50.0,11.230467796325684,25.268552780151367,-33.3251953125,-0.3115234375,-0.2828369140625,0.2342529296875
7.275,310,414,620,308,0.0,34.0,50.0,29.907224655151367,26.123044967651367,-27.221677780151367,-0.397705078125,-0.2501220703125,0.1497802734375
7.289,310,408,605,310,0.0,34.0,50.0,29.907224655151367,26.123044967651367,-27.221677780151367,-0.4906005859375,-0.1358642578125,0.06396484375
7.297,308,395,589,310,0.0,34.0,50.0,48.034664154052734,27.282712936401367,-3.540038824081421,-0.576171875,0.0517578125,0.026123046875
7.307,310,394,579,311,0.0,34.0,50.0,43.884273529052734,23.376462936401367,9.94873046875,-0.6566162109375,0.237548828125,0.00390625
7.313,310,391,566,308,0.0,36.0,49.0,43.884273529052734,23.376462936401367,9.94873046875,-0.7261962890625,0.322021484375,-0.0130615234375
7.327,310,393,552,310,0.0,36.0,49.0,12.268065452575684,12.756346702575684,24.658201217651367,-0.799072265625,0.3270263671875,0.0081787109375
7.344,310,387,557,310,0.0,36.0,49.0,0.1220703050494194,9.82666015625,24.291990280151367,-0.8853759765625,0.345947265625,0.0482177734375
7.344,310,367,547,310,0.0,36.0,49.0,0.1220703050494194,9.82666015625,24.291990280151367,-0.9603271484375,0.378173828125,0.0643310546875
7.368,309,371,576,309,0.0,36.0,49.0,-5.371093273162842,4.7607421875,14.953612327575684,-1.00048828125,0.355712890625,0.06591796875
7.369,310,360,584,309,0.0,36.0,49.0,-5.371093273162842,0.54931640625,8.23974609375,-1.009765625,0.29443359375,0.0775146484375
7.373,311,359,589,310,0.0,36.0,49.0,-3.112792730331421,-4.33349609375,3.967284917831421,-0.9974365234375,0.249755859375,0.098388671875
7.396,308,349,594,310,0.0,36.0,49.0,1.5258787870407104,-8.85009765625,2.990722417831421,-0.962646484375,0.2252197265625,0.120361328125
7.403,310,352,601,310,0.0,36.0,49.0,5.249022960662842,-12.207030296325684,4.638671875,-0.906494140625,0.2100830078125,0.1279296875
7.405,296,356,604,310,0.0,36.0,49.0,5.371093273162842,-14.282225608825684,8.1787109375,-0.8427734375,0.202880859375,0.106689453125
7.417,308,363,614,310,-4.0,36.0,48.0,1.9531248807907104,-15.563963890075684,12.634276390075684,-0.8035888671875,0.203857421875,0.0640869140625
7.425,310,371,622,310,-4.0,36.0,48.0,-2.929687261581421,-17.333984375,17.27294921875,-0.784423828125,0.2086181640625,0.033203125
7.443,310,386,646,310,-4.0,36.0,48.0,-7.934569835662842,-20.263669967651367,21.545408248901367,-0.7271728515625,0.2198486328125,0.031005859375
7.447,310,419,702,310,-4.0,36.0,48.0,-15.747069358825684,-23.071287155151367,23.986814498901367,-0.586669921875,0.2294921875,0.00634765625
7.478,310,444,713,312,-4.0,36.0,48.0,-28.442380905151367,-25.756834030151367,23.132322311401367,-0.3223876953125,0.1510009765625,-0.0908203125
7.478,310,496,725,310,-4.0,36.0,48.0,-37.17041015625,-31.494138717651367,19.8974609375,0.101318359375,0.002197265625,-0.214599609375
7.478,310,577,872,311,-4.0,36.0,48.0,-33.5693359375,-42.175289154052734,15.441893577575684,0.5892333984375,-0.048583984375,-0.3155517578125
7.485,310,639,1010,314,-4.0,36.0,48.0,-24.230955123901367,-55.297847747802734,5.126952648162842,0.8350830078125,0.0250244140625,-0.292236328125
7.493,311,697,1184,312,-4.0,36.0,48.0,-23.315427780151367,-67.93212890625,-12.268065452575684,0.5682373046875,0.1551513671875,0.013671875
7.509,309,809,1406,312,-4.0,36.0,48.0,-36.56005859375,-74.70703125,-28.381345748901367,-0.16455078125,0.2418212890625,0.528076171875
7.519,310,862,1492,312,1.0,36.0,45.0,-53.588863372802734,-68.359375,-41.198726654052734,-1.028564453125,0.1734619140625,0.9215087890625
7.523,311,916,1540,312,1.0,36.0,45.0,-57.861324310302734,-50.537105560302734,-48.461910247802734,-1.6815185546875,0.1143798828125,0.9429931640625
7.559,311,986,1596,312,1.0,36.0,45.0,-42.297359466552734,-33.935546875,-42.297359466552734,-2.0113525390625,0.2340087890625,0.66455078125
7.560,310,1020,1636,312,1.0,36.0,45.0,-15.014647483825684,-27.282712936401367,-24.780271530151367,-2.2261962890625,0.5482177734375,0.4210205078125
7.560,298,1029,1662,312,1.0,36.0,45.0,8.97216796875,-29.296873092651367,-5.371093273162842,-2.532958984375,0.757080078125,0.405517578125
7.579,310,1011,1610,312,1.0,36.0,45.0,18.00537109375,-31.555173873901367,10.498045921325684,-2.7674560546875,0.5576171875,0.52294921875
7.579,310,1000,1583,312,1.0,36.0,45.0,19.53125,-26.489255905151367,22.766111373901367,-2.2874755859375,0.140625,0.6318359375
7.583,310,982,1541,312,1.0,36.0,45.0,36.7431640625,-12.268065452575684,25.756834030151367,-1.22998046875,0.0146484375,0.6019287109375
7.597,310,986,1536,312,1.0,36.0,45.0,59.570308685302734,8.1787109375,16.17431640625,-0.6795654296875,0.429931640625,0.385009765625
7.615,310,986,1535,312,1.0,36.0,45.0,48.339839935302734,27.954099655151367,0.4272460639476776,-0.918701171875,0.781982421875,0.1324462890625
7.615,298,981,1503,300,0.0,33.0,46.0,7.751464366912842,39.97802734375,-15.441893577575684,-1.5247802734375,0.724853515625,0.0572509765625
7.622,311,963,1528,312,0.0,33.0,46.0,-27.893064498901367,39.0625,-24.536130905151367,-1.961181640625,0.49755859375,0.1553955078125
7.636,310,929,1488,312,0.0,33.0,46.0,-39.6728515625,28.320310592651367,-24.963376998901367,-1.942626953125,0.2930908203125,0.3111572265625
7.644,310,904,1450,311,0.0,33.0,46.0,-31.311033248901367,17.15087890625,-21.057126998901367,-1.6627197265625,0.21728515625,0.4503173828125
7.652,310,873,1409,313,0.0,33.0,46.0,-19.71435546875,13.793944358825684,-15.380858421325684,-1.3878173828125,0.2158203125,0.4935302734375
7.670,310,820,1282,312,0.0,33.0,46.0,-11.047362327575684,20.874021530151367,-8.48388671875,-1.2188720703125,0.2132568359375,0.4503173828125
7.674,310,782,1201,312,0.0,33.0,46.0,-3.845214605331421,32.2265625,-1.03759765625,-1.129638671875,0.240966796875,0.3834228515625
7.682,310,745,1125,312,0.0,33.0,46.0,-0.0610351525247097,40.893550872802734,6.164550304412842,-1.0745849609375,0.3489990234375,0.2784423828125
7.697,310,658,973,312,0.0,33.0,46.0,-3.784179449081421,45.593257904052734,11.901854515075684,-0.9913330078125,0.3975830078125,0.172607421875
7.704,308,608,889,312,0.0,33.0,46.0,-11.779784202575684,46.508785247802734,13.244627952575684,-0.8455810546875,0.2935791015625,0.155517578125
7.719,310,552,829,312,0.0,33.0,44.0,-14.709471702575684,44.860836029052734,9.94873046875,-0.681396484375,0.149169921875,0.1953125
7.725,310,496,754,311,0.0,33.0,44.0,-8.11767578125,43.334957122802734,3.601073980331421,-0.5355224609375,0.02685546875,0.234130859375
7.734,311,473,704,311,0.0,33.0,44.0,4.94384765625,43.090816497802734,-5.0048828125,-0.4404296875,-0.1092529296875,0.26953125
7.746,310,437,646,310,0.0,33.0,44.0,20.385740280151367,44.189449310302734,-12.329100608825684,-0.4271240234375,-0.2108154296875,0.2537841796875
7.756,309,393,573,310,0.0,33.0,44.0,35.94970703125,47.058101654052734,-12.573241233825684,-0.5455322265625,-0.1822509765625,0.0904541015625
7.764,308,377,545,310,0.0,33.0,44.0,48.706050872802734,49.804683685302734,-5.065917491912842,-0.5455322265625,-0.1822509765625,0.0904541015625
7.773,311,357,499,308,0.0,33.0,44.0,58.349605560302734,50.842281341552734,6.286620616912842,-0.5638427734375,-0.0789794921875,0.035400390625
7.786,310,331,451,310,0.0,33.0,44.0,64.697265625,49.560543060302734,19.1650390625,-0.6405029296875,0.320556640625,-0.0030517578125
7.794,310,328,430,310,0.0,33.0,44.0,61.584468841552734,45.166011810302734,30.456541061401367,-0.6405029296875,0.320556640625,-0.0030517578125
7.802,310,328,411,309,0.0,33.0,44.0,47.973628997802734,39.85595703125,35.888671875,-0.6951904296875,0.4136962890625,-0.0059814453125
7.825,309,323,394,308,0.0,36.0,44.0,32.470703125,35.70556640625,34.48486328125,-0.8629150390625,0.5023193359375,0.0140380859375
7.827,310,322,385,310,0.0,36.0,44.0,20.629880905151367,30.822751998901367,28.869626998901367,-0.8629150390625,0.5023193359375,0.0140380859375
7.837,309,316,373,310,0.0,36.0,44.0,13.366698265075684,25.085447311401367,21.362302780151367,-0.8802490234375,0.4952392578125,0.029541015625
7.856,309,315,373,310,0.0,36.0,44.0,9.82666015625,19.71435546875,12.939452171325684,-0.8046875,0.3458251953125,0.0413818359375
7.856,308,306,362,308,0.0,36.0,44.0,8.30078125,13.854979515075684,4.69970703125,-0.8046875,0.3458251953125,0.0413818359375
7.888,310,322,382,310,0.0,36.0,44.0,8.544921875,7.019042491912842,-1.7700194120407104,-0.779052734375,0.2728271484375,0.02490234375
7.888,308,326,407,310,0.0,36.0,44.0,10.498045921325684,-0.1831054538488388,-4.638671875,-0.7864990234375,0.182373046875,-0.061767578125
7.888,311,329,408,309,0.0,36.0,44.0,12.023924827575684,-6.896972179412842,-3.356933355331421,-0.77392578125,0.170654296875,-0.1029052734375
7.892,309,332,415,309,0.0,36.0,44.0,11.657713890075684,-13.000487327575684,1.15966796875,-0.77392578125,0.170654296875,-0.1029052734375
7.906,309,364,428,308,0.0,35.0,41.0,-0.9765624403953552,-23.498533248901367,13.366698265075684,-0.6865234375,0.2061767578125,-0.1536865234375
7.914,310,371,441,310,0.0,35.0,41.0,-0.9765624403953552,-23.498533248901367,13.366698265075684,-0.6611328125,0.220703125,-0.119384765625
7.930,310,379,465,310,0.0,35.0,41.0,-19.287109375,-27.832029342651367,19.59228515625,-0.6611328125,0.220703125,-0.119384765625
7.936,310,424,530,310,0.0,35.0,41.0,-74.76806640625,-30.029294967651367,32.28759765625,-0.451416015625,0.2012939453125,-0.1820068359375
7.951,310,465,592,310,0.0,35.0,41.0,-74.76806640625,-30.029294967651367,32.28759765625,-0.08349609375,0.0557861328125,-0.3433837890625
7.952,310,494,650,310,0.0,35.0,41.0,-104.91942596435547,-31.677244186401367,31.555173873901367,-0.08349609375,0.0557861328125,-0.3433837890625
7.986,310,594,805,311,0.0,35.0,41.0,-125.67137908935547,-51.391597747802734,8.36181640625,0.48193359375,-0.3194580078125,-0.0380859375
7.986,310,644,932,312,0.0,35.0,41.0,-125.67137908935547,-51.391597747802734,8.36181640625,0.34912109375,-0.278564453125,0.536376953125
7.986,310,673,1081,310,0.0,35.0,41.0,-87.82958221435547,-61.767574310302734,-5.249022960662842,0.34912109375,-0.278564453125,0.536376953125
7.998,310,799,1173,311,0.0,35.0,41.0,-9.82666015625,-62.255855560302734,-27.343748092651367,-0.665771484375,0.0877685546875,1.1817626953125
8.004,310,846,1226,312,3.0,33.0,43.0,-9.82666015625,-62.255855560302734,-27.343748092651367,-1.365478515625,0.63916015625,0.6458740234375
8.012,311,886,1283,312,3.0,33.0,43.0,3.234863042831421,-47.851558685302734,-29.602048873901367,-1.365478515625,0.63916015625,0.6458740234375
8.026,310,959,1400,312,3.0,33.0,43.0,0.2441406100988388,-33.69140625,-1.9531248807907104,-2.3494873046875,1.4063720703125,0.122314453125
8.034,310,982,1443,312,3.0,33.0,43.0,-11.535643577575684,-43.212886810302734,3.479003667831421,-2.66015625,0.8060302734375,0.5128173828125
8.042,309,981,1422,312,3.0,33.0,43.0,-11.535643577575684,-43.212886810302734,3.479003667831421,-2.882568359375,0.066162109375,0.7149658203125
8.056,310,964,1362,312,3.0,33.0,43.0,24.230955123901367,-22.460935592651367,7.324218273162842,-2.367431640625,-0.3380126953125,0.6080322265625
8.082,310,951,1338,312,3.0,33.0,43.0,72.08251953125,-4.45556640625,14.282225608825684,-1.26904296875,-0.1246337890625,0.3719482421875
8.082,310,931,1336,310,3.0,33.0,43.0,72.08251953125,-4.45556640625,14.282225608825684,-0.8692626953125,0.595947265625,0.1759033203125
8.086,310,944,1313,311,3.0,33.0,43.0,60.852046966552734,27.038572311401367,8.36181640625,-1.3570556640625,1.0587158203125,0.078369140625
8.094,310,933,1300,312,3.0,33.0,43.0,-2.868652105331421,36.56005859375,-2.38037109375,-1.9022216796875,0.8902587890625,0.0850830078125
8.102,311,917,1284,312,3.0,33.0,43.0,-2.868652105331421,36.56005859375,-2.38037109375,-2.0123291015625,0.543212890625,0.1767578125
8.116,311,873,1236,312,1.0,36.0,47.0,-38.02490234375,22.521970748901367,-15.075682640075684,-1.801513671875,0.388916015625,0.30615234375
8.127,310,840,1188,312,1.0,36.0,47.0,-24.475095748901367,12.512206077575684,-14.587401390075684,-1.539794921875,0.3817138671875,0.369873046875
8.132,310,809,1142,312,1.0,36.0,47.0,-24.475095748901367,12.512206077575684,-14.587401390075684,-1.3360595703125,0.3328857421875,0.3331298828125
8.146,311,749,1001,311,1.0,36.0,47.0,-6.713866710662842,22.338865280151367,-16.78466796875,-1.1673583984375,0.3033447265625,0.2301025390625
8.155,310,703,910,311,1.0,36.0,47.0,2.563476324081421,28.564451217651367,-14.343260765075684,-0.9937744140625,0.3927001953125,0.1168212890625
8.162,310,653,823,312,1.0,36.0,47.0,2.563476324081421,28.564451217651367,-14.343260765075684,-0.7847900390625,0.413330078125,0.0897216796875
8.185,310,574,724,312,1.0,36.0,47.0,-0.6103515625,27.648923873901367,-9.09423828125,-0.5560302734375,0.2918701171875,0.136474609375
8.186,310,527,717,312,1.0,36.0,47.0,-9.1552734375,26.000974655151367,-13.916014671325684,-0.3563232421875,0.1456298828125,0.186767578125
8.192,311,502,685,310,1.0,36.0,47.0,-12.390135765075684,26.062009811401367,-21.118162155151367,-0.2259521484375,0.0128173828125,0.2310791015625
8.206,310,464,644,310,3.0,36.0,44.0,-6.774901866912842,27.282712936401367,-28.198240280151367,-0.1943359375,-0.11865234375,0.2713623046875
8.214,310,447,632,310,3.0,36.0,44.0,4.2724609375,28.625486373901367,-32.3486328125,-0.259765625,-0.1827392578125,0.2496337890625
8.231,310,439,616,310,3.0,36.0,44.0,16.11328125,30.517576217651367,-30.029294967651367,-0.414306640625,-0.13525390625,0.1407470703125
8.236,310,436,574,311,3.0,36.0,44.0,23.132322311401367,31.555173873901367,-20.751951217651367,-0.572998046875,-0.0631103515625,0.0533447265625
8.248,310,437,557,310,3.0,36.0,44.0,24.291990280151367,28.808591842651367,-7.873534679412842,-0.64697265625,0.0084228515625,0.0469970703125
8.261,310,436,537,310,3.0,36.0,44.0,22.827146530151367,23.620603561401367,5.249022960662842,-0.677490234375,0.11083984375,0.06298828125
8.266,310,441,535,311,3.0,36.0,44.0,18.6767578125,18.98193359375,15.502928733825684,-0.719482421875,0.201904296875,0.05810546875
8.276,310,447,533,310,3.0,36.0,44.0,12.390135765075684,15.197752952575684,20.690916061401367,-0.7677001953125,0.2642822265625,0.037353515625
8.287,310,451,538,310,3.0,36.0,44.0,7.751464366912842,11.901854515075684,21.301267623901367,-0.8157958984375,0.333984375,0.0189208984375
8.296,310,452,552,311,3.0,36.0,44.0,5.126952648162842,8.7890625,18.61572265625,-0.869873046875,0.39990234375,0.0220947265625
8.304,310,454,558,311,0.0,35.0,46.0,2.38037109375,5.798339366912842,13.916014671325684,-0.927490234375,0.42724609375,0.0552978515625
8.312,310,449,564,309,0.0,35.0,46.0,-0.7324218153953552,3.295898199081421,8.48388671875,-0.9937744140625,0.4166259765625,0.1119384765625
8.327,310,441,566,310,0.0,35.0,46.0,-3.295898199081421,2.38037109375,3.295898199081421,-1.0572509765625,0.376953125,0.1651611328125
8.339,310,438,567,311,0.0,35.0,46.0,-3.784179449081421,2.990722417831421,-0.8544921278953552,-1.0994873046875,0.3101806640625,0.1900634765625
8.342,309,434,562,310,0.0,35.0,46.0,-0.7934569716453552,3.173827886581421,-3.356933355331421,-1.1104736328125,0.2430419921875,0.1888427734375
8.363,309,423,555,310,0.0,35.0,46.0,4.638671875,1.5258787870407104,-3.723144292831421,-1.0946044921875,0.2080078125,0.170654296875
8.364,299,402,547,310,0.0,35.0,46.0,10.009765625,-1.03759765625,-2.25830078125,-1.0623779296875,0.19970703125,0.135009765625
8.436,310,408,533,311,0.0,35.0,46.0,13.916014671325684,-2.929687261581421,0.4272460639476776,-1.0208740234375,0.2020263671875,0.089599609375
8.442,310,391,523,310,0.0,35.0,46.0,16.2353515625,-3.723144292831421,3.417968511581421,-0.978271484375,0.20263671875,0.05517578125
8.497,310,380,516,310,0.0,35.0,46.0,16.4794921875,-4.2724609375,5.981444835662842,-0.9364013671875,0.19775390625,0.0350341796875
8.499,310,379,518,310,0.0,37.0,41.0,14.709471702575684,-5.310058116912842,7.995604991912842,-0.8919677734375,0.2056884765625,0.0152587890625
8.499,295,369,525,312,0.0,37.0,41.0,10.742186546325684,-7.263183116912842,10.070799827575684,-0.8475341796875,0.2376708984375,0.0015869140625
8.499,310,371,538,310,0.0,37.0,41.0,2.624511480331421,-10.070799827575684,12.512206077575684,-0.8040771484375,0.272216796875,0.025390625
8.499,310,378,548,310,0.0,37.0,41.0,-10.742186546325684,-12.390135765075684,15.197752952575684,-0.771484375,0.2877197265625,0.095703125
8.500,310,393,579,310,0.0,37.0,41.0,-26.611326217651367,-12.939452171325684,17.63916015625,-0.77197265625,0.286865234375,0.17578125
8.500,310,415,607,311,0.0,37.0,41.0,-39.00146484375,-13.000487327575684,18.98193359375,-0.7130126953125,0.2275390625,0.2227783203125
8.500,309,441,628,309,0.0,37.0,41.0,-38.63525390625,-17.4560546875,17.02880859375,-0.3857421875,0.0517578125,0.1322021484375
8.500,310,523,654,310,0.0,37.0,41.0,-15.808104515075684,-31.433103561401367,10.681151390075684,0.2099609375,-0.2015380859375,-0.131591796875
8.500,295,573,730,310,0.0,37.0,41.0,24.414060592651367,-55.603023529052734,3.295898199081421,0.8787841796875,-0.3043212890625,-0.294921875
8.500,298,619,852,311,0.0,37.0,41.0,60.546871185302734,-76.0498046875,-5.126952648162842,1.2740478515625,-0.0626220703125,-0.2552490234375
8.506,310,718,1091,310,-2.0,31.0,48.0,63.903804779052734,-73.73046875,-18.5546875,-0.0902099609375,0.519287109375,0.2569580078125
8.514,310,790,1217,312,-2.0,31.0,48.0,16.4794921875,-54.321285247802734,-32.958984375,-0.0902099609375,0.519287109375,0.2569580078125
8.522,310,848,1311,312,-2.0,31.0,48.0,-52.856441497802734,-36.56005859375,-41.870113372802734,-1.267822265625,0.454833984375,0.59375
8.535,310,927,1396,310,-2.0,31.0,48.0,-91.79686737060547,-25.939939498901367,-43.151851654052734,-2.35693359375,0.23291015625,0.572998046875
8.544,312,962,1422,312,-2.0,31.0,48.0,-89.05028533935547,-26.916501998901367,-34.48486328125,-2.35693359375,0.23291015625,0.572998046875
8.570,308,987,1444,312,-2.0,31.0,48.0,-50.415035247802734,-34.66796875,-17.9443359375,-2.384521484375,0.1197509765625,0.6182861328125
8.570,298,984,1365,312,-2.0,31.0,48.0,9.6435546875,-36.19384765625,5.615233898162842,-2.72216796875,0.406005859375,0.591552734375
8.574,310,968,1313,312,-2.0,31.0,48.0,52.124019622802734,-28.076169967651367,32.3486328125,-2.72216796875,0.406005859375,0.591552734375
8.595,310,966,1281,312,-2.0,31.0,48.0,63.903804779052734,-10.559081077575684,51.513668060302734,-2.0672607421875,0.307373046875,0.49755859375
8.596,296,966,1255,310,-2.0,31.0,48.0,67.9931640625,11.962889671325684,50.964351654052734,-1.0030517578125,0.7900390625,0.1539306640625
8.604,310,964,1246,312,0.0,34.0,46.0,63.232418060302734,30.273435592651367,33.50830078125,-1.0030517578125,0.7900390625,0.1539306640625
8.612,310,953,1241,312,0.0,34.0,46.0,29.052732467651367,38.6962890625,13.549803733825684,-1.532470703125,1.0340576171875,0.01513671875
8.628,308,927,1225,313,0.0,34.0,46.0,-12.695311546325684,36.31591796875,-3.234863042831421,-1.91015625,0.512451171875,0.177734375
8.639,312,902,1204,312,0.0,34.0,46.0,-30.090330123901367,24.475095748901367,-13.793944358825684,-1.91015625,0.512451171875,0.177734375
8.644,310,873,1176,312,0.0,34.0,46.0,-24.963376998901367,12.023924827575684,-18.85986328125,-1.736083984375,0.3931884765625,0.2626953125
8.656,311,822,1105,312,0.0,34.0,46.0,-5.676269054412842,11.169432640075684,-24.169919967651367,-1.3626708984375,0.2734375,0.2294921875
8.692,309,782,1047,312,0.0,34.0,46.0,-5.676269054412842,11.169432640075684,-24.169919967651367,-1.166259765625,0.289306640625,0.22900390625
8.702,308,745,966,312,0.0,34.0,46.0,3.540038824081421,14.404295921325684,-22.644041061401367,-1.166259765625,0.289306640625,0.22900390625
8.702,309,662,849,312,0.0,34.0,46.0,6.652831554412842,20.446775436401367,-13.916014671325684,-0.8109130859375,0.4615478515625,0.24853515625
8.703,297,613,799,310,0.0,34.0,46.0,6.652831554412842,20.446775436401367,-13.916014671325684,-0.62548828125,0.32470703125,0.264404296875
8.704,308,548,740,311,1.0,33.0,47.0,-7.690429210662842,24.047849655151367,-16.78466796875,-0.62548828125,0.32470703125,0.264404296875
8.717,310,483,693,310,1.0,33.0,47.0,-17.08984375,30.273435592651367,-28.259275436401367,-0.3424072265625,-0.0806884765625,0.27294921875
