time,compression0,compression1,compression2,compression3,magn_x,magn_y,magn_z,gyro_x,gyro_y,gyro_z,accel_x,accel_y,accel_z
0.007,309,884,527,310,-21.0,40.0,41.0,-0.1831054538488388,-0.0610351525247097,0.0610351525247097,-0.9271240234375,0.2236328125,-0.284423828125
0.014,310,883,529,310,-21.0,40.0,41.0,-0.2441406100988388,-0.1831054538488388,0.0610351525247097,-0.927978515625,0.2236328125,-0.28271484375
0.028,308,885,527,309,-21.0,40.0,41.0,-0.2441406100988388,-0.1831054538488388,-0.30517578125,-0.9300537109375,0.2252197265625,-0.2801513671875
0.036,310,884,530,308,-21.0,40.0,41.0,-0.2441406100988388,-0.1831054538488388,-0.30517578125,-0.92919921875,0.2239990234375,-0.2813720703125
0.046,310,882,529,309,-21.0,40.0,41.0,-0.30517578125,-0.1220703050494194,-0.4882812201976776,-0.92919921875,0.2239990234375,-0.2813720703125
0.067,310,884,529,310,-21.0,43.0,42.0,-0.2441406100988388,-0.0610351525247097,-0.6103515625,-0.9283447265625,0.22119140625,-0.281982421875
0.068,310,885,530,310,-21.0,43.0,42.0,-0.2441406100988388,-0.0610351525247097,-0.6103515625,-0.9290771484375,0.2208251953125,-0.28125
0.076,310,885,529,309,-21.0,43.0,42.0,-0.1220703050494194,-0.0610351525247097,-0.4882812201976776,-0.9290771484375,0.2208251953125,-0.28125
0.088,308,884,527,309,-21.0,43.0,42.0,-0.1220703050494194,-0.1831054538488388,-0.0610351525247097,-0.927734375,0.2208251953125,-0.278076171875
0.096,308,885,529,311,-21.0,43.0,42.0,-0.1220703050494194,-0.1831054538488388,-0.0610351525247097,-0.927001953125,0.2222900390625,-0.2774658203125
0.105,310,883,527,310,-21.0,43.0,42.0,-0.0610351525247097,-0.1831054538488388,0.0610351525247097,-0.927001953125,0.2222900390625,-0.2774658203125
0.118,310,885,529,310,-21.0,43.0,42.0,0.1220703050494194,-0.1831054538488388,-0.1220703050494194,-0.9273681640625,0.2257080078125,-0.280517578125
0.126,310,885,530,308,-21.0,43.0,42.0,0.1220703050494194,-0.1831054538488388,-0.1220703050494194,-0.9290771484375,0.2249755859375,-0.283447265625
0.138,308,885,530,310,-21.0,43.0,42.0,0.1831054538488388,-0.1831054538488388,-0.3662109076976776,-0.9290771484375,0.2249755859375,-0.283447265625
0.148,308,884,527,310,-19.0,39.0,46.0,-0.30517578125,-0.1831054538488388,-0.54931640625,-0.9326171875,0.2210693359375,-0.2850341796875
0.171,309,883,530,310,-19.0,39.0,46.0,-0.30517578125,-0.1831054538488388,-0.54931640625,-0.9312744140625,0.2200927734375,-0.2835693359375
0.172,310,884,530,297,-19.0,39.0,46.0,-0.54931640625,-0.1831054538488388,-0.4272460639476776,-0.9312744140625,0.2200927734375,-0.2835693359375
0.178,308,885,529,308,-19.0,39.0,46.0,-0.7324218153953552,-0.1831054538488388,0.0,-0.9266357421875,0.22216796875,-0.2783203125
0.186,308,884,529,310,-19.0,39.0,46.0,-0.4882812201976776,-0.1831054538488388,0.0,-0.926513671875,0.2235107421875,-0.2767333984375
0.195,308,884,530,310,-19.0,39.0,46.0,-0.4882812201976776,-0.1831054538488388,0.0,-0.9271240234375,0.2244873046875,-0.2764892578125
0.208,309,886,529,310,-19.0,39.0,46.0,0.1220703050494194,-0.1831054538488388,-0.2441406100988388,-0.9287109375,0.2255859375,-0.2786865234375
0.218,310,886,530,310,-19.0,39.0,46.0,0.2441406100988388,-0.0610351525247097,-0.4882812201976776,-0.9290771484375,0.22509765625,-0.2806396484375
0.224,310,886,530,310,-19.0,39.0,46.0,0.2441406100988388,-0.0610351525247097,-0.4882812201976776,-0.9285888671875,0.22265625,-0.2808837890625
0.238,309,888,530,310,-19.0,39.0,46.0,0.1220703050494194,0.1831054538488388,-0.7324218153953552,-0.9293212890625,0.2196044921875,-0.28173828125
0.272,310,887,529,310,-19.0,41.0,38.0,-0.2441406100988388,0.30517578125,-0.4882812201976776,-0.9298095703125,0.2171630859375,-0.2822265625
0.272,310,888,530,310,-19.0,41.0,38.0,-0.2441406100988388,0.30517578125,-0.4882812201976776,-0.9290771484375,0.2178955078125,-0.28076171875
0.272,309,886,530,309,-19.0,41.0,38.0,-0.7324218153953552,0.3662109076976776,0.1220703050494194,-0.9285888671875,0.22265625,-0.279541015625
0.277,308,888,529,310,-19.0,41.0,38.0,-0.6713866591453552,0.3662109076976776,0.1831054538488388,-0.92822265625,0.227294921875,-0.2791748046875
0.284,309,888,530,309,-19.0,41.0,38.0,-0.6713866591453552,0.3662109076976776,0.1831054538488388,-0.9278564453125,0.2281494140625,-0.2777099609375
0.302,308,888,530,310,-19.0,41.0,38.0,-0.1831054538488388,0.2441406100988388,-0.4882812201976776,-0.9276123046875,0.2264404296875,-0.27685546875
0.306,310,888,530,309,-19.0,41.0,38.0,0.1220703050494194,0.30517578125,-0.7934569716453552,-0.9287109375,0.2232666015625,-0.2779541015625
0.315,310,886,530,310,-19.0,41.0,38.0,0.1220703050494194,0.30517578125,-0.7934569716453552,-0.930419921875,0.22021484375,-0.2802734375
0.328,310,887,530,308,-19.0,41.0,38.0,0.0610351525247097,0.6103515625,-0.7324218153953552,-0.930908203125,0.2191162109375,-0.2818603515625
0.337,310,886,531,311,-19.0,41.0,38.0,-0.1220703050494194,0.6713866591453552,-0.4882812201976776,-0.93017578125,0.2210693359375,-0.28271484375
0.345,310,887,531,310,-19.0,41.0,38.0,-0.1220703050494194,0.6713866591453552,-0.3662109076976776,-0.92822265625,0.22412109375,-0.2822265625
0.376,310,888,530,310,-20.0,40.0,38.0,0.0,0.6103515625,-0.30517578125,-0.927001953125,0.2239990234375,-0.2803955078125
0.376,310,887,530,310,-20.0,40.0,38.0,0.1220703050494194,0.54931640625,-0.30517578125,-0.9281005859375,0.2216796875,-0.2799072265625
0.376,310,888,530,310,-20.0,40.0,38.0,0.0,0.54931640625,-0.30517578125,-0.929443359375,0.2205810546875,-0.281494140625
0.389,310,889,530,308,-20.0,40.0,38.0,-0.0610351525247097,0.54931640625,-0.30517578125,-0.9295654296875,0.2208251953125,-0.2828369140625
0.397,310,887,530,310,-20.0,40.0,38.0,-0.0610351525247097,0.4882812201976776,-0.30517578125,-0.9293212890625,0.222412109375,-0.28271484375
0.408,308,886,530,310,-20.0,40.0,38.0,-0.1220703050494194,0.4272460639476776,-0.2441406100988388,-0.9285888671875,0.223876953125,-0.2813720703125
0.418,310,888,527,310,-20.0,40.0,38.0,-0.0610351525247097,0.3662109076976776,-0.2441406100988388,-0.927978515625,0.2236328125,-0.2796630859375
0.426,310,888,526,310,-20.0,40.0,38.0,0.0610351525247097,0.3662109076976776,-0.1831054538488388,-0.9278564453125,0.2235107421875,-0.2791748046875
0.434,308,888,527,308,-20.0,40.0,38.0,0.1831054538488388,0.4272460639476776,-0.1831054538488388,-0.927978515625,0.22314453125,-0.280029296875
0.455,308,888,526,309,-18.0,42.0,41.0,0.1220703050494194,0.4882812201976776,-0.2441406100988388,-0.927734375,0.22216796875,-0.280517578125
0.457,309,888,527,310,-18.0,42.0,41.0,0.1831054538488388,0.4882812201976776,-0.2441406100988388,-0.9268798828125,0.22216796875,-0.2803955078125
0.479,310,888,527,309,-18.0,42.0,41.0,0.2441406100988388,0.4882812201976776,-0.30517578125,-0.927001953125,0.22265625,-0.280517578125
0.479,309,888,523,308,-18.0,42.0,41.0,0.2441406100988388,0.4272460639476776,-0.30517578125,-0.9276123046875,0.22216796875,-0.2813720703125
0.487,308,886,525,309,-18.0,42.0,41.0,0.0,0.4882812201976776,-0.30517578125,-0.9273681640625,0.2208251953125,-0.28173828125
0.494,308,888,525,309,-18.0,42.0,41.0,-0.2441406100988388,0.54931640625,-0.30517578125,-0.9273681640625,0.219970703125,-0.28173828125
0.514,310,888,523,309,-18.0,42.0,41.0,-0.30517578125,0.4882812201976776,-0.30517578125,-0.927490234375,0.2203369140625,-0.2816162109375
0.516,310,888,525,310,-18.0,42.0,41.0,-0.30517578125,0.4272460639476776,-0.30517578125,-0.9278564453125,0.220947265625,-0.28076171875
0.524,310,889,525,310,-18.0,42.0,41.0,-0.30517578125,0.3662109076976776,-0.2441406100988388,-0.928955078125,0.22119140625,-0.2808837890625
0.539,308,889,525,310,-18.0,42.0,41.0,-0.30517578125,0.3662109076976776,-0.0610351525247097,-0.929931640625,0.220947265625,-0.2813720703125
0.546,310,887,525,310,-22.0,42.0,37.0,-0.30517578125,0.3662109076976776,0.0610351525247097,-0.9296875,0.2218017578125,-0.2821044921875
0.558,308,889,526,310,-22.0,42.0,37.0,-0.3662109076976776,0.3662109076976776,0.1220703050494194,-0.9285888671875,0.224365234375,-0.282958984375
0.580,312,889,524,310,-22.0,42.0,37.0,-0.4272460639476776,0.4272460639476776,0.0610351525247097,-0.9271240234375,0.226318359375,-0.2828369140625
0.580,308,889,529,310,-22.0,42.0,37.0,-0.4272460639476776,0.4272460639476776,-0.1831054538488388,-0.9266357421875,0.2257080078125,-0.2833251953125
0.589,310,889,525,309,-22.0,42.0,37.0,-0.3662109076976776,0.3662109076976776,-0.4272460639476776,-0.9273681640625,0.223876953125,-0.2838134765625
0.598,308,891,525,310,-22.0,42.0,37.0,-0.30517578125,0.30517578125,-0.54931640625,-0.927978515625,0.2220458984375,-0.2823486328125
0.607,310,890,530,310,-22.0,42.0,37.0,-0.2441406100988388,0.2441406100988388,-0.4882812201976776,-0.9281005859375,0.2216796875,-0.2802734375
0.623,310,888,527,308,-22.0,42.0,37.0,-0.3662109076976776,0.30517578125,-0.30517578125,-0.927734375,0.2218017578125,-0.278564453125
0.628,310,889,525,308,-22.0,42.0,37.0,-0.4272460639476776,0.3662109076976776,-0.2441406100988388,-0.9278564453125,0.221435546875,-0.2783203125
0.637,310,887,525,309,-22.0,42.0,37.0,-0.3662109076976776,0.3662109076976776,-0.2441406100988388,-0.9287109375,0.2210693359375,-0.2802734375
0.645,310,888,525,309,-21.0,39.0,39.0,-0.4272460639476776,0.4272460639476776,-0.1831054538488388,-0.929443359375,0.2203369140625,-0.2818603515625
0.660,309,889,523,310,-21.0,39.0,39.0,-0.4882812201976776,0.4882812201976776,-0.1220703050494194,-0.9290771484375,0.2230224609375,-0.281982421875
0.683,308,888,523,310,-21.0,39.0,39.0,-0.4882812201976776,0.4882812201976776,0.0,-0.9290771484375,0.2230224609375,-0.281982421875
0.683,310,867,523,307,-21.0,39.0,39.0,-0.4272460639476776,0.3662109076976776,0.0610351525247097,-0.92822265625,0.2257080078125,-0.2833251953125
0.690,308,890,522,308,-21.0,39.0,39.0,-0.3662109076976776,0.2441406100988388,-0.0610351525247097,-0.9285888671875,0.2264404296875,-0.2850341796875
0.701,308,888,522,310,-21.0,39.0,39.0,-0.4272460639476776,0.1220703050494194,-0.30517578125,-0.9285888671875,0.2264404296875,-0.2850341796875
0.705,308,891,522,309,-21.0,39.0,39.0,-0.6103515625,0.2441406100988388,-0.54931640625,-0.92919921875,0.2237548828125,-0.28466796875
0.720,310,889,522,310,-21.0,39.0,39.0,-0.9155272841453552,0.30517578125,-0.6103515625,-0.9285888671875,0.2232666015625,-0.280517578125
0.744,308,889,523,309,-21.0,39.0,39.0,-1.03759765625,0.30517578125,-0.54931640625,-0.9285888671875,0.2232666015625,-0.280517578125
0.767,309,886,523,310,-21.0,39.0,39.0,-0.7324218153953552,0.1831054538488388,-0.54931640625,-0.92724609375,0.2227783203125,-0.2781982421875
0.773,310,889,523,309,-21.0,41.0,39.0,-0.30517578125,0.1220703050494194,-0.4882812201976776,-0.9278564453125,0.2208251953125,-0.2796630859375
0.783,310,888,523,310,-21.0,41.0,39.0,0.0,0.1220703050494194,-0.4272460639476776,-0.9278564453125,0.2208251953125,-0.2796630859375
0.783,309,889,523,310,-21.0,41.0,39.0,0.1220703050494194,0.2441406100988388,-0.30517578125,-0.9276123046875,0.220458984375,-0.2796630859375
0.783,310,889,523,310,-21.0,41.0,39.0,0.1220703050494194,0.4272460639476776,-0.1831054538488388,-0.9293212890625,0.2222900390625,-0.2803955078125
0.786,310,888,523,309,-21.0,41.0,39.0,-0.0610351525247097,0.6103515625,-0.1220703050494194,-0.9290771484375,0.2242431640625,-0.282958984375
0.794,310,889,523,310,-21.0,41.0,39.0,-0.2441406100988388,0.7324218153953552,-0.0610351525247097,-0.9290771484375,0.2242431640625,-0.282958984375
0.814,310,889,523,310,-21.0,41.0,39.0,0.0610351525247097,0.4882812201976776,-0.3662109076976776,-0.9283447265625,0.225341796875,-0.2852783203125
0.817,308,888,523,310,-21.0,41.0,39.0,0.0610351525247097,0.4882812201976776,-0.3662109076976776,-0.928466796875,0.225341796875,-0.284912109375
0.833,310,888,524,310,-21.0,41.0,39.0,0.1220703050494194,0.3662109076976776,-0.4882812201976776,-0.928466796875,0.225341796875,-0.284912109375
0.838,310,889,523,310,-21.0,41.0,39.0,0.0610351525247097,0.2441406100988388,-0.6713866591453552,-0.9290771484375,0.2237548828125,-0.2818603515625
0.846,310,889,525,310,-20.0,40.0,43.0,0.0610351525247097,0.2441406100988388,-0.6713866591453552,-0.9288330078125,0.223388671875,-0.281982421875
0.854,308,889,523,310,-20.0,40.0,43.0,0.0610351525247097,0.2441406100988388,-0.6713866591453552,-0.9288330078125,0.223388671875,-0.281982421875
0.868,310,889,525,309,-20.0,40.0,43.0,0.0610351525247097,0.30517578125,-0.7324218153953552,-0.92822265625,0.2200927734375,-0.2816162109375
0.887,309,888,523,310,-20.0,40.0,43.0,0.0610351525247097,0.30517578125,-0.7324218153953552,-0.9267578125,0.21923828125,-0.2801513671875
0.887,310,889,523,309,-20.0,40.0,43.0,0.0610351525247097,0.3662109076976776,-0.6103515625,-0.9267578125,0.21923828125,-0.2801513671875
0.898,306,889,525,310,-20.0,40.0,43.0,0.0610351525247097,0.4272460639476776,-0.1831054538488388,-0.9281005859375,0.2205810546875,-0.281982421875
0.906,310,888,524,310,-20.0,40.0,43.0,0.0610351525247097,0.4272460639476776,-0.1831054538488388,-0.928955078125,0.221435546875,-0.28271484375
0.914,310,888,523,310,-20.0,40.0,43.0,0.0,0.4272460639476776,-0.0610351525247097,-0.928955078125,0.221435546875,-0.28271484375
0.928,309,889,523,308,-20.0,40.0,43.0,-0.0610351525247097,0.2441406100988388,-0.1220703050494194,-0.929443359375,0.22265625,-0.2843017578125
0.943,310,889,524,310,-20.0,40.0,43.0,-0.1220703050494194,0.1220703050494194,-0.2441406100988388,-0.9290771484375,0.22509765625,-0.2847900390625
0.945,308,890,525,309,-25.0,41.0,40.0,-0.1220703050494194,0.1220703050494194,-0.2441406100988388,-0.928955078125,0.2269287109375,-0.2841796875
0.958,308,889,524,310,-25.0,41.0,40.0,-0.0610351525247097,-0.0610351525247097,-0.54931640625,-0.927978515625,0.2261962890625,-0.2818603515625
0.967,310,887,523,308,-25.0,41.0,40.0,0.0610351525247097,-0.0610351525247097,-0.6713866591453552,-0.9273681640625,0.22412109375,-0.279541015625
0.992,308,888,525,310,-25.0,41.0,40.0,0.0610351525247097,-0.0610351525247097,-0.6713866591453552,-0.92822265625,0.2220458984375,-0.279052734375
0.993,310,867,509,309,-25.0,41.0,40.0,0.2441406100988388,-0.0610351525247097,-0.7934569716453552,-0.92919921875,0.2200927734375,-0.28076171875
0.997,308,889,525,308,-25.0,41.0,40.0,0.2441406100988388,0.0,-0.7324218153953552,-0.92919921875,0.21875,-0.2818603515625
1.004,309,889,525,310,-25.0,41.0,40.0,0.2441406100988388,0.0,-0.7324218153953552,-0.929443359375,0.21923828125,-0.2825927734375
1.018,309,889,525,308,-25.0,41.0,40.0,0.0610351525247097,0.0610351525247097,-0.4882812201976776,-0.929931640625,0.2205810546875,-0.2833251953125
1.028,310,889,525,309,-25.0,41.0,40.0,0.0610351525247097,0.0,-0.3662109076976776,-0.9281005859375,0.2208251953125,-0.2818603515625
1.046,308,891,526,309,-25.0,41.0,40.0,0.0610351525247097,0.0,-0.3662109076976776,-0.9263916015625,0.2200927734375,-0.279541015625
1.048,310,891,525,310,-20.0,39.0,42.0,0.1220703050494194,-0.0610351525247097,-0.1831054538488388,-0.927490234375,0.2198486328125,-0.2784423828125
1.057,309,890,525,310,-20.0,39.0,42.0,0.1220703050494194,-0.0610351525247097,-0.1220703050494194,-0.928466796875,0.2213134765625,-0.279541015625
1.070,310,889,527,310,-20.0,39.0,42.0,0.1220703050494194,-0.0610351525247097,-0.1220703050494194,-0.9287109375,0.222900390625,-0.281982421875
1.091,310,890,526,310,-20.0,39.0,42.0,0.0,-0.0610351525247097,-0.1220703050494194,-0.9287109375,0.2232666015625,-0.2838134765625
1.092,309,871,510,309,-20.0,39.0,42.0,-0.1831054538488388,0.0,-0.1220703050494194,-0.9293212890625,0.2239990234375,-0.2840576171875
1.095,309,889,525,310,-20.0,39.0,42.0,-0.30517578125,0.0610351525247097,-0.0610351525247097,-0.9300537109375,0.2237548828125,-0.2823486328125
1.108,310,889,525,309,-20.0,39.0,42.0,-0.2441406100988388,0.0,0.0,-0.93017578125,0.2222900390625,-0.2803955078125
1.117,309,889,525,309,-20.0,39.0,42.0,0.0,-0.1220703050494194,0.0,-0.9310302734375,0.2208251953125,-0.2802734375
1.124,310,889,525,309,-20.0,39.0,42.0,0.1831054538488388,-0.2441406100988388,0.0610351525247097,-0.9315185546875,0.220458984375,-0.2811279296875
1.139,309,889,525,309,-20.0,39.0,42.0,0.4272460639476776,-0.2441406100988388,0.1831054538488388,-0.93017578125,0.2230224609375,-0.281494140625
1.162,309,889,525,309,-21.0,39.0,40.0,0.6103515625,-0.1831054538488388,0.1831054538488388,-0.9290771484375,0.2266845703125,-0.2811279296875
1.163,294,889,525,310,-21.0,39.0,40.0,0.6713866591453552,-0.1220703050494194,0.1220703050494194,-0.93115234375,0.2275390625,-0.280517578125
1.172,308,887,525,309,-21.0,39.0,40.0,0.4882812201976776,0.0,-0.0610351525247097,-0.9373779296875,0.2261962890625,-0.2821044921875
1.176,310,882,523,309,-21.0,39.0,40.0,0.30517578125,0.1831054538488388,-0.2441406100988388,-0.94873046875,0.2265625,-0.2877197265625
1.203,309,878,523,310,-21.0,39.0,40.0,0.3662109076976776,0.2441406100988388,-0.54931640625,-0.9609375,0.2275390625,-0.29443359375
1.204,308,873,523,308,-21.0,39.0,40.0,0.7324218153953552,0.1220703050494194,-0.7934569716453552,-0.9674072265625,0.2266845703125,-0.3001708984375
1.206,309,868,523,310,-21.0,39.0,40.0,1.15966796875,-0.2441406100988388,-0.8544921278953552,-0.9656982421875,0.22607421875,-0.30322265625
1.214,310,861,525,310,-21.0,39.0,40.0,1.5258787870407104,-0.6713866591453552,-0.6103515625,-0.9591064453125,0.2293701171875,-0.3060302734375
1.228,309,847,529,309,-21.0,39.0,40.0,1.7700194120407104,-1.0986328125,-0.4272460639476776,-0.9508056640625,0.235595703125,-0.3077392578125
1.236,310,840,530,310,-21.0,39.0,40.0,1.8920897245407104,-1.8310545682907104,-0.4272460639476776,-0.9403076171875,0.2369384765625,-0.2994384765625
1.244,310,835,530,310,-21.0,42.0,40.0,1.6479490995407104,-2.685546636581421,-0.54931640625,-0.9305419921875,0.2315673828125,-0.2838134765625
1.267,308,827,536,310,-21.0,42.0,40.0,1.4648436307907104,-3.479003667831421,-0.7324218153953552,-0.9254150390625,0.2239990234375,-0.2734375
1.274,309,827,536,310,-21.0,42.0,40.0,1.5869139432907104,-3.845214605331421,-0.9155272841453552,-0.9229736328125,0.2156982421875,-0.2733154296875
1.275,309,826,543,310,-21.0,42.0,40.0,2.0751953125,-3.967284917831421,-1.2817381620407104,-0.9208984375,0.2030029296875,-0.2816162109375
1.296,310,826,552,310,-21.0,42.0,40.0,2.990722417831421,-4.2724609375,-1.5258787870407104,-0.918212890625,0.1907958984375,-0.2933349609375
1.296,310,803,537,308,-21.0,42.0,40.0,3.906249761581421,-5.249022960662842,-1.03759765625,-0.9119873046875,0.19091796875,-0.298828125
1.304,310,822,558,308,-21.0,42.0,40.0,3.662109136581421,-6.835937023162842,0.1220703050494194,-0.9083251953125,0.20751953125,-0.2974853515625
1.318,308,826,564,308,-21.0,42.0,40.0,1.8310545682907104,-8.48388671875,1.03759765625,-0.91259765625,0.227783203125,-0.2945556640625
1.326,310,827,568,309,-21.0,42.0,40.0,0.1220703050494194,-10.009765625,0.9155272841453552,-0.91943359375,0.23681640625,-0.290283203125
1.336,309,827,576,310,-21.0,42.0,40.0,-0.1831054538488388,-11.352538108825684,-0.0610351525247097,-0.924560546875,0.234130859375,-0.2867431640625
1.348,310,830,579,310,-20.0,40.0,41.0,0.1220703050494194,-12.329100608825684,-1.15966796875,-0.928466796875,0.227294921875,-0.285400390625
1.357,309,829,582,310,-20.0,40.0,41.0,0.0610351525247097,-13.122557640075684,-1.8310545682907104,-0.931396484375,0.2208251953125,-0.28125
1.367,309,830,587,310,-20.0,40.0,41.0,-0.54931640625,-13.732909202575684,-1.8310545682907104,-0.9320068359375,0.2152099609375,-0.2716064453125
1.400,310,832,594,310,-20.0,40.0,41.0,-1.2817381620407104,-14.099120140075684,-1.220703125,-0.93115234375,0.2109375,-0.2586669921875
1.400,302,810,600,310,-20.0,40.0,41.0,-1.9531248807907104,-14.099120140075684,-0.2441406100988388,-0.9295654296875,0.207275390625,-0.240966796875
1.400,309,834,601,308,-20.0,40.0,41.0,-1.8920897245407104,-13.793944358825684,0.7934569716453552,-0.927490234375,0.205810546875,-0.224609375
1.409,310,837,613,310,-20.0,40.0,41.0,-0.54931640625,-13.488768577575684,1.7700194120407104,-0.9266357421875,0.2127685546875,-0.2218017578125
1.417,308,835,616,310,-20.0,40.0,41.0,1.8920897245407104,-13.610838890075684,2.44140625,-0.9266357421875,0.2127685546875,-0.2218017578125
1.424,310,837,620,312,-20.0,40.0,41.0,4.82177734375,-14.099120140075684,2.990722417831421,-0.9271240234375,0.2169189453125,-0.237060546875
1.438,308,837,629,310,-22.0,40.0,40.0,7.141112804412842,-14.953612327575684,3.479003667831421,-0.9293212890625,0.21875,-0.2659912109375
1.446,310,840,636,310,-22.0,40.0,40.0,8.4228515625,-16.05224609375,3.845214605331421,-0.9293212890625,0.21875,-0.2659912109375
1.455,310,840,644,310,-22.0,40.0,40.0,8.97216796875,-17.333984375,4.150390625,-0.93115234375,0.2149658203125,-0.2706298828125
1.482,310,846,648,310,-22.0,40.0,40.0,8.85009765625,-18.6767578125,4.638671875,-0.934326171875,0.206787109375,-0.2581787109375
1.482,311,846,654,310,-22.0,40.0,40.0,7.812499523162842,-19.83642578125,5.554198741912842,-0.934326171875,0.206787109375,-0.2581787109375
1.509,310,848,661,308,-22.0,40.0,40.0,6.164550304412842,-20.629880905151367,6.958007335662842,-0.9354248046875,0.2078857421875,-0.2508544921875
1.510,310,853,683,310,-22.0,40.0,40.0,4.8828125,-21.240232467651367,8.36181640625,-0.9371337890625,0.209716796875,-0.22265625
1.510,310,853,665,298,-22.0,40.0,40.0,4.5166015625,-21.667478561401367,9.46044921875,-0.9371337890625,0.209716796875,-0.22265625
1.515,309,856,697,310,-22.0,40.0,40.0,5.0048828125,-22.033689498901367,10.314940452575684,-0.930908203125,0.2047119140625,-0.2078857421875
1.528,308,864,721,310,-22.0,40.0,40.0,5.981444835662842,-22.277830123901367,11.169432640075684,-0.89794921875,0.1954345703125,-0.203369140625
1.537,310,868,740,310,-21.0,36.0,43.0,6.835937023162842,-22.766111373901367,12.329100608825684,-0.89794921875,0.1954345703125,-0.203369140625
1.545,309,874,751,310,-21.0,36.0,43.0,7.263183116912842,-23.986814498901367,13.854979515075684,-0.8822021484375,0.1988525390625,-0.1986083984375
1.558,308,888,772,309,-21.0,36.0,43.0,9.09423828125,-28.686521530151367,18.9208984375,-0.8656005859375,0.2264404296875,-0.21337890625
1.567,308,891,784,310,-21.0,36.0,43.0,9.09423828125,-28.686521530151367,18.9208984375,-0.8427734375,0.2218017578125,-0.2236328125
1.580,312,907,796,310,-21.0,36.0,43.0,9.3994140625,-31.616209030151367,21.728513717651367,-0.8427734375,0.2218017578125,-0.2236328125
1.604,310,933,848,310,-21.0,36.0,43.0,7.019042491912842,-36.92626953125,28.869626998901367,-0.7388916015625,0.1817626953125,-0.25146484375
1.604,308,955,902,309,-21.0,36.0,43.0,7.019042491912842,-36.92626953125,28.869626998901367,-0.696533203125,0.1563720703125,-0.24169921875
1.605,297,976,928,310,-21.0,36.0,43.0,3.417968511581421,-39.36767578125,33.5693359375,-0.696533203125,0.1563720703125,-0.24169921875
1.619,309,1037,1014,309,-21.0,36.0,43.0,-11.596678733825684,-48.645015716552734,41.320796966552734,-0.608154296875,0.1204833984375,-0.19775390625
1.627,310,1074,1064,310,-21.0,36.0,43.0,-11.596678733825684,-48.645015716552734,41.320796966552734,-0.5489501953125,0.0819091796875,-0.1888427734375
1.641,308,1109,1125,310,-21.0,36.0,43.0,-23.620603561401367,-51.025386810302734,42.297359466552734,-0.5489501953125,0.0819091796875,-0.1888427734375
1.657,310,1183,1239,310,-23.0,36.0,43.0,-49.560543060302734,-43.640132904052734,38.9404296875,-0.4847412109375,0.12841796875,-0.207763671875
1.657,309,1214,1305,310,-23.0,36.0,43.0,-49.560543060302734,-43.640132904052734,38.9404296875,-0.51123046875,0.2017822265625,-0.0970458984375
1.665,310,1251,1362,310,-23.0,36.0,43.0,-68.359375,-39.36767578125,36.865234375,-0.51123046875,0.2017822265625,-0.0970458984375
1.706,310,1151,1462,309,-23.0,36.0,43.0,-84.89989471435547,-37.78076171875,26.611326217651367,-0.7620849609375,0.326171875,0.02197265625
1.706,297,1300,1486,299,-23.0,36.0,43.0,-84.89989471435547,-37.78076171875,26.611326217651367,-1.025390625,0.5177001953125,-0.015625
1.707,310,1370,1573,310,-23.0,36.0,43.0,-76.416015625,-36.0107421875,21.667478561401367,-1.3402099609375,0.7486572265625,-0.0579833984375
1.715,310,1211,1640,310,-23.0,36.0,43.0,-69.091796875,-27.282712936401367,18.37158203125,-1.5614013671875,0.8231201171875,-0.0234375
1.717,310,411,1665,311,-23.0,36.0,43.0,-64.39208984375,-23.071287155151367,12.573241233825684,-1.6119384765625,0.740966796875,0.0628662109375
1.725,310,503,1678,312,-23.0,36.0,43.0,-64.39208984375,-23.071287155151367,12.573241233825684,-1.5684814453125,0.6365966796875,0.0931396484375
1.739,311,1336,1674,309,-18.0,34.0,45.0,-16.7236328125,-9.46044921875,3.479003667831421,-1.5478515625,0.5672607421875,0.0614013671875
1.750,308,1478,1682,310,-18.0,34.0,45.0,3.173827886581421,-1.15966796875,-0.4272460639476776,-1.48046875,0.4833984375,0.0023193359375
1.755,310,1484,1682,310,-18.0,34.0,45.0,3.173827886581421,-1.15966796875,-0.4272460639476776,-1.315673828125,0.3865966796875,-0.07958984375
1.769,310,1472,1681,311,-18.0,34.0,45.0,9.70458984375,9.765625,-16.4794921875,-1.3055419921875,0.3385009765625,-0.1270751953125
1.777,309,1078,1675,310,-18.0,34.0,45.0,0.30517578125,11.047362327575684,-22.033689498901367,-1.429931640625,0.293701171875,-0.0694580078125
1.812,310,1204,1662,310,-18.0,34.0,45.0,0.30517578125,11.047362327575684,-22.033689498901367,-1.4302978515625,0.2403564453125,0.0157470703125
1.812,310,1371,1583,310,-18.0,34.0,45.0,-11.230467796325684,17.4560546875,-16.7236328125,-1.3365478515625,0.2474365234375,0.0174560546875
1.813,310,1383,1580,310,-18.0,34.0,45.0,-11.657713890075684,25.268552780151367,-11.596678733825684,-1.247314453125,0.294189453125,-0.0498046875
1.817,310,613,1540,310,-18.0,34.0,45.0,-11.657713890075684,25.268552780151367,-11.596678733825684,-1.1990966796875,0.3477783203125,-0.1170654296875
1.828,308,311,1437,310,-18.0,34.0,45.0,-11.230467796325684,39.61181640625,-12.451170921325684,-1.18359375,0.4232177734375,-0.174560546875
1.836,309,311,1381,310,-21.0,36.0,51.0,-12.451170921325684,44.311519622802734,-16.6015625,-1.164306640625,0.5025634765625,-0.222412109375
1.845,310,1206,1315,311,-21.0,36.0,51.0,-12.451170921325684,44.311519622802734,-16.6015625,-1.083984375,0.55322265625,-0.22802734375
1.858,308,310,1189,310,-21.0,36.0,51.0,-21.423337936401367,46.020503997802734,-30.090330123901367,-0.964111328125,0.560791015625,-0.18212890625
1.866,310,307,1117,310,-21.0,36.0,51.0,-24.230955123901367,45.471187591552734,-37.04833984375,-0.8780517578125,0.5185546875,-0.1351318359375
1.875,309,309,1057,310,-21.0,36.0,51.0,-20.446775436401367,47.058101654052734,-44.067378997802734,-0.8157958984375,0.42529296875,-0.12890625
1.889,310,310,959,308,-21.0,36.0,51.0,-13.122557640075684,48.522945404052734,-51.086421966552734,-0.7344970703125,0.3070068359375,-0.1053466796875
1.917,310,654,907,310,-21.0,36.0,51.0,-7.690429210662842,45.471187591552734,-57.800289154052734,-0.6300048828125,0.1861572265625,0.04296875
1.917,309,578,873,309,-21.0,36.0,51.0,-5.859374523162842,38.2080078125,-63.171382904052734,-0.541015625,0.0667724609375,0.2388916015625
1.921,298,452,848,309,-21.0,36.0,51.0,-0.3662109076976776,35.46142578125,-66.5283203125,-0.540283203125,-0.03369140625,0.2574462890625
1.927,309,388,832,310,-21.0,36.0,51.0,16.9677734375,41.931148529052734,-67.81005859375,-0.6016845703125,-0.052001953125,0.0928955078125
1.940,309,382,818,310,-19.0,41.0,40.0,37.841796875,48.400875091552734,-63.476558685302734,-0.6368408203125,0.0531005859375,-0.079345703125
1.949,310,310,805,309,-19.0,41.0,40.0,46.691890716552734,46.630855560302734,-49.804683685302734,-0.6607666015625,0.218505859375,-0.185546875
1.957,308,310,794,308,-19.0,41.0,40.0,42.846675872802734,38.9404296875,-32.65380859375,-0.7108154296875,0.2913818359375,-0.2388916015625
1.965,308,310,784,309,-19.0,41.0,40.0,34.3017578125,31.372068405151367,-20.385740280151367,-0.7581787109375,0.1976318359375,-0.255126953125
1.978,308,312,777,310,-19.0,41.0,40.0,25.512693405151367,27.770994186401367,-12.573241233825684,-0.7906494140625,0.034912109375,-0.26025390625
1.992,309,326,770,310,-19.0,41.0,40.0,20.324705123901367,28.015134811401367,-4.5166015625,-0.8221435546875,-0.0654296875,-0.2867431640625
1.995,308,310,766,310,-19.0,41.0,40.0,20.751951217651367,28.930662155151367,4.0283203125,-0.8511962890625,-0.0496826171875,-0.3331298828125
2.015,308,367,771,310,-19.0,41.0,40.0,22.277830123901367,26.611326217651367,10.803221702575684,-0.8817138671875,0.041259765625,-0.3563232421875
2.017,310,367,771,310,-19.0,41.0,40.0,17.9443359375,19.287109375,16.05224609375,-0.9051513671875,0.1553955078125,-0.341552734375
2.025,310,372,777,310,-19.0,41.0,40.0,7.324218273162842,9.521484375,20.690916061401367,-0.902099609375,0.247314453125,-0.3037109375
2.039,310,384,785,310,-19.0,40.0,44.0,-3.356933355331421,1.3427733182907104,22.338865280151367,-0.8687744140625,0.2783203125,-0.2503662109375
2.053,310,400,781,310,-19.0,40.0,44.0,-8.11767578125,-3.356933355331421,19.04296875,-0.8291015625,0.260498046875,-0.2054443359375
2.055,309,419,777,308,-19.0,40.0,44.0,-8.11767578125,-5.493163585662842,13.122557640075684,-0.8040771484375,0.227783203125,-0.1827392578125
2.069,310,503,741,308,-19.0,40.0,44.0,-8.97216796875,-7.080077648162842,8.544921875,-0.7845458984375,0.1954345703125,-0.1666259765625
2.077,310,547,711,310,-19.0,40.0,44.0,-12.756346702575684,-8.7890625,7.202147960662842,-0.7529296875,0.16357421875,-0.1683349609375
2.085,310,603,673,310,-19.0,40.0,44.0,-16.9677734375,-10.742186546325684,8.7890625,-0.715087890625,0.131103515625,-0.2012939453125
2.119,308,705,621,310,-19.0,40.0,44.0,-19.83642578125,-13.854979515075684,12.390135765075684,-0.6866455078125,0.1004638671875,-0.2412109375
2.120,296,780,634,310,-19.0,40.0,44.0,-23.071287155151367,-18.98193359375,17.15087890625,-0.6552734375,0.0751953125,-0.2835693359375
2.120,310,846,639,297,-19.0,40.0,44.0,-26.733396530151367,-25.634763717651367,22.155759811401367,-0.61962890625,0.0538330078125,-0.357421875
2.129,310,981,749,310,-19.0,40.0,44.0,-31.311033248901367,-34.85107421875,27.282712936401367,-0.5732421875,0.0576171875,-0.4395751953125
2.137,308,1039,852,311,-18.0,38.0,43.0,-44.189449310302734,-48.645015716552734,34.11865234375,-0.484619140625,0.0889892578125,-0.437255859375
2.145,310,1099,966,310,-18.0,38.0,43.0,-67.93212890625,-63.415523529052734,41.198726654052734,-0.3853759765625,0.102294921875,-0.3211669921875
2.159,310,1217,1185,310,-18.0,38.0,43.0,-90.20995330810547,-70.00732421875,42.968746185302734,-0.3563232421875,0.113525390625,-0.15283203125
2.167,310,1287,1303,310,-18.0,38.0,43.0,-98.02245330810547,-66.2841796875,38.02490234375,-0.453857421875,0.2330322265625,0.0455322265625
2.175,310,1344,1407,310,-18.0,38.0,43.0,-92.65135955810547,-59.692378997802734,31.555173873901367,-0.7095947265625,0.46533203125,0.24609375
2.189,310,1419,1543,309,-18.0,38.0,43.0,-85.14403533935547,-53.344722747802734,26.306150436401367,-1.125,0.5552978515625,0.4111328125
2.197,310,1457,1595,310,-18.0,38.0,43.0,-77.1484375,-43.762203216552734,19.34814453125,-1.125,0.5552978515625,0.4111328125
2.222,310,1486,1638,312,-18.0,38.0,43.0,-55.236812591552734,-29.052732467651367,11.474608421325684,-1.2767333984375,0.4488525390625,0.2630615234375
2.222,309,1531,1689,312,-18.0,38.0,43.0,-22.094724655151367,-12.268065452575684,9.521484375,-1.835205078125,0.7259521484375,-0.2921142578125
2.227,310,1540,1698,311,-18.0,38.0,43.0,0.3662109076976776,0.6103515625,13.427733421325684,-1.835205078125,0.7259521484375,-0.2921142578125
2.235,310,1534,1686,310,-15.0,36.0,40.0,5.065917491912842,6.347655773162842,13.732909202575684,-1.9617919921875,0.7188720703125,-0.3251953125
2.249,310,1531,1681,310,-15.0,36.0,40.0,0.2441406100988388,7.507323741912842,7.446288585662842,-1.59228515625,0.3421630859375,-0.0533447265625
2.259,310,1533,1681,310,-15.0,36.0,40.0,-4.7607421875,9.8876953125,-0.6713866591453552,-1.59228515625,0.3421630859375,-0.0533447265625
2.265,310,1531,1677,309,-15.0,36.0,40.0,-5.920409679412842,16.2353515625,-7.873534679412842,-1.2437744140625,0.3055419921875,-0.011962890625
2.278,310,1513,1637,310,-15.0,36.0,40.0,-5.493163585662842,24.536130905151367,-16.05224609375,-1.6624755859375,0.4383544921875,-0.1021728515625
2.287,310,1488,1595,311,-15.0,36.0,40.0,-1.03759765625,33.203125,-25.878904342651367,-1.6624755859375,0.4383544921875,-0.1021728515625
2.299,310,1456,1555,310,-15.0,36.0,40.0,6.408690929412842,40.0390625,-32.8369140625,-1.7818603515625,0.3011474609375,-0.181396484375
2.329,314,1377,1422,309,-15.0,36.0,40.0,9.09423828125,42.175289154052734,-33.14208984375,-1.5120849609375,0.340576171875,-0.2763671875
2.329,310,1316,1344,310,-15.0,36.0,40.0,8.1787109375,41.564937591552734,-28.259275436401367,-1.331298828125,0.438232421875,-0.2525634765625
2.330,297,1251,1251,310,-15.0,36.0,40.0,7.934569835662842,41.870113372802734,-24.963376998901367,-1.331298828125,0.438232421875,-0.2525634765625
2.339,309,1071,1067,310,-15.0,39.0,42.0,4.57763671875,47.302242279052734,-33.3251953125,-1.0330810546875,0.4404296875,-0.140380859375
2.347,310,916,966,310,-15.0,39.0,42.0,4.57763671875,47.302242279052734,-33.3251953125,-0.9033203125,0.372802734375,-0.1162109375
2.355,310,725,868,310,-15.0,39.0,42.0,3.173827886581421,48.828121185302734,-37.53662109375,-0.9033203125,0.372802734375,-0.1162109375
2.369,309,513,730,310,-15.0,39.0,42.0,6.896972179412842,42.541500091552734,-46.325679779052734,-0.517822265625,0.1253662109375,0.17529296875
2.377,309,377,644,310,-15.0,39.0,42.0,6.896972179412842,42.541500091552734,-46.325679779052734,-0.3804931640625,-0.02001953125,0.3017578125
2.393,309,326,574,308,-15.0,39.0,42.0,9.765625,38.39111328125,-51.269527435302734,-0.3804931640625,-0.02001953125,0.3017578125
2.402,308,342,498,308,-15.0,39.0,42.0,47.241207122802734,55.725093841552734,-48.278804779052734,-0.5439453125,0.0150146484375,0.001220703125
2.435,310,345,455,310,-15.0,39.0,42.0,47.241207122802734,55.725093841552734,-48.278804779052734,-0.6873779296875,0.3280029296875,-0.204833984375
2.435,308,344,444,310,-15.0,39.0,42.0,63.415523529052734,60.058589935302734,-29.907224655151367,-0.6873779296875,0.3280029296875,-0.204833984375
2.436,309,349,436,293,-15.0,39.0,42.0,38.4521484375,34.66796875,4.0283203125,-0.704833984375,0.523193359375,-0.41015625
2.437,308,343,447,309,-17.0,39.0,41.0,38.4521484375,34.66796875,4.0283203125,-0.638427734375,0.269287109375,-0.297119140625
2.449,309,344,440,308,-17.0,39.0,41.0,8.97216796875,17.822265625,0.6713866591453552,-0.638427734375,0.269287109375,-0.297119140625
2.463,308,349,439,309,-17.0,39.0,41.0,-25.024412155151367,-1.2817381620407104,-8.85009765625,-0.6002197265625,-0.0439453125,-0.1475830078125
2.467,308,349,441,308,-17.0,39.0,41.0,-16.357421875,-2.0751953125,-6.469726085662842,-0.611083984375,0.0069580078125,-0.2039794921875
2.475,310,352,451,310,-17.0,39.0,41.0,-16.357421875,-2.0751953125,-6.469726085662842,-0.62255859375,0.0711669921875,-0.280029296875
2.489,310,349,475,309,-17.0,39.0,41.0,9.765625,2.50244140625,-1.6479490995407104,-0.634033203125,0.093505859375,-0.3292236328125
2.526,309,345,509,310,-17.0,39.0,41.0,15.869139671325684,2.868652105331421,-0.8544921278953552,-0.6571044921875,0.05029296875,-0.3419189453125
2.526,309,352,566,310,-17.0,39.0,41.0,15.869139671325684,2.868652105331421,-0.8544921278953552,-0.686767578125,-0.023681640625,-0.30419921875
2.527,308,356,657,308,-17.0,39.0,41.0,18.1884765625,-3.234863042831421,-0.6713866591453552,-0.7039794921875,-0.0570068359375,-0.218994140625
2.527,308,357,698,308,-17.0,39.0,41.0,12.512206077575684,-7.080077648162842,4.08935546875,-0.701171875,-0.017333984375,-0.14306640625
2.538,308,361,750,310,-15.0,40.0,43.0,12.512206077575684,-7.080077648162842,4.08935546875,-0.6822509765625,0.075927734375,-0.1112060546875
2.548,310,430,785,310,-15.0,40.0,43.0,-5.981444835662842,-9.8876953125,21.728513717651367,-0.653564453125,0.15478515625,-0.1011962890625
2.557,310,540,784,310,-15.0,40.0,43.0,-12.512206077575684,-13.427733421325684,27.343748092651367,-0.6080322265625,0.1732177734375,-0.109130859375
2.565,310,658,782,310,-15.0,40.0,43.0,-12.512206077575684,-13.427733421325684,27.343748092651367,-0.6090087890625,0.178955078125,-0.1580810546875
2.578,308,803,833,310,-15.0,40.0,43.0,-8.4228515625,-33.14208984375,31.311033248901367,-0.7269287109375,0.225830078125,-0.2994384765625
2.587,310,877,873,310,-15.0,40.0,43.0,1.220703125,-45.959468841552734,31.127927780151367,-0.83251953125,0.2742919921875,-0.5185546875
2.595,310,955,928,310,-15.0,40.0,43.0,1.220703125,-45.959468841552734,31.127927780151367,-0.759765625,0.287841796875,-0.649658203125
2.609,309,1092,1073,311,-15.0,40.0,43.0,-34.1796875,-73.18115234375,30.090330123901367,-0.5384521484375,0.2725830078125,-0.5389404296875
2.626,310,1176,1156,310,-15.0,40.0,43.0,-84.28954315185547,-85.20507049560547,25.695798873901367,-0.3822021484375,0.1710205078125,-0.27392578125
2.627,310,1259,1239,310,-15.0,40.0,43.0,-113.52538299560547,-82.58055877685547,14.343260765075684,-0.44189453125,0.014404296875,-0.0662841796875
2.645,310,1374,1395,310,-15.0,36.0,41.0,-104.00389862060547,-66.34521484375,4.8828125,-0.6285400390625,0.037841796875,0.0263671875
2.647,310,1422,1500,310,-15.0,36.0,41.0,-78.67431640625,-51.940914154052734,5.065917491912842,-0.8770751953125,0.3275146484375,0.0650634765625
2.655,310,1473,1564,310,-15.0,36.0,41.0,-67.9931640625,-47.546382904052734,9.82666015625,-1.171142578125,0.6258544921875,0.193359375
2.669,311,1528,1653,310,-15.0,36.0,41.0,-75.1953125,-46.264644622802734,10.253905296325684,-1.375244140625,0.67431640625,0.3834228515625
2.677,310,1560,1683,310,-15.0,36.0,41.0,-69.2138671875,-36.31591796875,5.126952648162842,-1.484375,0.564453125,0.3619384765625
2.687,310,1583,1718,311,-15.0,36.0,41.0,-35.0341796875,-19.22607421875,1.3427733182907104,-1.650634765625,0.56884765625,0.1331787109375
2.699,310,1608,1722,312,-15.0,36.0,41.0,1.220703125,-7.812499523162842,1.4648436307907104,-1.903076171875,0.7008056640625,-0.026123046875
2.709,310,1607,1698,311,-15.0,36.0,41.0,18.4326171875,-6.835937023162842,0.7934569716453552,-2.061279296875,0.6728515625,0.01806640625
2.729,310,1613,1693,311,-15.0,36.0,41.0,21.667478561401367,-8.72802734375,-5.432128429412842,-1.820068359375,0.3148193359375,0.077392578125
2.732,310,1608,1691,310,-14.0,38.0,45.0,25.512693405151367,-0.7934569716453552,-14.404295921325684,-1.336181640625,0.0107421875,-0.0782470703125
2.737,309,1608,1689,311,-14.0,38.0,45.0,32.3486328125,12.573241233825684,-20.202634811401367,-1.2481689453125,0.094482421875,-0.279052734375
2.753,312,1598,1683,310,-14.0,38.0,45.0,33.63037109375,16.4794921875,-23.071287155151367,-1.544677734375,0.2607421875,-0.3162841796875
2.759,310,1574,1653,312,-14.0,38.0,45.0,24.841306686401367,16.357421875,-22.644041061401367,-1.7020263671875,0.267822265625,-0.2420654296875
2.771,310,1543,1610,312,-14.0,38.0,45.0,8.9111328125,21.911619186401367,-17.51708984375,-1.630126953125,0.2322998046875,-0.182373046875
2.775,310,1504,1559,311,-14.0,38.0,45.0,-1.220703125,31.433103561401367,-11.474608421325684,-1.5164794921875,0.240234375,-0.200439453125
2.789,310,1413,1432,311,-14.0,38.0,45.0,-0.54931640625,40.893550872802734,-7.507323741912842,-1.4400634765625,0.28076171875,-0.228271484375
2.797,310,1335,1344,310,-14.0,38.0,45.0,3.173827886581421,47.851558685302734,-5.554198741912842,-1.39208984375,0.3240966796875,-0.2216796875
2.813,310,1243,1243,310,-14.0,38.0,45.0,6.347655773162842,51.696773529052734,-5.0048828125,-1.33349609375,0.3343505859375,-0.21923828125
2.844,311,1017,1081,310,-14.0,38.0,45.0,10.253905296325684,51.940914154052734,-6.713866710662842,-1.19921875,0.292236328125,-0.2242431640625
2.844,310,833,966,310,-13.0,39.0,44.0,14.099120140075684,49.438472747802734,-12.512206077575684,-0.9852294921875,0.220458984375,-0.189453125
2.844,310,683,918,308,-13.0,39.0,44.0,16.845703125,46.508785247802734,-21.179197311401367,-0.7359619140625,0.139892578125,-0.08544921875
2.849,309,472,830,310,-13.0,39.0,44.0,19.775390625,45.532222747802734,-28.442380905151367,-0.4822998046875,0.0633544921875,0.06640625
2.857,311,373,771,310,-13.0,39.0,44.0,25.268552780151367,48.034664154052734,-31.799314498901367,-0.31982421875,-0.0267333984375,0.171630859375
2.865,308,351,697,310,-13.0,39.0,44.0,38.9404296875,52.917476654052734,-32.16552734375,-0.3221435546875,-0.065185546875,0.1502685546875
2.879,308,354,469,308,-13.0,39.0,44.0,59.570308685302734,53.588863372802734,-28.076169967651367,-0.4344482421875,0.0751953125,0.032958984375
2.887,308,355,463,309,-13.0,39.0,44.0,69.82421875,48.461910247802734,-14.099120140075684,-0.589599609375,0.349609375,-0.1492919921875
2.895,309,351,451,309,-13.0,39.0,44.0,57.067867279052734,44.128414154052734,7.080077648162842,-0.62646484375,0.5543212890625,-0.3509521484375
2.913,310,343,438,310,-13.0,39.0,44.0,30.090330123901367,39.12353515625,21.606443405151367,-0.501220703125,0.55078125,-0.4171142578125
2.933,308,340,447,309,-13.0,39.0,44.0,7.446288585662842,27.648923873901367,17.578125,-0.443359375,0.3511962890625,-0.3404541015625
2.936,308,343,465,311,-13.0,39.0,44.0,-0.30517578125,14.831542015075684,-0.9155272841453552,-0.546630859375,0.0616455078125,-0.26806640625
2.939,308,351,513,308,-16.0,43.0,44.0,4.2724609375,7.446288585662842,-17.02880859375,-0.7542724609375,-0.14111328125,-0.207763671875
2.947,310,352,554,308,-16.0,43.0,44.0,12.145995140075684,2.25830078125,-18.6767578125,-0.7542724609375,-0.14111328125,-0.207763671875
2.955,310,354,599,308,-16.0,43.0,44.0,14.587401390075684,-5.737304210662842,-7.202147960662842,-0.741455078125,0.0028076171875,-0.1422119140625
2.969,310,360,694,310,-16.0,43.0,44.0,10.253905296325684,-14.160155296325684,7.690429210662842,-0.687744140625,0.2130126953125,-0.060546875
2.977,309,363,763,310,-16.0,43.0,44.0,5.371093273162842,-17.822265625,16.66259765625,-0.687744140625,0.2130126953125,-0.060546875
2.985,310,372,810,310,-16.0,43.0,44.0,5.0048828125,-16.2353515625,17.2119140625,-0.688720703125,0.183349609375,-0.0606689453125
2.998,310,455,847,309,-16.0,43.0,44.0,6.469726085662842,-12.512206077575684,14.282225608825684,-0.7081298828125,0.1439208984375,-0.1611328125
3.007,308,545,884,309,-16.0,43.0,44.0,5.249022960662842,-11.169432640075684,13.427733421325684,-0.7081298828125,0.1439208984375,-0.1611328125
3.019,310,622,884,310,-16.0,43.0,44.0,0.1831054538488388,-15.197752952575684,15.624999046325684,-0.7373046875,0.1923828125,-0.2293701171875
3.038,310,737,878,310,-14.0,38.0,44.0,-5.676269054412842,-22.644041061401367,18.37158203125,-0.878173828125,0.2659912109375,-0.37744140625
3.038,309,809,888,310,-14.0,38.0,44.0,-8.4228515625,-28.686521530151367,18.73779296875,-0.878173828125,0.2659912109375,-0.37744140625
3.045,310,887,891,310,-14.0,38.0,44.0,-8.85009765625,-30.883787155151367,18.49365234375,-0.9217529296875,0.230712890625,-0.4556884765625
3.058,309,1013,913,310,-14.0,38.0,44.0,-15.136717796325684,-32.16552734375,21.667478561401367,-0.7205810546875,0.196044921875,-0.383056640625
3.078,310,1092,966,310,-14.0,38.0,44.0,-35.46142578125,-39.00146484375,27.587888717651367,-0.5562744140625,0.138427734375,-0.2017822265625
3.079,310,1160,1034,311,-14.0,38.0,44.0,-64.63623046875,-48.889156341552734,30.883787155151367,-0.5562744140625,0.138427734375,-0.2017822265625
3.089,308,1279,1129,310,-14.0,38.0,44.0,-77.5146484375,-48.706050872802734,24.291990280151367,-0.4940185546875,0.0484619140625,-0.0618896484375
3.097,310,1338,1228,310,-14.0,38.0,44.0,-77.5146484375,-48.706050872802734,24.291990280151367,-0.6099853515625,0.271484375,-0.0565185546875
3.105,310,1400,1294,310,-14.0,38.0,44.0,-61.157222747802734,-47.546382904052734,23.498533248901367,-0.6099853515625,0.271484375,-0.0565185546875
3.119,310,1474,1428,310,-14.0,38.0,44.0,-59.509273529052734,-59.875484466552734,23.559568405151367,-0.9476318359375,0.7008056640625,0.14453125
3.140,310,1513,1488,311,-15.0,36.0,45.0,-59.509273529052734,-59.875484466552734,23.559568405151367,-1.044921875,0.612060546875,0.244384765625
3.140,309,1536,1547,310,-15.0,36.0,45.0,-62.133785247802734,-58.776851654052734,15.197752952575684,-1.044921875,0.612060546875,0.244384765625
3.150,311,1584,1625,310,-15.0,36.0,45.0,-23.803709030151367,-34.11865234375,-2.563476324081421,-1.462890625,0.5830078125,0.0438232421875
3.157,310,1599,1656,312,-15.0,36.0,45.0,-23.803709030151367,-34.11865234375,-2.563476324081421,-1.7979736328125,0.608154296875,-0.010498046875
3.165,310,1607,1662,311,-15.0,36.0,45.0,-3.967284917831421,-23.925779342651367,-6.286620616912842,-1.7979736328125,0.608154296875,-0.010498046875
3.189,308,1598,1608,310,-15.0,36.0,45.0,7.446288585662842,-14.465331077575684,-16.11328125,-2.00537109375,0.1048583984375,0.1939697265625
3.191,312,1605,1589,298,-15.0,36.0,45.0,7.446288585662842,-14.465331077575684,-16.11328125,-1.5262451171875,-0.1380615234375,-0.0662841796875
3.195,310,1613,1595,310,-15.0,36.0,45.0,14.465331077575684,1.3427733182907104,-16.2353515625,-1.5262451171875,-0.1380615234375,-0.0662841796875
3.209,310,1613,1593,310,-15.0,36.0,45.0,25.024412155151367,32.89794921875,-2.563476324081421,-1.268310546875,0.403564453125,-0.4488525390625
3.222,310,1607,1573,310,-15.0,36.0,45.0,25.024412155151367,32.89794921875,-2.563476324081421,-1.5531005859375,0.457763671875,-0.2291259765625
3.242,311,1583,1543,311,-15.0,39.0,45.0,10.742186546325684,23.498533248901367,-4.94384765625,-1.6080322265625,0.3446044921875,-0.0849609375
3.243,310,1533,1458,310,-15.0,39.0,45.0,0.9765624403953552,23.193357467651367,-7.019042491912842,-1.5269775390625,0.3450927734375,-0.1192626953125
3.247,310,1502,1400,310,-15.0,39.0,45.0,6.713866710662842,31.249998092651367,-3.784179449081421,-1.4395751953125,0.4266357421875,-0.16748046875
3.255,309,1437,1316,310,-15.0,39.0,45.0,6.713866710662842,31.249998092651367,-3.784179449081421,-1.3851318359375,0.4639892578125,-0.14013671875
3.269,310,1325,1147,309,-15.0,39.0,45.0,8.23974609375,47.485347747802734,-9.6435546875,-1.3441162109375,0.4158935546875,-0.108642578125
3.286,309,1234,1042,310,-15.0,39.0,45.0,13.061522483825684,52.978511810302734,-15.197752952575684,-1.27197265625,0.2891845703125,-0.1077880859375
3.287,310,1122,922,310,-15.0,39.0,45.0,13.061522483825684,52.978511810302734,-15.197752952575684,-1.12353515625,0.1234130859375,-0.0853271484375
3.299,310,871,816,311,-15.0,39.0,45.0,29.113767623901367,54.992671966552734,-25.573728561401367,-0.892822265625,-0.031982421875,0.0113525390625
3.307,310,739,785,310,-15.0,39.0,45.0,35.33935546875,56.091304779052734,-27.954099655151367,-0.6402587890625,-0.0986328125,0.129150390625
3.315,310,619,805,311,-15.0,39.0,45.0,35.33935546875,56.091304779052734,-27.954099655151367,-0.4305419921875,-0.07421875,0.177490234375
3.347,308,438,757,308,-15.0,40.0,44.0,54.321285247802734,62.683101654052734,-21.362302780151367,-0.2918701171875,-0.0443115234375,0.14453125
3.348,310,371,689,308,-15.0,40.0,44.0,65.73486328125,62.622066497802734,-18.6767578125,-0.2840576171875,0.02294921875,0.0341796875
3.348,309,342,588,308,-15.0,40.0,44.0,65.73486328125,62.622066497802734,-18.6767578125,-0.3897705078125,0.215087890625,-0.170654296875
3.359,310,363,502,310,-15.0,40.0,44.0,74.951171875,49.133296966552734,6.225585460662842,-0.508544921875,0.4886474609375,-0.414306640625
3.367,310,349,493,310,-15.0,40.0,44.0,56.335445404052734,40.588375091552734,25.085447311401367,-0.5751953125,0.6668701171875,-0.5645751953125
3.375,308,343,495,310,-15.0,40.0,44.0,33.50830078125,31.127927780151367,24.230955123901367,-0.605712890625,0.633056640625,-0.5264892578125
3.396,308,330,519,308,-15.0,40.0,44.0,21.301267623901367,20.568845748901367,1.7089842557907104,-0.6837158203125,0.4207763671875,-0.3907470703125
3.397,310,336,549,309,-15.0,40.0,44.0,23.681638717651367,13.122557640075684,-23.010251998901367,-0.8096923828125,0.1807861328125,-0.332763671875
3.405,310,337,614,310,-15.0,40.0,44.0,32.2265625,8.48388671875,-35.09521484375,-0.8956298828125,0.0538330078125,-0.3316650390625
3.425,310,338,689,309,-15.0,40.0,44.0,35.64453125,0.7324218153953552,-34.48486328125,-0.8800048828125,0.0421142578125,-0.2613525390625
3.427,308,337,726,310,-16.0,43.0,45.0,29.907224655151367,-8.30078125,-26.000974655151367,-0.8095703125,0.0721435546875,-0.1522216796875
3.446,310,338,770,309,-16.0,43.0,45.0,19.53125,-12.023924827575684,-15.319823265075684,-0.766357421875,0.0848388671875,-0.123291015625
3.449,308,340,819,309,-16.0,43.0,45.0,10.803221702575684,-9.94873046875,-7.385253429412842,-0.770263671875,0.0712890625,-0.1727294921875
3.457,310,349,840,309,-16.0,43.0,45.0,3.845214605331421,-7.141112804412842,-3.540038824081421,-0.7916259765625,0.0440673828125,-0.2125244140625
3.465,309,346,861,309,-16.0,43.0,45.0,-3.295898199081421,-6.774901866912842,-0.9765624403953552,-0.798095703125,0.0284423828125,-0.20361328125
3.479,308,372,847,310,-16.0,43.0,45.0,-8.9111328125,-8.30078125,3.723144292831421,-0.7694091796875,0.050537109375,-0.1744384765625
3.487,310,396,840,310,-16.0,43.0,45.0,-11.657713890075684,-10.070799827575684,11.108397483825684,-0.69873046875,0.1090087890625,-0.154541015625
3.497,310,508,832,310,-16.0,43.0,45.0,-13.183592796325684,-12.145995140075684,18.24951171875,-0.6055908203125,0.17236328125,-0.1519775390625
3.509,310,685,806,310,-16.0,43.0,45.0,-16.29638671875,-16.05224609375,22.155759811401367,-0.5333251953125,0.2039794921875,-0.1605224609375
3.518,310,763,819,310,-16.0,43.0,45.0,-20.690916061401367,-21.850584030151367,22.460935592651367,-0.5296630859375,0.202880859375,-0.1983642578125
3.528,310,861,861,310,-14.0,38.0,49.0,-22.583005905151367,-27.709959030151367,20.996091842651367,-0.6068115234375,0.192138671875,-0.3026123046875
3.552,310,1020,925,310,-14.0,38.0,49.0,-22.888181686401367,-31.860349655151367,21.545408248901367,-0.6905517578125,0.150146484375,-0.4244384765625
3.553,310,1112,966,310,-14.0,38.0,49.0,-32.5927734375,-36.92626953125,26.000974655151367,-0.65185546875,0.096923828125,-0.4100341796875
3.557,310,1204,1039,311,-14.0,38.0,49.0,-59.753414154052734,-45.837398529052734,33.38623046875,-0.5081787109375,0.0863037109375,-0.2130126953125
3.569,309,1344,1185,310,-14.0,38.0,49.0,-88.98925018310547,-52.307125091552734,36.07177734375,-0.4542236328125,0.0667724609375,-0.015869140625
3.577,310,1407,1271,310,-14.0,38.0,49.0,-91.30858612060547,-48.950191497802734,28.747556686401367,-0.592041015625,0.04541015625,0.0279541015625
3.585,310,1468,1352,311,-14.0,38.0,49.0,-68.115234375,-41.137691497802734,20.324705123901367,-0.8369140625,0.1773681640625,-0.0484619140625
3.604,311,1552,1485,310,-14.0,38.0,49.0,-48.217769622802734,-37.7197265625,19.4091796875,-1.0657958984375,0.458740234375,-0.0982666015625
3.607,310,1592,1538,310,-14.0,38.0,49.0,-45.043941497802734,-39.794921875,21.545408248901367,-1.25048828125,0.6763916015625,-0.02587890625
3.615,310,1627,1569,310,-14.0,38.0,49.0,-47.973628997802734,-39.48974609375,19.71435546875,-1.431884765625,0.73486328125,0.053955078125
3.652,310,1655,1627,310,-14.0,37.0,41.0,-40.466304779052734,-30.700681686401367,14.099120140075684,-1.58544921875,0.7119140625,0.017822265625
3.652,311,1669,1653,311,-14.0,37.0,41.0,-21.667478561401367,-18.49365234375,8.23974609375,-1.7039794921875,0.7054443359375,-0.074951171875
3.652,310,1666,1637,311,-14.0,37.0,41.0,-2.868652105331421,-9.6435546875,2.868652105331421,-1.83642578125,0.7156982421875,-0.08837890625
3.661,310,1667,1636,311,-14.0,37.0,41.0,8.9111328125,-5.371093273162842,-3.417968511581421,-1.84228515625,0.590087890625,-0.0191650390625
3.667,312,1656,1627,311,-14.0,37.0,41.0,15.502928733825684,1.4038084745407104,-11.962889671325684,-1.5968017578125,0.3343505859375,-0.052734375
3.675,310,1648,1617,310,-14.0,37.0,41.0,19.95849609375,14.282225608825684,-20.446775436401367,-1.468017578125,0.206298828125,-0.23876953125
3.689,310,1624,1578,311,-14.0,37.0,41.0,19.53125,23.803709030151367,-26.062009811401367,-1.7840576171875,0.1292724609375,-0.3907470703125
3.697,310,1591,1537,310,-14.0,37.0,41.0,12.878417015075684,26.123044967651367,-27.038572311401367,-1.7840576171875,0.1292724609375,-0.3907470703125
3.711,310,1540,1487,310,-14.0,37.0,41.0,4.69970703125,27.038572311401367,-21.484373092651367,-1.7073974609375,0.0887451171875,-0.370361328125
3.719,310,1434,1352,310,-14.0,37.0,41.0,1.0986328125,29.235837936401367,-12.573241233825684,-1.3953857421875,0.2469482421875,-0.4031982421875
3.732,310,1349,1245,311,-14.0,40.0,43.0,2.685546636581421,33.38623046875,-5.859374523162842,-1.3953857421875,0.2469482421875,-0.4031982421875
3.735,309,1239,1115,310,-14.0,40.0,43.0,3.295898199081421,39.1845703125,-3.723144292831421,-1.2611083984375,0.324462890625,-0.388916015625
3.755,310,974,929,310,-14.0,40.0,43.0,0.0610351525247097,45.166011810302734,-5.737304210662842,-0.9384765625,0.2698974609375,-0.231201171875
3.757,309,782,827,310,-14.0,40.0,43.0,-4.82177734375,49.438472747802734,-10.620116233825684,-0.9384765625,0.2698974609375,-0.231201171875
3.765,310,639,754,311,-14.0,40.0,43.0,-8.6669921875,50.598140716552734,-17.15087890625,-0.730712890625,0.18017578125,-0.059326171875
3.779,310,400,616,310,-14.0,40.0,43.0,-10.131834983825684,47.790523529052734,-24.475095748901367,-0.3546142578125,-0.0399169921875,0.3580322265625
3.787,310,357,518,310,-14.0,40.0,43.0,-4.8828125,45.043941497802734,-29.174802780151367,-0.3546142578125,-0.0399169921875,0.3580322265625
3.795,309,361,482,310,-14.0,40.0,43.0,14.160155296325684,46.508785247802734,-28.625486373901367,-0.291015625,-0.009765625,0.3038330078125
3.817,309,362,452,310,-14.0,40.0,43.0,41.076656341552734,46.691890716552734,-21.667478561401367,-0.501953125,0.452392578125,-0.142578125
3.817,308,339,413,310,-14.0,40.0,43.0,56.640621185302734,40.405269622802734,-7.385253429412842,-0.501953125,0.452392578125,-0.142578125
3.825,310,355,420,310,-14.0,43.0,44.0,54.626461029052734,31.249998092651367,6.225585460662842,-0.62255859375,0.5537109375,-0.2978515625
3.839,310,351,427,308,-14.0,43.0,44.0,36.07177734375,21.179197311401367,6.347655773162842,-0.6234130859375,0.2459716796875,-0.2574462890625
3.859,310,345,424,309,-14.0,43.0,44.0,36.07177734375,21.179197311401367,6.347655773162842,-0.5281982421875,0.1021728515625,-0.2369384765625
3.859,310,346,426,308,-14.0,43.0,44.0,28.442380905151367,19.1650390625,-0.0610351525247097,-0.5281982421875,0.1021728515625,-0.2369384765625
3.869,308,345,447,312,-14.0,43.0,44.0,10.803221702575684,5.126952648162842,-9.46044921875,-0.57958984375,-0.023193359375,-0.1798095703125
3.877,310,352,451,309,-14.0,43.0,44.0,10.803221702575684,5.126952648162842,-9.46044921875,-0.619140625,0.01171875,-0.2001953125
3.885,308,343,481,310,-14.0,43.0,44.0,13.305663108825684,-0.1831054538488388,-5.065917491912842,-0.619140625,0.01171875,-0.2001953125
3.899,308,346,543,309,-14.0,43.0,44.0,17.76123046875,-6.835937023162842,10.620116233825684,-0.6651611328125,0.1375732421875,-0.2545166015625
3.907,309,363,599,309,-14.0,43.0,44.0,17.76123046875,-6.835937023162842,10.620116233825684,-0.67822265625,0.13330078125,-0.18896484375
3.922,309,386,644,310,-14.0,43.0,44.0,7.507323741912842,-12.268065452575684,13.671874046325684,-0.67822265625,0.13330078125,-0.18896484375
3.929,308,543,684,309,-15.0,40.0,44.0,-3.295898199081421,-19.1650390625,14.282225608825684,-0.7911376953125,0.1571044921875,-0.220703125
3.937,310,607,671,310,-15.0,40.0,44.0,-3.295898199081421,-19.1650390625,14.282225608825684,-0.895263671875,0.2286376953125,-0.3114013671875
3.970,310,661,664,310,-15.0,40.0,44.0,-5.676269054412842,-22.949216842651367,17.76123046875,-0.895263671875,0.2286376953125,-0.3114013671875
3.971,309,742,662,308,-15.0,40.0,44.0,-10.131834983825684,-31.188962936401367,25.146482467651367,-1.103759765625,0.3096923828125,-0.432861328125
3.971,310,794,662,310,-15.0,40.0,44.0,-10.131834983825684,-31.188962936401367,25.146482467651367,-1.05810546875,0.2833251953125,-0.4215087890625
3.975,309,855,650,310,-15.0,40.0,44.0,-13.916014671325684,-33.87451171875,26.367185592651367,-1.05810546875,0.2833251953125,-0.4215087890625
3.989,310,960,689,310,-15.0,40.0,44.0,-36.376953125,-38.9404296875,26.977537155151367,-0.857666015625,0.1959228515625,-0.2528076171875
3.997,310,1021,730,309,-15.0,40.0,44.0,-43.640132904052734,-42.968746185302734,28.625486373901367,-0.8177490234375,0.1666259765625,-0.19580078125
4.005,310,1089,793,310,-15.0,40.0,44.0,-43.640132904052734,-42.968746185302734,28.625486373901367,-0.747314453125,0.1318359375,-0.151123046875
4.019,310,1191,913,310,-16.0,38.0,44.0,-42.907711029052734,-53.039546966552734,32.16552734375,-0.625244140625,0.0916748046875,-0.1396484375
4.028,310,1260,987,310,-16.0,38.0,44.0,-35.46142578125,-54.809566497802734,31.494138717651367,-0.501220703125,0.103515625,-0.18994140625
4.040,310,1310,1076,310,-16.0,38.0,44.0,-35.46142578125,-54.809566497802734,31.494138717651367,-0.463623046875,0.221435546875,-0.274658203125
4.055,310,1413,1266,308,-16.0,38.0,44.0,-33.75244140625,-57.983394622802734,29.357908248901367,-0.5008544921875,0.3734130859375,-0.3160400390625
4.063,310,1456,1365,312,-16.0,38.0,44.0,-44.555660247802734,-61.157222747802734,25.878904342651367,-0.5257568359375,0.4571533203125,-0.2503662109375
4.065,310,1504,1437,310,-16.0,38.0,44.0,-44.555660247802734,-61.157222747802734,25.878904342651367,-0.6002197265625,0.5330810546875,-0.1265869140625
4.081,310,1572,1569,310,-16.0,38.0,44.0,-60.974117279052734,-59.265132904052734,5.065917491912842,-0.9169921875,0.7054443359375,-0.0472412109375
4.087,310,1599,1642,310,-16.0,38.0,44.0,-65.0634765625,-54.565425872802734,-5.859374523162842,-1.366455078125,0.8944091796875,-0.007568359375
4.095,310,1624,1704,312,-16.0,38.0,44.0,-65.0634765625,-54.565425872802734,-5.859374523162842,-1.564697265625,0.89599609375,0.06396484375
4.109,310,1646,1781,311,-16.0,38.0,44.0,-58.776851654052734,-44.799800872802734,-22.277830123901367,-1.55908203125,0.7196044921875,0.1964111328125
4.117,310,1656,1818,310,-12.0,37.0,48.0,-37.2314453125,-41.259761810302734,-33.447265625,-1.6593017578125,0.47900390625,0.4141845703125
4.125,308,1665,1805,310,-12.0,37.0,48.0,-37.2314453125,-41.259761810302734,-33.447265625,-1.8040771484375,0.1690673828125,0.584716796875
4.142,310,1669,1783,312,-12.0,37.0,48.0,6.164550304412842,-30.151365280151367,-50.720211029052734,-1.689697265625,-0.093994140625,0.386474609375
4.147,308,1665,1788,312,-12.0,37.0,48.0,29.418943405151367,-3.784179449081421,-48.767086029052734,-1.307373046875,-0.0552978515625,-0.1763916015625
4.166,310,1669,1798,312,-12.0,37.0,48.0,42.968746185302734,23.254392623901367,-41.809078216552734,-1.0767822265625,0.2060546875,-0.6080322265625
4.169,310,1675,1813,311,-12.0,37.0,48.0,32.470703125,29.541013717651367,-42.175289154052734,-1.2215576171875,0.3201904296875,-0.5479736328125
4.177,309,1662,1806,310,-12.0,37.0,48.0,9.33837890625,20.01953125,-47.119136810302734,-1.498046875,0.2646484375,-0.2039794921875
4.185,310,1648,1789,311,-12.0,37.0,48.0,-3.662109136581421,13.244627952575684,-44.738765716552734,-1.6318359375,0.2158203125,0.0040283203125
4.199,310,1607,1732,311,-12.0,37.0,48.0,-1.0986328125,17.4560546875,-34.66796875,-1.58935546875,0.234375,-0.024169921875
4.209,310,1559,1665,311,-12.0,37.0,48.0,2.685546636581421,27.893064498901367,-21.789548873901367,-1.48828125,0.306884765625,-0.1007080078125
4.215,309,1508,1602,310,-12.0,37.0,48.0,-0.6103515625,37.41455078125,-11.047362327575684,-1.428466796875,0.33203125,-0.1019287109375
4.229,310,1404,1458,310,-12.0,39.0,46.0,-4.57763671875,44.372554779052734,-5.371093273162842,-1.4058837890625,0.2935791015625,-0.06298828125
4.266,310,1319,1365,311,-12.0,39.0,46.0,-3.173827886581421,49.560543060302734,-3.417968511581421,-1.35498046875,0.27392578125,-0.0439453125
4.266,309,1206,1268,310,-12.0,39.0,46.0,3.356933355331421,53.588863372802734,-4.21142578125,-1.2548828125,0.2689208984375,-0.033935546875
4.266,308,966,1108,310,-12.0,39.0,46.0,11.108397483825684,56.701656341552734,-9.46044921875,-1.0877685546875,0.1767578125,0.041015625
4.267,310,799,1039,310,-12.0,39.0,46.0,18.61572265625,58.227535247802734,-19.47021484375,-0.8563232421875,-0.0242919921875,0.17138671875
4.275,308,653,987,310,-12.0,39.0,46.0,29.724119186401367,59.204097747802734,-28.869626998901367,-0.6422119140625,-0.172607421875,0.2430419921875
4.289,310,433,923,310,-12.0,39.0,46.0,43.457027435302734,59.082027435302734,-29.174802780151367,-0.4962158203125,-0.16845703125,0.2357177734375
4.297,310,357,861,310,-12.0,39.0,46.0,52.490230560302734,56.213375091552734,-22.399900436401367,-0.41650390625,-0.1185302734375,0.1597900390625
4.306,309,345,750,306,-12.0,39.0,46.0,60.363765716552734,53.649898529052734,-17.578125,-0.4384765625,-0.0538330078125,-0.01513671875
4.319,310,343,507,309,-12.0,40.0,37.0,69.091796875,51.940914154052734,-11.657713890075684,-0.5355224609375,0.14404296875,-0.2515869140625
4.327,309,342,447,309,-12.0,40.0,37.0,67.93212890625,48.889156341552734,2.0751953125,-0.618896484375,0.4693603515625,-0.4793701171875
4.335,308,342,438,310,-12.0,40.0,37.0,52.734371185302734,44.921871185302734,17.08984375,-0.6422119140625,0.6856689453125,-0.6112060546875
4.372,308,337,435,310,-12.0,40.0,37.0,31.555173873901367,39.1845703125,20.629880905151367,-0.66796875,0.648681640625,-0.558837890625
4.372,294,337,434,309,-12.0,40.0,37.0,12.878417015075684,25.878904342651367,8.48388671875,-0.68505859375,0.452880859375,-0.3619384765625
4.372,309,337,436,309,-12.0,40.0,37.0,0.0610351525247097,8.30078125,-8.30078125,-0.6417236328125,0.2398681640625,-0.1812744140625
4.379,310,336,442,310,-12.0,40.0,37.0,-3.967284917831421,0.0610351525247097,-17.7001953125,-0.6314697265625,0.09033203125,-0.137939453125
4.387,309,338,452,310,-12.0,40.0,37.0,0.3662109076976776,1.2817381620407104,-18.1884765625,-0.658447265625,0.0072021484375,-0.179931640625
4.395,310,338,475,309,-12.0,40.0,37.0,5.676269054412842,2.197265625,-13.671874046325684,-0.658447265625,-0.0302734375,-0.199951171875
4.409,310,339,512,308,-12.0,40.0,37.0,7.507323741912842,-0.1220703050494194,-7.141112804412842,-0.6475830078125,-0.0252685546875,-0.200439453125
4.419,309,341,568,309,-12.0,40.0,41.0,8.60595703125,-3.540038824081421,-0.4272460639476776,-0.6683349609375,0.0174560546875,-0.20361328125
4.425,309,345,639,309,-12.0,40.0,41.0,8.85009765625,-7.751464366912842,4.638671875,-0.70068359375,0.054931640625,-0.175048828125
4.439,310,356,714,310,-12.0,40.0,41.0,5.920409679412842,-11.779784202575684,6.958007335662842,-0.7054443359375,0.0576171875,-0.1065673828125
4.473,310,371,756,310,-12.0,40.0,41.0,1.9531248807907104,-13.854979515075684,8.48388671875,-0.6719970703125,0.0523681640625,-0.0482177734375
4.474,296,424,771,309,-12.0,40.0,41.0,0.1831054538488388,-14.038084983825684,12.573241233825684,-0.61865234375,0.0709228515625,-0.0504150390625
4.474,296,644,703,309,-12.0,40.0,41.0,-0.0610351525247097,-14.831542015075684,19.47021484375,-0.5640869140625,0.142578125,-0.1864013671875
4.479,311,737,703,308,-12.0,40.0,41.0,-1.5258787870407104,-19.47021484375,26.611326217651367,-0.5640869140625,0.142578125,-0.1864013671875
4.485,308,824,756,310,-12.0,40.0,41.0,-3.356933355331421,-27.770994186401367,31.860349655151367,-0.6566162109375,0.2103271484375,-0.3114013671875
4.499,310,984,846,310,-12.0,40.0,41.0,-3.601073980331421,-37.59765625,35.09521484375,-0.742919921875,0.2545166015625,-0.54296875
4.507,310,1067,963,310,-12.0,40.0,41.0,-10.986327171325684,-48.583980560302734,35.888671875,-0.742919921875,0.2545166015625,-0.54296875
4.515,310,1151,1104,310,-13.0,36.0,42.0,-38.818359375,-62.561031341552734,35.5224609375,-0.50341796875,0.1539306640625,-0.398681640625
4.531,310,1292,1297,310,-13.0,36.0,42.0,-80.50536346435547,-75.01220703125,33.14208984375,-0.2645263671875,0.035400390625,0.093505859375
4.537,310,1365,1381,312,-13.0,36.0,42.0,-96.74071502685547,-74.21875,22.277830123901367,-0.2645263671875,0.035400390625,0.093505859375
4.561,310,1435,1478,310,-13.0,36.0,42.0,-65.61279296875,-60.607906341552734,7.873534679412842,-0.52783203125,0.21337890625,0.0775146484375
4.575,310,1526,1602,310,-13.0,36.0,42.0,-24.291990280151367,-52.429195404052734,3.112792730331421,-1.22216796875,1.0242919921875,-0.0032958984375
4.575,310,1569,1667,312,-13.0,36.0,42.0,-14.160155296325684,-58.105464935302734,5.737304210662842,-1.22216796875,1.0242919921875,-0.0032958984375
4.575,312,1610,1732,310,-13.0,36.0,42.0,-27.221677780151367,-64.0869140625,3.479003667831421,-1.4713134765625,1.08203125,0.1005859375
4.589,310,1646,1763,312,-13.0,36.0,42.0,-35.09521484375,-59.570308685302734,-5.676269054412842,-2.0198974609375,0.499755859375,0.24951171875
4.597,310,1635,1725,311,-13.0,36.0,42.0,-26.123044967651367,-47.668453216552734,-17.08984375,-2.371337890625,-0.12060546875,0.2725830078125
4.605,310,1632,1681,310,-13.0,36.0,42.0,-4.45556640625,-36.56005859375,-32.28759765625,-2.371337890625,-0.12060546875,0.2725830078125
4.619,309,1613,1640,310,-12.0,36.0,43.0,41.992183685302734,-0.4272460639476776,-28.137205123901367,-1.7174072265625,-0.4168701171875,-0.433349609375
4.627,311,1619,1655,311,-12.0,36.0,43.0,41.992183685302734,-0.4272460639476776,-28.137205123901367,-0.9345703125,0.093994140625,-0.660400390625
4.635,311,1625,1666,310,-12.0,36.0,43.0,44.311519622802734,27.038572311401367,4.57763671875,-0.9345703125,0.093994140625,-0.660400390625
4.656,310,1638,1681,310,-12.0,36.0,43.0,-7.934569835662842,18.85986328125,4.8828125,-1.286865234375,0.3466796875,-0.0330810546875
4.657,299,1627,1682,310,-12.0,36.0,43.0,-7.934569835662842,18.85986328125,4.8828125,-1.658203125,0.285400390625,0.068359375
4.679,310,1607,1667,311,-12.0,36.0,43.0,-27.038572311401367,14.343260765075684,-4.21142578125,-1.658203125,0.285400390625,0.068359375
4.680,310,1543,1615,312,-12.0,36.0,43.0,-6.958007335662842,28.564451217651367,4.82177734375,-1.484619140625,0.4749755859375,-0.18701171875
4.687,310,1500,1572,311,-12.0,36.0,43.0,-6.958007335662842,28.564451217651367,4.82177734375,-1.3074951171875,0.572509765625,-0.1949462890625
4.695,310,1452,1518,310,-12.0,36.0,43.0,0.1831054538488388,33.75244140625,6.835937023162842,-1.3074951171875,0.572509765625,-0.1949462890625
4.709,311,1351,1401,310,-12.0,36.0,43.0,-3.051757574081421,40.222164154052734,-7.202147960662842,-1.2630615234375,0.3751220703125,-0.068603515625
4.717,310,1263,1320,310,-12.0,37.0,45.0,-3.051757574081421,40.222164154052734,-7.202147960662842,-1.2955322265625,0.2781982421875,-0.1103515625
4.724,309,1133,1246,310,-12.0,37.0,45.0,4.638671875,45.776363372802734,-14.892577171325684,-1.2955322265625,0.2781982421875,-0.1103515625
4.738,310,918,1127,310,-12.0,37.0,45.0,14.831542015075684,52.734371185302734,-23.864744186401367,-1.08154296875,0.084716796875,-0.0958251953125
4.747,310,739,1092,310,-12.0,37.0,45.0,13.854979515075684,51.391597747802734,-30.334470748901367,-0.8643798828125,-0.12646484375,0.08154296875
4.779,310,579,1063,310,-12.0,37.0,45.0,13.854979515075684,51.391597747802734,-30.334470748901367,-0.7095947265625,-0.2891845703125,0.18115234375
4.779,310,359,1034,296,-12.0,37.0,45.0,39.00146484375,56.091304779052734,-39.794921875,-0.6392822265625,-0.2774658203125,0.1240234375
4.779,297,325,943,309,-12.0,37.0,45.0,58.959957122802734,60.607906341552734,-35.09521484375,-0.6268310546875,-0.158203125,0.0059814453125
4.787,310,338,756,309,-12.0,37.0,45.0,58.959957122802734,60.607906341552734,-35.09521484375,-0.676025390625,-0.00830078125,-0.09716796875
4.799,309,338,481,310,-12.0,37.0,45.0,69.3359375,56.396480560302734,-17.7001953125,-0.766357421875,0.2462158203125,-0.2381591796875
4.808,310,328,434,308,-12.0,37.0,45.0,58.776851654052734,53.100582122802734,2.624511480331421,-0.8526611328125,0.6209716796875,-0.462646484375
4.818,310,328,423,308,-13.0,42.0,40.0,58.776851654052734,53.100582122802734,2.624511480331421,-0.8778076171875,0.7972412109375,-0.5487060546875
4.829,308,329,386,310,-13.0,42.0,40.0,-13.122557640075684,15.869139671325684,26.855466842651367,-0.77783203125,0.5518798828125,-0.2618408203125
4.837,310,328,381,310,-13.0,42.0,40.0,-48.889156341552734,-18.1884765625,2.13623046875,-0.6226806640625,0.1649169921875,0.14404296875
4.845,308,328,369,310,-13.0,42.0,40.0,-48.889156341552734,-18.1884765625,2.13623046875,-0.5504150390625,-0.0146484375,0.2359619140625
4.859,310,329,372,310,-13.0,42.0,40.0,-7.995604991912842,-23.620603561401367,-28.320310592651367,-0.5618896484375,0.0592041015625,0.0343017578125
4.885,310,331,373,309,-13.0,42.0,40.0,17.39501953125,-16.41845703125,-18.310546875,-0.5787353515625,0.1881103515625,-0.16552734375
4.885,309,337,377,310,-13.0,42.0,40.0,17.39501953125,-16.41845703125,-18.310546875,-0.55029296875,0.22412109375,-0.24462890625
4.889,310,337,394,310,-13.0,42.0,40.0,7.080077648162842,-15.014647483825684,4.39453125,-0.4954833984375,0.190185546875,-0.2857666015625
4.897,310,338,411,308,-13.0,42.0,40.0,1.7700194120407104,-11.901854515075684,9.46044921875,-0.4698486328125,0.119140625,-0.3477783203125
4.906,310,338,452,310,-13.0,42.0,40.0,2.807616949081421,-8.1787109375,9.46044921875,-0.50732421875,0.020263671875,-0.3870849609375
4.919,309,343,518,309,-13.0,41.0,43.0,6.347655773162842,-8.23974609375,5.981444835662842,-0.5849609375,-0.07421875,-0.3536376953125
4.927,309,349,574,309,-13.0,41.0,43.0,9.82666015625,-13.366698265075684,3.356933355331421,-0.63134765625,-0.1204833984375,-0.26611328125
4.935,309,354,646,306,-13.0,41.0,43.0,10.864256858825684,-19.53125,6.164550304412842,-0.6263427734375,-0.091552734375,-0.17822265625
4.949,308,357,849,310,-13.0,41.0,43.0,7.446288585662842,-24.536130905151367,15.075682640075684,-0.5830078125,-0.004150390625,-0.1153564453125
4.962,309,363,966,310,-13.0,41.0,43.0,-3.112792730331421,-29.602048873901367,26.550291061401367,-0.482421875,0.063720703125,-0.0760498046875
4.965,308,411,1064,309,-13.0,41.0,43.0,-17.333984375,-31.677244186401367,35.2783203125,-0.3638916015625,0.0992431640625,-0.0504150390625
4.993,309,660,1025,308,-13.0,41.0,43.0,-25.085447311401367,-30.212400436401367,39.794921875,-0.3333740234375,0.1519775390625,-0.06591796875
4.993,310,818,1009,296,-13.0,41.0,43.0,-28.259275436401367,-33.447265625,42.419429779052734,-0.4779052734375,0.191650390625,-0.2169189453125
4.995,311,913,1091,310,-13.0,41.0,43.0,-36.07177734375,-46.203609466552734,44.677730560302734,-0.7969970703125,0.306396484375,-0.4398193359375
5.009,310,1035,1251,310,-13.0,41.0,43.0,-47.790523529052734,-61.462398529052734,46.203609466552734,-1.0067138671875,0.4739990234375,-0.4554443359375
5.017,310,1108,1345,310,-12.0,36.0,43.0,-61.523433685302734,-70.37353515625,45.166011810302734,-0.7750244140625,0.4276123046875,-0.169189453125
5.026,310,1186,1419,310,-12.0,36.0,43.0,-73.91357421875,-70.6787109375,37.90283203125,-0.4410400390625,0.2091064453125,0.1895751953125
5.039,310,1289,1528,311,-12.0,36.0,43.0,-68.9697265625,-66.89453125,25.817869186401367,-0.6104736328125,0.12939453125,0.3468017578125
5.047,312,1346,1591,311,-12.0,36.0,43.0,-42.053218841552734,-64.0869140625,19.4091796875,-1.0966796875,0.3218994140625,0.3106689453125
5.055,310,1393,1648,311,-12.0,36.0,43.0,-17.15087890625,-61.706539154052734,24.230955123901367,-1.3140869140625,0.62451171875,0.324462890625
5.100,310,1477,1746,310,-12.0,36.0,43.0,-8.23974609375,-57.250972747802734,27.954099655151367,-1.2999267578125,0.76025390625,0.4130859375
5.100,312,1527,1761,310,-12.0,36.0,43.0,1.220703125,-50.109859466552734,21.789548873901367,-1.427490234375,0.7027587890625,0.3382568359375
5.100,308,1569,1745,299,-12.0,36.0,43.0,28.747556686401367,-36.92626953125,11.047362327575684,-1.8411865234375,0.542236328125,-0.0439453125
5.101,310,1569,1770,312,-12.0,36.0,43.0,66.71142578125,-17.02880859375,1.4648436307907104,-2.3642578125,0.2772216796875,-0.492919921875
5.107,310,1555,1761,310,-12.0,36.0,43.0,81.29882049560547,-2.01416015625,-2.44140625,-2.40771484375,0.0469970703125,-0.64306640625
5.115,311,1551,1755,311,-16.0,34.0,45.0,58.837886810302734,3.845214605331421,0.9155272841453552,-1.7581787109375,0.0357666015625,-0.566650390625
5.129,310,1523,1733,310,-16.0,34.0,45.0,30.761716842651367,8.23974609375,6.591796398162842,-1.0863037109375,0.237548828125,-0.498779296875
5.138,310,1523,1734,312,-16.0,34.0,45.0,9.27734375,10.192870140075684,5.615233898162842,-0.907470703125,0.397216796875,-0.3973388671875
5.145,308,1519,1735,310,-16.0,34.0,45.0,-20.263669967651367,9.82666015625,-4.94384765625,-1.0245361328125,0.389404296875,-0.185546875
5.159,310,1508,1733,312,-16.0,34.0,45.0,-47.058101654052734,12.451170921325684,-16.05224609375,-1.2530517578125,0.38134765625,0.06005859375
5.167,310,1484,1730,312,-16.0,34.0,45.0,-53.710933685302734,15.258788108825684,-20.202634811401367,-1.5205078125,0.3851318359375,0.2509765625
5.188,311,1450,1711,312,-16.0,34.0,45.0,-38.63525390625,16.17431640625,-20.385740280151367,-1.6043701171875,0.30029296875,0.309814453125
5.189,310,1357,1622,310,-16.0,34.0,45.0,-11.718749046325684,19.83642578125,-16.845703125,-1.4686279296875,0.2474365234375,0.19287109375
5.208,310,1334,1602,310,-16.0,34.0,45.0,9.70458984375,26.977537155151367,-8.85009765625,-1.3001708984375,0.3067626953125,-0.0130615234375
5.208,311,1273,1561,312,-16.0,34.0,45.0,17.15087890625,34.24072265625,-3.906249761581421,-1.21484375,0.3450927734375,-0.1817626953125
5.219,310,1188,1478,312,-14.0,36.0,43.0,15.502928733825684,40.405269622802734,-5.493163585662842,-1.1927490234375,0.3359375,-0.2298583984375
5.228,310,1103,1413,308,-14.0,36.0,43.0,11.474608421325684,42.968746185302734,-8.4228515625,-1.1927490234375,0.3359375,-0.2298583984375
5.236,310,1018,1345,310,-14.0,36.0,43.0,8.9111328125,41.442867279052734,-11.047362327575684,-1.1534423828125,0.351806640625,-0.1669921875
5.249,310,823,1232,311,-14.0,36.0,43.0,10.192870140075684,40.222164154052734,-15.624999046325684,-0.8387451171875,0.147705078125,-0.2786865234375
5.257,310,698,1162,311,-14.0,36.0,43.0,13.732909202575684,43.823238372802734,-21.972654342651367,-0.8387451171875,0.147705078125,-0.2786865234375
5.270,310,566,1120,310,-14.0,36.0,43.0,19.34814453125,52.124019622802734,-29.418943405151367,-0.6346435546875,-0.0103759765625,-0.4107666015625
5.290,309,450,1047,310,-14.0,36.0,43.0,26.428220748901367,58.532711029052734,-35.82763671875,-0.529541015625,0.0555419921875,-0.234130859375
5.291,309,391,1009,310,-14.0,36.0,43.0,25.512693405151367,54.443355560302734,-37.2314453125,-0.529541015625,0.0555419921875,-0.234130859375
5.295,310,377,935,310,-14.0,36.0,43.0,11.718749046325684,41.809078216552734,-34.97314453125,-0.5272216796875,0.160888671875,0.0333251953125
5.309,310,371,793,308,-12.0,39.0,42.0,-3.417968511581421,30.456541061401367,-31.005857467651367,-0.586669921875,0.3052978515625,0.1341552734375
5.320,308,369,755,311,-12.0,39.0,42.0,-9.27734375,23.925779342651367,-23.254392623901367,-0.586669921875,0.3052978515625,0.1341552734375
5.325,308,369,741,308,-12.0,39.0,42.0,-9.09423828125,17.27294921875,-10.986327171325684,-0.6544189453125,0.368408203125,0.0360107421875
5.339,310,361,751,310,-12.0,39.0,42.0,-8.6669921875,8.056640625,-0.1831054538488388,-0.629150390625,0.259765625,-0.12060546875
5.347,310,360,764,310,-12.0,39.0,42.0,-5.310058116912842,2.0751953125,1.4648436307907104,-0.629150390625,0.259765625,-0.12060546875
5.355,308,364,818,310,-12.0,39.0,42.0,2.746581792831421,0.7934569716453552,-5.432128429412842,-0.64404296875,0.0699462890625,-0.1729736328125
5.373,308,367,899,309,-12.0,39.0,42.0,13.854979515075684,-6.347655773162842,-7.934569835662842,-0.6737060546875,-0.0015869140625,-0.1639404296875
5.395,310,369,944,308,-12.0,39.0,42.0,13.854979515075684,-6.347655773162842,-7.934569835662842,-0.6466064453125,0.064453125,-0.113037109375
5.395,308,364,991,310,-12.0,39.0,42.0,11.779784202575684,-13.000487327575684,0.9155272841453552,-0.6466064453125,0.064453125,-0.113037109375
5.401,308,432,1078,310,-12.0,39.0,42.0,8.36181640625,-20.568845748901367,13.122557640075684,-0.581787109375,0.099853515625,-0.0828857421875
5.414,310,509,1064,310,-15.0,39.0,48.0,8.36181640625,-20.568845748901367,13.122557640075684,-0.550537109375,0.131591796875,-0.093017578125
5.415,298,579,1035,310,-15.0,39.0,48.0,5.554198741912842,-20.996091842651367,16.78466796875,-0.550537109375,0.131591796875,-0.093017578125
5.434,309,763,1022,310,-15.0,39.0,48.0,-8.4228515625,-27.160642623901367,22.338865280151367,-0.6607666015625,0.2181396484375,-0.1065673828125
5.437,310,853,1025,308,-15.0,39.0,48.0,-8.4228515625,-27.160642623901367,22.338865280151367,-0.77197265625,0.252197265625,-0.1856689453125
5.445,310,922,1043,310,-15.0,39.0,48.0,-10.314940452575684,-31.799314498901367,21.972654342651367,-0.77197265625,0.252197265625,-0.1856689453125
5.459,310,1037,1129,310,-15.0,39.0,48.0,-19.22607421875,-40.649410247802734,27.404783248901367,-0.6834716796875,0.2344970703125,-0.304443359375
5.476,310,1092,1198,312,-15.0,39.0,48.0,-19.22607421875,-40.649410247802734,27.404783248901367,-0.483642578125,0.1893310546875,-0.1162109375
5.476,310,1157,1282,310,-15.0,39.0,48.0,-40.588375091552734,-47.058101654052734,32.2265625,-0.483642578125,0.1893310546875,-0.1162109375
5.507,310,1250,1447,311,-15.0,39.0,48.0,-62.438961029052734,-53.100582122802734,22.216794967651367,-0.457275390625,0.0513916015625,0.2777099609375
5.555,310,1292,1543,312,-15.0,39.0,48.0,-62.438961029052734,-53.100582122802734,22.216794967651367,-0.67822265625,0.15625,0.2886962890625
5.557,310,1344,1619,310,-15.0,39.0,48.0,-46.020503997802734,-51.452632904052734,15.197752952575684,-0.9095458984375,0.408447265625,0.2982177734375
5.557,310,1457,1732,311,-12.0,34.0,47.0,-15.197752952575684,-51.574703216552734,15.502928733825684,-1.0765380859375,0.6461181640625,0.3828125
5.558,311,1504,1782,311,-12.0,34.0,47.0,-8.7890625,-47.058101654052734,13.122557640075684,-1.2935791015625,0.8040771484375,0.37646484375
5.558,310,1553,1803,312,-12.0,34.0,47.0,-8.7890625,-47.058101654052734,13.122557640075684,-1.631591796875,0.78955078125,0.0660400390625
5.559,310,1598,1811,311,-12.0,34.0,47.0,37.841796875,-15.075682640075684,3.723144292831421,-2.0880126953125,0.50830078125,-0.3563232421875
5.559,310,1591,1801,311,-12.0,34.0,47.0,61.828609466552734,-1.03759765625,-7.202147960662842,-2.474365234375,0.141357421875,-0.6197509765625
5.566,310,1577,1785,310,-12.0,34.0,47.0,61.828609466552734,-1.03759765625,-7.202147960662842,-2.254638671875,-0.0689697265625,-0.6402587890625
5.580,310,1559,1778,312,-12.0,34.0,47.0,43.884273529052734,2.13623046875,-4.0283203125,-1.4383544921875,0.0130615234375,-0.463623046875
5.594,308,1543,1775,311,-12.0,34.0,47.0,24.597166061401367,3.051757574081421,7.446288585662842,-0.8533935546875,0.2723388671875,-0.2777099609375
5.600,310,1543,1782,310,-12.0,34.0,47.0,2.38037109375,5.676269054412842,5.737304210662842,-0.84521484375,0.392333984375,-0.169677734375
5.610,310,1543,1785,311,-13.0,38.0,47.0,-22.460935592651367,11.352538108825684,-5.493163585662842,-1.1180419921875,0.377197265625,-0.0828857421875
5.618,312,1529,1782,312,-13.0,38.0,47.0,-39.1845703125,15.624999046325684,-12.695311546325684,-1.4520263671875,0.362548828125,0.0625
5.627,310,1506,1772,311,-13.0,38.0,47.0,-40.527339935302734,14.282225608825684,-12.939452171325684,-1.6092529296875,0.29150390625,0.23388671875
5.641,310,1450,1715,310,-13.0,38.0,47.0,-24.780271530151367,14.038084983825684,-9.765625,-1.5059814453125,0.1739501953125,0.28125
5.648,310,1407,1666,310,-13.0,38.0,47.0,-0.6103515625,20.385740280151367,-3.112792730331421,-1.3336181640625,0.1593017578125,0.1424560546875
5.658,310,1365,1617,310,-13.0,38.0,47.0,17.76123046875,29.479978561401367,4.57763671875,-1.2386474609375,0.2611083984375,-0.086669921875
5.670,308,1282,1523,311,-13.0,38.0,47.0,24.169919967651367,36.62109375,9.033203125,-1.2286376953125,0.358154296875,-0.2681884765625
5.681,310,1219,1462,312,-13.0,38.0,47.0,21.240232467651367,39.306640625,9.33837890625,-1.2481689453125,0.3988037109375,-0.3133544921875
5.700,310,1160,1397,311,-13.0,38.0,47.0,14.587401390075684,37.04833984375,5.981444835662842,-1.21923828125,0.3992919921875,-0.23388671875
5.700,308,1018,1271,295,-13.0,38.0,47.0,10.498045921325684,34.3017578125,-0.54931640625,-1.08740234375,0.3492431640625,-0.1298828125
5.709,310,928,1232,310,-15.0,38.0,46.0,10.681151390075684,35.33935546875,-9.33837890625,-0.860107421875,0.239501953125,-0.091552734375
5.716,310,837,1162,310,-15.0,38.0,46.0,14.404295921325684,40.771480560302734,-19.04296875,-0.630126953125,0.09521484375,-0.160888671875
5.734,310,657,1071,310,-15.0,38.0,46.0,23.193357467651367,49.133296966552734,-26.916501998901367,-0.518310546875,0.02099609375,-0.3173828125
5.738,310,557,1022,310,-15.0,38.0,46.0,33.447265625,53.710933685302734,-28.808591842651367,-0.5230712890625,0.0965576171875,-0.42236328125
5.747,308,493,994,310,-15.0,38.0,46.0,35.0341796875,47.729488372802734,-26.000974655151367,-0.55224609375,0.2445068359375,-0.360595703125
5.760,310,414,922,309,-15.0,38.0,46.0,21.423337936401367,34.0576171875,-22.583005905151367,-0.55419921875,0.336669921875,-0.166748046875
5.771,310,393,878,310,-15.0,38.0,46.0,-4.08935546875,20.690916061401367,-21.118162155151367,-0.5657958984375,0.33349609375,0.035888671875
5.782,308,386,835,310,-15.0,38.0,46.0,-26.672361373901367,12.451170921325684,-21.728513717651367,-0.6435546875,0.29248046875,0.13427734375
5.804,308,373,792,311,-15.0,38.0,46.0,-32.28759765625,9.033203125,-20.874021530151367,-0.7587890625,0.2572021484375,0.118408203125
5.805,311,372,770,310,-15.0,38.0,46.0,-23.132322311401367,7.080077648162842,-16.7236328125,-0.8204345703125,0.2369384765625,0.0418701171875
5.810,309,372,767,310,-13.0,38.0,43.0,-10.070799827575684,5.0048828125,-12.512206077575684,-0.78564453125,0.186767578125,-0.0404052734375
5.820,310,373,799,309,-13.0,38.0,43.0,0.30517578125,3.967284917831421,-11.169432640075684,-0.73486328125,0.0772705078125,-0.121337890625
5.828,310,377,823,310,-13.0,38.0,43.0,6.347655773162842,2.685546636581421,-9.46044921875,-0.71875,-0.008056640625,-0.1934814453125
5.842,310,382,854,308,-13.0,38.0,43.0,8.30078125,-1.15966796875,-2.807616949081421,-0.7088623046875,-0.000732421875,-0.206298828125
5.850,309,398,914,310,-13.0,38.0,43.0,7.141112804412842,-7.202147960662842,6.652831554412842,-0.6966552734375,0.0665283203125,-0.1546630859375
5.858,310,415,948,310,-13.0,38.0,43.0,4.45556640625,-13.183592796325684,14.221190452575684,-0.686279296875,0.145263671875,-0.091796875
5.867,309,452,984,310,-13.0,38.0,43.0,1.3427733182907104,-16.4794921875,18.00537109375,-0.6636962890625,0.2020263671875,-0.0628662109375
5.913,310,554,989,310,-13.0,38.0,43.0,-0.9155272841453552,-16.7236328125,18.798828125,-0.62841796875,0.2138671875,-0.06689453125
5.914,310,621,989,310,-13.0,38.0,43.0,-1.3427733182907104,-16.2353515625,18.06640625,-0.6297607421875,0.206298828125,-0.09033203125
5.914,310,696,974,296,-13.0,38.0,43.0,-0.3662109076976776,-18.37158203125,17.02880859375,-0.6893310546875,0.208740234375,-0.1416015625
5.914,310,840,1038,310,-13.0,39.0,46.0,0.9765624403953552,-23.864744186401367,16.6015625,-0.7744140625,0.2149658203125,-0.2783203125
5.918,309,916,1094,310,-13.0,39.0,46.0,1.03759765625,-30.639646530151367,17.02880859375,-0.7744140625,0.2149658203125,-0.2783203125
5.927,310,981,1159,310,-13.0,39.0,46.0,-4.82177734375,-38.26904296875,18.37158203125,-0.738525390625,0.2110595703125,-0.303955078125
5.953,309,1082,1289,310,-13.0,39.0,46.0,-20.324705123901367,-47.546382904052734,22.216794967651367,-0.443359375,0.148681640625,-0.0445556640625
5.953,310,1153,1371,310,-13.0,39.0,46.0,-41.381832122802734,-56.884761810302734,27.404783248901367,-0.443359375,0.148681640625,-0.0445556640625
5.956,310,1213,1463,310,-13.0,39.0,46.0,-54.504390716552734,-62.133785247802734,28.320310592651367,-0.3277587890625,0.0958251953125,0.157470703125
5.970,310,1302,1597,310,-13.0,39.0,46.0,-50.354000091552734,-61.035152435302734,24.291990280151367,-0.6181640625,0.2344970703125,0.225830078125
5.978,310,1380,1689,310,-13.0,39.0,46.0,-35.21728515625,-57.067867279052734,19.83642578125,-0.6181640625,0.2344970703125,0.225830078125
5.987,310,1428,1759,311,-13.0,39.0,46.0,-21.789548873901367,-54.687496185302734,16.9677734375,-0.8941650390625,0.41943359375,0.24560546875
6.008,311,1511,1838,311,-13.0,39.0,46.0,-16.11328125,-53.527828216552734,13.793944358825684,-1.34033203125,0.6590576171875,0.2569580078125
6.008,311,1529,1831,312,-13.0,36.0,45.0,-10.498045921325684,-48.645015716552734,10.437010765075684,-1.34033203125,0.6590576171875,0.2569580078125
6.016,310,1595,1894,310,-13.0,36.0,45.0,6.225585460662842,-35.58349609375,8.85009765625,-1.6595458984375,0.698974609375,-0.0272216796875
6.032,308,1611,1897,312,-13.0,36.0,45.0,30.212400436401367,-19.1650390625,7.080077648162842,-2.2098388671875,0.423583984375,-0.3878173828125
6.038,310,1609,1886,310,-13.0,36.0,45.0,41.198726654052734,-9.09423828125,3.417968511581421,-2.095703125,0.08447265625,-0.2310791015625
6.057,310,1613,1880,310,-13.0,36.0,45.0,27.526853561401367,-7.507323741912842,-1.0986328125,-2.095703125,0.08447265625,-0.2310791015625
6.059,310,1592,1860,310,-13.0,36.0,45.0,6.042479991912842,8.60595703125,4.638671875,-0.9892578125,0.1798095703125,-0.2777099609375
6.068,310,1588,1865,312,-13.0,36.0,45.0,6.042479991912842,8.60595703125,4.638671875,-0.8585205078125,0.474609375,-0.2857666015625
6.076,310,1592,1860,312,-13.0,36.0,45.0,4.8828125,15.319823265075684,7.690429210662842,-0.8585205078125,0.474609375,-0.2857666015625
6.090,310,1578,1860,312,-13.0,36.0,45.0,-28.442380905151367,12.268065452575684,-16.357421875,-1.2708740234375,0.41162109375,0.1336669921875
6.111,310,1564,1853,312,-13.0,36.0,45.0,-28.442380905151367,12.268065452575684,-16.357421875,-1.5181884765625,0.3150634765625,0.248291015625
6.111,310,1541,1831,311,-13.0,37.0,46.0,-30.822751998901367,11.962889671325684,-21.850584030151367,-1.5181884765625,0.3150634765625,0.248291015625
6.120,310,1478,1773,311,-13.0,37.0,46.0,3.967284917831421,20.629880905151367,-16.11328125,-1.4398193359375,0.1697998046875,0.0653076171875
6.128,310,1431,1723,310,-13.0,37.0,46.0,3.967284917831421,20.629880905151367,-16.11328125,-1.33154296875,0.301025390625,-0.1033935546875
6.136,310,1382,1674,312,-13.0,37.0,46.0,17.51708984375,28.808591842651367,-7.446288585662842,-1.33154296875,0.301025390625,-0.1033935546875
6.150,310,1292,1567,312,-13.0,37.0,46.0,12.451170921325684,38.02490234375,-2.0751953125,-1.3072509765625,0.381591796875,-0.2073974609375
6.161,310,1231,1502,310,-13.0,37.0,46.0,12.451170921325684,38.02490234375,-2.0751953125,-1.2962646484375,0.337158203125,-0.160888671875
6.168,310,1155,1430,310,-13.0,37.0,46.0,7.324218273162842,40.466304779052734,-5.493163585662842,-1.2962646484375,0.337158203125,-0.160888671875
6.180,310,986,1323,310,-13.0,37.0,46.0,11.596678733825684,41.625972747802734,-12.634276390075684,-1.060546875,0.31494140625,-0.1124267578125
6.192,310,871,1245,312,-13.0,37.0,46.0,11.596678733825684,41.625972747802734,-12.634276390075684,-0.8240966796875,0.239501953125,-0.1646728515625
6.204,310,763,1196,312,-13.0,37.0,46.0,15.380858421325684,43.579097747802734,-18.06640625,-0.578857421875,0.1153564453125,-0.2723388671875
6.212,310,547,1122,310,-13.0,36.0,43.0,26.000974655151367,53.649898529052734,-30.395505905151367,-0.460205078125,0.06103515625,-0.399169921875
6.224,310,465,1104,310,-13.0,36.0,43.0,33.99658203125,53.344722747802734,-32.5927734375,-0.4534912109375,0.16162109375,-0.39013671875
6.226,309,407,1074,310,-13.0,36.0,43.0,33.99658203125,53.344722747802734,-32.5927734375,-0.4658203125,0.3017578125,-0.198974609375
6.264,308,372,938,310,-13.0,36.0,43.0,6.774901866912842,28.076169967651367,-28.808591842651367,-0.51904296875,0.33447265625,0.0322265625
6.267,309,367,871,310,-13.0,36.0,43.0,-15.502928733825684,15.930174827575684,-29.724119186401367,-0.664306640625,0.2969970703125,0.1558837890625
6.271,310,368,805,310,-13.0,36.0,43.0,-15.502928733825684,15.930174827575684,-29.724119186401367,-0.8199462890625,0.298095703125,0.1165771484375
6.271,310,364,756,310,-13.0,36.0,43.0,-16.4794921875,4.8828125,-24.230955123901367,-0.87060546875,0.2950439453125,-0.003662109375
6.287,308,363,778,310,-13.0,36.0,43.0,-7.568358898162842,3.295898199081421,-19.53125,-0.8262939453125,0.189208984375,-0.1219482421875
6.293,310,364,792,310,-13.0,36.0,43.0,-7.568358898162842,3.295898199081421,-19.53125,-0.748291015625,0.0364990234375,-0.205810546875
6.305,309,365,840,309,-13.0,37.0,46.0,0.54931640625,0.3662109076976776,-17.333984375,-0.686767578125,-0.0572509765625,-0.218017578125
6.312,309,365,889,310,-13.0,37.0,46.0,3.356933355331421,-5.187987804412842,-10.925292015075684,-0.6614990234375,-0.052001953125,-0.16650390625
6.316,310,361,946,308,-13.0,37.0,46.0,3.356933355331421,-5.187987804412842,-10.925292015075684,-0.6632080078125,0.0191650390625,-0.0845947265625
6.334,308,363,1055,310,-13.0,37.0,46.0,3.417968511581421,-20.446775436401367,8.48388671875,-0.664306640625,0.0863037109375,-0.004638671875
6.338,308,363,1117,310,-13.0,37.0,46.0,0.9155272841453552,-22.949216842651367,13.061522483825684,-0.6468505859375,0.1182861328125,0.033935546875
6.347,309,369,1196,310,-13.0,37.0,46.0,-0.9765624403953552,-20.874021530151367,15.197752952575684,-0.6025390625,0.1175537109375,0.0230712890625
6.360,309,377,1334,308,-13.0,37.0,46.0,-0.2441406100988388,-18.00537109375,17.578125,-0.528564453125,0.1005859375,-0.0059814453125
6.372,309,420,1432,311,-13.0,37.0,46.0,2.50244140625,-16.78466796875,20.996091842651367,-0.4432373046875,0.0928955078125,-0.0264892578125
6.376,310,543,1492,309,-13.0,37.0,46.0,3.967284917831421,-17.333984375,25.085447311401367,-0.3775634765625,0.105224609375,-0.0506591796875
6.396,310,716,1506,310,-13.0,37.0,46.0,2.38037109375,-19.4091796875,29.113767623901367,-0.40673828125,0.1168212890625,-0.127197265625
6.406,310,811,1564,310,-13.0,37.0,46.0,0.8544921278953552,-24.658201217651367,31.738279342651367,-0.5908203125,0.1541748046875,-0.2789306640625
6.442,310,877,1611,310,-15.0,37.0,52.0,0.4882812201976776,-35.5224609375,33.38623046875,-0.79052734375,0.2698974609375,-0.402099609375
6.442,310,1035,1719,311,-15.0,37.0,52.0,-8.11767578125,-49.377437591552734,35.2783203125,-0.7501220703125,0.41162109375,-0.349365234375
6.443,311,1115,1790,308,-15.0,37.0,52.0,-29.907224655151367,-61.035152435302734,35.09521484375,-0.5343017578125,0.4559326171875,-0.1207275390625
6.443,310,1182,1855,313,-15.0,37.0,52.0,-49.987789154052734,-66.34521484375,27.343748092651367,-0.5419921875,0.39013671875,0.1204833984375
6.450,309,1264,1959,312,-15.0,37.0,52.0,-49.011226654052734,-64.02587890625,13.854979515075684,-0.839599609375,0.3546142578125,0.2098388671875
6.460,310,1318,2010,311,-15.0,37.0,52.0,-30.761716842651367,-57.006832122802734,4.94384765625,-1.1556396484375,0.4306640625,0.175048828125
6.467,310,1352,2055,311,-15.0,37.0,52.0,-13.793944358825684,-49.926753997802734,3.540038824081421,-1.374267578125,0.52880859375,0.15087890625
6.480,310,1404,2116,312,-15.0,37.0,52.0,-7.019042491912842,-45.837398529052734,3.845214605331421,-1.492431640625,0.528076171875,0.16796875
6.488,310,1416,2151,311,-15.0,37.0,52.0,-4.69970703125,-42.480464935302734,3.051757574081421,-1.5576171875,0.441162109375,0.21142578125
6.507,309,1432,2176,312,-15.0,37.0,52.0,0.1831054538488388,-36.4990234375,3.356933355331421,-1.6590576171875,0.359619140625,0.2799072265625
6.524,310,1432,2207,311,-14.0,35.0,44.0,7.873534679412842,-27.832029342651367,5.0048828125,-1.8087158203125,0.2459716796875,0.2845458984375
6.524,310,1428,2212,311,-14.0,35.0,44.0,19.47021484375,-16.357421875,4.21142578125,-1.8773193359375,0.0447998046875,0.0721435546875
6.527,310,1429,2220,311,-14.0,35.0,44.0,34.912109375,-0.6103515625,3.906249761581421,-1.6160888671875,-0.0296630859375,-0.3629150390625
6.540,310,1431,2230,311,-14.0,35.0,44.0,41.076656341552734,15.136717796325684,9.6435546875,-1.180908203125,0.189453125,-0.6380615234375
6.548,310,1430,2231,312,-14.0,35.0,44.0,24.841306686401367,18.98193359375,11.230467796325684,-1.0850830078125,0.411865234375,-0.472900390625
6.567,310,1422,2230,312,-14.0,35.0,44.0,-3.234863042831421,11.352538108825684,2.01416015625,-1.307373046875,0.4207763671875,-0.0880126953125
6.570,310,1395,2218,312,-14.0,35.0,44.0,-19.6533203125,5.981444835662842,-6.286620616912842,-1.483642578125,0.3887939453125,0.179443359375
6.588,313,1369,2203,311,-14.0,35.0,44.0,-16.54052734375,8.4228515625,-6.530761241912842,-1.48193359375,0.4033203125,0.2186279296875
6.588,310,1342,2138,299,-14.0,35.0,44.0,-4.08935546875,15.747069358825684,-3.967284917831421,-1.3734130859375,0.392333984375,0.127197265625
6.600,310,1292,2122,310,-13.0,38.0,50.0,7.385253429412842,24.169919967651367,-3.967284917831421,-1.2777099609375,0.342529296875,0.00439453125
6.631,310,1245,2076,312,-13.0,38.0,50.0,13.793944358825684,30.578611373901367,-5.615233898162842,-1.2322998046875,0.306396484375,-0.090087890625
6.632,310,1192,2026,322,-13.0,38.0,50.0,14.831542015075684,34.72900390625,-6.530761241912842,-1.2071533203125,0.30322265625,-0.1322021484375
6.632,310,1050,1959,312,-13.0,38.0,50.0,11.962889671325684,37.53662109375,-7.080077648162842,-1.1568603515625,0.2855224609375,-0.1287841796875
6.638,310,953,1913,311,-13.0,38.0,50.0,8.60595703125,40.0390625,-9.27734375,-1.0701904296875,0.227783203125,-0.1021728515625
6.646,311,849,1869,310,-13.0,38.0,50.0,7.995604991912842,42.541500091552734,-13.305663108825684,-0.9591064453125,0.1578369140625,-0.0654296875
6.663,309,660,1792,311,-13.0,38.0,50.0,11.169432640075684,44.555660247802734,-18.24951171875,-0.7193603515625,0.13330078125,0.012451171875
6.672,310,554,1742,310,-13.0,38.0,50.0,14.770506858825684,45.532222747802734,-22.583005905151367,-0.7193603515625,0.13330078125,0.012451171875
6.676,310,468,1695,311,-13.0,38.0,50.0,15.808104515075684,45.654293060302734,-25.146482467651367,-0.6356201171875,0.1312255859375,0.031982421875
6.692,310,386,1593,310,-13.0,38.0,50.0,16.9677734375,46.020503997802734,-27.709959030151367,-0.6239013671875,0.0526123046875,-0.0582275390625
6.702,310,379,1498,310,-13.0,39.0,46.0,20.935056686401367,45.043941497802734,-31.005857467651367,-0.6239013671875,0.0526123046875,-0.0582275390625
6.709,310,379,1392,309,-13.0,39.0,46.0,25.573728561401367,40.161128997802734,-31.433103561401367,-0.685791015625,0.13134765625,-0.0999755859375
6.725,310,370,1239,310,-13.0,39.0,46.0,25.085447311401367,32.53173828125,-24.291990280151367,-0.724609375,0.487548828125,-0.214599609375
6.728,310,364,1159,310,-13.0,39.0,46.0,18.73779296875,24.536130905151367,-10.986327171325684,-0.724609375,0.487548828125,-0.214599609375
6.736,310,364,1133,308,-13.0,39.0,46.0,9.27734375,17.88330078125,-1.03759765625,-0.6641845703125,0.4967041015625,-0.2052001953125
6.750,308,364,1129,309,-13.0,39.0,46.0,-2.0751953125,12.573241233825684,-0.6103515625,-0.65576171875,0.1497802734375,-0.136474609375
6.758,310,364,1134,310,-13.0,39.0,46.0,-9.521484375,8.1787109375,-5.920409679412842,-0.65576171875,0.1497802734375,-0.136474609375
6.767,310,364,1151,308,-13.0,39.0,46.0,-7.324218273162842,5.371093273162842,-10.314940452575684,-0.6812744140625,0.0345458984375,-0.1065673828125
6.784,310,370,1188,309,-13.0,39.0,46.0,0.4882812201976776,3.173827886581421,-10.253905296325684,-0.6973876953125,0.1046142578125,-0.0970458984375
6.788,308,371,1219,310,-13.0,39.0,46.0,5.798339366912842,0.1831054538488388,-6.103515148162842,-0.6973876953125,0.1046142578125,-0.0970458984375
6.797,308,371,1239,310,-13.0,37.0,48.0,5.615233898162842,-3.601073980331421,-0.9155272841453552,-0.6865234375,0.164794921875,-0.083740234375
6.827,308,386,1294,310,-13.0,37.0,48.0,-0.7934569716453552,-9.521484375,5.493163585662842,-0.6275634765625,0.107666015625,-0.0322265625
6.828,310,410,1295,311,-13.0,37.0,48.0,-0.7934569716453552,-9.521484375,5.493163585662842,-0.5771484375,0.0745849609375,-0.036376953125
6.828,312,537,1281,306,-13.0,37.0,48.0,-2.01416015625,-10.192870140075684,8.4228515625,-0.5771484375,0.0745849609375,-0.036376953125
6.840,310,688,1206,311,-13.0,37.0,48.0,-3.723144292831421,-14.160155296325684,17.9443359375,-0.575439453125,0.107666015625,-0.1357421875
6.848,310,809,1215,310,-13.0,37.0,48.0,-3.723144292831421,-14.160155296325684,17.9443359375,-0.7252197265625,0.1673583984375,-0.225830078125
6.856,310,885,1258,310,-13.0,37.0,48.0,-4.8828125,-23.498533248901367,21.850584030151367,-0.7252197265625,0.1673583984375,-0.225830078125
6.870,310,1024,1352,311,-13.0,37.0,48.0,-3.051757574081421,-45.043941497802734,28.930662155151367,-0.78125,0.3228759765625,-0.3758544921875
6.878,310,1101,1424,311,-13.0,37.0,48.0,-3.051757574081421,-45.043941497802734,28.930662155151367,-0.5269775390625,0.3336181640625,-0.27490234375
6.886,310,1173,1499,311,-13.0,37.0,48.0,-21.179197311401367,-51.879878997802734,33.447265625,-0.5269775390625,0.3336181640625,-0.27490234375
6.930,310,1289,1608,310,-13.0,38.0,44.0,-69.2138671875,-53.588863372802734,25.939939498901367,-0.36767578125,0.2218017578125,0.130615234375
6.931,310,1348,1677,310,-13.0,38.0,44.0,-69.2138671875,-53.588863372802734,25.939939498901367,-0.637451171875,0.294921875,0.1715087890625
6.931,310,1393,1744,311,-13.0,38.0,44.0,-61.950679779052734,-48.828121185302734,16.7236328125,-0.637451171875,0.294921875,0.1715087890625
6.931,310,1468,1813,296,-13.0,38.0,44.0,-44.067378997802734,-47.180171966552734,9.46044921875,-1.0771484375,0.5203857421875,0.3785400390625
6.938,310,1506,1908,310,-13.0,38.0,44.0,-44.067378997802734,-47.180171966552734,9.46044921875,-1.2315673828125,0.4527587890625,0.531982421875
6.946,310,1547,1954,310,-13.0,38.0,44.0,-41.625972747802734,-43.334957122802734,4.0283203125,-1.2315673828125,0.4527587890625,0.531982421875
6.974,312,1611,1989,311,-13.0,38.0,44.0,-9.33837890625,-17.15087890625,-1.8920897245407104,-1.8115234375,0.2891845703125,0.3807373046875
6.981,312,1632,1989,311,-13.0,38.0,44.0,18.5546875,-0.30517578125,-1.4648436307907104,-2.246826171875,0.1005859375,-0.04150390625
6.989,310,1634,1979,310,-13.0,38.0,44.0,18.5546875,-0.30517578125,-1.4648436307907104,-2.372314453125,-0.009033203125,-0.5504150390625
6.990,298,1634,1953,311,-13.0,38.0,44.0,53.894039154052734,24.108884811401367,13.854979515075684,-1.8258056640625,0.159912109375,-0.901123046875
6.998,310,1621,1927,311,-15.0,36.0,47.0,36.0107421875,26.977537155151367,28.503416061401367,-1.1004638671875,0.4376220703125,-0.8203125
7.031,311,1615,1920,312,-15.0,36.0,47.0,36.0107421875,26.977537155151367,28.503416061401367,-0.822998046875,0.5391845703125,-0.3466796875
7.031,310,1615,1911,312,-15.0,36.0,47.0,-29.235837936401367,8.11767578125,5.065917491912842,-0.9443359375,0.48583984375,0.097900390625
7.031,308,1611,1908,312,-15.0,36.0,47.0,-35.94970703125,9.521484375,-13.671874046325684,-1.2635498046875,0.44873046875,0.269775390625
7.036,310,1591,1894,312,-15.0,36.0,47.0,-35.94970703125,9.521484375,-13.671874046325684,-1.5447998046875,0.3836669921875,0.2548828125
7.050,310,1545,1845,312,-15.0,36.0,47.0,-6.408690929412842,19.22607421875,-25.207517623901367,-1.5723876953125,0.2469482421875,0.1650390625
7.058,310,1513,1811,311,-15.0,36.0,47.0,9.3994140625,23.498533248901367,-20.935056686401367,-1.450927734375,0.14453125,0.0540771484375
7.066,308,1462,1759,312,-15.0,36.0,47.0,9.3994140625,23.498533248901367,-20.935056686401367,-1.37841796875,0.1717529296875,-0.0889892578125
7.080,310,1377,1662,311,-15.0,36.0,47.0,27.038572311401367,31.921384811401367,-7.568358898162842,-1.3570556640625,0.2900390625,-0.2303466796875
7.088,310,1309,1598,310,-15.0,36.0,47.0,22.888181686401367,35.21728515625,-1.8920897245407104,-1.3109130859375,0.383056640625,-0.2779541015625
7.096,310,1246,1543,310,-13.0,38.0,44.0,22.888181686401367,35.21728515625,-1.8920897245407104,-1.232177734375,0.396728515625,-0.2303466796875
7.134,309,1098,1422,310,-13.0,38.0,44.0,4.638671875,38.6962890625,-5.676269054412842,-1.1309814453125,0.3721923828125,-0.1678466796875
7.135,299,969,1336,310,-13.0,38.0,44.0,3.295898199081421,38.2080078125,-13.977049827575684,-0.9915771484375,0.3463134765625,-0.156982421875
7.135,310,858,1267,312,-13.0,38.0,44.0,4.39453125,38.14697265625,-22.521970748901367,-0.79052734375,0.2813720703125,-0.216552734375
7.142,310,632,1186,310,-13.0,38.0,44.0,7.873534679412842,41.687007904052734,-31.311033248901367,-0.5919189453125,0.1549072265625,-0.34814453125
7.148,309,521,1160,308,-13.0,38.0,44.0,17.88330078125,47.912593841552734,-38.75732421875,-0.5126953125,0.083984375,-0.466796875
7.156,310,433,1141,310,-13.0,38.0,44.0,26.062009811401367,47.424312591552734,-39.36767578125,-0.523193359375,0.1405029296875,-0.382080078125
7.170,308,355,1037,309,-13.0,38.0,44.0,16.54052734375,34.85107421875,-33.935546875,-0.5416259765625,0.2110595703125,-0.088134765625
7.180,308,346,917,308,-13.0,38.0,44.0,-6.835937023162842,18.798828125,-29.296873092651367,-0.5772705078125,0.2164306640625,0.19287109375
7.186,310,345,816,308,-13.0,38.0,44.0,-22.460935592651367,10.192870140075684,-26.550291061401367,-0.68212890625,0.21337890625,0.26708984375
7.200,308,339,742,309,-12.0,39.0,47.0,-21.423337936401367,8.30078125,-19.47021484375,-0.78564453125,0.28173828125,0.1512451171875
7.216,308,340,730,310,-12.0,39.0,47.0,-14.709471702575684,5.920409679412842,-9.27734375,-0.7735595703125,0.331298828125,0.0322265625
7.236,309,339,758,310,-12.0,39.0,47.0,-9.21630859375,4.0283203125,-8.7890625,-0.6600341796875,0.063720703125,-0.1131591796875
7.238,308,322,780,309,-12.0,39.0,47.0,-2.563476324081421,5.676269054412842,-11.291502952575684,-0.657958984375,-0.028564453125,-0.15283203125
7.246,309,322,813,310,-12.0,39.0,47.0,4.638671875,2.807616949081421,-7.263183116912842,-0.65576171875,-0.018310546875,-0.1302490234375
7.260,308,329,873,310,-12.0,39.0,47.0,7.568358898162842,-3.784179449081421,1.0986328125,-0.632080078125,0.0447998046875,-0.07373046875
7.284,310,329,938,310,-12.0,39.0,47.0,6.225585460662842,-9.70458984375,8.544921875,-0.6103515625,0.0963134765625,-0.025390625
7.284,310,341,989,310,-12.0,39.0,47.0,2.868652105331421,-11.779784202575684,12.817381858825684,-0.60205078125,0.1123046875,-0.0072021484375
7.307,314,354,1097,308,-12.0,39.0,47.0,-0.4882812201976776,-10.681151390075684,15.258788108825684,-0.580322265625,0.105712890625,-0.0191650390625
7.308,296,377,1184,310,-13.0,39.0,45.0,-1.8310545682907104,-9.1552734375,18.06640625,-0.540771484375,0.1044921875,-0.0433349609375
7.308,310,415,1170,310,-13.0,39.0,45.0,-0.8544921278953552,-9.8876953125,22.399900436401367,-0.495361328125,0.1236572265625,-0.065673828125
7.320,310,712,1160,311,-13.0,39.0,45.0,1.03759765625,-14.282225608825684,27.038572311401367,-0.5086669921875,0.1546630859375,-0.09423828125
7.347,310,823,1209,310,-13.0,39.0,45.0,3.295898199081421,-22.827146530151367,29.479978561401367,-0.6553955078125,0.1959228515625,-0.1734619140625
7.348,310,890,1267,311,-13.0,39.0,45.0,7.995604991912842,-33.99658203125,28.442380905151367,-0.8729248046875,0.26171875,-0.32373046875
7.350,309,1022,1406,310,-13.0,39.0,45.0,9.8876953125,-44.616695404052734,27.343748092651367,-0.9471435546875,0.3197021484375,-0.44091796875
7.358,311,1078,1502,310,-13.0,39.0,45.0,-5.554198741912842,-53.833003997802734,30.029294967651367,-0.74853515625,0.3402099609375,-0.36376953125
7.366,310,1145,1573,310,-13.0,39.0,45.0,-37.29248046875,-61.035152435302734,33.38623046875,-0.4715576171875,0.312255859375,-0.098388671875
7.383,311,1251,1704,310,-13.0,39.0,45.0,-60.913082122802734,-63.171382904052734,28.869626998901367,-0.425048828125,0.2264404296875,0.1263427734375
7.388,310,1297,1775,311,-13.0,39.0,45.0,-60.607906341552734,-60.791011810302734,17.51708984375,-0.6011962890625,0.1993408203125,0.192626953125
7.396,310,1339,1837,311,-12.0,35.0,45.0,-45.104976654052734,-59.326168060302734,10.925292015075684,-0.8094482421875,0.3316650390625,0.2047119140625
7.410,311,1415,1929,312,-12.0,35.0,45.0,-27.709959030151367,-61.889644622802734,11.230467796325684,-0.9801025390625,0.5047607421875,0.274169921875
7.420,310,1456,1966,310,-12.0,35.0,45.0,-14.831542015075684,-65.49072265625,10.559081077575684,-1.1346435546875,0.594482421875,0.388427734375
7.443,310,1498,2005,312,-12.0,35.0,45.0,-6.713866710662842,-62.805171966552734,6.164550304412842,-1.35498046875,0.655517578125,0.409423828125
7.443,310,1499,2034,312,-12.0,35.0,45.0,4.638671875,-50.109859466552734,3.356933355331421,-1.973876953125,0.4141845703125,0.112548828125
7.449,310,1526,2045,311,-12.0,35.0,45.0,22.766111373901367,-31.921384811401367,2.01416015625,-1.973876953125,0.4141845703125,0.112548828125
7.460,312,1523,2030,312,-12.0,35.0,45.0,40.771480560302734,-16.90673828125,-4.69970703125,-2.311767578125,-0.0003662109375,-0.0452880859375
7.470,310,1518,2018,311,-12.0,35.0,45.0,49.987789154052734,-4.69970703125,-8.23974609375,-1.418701171875,0.0855712890625,-0.6025390625
7.483,310,1511,2020,312,-12.0,35.0,45.0,50.231929779052734,13.122557640075684,3.784179449081421,-1.418701171875,0.0855712890625,-0.6025390625
7.486,310,1523,2018,310,-12.0,35.0,45.0,37.65869140625,27.099607467651367,15.380858421325684,-0.9283447265625,0.4578857421875,-0.583740234375
7.500,310,1526,1997,310,-15.0,35.0,42.0,3.051757574081421,25.451658248901367,6.408690929412842,-1.3280029296875,0.37890625,0.1898193359375
7.508,310,1514,1989,311,-15.0,35.0,42.0,-35.0341796875,18.85986328125,-10.375975608825684,-1.3280029296875,0.37890625,0.1898193359375
7.524,311,1490,1973,311,-15.0,35.0,42.0,-45.288082122802734,16.29638671875,-15.991209983825684,-1.63720703125,0.34912109375,0.3935546875
7.548,310,1428,1929,311,-15.0,35.0,42.0,-25.817869186401367,19.34814453125,-13.488768577575684,-1.5,0.291259765625,0.1259765625
7.549,297,1348,1840,311,-15.0,35.0,42.0,3.051757574081421,27.954099655151367,-9.765625,-1.5,0.291259765625,0.1259765625
7.549,310,1334,1833,312,-15.0,35.0,42.0,22.521970748901367,36.2548828125,-5.615233898162842,-1.3358154296875,0.3740234375,-0.0721435546875
7.560,311,1243,1744,310,-15.0,35.0,42.0,26.733396530151367,41.381832122802734,-3.601073980331421,-1.185546875,0.37841796875,-0.1715087890625
7.573,310,1183,1683,311,-15.0,35.0,42.0,20.385740280151367,45.104976654052734,-5.371093273162842,-1.15185546875,0.316162109375,-0.1334228515625
7.577,310,1104,1615,310,-15.0,35.0,42.0,12.451170921325684,47.363277435302734,-8.48388671875,-1.15185546875,0.316162109375,-0.1334228515625
7.590,308,922,1464,310,-13.0,39.0,45.0,11.779784202575684,49.133296966552734,-14.709471702575684,-0.9327392578125,0.1663818359375,-0.14453125
7.598,310,813,1369,311,-13.0,39.0,45.0,11.779784202575684,49.133296966552734,-14.709471702575684,-0.6898193359375,0.0350341796875,-0.245361328125
7.607,310,694,1311,310,-13.0,39.0,45.0,17.4560546875,53.405757904052734,-19.04296875,-0.6898193359375,0.0350341796875,-0.245361328125
7.626,308,533,1266,310,-13.0,39.0,45.0,33.38623046875,63.293453216552734,-27.832029342651367,-0.4423828125,-0.0084228515625,-0.3731689453125
7.651,310,484,1229,310,-13.0,39.0,45.0,33.38623046875,63.293453216552734,-27.832029342651367,-0.4345703125,0.1468505859375,-0.1661376953125
7.654,296,408,1160,298,-13.0,39.0,45.0,29.113767623901367,54.016109466552734,-26.184080123901367,-0.4345703125,0.1468505859375,-0.1661376953125
7.654,296,349,1064,310,-13.0,39.0,45.0,-4.08935546875,22.766111373901367,-24.536130905151367,-0.5972900390625,0.338134765625,0.1405029296875
7.658,310,354,984,310,-13.0,39.0,45.0,-4.08935546875,22.766111373901367,-24.536130905151367,-0.7000732421875,0.388916015625,0.1019287109375
7.666,309,349,923,310,-13.0,39.0,45.0,-13.061522483825684,15.197752952575684,-18.24951171875,-0.7000732421875,0.388916015625,0.1019287109375
7.687,310,338,858,310,-13.0,39.0,45.0,-10.375975608825684,9.1552734375,-0.6713866591453552,-0.7520751953125,0.4024658203125,-0.06103515625
7.690,294,337,832,306,-13.0,39.0,45.0,-10.375975608825684,9.1552734375,-0.6713866591453552,-0.758056640625,0.239013671875,-0.15087890625
7.696,309,338,835,309,-14.0,40.0,41.0,-0.4272460639476776,7.568358898162842,-3.540038824081421,-0.758056640625,0.239013671875,-0.15087890625
7.710,310,340,873,310,-14.0,40.0,41.0,16.11328125,1.7089842557907104,-13.305663108825684,-0.8045654296875,-0.03173828125,-0.2802734375
7.718,310,343,913,310,-14.0,40.0,41.0,15.441893577575684,-4.21142578125,-6.164550304412842,-0.7738037109375,-0.0308837890625,-0.2550048828125
7.726,310,355,959,306,-14.0,40.0,41.0,15.441893577575684,-4.21142578125,-6.164550304412842,-0.7259521484375,-0.005615234375,-0.201171875
7.758,309,364,1085,310,-14.0,40.0,41.0,19.8974609375,-14.587401390075684,11.840819358825684,-0.6883544921875,0.014892578125,-0.1956787109375
7.758,310,372,1142,310,-14.0,40.0,41.0,27.526853561401367,-18.12744140625,17.39501953125,-0.6580810546875,0.0264892578125,-0.2354736328125
7.758,309,384,1228,308,-14.0,40.0,41.0,27.526853561401367,-18.12744140625,17.39501953125,-0.6424560546875,0.04541015625,-0.2750244140625
7.770,310,493,1381,310,-14.0,40.0,41.0,31.921384811401367,-31.677244186401367,29.418943405151367,-0.673828125,0.1153564453125,-0.289794921875
7.778,310,582,1422,310,-14.0,40.0,41.0,27.709959030151367,-42.785640716552734,36.7431640625,-0.677001953125,0.2447509765625,-0.2572021484375
7.786,309,649,1447,310,-14.0,40.0,41.0,27.709959030151367,-42.785640716552734,36.7431640625,-0.6015625,0.4000244140625,-0.176513671875
7.800,309,784,1509,310,-14.0,37.0,45.0,-7.873534679412842,-59.143062591552734,35.5224609375,-0.5645751953125,0.4569091796875,-0.1640625
7.808,310,875,1557,310,-14.0,37.0,45.0,-27.160642623901367,-57.312007904052734,18.310546875,-0.62353515625,0.345947265625,-0.3101806640625
7.817,310,966,1617,312,-14.0,37.0,45.0,-27.160642623901367,-57.312007904052734,18.310546875,-0.6904296875,0.31787109375,-0.4149169921875
7.830,310,1125,1727,310,-14.0,37.0,45.0,-56.640621185302734,-47.729488372802734,3.784179449081421,-0.7391357421875,0.48876953125,-0.2625732421875
7.849,310,1194,1806,310,-14.0,37.0,45.0,-74.951171875,-46.691890716552734,8.9111328125,-0.84814453125,0.593505859375,0.0765380859375
7.850,309,1243,1886,312,-14.0,37.0,45.0,-74.951171875,-46.691890716552734,8.9111328125,-1.0135498046875,0.5184326171875,0.3779296875
7.864,310,1308,1980,308,-14.0,37.0,45.0,-76.84326171875,-39.73388671875,1.5869139432907104,-1.1253662109375,0.3643798828125,0.5367431640625
7.869,310,1351,2037,312,-14.0,37.0,45.0,-58.044429779052734,-38.39111328125,-3.112792730331421,-1.10595703125,0.195556640625,0.619873046875
7.877,309,1371,2070,311,-14.0,37.0,45.0,-32.40966796875,-41.931148529052734,-6.103515148162842,-1.0010986328125,0.0672607421875,0.6181640625
7.885,310,1386,2107,310,-14.0,37.0,45.0,-32.40966796875,-41.931148529052734,-6.103515148162842,-0.9246826171875,0.0438232421875,0.482177734375
7.899,309,1413,2142,310,-12.0,34.0,45.0,15.869139671325684,-35.64453125,-9.09423828125,-0.9571533203125,0.112060546875,0.3138427734375
7.912,310,1424,2158,312,-12.0,34.0,45.0,23.925779342651367,-24.414060592651367,-6.652831554412842,-1.1151123046875,0.15478515625,0.1864013671875
7.915,310,1434,2167,311,-12.0,34.0,45.0,23.925779342651367,-24.414060592651367,-6.652831554412842,-1.3382568359375,0.1475830078125,0.0341796875
7.933,310,1464,2176,311,-12.0,34.0,45.0,25.817869186401367,0.0,2.25830078125,-1.5126953125,0.1934814453125,-0.127197265625
7.953,310,1474,2168,310,-12.0,34.0,45.0,24.047849655151367,5.981444835662842,9.58251953125,-1.5797119140625,0.315673828125,-0.2093505859375
7.954,311,1477,2160,311,-12.0,34.0,45.0,17.2119140625,8.30078125,14.099120140075684,-1.550537109375,0.4390869140625,-0.2261962890625
7.961,311,1471,2142,310,-12.0,34.0,45.0,10.375975608825684,12.390135765075684,12.817381858825684,-1.3865966796875,0.4580078125,-0.259521484375
7.970,310,1463,2137,312,-12.0,34.0,45.0,6.713866710662842,20.812986373901367,6.225585460662842,-1.1302490234375,0.4107666015625,-0.279296875
7.975,310,1472,2135,312,-12.0,34.0,45.0,3.112792730331421,28.869626998901367,-3.967284917831421,-0.99951171875,0.3841552734375,-0.1864013671875
7.989,308,1478,2118,311,-13.0,36.0,45.0,-2.44140625,32.40966796875,-15.136717796325684,-1.104736328125,0.335693359375,-0.0062255859375
7.999,311,1472,2098,310,-13.0,36.0,45.0,-5.859374523162842,33.26416015625,-21.362302780151367,-1.3013916015625,0.26416015625,0.1402587890625
8.005,310,1469,2068,312,-13.0,36.0,45.0,-4.150390625,34.5458984375,-18.6767578125,-1.3936767578125,0.2296142578125,0.1749267578125
8.025,310,1444,2003,308,-13.0,36.0,45.0,1.220703125,38.14697265625,-10.925292015075684,-1.3780517578125,0.2548828125,0.1048583984375
8.037,309,1416,1954,314,-13.0,36.0,45.0,7.629394054412842,44.006343841552734,-4.33349609375,-1.3602294921875,0.3104248046875,-0.0162353515625
8.037,298,1387,1895,310,-13.0,36.0,45.0,12.268065452575684,50.476070404052734,-1.220703125,-1.3759765625,0.3426513671875,-0.1168212890625
8.058,310,1282,1775,311,-13.0,36.0,45.0,13.732909202575684,55.603023529052734,-1.220703125,-1.3917236328125,0.3316650390625,-0.148193359375
8.058,297,1199,1704,310,-13.0,36.0,45.0,13.366698265075684,57.922359466552734,-3.356933355331421,-1.356201171875,0.2745361328125,-0.1094970703125
8.065,310,1092,1652,311,-13.0,36.0,45.0,13.916014671325684,56.762691497802734,-7.019042491912842,-1.2354736328125,0.1734619140625,-0.0081787109375
8.079,310,835,1573,310,-13.0,36.0,45.0,17.4560546875,53.283687591552734,-12.023924827575684,-1.049560546875,0.0970458984375,0.0867919921875
8.087,310,693,1504,312,-15.0,37.0,44.0,26.062009811401367,50.659175872802734,-17.02880859375,-0.8634033203125,0.0986328125,0.0919189453125
8.097,310,549,1463,310,-15.0,37.0,44.0,35.33935546875,49.560543060302734,-20.446775436401367,-0.7215576171875,0.1424560546875,0.036376953125
8.109,309,406,1311,310,-15.0,37.0,44.0,38.75732421875,48.645015716552734,-23.864744186401367,-0.642578125,0.1556396484375,-0.0701904296875
8.117,309,394,1122,310,-15.0,37.0,44.0,41.992183685302734,49.621578216552734,-29.296873092651367,-0.6541748046875,0.14208984375,-0.231201171875
8.125,310,395,889,308,-15.0,37.0,44.0,48.400875091552734,49.682613372802734,-30.761716842651367,-0.7620849609375,0.228271484375,-0.3775634765625
8.160,310,387,617,309,-15.0,37.0,44.0,50.415035247802734,42.236324310302734,-22.033689498901367,-0.8714599609375,0.419189453125,-0.4964599609375
8.160,310,371,482,308,-15.0,37.0,44.0,45.837398529052734,29.235837936401367,-11.352538108825684,-0.86865234375,0.50537109375,-0.58837890625
8.160,310,367,428,308,-15.0,37.0,44.0,41.198726654052734,19.47021484375,-11.352538108825684,-0.76806640625,0.306396484375,-0.592529296875
8.169,309,379,419,310,-15.0,37.0,44.0,41.259761810302734,16.90673828125,-23.864744186401367,-0.646728515625,-0.009765625,-0.4569091796875
8.186,309,377,414,308,-15.0,37.0,44.0,52.673336029052734,21.728513717651367,-39.9169921875,-0.601806640625,-0.1793212890625,-0.260498046875
8.186,297,377,410,309,-18.0,38.0,46.0,78.9794921875,30.639646530151367,-47.058101654052734,-0.6390380859375,-0.18994140625,-0.1920166015625
8.201,310,373,402,310,-18.0,38.0,46.0,109.68016815185547,39.24560546875,-40.649410247802734,-0.6805419921875,-0.0633544921875,-0.2802734375
8.207,309,374,414,310,-18.0,38.0,46.0,132.87353515625,46.081539154052734,-26.184080123901367,-0.6929931640625,0.1405029296875,-0.37890625
8.215,310,373,414,308,-18.0,38.0,46.0,139.892578125,48.400875091552734,-10.375975608825684,-0.66015625,0.2999267578125,-0.39990234375
8.229,308,372,408,309,-18.0,38.0,46.0,127.31932830810547,45.837398529052734,2.685546636581421,-0.6048583984375,0.3707275390625,-0.3470458984375
8.238,310,371,410,310,-18.0,38.0,46.0,102.23387908935547,40.466304779052734,11.413573265075684,-0.5496826171875,0.3763427734375,-0.24560546875
8.259,309,367,409,308,-18.0,38.0,46.0,77.1484375,33.38623046875,15.563963890075684,-0.4949951171875,0.3641357421875,-0.11572265625
8.259,296,367,391,310,-18.0,38.0,46.0,58.654781341552734,24.353025436401367,15.441893577575684,-0.3880615234375,0.388427734375,0.2435302734375
8.268,310,354,423,310,-18.0,38.0,46.0,44.128414154052734,12.634276390075684,12.145995140075684,-0.3880615234375,0.388427734375,0.2435302734375
8.276,310,342,508,308,-18.0,38.0,46.0,26.062009811401367,-1.4648436307907104,7.690429210662842,-0.349609375,0.318603515625,0.427490234375
8.290,309,364,895,308,-16.0,39.0,44.0,1.7089842557907104,-17.578125,1.5869139432907104,-0.199462890625,-0.29638671875,0.667236328125
8.298,309,483,938,310,-16.0,39.0,44.0,-14.587401390075684,-33.63037109375,-8.85009765625,-0.199462890625,-0.29638671875,0.667236328125
8.306,309,689,927,310,-16.0,39.0,44.0,-3.967284917831421,-38.0859375,-12.023924827575684,-0.1436767578125,-0.4556884765625,0.5819091796875
8.320,310,830,1000,309,-16.0,39.0,44.0,18.37158203125,-26.306150436401367,8.23974609375,-1.155029296875,-0.080322265625,-0.989013671875
8.328,309,888,1091,310,-16.0,39.0,44.0,27.343748092651367,-18.06640625,45.471187591552734,-1.6973876953125,0.479736328125,-1.338134765625
8.341,310,966,1186,310,-16.0,39.0,44.0,15.747069358825684,-31.799314498901367,78.125,-1.6973876953125,0.479736328125,-1.338134765625
8.364,309,1069,1346,311,-16.0,39.0,44.0,-83.86229705810547,-67.19970703125,59.997554779052734,-1.0372314453125,0.403076171875,-0.1234130859375
8.364,312,1118,1403,312,-16.0,39.0,44.0,-83.86229705810547,-67.19970703125,59.997554779052734,-1.0289306640625,-0.0093994140625,0.18359375
8.366,310,1166,1422,311,-16.0,39.0,44.0,-107.66600799560547,-55.908199310302734,21.118162155151367,-1.0289306640625,-0.0093994140625,0.18359375
8.380,310,1228,1492,310,-16.0,39.0,44.0,-6.164550304412842,-21.728513717651367,4.0283203125,-1.5811767578125,0.3609619140625,-0.4019775390625
8.397,310,1246,1538,312,-20.0,35.0,46.0,-6.164550304412842,-21.728513717651367,4.0283203125,-1.6195068359375,0.802978515625,-0.62939453125
8.397,310,1269,1567,311,-20.0,35.0,46.0,22.033689498901367,-17.7001953125,20.690916061401367,-1.6195068359375,0.802978515625,-0.62939453125
8.410,310,1297,1619,312,-20.0,35.0,46.0,-19.22607421875,-26.916501998901367,8.23974609375,-1.410400390625,0.6199951171875,-0.1768798828125
8.418,310,1306,1637,310,-20.0,35.0,46.0,-19.22607421875,-26.916501998901367,8.23974609375,-1.4102783203125,0.3792724609375,0.004638671875
8.426,308,1309,1649,312,-20.0,35.0,46.0,-31.005857467651367,-21.118162155151367,-8.97216796875,-1.4102783203125,0.3792724609375,0.004638671875
8.443,310,1311,1676,312,-20.0,35.0,46.0,-2.990722417831421,1.15966796875,-23.681638717651367,-1.251220703125,0.146728515625,-0.0980224609375
8.474,311,1311,1683,311,-20.0,35.0,46.0,-2.990722417831421,1.15966796875,-23.681638717651367,-1.162841796875,0.1612548828125,-0.185546875
8.475,310,1306,1689,312,-20.0,35.0,46.0,10.437010765075684,7.751464366912842,-23.254392623901367,-1.162841796875,0.1612548828125,-0.185546875
8.475,311,1292,1683,311,-20.0,35.0,46.0,3.723144292831421,7.995604991912842,-19.1650390625,-1.4166259765625,0.1334228515625,-0.16748046875
8.478,314,1266,1677,310,-20.0,35.0,46.0,-1.8310545682907104,9.33837890625,-13.732909202575684,-1.3961181640625,0.0484619140625,-0.1524658203125
8.486,310,1248,1664,312,-18.0,39.0,40.0,-1.8310545682907104,9.33837890625,-13.732909202575684,-1.306640625,0.062744140625,-0.2041015625
8.503,311,1189,1613,312,-18.0,39.0,40.0,8.544921875,15.747069358825684,-2.25830078125,-1.22216796875,0.1654052734375,-0.267578125
8.508,310,1145,1580,312,-18.0,39.0,40.0,11.230467796325684,18.85986328125,-1.6479490995407104,-1.1571044921875,0.2529296875,-0.2896728515625
8.517,310,1094,1536,311,-18.0,39.0,40.0,11.230467796325684,18.85986328125,-1.6479490995407104,-1.0977783203125,0.27587890625,-0.2730712890625
8.532,310,986,1474,311,-18.0,39.0,40.0,6.652831554412842,23.803709030151367,-8.9111328125,-1.0240478515625,0.2501220703125,-0.242919921875
8.538,310,910,1428,312,-18.0,39.0,40.0,4.39453125,25.329587936401367,-12.268065452575684,-0.9444580078125,0.1947021484375,-0.2213134765625
8.546,310,811,1380,310,-18.0,39.0,40.0,4.39453125,25.329587936401367,-12.268065452575684,-0.875732421875,0.121337890625,-0.207763671875
8.563,309,654,1325,310,-18.0,39.0,40.0,6.591796398162842,29.052732467651367,-15.380858421325684,-0.79296875,0.053466796875,-0.1612548828125
8.570,310,601,1313,310,-18.0,39.0,40.0,9.3994140625,30.029294967651367,-16.2353515625,-0.69921875,0.017333984375,-0.060546875
8.576,310,551,1294,310,-18.0,39.0,40.0,9.3994140625,30.029294967651367,-16.2353515625,-0.6552734375,0.0047607421875,0.0550537109375
