time,compression0,compression1,compression2,compression3,magn_x,magn_y,magn_z,gyro_x,gyro_y,gyro_z,accel_x,accel_y,accel_z
0.017,310,363,405,310,-16.0,42.0,40.0,0.0,0.7324218153953552,-0.0610351525247097,-0.8232421875,0.439453125,-0.324951171875
0.017,296,363,402,310,-16.0,42.0,40.0,0.0,0.7324218153953552,-0.0610351525247097,-0.8218994140625,0.43798828125,-0.32080078125
0.113,310,363,402,309,-16.0,42.0,40.0,0.30517578125,0.4882812201976776,0.1831054538488388,-0.8214111328125,0.439453125,-0.3192138671875
0.113,312,362,402,309,-16.0,42.0,40.0,0.30517578125,0.54931640625,0.2441406100988388,-0.8221435546875,0.4425048828125,-0.3221435546875
0.113,310,364,387,294,-18.0,42.0,40.0,0.30517578125,0.54931640625,0.2441406100988388,-0.8245849609375,0.4483642578125,-0.3291015625
0.113,310,344,386,310,-18.0,42.0,40.0,0.1220703050494194,0.7324218153953552,0.1220703050494194,-0.8265380859375,0.4534912109375,-0.336181640625
0.113,309,363,386,296,-18.0,42.0,40.0,0.1831054538488388,0.6103515625,-0.1220703050494194,-0.826416015625,0.4500732421875,-0.33837890625
0.113,307,362,402,310,-18.0,42.0,40.0,0.1831054538488388,0.6103515625,-0.1220703050494194,-0.82470703125,0.4427490234375,-0.3323974609375
0.113,310,363,402,311,-18.0,42.0,40.0,0.0,0.4272460639476776,-0.1831054538488388,-0.8233642578125,0.439208984375,-0.32421875
0.113,310,363,402,310,-18.0,42.0,40.0,0.0,0.4272460639476776,0.0,-0.82568359375,0.439453125,-0.322021484375
0.113,308,363,402,310,-18.0,42.0,40.0,0.0,0.4272460639476776,0.0,-0.8297119140625,0.4443359375,-0.324951171875
0.113,310,362,402,310,-18.0,42.0,40.0,0.2441406100988388,0.3662109076976776,0.30517578125,-0.83056640625,0.44921875,-0.328125
0.113,310,357,402,310,-18.0,42.0,40.0,0.3662109076976776,0.4882812201976776,0.3662109076976776,-0.8287353515625,0.4483642578125,-0.329345703125
0.113,308,357,401,310,-18.0,42.0,40.0,0.4272460639476776,0.6713866591453552,0.4272460639476776,-0.8260498046875,0.44384765625,-0.328125
0.149,308,360,402,309,-16.0,42.0,35.0,0.4272460639476776,0.9155272841453552,0.54931640625,-0.822265625,0.44140625,-0.32373046875
0.150,309,361,401,297,-16.0,42.0,35.0,0.2441406100988388,1.15966796875,0.6103515625,-0.8187255859375,0.442138671875,-0.3201904296875
0.150,309,343,385,309,-16.0,42.0,35.0,0.1831054538488388,1.220703125,0.6103515625,-0.8182373046875,0.4447021484375,-0.3216552734375
0.150,310,344,400,308,-16.0,42.0,35.0,0.1220703050494194,1.220703125,0.4882812201976776,-0.8209228515625,0.448486328125,-0.3272705078125
0.154,311,359,402,310,-16.0,42.0,35.0,0.0,1.220703125,0.3662109076976776,-0.82421875,0.4500732421875,-0.3328857421875
0.163,311,357,402,310,-16.0,42.0,35.0,0.0,1.0986328125,0.2441406100988388,-0.82568359375,0.4486083984375,-0.3338623046875
0.176,308,361,401,310,-16.0,42.0,35.0,0.0,0.7934569716453552,0.0610351525247097,-0.8243408203125,0.447265625,-0.331298828125
0.186,309,360,402,308,-16.0,42.0,35.0,0.0610351525247097,0.4882812201976776,-0.1831054538488388,-0.822998046875,0.447509765625,-0.330322265625
0.192,310,359,402,310,-16.0,42.0,35.0,0.1831054538488388,0.0610351525247097,-0.4882812201976776,-0.8231201171875,0.448974609375,-0.3321533203125
0.206,308,361,401,309,-16.0,42.0,35.0,0.30517578125,-0.3662109076976776,-0.6713866591453552,-0.823486328125,0.4490966796875,-0.3343505859375
0.237,310,359,402,310,-18.0,43.0,36.0,0.30517578125,-0.6713866591453552,-0.7934569716453552,-0.8240966796875,0.4464111328125,-0.334716796875
0.247,310,361,402,310,-18.0,43.0,36.0,0.0610351525247097,-0.7324218153953552,-0.7934569716453552,-0.824951171875,0.44287109375,-0.3330078125
0.248,297,345,402,310,-18.0,43.0,36.0,-0.1220703050494194,-0.7324218153953552,-0.6713866591453552,-0.824951171875,0.4398193359375,-0.3284912109375
0.248,310,361,402,309,-18.0,43.0,36.0,-0.2441406100988388,-0.6713866591453552,-0.4882812201976776,-0.824462890625,0.4373779296875,-0.323974609375
0.252,310,359,402,310,-18.0,43.0,36.0,-0.2441406100988388,-0.6713866591453552,-0.1220703050494194,-0.8232421875,0.437744140625,-0.322265625
0.266,308,360,402,310,-18.0,43.0,36.0,-0.1220703050494194,-0.6103515625,0.1831054538488388,-0.8218994140625,0.4404296875,-0.323486328125
0.274,309,360,402,312,-18.0,43.0,36.0,0.0,-0.6103515625,0.3662109076976776,-0.8226318359375,0.4449462890625,-0.3275146484375
0.287,309,359,402,310,-18.0,43.0,36.0,0.0,-0.54931640625,0.4882812201976776,-0.8245849609375,0.449951171875,-0.3311767578125
0.296,310,359,402,310,-18.0,43.0,36.0,-0.1220703050494194,-0.4882812201976776,0.4882812201976776,-0.825927734375,0.451171875,-0.331298828125
0.305,308,357,402,308,-18.0,43.0,36.0,-0.2441406100988388,-0.30517578125,0.4272460639476776,-0.8277587890625,0.4482421875,-0.3291015625
0.312,310,357,402,310,-19.0,44.0,44.0,-0.1831054538488388,-0.1220703050494194,0.4882812201976776,-0.8287353515625,0.443359375,-0.325927734375
0.326,310,357,402,308,-19.0,44.0,44.0,0.0610351525247097,-0.1220703050494194,0.6713866591453552,-0.82763671875,0.439697265625,-0.3223876953125
0.357,308,356,402,309,-19.0,44.0,44.0,0.30517578125,-0.1831054538488388,0.9155272841453552,-0.82666015625,0.4407958984375,-0.3216552734375
0.357,310,342,402,308,-19.0,44.0,44.0,0.4272460639476776,-0.1220703050494194,1.0986328125,-0.82568359375,0.4454345703125,-0.3238525390625
0.357,308,356,402,296,-19.0,44.0,44.0,0.4272460639476776,0.0,1.15966796875,-0.8240966796875,0.4486083984375,-0.326904296875
0.364,310,356,402,309,-19.0,44.0,44.0,0.3662109076976776,0.1831054538488388,1.15966796875,-0.8232421875,0.449462890625,-0.330322265625
0.373,308,356,402,310,-19.0,44.0,44.0,0.1220703050494194,0.3662109076976776,1.0986328125,-0.82373046875,0.4500732421875,-0.33251953125
0.389,310,354,401,309,-19.0,44.0,44.0,0.0,0.4882812201976776,1.15966796875,-0.8260498046875,0.449951171875,-0.3333740234375
0.395,309,353,401,310,-19.0,44.0,44.0,0.0610351525247097,0.4272460639476776,1.220703125,-0.828125,0.4481201171875,-0.3331298828125
0.403,310,353,402,309,-19.0,44.0,44.0,0.2441406100988388,0.30517578125,1.4038084745407104,-0.830810546875,0.446044921875,-0.3321533203125
0.416,310,353,399,308,-18.0,44.0,37.0,0.4882812201976776,0.1220703050494194,1.7089842557907104,-0.8358154296875,0.4471435546875,-0.331298828125
0.424,310,353,400,309,-18.0,44.0,37.0,0.7324218153953552,0.0,2.01416015625,-0.8358154296875,0.4471435546875,-0.331298828125
0.438,308,349,399,310,-18.0,44.0,37.0,0.8544921278953552,-0.1220703050494194,2.197265625,-0.8345947265625,0.449951171875,-0.3299560546875
0.460,308,345,396,310,-18.0,44.0,37.0,1.0986328125,-0.3662109076976776,2.13623046875,-0.828125,0.45361328125,-0.330322265625
0.461,308,336,384,310,-18.0,44.0,37.0,1.4038084745407104,-0.54931640625,1.9531248807907104,-0.828125,0.45361328125,-0.330322265625
0.462,310,343,399,311,-18.0,44.0,37.0,1.7700194120407104,-0.7934569716453552,1.5869139432907104,-0.8255615234375,0.4539794921875,-0.3319091796875
0.476,310,343,394,310,-18.0,44.0,37.0,1.8920897245407104,-0.9765624403953552,1.4038084745407104,-0.8182373046875,0.44921875,-0.32958984375
0.484,310,343,395,310,-18.0,44.0,37.0,1.9531248807907104,-1.0986328125,1.3427733182907104,-0.8182373046875,0.44921875,-0.32958984375
0.494,308,342,394,309,-18.0,44.0,37.0,2.0751953125,-1.15966796875,1.3427733182907104,-0.816162109375,0.443359375,-0.3262939453125
0.507,310,342,394,308,-18.0,44.0,36.0,2.38037109375,-1.0986328125,1.3427733182907104,-0.8201904296875,0.441650390625,-0.3260498046875
0.515,308,340,396,309,-18.0,44.0,36.0,2.868652105331421,-1.220703125,1.3427733182907104,-0.8201904296875,0.441650390625,-0.3260498046875
0.527,309,340,394,308,-18.0,44.0,36.0,3.601073980331421,-1.3427733182907104,1.3427733182907104,-0.8203125,0.4482421875,-0.3289794921875
0.554,309,343,396,310,-18.0,44.0,36.0,3.784179449081421,-1.220703125,1.5869139432907104,-0.8323974609375,0.452392578125,-0.3323974609375
0.557,308,341,396,299,-18.0,44.0,36.0,3.112792730331421,-1.03759765625,2.0751953125,-0.8323974609375,0.452392578125,-0.3323974609375
0.558,309,329,380,310,-18.0,44.0,36.0,2.746581792831421,-1.15966796875,2.563476324081421,-0.83056640625,0.446533203125,-0.3265380859375
0.590,310,342,394,309,-18.0,44.0,36.0,2.44140625,-2.38037109375,2.50244140625,-0.8104248046875,0.441162109375,-0.328369140625
0.618,296,328,395,309,-18.0,44.0,36.0,2.44140625,-2.38037109375,2.50244140625,-0.800048828125,0.4456787109375,-0.33154296875
0.620,310,341,396,310,-18.0,44.0,36.0,1.5869139432907104,-3.112792730331421,2.13623046875,-0.800048828125,0.4456787109375,-0.33154296875
0.620,310,342,396,308,-18.0,44.0,36.0,0.1220703050494194,-3.417968511581421,1.8310545682907104,-0.7957763671875,0.44677734375,-0.3316650390625
0.620,308,340,395,310,-18.0,43.0,36.0,0.1220703050494194,-3.417968511581421,1.8310545682907104,-0.802490234375,0.4454345703125,-0.32958984375
0.620,309,341,395,310,-18.0,43.0,36.0,-0.0610351525247097,-3.112792730331421,2.44140625,-0.802490234375,0.4454345703125,-0.32958984375
0.630,310,342,396,308,-18.0,43.0,36.0,-0.4882812201976776,-2.624511480331421,4.2724609375,-0.83642578125,0.4400634765625,-0.32373046875
0.634,308,341,398,309,-18.0,43.0,36.0,-0.4882812201976776,-2.624511480331421,4.2724609375,-0.8489990234375,0.4398193359375,-0.3204345703125
0.680,310,338,395,310,-18.0,43.0,36.0,-0.8544921278953552,-2.197265625,5.493163585662842,-0.8489990234375,0.4398193359375,-0.3204345703125
0.681,309,341,380,297,-18.0,43.0,36.0,-1.3427733182907104,-1.3427733182907104,7.934569835662842,-0.82177734375,0.442138671875,-0.3170166015625
0.681,309,342,396,310,-18.0,43.0,36.0,-1.3427733182907104,-1.3427733182907104,7.934569835662842,-0.7957763671875,0.43310546875,-0.31005859375
0.681,310,341,396,310,-18.0,43.0,36.0,-2.13623046875,-1.2817381620407104,8.72802734375,-0.7957763671875,0.43310546875,-0.31005859375
0.690,310,342,396,310,-18.0,43.0,36.0,-3.662109136581421,-0.9155272841453552,10.742186546325684,-0.7889404296875,0.4425048828125,-0.304931640625
0.696,310,342,396,310,-18.0,43.0,36.0,-3.662109136581421,-0.9155272841453552,10.742186546325684,-0.8040771484375,0.45947265625,-0.3121337890625
0.703,310,342,396,310,-18.0,43.0,36.0,-2.685546636581421,-0.4882812201976776,12.023924827575684,-0.8040771484375,0.45947265625,-0.3121337890625
0.716,309,342,394,309,-20.0,44.0,38.0,0.0,1.15966796875,14.282225608825684,-0.831787109375,0.469970703125,-0.33056640625
0.733,310,340,394,310,-20.0,44.0,38.0,0.54931640625,2.01416015625,15.319823265075684,-0.8319091796875,0.4613037109375,-0.3355712890625
0.733,308,339,395,310,-20.0,44.0,38.0,0.54931640625,2.01416015625,15.319823265075684,-0.822509765625,0.4532470703125,-0.3311767578125
0.760,310,338,395,310,-20.0,44.0,38.0,-0.8544921278953552,4.39453125,18.49365234375,-0.811767578125,0.4503173828125,-0.314208984375
0.760,294,339,394,310,-20.0,44.0,38.0,-2.197265625,6.713866710662842,20.629880905151367,-0.8013916015625,0.4466552734375,-0.2923583984375
0.764,309,338,394,310,-20.0,44.0,38.0,-2.197265625,6.713866710662842,20.629880905151367,-0.7911376953125,0.4417724609375,-0.274658203125
0.781,309,338,391,309,-20.0,44.0,38.0,-3.845214605331421,12.512206077575684,25.573728561401367,-0.7789306640625,0.441650390625,-0.2652587890625
0.790,310,340,394,310,-20.0,44.0,38.0,-3.417968511581421,15.319823265075684,28.381345748901367,-0.7642822265625,0.443115234375,-0.2647705078125
0.792,308,340,393,309,-20.0,44.0,38.0,-3.417968511581421,15.319823265075684,28.381345748901367,-0.75146484375,0.439697265625,-0.2645263671875
0.806,308,339,390,308,-19.0,43.0,33.0,-2.13623046875,20.996091842651367,34.7900390625,-0.7410888671875,0.43994140625,-0.267333984375
0.815,310,340,391,310,-19.0,43.0,33.0,-0.8544921278953552,24.414060592651367,38.87939453125,-0.73193359375,0.44580078125,-0.2762451171875
0.824,309,341,391,310,-19.0,43.0,33.0,-0.8544921278953552,24.414060592651367,38.87939453125,-0.714599609375,0.4407958984375,-0.2781982421875
0.836,310,343,391,311,-19.0,43.0,33.0,-1.5258787870407104,30.029294967651367,46.142574310302734,-0.6668701171875,0.41162109375,-0.257080078125
0.861,309,345,391,310,-19.0,43.0,33.0,-6.774901866912842,31.433103561401367,47.607418060302734,-0.5635986328125,0.3685302734375,-0.1954345703125
0.861,308,357,373,310,-19.0,43.0,33.0,-6.774901866912842,31.433103561401367,47.607418060302734,-0.3922119140625,0.310791015625,-0.0667724609375
0.866,309,391,391,311,-19.0,43.0,33.0,-24.475095748901367,31.799314498901367,39.00146484375,-0.1439208984375,0.2188720703125,0.1641845703125
0.874,311,411,393,311,-19.0,43.0,33.0,-26.367185592651367,27.587888717651367,24.353025436401367,0.1683349609375,0.0999755859375,0.49658203125
0.886,310,439,390,310,-19.0,43.0,33.0,-9.765625,12.512206077575684,0.30517578125,0.446533203125,0.0518798828125,0.7452392578125
0.896,310,533,411,310,-19.0,43.0,33.0,26.611326217651367,-16.7236328125,-29.174802780151367,0.4228515625,0.179931640625,0.6280517578125
0.904,310,579,467,310,-21.0,44.0,31.0,62.255855560302734,-45.654293060302734,-55.725093841552734,-0.0277099609375,0.5966796875,0.068359375
0.913,310,620,482,311,-21.0,44.0,31.0,78.369140625,-55.664058685302734,-75.62255859375,-0.6287841796875,1.04150390625,-0.8428955078125
0.926,308,662,499,310,-21.0,44.0,31.0,82.45848846435547,-35.09521484375,-85.32714080810547,-1.2940673828125,1.1690673828125,-1.841064453125
0.936,309,683,551,311,-21.0,44.0,31.0,70.3125,-0.30517578125,-79.16259765625,-1.8026123046875,1.07177734375,-2.10888671875
0.951,310,696,578,311,-21.0,44.0,31.0,15.869139671325684,6.591796398162842,-70.4345703125,-1.797119140625,0.789794921875,-1.34765625
0.962,310,723,657,312,-21.0,44.0,31.0,-57.495113372802734,-15.502928733825684,-68.90869140625,-1.60595703125,0.4761962890625,-0.447998046875
0.964,310,732,676,312,-21.0,44.0,31.0,-89.05028533935547,-32.5927734375,-60.485836029052734,-1.62890625,0.4091796875,-0.1964111328125
0.972,311,722,654,312,-21.0,44.0,31.0,-67.56591796875,-29.724119186401367,-39.61181640625,-1.8187255859375,0.5794677734375,-0.4794921875
0.993,310,698,618,311,-21.0,44.0,31.0,-35.58349609375,-18.49365234375,-18.4326171875,-1.703125,0.6072998046875,-0.6181640625
0.995,310,698,622,310,-21.0,44.0,31.0,-22.155759811401367,-11.962889671325684,-10.742186546325684,-1.1575927734375,0.3768310546875,-0.392578125
1.003,310,694,629,312,-19.0,42.0,36.0,-16.7236328125,-5.859374523162842,-11.901854515075684,-0.8958740234375,0.4359130859375,-0.290771484375
1.016,310,676,608,311,-19.0,42.0,36.0,-9.765625,3.295898199081421,-8.11767578125,-1.171630859375,0.7733154296875,-0.5050048828125
1.024,310,666,606,311,-19.0,42.0,36.0,-10.803221702575684,9.33837890625,-1.6479490995407104,-1.52294921875,0.8487548828125,-0.6861572265625
1.039,310,650,601,311,-19.0,42.0,36.0,-23.010251998901367,10.864256858825684,1.4038084745407104,-1.652099609375,0.6483154296875,-0.6719970703125
1.059,308,614,587,312,-19.0,42.0,36.0,-34.912109375,11.474608421325684,3.967284917831421,-1.5535888671875,0.4622802734375,-0.5684814453125
1.065,310,591,562,311,-19.0,42.0,36.0,-37.29248046875,15.258788108825684,10.864256858825684,-1.3214111328125,0.451904296875,-0.4598388671875
1.065,310,562,536,310,-19.0,42.0,36.0,-32.77587890625,22.338865280151367,20.874021530151367,-1.052001953125,0.5169677734375,-0.3804931640625
1.076,310,506,477,310,-19.0,42.0,36.0,-25.878904342651367,28.381345748901367,26.794431686401367,-0.824462890625,0.5185546875,-0.339599609375
1.084,310,473,449,310,-19.0,42.0,36.0,-18.49365234375,28.320310592651367,24.963376998901367,-0.64794921875,0.441650390625,-0.3095703125
1.100,310,438,420,309,-19.0,42.0,36.0,-11.291502952575684,21.606443405151367,17.2119140625,-0.49072265625,0.3314208984375,-0.296630859375
1.106,309,402,400,310,-19.0,46.0,34.0,-3.479003667831421,12.573241233825684,8.544921875,-0.354248046875,0.2581787109375,-0.3016357421875
1.114,309,385,386,309,-19.0,46.0,34.0,3.967284917831421,4.45556640625,2.868652105331421,-0.2811279296875,0.23388671875,-0.328369140625
1.128,310,371,379,310,-19.0,46.0,34.0,11.596678733825684,-1.4038084745407104,-0.3662109076976776,-0.3577880859375,0.2431640625,-0.3890380859375
1.142,308,354,371,309,-19.0,46.0,34.0,19.34814453125,-7.446288585662842,-2.50244140625,-0.5037841796875,0.3270263671875,-0.4166259765625
1.144,308,340,372,310,-19.0,46.0,34.0,23.254392623901367,-14.892577171325684,-2.990722417831421,-0.5596923828125,0.47998046875,-0.40185546875
1.170,310,338,371,310,-19.0,46.0,34.0,22.216794967651367,-20.874021530151367,-1.7700194120407104,-0.5791015625,0.615478515625,-0.3734130859375
1.171,309,329,369,309,-19.0,46.0,34.0,14.953612327575684,-27.099607467651367,0.2441406100988388,-0.618896484375,0.636474609375,-0.284912109375
1.175,308,328,371,310,-19.0,46.0,34.0,0.4882812201976776,-35.5224609375,-0.6103515625,-0.63671875,0.505615234375,-0.1644287109375
1.183,310,323,369,310,-19.0,46.0,34.0,-11.413573265075684,-40.466304779052734,-5.737304210662842,-0.6387939453125,0.3321533203125,-0.1253662109375
1.196,309,315,369,310,-19.0,46.0,34.0,-8.6669921875,-37.59765625,-9.765625,-0.72265625,0.335205078125,-0.20703125
1.208,310,314,371,310,-16.0,44.0,38.0,2.44140625,-31.616209030151367,-6.774901866912842,-0.72265625,0.335205078125,-0.20703125
1.212,310,312,372,308,-16.0,44.0,38.0,7.263183116912842,-27.954099655151367,1.220703125,-0.763671875,0.4276123046875,-0.16162109375
1.226,309,314,372,310,-16.0,44.0,38.0,2.868652105331421,-26.428220748901367,8.1787109375,-0.7501220703125,0.41796875,-0.079833984375
1.249,309,314,370,310,-16.0,44.0,38.0,-3.112792730331421,-23.986814498901367,11.840819358825684,-0.7501220703125,0.41796875,-0.079833984375
1.250,310,314,377,308,-16.0,44.0,38.0,-4.39453125,-19.10400390625,14.404295921325684,-0.72802734375,0.345947265625,-0.135498046875
1.265,309,314,379,308,-16.0,44.0,38.0,-2.44140625,-12.512206077575684,18.12744140625,-0.6553955078125,0.35595703125,-0.1890869140625
1.270,310,322,384,310,-16.0,44.0,38.0,-3.234863042831421,-5.554198741912842,22.949216842651367,-0.6553955078125,0.35595703125,-0.1890869140625
1.275,308,327,385,310,-16.0,44.0,38.0,-10.314940452575684,0.30517578125,26.550291061401367,-0.617431640625,0.402587890625,-0.1446533203125
1.286,310,337,391,310,-16.0,44.0,38.0,-20.874021530151367,3.601073980331421,27.404783248901367,-0.4305419921875,0.3182373046875,-0.0325927734375
1.295,310,357,395,309,-16.0,44.0,38.0,-30.151365280151367,3.295898199081421,26.245115280151367,-0.4305419921875,0.3182373046875,-0.0325927734375
1.304,312,379,408,310,-19.0,40.0,38.0,-38.818359375,-0.1220703050494194,23.620603561401367,-0.247314453125,0.2415771484375,0.0283203125
1.318,310,423,411,310,-19.0,40.0,38.0,-47.119136810302734,-3.234863042831421,19.71435546875,0.240478515625,0.3411865234375,0.2999267578125
1.324,308,470,409,309,-19.0,40.0,38.0,-43.762203216552734,-3.540038824081421,13.183592796325684,0.5916748046875,0.32177734375,0.5360107421875
1.332,310,524,408,310,-19.0,40.0,38.0,-21.118162155151367,-7.446288585662842,-4.0283203125,0.5916748046875,0.32177734375,0.5360107421875
1.346,310,620,561,310,-19.0,40.0,38.0,65.73486328125,-61.767574310302734,-82.27538299560547,0.4447021484375,-0.0830078125,0.6806640625
1.354,310,671,631,312,-19.0,40.0,38.0,65.73486328125,-61.767574310302734,-82.27538299560547,-0.2799072265625,0.37353515625,0.1055908203125
1.366,310,712,695,310,-19.0,40.0,38.0,100.83007049560547,-82.03124237060547,-109.25292205810547,-0.2799072265625,0.37353515625,0.1055908203125
1.376,309,754,819,313,-19.0,40.0,38.0,107.48290252685547,-12.573241233825684,-81.66503143310547,-2.457275390625,1.5408935546875,-2.267822265625
1.385,310,772,914,312,-19.0,40.0,38.0,107.48290252685547,-12.573241233825684,-81.66503143310547,-2.831298828125,1.30078125,-2.3048095703125
1.393,310,790,989,312,-19.0,40.0,38.0,51.818843841552734,5.615233898162842,-72.20458984375,-2.831298828125,1.30078125,-2.3048095703125
1.406,310,811,1043,312,-13.0,44.0,38.0,-137.451171875,-53.405757904052734,-76.904296875,-2.2462158203125,0.0594482421875,-0.1318359375
1.421,310,796,982,312,-13.0,44.0,38.0,-137.451171875,-53.405757904052734,-76.904296875,-1.947998046875,0.031494140625,0.18017578125
1.424,302,794,989,313,-13.0,44.0,38.0,-133.30078125,-58.105464935302734,-57.617183685302734,-1.947998046875,0.031494140625,0.18017578125
1.437,310,784,1009,313,-13.0,44.0,38.0,-5.432128429412842,-20.446775436401367,-15.930174827575684,-1.3013916015625,0.6295166015625,-0.2935791015625
1.451,310,767,986,312,-13.0,44.0,38.0,-5.432128429412842,-20.446775436401367,-15.930174827575684,-1.750244140625,1.1507568359375,-0.66748046875
1.453,299,741,943,312,-13.0,44.0,38.0,26.489255905151367,-7.263183116912842,-7.263183116912842,-1.750244140625,1.1507568359375,-0.66748046875
1.469,312,688,805,311,-13.0,44.0,38.0,-29.602048873901367,15.869139671325684,13.610838890075684,-2.2647705078125,0.5291748046875,-0.590087890625
1.477,310,648,728,310,-13.0,44.0,38.0,-29.602048873901367,15.869139671325684,13.610838890075684,-2.0191650390625,0.284912109375,-0.2694091796875
1.482,309,614,639,311,-13.0,44.0,38.0,-52.856441497802734,43.518062591552734,47.302242279052734,-1.538330078125,0.2901611328125,-0.0496826171875
1.496,310,531,518,311,-13.0,44.0,38.0,-28.259275436401367,105.89598846435547,119.01854705810547,-0.899169921875,0.2430419921875,-0.0059814453125
1.505,310,477,463,309,-15.0,45.0,36.0,4.8828125,109.06981658935547,110.47362518310547,-0.210205078125,0.1043701171875,0.103515625
1.514,310,435,434,309,-15.0,45.0,36.0,4.8828125,109.06981658935547,110.47362518310547,0.3392333984375,-0.0677490234375,0.2825927734375
1.527,308,387,386,310,-15.0,45.0,36.0,29.724119186401367,42.175289154052734,16.11328125,0.485107421875,-0.145263671875,0.3074951171875
1.538,310,364,372,310,-15.0,45.0,36.0,19.775390625,12.512206077575684,-26.062009811401367,0.20361328125,-0.091796875,0.18408203125
1.543,310,354,380,310,-15.0,45.0,36.0,19.775390625,12.512206077575684,-26.062009811401367,-0.200439453125,0.084716796875,-0.025634765625
1.556,309,328,380,310,-15.0,45.0,36.0,39.00146484375,3.540038824081421,-38.63525390625,-0.40380859375,0.43603515625,-0.3038330078125
1.580,310,325,382,308,-15.0,45.0,36.0,66.650390625,18.06640625,-24.475095748901367,-0.48486328125,0.8377685546875,-0.5865478515625
1.580,310,327,384,310,-15.0,45.0,36.0,66.650390625,18.06640625,-24.475095748901367,-0.670654296875,1.076904296875,-0.78466796875
1.586,308,322,377,310,-15.0,45.0,36.0,44.067378997802734,25.756834030151367,-7.263183116912842,-0.883544921875,1.0252685546875,-0.8323974609375
1.595,310,316,369,308,-15.0,45.0,36.0,14.160155296325684,10.925292015075684,-13.549803733825684,-0.947265625,0.73291015625,-0.7061767578125
1.605,310,321,371,310,-16.0,45.0,38.0,14.160155296325684,10.925292015075684,-13.549803733825684,-0.81494140625,0.368408203125,-0.4659423828125
1.621,310,317,371,309,-16.0,45.0,38.0,-28.564451217651367,-17.333984375,-34.1796875,-0.652587890625,0.09814453125,-0.2786865234375
1.632,310,314,372,310,-16.0,45.0,38.0,-36.7431640625,-16.4794921875,-28.686521530151367,-0.6082763671875,0.03125,-0.170166015625
1.634,298,300,380,309,-16.0,45.0,38.0,-36.0107421875,-13.488768577575684,-12.145995140075684,-0.6605224609375,0.1024169921875,-0.040771484375
1.655,309,315,382,310,-16.0,45.0,38.0,-31.799314498901367,-16.05224609375,3.967284917831421,-0.72998046875,0.1767578125,0.088623046875
1.655,310,315,382,298,-16.0,45.0,38.0,-23.254392623901367,-21.240232467651367,12.878417015075684,-0.767578125,0.2353515625,0.094482421875
1.680,310,316,386,310,-16.0,45.0,38.0,-6.347655773162842,-22.033689498901367,17.4560546875,-0.7919921875,0.294189453125,-0.0521240234375
1.680,310,321,382,309,-16.0,45.0,38.0,15.747069358825684,-17.51708984375,22.338865280151367,-0.8153076171875,0.3424072265625,-0.2330322265625
1.692,310,317,384,310,-16.0,45.0,38.0,32.16552734375,-11.718749046325684,28.808591842651367,-0.775634765625,0.409912109375,-0.345458984375
1.692,310,322,386,310,-16.0,45.0,38.0,32.958984375,-6.896972179412842,35.82763671875,-0.726806640625,0.479248046875,-0.3565673828125
1.706,309,323,387,310,-15.0,42.0,39.0,18.06640625,-3.906249761581421,39.97802734375,-0.70849609375,0.4736328125,-0.276123046875
1.715,309,327,389,310,-15.0,42.0,39.0,-1.7700194120407104,-3.540038824081421,38.39111328125,-0.6295166015625,0.3841552734375,-0.19091796875
1.723,309,343,395,309,-15.0,42.0,39.0,-15.930174827575684,-5.676269054412842,34.11865234375,-0.4427490234375,0.249755859375,-0.1402587890625
1.739,308,371,407,310,-15.0,42.0,39.0,-23.315427780151367,-12.268065452575684,32.470703125,-0.2108154296875,0.127197265625,-0.1396484375
1.744,310,399,407,309,-15.0,42.0,39.0,-28.076169967651367,-23.193357467651367,35.46142578125,-0.0799560546875,0.116455078125,-0.1668701171875
1.756,310,428,410,310,-15.0,42.0,39.0,-25.512693405151367,-34.3017578125,41.320796966552734,-0.00341796875,0.2611083984375,-0.0914306640625
1.784,309,532,423,308,-15.0,42.0,39.0,-10.009765625,-45.654293060302734,37.65869140625,0.158935546875,0.4068603515625,0.1495361328125
1.785,310,588,452,298,-15.0,42.0,39.0,18.37158203125,-66.0400390625,6.713866710662842,0.3758544921875,0.407470703125,0.4990234375
1.785,311,629,607,312,-15.0,42.0,39.0,65.91796875,-95.52001190185547,-50.231929779052734,0.36181640625,0.28515625,0.6160888671875
1.796,310,707,833,311,-16.0,41.0,39.0,101.74559783935547,-117.67577362060547,-106.07909393310547,-0.044189453125,0.10791015625,0.3717041015625
1.804,310,742,910,312,-16.0,41.0,39.0,89.23339080810547,-111.14501190185547,-126.52587127685547,-0.62890625,0.3568115234375,-0.13720703125
1.813,310,780,1008,314,-16.0,41.0,39.0,66.89453125,-67.626953125,-105.34667205810547,-1.4130859375,1.1304931640625,-1.0799560546875
1.826,310,848,1188,311,-16.0,41.0,39.0,37.841796875,-27.099607467651367,-77.0263671875,-2.339599609375,1.6385498046875,-1.815673828125
1.835,310,882,1245,314,-16.0,41.0,39.0,-33.14208984375,-29.541013717651367,-70.6787109375,-2.913330078125,1.340087890625,-1.492431640625
1.845,311,884,1232,311,-16.0,41.0,39.0,-108.52050018310547,-57.739253997802734,-77.63671875,-2.9163818359375,0.5623779296875,-0.492431640625
1.858,311,858,1170,312,-16.0,41.0,39.0,-131.103515625,-71.59423828125,-71.6552734375,-2.535400390625,-0.0146484375,0.2620849609375
1.865,311,854,1175,311,-16.0,41.0,39.0,-86.24266815185547,-55.786128997802734,-47.912593841552734,-1.788330078125,-0.3052978515625,0.43603515625
1.884,306,840,1162,313,-16.0,41.0,39.0,-4.638671875,-24.230955123901367,-22.949216842651367,-1.419921875,0.1439208984375,0.101318359375
1.887,310,799,1085,312,-16.0,41.0,39.0,51.269527435302734,4.57763671875,-1.4038084745407104,-1.906005859375,1.0859375,-0.4732666015625
1.895,311,767,1035,312,-13.0,40.0,42.0,42.907711029052734,19.95849609375,12.023924827575684,-2.384521484375,1.16015625,-0.7696533203125
1.903,308,739,989,312,-13.0,40.0,42.0,-5.0048828125,29.113767623901367,21.850584030151367,-2.35400390625,0.500732421875,-0.5458984375
1.917,310,683,822,312,-13.0,40.0,42.0,-44.555660247802734,45.227046966552734,49.255367279052734,-1.909423828125,0.0250244140625,-0.03955078125
1.927,310,632,713,312,-13.0,40.0,42.0,-42.785640716552734,71.044921875,93.07860565185547,-1.2701416015625,-0.0889892578125,0.2491455078125
1.933,310,585,601,311,-13.0,40.0,42.0,-5.126952648162842,91.85790252685547,127.74657440185547,-0.61865234375,-0.114990234375,0.224365234375
1.951,310,504,469,310,-13.0,40.0,42.0,37.29248046875,90.14891815185547,130.43212890625,0.2269287109375,0.1390380859375,0.1689453125
1.961,310,470,428,310,-13.0,40.0,42.0,64.75830078125,72.1435546875,99.24315643310547,0.2269287109375,0.1390380859375,0.1689453125
1.964,310,433,395,310,-13.0,40.0,42.0,70.068359375,56.701656341552734,49.865718841552734,0.1861572265625,0.3936767578125,0.058349609375
1.979,308,368,380,310,-13.0,40.0,42.0,57.373043060302734,47.729488372802734,3.173827886581421,-0.23193359375,0.2357177734375,-0.3511962890625
1.986,309,353,380,310,-13.0,40.0,42.0,48.645015716552734,45.532222747802734,-26.855466842651367,-0.23193359375,0.2357177734375,-0.3511962890625
1.992,308,338,384,310,-13.0,40.0,42.0,55.175777435302734,52.734371185302734,-36.865234375,-0.23681640625,0.2552490234375,-0.5567626953125
2.006,309,336,384,310,-16.0,42.0,33.0,59.143062591552734,61.401363372802734,-28.991697311401367,-0.603271484375,0.9517822265625,-0.6748046875
2.015,310,331,382,310,-16.0,42.0,33.0,45.288082122802734,60.913082122802734,-12.512206077575684,-0.603271484375,0.9517822265625,-0.6748046875
2.027,310,328,373,310,-16.0,42.0,33.0,20.568845748901367,46.447750091552734,-4.21142578125,-0.943115234375,1.0203857421875,-0.7154541015625
2.046,310,325,377,310,-16.0,42.0,33.0,-3.356933355331421,21.057126998901367,-11.474608421325684,-0.9185791015625,0.4508056640625,-0.444580078125
2.047,310,322,379,309,-16.0,42.0,33.0,-27.160642623901367,-3.845214605331421,-25.695798873901367,-0.9185791015625,0.4508056640625,-0.444580078125
2.067,310,315,377,310,-16.0,42.0,33.0,-52.673336029052734,-16.78466796875,-35.82763671875,-0.68408203125,0.126708984375,-0.236083984375
2.067,310,314,379,296,-16.0,42.0,33.0,-69.2138671875,-15.319823265075684,-34.66796875,-0.67431640625,0.08642578125,-0.0792236328125
2.092,310,315,373,310,-16.0,42.0,33.0,-66.40625,-7.629394054412842,-21.667478561401367,-0.67431640625,0.08642578125,-0.0792236328125
2.092,309,315,372,310,-16.0,42.0,33.0,-51.513668060302734,-4.21142578125,-5.493163585662842,-0.759521484375,0.22216796875,-0.0335693359375
2.097,310,315,379,309,-16.0,45.0,39.0,-24.414060592651367,-8.60595703125,12.756346702575684,-0.775634765625,0.318115234375,-0.1162109375
2.105,309,314,377,310,-16.0,45.0,39.0,-24.414060592651367,-8.60595703125,12.756346702575684,-0.7783203125,0.2835693359375,-0.2398681640625
2.113,310,314,378,310,-16.0,45.0,39.0,-7.812499523162842,-6.225585460662842,19.22607421875,-0.7783203125,0.2835693359375,-0.2398681640625
2.145,310,314,379,308,-16.0,45.0,39.0,19.95849609375,1.9531248807907104,37.109375,-0.7510986328125,0.3438720703125,-0.321533203125
2.145,308,315,379,309,-16.0,45.0,39.0,19.95849609375,1.9531248807907104,37.109375,-0.7099609375,0.366943359375,-0.241455078125
2.146,310,317,382,310,-16.0,45.0,39.0,15.563963890075684,2.624511480331421,48.034664154052734,-0.7099609375,0.366943359375,-0.241455078125
2.170,309,325,384,310,-16.0,45.0,39.0,-7.080077648162842,-1.6479490995407104,55.786128997802734,-0.55419921875,0.29736328125,-0.040771484375
2.193,310,331,391,310,-16.0,45.0,39.0,-7.080077648162842,-1.6479490995407104,55.786128997802734,-0.404296875,0.2841796875,0.037353515625
2.193,308,356,391,309,-16.0,45.0,39.0,-15.991209983825684,-4.33349609375,52.673336029052734,-0.404296875,0.2841796875,0.037353515625
2.193,296,402,396,310,-16.0,45.0,39.0,-16.78466796875,-13.366698265075684,35.7666015625,0.191650390625,0.2435302734375,0.234130859375
2.196,308,451,410,310,-19.0,39.0,40.0,-16.78466796875,-13.366698265075684,35.7666015625,0.57373046875,0.10302734375,0.357177734375
2.203,308,502,475,310,-19.0,39.0,40.0,6.958007335662842,-22.521970748901367,18.9208984375,0.57373046875,0.10302734375,0.357177734375
2.216,310,606,721,311,-19.0,39.0,40.0,57.739253997802734,-74.951171875,-27.160642623901367,0.619384765625,-0.186279296875,0.4632568359375
2.225,310,673,750,312,-19.0,39.0,40.0,57.739253997802734,-74.951171875,-27.160642623901367,0.086669921875,0.1856689453125,0.3236083984375
2.234,311,714,770,312,-19.0,39.0,40.0,67.44384765625,-101.13524627685547,-42.785640716552734,0.086669921875,0.1856689453125,0.3236083984375
2.246,312,790,927,312,-19.0,39.0,40.0,144.83642578125,-17.822265625,-44.982906341552734,-1.7833251953125,1.4058837890625,-1.711669921875
2.255,311,826,1026,312,-19.0,39.0,40.0,107.54393768310547,12.634276390075684,-45.776363372802734,-2.3486328125,1.403564453125,-1.878173828125
2.293,312,858,1122,314,-19.0,39.0,40.0,107.54393768310547,12.634276390075684,-45.776363372802734,-2.46630859375,1.014892578125,-1.164306640625
2.294,296,875,1217,313,-19.0,39.0,40.0,-81.48192596435547,-53.955074310302734,-65.91796875,-2.5323486328125,0.680419921875,-0.5062255859375
2.294,311,886,1172,313,-19.0,39.0,40.0,-93.13964080810547,-67.81005859375,-49.865718841552734,-2.5853271484375,0.38330078125,-0.1270751953125
2.294,310,861,1117,313,-17.0,41.0,44.0,-93.13964080810547,-67.81005859375,-49.865718841552734,-2.19140625,0.1690673828125,-0.0657958984375
2.306,310,861,1153,312,-17.0,41.0,44.0,-3.723144292831421,-28.381345748901367,0.9765624403953552,-1.45263671875,0.20556640625,-0.1669921875
2.315,311,853,1139,312,-17.0,41.0,44.0,31.616209030151367,-1.220703125,13.427733421325684,-1.352783203125,0.7957763671875,-0.38427734375
2.323,310,838,1105,312,-17.0,41.0,44.0,31.616209030151367,-1.220703125,13.427733421325684,-1.854248046875,1.2030029296875,-0.560302734375
2.336,311,801,1014,311,-17.0,41.0,44.0,-21.728513717651367,24.047849655151367,14.404295921325684,-2.22412109375,0.92724609375,-0.525146484375
2.345,310,766,947,312,-17.0,41.0,44.0,-52.917476654052734,33.75244140625,18.1884765625,-2.223388671875,0.572021484375,-0.3868408203125
2.352,310,726,891,312,-17.0,41.0,44.0,-52.917476654052734,33.75244140625,18.1884765625,-1.9171142578125,0.414306640625,-0.2215576171875
2.400,310,646,782,310,-17.0,41.0,44.0,-36.62109375,56.701656341552734,58.227535247802734,-1.421875,0.341552734375,-0.02685546875
2.400,310,598,678,312,-17.0,41.0,44.0,-11.657713890075684,64.51416015625,71.71630859375,-0.85595703125,0.224609375,0.1424560546875
2.400,311,531,547,310,-17.0,41.0,44.0,-11.657713890075684,64.51416015625,71.71630859375,-0.29931640625,0.04345703125,0.23095703125
2.400,310,433,391,310,-18.0,43.0,35.0,42.602535247802734,65.73486328125,53.771968841552734,0.215576171875,-0.0626220703125,0.1549072265625
2.406,309,382,368,310,-18.0,43.0,35.0,61.767574310302734,62.561031341552734,32.1044921875,0.47265625,-0.03759765625,-0.0560302734375
2.412,310,361,356,310,-18.0,43.0,35.0,69.091796875,57.128902435302734,11.169432640075684,0.3795166015625,0.017333984375,-0.312255859375
2.426,310,336,352,310,-18.0,43.0,35.0,70.86181640625,49.316402435302734,-6.713866710662842,0.09521484375,0.18798828125,-0.5921630859375
2.437,309,331,357,310,-18.0,43.0,35.0,66.89453125,39.73388671875,-16.29638671875,-0.234375,0.571533203125,-0.799072265625
2.443,310,337,367,310,-18.0,43.0,35.0,47.058101654052734,25.085447311401367,-16.05224609375,-0.59326171875,0.9468994140625,-0.9090576171875
2.456,310,337,367,311,-18.0,43.0,35.0,14.160155296325684,2.929687261581421,-12.878417015075684,-0.9052734375,1.099365234375,-0.89404296875
2.494,310,328,367,310,-18.0,43.0,35.0,-19.10400390625,-22.949216842651367,-13.793944358825684,-1.0308837890625,0.9390869140625,-0.7257080078125
2.494,308,326,364,310,-18.0,43.0,35.0,-46.569820404052734,-41.259761810302734,-19.22607421875,-0.898681640625,0.512451171875,-0.46240234375
2.505,309,322,370,308,-18.0,43.0,35.0,-67.3828125,-44.311519622802734,-24.902341842651367,-0.6275634765625,0.035400390625,-0.1729736328125
2.505,310,322,372,310,-16.0,42.0,38.0,-76.72119140625,-34.36279296875,-24.597166061401367,-0.5211181640625,-0.226318359375,0.0531005859375
2.506,308,319,379,310,-16.0,42.0,38.0,-69.2138671875,-21.606443405151367,-14.709471702575684,-0.59326171875,-0.158203125,0.1888427734375
2.516,309,322,380,308,-16.0,42.0,38.0,-51.452632904052734,-16.6015625,-0.8544921278953552,-0.695068359375,0.1092529296875,0.26123046875
2.526,310,322,380,310,-16.0,42.0,38.0,-34.7900390625,-18.49365234375,10.009765625,-0.747314453125,0.394775390625,0.2095947265625
2.532,310,322,380,310,-16.0,42.0,38.0,-19.53125,-17.7001953125,16.4794921875,-0.7894287109375,0.543701171875,-0.0042724609375
2.546,310,323,379,310,-16.0,42.0,38.0,-4.150390625,-11.718749046325684,19.4091796875,-0.8377685546875,0.5191650390625,-0.220947265625
2.556,310,322,381,310,-16.0,42.0,38.0,5.737304210662842,-5.310058116912842,20.996091842651367,-0.8092041015625,0.44873046875,-0.3076171875
2.562,309,323,382,310,-16.0,42.0,38.0,7.019042491912842,-0.0610351525247097,23.803709030151367,-0.7396240234375,0.420166015625,-0.294921875
2.576,308,328,381,310,-16.0,42.0,38.0,-0.6103515625,2.990722417831421,28.564451217651367,-0.677490234375,0.40185546875,-0.211669921875
2.610,310,339,378,309,-16.0,42.0,38.0,-14.221190452575684,3.173827886581421,31.860349655151367,-0.609375,0.353515625,-0.118408203125
2.610,309,353,382,310,-22.0,41.0,40.0,-26.123044967651367,2.01416015625,31.555173873901367,-0.5001220703125,0.2982177734375,-0.0758056640625
2.610,309,384,379,298,-22.0,41.0,40.0,-29.418943405151367,0.1831054538488388,28.747556686401367,-0.3408203125,0.260498046875,-0.0511474609375
2.616,310,402,399,310,-22.0,41.0,40.0,-24.963376998901367,-3.967284917831421,24.353025436401367,-0.13671875,0.243408203125,0.01318359375
2.622,308,441,408,312,-22.0,41.0,40.0,-15.563963890075684,-11.535643577575684,17.9443359375,0.107421875,0.220458984375,0.115234375
2.636,310,524,420,310,-22.0,41.0,40.0,2.25830078125,-26.000974655151367,5.249022960662842,0.3001708984375,0.1695556640625,0.2325439453125
2.645,310,579,579,312,-22.0,41.0,40.0,41.564937591552734,-54.504390716552734,-19.71435546875,0.4056396484375,0.123779296875,0.35888671875
2.652,312,642,741,310,-22.0,41.0,40.0,97.96141815185547,-89.17235565185547,-56.640621185302734,0.3284912109375,0.1307373046875,0.3768310546875
2.666,310,726,902,312,-22.0,41.0,40.0,123.22997283935547,-105.16356658935547,-88.68407440185547,-0.0902099609375,0.3543701171875,0.1201171875
2.677,312,766,1009,312,-22.0,41.0,40.0,102.60009002685547,-81.97020721435547,-94.48241424560547,-0.7567138671875,0.7794189453125,-0.639404296875
2.683,311,799,1085,312,-22.0,41.0,40.0,67.7490234375,-34.5458984375,-77.69775390625,-1.4600830078125,1.146484375,-1.477294921875
2.716,310,871,1268,312,-15.0,42.0,44.0,12.573241233825684,-13.000487327575684,-62.927242279052734,-1.9364013671875,1.19580078125,-1.4566650390625
2.717,310,904,1323,314,-15.0,42.0,44.0,-55.725093841552734,-30.395505905151367,-63.903804779052734,-2.2442626953125,1.032470703125,-0.911376953125
2.717,310,932,1352,314,-15.0,42.0,44.0,-95.45897674560547,-57.250972747802734,-70.61767578125,-2.5457763671875,0.7896728515625,-0.4315185546875
2.744,311,878,1264,312,-15.0,42.0,44.0,-101.25731658935547,-75.37841796875,-67.7490234375,-2.2490234375,0.05419921875,0.1712646484375
2.744,310,882,1282,314,-15.0,42.0,44.0,-78.125,-71.47216796875,-53.466793060302734,-2.2490234375,0.05419921875,0.1712646484375
2.744,298,873,1251,312,-15.0,42.0,44.0,-26.062009811401367,-43.701168060302734,-39.12353515625,-1.5472412109375,0.0989990234375,-0.044189453125
2.807,311,846,1162,312,-15.0,42.0,44.0,22.399900436401367,-14.770506858825684,-28.503416061401367,-2.123046875,1.27294921875,-0.63623046875
2.809,310,794,1091,312,-15.0,42.0,44.0,27.343748092651367,-0.1831054538488388,-20.324705123901367,-2.123046875,1.27294921875,-0.63623046875
2.809,295,756,1050,311,-15.0,42.0,44.0,-8.48388671875,7.202147960662842,-15.075682640075684,-2.398193359375,0.7945556640625,-0.562744140625
2.809,298,698,960,314,-15.0,42.0,44.0,-52.856441497802734,19.59228515625,1.4038084745407104,-1.875244140625,-0.03076171875,0.17041015625
2.809,310,633,797,310,-19.0,41.0,42.0,-76.416015625,42.907711029052734,39.4287109375,-1.875244140625,-0.03076171875,0.17041015625
2.809,312,594,685,310,-19.0,41.0,42.0,-62.255855560302734,80.38329315185547,88.62303924560547,-1.3729248046875,-0.032470703125,0.37060546875
2.818,310,475,454,310,-19.0,41.0,42.0,-17.76123046875,118.28612518310547,124.45067596435547,-0.09033203125,0.0255126953125,0.26708984375
2.828,310,428,414,310,-19.0,41.0,42.0,27.038572311401367,127.25829315185547,122.92479705810547,-0.09033203125,0.0255126953125,0.26708984375
2.832,310,402,373,310,-19.0,41.0,42.0,50.781246185302734,101.68456268310547,81.60399627685547,0.5120849609375,0.008544921875,0.1553955078125
2.849,309,356,349,309,-19.0,41.0,42.0,50.170894622802734,64.14794921875,24.353025436401367,0.3001708984375,-0.0474853515625,-0.25048828125
2.856,310,340,343,310,-19.0,41.0,42.0,34.24072265625,31.555173873901367,-21.728513717651367,0.118896484375,0.1732177734375,-0.392822265625
2.864,308,336,356,310,-19.0,41.0,42.0,25.512693405151367,14.953612327575684,-45.288082122802734,0.118896484375,0.1732177734375,-0.392822265625
2.914,308,329,357,310,-19.0,41.0,42.0,42.297359466552734,33.02001953125,-23.864744186401367,-0.5155029296875,1.0601806640625,-0.7176513671875
2.914,310,326,339,298,-19.0,41.0,42.0,42.297359466552734,33.02001953125,-23.864744186401367,-0.93408203125,1.2052001953125,-0.8121337890625
2.914,310,326,356,310,-16.0,42.0,38.0,36.68212890625,33.38623046875,-2.624511480331421,-0.93408203125,1.2052001953125,-0.8121337890625
2.915,310,324,364,309,-16.0,42.0,38.0,-13.488768577575684,-11.962889671325684,-22.399900436401367,-0.97021484375,0.49462890625,-0.4298095703125
2.915,308,323,367,311,-16.0,42.0,38.0,-13.488768577575684,-11.962889671325684,-22.399900436401367,-0.7401123046875,0.1669921875,-0.2464599609375
2.923,310,322,372,310,-16.0,42.0,38.0,-37.04833984375,-22.888181686401367,-34.24072265625,-0.7401123046875,0.1669921875,-0.2464599609375
2.936,309,316,381,310,-16.0,42.0,38.0,-55.847164154052734,-10.742186546325684,-19.95849609375,-0.7301025390625,-0.033203125,-0.068115234375
2.949,310,317,379,311,-16.0,42.0,38.0,-55.847164154052734,-10.742186546325684,-19.95849609375,-0.7906494140625,0.069091796875,0.0595703125
2.953,310,322,378,310,-16.0,42.0,38.0,-51.086421966552734,-8.056640625,-3.723144292831421,-0.7906494140625,0.069091796875,0.0595703125
2.966,309,322,373,310,-16.0,42.0,38.0,-26.000974655151367,-12.390135765075684,18.00537109375,-0.8258056640625,0.2352294921875,0.008544921875
2.975,310,322,379,310,-16.0,42.0,38.0,-26.000974655151367,-12.390135765075684,18.00537109375,-0.8271484375,0.2679443359375,-0.1612548828125
2.989,309,322,377,309,-16.0,42.0,38.0,-8.23974609375,-9.6435546875,26.184080123901367,-0.8271484375,0.2679443359375,-0.1612548828125
3.019,310,323,384,310,-18.0,43.0,38.0,9.3994140625,1.8920897245407104,42.419429779052734,-0.8143310546875,0.4422607421875,-0.2913818359375
3.019,310,324,372,296,-18.0,43.0,38.0,3.295898199081421,5.432128429412842,49.072261810302734,-0.778564453125,0.476806640625,-0.23779296875
3.019,310,326,382,310,-18.0,43.0,38.0,3.295898199081421,5.432128429412842,49.072261810302734,-0.697509765625,0.3868408203125,-0.166259765625
3.027,309,345,395,310,-18.0,43.0,38.0,-17.578125,3.906249761581421,52.307125091552734,-0.552490234375,0.265380859375,-0.1021728515625
3.036,310,365,391,309,-18.0,43.0,38.0,-23.132322311401367,2.25830078125,51.208492279052734,-0.3441162109375,0.1787109375,-0.0584716796875
3.043,309,384,401,310,-18.0,43.0,38.0,-23.132322311401367,2.25830078125,51.208492279052734,-0.138916015625,0.178466796875,-0.0137939453125
3.056,309,451,411,310,-18.0,43.0,38.0,-23.864744186401367,-3.295898199081421,43.334957122802734,0.126953125,0.2567138671875,0.1434326171875
3.066,310,495,419,310,-18.0,43.0,38.0,-18.12744140625,-14.404295921325684,28.320310592651367,0.482666015625,0.21728515625,0.3951416015625
3.073,310,548,513,310,-18.0,43.0,38.0,-18.12744140625,-14.404295921325684,28.320310592651367,0.7125244140625,0.02490234375,0.5972900390625
3.087,311,648,808,311,-18.0,41.0,40.0,19.287109375,-70.00732421875,-47.241207122802734,0.5931396484375,-0.1458740234375,0.642578125
3.112,310,705,873,312,-18.0,41.0,40.0,58.288570404052734,-87.28026580810547,-79.16259765625,0.041259765625,0.0997314453125,0.3448486328125
3.113,310,749,948,312,-18.0,41.0,40.0,58.288570404052734,-87.28026580810547,-79.16259765625,-0.9000244140625,0.9677734375,-0.7520751953125
3.124,310,818,1145,313,-18.0,41.0,40.0,113.09813690185547,-14.831542015075684,-55.419918060302734,-1.8330078125,1.72265625,-1.97216796875
3.125,311,864,1279,312,-18.0,41.0,40.0,50.781246185302734,-7.812499523162842,-46.325679779052734,-2.213623046875,1.6705322265625,-1.8533935546875
3.133,310,907,1365,314,-18.0,41.0,40.0,50.781246185302734,-7.812499523162842,-46.325679779052734,-2.2552490234375,1.2113037109375,-0.9085693359375
3.146,311,947,1415,313,-18.0,41.0,40.0,-96.98485565185547,-77.63671875,-68.4814453125,-2.4862060546875,0.7518310546875,-0.1905517578125
3.163,310,922,1355,314,-18.0,41.0,40.0,-84.77782440185547,-89.78270721435547,-58.410640716552734,-2.6861572265625,0.33203125,0.136962890625
3.163,310,907,1334,314,-18.0,41.0,40.0,-45.227046966552734,-81.35985565185547,-42.236324310302734,-2.1649169921875,-0.0557861328125,0.1246337890625
3.176,311,906,1292,312,-18.0,41.0,40.0,2.25830078125,-55.969234466552734,-33.02001953125,-1.41552734375,-0.0362548828125,-0.0457763671875
3.190,310,887,1231,314,-13.0,40.0,44.0,36.92626953125,-30.212400436401367,-26.367185592651367,-1.529052734375,0.793212890625,-0.3111572265625
3.193,312,862,1162,312,-13.0,40.0,44.0,33.87451171875,-12.329100608825684,-16.29638671875,-2.098876953125,1.3135986328125,-0.533203125
3.206,312,805,1054,312,-13.0,40.0,44.0,-4.57763671875,1.4038084745407104,-7.812499523162842,-2.354248046875,0.814453125,-0.499267578125
3.219,311,771,1017,312,-13.0,40.0,44.0,-47.424312591552734,19.6533203125,11.352538108825684,-2.250244140625,0.1231689453125,-0.2135009765625
3.229,311,730,943,312,-13.0,40.0,44.0,-61.279293060302734,48.706050872802734,53.283687591552734,-1.913818359375,-0.1092529296875,0.10107421875
3.236,309,639,755,312,-13.0,40.0,44.0,-39.306640625,86.24266815185547,104.06493377685547,-1.4903564453125,0.098388671875,0.1917724609375
3.245,310,566,618,310,-13.0,40.0,44.0,-0.9765624403953552,118.95751190185547,136.5966796875,-1.024658203125,0.327392578125,0.1025390625
3.253,310,504,479,311,-13.0,40.0,44.0,30.456541061401367,126.22069549560547,131.2255859375,-0.406494140625,0.270263671875,0.1478271484375
3.270,309,411,407,311,-13.0,40.0,44.0,42.297359466552734,103.02733612060547,89.90477752685547,0.3001708984375,-0.0260009765625,0.3017578125
3.275,308,391,371,310,-13.0,40.0,44.0,38.57421875,71.2890625,34.36279296875,0.6195068359375,-0.2923583984375,0.2447509765625
3.284,310,360,343,310,-13.0,40.0,44.0,27.160642623901367,44.311519622802734,-9.521484375,0.401123046875,-0.2828369140625,0.0679931640625
3.296,310,331,355,309,-15.0,42.0,40.0,16.2353515625,20.751951217651367,-29.602048873901367,0.095458984375,0.0439453125,-0.0809326171875
3.321,310,327,356,310,-15.0,42.0,40.0,24.108884811401367,10.375975608825684,-28.137205123901367,0.013671875,0.4927978515625,-0.288818359375
3.321,310,323,360,296,-15.0,42.0,40.0,52.429195404052734,19.83642578125,-13.244627952575684,-0.16162109375,0.9119873046875,-0.5933837890625
3.327,309,323,360,309,-15.0,42.0,40.0,69.51904296875,34.3017578125,7.507323741912842,-0.619873046875,1.2093505859375,-0.8997802734375
3.334,310,317,346,310,-15.0,42.0,40.0,55.786128997802734,30.517576217651367,16.9677734375,-0.9822998046875,1.12939453125,-0.966796875
3.342,309,322,345,310,-15.0,42.0,40.0,25.817869186401367,5.371093273162842,1.7089842557907104,-1.08740234375,0.7864990234375,-0.7686767578125
3.358,310,322,359,310,-15.0,42.0,40.0,-5.310058116912842,-21.789548873901367,-23.132322311401367,-0.96142578125,0.523681640625,-0.4560546875
3.364,310,314,364,309,-15.0,42.0,40.0,-32.28759765625,-33.99658203125,-36.9873046875,-0.72900390625,0.33544921875,-0.2022705078125
3.373,311,311,369,310,-15.0,42.0,40.0,-48.767086029052734,-29.907224655151367,-34.11865234375,-0.6024169921875,0.1510009765625,-0.0791015625
3.393,310,314,371,309,-18.0,40.0,44.0,-52.062984466552734,-20.01953125,-19.04296875,-0.6060791015625,0.0428466796875,0.015380859375
3.394,307,314,372,309,-18.0,40.0,44.0,-45.532222747802734,-13.793944358825684,-1.4648436307907104,-0.6678466796875,0.060791015625,0.1107177734375
3.421,308,315,373,310,-18.0,40.0,44.0,-33.14208984375,-12.329100608825684,11.474608421325684,-0.741455078125,0.1444091796875,0.1282958984375
3.421,308,322,377,299,-18.0,40.0,44.0,-17.51708984375,-11.352538108825684,18.9208984375,-0.809814453125,0.2325439453125,0.047119140625
3.424,310,321,377,310,-18.0,40.0,44.0,-2.38037109375,-8.23974609375,23.925779342651367,-0.83935546875,0.3199462890625,-0.0726318359375
3.432,310,323,377,310,-18.0,40.0,44.0,7.385253429412842,-3.601073980331421,29.174802780151367,-0.809326171875,0.4044189453125,-0.1732177734375
3.446,310,326,373,310,-18.0,40.0,44.0,8.48388671875,0.7324218153953552,34.912109375,-0.7532958984375,0.4400634765625,-0.2142333984375
3.454,310,334,378,310,-18.0,40.0,44.0,0.2441406100988388,2.929687261581421,39.9169921875,-0.685302734375,0.394775390625,-0.1953125
3.463,310,343,377,308,-18.0,40.0,44.0,-12.878417015075684,4.0283203125,42.480464935302734,-0.6136474609375,0.3272705078125,-0.158203125
3.476,310,372,388,310,-18.0,40.0,44.0,-22.766111373901367,5.920409679412842,42.175289154052734,-0.3433837890625,0.3604736328125,-0.07177734375
3.484,308,394,393,310,-16.0,42.0,42.0,-25.634763717651367,8.30078125,38.9404296875,-0.3433837890625,0.3604736328125,-0.07177734375
3.503,310,431,396,312,-16.0,42.0,42.0,-26.550291061401367,7.934569835662842,31.188962936401367,-0.0953369140625,0.37353515625,0.0377197265625
3.524,311,519,582,310,-16.0,42.0,42.0,-27.038572311401367,2.01416015625,14.892577171325684,0.649169921875,0.006591796875,0.5692138671875
3.524,311,552,717,310,-16.0,42.0,42.0,-26.062009811401367,-13.183592796325684,-17.02880859375,0.649169921875,0.006591796875,0.5692138671875
3.524,310,631,867,311,-16.0,42.0,42.0,-18.73779296875,-39.1845703125,-61.706539154052734,0.673828125,-0.2896728515625,0.7159423828125
3.536,310,721,907,312,-16.0,42.0,42.0,10.925292015075684,-63.232418060302734,-97.77831268310547,-0.4432373046875,0.431640625,-0.150146484375
3.551,310,756,999,314,-16.0,42.0,42.0,68.4814453125,-56.335445404052734,-98.44969940185547,-0.4432373046875,0.431640625,-0.150146484375
3.553,310,794,1120,312,-16.0,42.0,42.0,116.57714080810547,-12.451170921325684,-63.659664154052734,-1.45751953125,1.497802734375,-1.672119140625
3.567,310,846,1348,312,-16.0,42.0,42.0,84.65575408935547,12.329100608825684,-35.58349609375,-2.347412109375,1.4244384765625,-1.40087890625
3.575,311,876,1437,313,-16.0,42.0,42.0,-20.751951217651367,-17.333984375,-41.992183685302734,-2.347412109375,1.4244384765625,-1.40087890625
3.585,314,893,1490,314,-13.0,42.0,44.0,-99.97557830810547,-54.199214935302734,-58.227535247802734,-2.4010009765625,0.9488525390625,-0.4462890625
3.621,311,871,1447,312,-13.0,42.0,44.0,-68.05419921875,-59.265132904052734,-47.485347747802734,-2.3692626953125,0.1033935546875,0.22412109375
3.625,310,861,1430,314,-13.0,42.0,44.0,-6.652831554412842,-40.527339935302734,-36.1328125,-1.75927734375,-0.0751953125,0.04541015625
3.628,296,822,1338,302,-13.0,42.0,44.0,50.354000091552734,-3.845214605331421,-0.9765624403953552,-2.1737060546875,1.352294921875,-0.783935546875
3.635,312,785,1245,312,-13.0,42.0,44.0,50.354000091552734,-3.845214605331421,-0.9765624403953552,-2.340576171875,1.019775390625,-0.7191162109375
3.643,310,754,1201,312,-13.0,42.0,44.0,3.356933355331421,3.234863042831421,10.925292015075684,-2.340576171875,1.019775390625,-0.7191162109375
3.656,310,689,1087,312,-13.0,42.0,44.0,-73.73046875,40.222164154052734,52.673336029052734,-1.700927734375,-0.03662109375,0.1971435546875
3.666,310,646,986,312,-13.0,42.0,44.0,-73.73046875,40.222164154052734,52.673336029052734,-1.1068115234375,-0.1048583984375,0.35107421875
3.673,311,590,888,312,-13.0,42.0,44.0,-55.480953216552734,72.57080078125,87.70751190185547,-1.1068115234375,-0.1048583984375,0.35107421875
3.686,311,481,722,312,-16.0,40.0,38.0,35.94970703125,96.49657440185547,95.94725799560547,-0.032470703125,0.16748046875,0.08251953125
3.701,310,436,673,311,-16.0,40.0,38.0,35.94970703125,96.49657440185547,95.94725799560547,0.321533203125,0.24169921875,-0.034912109375
3.703,310,407,592,311,-16.0,40.0,38.0,50.903316497802734,68.4814453125,52.795406341552734,0.321533203125,0.24169921875,-0.034912109375
3.730,310,364,473,312,-16.0,40.0,38.0,24.108884811401367,14.770506858825684,-23.315427780151367,-0.0950927734375,0.101318359375,-0.2620849609375
3.730,310,339,437,296,-16.0,40.0,38.0,24.108884811401367,14.770506858825684,-23.315427780151367,-0.3173828125,0.21875,-0.364013671875
3.733,310,336,427,309,-16.0,40.0,38.0,20.507810592651367,2.3193359375,-29.724119186401367,-0.3173828125,0.21875,-0.364013671875
3.746,309,326,423,310,-16.0,40.0,38.0,58.532711029052734,13.916014671325684,-15.014647483825684,-0.41259765625,0.6702880859375,-0.5631103515625
3.762,309,325,414,308,-16.0,40.0,38.0,58.532711029052734,13.916014671325684,-15.014647483825684,-0.656982421875,0.865478515625,-0.5838623046875
3.763,296,306,414,310,-16.0,40.0,38.0,55.053707122802734,15.869139671325684,-5.126952648162842,-0.656982421875,0.865478515625,-0.5838623046875
3.776,310,314,386,310,-16.0,40.0,38.0,-1.0986328125,-15.441893577575684,-7.934569835662842,-0.7835693359375,0.6082763671875,-0.32470703125
3.784,310,314,380,310,-16.0,42.0,38.0,-24.414060592651367,-29.357908248901367,-19.83642578125,-0.669921875,0.3216552734375,-0.1571044921875
3.792,310,311,384,310,-16.0,42.0,38.0,-24.414060592651367,-29.357908248901367,-19.83642578125,-0.575927734375,0.129150390625,-0.04833984375
3.808,308,313,387,310,-16.0,42.0,38.0,-30.883787155151367,-24.414060592651367,-16.6015625,-0.562744140625,0.0765380859375,0.0040283203125
3.834,310,312,386,310,-16.0,42.0,38.0,-20.01953125,-15.808104515075684,-3.845214605331421,-0.6392822265625,0.1595458984375,0.0390625
3.834,310,298,364,310,-16.0,42.0,38.0,-20.01953125,-15.808104515075684,-3.845214605331421,-0.7398681640625,0.2994384765625,0.066162109375
3.836,310,314,371,310,-16.0,42.0,38.0,-5.065917491912842,-9.1552734375,15.991209983825684,-0.800537109375,0.3922119140625,0.0516357421875
3.844,310,314,367,310,-16.0,42.0,38.0,-2.990722417831421,-8.6669921875,19.53125,-0.7994384765625,0.408203125,-0.006103515625
3.853,310,315,357,310,-16.0,42.0,38.0,-2.990722417831421,-8.6669921875,19.53125,-0.74853515625,0.3897705078125,-0.074951171875
3.868,309,322,361,310,-16.0,42.0,38.0,2.13623046875,-3.784179449081421,23.986814498901367,-0.69384765625,0.3870849609375,-0.12109375
3.875,310,323,368,311,-16.0,42.0,38.0,0.3662109076976776,-0.54931640625,27.893064498901367,-0.671142578125,0.3978271484375,-0.143798828125
3.883,310,336,369,310,-18.0,43.0,39.0,0.3662109076976776,-0.54931640625,27.893064498901367,-0.6566162109375,0.39697265625,-0.162353515625
3.896,308,351,378,309,-18.0,43.0,39.0,-17.08984375,5.859374523162842,33.02001953125,-0.6097412109375,0.3914794921875,-0.1715087890625
3.905,309,372,384,310,-18.0,43.0,39.0,-27.160642623901367,9.70458984375,33.3251953125,-0.495849609375,0.3817138671875,-0.11962890625
3.912,306,396,393,310,-18.0,43.0,39.0,-27.160642623901367,9.70458984375,33.3251953125,-0.2724609375,0.3441162109375,0.020263671875
3.933,309,463,436,310,-18.0,43.0,39.0,-43.090816497802734,14.587401390075684,21.850584030151367,0.0948486328125,0.2408447265625,0.26025390625
3.935,310,497,579,310,-18.0,43.0,39.0,-39.85595703125,11.230467796325684,-0.2441406100988388,0.5186767578125,0.0443115234375,0.53369140625
3.944,310,545,763,312,-18.0,43.0,39.0,-31.860349655151367,-2.50244140625,-37.353515625,0.712158203125,-0.0810546875,0.7203369140625
3.956,310,628,958,311,-18.0,43.0,39.0,-20.507810592651367,-29.663084030151367,-81.05467987060547,0.48583984375,-0.010498046875,0.7686767578125
3.965,311,685,1035,313,-18.0,43.0,39.0,6.103515148162842,-56.274410247802734,-113.52538299560547,-0.1707763671875,0.23388671875,0.5291748046875
3.975,310,725,1116,312,-18.0,43.0,39.0,62.561031341552734,-43.762203216552734,-108.94774627685547,-1.1212158203125,0.7568359375,-0.6961669921875
3.986,310,780,1292,314,-16.0,43.0,45.0,120.60546112060547,15.136717796325684,-63.110347747802734,-2.16162109375,1.397705078125,-2.42431640625
3.995,310,806,1392,314,-16.0,43.0,45.0,85.26610565185547,40.893550872802734,-27.526853561401367,-2.68408203125,1.4849853515625,-2.6181640625
4.008,310,837,1457,314,-16.0,43.0,45.0,-43.457027435302734,-0.1220703050494194,-34.1796875,-2.56591796875,0.95458984375,-1.2545166015625
4.035,311,848,1470,313,-16.0,43.0,45.0,-142.63916015625,-46.020503997802734,-48.339839935302734,-2.360595703125,0.3665771484375,0.0633544921875
4.036,310,823,1430,313,-16.0,43.0,45.0,-145.751953125,-58.776851654052734,-42.602535247802734,-2.169921875,0.0667724609375,0.567138671875
4.036,311,827,1447,314,-16.0,43.0,45.0,-74.89013671875,-40.588375091552734,-24.414060592651367,-1.6712646484375,0.0623779296875,0.3642578125
4.047,310,818,1432,313,-16.0,43.0,45.0,12.023924827575684,-13.122557640075684,-9.6435546875,-1.338623046875,0.542236328125,-0.2037353515625
4.057,310,796,1391,312,-16.0,43.0,45.0,53.466793060302734,2.624511480331421,-0.30517578125,-1.675537109375,1.2257080078125,-0.7486572265625
4.063,310,764,1282,314,-16.0,43.0,45.0,31.311033248901367,7.141112804412842,5.249022960662842,-2.1102294921875,1.2203369140625,-0.9007568359375
4.086,310,708,1141,312,-16.0,43.0,45.0,-17.822265625,14.648436546325684,12.023924827575684,-2.2740478515625,0.6846923828125,-0.6484375
4.087,309,671,1035,312,-14.0,43.0,42.0,-50.354000091552734,33.38623046875,33.50830078125,-2.1007080078125,0.2919921875,-0.23095703125
4.093,310,632,922,312,-14.0,43.0,42.0,-47.485347747802734,62.194820404052734,71.4111328125,-1.6767578125,0.2254638671875,0.02392578125
4.115,310,540,740,312,-14.0,43.0,42.0,-17.822265625,93.26171112060547,109.37499237060547,-1.157958984375,0.255126953125,0.026611328125
4.115,311,490,629,312,-14.0,43.0,42.0,17.51708984375,105.71288299560547,122.43651580810547,-0.5859375,0.1932373046875,0.01611328125
4.137,310,439,564,312,-14.0,43.0,42.0,38.63525390625,85.32714080810547,98.69384002685547,0.0224609375,-0.00439453125,0.15673828125
4.138,310,394,447,310,-14.0,43.0,42.0,38.330078125,46.630855560302734,48.828121185302734,0.437744140625,-0.2054443359375,0.25341796875
4.145,310,369,420,310,-14.0,43.0,42.0,22.949216842651367,14.648436546325684,-1.2817381620407104,0.3660888671875,-0.231201171875,0.180419921875
4.153,309,357,417,310,-14.0,43.0,42.0,6.286620616912842,-3.601073980331421,-31.494138717651367,-0.0413818359375,-0.0322265625,0.015380859375
4.170,310,328,407,310,-14.0,43.0,42.0,4.5166015625,-10.070799827575684,-39.1845703125,-0.3914794921875,0.3447265625,-0.22216796875
4.176,310,325,407,308,-14.0,43.0,42.0,21.240232467651367,-6.347655773162842,-33.3251953125,-0.4971923828125,0.727783203125,-0.4559326171875
4.183,308,323,405,310,-17.0,43.0,36.0,37.04833984375,2.38037109375,-24.230955123901367,-0.5562744140625,0.9755859375,-0.646240234375
4.196,309,317,401,310,-17.0,43.0,36.0,35.09521484375,9.1552734375,-14.526366233825684,-0.773193359375,1.0216064453125,-0.7366943359375
4.204,308,316,383,310,-17.0,43.0,36.0,18.1884765625,7.263183116912842,-8.11767578125,-0.9354248046875,0.85791015625,-0.649169921875
4.213,310,312,379,310,-17.0,43.0,36.0,-3.540038824081421,-1.2817381620407104,-10.559081077575684,-0.8828125,0.5684814453125,-0.4342041015625
4.240,309,309,370,308,-17.0,43.0,36.0,-21.972654342651367,-8.97216796875,-17.7001953125,-0.731201171875,0.30712890625,-0.2320556640625
4.241,295,311,364,308,-17.0,43.0,36.0,-30.273435592651367,-10.681151390075684,-19.71435546875,-0.619140625,0.182861328125,-0.12158203125
4.243,309,310,369,311,-17.0,43.0,36.0,-29.357908248901367,-8.4228515625,-11.413573265075684,-0.5556640625,0.1964111328125,-0.04931640625
4.256,310,313,372,309,-17.0,43.0,36.0,-28.625486373901367,-7.324218273162842,2.929687261581421,-0.6873779296875,0.1639404296875,0.0850830078125
4.265,310,311,369,310,-17.0,43.0,36.0,-29.357908248901367,-9.1552734375,14.038084983825684,-0.6873779296875,0.1639404296875,0.0850830078125
4.273,308,312,371,308,-17.0,43.0,36.0,-23.742673873901367,-12.878417015075684,19.775390625,-0.7415771484375,0.135498046875,0.069580078125
4.297,310,314,371,310,-15.0,42.0,45.0,-8.97216796875,-14.770506858825684,25.024412155151367,-0.6864013671875,0.2711181640625,-0.1278076171875
4.297,308,314,370,309,-15.0,42.0,45.0,9.82666015625,-12.939452171325684,32.65380859375,-0.6864013671875,0.2711181640625,-0.1278076171875
4.303,310,317,372,309,-15.0,42.0,45.0,21.789548873901367,-10.070799827575684,40.710445404052734,-0.6513671875,0.360595703125,-0.1365966796875
4.316,309,327,364,310,-15.0,42.0,45.0,18.1884765625,-8.1787109375,46.203609466552734,-0.597412109375,0.4742431640625,-0.0225830078125
4.327,308,336,367,309,-15.0,42.0,45.0,3.601073980331421,-6.591796398162842,46.874996185302734,-0.597412109375,0.4742431640625,-0.0225830078125
4.343,310,356,371,310,-15.0,42.0,45.0,-7.934569835662842,-4.7607421875,42.602535247802734,-0.4810791015625,0.4637451171875,0.019287109375
4.347,310,401,377,312,-15.0,42.0,45.0,-7.629394054412842,-2.13623046875,34.7900390625,0.1207275390625,0.304443359375,0.1146240234375
4.355,310,441,414,309,-15.0,42.0,45.0,0.2441406100988388,-0.8544921278953552,23.925779342651367,0.1207275390625,0.304443359375,0.1146240234375
4.363,310,483,604,312,-15.0,42.0,45.0,9.521484375,-6.958007335662842,8.97216796875,0.5147705078125,0.161376953125,0.33251953125
4.376,312,594,943,312,-16.0,42.0,38.0,19.22607421875,-26.184080123901367,-15.991209983825684,0.7376708984375,-0.2396240234375,0.611083984375
4.386,310,660,1063,312,-16.0,42.0,38.0,32.04345703125,-59.326168060302734,-51.757808685302734,0.164306640625,0.068359375,0.346435546875
4.403,310,718,1122,312,-16.0,42.0,38.0,53.710933685302734,-88.56200408935547,-82.15331268310547,0.164306640625,0.068359375,0.346435546875
4.406,310,786,1338,312,-16.0,42.0,38.0,129.08935546875,-10.559081077575684,-65.61279296875,-2.0843505859375,1.5966796875,-2.2242431640625
4.417,311,840,1437,314,-16.0,42.0,38.0,129.08935546875,-10.559081077575684,-65.61279296875,-2.7099609375,1.614501953125,-2.316650390625
4.423,312,889,1508,312,-16.0,42.0,38.0,71.8994140625,15.808104515075684,-51.574703216552734,-2.7099609375,1.614501953125,-2.316650390625
4.444,310,944,1572,313,-16.0,42.0,38.0,-165.16111755371094,-68.7255859375,-63.171382904052734,-2.564697265625,0.314697265625,-0.0673828125
4.448,312,932,1547,314,-16.0,42.0,38.0,-165.16111755371094,-68.7255859375,-63.171382904052734,-2.459228515625,0.0093994140625,0.3939208984375
4.453,311,891,1538,314,-16.0,42.0,38.0,-162.35350036621094,-77.08740234375,-43.457027435302734,-2.459228515625,0.0093994140625,0.3939208984375
4.491,310,888,1552,314,-16.0,42.0,38.0,-9.521484375,-34.1796875,-4.8828125,-1.235107421875,0.3126220703125,0.1827392578125
4.494,311,871,1527,314,-13.0,42.0,47.0,-9.521484375,-34.1796875,-4.8828125,-1.3790283203125,1.135498046875,-0.2008056640625
4.494,311,848,1468,314,-13.0,42.0,47.0,50.048824310302734,-12.634276390075684,-0.9155272841453552,-1.3790283203125,1.135498046875,-0.2008056640625
4.497,311,792,1295,314,-13.0,42.0,47.0,10.314940452575684,17.822265625,-0.6713866591453552,-2.3714599609375,1.0465087890625,-0.6019287109375
4.507,312,741,1226,312,-13.0,42.0,47.0,10.314940452575684,17.822265625,-0.6713866591453552,-2.2811279296875,0.3765869140625,-0.328857421875
4.520,310,698,1166,314,-13.0,42.0,47.0,-36.1328125,37.04833984375,9.09423828125,-2.2811279296875,0.3765869140625,-0.328857421875
4.548,310,616,1031,312,-13.0,42.0,47.0,-34.72900390625,102.17284393310547,86.79198455810547,-1.36083984375,0.2545166015625,0.1363525390625
4.548,310,551,932,312,-13.0,42.0,47.0,-0.30517578125,125.85448455810547,111.32811737060547,-0.7041015625,0.3121337890625,0.11865234375
4.548,311,490,805,312,-13.0,42.0,47.0,-0.30517578125,125.85448455810547,111.32811737060547,-0.07568359375,0.1304931640625,0.182861328125
4.556,310,402,662,311,-13.0,42.0,47.0,41.992183685302734,84.53368377685547,52.185054779052734,0.418212890625,-0.1055908203125,0.2431640625
4.565,310,384,547,310,-13.0,42.0,47.0,38.330078125,45.898433685302734,0.3662109076976776,0.48486328125,-0.2015380859375,0.1107177734375
4.573,310,365,481,310,-13.0,42.0,47.0,38.330078125,45.898433685302734,0.3662109076976776,0.1295166015625,-0.1275634765625,-0.1298828125
4.587,309,331,430,310,-14.0,40.0,41.0,21.789548873901367,-0.7934569716453552,-45.104976654052734,-0.19140625,0.096435546875,-0.3768310546875
4.595,310,322,411,310,-14.0,40.0,41.0,37.04833984375,-4.2724609375,-41.503902435302734,-0.3004150390625,0.423095703125,-0.5799560546875
4.603,310,322,399,310,-14.0,40.0,41.0,37.04833984375,-4.2724609375,-41.503902435302734,-0.4393310546875,0.745361328125,-0.7137451171875
4.629,310,323,409,310,-14.0,40.0,41.0,61.767574310302734,4.2724609375,-16.845703125,-0.76123046875,0.96240234375,-0.80712890625
4.629,308,323,414,310,-14.0,40.0,41.0,47.119136810302734,-0.7324218153953552,-2.685546636581421,-1.039794921875,0.9547119140625,-0.794189453125
4.652,310,322,406,310,-14.0,40.0,41.0,47.119136810302734,-0.7324218153953552,-2.685546636581421,-1.0455322265625,0.710205078125,-0.6060791015625
4.652,310,315,394,308,-14.0,40.0,41.0,-17.2119140625,-29.968259811401367,-8.36181640625,-0.82421875,0.3741455078125,-0.3212890625
4.655,308,314,386,308,-14.0,40.0,41.0,-39.00146484375,-33.8134765625,-15.502928733825684,-0.6092529296875,0.1246337890625,-0.1044921875
4.663,310,314,391,310,-14.0,40.0,41.0,-39.00146484375,-33.8134765625,-15.502928733825684,-0.5531005859375,0.050048828125,0.0096435546875
4.676,310,312,395,310,-15.0,41.0,41.0,-29.602048873901367,-18.49365234375,-3.723144292831421,-0.6357421875,0.1112060546875,0.1146240234375
4.685,310,312,394,310,-15.0,41.0,41.0,-22.033689498901367,-17.7001953125,8.36181640625,-0.727783203125,0.237548828125,0.2149658203125
4.693,310,312,391,310,-15.0,41.0,41.0,-16.29638671875,-20.629880905151367,16.4794921875,-0.7427978515625,0.3485107421875,0.2025146484375
4.708,310,312,391,310,-15.0,41.0,41.0,-5.187987804412842,-19.6533203125,19.83642578125,-0.742431640625,0.385986328125,0.06298828125
4.753,310,314,387,310,-15.0,41.0,41.0,9.58251953125,-13.671874046325684,21.606443405151367,-0.74560546875,0.3892822265625,-0.095458984375
4.755,310,315,384,310,-15.0,41.0,41.0,20.202634811401367,-5.859374523162842,24.353025436401367,-0.734130859375,0.4200439453125,-0.19677734375
4.755,308,326,385,308,-15.0,41.0,41.0,19.95849609375,0.1220703050494194,28.015134811401367,-0.706298828125,0.468505859375,-0.197509765625
4.755,308,326,384,310,-15.0,41.0,41.0,8.544921875,2.807616949081421,30.639646530151367,-0.6480712890625,0.4566650390625,-0.128173828125
4.755,309,340,386,297,-15.0,41.0,41.0,-4.8828125,3.784179449081421,30.151365280151367,-0.541748046875,0.3619384765625,-0.068115234375
4.768,310,373,382,310,-15.0,41.0,41.0,-10.314940452575684,4.150390625,28.015134811401367,-0.3597412109375,0.2564697265625,-0.036865234375
4.776,308,402,387,310,-15.0,42.0,45.0,-8.7890625,3.112792730331421,26.977537155151367,-0.125244140625,0.2130126953125,-0.0086669921875
4.784,310,431,391,308,-15.0,42.0,45.0,-5.859374523162842,-0.7934569716453552,26.550291061401367,0.13916015625,0.2073974609375,0.1180419921875
4.797,310,518,566,310,-15.0,42.0,45.0,-2.563476324081421,-10.925292015075684,19.83642578125,0.40234375,0.1456298828125,0.3751220703125
4.806,310,566,793,310,-15.0,42.0,45.0,8.23974609375,-32.28759765625,-2.685546636581421,0.5487060546875,0.0550537109375,0.5975341796875
4.813,310,631,938,312,-15.0,42.0,45.0,38.26904296875,-61.706539154052734,-42.663570404052734,0.481201171875,-0.01806640625,0.626953125
4.856,310,715,1024,312,-15.0,42.0,45.0,70.98388671875,-77.63671875,-84.71678924560547,-0.039306640625,0.133544921875,0.21044921875
4.857,310,732,1145,314,-15.0,42.0,45.0,89.78270721435547,-49.560543060302734,-95.88622283935547,-1.01416015625,0.73046875,-0.8948974609375
4.857,311,794,1305,313,-15.0,42.0,45.0,94.17723846435547,9.033203125,-69.15283203125,-1.97021484375,1.3590087890625,-1.9896240234375
4.871,311,846,1477,312,-15.0,42.0,45.0,39.794921875,25.085447311401367,-46.386714935302734,-2.4327392578125,1.32275390625,-1.975830078125
4.884,312,902,1533,313,-15.0,42.0,45.0,-67.87109375,-19.71435546875,-47.729488372802734,-2.4691162109375,0.9007568359375,-1.0982666015625
4.895,311,916,1538,314,-15.0,42.0,36.0,-141.2353515625,-66.71142578125,-47.607418060302734,-2.4462890625,0.5506591796875,-0.339111328125
4.896,310,865,1518,314,-15.0,42.0,36.0,-141.11328125,-77.63671875,-30.883787155151367,-2.4744873046875,0.294189453125,0.0255126953125
4.898,311,861,1506,300,-15.0,42.0,36.0,-95.76415252685547,-57.006832122802734,-5.920409679412842,-2.046142578125,0.1112060546875,0.220947265625
5.051,311,809,1428,314,-15.0,42.0,36.0,-7.019042491912842,8.72802734375,28.259275436401367,-1.6510009765625,0.8367919921875,0.1190185546875
5.051,311,769,1303,314,-15.0,42.0,36.0,5.615233898162842,39.97802734375,51.818843841552734,-2.1124267578125,1.1148681640625,-0.1651611328125
5.081,311,737,1214,313,-15.0,42.0,36.0,11.962889671325684,73.42529296875,70.12939453125,-2.27392578125,0.840087890625,-0.3236083984375
5.081,296,644,1092,311,-15.0,42.0,36.0,16.17431640625,103.39354705810547,84.22850799560547,-1.4224853515625,0.614013671875,-0.0115966796875
5.081,310,620,996,312,-15.0,42.0,36.0,11.352538108825684,122.13134002685547,96.55760955810547,-1.4224853515625,0.614013671875,-0.0115966796875
5.081,311,559,882,312,-15.0,42.0,36.0,9.21630859375,122.86376190185547,93.87206268310547,-0.736328125,0.5167236328125,0.01123046875
5.081,310,475,698,312,-16.0,43.0,40.0,21.179197311401367,99.54833221435547,66.7724609375,0.2745361328125,-0.01611328125,-0.113037109375
5.081,311,426,561,312,-16.0,43.0,40.0,40.161128997802734,62.683101654052734,23.925779342651367,0.2745361328125,-0.01611328125,-0.113037109375
5.081,310,391,494,311,-16.0,43.0,40.0,46.081539154052734,29.663084030151367,-15.930174827575684,0.3177490234375,-0.0157470703125,-0.1995849609375
5.081,310,364,424,310,-16.0,43.0,40.0,32.958984375,8.48388671875,-41.503902435302734,-0.135986328125,0.0224609375,-0.44189453125
5.081,308,352,407,310,-16.0,43.0,40.0,26.428220748901367,5.187987804412842,-50.964351654052734,-0.135986328125,0.0224609375,-0.44189453125
5.081,309,342,402,311,-16.0,43.0,40.0,40.10009765625,15.075682640075684,-44.372554779052734,-0.4007568359375,0.2989501953125,-0.5721435546875
5.081,310,337,418,311,-16.0,43.0,40.0,54.016109466552734,23.315427780151367,-27.587888717651367,-0.8575439453125,0.9925537109375,-0.724853515625
5.081,310,330,421,310,-16.0,43.0,40.0,48.706050872802734,21.057126998901367,-14.221190452575684,-0.8575439453125,0.9925537109375,-0.724853515625
5.082,308,323,415,310,-16.0,43.0,40.0,24.169919967651367,8.23974609375,-10.559081077575684,-1.033203125,0.9620361328125,-0.7247314453125
5.082,308,317,406,310,-16.0,43.0,40.0,-7.080077648162842,-9.521484375,-13.305663108825684,-0.77880859375,0.24072265625,-0.2852783203125
5.082,293,300,398,309,-16.0,41.0,37.0,-33.14208984375,-23.925779342651367,-18.98193359375,-0.596435546875,-0.07080078125,-0.0797119140625
5.084,309,312,393,310,-16.0,41.0,37.0,-45.043941497802734,-27.709959030151367,-23.742673873901367,-0.596435546875,-0.07080078125,-0.0797119140625
5.098,310,314,408,310,-16.0,41.0,37.0,-29.479978561401367,-19.71435546875,-8.7890625,-0.543212890625,0.1107177734375,0.104736328125
5.106,308,312,409,312,-16.0,41.0,37.0,-29.479978561401367,-19.71435546875,-8.7890625,-0.605224609375,0.35400390625,0.117919921875
5.114,310,312,407,310,-16.0,41.0,37.0,-19.47021484375,-21.240232467651367,5.737304210662842,-0.605224609375,0.35400390625,0.117919921875
5.135,310,313,402,308,-16.0,41.0,37.0,-1.7089842557907104,-26.489255905151367,20.263669967651367,-0.7530517578125,0.5355224609375,-0.10791015625
5.136,311,299,386,310,-16.0,41.0,37.0,-1.7089842557907104,-26.489255905151367,20.263669967651367,-0.756591796875,0.484619140625,-0.1973876953125
5.166,310,314,408,310,-16.0,41.0,37.0,11.596678733825684,-23.559568405151367,19.10400390625,-0.756591796875,0.484619140625,-0.1973876953125
5.167,310,322,401,309,-16.0,41.0,37.0,21.667478561401367,-14.892577171325684,16.78466796875,-0.6541748046875,0.3858642578125,-0.197998046875
5.167,310,325,401,310,-16.0,41.0,37.0,21.667478561401367,-14.892577171325684,16.78466796875,-0.5712890625,0.3134765625,-0.1121826171875
5.174,310,340,401,310,-16.0,42.0,38.0,9.033203125,-14.282225608825684,20.263669967651367,-0.5712890625,0.3134765625,-0.1121826171875
5.187,310,383,395,310,-16.0,42.0,38.0,-18.9208984375,-14.160155296325684,27.587888717651367,-0.23046875,0.1961669921875,-0.0452880859375
5.196,310,414,401,310,-16.0,42.0,38.0,-18.9208984375,-14.160155296325684,27.587888717651367,0.030517578125,0.2655029296875,-0.1185302734375
5.204,310,449,395,308,-16.0,42.0,38.0,-23.681638717651367,-15.563963890075684,28.564451217651367,0.030517578125,0.2655029296875,-0.1185302734375
5.218,311,540,563,310,-16.0,42.0,38.0,-12.451170921325684,-39.48974609375,13.916014671325684,0.5369873046875,0.1810302734375,0.3428955078125
5.226,310,585,751,311,-16.0,42.0,38.0,17.27294921875,-65.5517578125,-16.29638671875,0.4976806640625,-0.075927734375,0.5655517578125
5.237,312,630,958,312,-16.0,42.0,38.0,17.27294921875,-65.5517578125,-16.29638671875,0.0621337890625,-0.0142822265625,0.3994140625
5.266,310,732,1156,312,-16.0,42.0,38.0,38.6962890625,-100.21971893310547,-78.9794921875,-0.5745849609375,0.45703125,0.1824951171875
5.266,310,780,1251,313,-16.0,42.0,38.0,24.902341842651367,-83.61815643310547,-86.79198455810547,-1.180419921875,1.038330078125,-0.314208984375
5.268,311,827,1325,313,-16.0,42.0,38.0,24.902341842651367,-83.61815643310547,-86.79198455810547,-1.7882080078125,1.258056640625,-1.2490234375
5.278,311,914,1483,312,-14.0,40.0,37.0,18.61572265625,0.6713866591453552,-67.56591796875,-2.34326171875,0.9853515625,-1.6400146484375
5.286,311,964,1553,313,-14.0,40.0,37.0,-41.870113372802734,-15.991209983825684,-60.913082122802734,-2.5758056640625,0.5821533203125,-1.0478515625
5.296,311,989,1573,314,-14.0,40.0,37.0,-41.870113372802734,-15.991209983825684,-60.913082122802734,-2.5703125,0.3487548828125,-0.209228515625
5.307,310,953,1526,313,-14.0,40.0,37.0,-98.99901580810547,-54.626461029052734,-24.597166061401367,-2.42138671875,0.270263671875,0.266845703125
5.315,311,952,1546,314,-14.0,40.0,37.0,-57.006832122802734,-37.90283203125,-5.493163585662842,-1.7890625,0.19140625,0.3519287109375
5.324,310,943,1545,312,-14.0,40.0,37.0,-57.006832122802734,-37.90283203125,-5.493163585662842,-1.2437744140625,0.4986572265625,0.1246337890625
5.340,311,912,1487,314,-14.0,40.0,37.0,29.174802780151367,19.8974609375,10.314940452575684,-1.5213623046875,1.188720703125,-0.2330322265625
5.346,311,877,1422,314,-14.0,40.0,37.0,8.544921875,37.29248046875,16.6015625,-2.031982421875,1.279296875,-0.4556884765625
5.371,310,835,1344,313,-14.0,40.0,37.0,8.544921875,37.29248046875,16.6015625,-2.2503662109375,0.794677734375,-0.5126953125
5.371,311,761,1225,312,-14.0,42.0,41.0,-27.099607467651367,78.43017578125,35.0341796875,-2.1766357421875,0.4573974609375,-0.428466796875
5.376,310,703,1107,313,-14.0,42.0,41.0,-20.690916061401367,101.31835174560547,62.866207122802734,-1.889892578125,0.445068359375,-0.2947998046875
5.384,310,645,1009,312,-14.0,42.0,41.0,-9.6435546875,121.15477752685547,92.10204315185547,-1.423095703125,0.526611328125,-0.23046875
5.397,310,533,799,310,-14.0,42.0,41.0,2.50244140625,128.47900390625,105.46874237060547,-0.7978515625,0.4161376953125,-0.098388671875
5.406,310,472,673,311,-14.0,42.0,41.0,15.991209983825684,109.92430877685547,88.01268768310547,-0.097900390625,0.076416015625,0.207763671875
5.415,311,433,592,310,-14.0,42.0,41.0,29.357908248901367,68.54248046875,40.283199310302734,0.4556884765625,-0.265380859375,0.434814453125
5.427,310,386,430,310,-14.0,42.0,41.0,34.60693359375,26.000974655151367,-15.747069358825684,0.52880859375,-0.3829345703125,0.3607177734375
5.444,309,343,411,311,-14.0,42.0,41.0,28.076169967651367,-3.173827886581421,-55.236812591552734,0.1695556640625,-0.2529296875,0.0972900390625
5.445,298,326,391,308,-14.0,42.0,41.0,22.583005905151367,-15.014647483825684,-68.2373046875,-0.1763916015625,0.0740966796875,-0.2081298828125
5.473,310,317,373,310,-14.0,42.0,41.0,34.423828125,-8.60595703125,-60.913082122802734,-0.2591552734375,0.5185546875,-0.4703369140625
5.475,310,317,373,310,-14.0,42.0,41.0,53.100582122802734,7.141112804412842,-45.104976654052734,-0.3614501953125,0.9124755859375,-0.67919921875
5.475,310,315,379,310,-13.0,43.0,39.0,55.053707122802734,18.5546875,-26.489255905151367,-0.7308349609375,1.06103515625,-0.8184814453125
5.487,308,312,379,310,-13.0,43.0,39.0,37.78076171875,16.41845703125,-13.610838890075684,-1.08203125,0.9012451171875,-0.83154296875
5.496,310,314,381,308,-13.0,43.0,39.0,10.620116233825684,2.563476324081421,-15.258788108825684,-1.107177734375,0.587158203125,-0.6558837890625
5.504,309,312,384,310,-13.0,43.0,39.0,-17.9443359375,-11.535643577575684,-23.986814498901367,-0.861328125,0.32275390625,-0.3480224609375
5.521,310,312,381,310,-13.0,43.0,39.0,-36.0107421875,-15.197752952575684,-27.343748092651367,-0.65576171875,0.181396484375,-0.114501953125
5.526,308,314,380,310,-13.0,43.0,39.0,-39.12353515625,-9.82666015625,-20.935056686401367,-0.555419921875,0.2432861328125,-0.027099609375
5.533,310,310,382,310,-13.0,43.0,39.0,-38.63525390625,-3.845214605331421,-5.920409679412842,-0.5733642578125,0.3712158203125,-0.012451171875
5.547,310,314,380,309,-13.0,43.0,39.0,-44.555660247802734,-4.33349609375,8.85009765625,-0.6746826171875,0.3013916015625,0.0205078125
5.572,311,314,382,310,-13.0,43.0,39.0,-47.668453216552734,-11.230467796325684,14.343260765075684,-0.715087890625,0.08203125,0.057861328125
5.573,308,314,386,310,-13.0,43.0,39.0,-35.46142578125,-15.808104515075684,13.671874046325684,-0.7032470703125,-0.042236328125,0.0198974609375
5.578,310,317,386,311,-19.0,43.0,38.0,-11.047362327575684,-13.061522483825684,15.747069358825684,-0.6883544921875,0.060302734375,-0.0799560546875
5.586,310,322,382,308,-19.0,43.0,38.0,11.535643577575684,-6.652831554412842,23.681638717651367,-0.71484375,0.27490234375,-0.16064453125
5.594,310,316,377,308,-19.0,43.0,38.0,19.4091796875,-2.746581792831421,33.87451171875,-0.7547607421875,0.4222412109375,-0.1912841796875
5.607,309,326,383,310,-19.0,43.0,38.0,10.681151390075684,-2.0751953125,42.053218841552734,-0.7430419921875,0.4482421875,-0.180419921875
5.616,308,338,383,309,-19.0,43.0,38.0,-6.408690929412842,-1.4648436307907104,45.959468841552734,-0.64111328125,0.410888671875,-0.1444091796875
5.624,310,349,384,311,-19.0,43.0,38.0,-22.460935592651367,0.9155272841453552,45.654293060302734,-0.453857421875,0.367431640625,-0.0975341796875
5.638,310,411,394,311,-19.0,43.0,38.0,-32.65380859375,4.33349609375,42.114253997802734,-0.1580810546875,0.3170166015625,0.0343017578125
5.646,310,467,497,309,-19.0,43.0,38.0,-35.7666015625,6.713866710662842,33.203125,0.2928466796875,0.2218017578125,0.29638671875
5.654,310,521,671,311,-19.0,43.0,38.0,-28.320310592651367,1.5869139432907104,12.573241233825684,0.8194580078125,0.01416015625,0.65869140625
5.681,311,632,1013,312,-14.0,42.0,40.0,-15.197752952575684,-20.751951217651367,-24.291990280151367,1.031982421875,-0.2650146484375,0.904052734375
5.682,297,689,1034,312,-14.0,42.0,40.0,-3.784179449081421,-55.297847747802734,-67.07763671875,0.72265625,-0.2626953125,0.7894287109375
5.684,310,739,1039,311,-14.0,42.0,40.0,20.568845748901367,-73.42529296875,-92.10204315185547,-0.128662109375,0.30517578125,0.0770263671875
5.698,310,827,1300,312,-14.0,42.0,40.0,85.81542205810547,-34.912109375,-79.9560546875,-2.7410888671875,1.791748046875,-2.838623046875
5.706,312,885,1449,313,-14.0,42.0,40.0,132.8125,24.536130905151367,-46.997066497802734,-2.7410888671875,1.791748046875,-2.838623046875
5.714,311,959,1528,314,-14.0,42.0,40.0,52.612300872802734,13.061522483825684,-38.818359375,-3.1619873046875,1.6082763671875,-2.287353515625
5.727,311,987,1561,313,-14.0,42.0,40.0,-98.81591033935547,-52.124019622802734,-50.354000091552734,-2.560302734375,0.1622314453125,0.1793212890625
5.736,310,944,1527,314,-14.0,42.0,40.0,-181.64060974121094,-90.14891815185547,-47.485347747802734,-2.560302734375,0.1622314453125,0.1793212890625
5.754,311,935,1551,314,-14.0,42.0,40.0,-159.48486328125,-78.61328125,-28.747556686401367,-2.2274169921875,-0.17626953125,0.4254150390625
5.769,310,931,1547,312,-14.0,42.0,40.0,-77.5146484375,-48.583980560302734,-8.11767578125,-1.20947265625,0.6280517578125,0.18994140625
5.775,310,902,1514,313,-12.0,40.0,42.0,1.0986328125,-27.099607467651367,6.042479991912842,-1.20947265625,0.6280517578125,0.18994140625
5.775,311,868,1432,314,-12.0,40.0,42.0,39.61181640625,-8.85009765625,17.822265625,-1.8048095703125,1.4298095703125,-0.27294921875
5.787,310,803,1286,313,-12.0,40.0,42.0,35.2783203125,13.122557640075684,22.949216842651367,-2.332763671875,0.56884765625,-0.551513671875
5.796,311,756,1236,313,-12.0,40.0,42.0,9.70458984375,39.4287109375,27.587888717651367,-2.332763671875,0.56884765625,-0.551513671875
5.805,310,711,1170,312,-12.0,40.0,42.0,-8.056640625,72.265625,53.466793060302734,-2.0382080078125,0.187255859375,-0.20947265625
5.820,310,622,981,312,-12.0,40.0,42.0,-11.718749046325684,104.12596893310547,94.97069549560547,-0.7396240234375,0.3460693359375,0.1678466796875
5.826,310,558,877,310,-12.0,40.0,42.0,-5.615233898162842,119.20165252685547,122.19237518310547,-0.7396240234375,0.3460693359375,0.1678466796875
5.834,312,508,769,312,-12.0,40.0,42.0,11.352538108825684,105.65184783935547,111.69432830810547,-0.1649169921875,0.228515625,0.229736328125
5.851,310,442,630,310,-12.0,40.0,42.0,48.461910247802734,27.954099655151367,5.065917491912842,0.40625,-0.0865478515625,0.0765380859375
5.877,310,411,561,311,-12.0,40.0,42.0,48.461910247802734,27.954099655151367,5.065917491912842,0.1505126953125,-0.0369873046875,-0.1417236328125
5.878,297,372,481,310,-16.0,42.0,33.0,45.593257904052734,-2.13623046875,-40.161128997802734,0.1505126953125,-0.0369873046875,-0.1417236328125
5.878,310,338,421,310,-16.0,42.0,33.0,49.499507904052734,-14.404295921325684,-50.048824310302734,-0.3480224609375,0.18017578125,-0.5225830078125
5.893,310,336,408,308,-16.0,42.0,33.0,49.499507904052734,-14.404295921325684,-50.048824310302734,-0.4598388671875,0.4874267578125,-0.6568603515625
5.895,310,329,406,310,-16.0,42.0,33.0,78.125,-0.4882812201976776,-30.151365280151367,-0.4598388671875,0.4874267578125,-0.6568603515625
5.903,310,326,410,310,-16.0,42.0,33.0,97.77831268310547,10.742186546325684,-7.446288585662842,-0.6875,0.86376953125,-0.7542724609375
5.919,308,322,407,310,-16.0,42.0,33.0,89.59960174560547,10.131834983825684,8.544921875,-1.0736083984375,0.9100341796875,-0.732666015625
5.925,309,315,399,310,-16.0,42.0,33.0,52.734371185302734,-4.2724609375,9.1552734375,-0.9139404296875,0.5289306640625,-0.4498291015625
5.932,310,314,394,310,-16.0,42.0,33.0,0.0610351525247097,-24.780271530151367,-2.563476324081421,-0.9139404296875,0.5289306640625,-0.4498291015625
5.953,310,311,379,309,-16.0,42.0,33.0,-56.579586029052734,-30.578611373901367,-16.357421875,-0.59423828125,0.061279296875,0.0069580078125
5.955,310,312,372,308,-16.0,42.0,33.0,-56.579586029052734,-30.578611373901367,-16.357421875,-0.6025390625,0.11962890625,0.0858154296875
5.981,310,311,379,310,-14.0,44.0,37.0,-44.616695404052734,-18.12744140625,-8.056640625,-0.6025390625,0.11962890625,0.0858154296875
5.982,295,309,381,309,-14.0,44.0,37.0,-8.11767578125,-7.202147960662842,13.671874046325684,-0.7110595703125,0.3575439453125,0.061279296875
5.986,308,310,380,308,-14.0,44.0,37.0,-8.11767578125,-7.202147960662842,13.671874046325684,-0.7445068359375,0.346923828125,-0.013916015625
6.001,309,308,377,309,-14.0,44.0,37.0,5.737304210662842,-8.9111328125,18.98193359375,-0.7445068359375,0.346923828125,-0.013916015625
6.006,308,313,372,310,-14.0,44.0,37.0,18.98193359375,-9.765625,25.085447311401367,-0.6978759765625,0.2601318359375,-0.1336669921875
6.015,310,313,378,310,-14.0,44.0,37.0,18.98193359375,-9.765625,25.085447311401367,-0.652099609375,0.3809814453125,-0.128173828125
6.024,310,312,377,310,-14.0,44.0,37.0,21.545408248901367,-4.33349609375,29.968259811401367,-0.652099609375,0.3809814453125,-0.128173828125
6.037,309,315,371,310,-14.0,44.0,37.0,-0.0610351525247097,-2.44140625,34.85107421875,-0.614501953125,0.4581298828125,-0.019287109375
6.045,310,323,373,310,-14.0,44.0,37.0,-0.0610351525247097,-2.44140625,34.85107421875,-0.5057373046875,0.3201904296875,0.000732421875
6.057,310,336,371,309,-14.0,44.0,37.0,-17.9443359375,-7.812499523162842,31.738279342651367,-0.5057373046875,0.3201904296875,0.000732421875
6.077,310,382,377,310,-16.0,41.0,41.0,-39.73388671875,-11.596678733825684,29.174802780151367,0.0284423828125,0.2218017578125,0.1622314453125
6.084,310,418,390,308,-16.0,41.0,41.0,-36.92626953125,-6.164550304412842,23.193357467651367,0.524169921875,0.248046875,0.4815673828125
6.085,310,465,521,310,-16.0,41.0,41.0,-36.92626953125,-6.164550304412842,23.193357467651367,0.8450927734375,0.0850830078125,0.794189453125
6.096,310,564,938,312,-16.0,41.0,41.0,8.36181640625,-14.038084983825684,-36.43798828125,0.6943359375,-0.0904541015625,0.73779296875
6.104,310,631,1055,312,-16.0,41.0,41.0,16.2353515625,-44.128414154052734,-77.08740234375,0.220703125,0.2127685546875,0.3057861328125
6.113,310,695,1101,313,-16.0,41.0,41.0,16.2353515625,-44.128414154052734,-77.08740234375,-0.5789794921875,0.81103515625,-0.7083740234375
6.126,310,766,1286,312,-16.0,41.0,41.0,73.66943359375,-31.555173873901367,-90.27098846435547,-1.689453125,1.3441162109375,-2.2130126953125
6.135,311,818,1429,312,-16.0,41.0,41.0,86.97509002685547,6.164550304412842,-61.157222747802734,-2.407958984375,1.4285888671875,-2.574462890625
6.143,311,868,1540,314,-16.0,41.0,41.0,86.97509002685547,6.164550304412842,-61.157222747802734,-2.536865234375,0.8382568359375,-1.360107421875
6.161,311,943,1615,314,-16.0,41.0,41.0,-130.37109375,-73.1201171875,-56.091304779052734,-2.475341796875,0.2703857421875,-0.0999755859375
6.165,310,958,1611,313,-14.0,42.0,42.0,-161.56004333496094,-85.44921112060547,-44.494625091552734,-2.484375,0.1661376953125,0.3438720703125
6.182,312,927,1595,314,-14.0,42.0,42.0,-161.56004333496094,-85.44921112060547,-44.494625091552734,-2.3193359375,0.2412109375,0.32080078125
6.187,310,927,1619,314,-14.0,42.0,42.0,-53.283687591552734,-37.53662109375,-7.263183116912842,-1.5655517578125,0.213134765625,0.285888671875
6.197,310,916,1595,314,-14.0,42.0,42.0,-0.54931640625,-18.6767578125,-5.981444835662842,-1.1087646484375,0.5421142578125,0.1873779296875
6.203,311,886,1557,314,-14.0,42.0,42.0,-0.54931640625,-18.6767578125,-5.981444835662842,-1.5184326171875,1.16552734375,-0.1326904296875
6.216,311,846,1450,313,-14.0,42.0,42.0,23.803709030151367,15.380858421325684,2.0751953125,-2.014892578125,1.139892578125,-0.44140625
6.225,310,805,1357,312,-14.0,42.0,42.0,-0.1220703050494194,29.968259811401367,4.82177734375,-2.1402587890625,0.6605224609375,-0.471923828125
6.233,310,770,1297,312,-14.0,42.0,42.0,-17.39501953125,43.457027435302734,16.78466796875,-1.9681396484375,0.395263671875,-0.3333740234375
6.247,311,676,1175,312,-14.0,42.0,42.0,-15.014647483825684,57.250972747802734,40.710445404052734,-1.6539306640625,0.4278564453125,-0.2080078125
6.262,311,622,1081,312,-14.0,42.0,42.0,-0.6713866591453552,69.39697265625,66.89453125,-1.2386474609375,0.534423828125,-0.1309814453125
6.263,295,561,984,312,-14.0,41.0,38.0,15.747069358825684,75.13427734375,80.81053924560547,-0.72216796875,0.4039306640625,-0.0517578125
6.287,310,481,805,312,-14.0,41.0,38.0,30.761716842651367,66.7724609375,70.1904296875,-0.1845703125,0.0379638671875,0.0889892578125
6.287,310,438,705,311,-14.0,41.0,38.0,39.36767578125,44.494625091552734,40.10009765625,0.215087890625,-0.2723388671875,0.2410888671875
6.293,310,407,614,310,-14.0,41.0,38.0,37.7197265625,19.83642578125,5.615233898162842,0.24267578125,-0.3089599609375,0.2188720703125
6.318,310,357,481,311,-14.0,41.0,38.0,32.28759765625,2.38037109375,-20.080564498901367,-0.05859375,-0.125,-0.029541015625
6.318,310,337,437,310,-14.0,41.0,38.0,35.400390625,-5.432128429412842,-33.02001953125,-0.355224609375,0.14013671875,-0.32373046875
6.323,310,328,401,310,-14.0,41.0,38.0,48.706050872802734,-5.493163585662842,-35.58349609375,-0.4942626953125,0.4046630859375,-0.5013427734375
6.337,308,324,386,310,-14.0,41.0,38.0,64.697265625,0.4882812201976776,-28.930662155151367,-0.553955078125,0.6678466796875,-0.610595703125
6.345,310,322,384,310,-14.0,41.0,38.0,72.69287109375,8.60595703125,-15.014647483825684,-0.6956787109375,0.88427734375,-0.711669921875
6.353,309,319,384,310,-14.0,41.0,38.0,60.241695404052734,9.46044921875,-1.9531248807907104,-0.890869140625,0.9111328125,-0.7349853515625
6.367,309,322,391,309,-15.0,41.0,42.0,28.198240280151367,-2.13623046875,1.8310545682907104,-0.9644775390625,0.733642578125,-0.577392578125
6.379,308,315,385,308,-15.0,41.0,42.0,-8.544921875,-20.568845748901367,-3.601073980331421,-0.8656005859375,0.4534912109375,-0.262451171875
6.392,310,315,379,309,-15.0,41.0,42.0,-30.517576217651367,-32.77587890625,-12.023924827575684,-0.683837890625,0.2265625,0.0
6.397,309,314,378,309,-15.0,41.0,42.0,-29.418943405151367,-29.785154342651367,-14.892577171325684,-0.5791015625,0.129638671875,0.0814208984375
6.404,310,315,379,310,-15.0,41.0,42.0,-15.869139671325684,-18.1884765625,-7.934569835662842,-0.647216796875,0.1468505859375,0.0701904296875
6.413,310,314,380,310,-15.0,41.0,42.0,-6.713866710662842,-11.291502952575684,4.8828125,-0.7659912109375,0.26123046875,0.0616455078125
6.431,310,316,371,310,-15.0,41.0,42.0,-6.164550304412842,-12.207030296325684,16.11328125,-0.8050537109375,0.3721923828125,0.0408935546875
6.436,308,315,368,310,-15.0,41.0,42.0,-4.82177734375,-14.221190452575684,21.606443405151367,-0.789306640625,0.3868408203125,-0.0301513671875
6.443,309,315,368,310,-15.0,41.0,42.0,5.065917491912842,-11.596678733825684,23.071287155151367,-0.7547607421875,0.3389892578125,-0.1297607421875
6.457,310,315,371,310,-15.0,41.0,42.0,18.4326171875,-4.82177734375,25.024412155151367,-0.7021484375,0.29638671875,-0.1988525390625
6.467,310,316,377,310,-16.0,41.0,43.0,23.742673873901367,1.5869139432907104,29.724119186401367,-0.64990234375,0.293212890625,-0.1929931640625
6.473,310,317,372,310,-16.0,41.0,43.0,16.29638671875,4.8828125,35.70556640625,-0.620849609375,0.3297119140625,-0.1209716796875
6.487,308,326,367,310,-16.0,41.0,43.0,2.624511480331421,5.615233898162842,39.6728515625,-0.6103515625,0.3853759765625,-0.0367431640625
6.495,309,328,369,310,-16.0,41.0,43.0,-9.70458984375,4.57763671875,39.24560546875,-0.54150390625,0.4229736328125,0.0238037109375
6.503,311,349,373,310,-16.0,41.0,43.0,-17.822265625,2.50244140625,33.935546875,-0.3485107421875,0.3848876953125,0.072998046875
6.516,310,402,420,310,-16.0,41.0,43.0,-20.385740280151367,0.1220703050494194,25.390623092651367,0.0137939453125,0.284423828125,0.14404296875
6.531,310,453,612,310,-16.0,41.0,43.0,-20.324705123901367,-3.356933355331421,15.197752952575684,0.479736328125,0.1566162109375,0.3096923828125
6.538,310,516,827,312,-16.0,41.0,43.0,-19.10400390625,-12.939452171325684,-0.1831054538488388,0.8880615234375,-0.0157470703125,0.5751953125
6.546,310,629,1132,314,-16.0,41.0,43.0,-10.131834983825684,-33.87451171875,-26.062009811401367,0.6771240234375,-0.1138916015625,0.518310546875
6.555,310,693,1153,312,-16.0,41.0,43.0,10.559081077575684,-57.189937591552734,-58.593746185302734,0.6771240234375,-0.1138916015625,0.518310546875
6.568,310,739,1198,313,-15.0,41.0,41.0,47.729488372802734,-53.161617279052734,-77.1484375,-0.30029296875,0.36474609375,-0.4222412109375
6.583,311,837,1447,312,-15.0,41.0,41.0,96.06932830810547,-3.906249761581421,-63.964839935302734,-2.7047119140625,1.4434814453125,-2.298095703125
6.589,310,912,1572,313,-15.0,41.0,41.0,98.32762908935547,41.198726654052734,-36.56005859375,-2.7047119140625,1.4434814453125,-2.298095703125
6.594,310,966,1627,314,-15.0,41.0,41.0,8.48388671875,20.629880905151367,-26.367185592651367,-3.0941162109375,1.1900634765625,-1.77490234375
6.606,312,989,1648,313,-15.0,41.0,41.0,-112.85399627685547,-40.283199310302734,-25.085447311401367,-2.78125,0.2596435546875,0.1361083984375
6.615,311,943,1628,314,-15.0,41.0,41.0,-166.80906677246094,-74.8291015625,-11.108397483825684,-2.78125,0.2596435546875,0.1361083984375
6.623,312,943,1650,314,-15.0,41.0,41.0,-132.38525390625,-58.715816497802734,12.512206077575684,-2.2322998046875,0.1756591796875,0.466064453125
6.639,311,923,1632,314,-15.0,41.0,41.0,-63.476558685302734,-20.446775436401367,25.512693405151367,-1.2642822265625,0.9310302734375,0.2470703125
6.650,310,886,1583,314,-15.0,41.0,41.0,-9.58251953125,9.58251953125,25.207517623901367,-1.2642822265625,0.9310302734375,0.2470703125
6.654,311,827,1502,314,-15.0,41.0,41.0,17.7001953125,32.1044921875,26.855466842651367,-1.8927001953125,1.490478515625,-0.26220703125
6.673,310,756,1318,312,-19.0,43.0,40.0,22.583005905151367,52.551265716552734,26.977537155151367,-2.4227294921875,0.7574462890625,-0.62158203125
6.675,310,698,1260,299,-19.0,43.0,40.0,13.305663108825684,72.81494140625,29.785154342651367,-2.060546875,0.509521484375,-0.2327880859375
6.698,310,657,1153,312,-19.0,43.0,40.0,-1.4648436307907104,93.81102752685547,49.011226654052734,-2.060546875,0.509521484375,-0.2327880859375
6.698,310,546,923,312,-19.0,43.0,40.0,-7.019042491912842,106.75048065185547,86.05956268310547,-0.5174560546875,0.1793212890625,0.36572265625
6.706,311,488,785,312,-19.0,43.0,40.0,-7.019042491912842,106.75048065185547,86.05956268310547,0.1590576171875,-0.1824951171875,0.3519287109375
6.714,310,437,614,310,-19.0,43.0,40.0,21.972654342651367,83.31298065185547,65.49072265625,0.1590576171875,-0.1824951171875,0.3519287109375
6.727,310,379,449,311,-19.0,43.0,40.0,65.24658203125,13.610838890075684,-33.203125,0.716796875,-0.3997802734375,-0.20166015625
6.736,309,360,393,310,-19.0,43.0,40.0,65.24658203125,13.610838890075684,-33.203125,0.3836669921875,-0.3189697265625,-0.4075927734375
6.748,310,355,379,310,-19.0,43.0,40.0,62.194820404052734,-4.45556640625,-61.950679779052734,0.3836669921875,-0.3189697265625,-0.4075927734375
6.761,310,340,378,310,-16.0,44.0,42.0,91.18651580810547,19.59228515625,-26.916501998901367,-0.5054931640625,0.870361328125,-0.7137451171875
6.773,308,338,394,310,-16.0,44.0,42.0,86.85301971435547,29.785154342651367,-2.685546636581421,-0.836181640625,1.3201904296875,-0.9669189453125
6.774,310,340,414,310,-16.0,44.0,42.0,86.85301971435547,29.785154342651367,-2.685546636581421,-1.080078125,1.2213134765625,-1.016845703125
6.800,310,340,450,310,-16.0,44.0,42.0,-2.38037109375,-18.24951171875,-7.202147960662842,-1.2142333984375,0.878662109375,-0.843505859375
6.801,310,322,439,310,-16.0,44.0,42.0,-32.3486328125,-41.381832122802734,-15.808104515075684,-1.1505126953125,0.516357421875,-0.61572265625
6.804,310,328,436,311,-16.0,44.0,42.0,-32.3486328125,-41.381832122802734,-15.808104515075684,-0.9097900390625,0.1689453125,-0.4034423828125
6.817,310,322,410,310,-16.0,44.0,42.0,-62.683101654052734,-42.419429779052734,-19.287109375,-0.660400390625,-0.0770263671875,-0.142822265625
6.826,310,323,399,308,-16.0,44.0,42.0,-70.9228515625,-32.28759765625,-9.8876953125,-0.5621337890625,-0.1353759765625,0.1346435546875
6.834,310,323,394,309,-16.0,44.0,42.0,-70.9228515625,-32.28759765625,-9.8876953125,-0.56396484375,-0.012451171875,0.325439453125
6.851,310,325,398,310,-16.0,44.0,42.0,-42.602535247802734,-20.080564498901367,16.05224609375,-0.575927734375,0.193603515625,0.35595703125
6.856,309,324,396,310,-15.0,41.0,39.0,-18.4326171875,-19.95849609375,24.414060592651367,-0.6328125,0.393310546875,0.212646484375
6.864,310,325,391,310,-15.0,41.0,39.0,-18.4326171875,-19.95849609375,24.414060592651367,-0.7362060546875,0.5228271484375,0.0115966796875
6.882,310,323,384,310,-15.0,41.0,39.0,11.779784202575684,-16.9677734375,32.16552734375,-0.7879638671875,0.582275390625,-0.1131591796875
6.903,310,325,384,310,-15.0,41.0,39.0,21.240232467651367,-12.207030296325684,30.212400436401367,-0.765625,0.604248046875,-0.1680908203125
6.903,309,325,381,310,-15.0,41.0,39.0,21.240232467651367,-12.207030296325684,30.212400436401367,-0.7264404296875,0.580078125,-0.1842041015625
6.908,310,328,373,311,-15.0,41.0,39.0,14.587401390075684,-1.6479490995407104,22.766111373901367,-0.6767578125,0.4884033203125,-0.1563720703125
6.916,310,331,371,310,-15.0,41.0,39.0,0.7934569716453552,-0.6103515625,20.263669967651367,-0.6009521484375,0.372314453125,-0.1102294921875
6.924,310,339,364,310,-15.0,41.0,39.0,-7.812499523162842,0.0,19.6533203125,-0.458740234375,0.285888671875,-0.0455322265625
6.938,308,386,371,310,-15.0,41.0,39.0,-10.559081077575684,1.2817381620407104,19.287109375,-0.2132568359375,0.2254638671875,0.0426025390625
6.946,309,426,371,311,-15.0,41.0,39.0,-11.230467796325684,1.4038084745407104,16.66259765625,0.145751953125,0.1712646484375,0.177978515625
6.958,310,465,386,310,-15.0,41.0,39.0,-9.6435546875,-3.906249761581421,9.58251953125,0.560302734375,0.0853271484375,0.377685546875
6.968,311,576,796,312,-18.0,41.0,36.0,-2.868652105331421,-20.996091842651367,-6.530761241912842,0.798583984375,-0.0394287109375,0.5596923828125
7.005,310,723,1105,312,-18.0,41.0,36.0,67.32177734375,-85.75438690185547,-71.83837890625,0.2896728515625,0.204833984375,0.3291015625
7.006,310,827,1253,298,-18.0,41.0,36.0,103.69872283935547,-75.50048828125,-97.59520721435547,-0.632568359375,0.86669921875,-0.9522705078125
7.007,296,891,1437,299,-18.0,41.0,36.0,104.18700408935547,-25.939939498901367,-96.92382049560547,-1.6083984375,1.3304443359375,-2.1600341796875
7.015,310,966,1582,314,-18.0,41.0,36.0,40.161128997802734,-1.0986328125,-84.77782440185547,-2.172607421875,1.1456298828125,-2.1480712890625
7.023,312,1025,1664,314,-18.0,41.0,36.0,-76.416015625,-33.69140625,-76.416015625,-2.41748046875,0.5855712890625,-1.070556640625
7.037,311,1108,1734,311,-18.0,41.0,36.0,-156.25,-73.54736328125,-57.861324310302734,-2.568359375,0.1962890625,0.033935546875
7.045,310,1101,1711,314,-18.0,41.0,36.0,-146.05712890625,-74.70703125,-27.038572311401367,-2.732421875,0.1551513671875,0.514404296875
7.055,310,1042,1681,314,-18.0,41.0,36.0,-86.79198455810547,-48.278804779052734,-3.173827886581421,-2.6619873046875,0.2279052734375,0.4803466796875
7.067,311,1025,1669,313,-10.0,41.0,40.0,-31.188962936401367,-21.301267623901367,5.676269054412842,-1.7098388671875,0.182373046875,0.3433837890625
7.083,311,1018,1655,314,-10.0,41.0,40.0,8.11767578125,-0.6103515625,2.746581792831421,-0.961669921875,0.599365234375,0.194580078125
7.084,312,989,1621,312,-10.0,41.0,40.0,31.188962936401367,18.61572265625,-0.2441406100988388,-1.4178466796875,1.3194580078125,-0.1962890625
7.108,308,917,1509,312,-10.0,41.0,40.0,28.808591842651367,35.888671875,-0.9155272841453552,-2.1162109375,1.380615234375,-0.6475830078125
7.108,310,861,1430,314,-10.0,41.0,40.0,0.0610351525247097,45.654293060302734,-0.7934569716453552,-2.3837890625,0.896484375,-0.74462890625
7.114,311,813,1352,314,-10.0,41.0,40.0,-33.447265625,47.973628997802734,8.23974609375,-2.2523193359375,0.4427490234375,-0.4837646484375
7.127,311,713,1219,312,-10.0,41.0,40.0,-43.457027435302734,51.025386810302734,28.564451217651367,-1.933349609375,0.330810546875,-0.129150390625
7.135,312,644,1115,312,-10.0,41.0,40.0,-23.376462936401367,61.218257904052734,55.969234466552734,-1.552734375,0.536865234375,0.031005859375
7.145,309,555,959,312,-10.0,41.0,40.0,6.286620616912842,75.1953125,77.57568359375,-1.0517578125,0.57421875,0.006591796875
7.157,310,452,700,312,-14.0,44.0,38.0,25.756834030151367,81.60399627685547,76.904296875,-0.39013671875,0.183349609375,0.025390625
7.171,310,387,579,311,-14.0,44.0,38.0,34.66796875,72.509765625,49.865718841552734,0.341552734375,-0.3231201171875,0.1373291015625
7.174,310,344,496,308,-14.0,44.0,38.0,36.19384765625,52.001949310302734,6.347655773162842,0.7392578125,-0.6549072265625,0.11474609375
7.187,309,329,371,310,-14.0,44.0,38.0,33.3251953125,29.296873092651367,-35.7666015625,0.578369140625,-0.64501953125,-0.1163330078125
7.215,310,324,367,310,-14.0,44.0,38.0,32.1044921875,10.437010765075684,-57.495113372802734,0.2381591796875,-0.126220703125,-0.3021240234375
7.215,310,325,369,310,-14.0,44.0,38.0,33.5693359375,-1.4038084745407104,-54.565425872802734,-0.0333251953125,0.6396484375,-0.4156494140625
7.217,308,319,367,309,-14.0,44.0,38.0,36.4990234375,-5.310058116912842,-35.5224609375,-0.430419921875,1.16845703125,-0.6265869140625
7.225,310,322,373,310,-14.0,44.0,38.0,33.3251953125,-9.09423828125,-10.620116233825684,-0.918212890625,1.2646484375,-0.8109130859375
7.234,310,317,372,308,-14.0,44.0,38.0,16.78466796875,-21.911619186401367,2.807616949081421,-1.14111328125,0.970458984375,-0.7210693359375
7.247,308,322,373,310,-14.0,44.0,38.0,-7.385253429412842,-39.36767578125,-4.82177734375,-1.0631103515625,0.552490234375,-0.414794921875
7.255,309,314,371,308,-14.0,39.0,42.0,-24.780271530151367,-47.119136810302734,-20.446775436401367,-0.854736328125,0.2706298828125,-0.1279296875
7.262,310,317,371,310,-14.0,39.0,42.0,-27.648923873901367,-39.0625,-28.930662155151367,-0.69970703125,0.153076171875,0.0028076171875
7.276,308,315,371,310,-14.0,39.0,42.0,-23.010251998901367,-25.146482467651367,-25.512693405151367,-0.6541748046875,0.1336669921875,0.0675048828125
7.285,310,315,373,311,-14.0,39.0,42.0,-21.789548873901367,-16.90673828125,-13.916014671325684,-0.6429443359375,0.1834716796875,0.14453125
7.314,310,317,371,310,-14.0,39.0,42.0,-26.062009811401367,-15.136717796325684,-1.0986328125,-0.71337890625,0.2244873046875,0.1800537109375
7.314,308,315,367,310,-14.0,39.0,42.0,-28.320310592651367,-16.4794921875,6.652831554412842,-0.7962646484375,0.160400390625,0.006591796875
7.315,311,315,368,308,-14.0,39.0,42.0,-18.49365234375,-16.05224609375,9.27734375,-0.7962646484375,0.160400390625,0.006591796875
7.324,310,317,368,310,-14.0,39.0,42.0,1.0986328125,-10.620116233825684,13.061522483825684,-0.726318359375,0.1978759765625,-0.12890625
7.336,308,323,364,310,-14.0,39.0,42.0,16.54052734375,-4.94384765625,20.324705123901367,-0.64501953125,0.357177734375,-0.1407470703125
7.346,308,322,367,310,-14.0,39.0,42.0,17.63916015625,-2.990722417831421,28.381345748901367,-0.64501953125,0.357177734375,-0.1407470703125
7.354,310,324,367,310,-13.0,40.0,40.0,6.347655773162842,-3.601073980331421,33.935546875,-0.6678466796875,0.4266357421875,-0.0859375
7.367,310,338,364,310,-13.0,40.0,40.0,-6.347655773162842,-4.21142578125,34.5458984375,-0.5792236328125,0.4287109375,-0.0201416015625
7.381,310,359,364,310,-13.0,40.0,40.0,-12.084959983825684,-2.929687261581421,30.639646530151367,-0.5792236328125,0.4287109375,-0.0201416015625
7.389,309,391,365,310,-13.0,40.0,40.0,-11.230467796325684,-0.7934569716453552,25.756834030151367,-0.373046875,0.3974609375,0.0159912109375
7.396,310,450,415,310,-13.0,40.0,40.0,-6.958007335662842,-1.03759765625,21.850584030151367,0.304931640625,0.1092529296875,0.2393798828125
7.408,310,497,608,311,-13.0,40.0,40.0,-1.4648436307907104,-7.629394054412842,17.08984375,0.304931640625,0.1092529296875,0.2393798828125
7.413,309,568,858,312,-13.0,40.0,40.0,3.417968511581421,-25.512693405151367,7.202147960662842,0.6087646484375,-0.0576171875,0.4906005859375
7.427,310,688,1096,311,-13.0,40.0,40.0,10.437010765075684,-53.466793060302734,-15.808104515075684,0.391845703125,-0.2506103515625,0.325927734375
7.436,312,731,1098,312,-13.0,40.0,40.0,34.36279296875,-72.021484375,-48.828121185302734,0.391845703125,-0.2506103515625,0.325927734375
7.445,310,782,1219,314,-13.0,40.0,40.0,81.48192596435547,-52.062984466552734,-64.697265625,-0.4986572265625,0.388671875,-0.747314453125
7.457,310,873,1498,312,-15.0,42.0,41.0,74.951171875,10.864256858825684,-38.4521484375,-2.22802734375,1.4921875,-1.965576171875
7.465,311,932,1613,314,-15.0,42.0,41.0,74.951171875,10.864256858825684,-38.4521484375,-2.498291015625,1.1158447265625,-1.175537109375
7.473,311,996,1683,314,-15.0,42.0,41.0,-33.75244140625,-28.808591842651367,-40.771480560302734,-2.498291015625,1.1158447265625,-1.175537109375
7.489,311,1039,1723,314,-15.0,42.0,41.0,-132.6904296875,-82.09227752685547,-20.996091842651367,-2.652587890625,0.399169921875,0.21875
7.495,312,994,1694,314,-15.0,42.0,41.0,-132.6904296875,-82.09227752685547,-20.996091842651367,-2.460693359375,0.3131103515625,0.4454345703125
7.506,311,975,1697,314,-15.0,42.0,41.0,-100.64696502685547,-69.82421875,-3.906249761581421,-2.460693359375,0.3131103515625,0.4454345703125
7.523,310,963,1681,314,-15.0,42.0,41.0,-14.343260765075684,-13.916014671325684,0.8544921278953552,-1.090576171875,0.4454345703125,0.422607421875
7.525,311,944,1640,299,-15.0,42.0,41.0,-14.343260765075684,-13.916014671325684,0.8544921278953552,-1.5963134765625,1.1298828125,0.1009521484375
7.533,297,917,1572,314,-15.0,42.0,41.0,14.892577171325684,13.000487327575684,0.30517578125,-1.5963134765625,1.1298828125,0.1009521484375
7.549,310,840,1413,313,-15.0,42.0,41.0,10.742186546325684,59.875484466552734,13.061522483825684,-2.47509765625,0.8099365234375,-0.567626953125
7.556,311,785,1338,312,-13.0,41.0,42.0,10.742186546325684,59.875484466552734,13.061522483825684,-2.3211669921875,0.3990478515625,-0.4195556640625
7.563,312,739,1275,310,-13.0,41.0,42.0,-7.446288585662842,79.4677734375,28.015134811401367,-2.3211669921875,0.3990478515625,-0.4195556640625
7.577,310,638,1103,310,-13.0,41.0,42.0,-20.751951217651367,104.98046112060547,83.49608612060547,-1.26171875,0.3955078125,0.1046142578125
7.599,311,577,952,313,-13.0,41.0,42.0,-20.751951217651367,104.98046112060547,83.49608612060547,-0.565673828125,0.309814453125,0.1607666015625
7.621,310,522,823,313,-13.0,41.0,42.0,-6.408690929412842,104.49217987060547,96.49657440185547,0.0921630859375,-0.0899658203125,0.1865234375
7.622,311,441,634,310,-13.0,41.0,42.0,44.250484466552734,54.138179779052734,33.3251953125,0.591064453125,-0.436767578125,0.1409912109375
7.622,311,411,551,312,-13.0,41.0,42.0,53.344722747802734,26.550291061401367,-13.061522483825684,0.57666015625,-0.510498046875,-0.0587158203125
7.623,298,367,499,311,-13.0,41.0,42.0,53.344722747802734,26.550291061401367,-13.061522483825684,0.1553955078125,-0.297119140625,-0.265625
7.637,308,344,394,310,-13.0,41.0,42.0,50.720211029052734,-1.6479490995407104,-49.865718841552734,-0.1240234375,0.178955078125,-0.3458251953125
7.645,310,336,381,310,-13.0,41.0,42.0,58.166500091552734,0.0610351525247097,-41.259761810302734,-0.2427978515625,0.729736328125,-0.4559326171875
7.654,310,329,387,310,-15.0,43.0,37.0,58.166500091552734,0.0610351525247097,-41.259761810302734,-0.5350341796875,1.1292724609375,-0.6571044921875
7.667,310,329,415,310,-15.0,43.0,37.0,49.560543060302734,9.27734375,-4.8828125,-0.9429931640625,1.12744140625,-0.813232421875
7.675,310,328,424,310,-15.0,43.0,37.0,24.658201217651367,-6.713866710662842,1.03759765625,-1.1728515625,0.8221435546875,-0.7779541015625
7.683,311,328,433,311,-15.0,43.0,37.0,24.658201217651367,-6.713866710662842,1.03759765625,-1.1307373046875,0.515869140625,-0.5380859375
7.724,309,324,433,310,-15.0,43.0,37.0,-13.183592796325684,-42.053218841552734,-15.686034202575684,-0.91552734375,0.272216796875,-0.2703857421875
7.724,309,308,411,307,-15.0,43.0,37.0,-20.263669967651367,-39.48974609375,-21.972654342651367,-0.7418212890625,0.125732421875,-0.1094970703125
7.724,297,322,409,310,-15.0,43.0,37.0,-20.263669967651367,-39.48974609375,-21.972654342651367,-0.6602783203125,0.122314453125,-0.003662109375
7.727,308,322,411,310,-15.0,43.0,37.0,-29.235837936401367,-20.629880905151367,-3.967284917831421,-0.63623046875,0.1590576171875,0.1336669921875
7.735,310,322,419,310,-15.0,43.0,37.0,-34.60693359375,-17.9443359375,10.681151390075684,-0.648193359375,0.18408203125,0.2564697265625
7.743,310,324,419,310,-15.0,43.0,37.0,-34.60693359375,-17.9443359375,10.681151390075684,-0.665771484375,0.23486328125,0.24755859375
7.756,309,323,411,310,-14.0,42.0,40.0,-23.193357467651367,-15.136717796325684,28.381345748901367,-0.6885986328125,0.279296875,0.10693359375
7.765,308,324,409,310,-14.0,42.0,40.0,-6.225585460662842,-8.60595703125,32.16552734375,-0.6982421875,0.310302734375,-0.03515625
7.775,310,325,407,310,-14.0,42.0,40.0,7.507323741912842,-0.1220703050494194,35.21728515625,-0.694580078125,0.385009765625,-0.110107421875
7.787,310,326,395,310,-14.0,42.0,40.0,9.82666015625,7.568358898162842,39.00146484375,-0.693359375,0.4735107421875,-0.128173828125
7.799,310,326,393,310,-14.0,42.0,40.0,-0.0610351525247097,11.718749046325684,41.320796966552734,-0.6475830078125,0.475830078125,-0.0888671875
7.825,309,338,382,308,-14.0,42.0,40.0,-14.770506858825684,12.573241233825684,39.306640625,-0.4976806640625,0.3822021484375,-0.00537109375
7.825,310,371,391,310,-14.0,42.0,40.0,-25.634763717651367,12.084959983825684,32.77587890625,-0.1951904296875,0.27783203125,0.11962890625
7.825,310,402,521,310,-14.0,42.0,40.0,-28.076169967651367,11.108397483825684,22.399900436401367,0.258056640625,0.2186279296875,0.2969970703125
7.834,311,465,654,311,-14.0,42.0,40.0,-21.606443405151367,4.82177734375,6.286620616912842,0.8057861328125,0.068603515625,0.5859375
7.847,310,577,1022,311,-14.0,42.0,40.0,-5.859374523162842,-16.29638671875,-20.324705123901367,1.0977783203125,-0.2894287109375,0.8062744140625
7.855,310,658,1191,312,-13.0,40.0,40.0,20.507810592651367,-49.987789154052734,-49.499507904052734,0.826904296875,-0.3929443359375,0.6231689453125
7.863,311,725,1239,312,-13.0,40.0,40.0,68.9697265625,-70.37353515625,-62.499996185302734,0.0745849609375,0.2109375,-0.1387939453125
7.877,310,818,1402,313,-13.0,40.0,40.0,142.9443359375,-41.931148529052734,-54.504390716552734,-1.104248046875,1.22412109375,-1.6082763671875
7.887,312,878,1540,312,-13.0,40.0,40.0,172.42430114746094,8.30078125,-41.442867279052734,-2.2418212890625,1.822998046875,-2.64013671875
7.901,311,959,1674,314,-13.0,40.0,40.0,72.57080078125,-4.7607421875,-50.415035247802734,-2.7276611328125,1.5042724609375,-2.089599609375
7.922,310,1055,1782,314,-13.0,40.0,40.0,-91.79686737060547,-77.0263671875,-71.71630859375,-2.7252197265625,0.747314453125,-0.7984619140625
7.930,310,1069,1781,314,-13.0,40.0,40.0,-185.54685974121094,-128.7841796875,-68.7255859375,-2.67333984375,0.0565185546875,0.1585693359375
7.931,310,1013,1730,313,-13.0,40.0,40.0,-168.27391052246094,-123.16893768310547,-37.7197265625,-2.7120361328125,-0.216552734375,0.49072265625
7.937,310,999,1774,313,-13.0,40.0,40.0,-89.11132049560547,-82.70262908935547,0.4272460639476776,-2.0919189453125,-0.1552734375,0.5191650390625
7.945,311,994,1763,314,-13.0,40.0,40.0,-15.258788108825684,-43.762203216552734,19.8974609375,-1.084228515625,0.1046142578125,0.565185546875
7.953,310,968,1734,313,-14.0,40.0,43.0,28.747556686401367,-13.183592796325684,22.705076217651367,-1.1138916015625,0.93017578125,0.39111328125
7.967,311,889,1634,314,-14.0,40.0,43.0,39.0625,14.831542015075684,24.780271530151367,-1.876708984375,1.50830078125,-0.0706787109375
7.975,310,835,1516,314,-14.0,40.0,43.0,19.8974609375,39.55078125,21.972654342651367,-2.359130859375,1.1104736328125,-0.3985595703125
7.983,311,785,1428,314,-14.0,40.0,43.0,-2.929687261581421,62.316890716552734,25.512693405151367,-2.3438720703125,0.547119140625,-0.3992919921875
8.008,311,691,1318,312,-14.0,40.0,43.0,-12.817381858825684,85.87645721435547,50.476070404052734,-2.046142578125,0.433837890625,-0.24072265625
8.008,310,619,1219,313,-14.0,40.0,43.0,-15.747069358825684,105.59081268310547,84.16747283935547,-1.5968017578125,0.5596923828125,-0.107421875
8.031,310,558,1096,312,-14.0,40.0,43.0,-12.451170921325684,117.00438690185547,105.59081268310547,-1.031494140625,0.5662841796875,-0.0225830078125
8.032,310,452,891,312,-14.0,40.0,43.0,1.2817381620407104,114.56298065185547,98.38866424560547,-0.4100341796875,0.2744140625,0.1392822265625
8.035,310,415,793,310,-14.0,40.0,43.0,19.47021484375,92.77342987060547,57.800289154052734,0.2113037109375,-0.1751708984375,0.331787109375
8.044,310,377,695,310,-14.0,40.0,43.0,32.71484375,61.645503997802734,0.2441406100988388,0.5635986328125,-0.4134521484375,0.303466796875
8.057,308,336,574,310,-15.0,43.0,43.0,36.80419921875,33.447265625,-46.936031341552734,0.0205078125,-0.1536865234375,-0.1856689453125
8.065,310,336,513,309,-15.0,43.0,43.0,36.31591796875,11.047362327575684,-68.05419921875,0.0205078125,-0.1536865234375,-0.1856689453125
8.074,310,326,438,310,-15.0,43.0,43.0,44.067378997802734,0.7934569716453552,-64.02587890625,-0.19775390625,0.212158203125,-0.3470458984375
8.087,310,326,399,310,-15.0,43.0,43.0,66.650390625,8.72802734375,-43.823238372802734,-0.6378173828125,0.9417724609375,-0.7642822265625
8.095,308,323,402,310,-15.0,43.0,43.0,89.78270721435547,25.695798873901367,-17.822265625,-0.6378173828125,0.9417724609375,-0.7642822265625
8.107,308,323,406,310,-15.0,43.0,43.0,90.14891815185547,31.616209030151367,2.38037109375,-0.9859619140625,1.027587890625,-0.9739990234375
8.139,308,317,402,310,-15.0,43.0,43.0,60.791011810302734,13.916014671325684,6.469726085662842,-1.0126953125,0.5635986328125,-0.5889892578125
8.139,310,317,407,294,-15.0,43.0,43.0,16.90673828125,-18.00537109375,-4.150390625,-1.0126953125,0.5635986328125,-0.5889892578125
8.139,310,300,385,308,-15.0,43.0,43.0,-31.127927780151367,-40.344234466552734,-25.085447311401367,-0.62109375,0.1749267578125,-0.04833984375
8.147,310,315,385,309,-16.0,41.0,41.0,-31.127927780151367,-40.344234466552734,-25.085447311401367,-0.5992431640625,0.165771484375,0.036376953125
8.155,310,315,395,311,-16.0,41.0,41.0,-33.02001953125,-29.968259811401367,-18.49365234375,-0.5992431640625,0.165771484375,0.036376953125
8.163,310,314,398,310,-16.0,41.0,41.0,-35.0341796875,-24.047849655151367,-4.57763671875,-0.59326171875,0.193115234375,0.1656494140625
8.177,309,314,401,309,-16.0,41.0,41.0,-35.64453125,-23.437498092651367,8.23974609375,-0.6728515625,0.1998291015625,0.2020263671875
8.185,310,312,407,310,-16.0,41.0,41.0,-27.832029342651367,-22.888181686401367,16.17431640625,-0.6728515625,0.1998291015625,0.2020263671875
8.193,310,314,408,308,-16.0,41.0,41.0,-11.718749046325684,-19.6533203125,19.6533203125,-0.6788330078125,0.196044921875,0.0484619140625
8.207,310,317,394,310,-16.0,41.0,41.0,5.371093273162842,-12.390135765075684,22.338865280151367,-0.6484375,0.380615234375,-0.1026611328125
8.236,310,322,384,310,-16.0,41.0,41.0,13.122557640075684,-3.784179449081421,26.489255905151367,-0.624755859375,0.475830078125,-0.0391845703125
8.236,310,329,379,298,-16.0,41.0,41.0,6.652831554412842,1.4038084745407104,29.724119186401367,-0.624755859375,0.475830078125,-0.0391845703125
8.237,311,354,379,311,-16.0,41.0,41.0,-25.390623092651367,0.2441406100988388,25.817869186401367,-0.452880859375,0.4112548828125,-0.001220703125
8.245,310,391,380,310,-14.0,40.0,35.0,-25.390623092651367,0.2441406100988388,25.817869186401367,-0.1746826171875,0.318359375,0.0125732421875
8.253,310,414,420,311,-14.0,40.0,35.0,-29.479978561401367,0.3662109076976776,21.850584030151367,-0.1746826171875,0.318359375,0.0125732421875
8.267,310,488,647,311,-14.0,40.0,35.0,-28.991697311401367,-2.990722417831421,3.540038824081421,0.46630859375,0.220458984375,0.4541015625
8.275,310,537,878,312,-14.0,40.0,35.0,-28.991697311401367,-2.990722417831421,3.540038824081421,0.6121826171875,0.0965576171875,0.7830810546875
8.283,310,606,1039,313,-14.0,40.0,35.0,-25.573728561401367,-14.709471702575684,-22.949216842651367,0.6121826171875,0.0965576171875,0.7830810546875
8.298,308,714,1176,312,-14.0,40.0,35.0,18.06640625,-24.353025436401367,-85.63231658935547,-0.2154541015625,0.3240966796875,-0.1416015625
8.312,310,763,1251,314,-14.0,40.0,35.0,18.06640625,-24.353025436401367,-85.63231658935547,-1.1968994140625,0.887939453125,-1.4771728515625
8.314,311,813,1374,313,-14.0,40.0,35.0,67.32177734375,12.207030296325684,-83.61815643310547,-1.1968994140625,0.887939453125,-1.4771728515625
8.345,311,912,1528,312,-14.0,40.0,35.0,-3.112792730331421,23.010251998901367,-64.453125,-2.4716796875,1.0670166015625,-1.759521484375
8.348,312,963,1621,314,-14.0,40.0,35.0,-3.112792730331421,23.010251998901367,-64.453125,-2.4822998046875,0.6749267578125,-0.7413330078125
8.349,312,978,1613,313,-14.0,40.0,35.0,-112.54882049560547,-34.97314453125,-70.25146484375,-2.4822998046875,0.6749267578125,-0.7413330078125
8.357,312,971,1624,314,-11.0,42.0,43.0,-150.81787109375,-61.706539154052734,-43.579097747802734,-2.3360595703125,0.1478271484375,0.300048828125
8.366,311,947,1618,314,-11.0,42.0,43.0,-94.54344940185547,-32.470703125,-18.5546875,-1.9378662109375,-0.0858154296875,0.288330078125
8.375,311,938,1623,314,-11.0,42.0,43.0,-94.54344940185547,-32.470703125,-18.5546875,-1.1405029296875,-0.1131591796875,0.195068359375
8.387,311,933,1622,314,-11.0,42.0,43.0,5.493163585662842,3.845214605331421,6.408690929412842,-0.935546875,0.4749755859375,-0.0604248046875
8.395,312,913,1602,314,-11.0,42.0,43.0,21.789548873901367,11.535643577575684,16.11328125,-1.5,1.0240478515625,-0.4169921875
8.403,311,882,1555,314,-11.0,42.0,43.0,21.789548873901367,11.535643577575684,16.11328125,-2.0977783203125,0.9412841796875,-0.6083984375
8.417,312,814,1429,314,-11.0,42.0,43.0,-1.5258787870407104,28.320310592651367,30.456541061401367,-2.299560546875,0.5953369140625,-0.5009765625
8.437,311,763,1355,314,-11.0,42.0,43.0,-9.46044921875,45.349117279052734,52.368160247802734,-2.1441650390625,0.43994140625,-0.238525390625
8.438,311,713,1266,314,-11.0,42.0,43.0,-9.46044921875,45.349117279052734,52.368160247802734,-1.8134765625,0.5574951171875,-0.0562744140625
8.454,310,607,1127,312,-13.0,41.0,38.0,7.446288585662842,80.32225799560547,112.85399627685547,-1.423828125,0.76171875,-0.0606689453125
8.455,310,531,986,313,-13.0,41.0,38.0,23.803709030151367,87.58544158935547,123.22997283935547,-0.929931640625,0.693115234375,-0.0821533203125
8.463,311,494,833,312,-13.0,41.0,38.0,23.803709030151367,87.58544158935547,123.22997283935547,-0.3135986328125,0.171875,0.0816650390625
8.477,310,420,620,311,-13.0,41.0,38.0,52.917476654052734,53.833003997802734,52.856441497802734,0.273193359375,-0.4049072265625,0.3275146484375
8.485,310,384,493,309,-13.0,41.0,38.0,54.565425872802734,31.921384811401367,-1.03759765625,0.492431640625,-0.5970458984375,0.304931640625
8.493,310,369,433,308,-13.0,41.0,38.0,54.565425872802734,31.921384811401367,-1.03759765625,0.2642822265625,-0.395751953125,0.0413818359375
8.514,310,353,369,310,-13.0,41.0,38.0,40.954586029052734,6.469726085662842,-56.335445404052734,-0.0894775390625,0.0390625,-0.132568359375
8.515,310,329,354,310,-13.0,41.0,38.0,33.5693359375,-5.615233898162842,-52.185054779052734,-0.2901611328125,0.5164794921875,-0.2723388671875
8.542,309,331,355,310,-13.0,41.0,38.0,43.151851654052734,-6.347655773162842,-36.43798828125,-0.3878173828125,0.9498291015625,-0.561767578125
8.542,310,331,343,308,-13.0,41.0,38.0,49.194332122802734,-1.2817381620407104,-17.15087890625,-0.6553955078125,1.0887451171875,-0.8529052734375
8.546,310,326,359,310,-13.0,41.0,36.0,34.36279296875,-2.38037109375,-3.540038824081421,-1.0303955078125,0.85400390625,-0.961669921875
8.555,308,326,364,310,-13.0,41.0,36.0,10.559081077575684,-12.512206077575684,0.9155272841453552,-1.17578125,0.5704345703125,-0.8167724609375
8.567,308,325,367,308,-13.0,41.0,36.0,-11.840819358825684,-27.160642623901367,-2.563476324081421,-0.989990234375,0.3631591796875,-0.46044921875
8.575,308,322,369,308,-13.0,41.0,36.0,-27.465818405151367,-35.09521484375,-10.742186546325684,-0.735595703125,0.2196044921875,-0.14794921875
8.583,309,317,367,310,-13.0,41.0,36.0,-34.36279296875,-30.395505905151367,-13.671874046325684,-0.6275634765625,0.1903076171875,-0.0103759765625
8.597,308,322,368,310,-13.0,41.0,36.0,-38.26904296875,-22.460935592651367,-5.493163585662842,-0.6390380859375,0.2100830078125,0.064453125
8.606,310,322,371,310,-13.0,41.0,36.0,-41.748043060302734,-20.812986373901367,7.690429210662842,-0.6785888671875,0.212158203125,0.14453125
8.617,310,323,369,310,-13.0,41.0,36.0,-40.710445404052734,-24.230955123901367,18.798828125,-0.682861328125,0.2318115234375,0.1656494140625
8.627,310,325,369,310,-13.0,41.0,36.0,-29.479978561401367,-25.573728561401367,26.000974655151367,-0.673583984375,0.267578125,0.0787353515625
8.647,310,326,369,309,-13.0,41.0,36.0,-9.1552734375,-21.728513717651367,30.700681686401367,-0.672607421875,0.2757568359375,-0.0673828125
8.647,310,326,368,310,-15.0,42.0,47.0,11.047362327575684,-15.075682640075684,35.21728515625,-0.6568603515625,0.297607421875,-0.1602783203125
