time,compression0,compression1,compression2,compression3,magn_x,magn_y,magn_z,gyro_x,gyro_y,gyro_z,accel_x,accel_y,accel_z
0.030,310,452,409,309,-7.0,40.0,41.0,0.3662109076976776,0.2441406100988388,0.1831054538488388,-0.942138671875,0.2835693359375,-0.1533203125
0.031,308,454,411,308,-7.0,40.0,41.0,0.8544921278953552,0.1220703050494194,-0.2441406100988388,-0.942138671875,0.2835693359375,-0.1533203125
0.032,310,452,409,310,-7.0,40.0,41.0,0.9155272841453552,0.0610351525247097,-0.54931640625,-0.94287109375,0.280517578125,-0.155029296875
0.036,308,452,410,310,-7.0,40.0,41.0,0.54931640625,-0.30517578125,-0.4272460639476776,-0.9410400390625,0.275146484375,-0.150634765625
0.044,310,452,410,309,-7.0,40.0,41.0,0.54931640625,-0.30517578125,-0.4272460639476776,-0.94140625,0.2735595703125,-0.14990234375
0.060,310,454,410,309,-7.0,40.0,41.0,0.30517578125,-0.3662109076976776,-0.2441406100988388,-0.94140625,0.2735595703125,-0.14990234375
0.074,309,452,410,308,-7.0,40.0,41.0,-0.9765624403953552,0.0,-0.0610351525247097,-0.944580078125,0.27734375,-0.153076171875
0.074,309,452,408,310,-7.0,40.0,41.0,-0.9765624403953552,0.0,-0.0610351525247097,-0.9461669921875,0.281005859375,-0.1573486328125
0.101,310,452,410,308,-7.0,40.0,41.0,-1.5258787870407104,0.2441406100988388,-0.1831054538488388,-0.9461669921875,0.281005859375,-0.1573486328125
0.108,308,452,410,309,-7.0,40.0,41.0,-1.7089842557907104,-0.0610351525247097,-0.6713866591453552,-0.9456787109375,0.27880859375,-0.1541748046875
0.137,309,453,409,310,-8.0,41.0,40.0,-1.7089842557907104,-0.0610351525247097,-0.6713866591453552,-0.9432373046875,0.275634765625,-0.14892578125
0.138,310,452,411,309,-8.0,41.0,40.0,-1.4038084745407104,-0.4882812201976776,-0.7324218153953552,-0.9432373046875,0.275634765625,-0.14892578125
0.138,310,452,411,310,-8.0,41.0,40.0,-1.4038084745407104,-1.0986328125,-0.2441406100988388,-0.9466552734375,0.274658203125,-0.1494140625
0.138,296,451,411,308,-8.0,41.0,40.0,-1.4038084745407104,-1.0986328125,-0.2441406100988388,-0.9541015625,0.276611328125,-0.1553955078125
0.156,308,451,411,308,-8.0,41.0,40.0,-1.9531248807907104,-1.03759765625,0.0610351525247097,-0.9652099609375,0.2801513671875,-0.1641845703125
0.157,309,447,411,309,-8.0,41.0,40.0,-4.150390625,-0.4882812201976776,0.4272460639476776,-0.9769287109375,0.2833251953125,-0.17041015625
0.183,310,442,410,310,-8.0,41.0,40.0,-5.615233898162842,-0.30517578125,0.4882812201976776,-0.984130859375,0.2838134765625,-0.1708984375
0.183,308,439,410,308,-8.0,41.0,40.0,-5.615233898162842,-0.30517578125,0.4882812201976776,-0.9879150390625,0.2828369140625,-0.1671142578125
0.187,309,434,408,308,-8.0,41.0,40.0,-6.347655773162842,-0.7934569716453552,0.4882812201976776,-0.9886474609375,0.28515625,-0.1640625
0.233,309,423,410,308,-7.0,40.0,42.0,-5.798339366912842,-1.3427733182907104,0.4272460639476776,-0.988525390625,0.2840576171875,-0.1558837890625
0.234,308,408,408,309,-7.0,40.0,42.0,-6.347655773162842,-2.0751953125,-0.54931640625,-0.9898681640625,0.274169921875,-0.147216796875
0.235,310,402,409,310,-7.0,40.0,42.0,-6.958007335662842,-1.8310545682907104,-1.4038084745407104,-0.9805908203125,0.276123046875,-0.148681640625
0.236,310,396,408,310,-7.0,40.0,42.0,-6.958007335662842,-1.8310545682907104,-1.4038084745407104,-0.9632568359375,0.2935791015625,-0.159912109375
0.247,308,386,407,310,-7.0,40.0,42.0,-9.58251953125,-0.9155272841453552,-1.2817381620407104,-0.9453125,0.314208984375,-0.1641845703125
0.255,310,379,405,310,-7.0,40.0,42.0,-10.803221702575684,-1.0986328125,-1.7089842557907104,-0.9522705078125,0.31982421875,-0.154541015625
0.267,310,371,407,310,-7.0,40.0,42.0,-10.009765625,-1.3427733182907104,-2.868652105331421,-0.9920654296875,0.3013916015625,-0.1260986328125
0.278,308,360,407,310,-7.0,40.0,42.0,-3.295898199081421,-1.03759765625,-2.624511480331421,-1.029052734375,0.2718505859375,-0.095458984375
0.285,309,344,407,310,-7.0,40.0,42.0,10.192870140075684,0.2441406100988388,0.9765624403953552,-0.9920654296875,0.28369140625,-0.125
0.293,310,337,407,308,-7.0,40.0,42.0,20.751951217651367,1.7700194120407104,4.45556640625,-0.9061279296875,0.3431396484375,-0.2010498046875
0.307,310,322,408,308,-8.0,39.0,41.0,17.88330078125,1.4648436307907104,2.0751953125,-0.87353515625,0.364013671875,-0.22900390625
0.333,309,315,408,310,-8.0,39.0,41.0,5.859374523162842,-1.4038084745407104,-4.94384765625,-0.8958740234375,0.3216552734375,-0.1898193359375
0.333,309,314,408,310,-8.0,39.0,41.0,-1.7089842557907104,-4.57763671875,-10.253905296325684,-0.9154052734375,0.28173828125,-0.150146484375
0.337,309,319,410,310,-8.0,39.0,41.0,-0.2441406100988388,-6.591796398162842,-11.657713890075684,-0.910888671875,0.27587890625,-0.1470947265625
0.345,310,317,411,309,-8.0,39.0,41.0,3.601073980331421,-8.4228515625,-11.840819358825684,-0.8984375,0.2821044921875,-0.1607666015625
0.353,308,322,411,310,-8.0,39.0,41.0,3.417968511581421,-11.047362327575684,-12.817381858825684,-0.890380859375,0.2738037109375,-0.1622314453125
0.368,310,322,414,308,-8.0,39.0,41.0,0.1831054538488388,-13.916014671325684,-14.587401390075684,-0.8887939453125,0.2530517578125,-0.1456298828125
0.375,310,317,415,308,-8.0,39.0,41.0,-2.563476324081421,-16.17431640625,-15.991209983825684,-0.8897705078125,0.2362060546875,-0.128662109375
0.383,310,322,414,309,-8.0,39.0,41.0,-3.784179449081421,-17.9443359375,-16.29638671875,-0.8944091796875,0.2274169921875,-0.117919921875
0.405,308,322,418,309,-8.0,39.0,41.0,-4.150390625,-19.71435546875,-15.624999046325684,-0.896728515625,0.220458984375,-0.110107421875
0.405,310,322,418,289,-8.0,40.0,46.0,-3.845214605331421,-21.484373092651367,-14.404295921325684,-0.8927001953125,0.2164306640625,-0.109130859375
0.420,310,323,423,308,-8.0,40.0,46.0,-3.417968511581421,-23.010251998901367,-13.000487327575684,-0.8875732421875,0.2203369140625,-0.11279296875
0.439,310,326,437,310,-8.0,40.0,46.0,-3.723144292831421,-24.230955123901367,-11.901854515075684,-0.8863525390625,0.22216796875,-0.108642578125
0.439,308,338,452,294,-8.0,40.0,46.0,-4.0283203125,-25.329587936401367,-11.169432640075684,-0.8873291015625,0.2176513671875,-0.1002197265625
0.443,310,343,465,310,-8.0,40.0,46.0,-3.356933355331421,-26.184080123901367,-10.375975608825684,-0.8868408203125,0.2169189453125,-0.09814453125
0.457,309,344,478,310,-8.0,40.0,46.0,-2.929687261581421,-26.916501998901367,-9.70458984375,-0.8829345703125,0.22509765625,-0.103515625
0.465,309,352,488,310,-8.0,40.0,46.0,-3.845214605331421,-28.015134811401367,-9.6435546875,-0.873046875,0.23876953125,-0.1131591796875
0.474,309,362,495,310,-8.0,40.0,46.0,-6.164550304412842,-29.296873092651367,-9.82666015625,-0.8553466796875,0.251220703125,-0.125
0.487,308,377,502,309,-8.0,40.0,46.0,-9.58251953125,-30.944822311401367,-9.82666015625,-0.8387451171875,0.2535400390625,-0.1324462890625
0.495,310,391,509,310,-8.0,40.0,46.0,-13.427733421325684,-33.447265625,-9.33837890625,-0.834228515625,0.244384765625,-0.1292724609375
0.510,310,402,530,309,-7.0,38.0,43.0,-16.29638671875,-36.376953125,-7.690429210662842,-0.8359375,0.2373046875,-0.1258544921875
0.532,309,423,545,310,-7.0,38.0,43.0,-17.15087890625,-38.6962890625,-4.8828125,-0.83349609375,0.237548828125,-0.1295166015625
0.532,310,437,537,311,-7.0,38.0,43.0,-16.90673828125,-40.283199310302734,-2.3193359375,-0.828369140625,0.2374267578125,-0.1339111328125
0.545,310,437,558,310,-7.0,38.0,43.0,-17.15087890625,-41.931148529052734,-0.7934569716453552,-0.8345947265625,0.2437744140625,-0.1256103515625
0.547,296,488,616,310,-7.0,38.0,43.0,-19.1650390625,-44.677730560302734,0.2441406100988388,-0.8472900390625,0.2646484375,-0.0943603515625
0.555,308,509,673,310,-7.0,38.0,43.0,-23.986814498901367,-48.950191497802734,0.7324218153953552,-0.8458251953125,0.2738037109375,-0.04248046875
0.563,311,530,721,310,-7.0,38.0,43.0,-31.738279342651367,-54.199214935302734,-0.54931640625,-0.8232421875,0.2374267578125,0.0283203125
0.577,310,563,808,310,-7.0,38.0,43.0,-40.222164154052734,-58.715816497802734,-3.173827886581421,-0.539306640625,0.1036376953125,0.1046142578125
0.585,310,584,874,310,-7.0,38.0,43.0,-44.128414154052734,-58.410640716552734,-6.225585460662842,-0.539306640625,0.1036376953125,0.1046142578125
0.593,310,607,920,310,-7.0,38.0,43.0,-42.907711029052734,-52.062984466552734,-10.803221702575684,-0.4713134765625,0.0792236328125,0.009033203125
0.634,309,644,1029,310,-3.0,37.0,46.0,-42.846675872802734,-45.837398529052734,-15.563963890075684,-0.637939453125,0.2562255859375,0.032958984375
0.635,310,673,1105,312,-3.0,37.0,46.0,-47.485347747802734,-44.189449310302734,-17.2119140625,-0.637939453125,0.2562255859375,0.032958984375
0.648,310,697,1155,311,-3.0,37.0,46.0,-57.800289154052734,-44.128414154052734,-17.08984375,-0.7559814453125,0.3956298828125,0.133056640625
0.649,308,741,1245,311,-3.0,37.0,46.0,-70.37353515625,-41.625972747802734,-17.822265625,-1.051513671875,0.4354248046875,0.2520751953125
0.650,310,755,1285,310,-3.0,37.0,46.0,-76.416015625,-36.80419921875,-17.822265625,-1.051513671875,0.4354248046875,0.2520751953125
0.653,310,763,1323,311,-3.0,37.0,46.0,-70.3125,-30.456541061401367,-15.808104515075684,-1.241943359375,0.3995361328125,0.2808837890625
0.667,310,772,1379,312,-3.0,37.0,46.0,-55.419918060302734,-23.132322311401367,-12.512206077575684,-1.6290283203125,0.4322509765625,0.229248046875
0.676,312,784,1393,312,-3.0,37.0,46.0,-39.24560546875,-15.991209983825684,-8.7890625,-1.6290283203125,0.4322509765625,0.229248046875
0.683,310,780,1367,312,-3.0,37.0,46.0,-25.512693405151367,-10.314940452575684,-6.774901866912842,-1.7298583984375,0.3828125,0.2486572265625
0.697,309,784,1357,312,-3.0,37.0,46.0,-13.793944358825684,-6.103515148162842,-8.36181640625,-1.5697021484375,-0.1279296875,0.21142578125
0.710,310,794,1352,310,-2.0,35.0,48.0,-3.784179449081421,0.4882812201976776,-15.075682640075684,-1.5697021484375,-0.1279296875,0.21142578125
0.713,312,799,1351,312,-2.0,35.0,48.0,8.36181640625,12.756346702575684,-24.902341842651367,-1.403076171875,-0.2744140625,0.059814453125
0.739,310,799,1306,310,-2.0,35.0,48.0,10.742186546325684,23.986814498901367,-10.864256858825684,-1.711181640625,0.26220703125,-0.010498046875
0.741,296,781,1259,312,-2.0,35.0,48.0,10.742186546325684,23.986814498901367,-10.864256858825684,-1.7059326171875,0.3192138671875,0.0753173828125
0.743,310,766,1202,311,-2.0,35.0,48.0,-1.8920897245407104,22.460935592651367,3.295898199081421,-1.7059326171875,0.3192138671875,0.0753173828125
0.757,310,714,1054,311,-2.0,35.0,48.0,-0.9765624403953552,29.846189498901367,8.72802734375,-1.494140625,0.1746826171875,0.0902099609375
0.765,310,673,973,310,-2.0,35.0,48.0,-0.9765624403953552,29.846189498901367,8.72802734375,-1.3829345703125,0.1485595703125,0.0589599609375
0.773,311,629,884,310,-2.0,35.0,48.0,2.624511480331421,35.58349609375,9.1552734375,-1.3829345703125,0.1485595703125,0.0589599609375
0.787,310,521,749,310,-2.0,35.0,48.0,4.21142578125,47.058101654052734,9.94873046875,-1.129150390625,0.185546875,-0.072265625
0.795,308,465,689,310,-2.0,35.0,48.0,4.21142578125,47.058101654052734,9.94873046875,-0.97412109375,0.1810302734375,-0.1036376953125
0.803,310,402,576,310,-3.0,34.0,43.0,7.507323741912842,51.147457122802734,6.774901866912842,-0.97412109375,0.1810302734375,-0.1036376953125
0.817,309,355,483,308,-3.0,34.0,43.0,13.305663108825684,46.203609466552734,-11.230467796325684,-0.6593017578125,-0.07080078125,0.1552734375
0.844,308,322,477,310,-3.0,34.0,43.0,13.305663108825684,46.203609466552734,-11.230467796325684,-0.5443115234375,-0.1676025390625,0.141357421875
0.845,309,310,447,310,-3.0,34.0,43.0,22.155759811401367,45.837398529052734,-20.935056686401367,-0.5443115234375,-0.1676025390625,0.141357421875
0.847,309,314,394,308,-3.0,34.0,43.0,63.476558685302734,60.607906341552734,-16.6015625,-0.635498046875,0.2572021484375,-0.13525390625
0.859,309,314,385,310,-3.0,34.0,43.0,63.476558685302734,60.607906341552734,-16.6015625,-0.7322998046875,0.4681396484375,-0.206298828125
0.864,310,312,390,310,-3.0,34.0,43.0,65.85693359375,53.710933685302734,2.868652105331421,-0.8424072265625,0.43359375,-0.1856689453125
0.883,308,314,387,308,-3.0,34.0,43.0,43.090816497802734,25.878904342651367,-6.530761241912842,-0.9388427734375,0.29736328125,-0.1004638671875
0.887,308,313,393,309,-3.0,34.0,43.0,53.405757904052734,16.05224609375,-29.113767623901367,-0.9439697265625,0.16748046875,-0.0343017578125
0.893,310,314,394,310,-3.0,34.0,43.0,53.405757904052734,16.05224609375,-29.113767623901367,-0.8587646484375,0.165771484375,0.0311279296875
0.907,308,314,398,310,-4.0,39.0,43.0,65.0634765625,-3.784179449081421,-20.751951217651367,-0.694580078125,0.215576171875,0.0772705078125
0.916,309,314,399,310,-4.0,39.0,43.0,67.2607421875,-8.6669921875,-6.225585460662842,-0.5286865234375,0.2255859375,0.0684814453125
0.923,310,316,398,310,-4.0,39.0,43.0,67.2607421875,-8.6669921875,-6.225585460662842,-0.4384765625,0.2161865234375,0.018798828125
0.943,308,314,399,310,-4.0,39.0,43.0,59.020992279052734,-0.7324218153953552,5.493163585662842,-0.4267578125,0.2523193359375,-0.0244140625
0.945,308,314,401,310,-4.0,39.0,43.0,44.250484466552734,2.807616949081421,6.958007335662842,-0.4481201171875,0.31396484375,-0.0352783203125
0.954,310,314,401,310,-4.0,39.0,43.0,44.250484466552734,2.807616949081421,6.958007335662842,-0.4656982421875,0.3209228515625,-0.0284423828125
0.967,308,313,402,309,-4.0,39.0,43.0,7.629394054412842,-2.563476324081421,10.986327171325684,-0.4656982421875,0.25244140625,-0.02880859375
0.975,308,314,407,309,-4.0,39.0,43.0,-2.807616949081421,-5.432128429412842,11.047362327575684,-0.4476318359375,0.1356201171875,-0.043701171875
0.984,310,314,426,309,-4.0,39.0,43.0,-2.807616949081421,-5.432128429412842,11.047362327575684,-0.4373779296875,-0.04150390625,-0.047607421875
0.997,310,314,430,310,-5.0,37.0,49.0,2.13623046875,-3.295898199081421,4.0283203125,-0.4415283203125,-0.185546875,0.0030517578125
1.005,309,325,436,310,-5.0,37.0,49.0,17.4560546875,-1.220703125,-1.15966796875,-0.4454345703125,-0.1707763671875,0.074462890625
1.018,310,363,426,310,-5.0,37.0,49.0,17.4560546875,-1.220703125,-1.15966796875,-0.4840087890625,0.0091552734375,0.0599365234375
1.031,309,433,449,308,-5.0,37.0,49.0,18.61572265625,-12.023924827575684,16.29638671875,-0.7779541015625,0.3021240234375,-0.0269775390625
1.038,310,456,488,310,-5.0,37.0,49.0,-1.8310545682907104,-33.38623046875,33.14208984375,-1.251220703125,0.5977783203125,-0.1947021484375
1.046,310,490,535,311,-5.0,37.0,49.0,-16.41845703125,-61.462398529052734,37.9638671875,-1.2862548828125,0.6026611328125,-0.42138671875
1.057,310,557,688,311,-5.0,37.0,49.0,-23.864744186401367,-81.23778533935547,28.076169967651367,-0.751708984375,0.26171875,-0.39404296875
1.075,310,592,796,312,-5.0,37.0,49.0,-41.870113372802734,-89.53856658935547,8.97216796875,-0.3402099609375,-0.0601806640625,-0.138427734375
1.075,306,631,865,311,-5.0,37.0,49.0,-78.0029296875,-85.99852752685547,-14.587401390075684,-0.47900390625,-0.2381591796875,0.005126953125
1.089,310,695,981,312,-5.0,37.0,49.0,-108.70360565185547,-66.7724609375,-31.738279342651367,-0.9127197265625,-0.2552490234375,0.0281982421875
1.095,310,731,1051,311,-3.0,35.0,49.0,-105.40770721435547,-39.794921875,-24.780271530151367,-1.2579345703125,0.0931396484375,-0.0194091796875
1.103,310,772,1132,312,-3.0,35.0,49.0,-73.486328125,-19.775390625,0.9155272841453552,-1.419677734375,0.6348876953125,-0.0814208984375
1.120,308,833,1225,311,-3.0,35.0,49.0,-48.828121185302734,-16.9677734375,16.9677734375,-1.5198974609375,0.8465576171875,0.0423583984375
1.125,310,849,1264,311,-3.0,35.0,49.0,-47.180171966552734,-27.526853561401367,13.916014671325684,-1.6163330078125,0.7021484375,0.3538818359375
1.141,310,861,1292,312,-3.0,35.0,49.0,-47.790523529052734,-34.60693359375,4.7607421875,-1.722412109375,0.5286865234375,0.595458984375
1.190,312,868,1273,310,-3.0,35.0,49.0,-33.87451171875,-28.076169967651367,-2.0751953125,-1.8006591796875,0.4093017578125,0.637939453125
1.191,310,873,1251,312,-3.0,35.0,49.0,-11.779784202575684,-12.695311546325684,-8.60595703125,-1.7388916015625,0.296142578125,0.5096435546875
1.191,310,871,1232,312,-3.0,35.0,49.0,9.6435546875,5.249022960662842,-16.845703125,-1.56298828125,0.2095947265625,0.2601318359375
1.191,310,858,1188,312,-3.0,35.0,49.0,25.939939498901367,20.507810592651367,-23.986814498901367,-1.52099609375,0.1689453125,0.04296875
1.191,310,840,1145,312,-3.0,35.0,49.0,30.517576217651367,27.038572311401367,-25.512693405151367,-1.635009765625,0.1326904296875,-0.0538330078125
1.193,311,818,1086,311,-3.0,35.0,49.0,24.230955123901367,26.977537155151367,-22.033689498901367,-1.689453125,0.0709228515625,-0.088134765625
1.211,310,756,981,311,-3.0,37.0,48.0,15.136717796325684,25.878904342651367,-16.90673828125,-1.6014404296875,0.0606689453125,-0.1373291015625
1.215,310,714,910,310,-3.0,37.0,48.0,7.080077648162842,26.611326217651367,-10.986327171325684,-1.4683837890625,0.1519775390625,-0.2205810546875
1.236,310,673,847,311,-3.0,37.0,48.0,0.9155272841453552,29.113767623901367,-6.652831554412842,-1.3973388671875,0.2630615234375,-0.27197265625
1.244,310,599,745,312,-3.0,37.0,48.0,-2.50244140625,31.860349655151367,-7.202147960662842,-1.35791015625,0.346923828125,-0.2406005859375
1.251,311,548,667,310,-3.0,37.0,48.0,-4.45556640625,33.14208984375,-12.695311546325684,-1.259033203125,0.3912353515625,-0.158447265625
1.253,309,481,613,310,-3.0,37.0,48.0,-7.812499523162842,33.02001953125,-21.606443405151367,-1.0640869140625,0.353271484375,-0.1036376953125
1.267,310,395,527,308,-3.0,37.0,48.0,-12.695311546325684,34.3017578125,-32.16552734375,-0.80517578125,0.2420654296875,-0.11328125
1.275,308,340,483,309,-3.0,37.0,48.0,-15.441893577575684,38.2080078125,-41.687007904052734,-0.57275390625,0.1337890625,-0.1182861328125
1.293,310,324,467,309,-3.0,37.0,48.0,-12.756346702575684,41.992183685302734,-45.288082122802734,-0.4256591796875,0.12744140625,-0.091796875
1.298,310,312,442,308,-1.0,37.0,44.0,-8.056640625,42.602535247802734,-41.381832122802734,-0.361328125,0.1763916015625,-0.0125732421875
1.305,310,312,453,310,-1.0,37.0,44.0,-7.751464366912842,36.80419921875,-35.2783203125,-0.4150390625,0.11083984375,0.2027587890625
1.313,310,312,439,307,-1.0,37.0,44.0,-8.85009765625,26.062009811401367,-28.076169967651367,-0.5594482421875,-0.026611328125,0.447021484375
1.327,310,312,420,308,-1.0,37.0,44.0,1.0986328125,20.01953125,-15.380858421325684,-0.6707763671875,-0.02783203125,0.48828125
1.355,310,312,415,310,-1.0,37.0,44.0,19.1650390625,19.6533203125,-2.25830078125,-0.714599609375,0.101806640625,0.3321533203125
1.355,309,311,415,310,-1.0,37.0,44.0,26.855466842651367,17.7001953125,2.990722417831421,-0.7235107421875,0.1689453125,0.140625
1.357,312,312,415,309,-1.0,37.0,44.0,23.071287155151367,13.122557640075684,0.9765624403953552,-0.7275390625,-0.021484375,0.0067138671875
1.367,308,313,419,308,-1.0,37.0,44.0,23.193357467651367,7.202147960662842,-2.746581792831421,-0.7275390625,-0.021484375,0.0067138671875
1.373,310,312,437,309,-1.0,37.0,44.0,33.38623046875,0.7324218153953552,-2.01416015625,-0.6832275390625,-0.0389404296875,-0.016357421875
1.394,308,314,428,310,-1.0,37.0,44.0,45.776363372802734,-5.187987804412842,3.051757574081421,-0.565185546875,-0.0093994140625,-0.1103515625
1.396,310,307,417,308,-2.0,39.0,43.0,53.894039154052734,-9.33837890625,7.324218273162842,-0.565185546875,-0.0093994140625,-0.1103515625
1.407,310,317,444,309,-2.0,39.0,43.0,57.312007904052734,-10.314940452575684,8.9111328125,-0.589599609375,-0.004638671875,-0.1383056640625
1.417,309,328,469,310,-2.0,39.0,43.0,55.297847747802734,-10.131834983825684,11.352538108825684,-0.703369140625,0.0816650390625,-0.119140625
1.428,310,341,479,310,-2.0,39.0,43.0,48.828121185302734,-12.512206077575684,16.357421875,-0.703369140625,0.0816650390625,-0.119140625
1.433,309,372,496,310,-2.0,39.0,43.0,42.175289154052734,-18.6767578125,22.766111373901367,-0.7825927734375,0.1402587890625,-0.1046142578125
1.450,308,408,530,310,-2.0,39.0,43.0,35.2783203125,-26.916501998901367,28.076169967651367,-0.8990478515625,0.3218994140625,-0.1571044921875
1.456,310,437,551,309,-2.0,39.0,43.0,24.414060592651367,-35.09521484375,27.893064498901367,-0.8990478515625,0.3218994140625,-0.1571044921875
1.463,306,467,604,310,-2.0,39.0,43.0,7.202147960662842,-43.884273529052734,21.728513717651367,-0.831787109375,0.306640625,-0.141357421875
1.477,310,530,704,311,-2.0,39.0,43.0,-13.610838890075684,-52.856441497802734,13.305663108825684,-0.5872802734375,0.05908203125,-0.0303955078125
1.485,310,572,780,310,-2.0,39.0,43.0,-33.3251953125,-58.349605560302734,5.0048828125,-0.5491943359375,-0.086181640625,0.0069580078125
1.506,310,607,873,311,-3.0,37.0,44.0,-51.635738372802734,-57.861324310302734,-3.356933355331421,-0.5491943359375,-0.086181640625,0.0069580078125
1.507,296,678,1013,311,-3.0,37.0,44.0,-71.47216796875,-47.424312591552734,-6.469726085662842,-0.710205078125,-0.1326904296875,0.0687255859375
1.518,311,713,1078,311,-3.0,37.0,44.0,-71.47216796875,-47.424312591552734,-6.469726085662842,-0.85107421875,0.162841796875,0.015625
1.530,310,744,1131,311,-3.0,37.0,44.0,-57.128902435302734,-39.1845703125,6.652831554412842,-0.85107421875,0.162841796875,0.015625
1.537,308,822,1226,311,-3.0,37.0,44.0,-20.935056686401367,-29.235837936401367,18.310546875,-1.19970703125,0.5994873046875,0.1893310546875
1.559,310,840,1258,310,-3.0,37.0,44.0,-20.935056686401367,-29.235837936401367,18.310546875,-1.4447021484375,0.5986328125,0.3958740234375
1.559,310,861,1286,312,-3.0,37.0,44.0,-14.526366233825684,-29.174802780151367,10.314940452575684,-1.4447021484375,0.5986328125,0.3958740234375
1.568,310,889,1294,311,-3.0,37.0,44.0,-2.807616949081421,-19.59228515625,-2.25830078125,-1.8197021484375,0.4439697265625,0.448486328125
1.576,310,893,1265,311,-3.0,37.0,44.0,-2.807616949081421,-19.59228515625,-2.25830078125,-1.8543701171875,0.27783203125,0.331298828125
1.583,310,895,1219,312,-3.0,37.0,44.0,8.9111328125,-9.46044921875,-7.995604991912842,-1.8543701171875,0.27783203125,0.331298828125
1.598,311,904,1213,310,-1.0,35.0,42.0,35.400390625,19.95849609375,-22.277830123901367,-1.484619140625,-0.0706787109375,-0.2305908203125
1.610,311,894,1231,312,-1.0,35.0,42.0,35.400390625,19.95849609375,-22.277830123901367,-1.3804931640625,-0.014404296875,-0.3375244140625
1.613,309,891,1232,311,-1.0,35.0,42.0,35.21728515625,29.785154342651367,-25.085447311401367,-1.3804931640625,-0.014404296875,-0.3375244140625
1.637,310,854,1192,312,-1.0,35.0,42.0,-18.73779296875,17.76123046875,-8.544921875,-1.6434326171875,0.0296630859375,0.1221923828125
1.637,310,820,1140,312,-1.0,35.0,42.0,-29.113767623901367,15.869139671325684,-1.220703125,-1.583251953125,-0.0008544921875,0.232666015625
1.654,310,782,1082,312,-1.0,35.0,42.0,-29.113767623901367,15.869139671325684,-1.220703125,-1.450439453125,0.0670166015625,0.15576171875
1.658,310,718,953,311,-1.0,35.0,42.0,-16.9677734375,30.456541061401367,9.33837890625,-1.3345947265625,0.15966796875,0.0167236328125
1.666,310,675,871,312,-1.0,35.0,42.0,-14.038084983825684,38.9404296875,11.413573265075684,-1.2713623046875,0.2255859375,-0.096435546875
1.673,310,639,806,312,-1.0,35.0,42.0,-14.038084983825684,38.9404296875,11.413573265075684,-1.216552734375,0.286865234375,-0.1253662109375
1.687,310,566,704,310,-1.0,35.0,42.0,-8.4228515625,45.654293060302734,6.347655773162842,-1.119140625,0.3292236328125,-0.072509765625
1.695,309,509,631,311,-3.0,34.0,41.0,-8.30078125,43.334957122802734,0.7324218153953552,-0.9664306640625,0.311767578125,-0.023681640625
1.703,310,454,585,310,-3.0,34.0,41.0,-8.30078125,43.334957122802734,0.7324218153953552,-0.791748046875,0.2469482421875,-0.0272216796875
1.717,310,380,509,310,-3.0,34.0,41.0,-6.713866710662842,48.278804779052734,-15.075682640075684,-0.65673828125,0.1585693359375,-0.02490234375
1.726,310,341,481,308,-3.0,34.0,41.0,-0.30517578125,51.879878997802734,-20.385740280151367,-0.5787353515625,0.1103515625,-0.0303955078125
1.735,308,327,456,309,-3.0,34.0,41.0,-0.30517578125,51.879878997802734,-20.385740280151367,-0.538330078125,0.1617431640625,-0.075927734375
1.766,310,312,438,310,-3.0,34.0,41.0,12.817381858825684,48.583980560302734,-18.06640625,-0.5155029296875,0.1864013671875,-0.0283203125
1.767,309,312,432,309,-3.0,34.0,41.0,6.713866710662842,36.31591796875,-17.333984375,-0.5279541015625,0.1192626953125,0.105712890625
1.768,310,312,419,310,-3.0,34.0,41.0,6.713866710662842,36.31591796875,-17.333984375,-0.5928955078125,0.08642578125,0.1951904296875
1.778,308,313,411,310,-3.0,34.0,41.0,-8.85009765625,16.41845703125,-10.009765625,-0.6773681640625,0.1085205078125,0.230224609375
1.785,309,312,411,309,-3.0,34.0,41.0,-3.356933355331421,12.817381858825684,-1.7700194120407104,-0.73681640625,0.1131591796875,0.189697265625
1.793,310,312,408,310,-4.0,37.0,45.0,9.21630859375,11.962889671325684,4.8828125,-0.7510986328125,0.0789794921875,0.0770263671875
1.807,310,312,408,310,-4.0,37.0,45.0,25.756834030151367,12.939452171325684,7.751464366912842,-0.744384765625,0.013916015625,-0.0218505859375
1.820,310,312,420,310,-4.0,37.0,45.0,41.564937591552734,12.268065452575684,9.033203125,-0.7310791015625,-0.0291748046875,-0.066650390625
1.823,309,312,424,310,-4.0,37.0,45.0,50.292964935302734,7.934569835662842,11.840819358825684,-0.7060546875,-0.004638671875,-0.0787353515625
1.838,308,314,435,310,-4.0,37.0,45.0,49.316402435302734,1.5869139432907104,16.11328125,-0.681884765625,0.055419921875,-0.078125
1.863,310,325,433,310,-4.0,37.0,45.0,42.053218841552734,-4.08935546875,18.85986328125,-0.66650390625,0.0958251953125,-0.07177734375
1.863,311,326,433,310,-4.0,37.0,45.0,34.5458984375,-7.324218273162842,18.9208984375,-0.67333984375,0.1025390625,-0.0654296875
1.867,309,340,428,310,-4.0,37.0,45.0,29.846189498901367,-9.09423828125,18.12744140625,-0.7403564453125,0.1273193359375,-0.0703125
1.876,310,369,432,312,-4.0,37.0,45.0,25.512693405151367,-11.718749046325684,19.1650390625,-0.85546875,0.200927734375,-0.107421875
1.884,309,393,435,309,-4.0,37.0,45.0,18.00537109375,-16.05224609375,21.789548873901367,-0.9478759765625,0.26318359375,-0.187744140625
1.897,309,441,468,309,-3.0,39.0,45.0,6.408690929412842,-22.583005905151367,23.986814498901367,-0.9384765625,0.2666015625,-0.2510986328125
1.908,311,483,481,310,-3.0,39.0,45.0,-8.056640625,-32.65380859375,24.902341842651367,-0.81640625,0.21728515625,-0.2186279296875
1.913,310,525,512,308,-3.0,39.0,45.0,-20.446775436401367,-44.799800872802734,23.742673873901367,-0.66650390625,0.1346435546875,-0.1114501953125
1.927,310,589,613,310,-3.0,39.0,45.0,-26.855466842651367,-55.053707122802734,20.080564498901367,-0.5576171875,0.073974609375,-0.0255126953125
1.941,310,632,671,310,-3.0,39.0,45.0,-32.65380859375,-59.875484466552734,14.404295921325684,-0.4224853515625,0.0758056640625,-0.02197265625
1.943,310,667,764,311,-3.0,39.0,45.0,-48.645015716552734,-57.312007904052734,3.845214605331421,-0.3021240234375,0.0357666015625,-0.01904296875
1.968,309,725,927,311,-3.0,39.0,45.0,-75.8056640625,-49.377437591552734,-10.192870140075684,-0.3555908203125,-0.05224609375,0.0421142578125
1.968,310,754,1022,310,-3.0,39.0,45.0,-97.83934783935547,-38.2080078125,-15.502928733825684,-0.5760498046875,0.0416259765625,0.0867919921875
1.973,314,793,1082,312,-3.0,39.0,45.0,-99.54833221435547,-23.498533248901367,-8.6669921875,-0.895263671875,0.33837890625,0.082275390625
1.987,310,858,1188,310,-3.0,39.0,45.0,-85.38817596435547,-10.192870140075684,-0.2441406100988388,-1.2105712890625,0.5509033203125,0.12744140625
1.995,310,876,1239,312,0.0,37.0,46.0,-69.27490234375,-6.103515148162842,1.2817381620407104,-1.4591064453125,0.5498046875,0.285400390625
2.004,310,895,1283,312,0.0,37.0,46.0,-54.870601654052734,-10.742186546325684,-2.0751953125,-1.6578369140625,0.50439453125,0.4593505859375
2.017,310,920,1313,311,0.0,37.0,46.0,-40.161128997802734,-16.11328125,-2.38037109375,-1.8201904296875,0.5125732421875,0.5360107421875
2.032,310,927,1282,312,0.0,37.0,46.0,-27.160642623901367,-15.808104515075684,1.2817381620407104,-1.9215087890625,0.4556884765625,0.47998046875
2.033,310,904,1251,310,0.0,37.0,46.0,-17.27294921875,-8.11767578125,2.0751953125,-1.8956298828125,0.25048828125,0.2623291015625
2.047,310,931,1243,312,0.0,37.0,46.0,-6.774901866912842,6.652831554412842,-4.33349609375,-1.7523193359375,-0.0035400390625,-0.0826416015625
2.068,311,929,1239,312,0.0,37.0,46.0,5.126952648162842,22.338865280151367,-13.122557640075684,-1.6812744140625,-0.16259765625,-0.3709716796875
2.068,310,922,1239,311,0.0,37.0,46.0,11.352538108825684,28.991697311401367,-15.930174827575684,-1.7403564453125,-0.19677734375,-0.43017578125
2.080,310,888,1178,312,0.0,37.0,46.0,8.7890625,25.390623092651367,-10.986327171325684,-1.730712890625,-0.154541015625,-0.2352294921875
2.085,310,852,1125,312,0.0,37.0,46.0,4.21142578125,19.6533203125,-2.868652105331421,-1.58837890625,-0.05712890625,0.0338134765625
2.094,310,799,1056,312,-1.0,37.0,51.0,3.906249761581421,19.71435546875,4.5166015625,-1.41650390625,0.079345703125,0.1610107421875
2.108,311,728,901,311,-1.0,37.0,51.0,6.835937023162842,27.648923873901367,9.70458984375,-1.236083984375,0.2862548828125,-0.0225830078125
2.115,310,683,835,311,-1.0,37.0,51.0,8.11767578125,39.85595703125,12.084959983825684,-1.236083984375,0.2862548828125,-0.0225830078125
2.123,310,622,756,311,-1.0,37.0,51.0,7.019042491912842,49.804683685302734,11.718749046325684,-1.2120361328125,0.3406982421875,-0.1241455078125
2.146,310,508,608,310,-1.0,37.0,51.0,4.39453125,52.856441497802734,9.1552734375,-1.0218505859375,0.286376953125,-0.16552734375
2.146,310,450,530,310,-1.0,37.0,51.0,0.8544921278953552,50.903316497802734,3.967284917831421,-1.0218505859375,0.286376953125,-0.16552734375
2.170,310,396,473,310,-1.0,37.0,51.0,-0.7934569716453552,49.682613372802734,-3.417968511581421,-0.8223876953125,0.2198486328125,-0.1533203125
2.170,308,323,420,309,-1.0,37.0,51.0,2.868652105331421,50.903316497802734,-10.803221702575684,-0.52587890625,0.1329345703125,-0.072021484375
2.176,310,308,407,308,-1.0,37.0,51.0,13.244627952575684,53.527828216552734,-14.770506858825684,-0.52587890625,0.1329345703125,-0.072021484375
2.183,310,310,402,310,-1.0,37.0,51.0,26.245115280151367,55.114742279052734,-14.648436546325684,-0.488525390625,0.1739501953125,-0.017578125
2.197,310,310,402,308,-1.0,36.0,42.0,30.761716842651367,50.231929779052734,-11.230467796325684,-0.6181640625,0.2252197265625,0.205322265625
2.205,308,313,401,309,-1.0,36.0,42.0,22.277830123901367,37.29248046875,-2.197265625,-0.6181640625,0.2252197265625,0.205322265625
2.216,309,314,396,309,-1.0,36.0,42.0,11.718749046325684,24.169919967651367,7.385253429412842,-0.72607421875,0.1807861328125,0.260009765625
2.227,310,312,393,309,-1.0,36.0,42.0,12.145995140075684,17.08984375,8.97216796875,-0.866943359375,0.0670166015625,0.080322265625
2.235,310,312,396,310,-1.0,36.0,42.0,21.240232467651367,14.282225608825684,6.103515148162842,-0.866943359375,0.0670166015625,0.080322265625
2.251,309,312,399,310,-1.0,36.0,42.0,24.536130905151367,9.33837890625,4.2724609375,-0.836669921875,0.0731201171875,0.003662109375
2.276,308,313,401,310,-1.0,36.0,42.0,8.97216796875,-12.695311546325684,2.746581792831421,-0.65478515625,0.044677734375,0.0714111328125
2.276,310,313,405,311,-1.0,36.0,42.0,8.97216796875,-12.695311546325684,2.746581792831421,-0.6065673828125,0.052734375,0.0609130859375
2.277,309,312,402,310,-1.0,36.0,42.0,12.329100608825684,-18.1884765625,3.234863042831421,-0.6065673828125,0.052734375,0.0609130859375
2.287,308,312,402,309,-2.0,37.0,44.0,32.5927734375,-18.6767578125,6.958007335662842,-0.5919189453125,0.1917724609375,-0.035888671875
2.296,310,313,410,310,-2.0,37.0,44.0,32.5927734375,-18.6767578125,6.958007335662842,-0.57421875,0.2171630859375,-0.0859375
2.306,310,312,408,310,-2.0,37.0,44.0,34.7900390625,-20.01953125,8.72802734375,-0.57421875,0.2171630859375,-0.0859375
2.318,310,314,420,310,-2.0,37.0,44.0,34.97314453125,-15.563963890075684,8.72802734375,-0.5694580078125,0.0628662109375,-0.2257080078125
2.325,309,314,437,309,-2.0,37.0,44.0,34.97314453125,-15.563963890075684,8.72802734375,-0.59423828125,0.0377197265625,-0.2645263671875
2.333,309,323,441,310,-2.0,37.0,44.0,38.0859375,-9.1552734375,6.469726085662842,-0.59423828125,0.0377197265625,-0.2645263671875
2.362,310,357,410,310,-2.0,37.0,44.0,25.268552780151367,-11.596678733825684,8.7890625,-0.546875,0.088623046875,-0.1104736328125
2.379,310,391,408,310,-2.0,37.0,44.0,25.268552780151367,-11.596678733825684,8.7890625,-0.6923828125,0.168701171875,-0.0645751953125
2.380,309,424,428,308,-2.0,37.0,44.0,13.671874046325684,-20.935056686401367,16.54052734375,-0.6923828125,0.168701171875,-0.0645751953125
2.380,309,465,506,310,-2.0,37.0,44.0,-5.798339366912842,-48.339839935302734,29.113767623901367,-0.872314453125,0.55859375,-0.3194580078125
2.385,310,509,558,311,-2.0,38.0,44.0,-5.798339366912842,-48.339839935302734,29.113767623901367,-0.5228271484375,0.4268798828125,-0.3251953125
2.393,308,531,651,312,-2.0,38.0,44.0,-34.36279296875,-60.119625091552734,15.441893577575684,-0.310791015625,0.04052734375,-0.1236572265625
2.407,308,590,795,311,-2.0,38.0,44.0,-121.39891815185547,-74.0966796875,-29.846189498901367,-0.4501953125,-0.358154296875,0.18359375
2.418,310,642,853,312,-2.0,38.0,44.0,-120.60546112060547,-68.603515625,-27.221677780151367,-0.729736328125,-0.4432373046875,0.381591796875
2.424,309,683,904,312,-2.0,38.0,44.0,-120.60546112060547,-68.603515625,-27.221677780151367,-0.9827880859375,-0.0438232421875,0.3387451171875
2.437,310,749,995,311,-2.0,38.0,44.0,-1.7700194120407104,-42.663570404052734,22.033689498901367,-1.2030029296875,0.5350341796875,0.249267578125
2.478,310,782,1026,312,-2.0,38.0,44.0,23.071287155151367,-43.457027435302734,32.28759765625,-1.397705078125,0.822265625,0.3155517578125
2.478,310,806,1035,311,-2.0,38.0,44.0,23.071287155151367,-43.457027435302734,32.28759765625,-1.5833740234375,0.8016357421875,0.4100341796875
2.479,310,861,1034,297,-2.0,38.0,44.0,12.512206077575684,-46.081539154052734,18.310546875,-1.783935546875,0.6824951171875,0.3394775390625
2.479,311,877,1017,314,-2.0,38.0,44.0,22.399900436401367,-30.456541061401367,11.840819358825684,-1.9857177734375,0.49755859375,0.1307373046875
2.483,311,885,973,311,-2.0,38.0,44.0,22.399900436401367,-30.456541061401367,11.840819358825684,-2.0933837890625,0.203857421875,-0.0828857421875
2.497,310,882,959,312,-4.0,34.0,45.0,34.1796875,1.7089842557907104,-7.324218273162842,-1.8555908203125,-0.0936279296875,-0.2679443359375
2.505,309,886,978,312,-4.0,34.0,45.0,32.1044921875,14.038084983825684,-20.935056686401367,-1.41650390625,-0.1328125,-0.394775390625
2.513,310,882,988,312,-4.0,34.0,45.0,32.1044921875,14.038084983825684,-20.935056686401367,-1.3331298828125,0.0758056640625,-0.3018798828125
2.531,310,861,992,312,-4.0,34.0,45.0,-10.253905296325684,15.380858421325684,-18.4326171875,-1.5362548828125,0.18701171875,0.0479736328125
2.535,312,840,982,312,-4.0,34.0,45.0,-36.56005859375,8.4228515625,-8.544921875,-1.597900390625,0.100830078125,0.35888671875
2.543,309,813,955,312,-4.0,34.0,45.0,-34.423828125,11.901854515075684,-2.990722417831421,-1.4735107421875,0.01806640625,0.384765625
2.583,310,751,875,312,-4.0,34.0,45.0,-17.63916015625,23.132322311401367,1.5258787870407104,-1.3201904296875,0.06298828125,0.209228515625
2.583,311,700,827,312,-4.0,34.0,45.0,-6.469726085662842,35.33935546875,7.080077648162842,-1.242919921875,0.181396484375,0.010009765625
2.584,310,657,782,311,-4.0,34.0,45.0,-4.5166015625,45.104976654052734,11.413573265075684,-1.2374267578125,0.27197265625,-0.1143798828125
2.587,310,590,678,312,-3.0,37.0,43.0,-5.126952648162842,50.354000091552734,12.329100608825684,-1.2408447265625,0.3193359375,-0.1451416015625
2.595,311,545,634,310,-3.0,37.0,43.0,-4.7607421875,49.621578216552734,10.620116233825684,-1.19970703125,0.3353271484375,-0.112060546875
2.603,310,503,574,312,-3.0,37.0,43.0,-5.859374523162842,45.349117279052734,7.141112804412842,-1.1014404296875,0.3052978515625,-0.078125
2.617,310,420,499,311,-3.0,37.0,43.0,-7.812499523162842,42.480464935302734,1.0986328125,-0.94921875,0.2423095703125,-0.0758056640625
2.625,310,379,477,310,-3.0,37.0,43.0,-6.591796398162842,43.212886810302734,-7.202147960662842,-0.76220703125,0.1805419921875,-0.12060546875
2.633,310,357,438,311,-3.0,37.0,43.0,1.0986328125,47.668453216552734,-15.319823265075684,-0.638671875,0.1363525390625,-0.190673828125
2.647,308,317,415,310,-3.0,37.0,43.0,15.624999046325684,52.185054779052734,-20.324705123901367,-0.62744140625,0.1435546875,-0.205078125
2.657,310,312,410,309,-3.0,37.0,43.0,30.273435592651367,51.452632904052734,-21.362302780151367,-0.651123046875,0.227783203125,-0.155517578125
2.673,310,311,408,308,-3.0,37.0,43.0,32.65380859375,42.968746185302734,-20.01953125,-0.6463623046875,0.3333740234375,-0.056396484375
2.677,308,311,413,310,-3.0,37.0,43.0,16.6015625,27.526853561401367,-16.78466796875,-0.638671875,0.366455078125,0.101318359375
2.698,310,310,408,310,0.0,38.0,45.0,-5.493163585662842,10.620116233825684,-11.596678733825684,-0.67431640625,0.2689208984375,0.267333984375
2.698,311,311,407,308,0.0,38.0,45.0,-11.230467796325684,1.220703125,-8.1787109375,-0.73681640625,0.1363525390625,0.3145751953125
2.707,309,310,406,310,0.0,38.0,45.0,4.08935546875,2.929687261581421,-6.103515148162842,-0.7623291015625,0.1114501953125,0.1932373046875
2.715,310,310,409,309,0.0,38.0,45.0,22.033689498901367,8.6669921875,-1.7700194120407104,-0.7174072265625,0.143798828125,0.0291748046875
2.725,311,309,409,310,0.0,38.0,45.0,27.954099655151367,10.253905296325684,1.6479490995407104,-0.6527099609375,0.1202392578125,-0.04248046875
2.737,310,310,411,309,0.0,38.0,45.0,24.963376998901367,6.286620616912842,2.0751953125,-0.597900390625,0.058349609375,-0.0238037109375
2.745,310,310,411,310,0.0,38.0,45.0,23.986814498901367,-0.54931640625,3.540038824081421,-0.543212890625,0.033935546875,-0.0032958984375
2.764,309,311,428,310,0.0,38.0,45.0,28.198240280151367,-6.164550304412842,7.141112804412842,-0.5079345703125,0.0458984375,-0.016845703125
2.776,308,312,465,309,0.0,38.0,45.0,33.75244140625,-9.33837890625,9.09423828125,-0.5057373046875,0.0545654296875,-0.0413818359375
2.779,310,311,465,310,0.0,38.0,45.0,36.1328125,-11.474608421325684,7.080077648162842,-0.5272216796875,0.0494384765625,-0.0357666015625
2.785,310,323,469,308,-6.0,38.0,44.0,32.958984375,-14.587401390075684,2.38037109375,-0.53076171875,0.014892578125,0.0181884765625
2.797,310,342,454,309,-6.0,38.0,44.0,26.245115280151367,-18.1884765625,-1.03759765625,-0.4854736328125,-0.0316162109375,0.068603515625
2.805,310,391,437,308,-6.0,38.0,44.0,20.324705123901367,-20.01953125,2.25830078125,-0.47412109375,-0.0040283203125,0.069580078125
2.813,310,420,464,310,-6.0,38.0,44.0,16.54052734375,-23.803709030151367,14.465331077575684,-0.6160888671875,0.1748046875,-0.0035400390625
2.830,310,477,529,310,-6.0,38.0,44.0,11.413573265075684,-33.75244140625,28.564451217651367,-0.827392578125,0.4501953125,-0.185791015625
2.835,310,502,618,311,-6.0,38.0,44.0,-2.990722417831421,-46.874996185302734,30.639646530151367,-0.7667236328125,0.568603515625,-0.37060546875
2.843,310,537,700,312,-6.0,38.0,44.0,-33.203125,-57.434078216552734,12.939452171325684,-0.467041015625,0.3399658203125,-0.35205078125
2.861,310,601,859,311,-6.0,38.0,44.0,-80.078125,-64.0869140625,-14.404295921325684,-0.6015625,-0.4344482421875,0.3228759765625
2.869,310,646,933,311,-6.0,38.0,44.0,-120.36132049560547,-67.2607421875,-28.320310592651367,-0.6015625,-0.4344482421875,0.3228759765625
2.892,309,689,994,312,-6.0,38.0,44.0,-108.52050018310547,-62.316890716552734,-18.98193359375,-0.8779296875,-0.406494140625,0.510986328125
2.892,310,756,1094,312,-1.0,36.0,44.0,-43.884273529052734,-49.316402435302734,4.2724609375,-1.4903564453125,0.70068359375,0.1182861328125
2.895,311,793,1120,312,-1.0,36.0,44.0,13.366698265075684,-38.4521484375,28.259275436401367,-1.4903564453125,0.70068359375,0.1182861328125
2.903,311,822,1129,312,-1.0,36.0,44.0,24.658201217651367,-35.2783203125,40.771480560302734,-1.65087890625,0.873291015625,0.0540771484375
2.917,310,856,1143,311,-1.0,36.0,44.0,9.09423828125,-34.1796875,37.17041015625,-1.7132568359375,0.466796875,0.20654296875
2.928,310,874,1131,312,-1.0,36.0,44.0,-2.624511480331421,-28.320310592651367,25.878904342651367,-1.7132568359375,0.466796875,0.20654296875
2.934,310,873,1074,312,-1.0,36.0,44.0,-0.8544921278953552,-17.02880859375,16.6015625,-1.8306884765625,0.32421875,0.165283203125
2.947,310,865,1035,312,-1.0,36.0,44.0,8.36181640625,-4.45556640625,10.131834983825684,-1.649169921875,0.0126953125,-0.2027587890625
2.955,308,873,1056,311,-1.0,36.0,44.0,18.06640625,7.812499523162842,2.0751953125,-1.649169921875,0.0126953125,-0.2027587890625
2.963,310,874,1078,312,-1.0,36.0,44.0,23.132322311401367,19.775390625,-7.934569835662842,-1.3311767578125,0.06005859375,-0.3719482421875
2.992,310,854,1076,310,-1.0,36.0,44.0,11.352538108825684,23.742673873901367,-12.145995140075684,-1.6014404296875,0.268798828125,0.0565185546875
2.993,310,840,1055,312,-4.0,35.0,44.0,-16.54052734375,17.7001953125,-8.4228515625,-1.6014404296875,0.268798828125,0.0565185546875
2.993,309,811,1029,311,-4.0,35.0,44.0,-32.77587890625,13.122557640075684,-5.065917491912842,-1.6116943359375,0.16943359375,0.318359375
3.007,310,756,943,311,-4.0,35.0,44.0,-23.986814498901367,17.333984375,-4.45556640625,-1.3162841796875,0.175537109375,0.134765625
3.015,311,716,882,312,-4.0,35.0,44.0,-6.225585460662842,26.611326217651367,-1.7089842557907104,-1.2547607421875,0.2833251953125,-0.0013427734375
3.023,310,676,827,311,-4.0,35.0,44.0,3.723144292831421,35.46142578125,3.417968511581421,-1.2547607421875,0.2833251953125,-0.0013427734375
3.037,310,601,712,310,-4.0,35.0,44.0,2.563476324081421,46.630855560302734,4.57763671875,-1.2174072265625,0.3309326171875,-0.05859375
3.045,310,551,650,311,-4.0,35.0,44.0,2.563476324081421,46.630855560302734,4.57763671875,-1.167236328125,0.3033447265625,-0.066650390625
3.053,309,508,591,311,-4.0,35.0,44.0,3.784179449081421,48.645015716552734,0.9155272841453552,-1.167236328125,0.3033447265625,-0.066650390625
3.067,308,428,497,310,-4.0,35.0,44.0,3.479003667831421,49.987789154052734,-8.056640625,-0.8814697265625,0.2177734375,-0.084228515625
3.105,310,377,465,310,-4.0,35.0,44.0,3.479003667831421,49.987789154052734,-8.056640625,-0.6988525390625,0.125732421875,-0.1429443359375
3.106,310,336,444,310,-6.0,40.0,40.0,4.150390625,51.879878997802734,-13.793944358825684,-0.6988525390625,0.125732421875,-0.1429443359375
3.106,308,312,423,309,-6.0,40.0,40.0,31.433103561401367,58.166500091552734,-18.98193359375,-0.5953369140625,0.133544921875,-0.2568359375
3.106,308,311,426,294,-6.0,40.0,40.0,31.433103561401367,58.166500091552734,-18.98193359375,-0.6180419921875,0.2510986328125,-0.1478271484375
3.113,310,314,435,310,-6.0,40.0,40.0,41.809078216552734,52.307125091552734,-16.05224609375,-0.6180419921875,0.2510986328125,-0.1478271484375
3.127,309,312,420,308,-6.0,40.0,40.0,2.01416015625,20.141599655151367,-4.5166015625,-0.67431640625,0.4320068359375,0.192138671875
3.136,309,313,414,308,-6.0,40.0,40.0,2.01416015625,20.141599655151367,-4.5166015625,-0.7117919921875,0.3321533203125,0.31201171875
3.143,311,314,414,308,-6.0,40.0,40.0,-27.587888717651367,6.652831554412842,-0.3662109076976776,-0.7117919921875,0.3321533203125,0.31201171875
3.157,310,314,410,308,-6.0,40.0,40.0,-24.841306686401367,8.7890625,-4.0283203125,-0.755615234375,0.140869140625,0.1480712890625
3.168,309,314,414,308,-6.0,40.0,40.0,-5.981444835662842,11.840819358825684,-0.7324218153953552,-0.7391357421875,0.1622314453125,0.045654296875
3.173,308,314,414,310,-6.0,40.0,40.0,-5.981444835662842,11.840819358825684,-0.7324218153953552,-0.6781005859375,0.201416015625,0.046630859375
3.211,308,314,415,308,-3.0,39.0,42.0,-1.5258787870407104,-4.57763671875,12.084959983825684,-0.6094970703125,0.2340087890625,0.062255859375
3.212,289,298,419,310,-3.0,39.0,42.0,-8.11767578125,-11.108397483825684,14.221190452575684,-0.576171875,0.2513427734375,0.02685546875
3.213,308,315,417,310,-3.0,39.0,42.0,-8.11767578125,-11.108397483825684,14.221190452575684,-0.567138671875,0.24560546875,-0.0311279296875
3.217,310,314,439,309,-3.0,39.0,42.0,-12.634276390075684,-16.845703125,14.892577171325684,-0.5535888671875,0.199462890625,-0.0748291015625
3.225,310,314,469,308,-3.0,39.0,42.0,-12.817381858825684,-19.47021484375,13.916014671325684,-0.531982421875,0.0885009765625,-0.090576171875
3.235,309,310,477,310,-3.0,39.0,42.0,-12.817381858825684,-19.47021484375,13.916014671325684,-0.5186767578125,-0.0697021484375,-0.0750732421875
3.247,310,317,493,308,-3.0,39.0,42.0,1.7089842557907104,-17.76123046875,-6.042479991912842,-0.5025634765625,-0.19970703125,-0.0240478515625
3.255,309,328,481,307,-3.0,39.0,42.0,13.366698265075684,-15.747069358825684,-17.63916015625,-0.449462890625,-0.241943359375,0.0064697265625
3.263,309,345,463,310,-3.0,39.0,42.0,13.366698265075684,-15.747069358825684,-17.63916015625,-0.4337158203125,-0.1524658203125,-0.0400390625
3.277,309,394,481,311,-3.0,39.0,42.0,27.526853561401367,-22.216794967651367,-1.2817381620407104,-0.6270751953125,0.1212158203125,-0.1552734375
3.300,309,420,522,310,-4.0,35.0,48.0,20.507810592651367,-39.61181640625,17.9443359375,-0.8797607421875,0.4970703125,-0.33544921875
3.300,310,435,582,310,-4.0,35.0,48.0,20.507810592651367,-39.61181640625,17.9443359375,-0.7689208984375,0.6456298828125,-0.453125
3.310,310,481,796,312,-4.0,35.0,48.0,-53.161617279052734,-68.54248046875,7.202147960662842,-0.4119873046875,0.3885498046875,-0.3385009765625
3.320,310,513,901,312,-4.0,35.0,48.0,-114.62401580810547,-71.8994140625,-23.193357467651367,-0.3502197265625,-0.0465087890625,0.013671875
3.324,308,551,973,312,-4.0,35.0,48.0,-158.99658203125,-71.59423828125,-40.588375091552734,-0.601318359375,-0.349609375,0.4178466796875
3.339,310,607,1082,310,-4.0,35.0,48.0,-139.2822265625,-63.110347747802734,-34.3017578125,-0.861083984375,-0.2359619140625,0.582275390625
3.345,310,644,1153,311,-4.0,35.0,48.0,-64.88037109375,-47.241207122802734,-14.099120140075684,-1.139892578125,0.282470703125,0.4525146484375
3.353,310,671,1204,312,-4.0,35.0,48.0,-8.1787109375,-39.48974609375,6.713866710662842,-1.4404296875,0.7392578125,0.318603515625
3.373,310,718,1231,311,-4.0,35.0,48.0,-1.6479490995407104,-44.616695404052734,21.118162155151367,-1.635498046875,0.8507080078125,0.3323974609375
3.375,310,754,1231,312,-4.0,35.0,48.0,-3.540038824081421,-42.663570404052734,29.785154342651367,-1.8094482421875,0.7332763671875,0.2860107421875
3.398,310,780,1214,312,-1.0,36.0,44.0,17.9443359375,-22.888181686401367,35.33935546875,-2.10693359375,0.437744140625,0.0582275390625
3.399,310,770,1141,312,-1.0,36.0,44.0,42.297359466552734,-0.4882812201976776,32.5927734375,-2.310302734375,0.0093994140625,-0.1661376953125
3.405,310,755,1129,312,-1.0,36.0,44.0,46.874996185302734,12.512206077575684,14.648436546325684,-1.9869384765625,-0.2906494140625,-0.2423095703125
3.416,310,756,1139,312,-1.0,36.0,44.0,37.41455078125,19.95849609375,-10.864256858825684,-1.3741455078125,-0.24267578125,-0.1995849609375
3.432,311,756,1147,311,-1.0,36.0,44.0,23.132322311401367,23.071287155151367,-23.742673873901367,-1.2061767578125,0.0611572265625,-0.091552734375
3.435,310,749,1139,312,-1.0,36.0,44.0,-0.4882812201976776,19.59228515625,-17.9443359375,-1.5001220703125,0.301513671875,0.0675048828125
3.444,310,726,1130,312,-1.0,36.0,44.0,-26.000974655151367,15.258788108825684,-6.530761241912842,-1.732421875,0.3402099609375,0.224609375
3.465,310,689,1082,312,-1.0,36.0,44.0,-33.0810546875,15.502928733825684,1.15966796875,-1.6951904296875,0.2900390625,0.278564453125
3.466,310,646,1029,312,-1.0,36.0,44.0,-20.812986373901367,20.263669967651367,5.065917491912842,-1.5408935546875,0.2557373046875,0.2059326171875
3.512,310,540,846,311,0.0,38.0,44.0,2.807616949081421,34.72900390625,5.981444835662842,-1.3394775390625,0.2947998046875,-0.0146484375
3.512,309,493,766,311,0.0,38.0,44.0,3.112792730331421,40.344234466552734,3.540038824081421,-1.236328125,0.291259765625,-0.0574951171875
3.513,310,439,712,312,0.0,38.0,44.0,2.624511480331421,44.616695404052734,-0.8544921278953552,-1.067138671875,0.2193603515625,-0.0843505859375
3.523,310,373,628,311,0.0,38.0,44.0,6.530761241912842,49.621578216552734,-8.056640625,-0.8536376953125,0.0487060546875,-0.15478515625
3.525,308,345,578,310,0.0,38.0,44.0,19.8974609375,57.678218841552734,-16.845703125,-0.709228515625,-0.1339111328125,-0.2806396484375
3.533,310,328,558,310,0.0,38.0,44.0,42.907711029052734,66.2841796875,-20.690916061401367,-0.666259765625,-0.180419921875,-0.3482666015625
3.548,310,314,496,310,0.0,38.0,44.0,62.011714935302734,68.54248046875,-15.075682640075684,-0.6590576171875,-0.1107177734375,-0.235595703125
3.555,310,312,476,310,0.0,38.0,44.0,64.39208984375,61.889644622802734,-5.554198741912842,-0.633544921875,-0.011962890625,0.0203857421875
3.564,308,312,454,310,0.0,38.0,44.0,50.048824310302734,50.720211029052734,1.7700194120407104,-0.6044921875,0.089599609375,0.213623046875
3.578,308,312,436,310,-4.0,37.0,46.0,26.489255905151367,40.649410247802734,7.995604991912842,-0.625244140625,0.216796875,0.203125
3.586,310,312,420,309,-4.0,37.0,46.0,3.051757574081421,32.16552734375,17.76123046875,-0.6431884765625,0.2928466796875,0.088623046875
3.605,309,311,407,310,-4.0,37.0,46.0,-6.591796398162842,26.611326217651367,25.207517623901367,-0.644775390625,0.1898193359375,0.0228271484375
3.608,310,310,402,308,-4.0,37.0,46.0,14.221190452575684,27.832029342651367,16.7236328125,-0.6966552734375,0.037353515625,-0.0059814453125
3.615,309,310,409,309,-4.0,37.0,46.0,56.640621185302734,30.822751998901367,0.9765624403953552,-0.763427734375,0.028564453125,-0.0509033203125
3.629,308,311,408,308,-4.0,37.0,46.0,85.87645721435547,24.841306686401367,-2.868652105331421,-0.777099609375,0.122314453125,-0.05029296875
3.637,309,314,410,308,-4.0,37.0,46.0,90.14891815185547,10.131834983825684,3.967284917831421,-0.645751953125,0.23095703125,0.046630859375
3.646,308,314,410,310,-4.0,37.0,46.0,86.12059783935547,-1.7089842557907104,9.94873046875,-0.645751953125,0.23095703125,0.046630859375
3.658,313,312,414,309,-4.0,37.0,46.0,81.54296112060547,-4.8828125,11.535643577575684,-0.605712890625,0.3348388671875,0.0155029296875
3.667,310,312,437,308,-4.0,37.0,46.0,69.82421875,-4.69970703125,12.329100608825684,-0.5963134765625,0.506103515625,-0.0555419921875
3.680,309,310,447,310,-4.0,38.0,44.0,49.316402435302734,-6.408690929412842,13.488768577575684,-0.5963134765625,0.506103515625,-0.0555419921875
3.683,310,311,473,309,-4.0,38.0,44.0,27.099607467651367,-9.21630859375,12.207030296325684,-0.595458984375,0.4615478515625,-0.0489501953125
3.707,310,314,497,310,-4.0,38.0,44.0,10.986327171325684,-10.437010765075684,6.530761241912842,-0.555908203125,0.18408203125,-0.0189208984375
3.707,309,325,521,308,-4.0,38.0,44.0,2.25830078125,-9.1552734375,-1.15966796875,-0.555908203125,0.18408203125,-0.0189208984375
3.714,310,326,512,310,-4.0,38.0,44.0,-2.868652105331421,-7.080077648162842,-6.286620616912842,-0.5394287109375,0.1065673828125,-0.01171875
3.727,308,386,481,310,-4.0,38.0,44.0,-6.530761241912842,-7.263183116912842,-6.774901866912842,-0.673095703125,0.185791015625,-0.0863037109375
3.736,310,415,477,311,-4.0,38.0,44.0,-7.812499523162842,-10.864256858825684,-1.3427733182907104,-0.673095703125,0.185791015625,-0.0863037109375
3.744,310,450,493,310,-4.0,38.0,44.0,-10.314940452575684,-16.41845703125,8.1787109375,-0.8134765625,0.3287353515625,-0.2137451171875
3.757,310,513,572,311,-4.0,38.0,44.0,-25.329587936401367,-22.583005905151367,12.695311546325684,-0.5360107421875,0.288330078125,-0.2611083984375
3.770,310,543,650,312,-4.0,38.0,44.0,-56.396480560302734,-30.456541061401367,3.417968511581421,-0.3958740234375,-0.028076171875,0.0013427734375
3.773,310,579,728,312,-4.0,38.0,44.0,-89.72167205810547,-40.466304779052734,-15.563963890075684,-0.3958740234375,-0.028076171875,0.0013427734375
3.787,311,652,819,311,-3.0,36.0,38.0,-73.05908203125,-45.166011810302734,-28.259275436401367,-0.84326171875,-0.2696533203125,0.4000244140625
3.800,310,710,859,310,-3.0,36.0,38.0,-73.05908203125,-45.166011810302734,-28.259275436401367,-1.1246337890625,0.176513671875,0.320068359375
3.809,310,758,907,312,-3.0,36.0,38.0,-20.141599655151367,-37.4755859375,-9.521484375,-1.1246337890625,0.176513671875,0.320068359375
3.817,309,827,954,312,-3.0,36.0,38.0,24.414060592651367,-29.663084030151367,25.329587936401367,-1.571533203125,0.7867431640625,0.0743408203125
3.826,310,848,966,310,-3.0,36.0,38.0,24.414060592651367,-29.663084030151367,25.329587936401367,-1.7056884765625,0.6982421875,0.0516357421875
3.833,310,861,962,312,-3.0,36.0,38.0,19.1650390625,-27.099607467651367,20.568845748901367,-1.7056884765625,0.6982421875,0.0516357421875
3.850,311,890,927,312,-3.0,36.0,38.0,22.888181686401367,-11.047362327575684,3.662109136581421,-1.9315185546875,0.35498046875,-0.1558837890625
3.856,310,883,901,312,-3.0,36.0,38.0,22.888181686401367,-11.047362327575684,3.662109136581421,-1.920166015625,0.144287109375,-0.3001708984375
3.864,310,873,883,310,-3.0,36.0,38.0,26.977537155151367,0.54931640625,-3.601073980331421,-1.920166015625,0.144287109375,-0.3001708984375
3.890,310,873,913,310,-3.0,36.0,42.0,26.916501998901367,15.808104515075684,-24.963376998901367,-1.1656494140625,0.0692138671875,-0.3695068359375
3.890,310,871,921,311,-3.0,36.0,42.0,26.916501998901367,15.808104515075684,-24.963376998901367,-1.25244140625,0.2078857421875,-0.221923828125
3.896,310,858,923,312,-3.0,36.0,42.0,12.207030296325684,15.197752952575684,-26.916501998901367,-1.25244140625,0.2078857421875,-0.221923828125
3.914,310,818,901,311,-3.0,36.0,42.0,-32.77587890625,8.60595703125,-12.145995140075684,-1.6502685546875,0.140625,0.1605224609375
3.915,308,785,873,310,-3.0,36.0,42.0,-28.686521530151367,12.207030296325684,-5.737304210662842,-1.5306396484375,0.0806884765625,0.096435546875
3.923,310,756,846,312,-3.0,36.0,42.0,-28.686521530151367,12.207030296325684,-5.737304210662842,-1.3914794921875,0.128173828125,-0.0699462890625
3.937,310,685,774,310,-3.0,36.0,42.0,-5.859374523162842,23.803709030151367,5.737304210662842,-1.315185546875,0.19970703125,-0.183349609375
3.948,310,642,725,312,-3.0,36.0,42.0,-6.408690929412842,28.442380905151367,8.1787109375,-1.2672119140625,0.244140625,-0.1964111328125
3.954,310,594,664,312,-3.0,36.0,42.0,-6.408690929412842,28.442380905151367,8.1787109375,-1.1956787109375,0.2706298828125,-0.1390380859375
3.967,310,506,572,310,-3.0,36.0,42.0,-11.657713890075684,32.5927734375,6.896972179412842,-1.07080078125,0.26611328125,-0.0574951171875
3.976,310,447,531,312,-2.0,39.0,44.0,-8.9111328125,33.75244140625,1.2817381620407104,-0.8837890625,0.2222900390625,-0.0025634765625
3.988,310,408,496,311,-2.0,39.0,44.0,-8.9111328125,33.75244140625,1.2817381620407104,-0.664794921875,0.1533203125,-0.046875
4.017,310,340,465,310,-2.0,39.0,44.0,5.554198741912842,46.325679779052734,-13.732909202575684,-0.5233154296875,0.1024169921875,-0.15771484375
4.018,309,323,439,310,-2.0,39.0,44.0,20.935056686401367,53.100582122802734,-14.648436546325684,-0.509033203125,0.1251220703125,-0.1800537109375
4.018,310,315,428,310,-2.0,39.0,44.0,20.935056686401367,53.100582122802734,-14.648436546325684,-0.55908203125,0.209716796875,-0.078369140625
4.027,310,312,419,309,-2.0,39.0,44.0,33.02001953125,41.442867279052734,-6.774901866912842,-0.6136474609375,0.279541015625,0.066650390625
4.035,310,315,411,309,-2.0,39.0,44.0,16.7236328125,27.832029342651367,-5.737304210662842,-0.6552734375,0.2939453125,0.186279296875
4.043,310,315,414,310,-2.0,39.0,44.0,16.7236328125,27.832029342651367,-5.737304210662842,-0.695068359375,0.269775390625,0.2335205078125
4.059,309,315,411,309,-2.0,39.0,44.0,-7.629394054412842,11.474608421325684,-6.164550304412842,-0.7525634765625,0.2247314453125,0.1639404296875
4.066,310,313,415,309,-2.0,39.0,44.0,0.1831054538488388,11.291502952575684,-4.33349609375,-0.814697265625,0.1785888671875,-0.00732421875
4.073,309,314,415,308,-5.0,40.0,41.0,14.953612327575684,11.779784202575684,-1.4038084745407104,-0.8309326171875,0.1341552734375,-0.14990234375
4.091,308,315,419,310,-5.0,40.0,41.0,29.418943405151367,8.6669921875,1.4038084745407104,-0.7840576171875,0.090576171875,-0.181640625
4.096,308,314,420,310,-5.0,40.0,41.0,38.87939453125,2.0751953125,3.173827886581421,-0.7166748046875,0.072509765625,-0.146484375
4.116,310,314,421,310,-5.0,40.0,41.0,42.663570404052734,-4.82177734375,3.662109136581421,-0.6759033203125,0.08447265625,-0.1029052734375
4.117,310,314,437,310,-5.0,40.0,41.0,41.625972747802734,-9.82666015625,3.356933355331421,-0.664306640625,0.1048583984375,-0.0728759765625
4.125,308,314,438,308,-5.0,40.0,41.0,37.353515625,-12.451170921325684,2.50244140625,-0.662353515625,0.1129150390625,-0.0615234375
4.134,310,311,435,310,-5.0,40.0,41.0,31.616209030151367,-13.488768577575684,1.2817381620407104,-0.658935546875,0.101318359375,-0.069580078125
4.147,308,314,463,310,-5.0,40.0,41.0,24.780271530151367,-14.770506858825684,0.1831054538488388,-0.643310546875,0.072509765625,-0.080810546875
4.168,308,322,465,310,-5.0,40.0,41.0,17.39501953125,-17.2119140625,-0.2441406100988388,-0.617919921875,0.046630859375,-0.0830078125
4.168,308,337,441,310,-5.0,40.0,41.0,10.803221702575684,-20.629880905151367,1.4038084745407104,-0.62255859375,0.0660400390625,-0.0743408203125
4.177,310,388,396,309,-4.0,39.0,51.0,6.530761241912842,-25.573728561401367,6.408690929412842,-0.6947021484375,0.1436767578125,-0.0745849609375
4.193,310,420,395,310,-4.0,39.0,51.0,5.249022960662842,-32.3486328125,14.160155296325684,-0.836181640625,0.264892578125,-0.1241455078125
4.194,309,441,415,310,-4.0,39.0,51.0,2.685546636581421,-40.893550872802734,21.240232467651367,-0.9298095703125,0.3868408203125,-0.2120361328125
4.223,310,497,466,310,-4.0,39.0,51.0,-8.30078125,-49.987789154052734,21.789548873901367,-0.793212890625,0.411376953125,-0.27490234375
4.224,310,523,504,310,-4.0,39.0,51.0,-30.456541061401367,-57.128902435302734,10.986327171325684,-0.4952392578125,0.27490234375,-0.2525634765625
4.224,310,543,548,312,-4.0,39.0,51.0,-61.950679779052734,-61.340328216552734,-8.7890625,-0.3746337890625,-0.011962890625,-0.1259765625
4.237,310,601,658,310,-4.0,39.0,51.0,-91.06444549560547,-63.476558685302734,-25.024412155151367,-0.534912109375,-0.343505859375,0.1092529296875
4.245,310,653,696,311,-4.0,39.0,51.0,-93.07860565185547,-62.805171966552734,-24.902341842651367,-0.771484375,-0.4736328125,0.366455078125
4.253,310,706,717,310,-4.0,39.0,51.0,-54.016109466552734,-58.105464935302734,-6.164550304412842,-0.9781494140625,-0.1842041015625,0.4300537109375
4.270,310,771,766,310,-4.0,39.0,51.0,1.220703125,-52.185054779052734,22.155759811401367,-1.1917724609375,0.3812255859375,0.25439453125
4.276,310,803,784,311,-4.0,36.0,45.0,35.82763671875,-48.767086029052734,42.236324310302734,-1.4144287109375,0.75146484375,0.058837890625
4.283,309,830,796,310,-4.0,36.0,45.0,44.494625091552734,-47.058101654052734,43.151851654052734,-1.6016845703125,0.7325439453125,0.022216796875
4.297,310,858,796,310,-4.0,36.0,45.0,43.579097747802734,-44.189449310302734,32.2265625,-1.7286376953125,0.555419921875,0.09326171875
4.310,310,859,770,310,-4.0,36.0,45.0,43.029781341552734,-37.90283203125,22.399900436401367,-1.8128662109375,0.39892578125,0.096435546875
4.314,310,853,742,310,-4.0,36.0,45.0,45.349117279052734,-25.085447311401367,16.90673828125,-1.841064453125,0.2869873046875,-0.0501708984375
4.334,310,840,739,312,-4.0,36.0,45.0,47.607418060302734,-7.751464366912842,10.803221702575684,-1.613037109375,0.2508544921875,-0.2669677734375
4.335,308,835,742,310,-4.0,36.0,45.0,39.61181640625,5.554198741912842,0.2441406100988388,-1.18505859375,0.2796630859375,-0.3424072265625
4.343,310,835,758,310,-4.0,36.0,45.0,15.991209983825684,10.437010765075684,-10.620116233825684,-0.977294921875,0.3109130859375,-0.209716796875
4.357,308,822,771,310,-4.0,36.0,45.0,-13.732909202575684,12.023924827575684,-17.27294921875,-1.1064453125,0.287841796875,0.0015869140625
4.366,309,810,766,310,-4.0,36.0,45.0,-34.423828125,15.319823265075684,-19.71435546875,-1.37060546875,0.2078857421875,0.15625
4.373,310,784,763,311,-4.0,37.0,43.0,-39.794921875,18.798828125,-16.66259765625,-1.5146484375,0.155517578125,0.181640625
4.387,310,749,728,311,-4.0,37.0,43.0,-34.0576171875,20.629880905151367,-9.521484375,-1.296630859375,0.200927734375,0.013916015625
4.397,310,721,705,310,-4.0,37.0,43.0,-24.597166061401367,22.277830123901367,-3.173827886581421,-1.296630859375,0.200927734375,0.013916015625
4.404,310,694,673,311,-4.0,37.0,43.0,-17.63916015625,25.634763717651367,-0.4882812201976776,-1.22900390625,0.2489013671875,-0.0804443359375
4.420,310,642,613,310,-4.0,37.0,43.0,-15.380858421325684,30.029294967651367,-1.03759765625,-1.22802734375,0.3138427734375,-0.10986328125
4.426,311,604,574,310,-4.0,37.0,43.0,-16.845703125,32.77587890625,-3.295898199081421,-1.22802734375,0.3138427734375,-0.10986328125
4.434,310,573,539,310,-4.0,37.0,43.0,-19.53125,32.958984375,-6.347655773162842,-1.1688232421875,0.3079833984375,-0.05517578125
4.447,309,509,495,310,-4.0,37.0,43.0,-20.080564498901367,32.65380859375,-10.559081077575684,-0.8922119140625,0.23583984375,-0.0301513671875
4.456,310,465,475,310,-4.0,37.0,43.0,-15.258788108825684,34.72900390625,-15.930174827575684,-0.8922119140625,0.23583984375,-0.0301513671875
4.464,310,428,467,310,-4.0,37.0,43.0,-5.432128429412842,38.02490234375,-21.179197311401367,-0.7652587890625,0.1796875,-0.0333251953125
4.482,310,369,437,310,-4.0,39.0,43.0,6.469726085662842,40.161128997802734,-25.146482467651367,-0.6788330078125,0.1204833984375,-0.1051025390625
4.486,310,340,411,310,-4.0,39.0,43.0,18.1884765625,40.893550872802734,-26.794431686401367,-0.6788330078125,0.1204833984375,-0.1051025390625
4.500,310,336,413,310,-4.0,39.0,43.0,25.695798873901367,38.63525390625,-26.000974655151367,-0.673828125,0.172119140625,-0.101806640625
4.507,309,315,415,310,-4.0,39.0,43.0,22.521970748901367,32.958984375,-25.268552780151367,-0.590087890625,0.1953125,0.011962890625
4.525,309,314,415,310,-4.0,39.0,43.0,8.60595703125,25.268552780151367,-25.939939498901367,-0.590087890625,0.1953125,0.011962890625
4.528,309,313,421,310,-4.0,39.0,43.0,-7.812499523162842,17.15087890625,-25.878904342651367,-0.6002197265625,0.1685791015625,0.0860595703125
4.537,308,312,426,310,-4.0,39.0,43.0,-14.648436546325684,6.286620616912842,-18.5546875,-0.7802734375,0.0831298828125,0.14501953125
4.545,310,313,426,309,-4.0,39.0,43.0,-14.648436546325684,6.286620616912842,-18.5546875,-0.846923828125,0.044921875,0.06640625
4.559,310,314,430,310,-4.0,39.0,43.0,-3.906249761581421,4.0283203125,-11.413573265075684,-0.846923828125,0.044921875,0.06640625
4.568,308,314,430,308,-4.0,39.0,43.0,23.437498092651367,2.197265625,-0.4272460639476776,-0.810546875,0.027587890625,-0.1063232421875
4.576,309,314,437,310,-4.0,39.0,46.0,23.437498092651367,2.197265625,-0.4272460639476776,-0.7625732421875,0.080078125,-0.1239013671875
4.587,310,314,435,309,-4.0,39.0,46.0,28.259275436401367,-2.197265625,3.234863042831421,-0.7625732421875,0.080078125,-0.1239013671875
4.602,310,324,426,310,-4.0,39.0,46.0,20.812986373901367,-18.24951171875,8.85009765625,-0.7198486328125,0.1385498046875,-0.0546875
4.606,310,329,430,310,-4.0,39.0,46.0,20.812986373901367,-18.24951171875,8.85009765625,-0.7076416015625,0.1121826171875,-0.0323486328125
4.613,310,338,430,310,-4.0,39.0,46.0,16.6015625,-23.864744186401367,9.70458984375,-0.7076416015625,0.1121826171875,-0.0323486328125
4.630,309,371,419,310,-4.0,39.0,46.0,15.869139671325684,-26.977537155151367,12.512206077575684,-0.7283935546875,0.1124267578125,-0.0562744140625
4.636,310,396,426,310,-4.0,39.0,46.0,15.869139671325684,-26.977537155151367,12.512206077575684,-0.741943359375,0.1851806640625,-0.109375
4.644,310,428,452,310,-4.0,39.0,46.0,15.136717796325684,-31.188962936401367,16.41845703125,-0.741943359375,0.1851806640625,-0.109375
4.658,309,481,496,310,-4.0,39.0,46.0,-8.30078125,-45.776363372802734,18.61572265625,-0.50537109375,0.2645263671875,-0.23193359375
4.671,310,506,533,310,-4.0,39.0,46.0,-8.30078125,-45.776363372802734,18.61572265625,-0.3682861328125,0.1839599609375,-0.165771484375
4.674,310,538,590,310,-3.0,35.0,44.0,-36.2548828125,-52.307125091552734,9.033203125,-0.3682861328125,0.1839599609375,-0.165771484375
4.695,310,601,678,310,-3.0,35.0,44.0,-80.62743377685547,-57.250972747802734,-12.145995140075684,-0.48779296875,-0.101806640625,0.27880859375
4.695,311,634,732,298,-3.0,35.0,44.0,-63.415523529052734,-53.894039154052734,-10.620116233825684,-0.601318359375,-0.1507568359375,0.4107666015625
4.705,310,674,771,311,-3.0,35.0,44.0,-63.415523529052734,-53.894039154052734,-10.620116233825684,-0.729736328125,0.05224609375,0.3778076171875
4.721,310,742,833,311,-3.0,35.0,44.0,23.376462936401367,-52.246089935302734,10.620116233825684,-0.9530029296875,0.360107421875,0.2987060546875
4.730,309,784,873,312,-3.0,35.0,44.0,47.546382904052734,-56.762691497802734,17.4560546875,-1.27734375,0.518798828125,0.2952880859375
4.733,310,816,886,311,-3.0,35.0,44.0,47.546382904052734,-56.762691497802734,17.4560546875,-1.6553955078125,0.548583984375,0.3248291015625
4.747,310,852,895,310,-3.0,35.0,44.0,60.058589935302734,-38.75732421875,16.29638671875,-1.96728515625,0.5299072265625,0.2430419921875
4.755,310,864,886,312,-3.0,35.0,44.0,62.561031341552734,-14.282225608825684,11.047362327575684,-2.15576171875,0.4124755859375,0.032958984375
4.764,308,858,849,312,-3.0,35.0,44.0,62.561031341552734,-14.282225608825684,11.047362327575684,-2.1558837890625,0.2015380859375,-0.1953125
4.784,310,837,819,311,-6.0,33.0,48.0,57.922359466552734,19.47021484375,-7.080077648162842,-1.7332763671875,0.0399169921875,-0.388916015625
4.785,310,846,834,309,-6.0,33.0,48.0,44.494625091552734,20.080564498901367,-13.916014671325684,-1.1339111328125,0.06787109375,-0.4315185546875
4.807,310,845,840,310,-6.0,33.0,48.0,44.494625091552734,20.080564498901367,-13.916014671325684,-1.022705078125,0.2012939453125,-0.2728271484375
4.808,310,832,844,310,-6.0,33.0,48.0,-7.263183116912842,7.324218273162842,-9.21630859375,-1.3419189453125,0.2283935546875,-0.0010986328125
4.821,310,816,827,312,-6.0,33.0,48.0,-34.66796875,2.38037109375,-4.08935546875,-1.5513916015625,0.1361083984375,0.220458984375
4.832,310,799,811,311,-6.0,33.0,48.0,-34.66796875,2.38037109375,-4.08935546875,-1.489013671875,0.08349609375,0.2188720703125
4.837,310,757,770,311,-6.0,33.0,48.0,-35.0341796875,13.488768577575684,4.0283203125,-1.3182373046875,0.13720703125,0.06640625
4.845,310,728,742,311,-6.0,33.0,48.0,-28.259275436401367,22.094724655151367,7.019042491912842,-1.1944580078125,0.200927734375,-0.0494384765625
4.853,310,698,711,311,-6.0,33.0,48.0,-30.151365280151367,27.404783248901367,8.056640625,-1.1485595703125,0.2032470703125,-0.0657958984375
4.867,310,644,639,311,-5.0,35.0,45.0,-33.75244140625,30.456541061401367,7.995604991912842,-1.15966796875,0.2001953125,-0.034912109375
4.877,310,606,607,312,-5.0,35.0,45.0,-32.5927734375,32.2265625,7.934569835662842,-1.175048828125,0.2413330078125,0.005615234375
4.884,310,572,576,311,-5.0,35.0,45.0,-29.174802780151367,33.02001953125,6.896972179412842,-1.1375732421875,0.283203125,0.032470703125
4.897,310,504,525,310,-5.0,35.0,45.0,-26.794431686401367,34.3017578125,3.356933355331421,-1.0362548828125,0.2698974609375,0.0289306640625
4.915,310,463,497,311,-5.0,35.0,45.0,-23.681638717651367,36.92626953125,-1.220703125,-0.9080810546875,0.214111328125,0.005126953125
4.915,310,420,477,310,-5.0,35.0,45.0,-16.845703125,39.61181640625,-4.150390625,-0.7950439453125,0.1517333984375,-0.0184326171875
4.927,310,372,437,310,-5.0,35.0,45.0,-7.385253429412842,41.381832122802734,-4.69970703125,-0.7205810546875,0.0982666015625,-0.045654296875
4.941,309,340,423,309,-5.0,35.0,45.0,2.868652105331421,42.419429779052734,-3.845214605331421,-0.689453125,0.097412109375,-0.0784912109375
4.944,309,326,420,310,-5.0,35.0,45.0,9.70458984375,41.442867279052734,-1.3427733182907104,-0.670166015625,0.1448974609375,-0.0848388671875
4.952,310,315,414,309,-5.0,35.0,45.0,8.1787109375,36.80419921875,1.5258787870407104,-0.6419677734375,0.1644287109375,-0.034423828125
4.966,310,313,415,310,-5.0,39.0,44.0,-0.7934569716453552,28.625486373901367,2.929687261581421,-0.610595703125,0.1556396484375,0.05810546875
4.975,308,314,419,310,-5.0,39.0,44.0,-9.8876953125,19.04296875,3.784179449081421,-0.599609375,0.1693115234375,0.1514892578125
4.982,310,314,417,310,-5.0,39.0,44.0,-10.864256858825684,10.803221702575684,6.042479991912842,-0.6314697265625,0.1932373046875,0.209716796875
4.997,308,314,419,308,-5.0,39.0,44.0,-1.03759765625,5.615233898162842,9.521484375,-0.695068359375,0.1964111328125,0.190185546875
5.042,310,314,419,309,-5.0,39.0,44.0,14.099120140075684,4.69970703125,11.901854515075684,-0.765869140625,0.169189453125,0.0872802734375
5.043,310,314,418,310,-5.0,39.0,44.0,26.306150436401367,5.798339366912842,11.718749046325684,-0.8065185546875,0.126220703125,-0.01904296875
5.044,310,314,418,310,-5.0,39.0,44.0,31.555173873901367,4.7607421875,10.131834983825684,-0.7962646484375,0.112060546875,-0.06298828125
5.044,310,314,420,310,-5.0,39.0,44.0,32.5927734375,0.1831054538488388,9.46044921875,-0.75537109375,0.148193359375,-0.0634765625
5.045,310,315,424,308,-5.0,39.0,44.0,32.2265625,-6.408690929412842,10.131834983825684,-0.713134765625,0.2000732421875,-0.0687255859375
5.057,308,326,426,310,-5.0,39.0,44.0,29.846189498901367,-11.962889671325684,10.009765625,-0.685546875,0.2105712890625,-0.0904541015625
5.064,309,337,430,310,-4.0,37.0,42.0,24.719236373901367,-13.977049827575684,7.934569835662842,-0.6826171875,0.169677734375,-0.1046142578125
5.072,310,342,430,310,-4.0,37.0,42.0,18.9208984375,-12.756346702575684,5.432128429412842,-0.712646484375,0.1444091796875,-0.1082763671875
5.086,310,372,438,308,-4.0,37.0,42.0,13.793944358825684,-11.535643577575684,5.0048828125,-0.7451171875,0.1903076171875,-0.13232421875
5.094,310,394,465,310,-4.0,37.0,42.0,6.225585460662842,-13.671874046325684,5.920409679412842,-0.71923828125,0.2628173828125,-0.1810302734375
5.103,310,411,496,311,-4.0,37.0,42.0,-8.9111328125,-20.874021530151367,4.7607421875,-0.61083984375,0.30517578125,-0.20068359375
5.144,310,481,548,311,-4.0,37.0,42.0,-33.87451171875,-31.799314498901367,-1.0986328125,-0.465087890625,0.287353515625,-0.1265869140625
5.144,310,518,604,310,-4.0,37.0,42.0,-62.255855560302734,-40.893550872802734,-11.291502952575684,-0.4051513671875,0.197265625,0.0162353515625
5.144,310,543,658,312,-4.0,37.0,42.0,-79.7119140625,-43.457027435302734,-19.8974609375,-0.491455078125,0.0706787109375,0.155517578125
5.147,310,619,751,311,-4.0,37.0,42.0,-75.0732421875,-41.076656341552734,-20.446775436401367,-0.6456298828125,-0.033935546875,0.2630615234375
5.155,310,647,793,312,-4.0,37.0,42.0,-48.400875091552734,-38.51318359375,-12.329100608825684,-0.788818359375,-0.031982421875,0.274658203125
5.162,310,685,826,310,-4.0,37.0,42.0,-12.023924827575684,-38.26904296875,0.8544921278953552,-0.94775390625,0.133544921875,0.1688232421875
5.177,310,751,887,310,-2.0,36.0,46.0,15.808104515075684,-39.9169921875,14.526366233825684,-1.15673828125,0.3662109375,0.08740234375
5.185,310,777,910,311,-2.0,36.0,46.0,24.841306686401367,-42.053218841552734,23.071287155151367,-1.3626708984375,0.49755859375,0.1273193359375
5.193,310,799,917,312,-2.0,36.0,46.0,21.240232467651367,-40.222164154052734,23.376462936401367,-1.52783203125,0.49365234375,0.1685791015625
5.206,311,827,933,312,-2.0,36.0,46.0,16.845703125,-30.090330123901367,18.4326171875,-1.6611328125,0.4219970703125,0.1126708984375
5.217,310,835,927,311,-2.0,36.0,46.0,14.465331077575684,-15.014647483825684,12.756346702575684,-1.77294921875,0.32470703125,0.01953125
5.243,312,830,895,311,-2.0,36.0,46.0,12.023924827575684,-2.13623046875,8.056640625,-1.8489990234375,0.23779296875,-0.058837890625
5.243,310,823,883,311,-2.0,36.0,46.0,9.6435546875,6.347655773162842,4.0283203125,-1.342041015625,0.1202392578125,-0.209716796875
5.247,310,822,889,312,-2.0,36.0,46.0,7.202147960662842,13.244627952575684,-2.3193359375,-1.342041015625,0.1202392578125,-0.209716796875
5.253,311,816,893,311,-2.0,36.0,46.0,-0.1220703050494194,19.04296875,-9.09423828125,-1.0894775390625,0.154052734375,-0.1651611328125
5.266,310,810,877,310,-4.0,36.0,42.0,-16.9677734375,20.324705123901367,-9.521484375,-1.515869140625,0.1968994140625,0.1988525390625
5.274,310,784,858,312,-4.0,36.0,42.0,-34.11865234375,17.88330078125,-3.540038824081421,-1.515869140625,0.1968994140625,0.1988525390625
5.283,312,767,826,310,-4.0,36.0,42.0,-35.58349609375,16.9677734375,2.25830078125,-1.53466796875,0.183837890625,0.2640380859375
5.296,310,717,756,312,-4.0,36.0,42.0,-21.972654342651367,20.568845748901367,4.638671875,-1.266845703125,0.2191162109375,-0.01708984375
5.305,310,685,711,310,-4.0,36.0,42.0,-6.958007335662842,27.282712936401367,4.94384765625,-1.266845703125,0.2191162109375,-0.01708984375
5.320,310,650,661,310,-4.0,36.0,42.0,0.3662109076976776,33.69140625,5.065917491912842,-1.221435546875,0.237548828125,-0.11474609375
5.349,310,578,588,311,-4.0,36.0,42.0,1.0986328125,37.2314453125,5.920409679412842,-1.1627197265625,0.29833984375,-0.069091796875
5.349,309,537,551,310,-4.0,36.0,42.0,-1.0986328125,37.41455078125,6.835937023162842,-1.1627197265625,0.29833984375,-0.069091796875
5.350,296,485,523,310,-4.0,36.0,42.0,-3.723144292831421,36.56005859375,5.615233898162842,-1.079833984375,0.2906494140625,-0.0450439453125
5.356,310,410,490,311,-4.0,36.0,42.0,-5.615233898162842,37.53662109375,0.8544921278953552,-0.8193359375,0.2257080078125,-0.068115234375
5.364,310,373,467,310,-4.0,39.0,45.0,-6.896972179412842,39.85595703125,-5.310058116912842,-0.8193359375,0.2257080078125,-0.068115234375
5.372,308,360,439,310,-4.0,39.0,45.0,-3.845214605331421,43.212886810302734,-10.253905296325684,-0.717529296875,0.1470947265625,-0.1524658203125
5.388,310,323,415,309,-4.0,39.0,45.0,20.874021530151367,46.691890716552734,-10.925292015075684,-0.6773681640625,0.1380615234375,-0.18505859375
5.395,310,314,419,310,-4.0,39.0,45.0,20.874021530151367,46.691890716552734,-10.925292015075684,-0.62548828125,0.211669921875,-0.0689697265625
5.402,310,312,413,310,-4.0,39.0,45.0,22.521970748901367,38.75732421875,-6.835937023162842,-0.62548828125,0.211669921875,-0.0689697265625
5.422,309,312,411,310,-4.0,39.0,45.0,-3.417968511581421,13.183592796325684,-3.173827886581421,-0.606689453125,0.2369384765625,0.2039794921875
5.425,309,312,410,310,-4.0,39.0,45.0,-3.417968511581421,13.183592796325684,-3.173827886581421,-0.67431640625,0.235595703125,0.27001953125
5.443,310,311,413,309,-4.0,39.0,45.0,-10.803221702575684,5.065917491912842,-2.3193359375,-0.67431640625,0.235595703125,0.27001953125
5.446,308,310,415,310,-4.0,39.0,45.0,11.840819358825684,3.417968511581421,1.220703125,-0.760009765625,0.1993408203125,0.0936279296875
5.461,310,310,415,310,-4.0,39.0,45.0,11.840819358825684,3.417968511581421,1.220703125,-0.7462158203125,0.1292724609375,-0.0406494140625
5.463,308,310,401,308,-3.0,39.0,44.0,26.916501998901367,4.45556640625,1.5869139432907104,-0.7462158203125,0.1292724609375,-0.0406494140625
5.476,309,314,420,308,-3.0,39.0,44.0,33.14208984375,-4.0283203125,1.2817381620407104,-0.662109375,0.098876953125,-0.099609375
5.484,310,314,424,310,-3.0,39.0,44.0,33.14208984375,-4.0283203125,1.2817381620407104,-0.647705078125,0.1407470703125,-0.0968017578125
5.494,308,314,433,310,-3.0,39.0,44.0,31.433103561401367,-9.94873046875,3.173827886581421,-0.647705078125,0.1407470703125,-0.0968017578125
5.506,310,325,434,310,-3.0,39.0,44.0,23.803709030151367,-17.9443359375,5.310058116912842,-0.6400146484375,0.1446533203125,-0.083740234375
5.515,310,327,433,310,-3.0,39.0,44.0,23.803709030151367,-17.9443359375,5.310058116912842,-0.6409912109375,0.123779296875,-0.072509765625
5.524,310,336,423,310,-3.0,39.0,44.0,17.15087890625,-19.71435546875,4.82177734375,-0.66552734375,0.1593017578125,-0.0645751953125
5.559,310,384,435,310,-3.0,39.0,44.0,7.324218273162842,-23.376462936401367,8.23974609375,-0.7255859375,0.265625,-0.09375
5.560,310,410,447,307,-3.0,39.0,44.0,0.7934569716453552,-30.395505905151367,12.023924827575684,-0.7308349609375,0.357421875,-0.1400146484375
5.560,310,446,495,311,-3.0,39.0,44.0,0.7934569716453552,-30.395505905151367,12.023924827575684,-0.603515625,0.3389892578125,-0.1463623046875
5.573,309,505,551,310,-3.0,36.0,48.0,-30.578611373901367,-53.466793060302734,4.08935546875,-0.4404296875,0.212158203125,-0.09765625
5.575,311,531,616,311,-3.0,36.0,48.0,-48.583980560302734,-58.898921966552734,-8.11767578125,-0.4063720703125,0.0277099609375,-0.0184326171875
5.582,310,557,685,312,-3.0,36.0,48.0,-48.583980560302734,-58.898921966552734,-8.11767578125,-0.5267333984375,-0.1483154296875,0.0772705078125
5.596,310,639,781,310,-3.0,36.0,48.0,-57.800289154052734,-52.246089935302734,-17.9443359375,-0.7022705078125,-0.1767578125,0.1441650390625
5.604,310,675,813,311,-3.0,36.0,48.0,-37.78076171875,-47.668453216552734,-8.056640625,-0.89306640625,0.06201171875,0.1065673828125
5.613,310,714,858,312,-3.0,36.0,48.0,-37.78076171875,-47.668453216552734,-8.056640625,-1.1282958984375,0.4393310546875,0.0284423828125
5.627,310,770,932,310,-3.0,36.0,48.0,-3.906249761581421,-45.227046966552734,21.057126998901367,-1.3826904296875,0.657470703125,0.068359375
5.634,311,802,964,312,-3.0,36.0,48.0,-6.896972179412842,-45.166011810302734,22.155759811401367,-1.6072998046875,0.6318359375,0.2230224609375
5.642,312,818,982,310,-3.0,36.0,48.0,-6.896972179412842,-45.166011810302734,22.155759811401367,-1.74951171875,0.52197265625,0.3480224609375
5.657,310,846,1010,311,-3.0,36.0,48.0,-7.690429210662842,-33.26416015625,3.906249761581421,-1.8048095703125,0.4454345703125,0.327880859375
5.664,311,847,984,312,-5.0,36.0,44.0,3.173827886581421,-20.446775436401367,-3.356933355331421,-1.824951171875,0.3843994140625,0.189208984375
5.672,309,846,981,312,-5.0,36.0,44.0,15.686034202575684,-7.385253429412842,-8.85009765625,-1.7294921875,0.284912109375,0.0068359375
5.687,312,848,980,311,-5.0,36.0,44.0,21.423337936401367,4.150390625,-15.258788108825684,-1.526611328125,0.18017578125,-0.1585693359375
5.695,310,840,971,311,-5.0,36.0,44.0,16.2353515625,11.657713890075684,-20.874021530151367,-1.4913330078125,0.116455078125,-0.1480712890625
5.702,312,833,958,311,-5.0,36.0,44.0,1.2817381620407104,11.535643577575684,-20.507810592651367,-1.5726318359375,0.0634765625,0.042724609375
5.716,310,809,901,311,-5.0,36.0,44.0,-9.82666015625,10.192870140075684,-14.953612327575684,-1.518310546875,0.0311279296875,0.201416015625
5.729,310,784,858,311,-5.0,36.0,44.0,-9.70458984375,14.099120140075684,-8.48388671875,-1.350830078125,0.045654296875,0.224365234375
5.733,310,757,822,312,-5.0,36.0,44.0,-5.371093273162842,22.338865280151367,-2.685546636581421,-1.1824951171875,0.0858154296875,0.138427734375
5.746,310,703,728,311,-5.0,36.0,44.0,-0.9765624403953552,32.65380859375,2.197265625,-1.0909423828125,0.13623046875,0.0003662109375
5.761,310,654,687,311,-5.0,36.0,44.0,2.25830078125,41.503902435302734,6.225585460662842,-1.0797119140625,0.206787109375,-0.103759765625
5.763,310,601,622,310,-3.0,37.0,47.0,2.38037109375,44.311519622802734,9.033203125,-1.0955810546875,0.2900390625,-0.1229248046875
5.777,308,557,562,310,-3.0,37.0,47.0,-1.0986328125,41.809078216552734,9.46044921875,-1.0897216796875,0.349365234375,-0.0908203125
5.785,310,517,525,310,-3.0,37.0,47.0,-4.8828125,38.818359375,6.408690929412842,-1.044677734375,0.365966796875,-0.0634765625
5.798,311,465,491,311,-3.0,37.0,47.0,-5.126952648162842,38.39111328125,0.8544921278953552,-0.961669921875,0.349365234375,-0.0638427734375
5.807,308,391,450,310,-3.0,37.0,47.0,-1.8920897245407104,40.10009765625,-4.82177734375,-0.8643798828125,0.3076171875,-0.0814208984375
5.814,310,352,421,308,-3.0,37.0,47.0,3.173827886581421,41.931148529052734,-9.09423828125,-0.791015625,0.256103515625,-0.0941162109375
5.822,309,336,410,310,-3.0,37.0,47.0,8.60595703125,41.320796966552734,-11.535643577575684,-0.7412109375,0.2149658203125,-0.0711669921875
5.836,310,315,401,310,-3.0,37.0,47.0,13.916014671325684,37.109375,-12.634276390075684,-0.672607421875,0.16943359375,0.0008544921875
5.845,310,314,402,310,-3.0,37.0,47.0,16.41845703125,29.785154342651367,-14.221190452575684,-0.587646484375,0.1165771484375,0.0953369140625
5.853,308,312,411,310,-3.0,37.0,47.0,13.916014671325684,20.080564498901367,-15.624999046325684,-0.532470703125,0.0865478515625,0.1962890625
5.870,308,311,411,310,-3.0,36.0,44.0,9.82666015625,11.230467796325684,-14.709471702575684,-0.5430908203125,0.0865478515625,0.2564697265625
5.875,309,312,411,310,-3.0,36.0,44.0,11.596678733825684,7.019042491912842,-10.131834983825684,-0.6171875,0.1328125,0.219970703125
5.882,309,313,410,308,-3.0,36.0,44.0,20.141599655151367,7.141112804412842,-2.746581792831421,-0.7027587890625,0.2059326171875,0.131103515625
5.897,308,314,411,310,-3.0,36.0,44.0,28.381345748901367,7.873534679412842,3.051757574081421,-0.742919921875,0.2059326171875,0.052490234375
5.911,308,312,409,310,-3.0,36.0,44.0,30.334470748901367,6.652831554412842,3.845214605331421,-0.7342529296875,0.12646484375,-0.0181884765625
5.912,309,314,420,309,-3.0,36.0,44.0,28.198240280151367,3.662109136581421,2.13623046875,-0.6951904296875,0.06396484375,-0.0828857421875
5.933,310,314,413,310,-3.0,36.0,44.0,25.024412155151367,-1.4038084745407104,2.44140625,-0.6380615234375,0.0599365234375,-0.1329345703125
5.934,310,317,418,308,-3.0,36.0,44.0,19.4091796875,-8.544921875,5.065917491912842,-0.599853515625,0.08447265625,-0.1632080078125
5.955,310,323,411,310,-3.0,36.0,44.0,11.474608421325684,-16.41845703125,8.056640625,-0.603515625,0.103271484375,-0.16650390625
5.961,310,342,400,310,-3.0,36.0,44.0,4.39453125,-22.583005905151367,10.498045921325684,-0.638427734375,0.1280517578125,-0.133544921875
5.972,310,363,394,310,-4.0,37.0,45.0,0.4882812201976776,-25.573728561401367,12.878417015075684,-0.7113037109375,0.1866455078125,-0.0838623046875
5.972,310,387,399,310,-4.0,37.0,45.0,-2.990722417831421,-27.770994186401367,14.831542015075684,-0.822265625,0.275146484375,-0.069580078125
5.986,310,438,444,310,-4.0,37.0,45.0,-10.681151390075684,-33.63037109375,14.831542015075684,-0.658203125,0.384765625,-0.1016845703125
5.995,310,473,488,310,-4.0,37.0,45.0,-23.193357467651367,-43.579097747802734,11.596678733825684,-0.658203125,0.384765625,-0.1016845703125
6.004,310,497,516,310,-4.0,37.0,45.0,-39.794921875,-51.574703216552734,1.8310545682907104,-0.3809814453125,0.3267822265625,-0.0455322265625
6.023,310,547,608,310,-4.0,37.0,45.0,-58.837886810302734,-53.466793060302734,-15.258788108825684,-0.526611328125,-0.0880126953125,0.19384765625
6.025,310,574,657,310,-4.0,37.0,45.0,-71.1669921875,-51.086421966552734,-29.296873092651367,-0.526611328125,-0.0880126953125,0.19384765625
6.036,310,608,710,311,-4.0,37.0,45.0,-64.5751953125,-46.752925872802734,-29.724119186401367,-0.71240234375,-0.2000732421875,0.3148193359375
6.061,310,685,763,312,-4.0,37.0,45.0,-37.4755859375,-42.846675872802734,-17.39501953125,-0.9822998046875,0.2821044921875,0.2257080078125
6.064,310,714,801,311,-4.0,37.0,45.0,-1.4648436307907104,-41.381832122802734,1.0986328125,-0.9822998046875,0.2821044921875,0.2257080078125
6.065,309,742,827,310,-3.0,33.0,47.0,27.099607467651367,-41.137691497802734,17.39501953125,-1.231689453125,0.5670166015625,0.15673828125
6.079,308,781,849,312,-3.0,33.0,47.0,38.57421875,-38.57421875,23.803709030151367,-1.6885986328125,0.6075439453125,0.1649169921875
6.084,310,805,861,310,-3.0,33.0,47.0,36.56005859375,-30.883787155151367,18.49365234375,-1.6885986328125,0.6075439453125,0.1649169921875
6.093,310,819,867,311,-3.0,33.0,47.0,28.198240280151367,-19.1650390625,5.859374523162842,-1.7857666015625,0.425048828125,0.109619140625
6.107,310,832,846,311,-3.0,33.0,47.0,19.4091796875,-6.652831554412842,-7.019042491912842,-1.8291015625,0.1038818359375,-0.077392578125
6.115,310,830,835,311,-3.0,33.0,47.0,17.2119140625,2.746581792831421,-14.526366233825684,-1.8291015625,0.1038818359375,-0.077392578125
6.123,310,822,832,312,-3.0,33.0,47.0,21.484373092651367,7.812499523162842,-18.4326171875,-1.572509765625,0.0164794921875,-0.1793212890625
6.143,308,823,840,310,-3.0,33.0,47.0,23.498533248901367,11.291502952575684,-22.521970748901367,-1.092529296875,0.1842041015625,-0.1453857421875
6.144,308,820,846,310,-3.0,33.0,47.0,11.413573265075684,12.573241233825684,-24.475095748901367,-1.313232421875,0.2213134765625,0.0877685546875
6.154,310,810,837,311,-3.0,33.0,47.0,-12.512206077575684,10.803221702575684,-22.155759811401367,-1.313232421875,0.2213134765625,0.0877685546875
6.185,310,782,799,311,-5.0,36.0,44.0,-30.029294967651367,9.3994140625,-11.779784202575684,-1.50341796875,0.09326171875,0.3212890625
6.186,310,764,770,311,-5.0,36.0,44.0,-30.029294967651367,9.3994140625,-11.779784202575684,-1.3485107421875,0.119384765625,0.1680908203125
6.186,310,749,728,310,-5.0,36.0,44.0,-18.4326171875,15.624999046325684,-6.469726085662842,-1.3485107421875,0.119384765625,0.1680908203125
6.196,310,708,676,310,-5.0,36.0,44.0,-4.5166015625,32.40966796875,3.417968511581421,-1.17529296875,0.196533203125,-0.076171875
6.205,309,673,642,312,-5.0,36.0,44.0,-4.5166015625,32.40966796875,3.417968511581421,-1.163818359375,0.2139892578125,-0.0574951171875
6.212,310,644,604,310,-5.0,36.0,44.0,-5.065917491912842,35.0341796875,5.798339366912842,-1.163818359375,0.2139892578125,-0.0574951171875
6.227,311,582,553,311,-5.0,36.0,44.0,-2.868652105331421,29.663084030151367,1.5869139432907104,-1.0872802734375,0.2828369140625,-0.0048828125
6.241,309,537,523,312,-5.0,36.0,44.0,-2.868652105331421,29.663084030151367,1.5869139432907104,-0.995849609375,0.2689208984375,-0.03857421875
6.257,298,504,496,311,-5.0,36.0,44.0,-3.784179449081421,29.785154342651367,-4.57763671875,-0.995849609375,0.2689208984375,-0.03857421875
6.263,310,437,455,310,-2.0,38.0,48.0,-7.751464366912842,36.80419921875,-13.061522483825684,-0.771484375,0.153076171875,-0.0615234375
6.266,309,407,441,309,-2.0,38.0,48.0,-7.751464366912842,36.80419921875,-13.061522483825684,-0.7069091796875,0.0760498046875,-0.1070556640625
6.273,308,379,420,310,-2.0,38.0,48.0,-3.112792730331421,40.222164154052734,-12.573241233825684,-0.7069091796875,0.0760498046875,-0.1070556640625
6.292,310,328,405,310,-2.0,38.0,48.0,19.59228515625,38.9404296875,-6.469726085662842,-0.678466796875,0.0849609375,-0.087646484375
6.295,310,323,411,311,-2.0,38.0,48.0,20.202634811401367,31.188962936401367,-1.8920897245407104,-0.6136474609375,0.1724853515625,0.0025634765625
6.303,310,315,415,309,-2.0,38.0,48.0,20.202634811401367,31.188962936401367,-1.8920897245407104,-0.51416015625,0.2174072265625,0.13037109375
6.316,311,315,424,310,-2.0,38.0,48.0,-6.408690929412842,12.939452171325684,3.295898199081421,-0.4776611328125,0.210693359375,0.23876953125
6.325,310,315,424,309,-2.0,38.0,48.0,-13.671874046325684,8.11767578125,3.784179449081421,-0.5589599609375,0.1767578125,0.2825927734375
6.332,310,315,423,310,-2.0,38.0,48.0,-13.671874046325684,8.11767578125,3.784179449081421,-0.7008056640625,0.1478271484375,0.244873046875
6.346,309,322,423,310,-2.0,38.0,48.0,5.554198741912842,7.629394054412842,4.150390625,-0.8011474609375,0.1351318359375,0.1302490234375
6.369,310,325,423,310,-2.0,38.0,48.0,17.333984375,8.6669921875,5.0048828125,-0.8294677734375,0.119873046875,-0.0001220703125
6.372,310,326,420,309,-3.0,37.0,39.0,17.333984375,8.6669921875,5.0048828125,-0.82080078125,0.1083984375,-0.0958251953125
6.377,308,337,417,310,-3.0,37.0,39.0,27.648923873901367,4.0283203125,6.408690929412842,-0.8232421875,0.1240234375,-0.1446533203125
6.384,310,345,413,310,-3.0,37.0,39.0,27.282712936401367,-3.234863042831421,8.48388671875,-0.85205078125,0.1680908203125,-0.1497802734375
6.398,308,363,411,310,-3.0,37.0,39.0,27.282712936401367,-3.234863042831421,8.48388671875,-0.8641357421875,0.205078125,-0.1470947265625
6.406,309,386,410,308,-3.0,37.0,39.0,14.953612327575684,-16.2353515625,11.169432640075684,-0.82666015625,0.2060546875,-0.1478271484375
6.416,310,420,419,310,-3.0,37.0,39.0,3.540038824081421,-19.8974609375,9.27734375,-0.76416015625,0.192138671875,-0.132568359375
6.423,310,440,432,310,-3.0,37.0,39.0,3.540038824081421,-19.8974609375,9.27734375,-0.7000732421875,0.1895751953125,-0.081787109375
6.437,310,485,473,309,-3.0,37.0,39.0,-24.475095748901367,-32.71484375,5.859374523162842,-0.6226806640625,0.183837890625,0.01025390625
6.445,310,504,495,310,-3.0,37.0,39.0,-32.5927734375,-38.39111328125,3.479003667831421,-0.53955078125,0.1649169921875,0.0797119140625
6.452,310,532,517,310,-3.0,37.0,39.0,-36.56005859375,-39.306640625,-1.03759765625,-0.497314453125,0.1270751953125,0.1002197265625
6.474,310,578,606,310,-3.0,34.0,43.0,-39.12353515625,-36.865234375,-6.347655773162842,-0.544677734375,0.049560546875,0.128662109375
6.475,310,607,653,312,-3.0,34.0,43.0,-39.48974609375,-34.3017578125,-8.7890625,-0.6611328125,-0.0341796875,0.1671142578125
6.483,310,644,697,310,-3.0,34.0,43.0,-32.3486328125,-32.3486328125,-5.126952648162842,-0.7867431640625,-0.0206298828125,0.1627197265625
6.497,312,708,740,310,-3.0,34.0,43.0,-14.282225608825684,-31.311033248901367,4.33349609375,-0.9219970703125,0.1507568359375,0.1151123046875
6.505,310,749,766,311,-3.0,34.0,43.0,7.751464366912842,-32.2265625,15.197752952575684,-1.0911865234375,0.372314453125,0.080322265625
6.513,310,782,796,311,-3.0,34.0,43.0,22.827146530151367,-33.3251953125,20.324705123901367,-1.268798828125,0.503173828125,0.096923828125
6.527,310,820,822,310,-3.0,34.0,43.0,26.489255905151367,-31.433103561401367,16.357421875,-1.43408203125,0.5223388671875,0.141357421875
6.534,311,837,830,310,-3.0,34.0,43.0,22.705076217651367,-25.573728561401367,7.141112804412842,-1.5821533203125,0.4559326171875,0.14501953125
6.548,310,861,833,311,-3.0,34.0,43.0,18.73779296875,-16.2353515625,-2.25830078125,-1.689453125,0.337158203125,0.083740234375
6.556,310,861,802,310,-1.0,35.0,46.0,17.15087890625,-4.8828125,-9.27734375,-1.749755859375,0.2213134765625,-0.0189208984375
6.578,310,855,785,312,-1.0,35.0,46.0,15.441893577575684,5.737304210662842,-12.817381858825684,-1.663330078125,0.1519775390625,-0.1251220703125
6.579,310,846,771,311,-1.0,35.0,46.0,12.390135765075684,14.038084983825684,-14.099120140075684,-1.329345703125,0.13427734375,-0.1807861328125
6.587,310,834,755,311,-1.0,35.0,46.0,4.5166015625,20.263669967651367,-14.526366233825684,-1.004638671875,0.1534423828125,-0.1396484375
6.595,310,830,750,310,-1.0,35.0,46.0,-12.207030296325684,24.780271530151367,-12.329100608825684,-0.9759521484375,0.1640625,-0.0169677734375
6.603,310,822,730,312,-1.0,35.0,46.0,-29.235837936401367,27.465818405151367,-7.141112804412842,-1.2030029296875,0.1214599609375,0.115966796875
6.617,310,801,700,311,-1.0,35.0,46.0,-35.2783203125,27.160642623901367,-0.30517578125,-1.433837890625,0.0811767578125,0.2030029296875
6.625,309,779,673,310,-1.0,35.0,46.0,-29.785154342651367,24.841306686401367,6.958007335662842,-1.4539794921875,0.1099853515625,0.20947265625
6.632,310,763,648,310,-1.0,35.0,46.0,-18.5546875,25.146482467651367,12.023924827575684,-1.3292236328125,0.172607421875,0.123291015625
6.650,310,722,606,311,-1.0,35.0,46.0,-8.85009765625,30.761716842651367,13.793944358825684,-1.2269287109375,0.2266845703125,-0.0096435546875
6.655,310,694,583,310,-1.0,36.0,42.0,-4.08935546875,37.9638671875,13.793944358825684,-1.19921875,0.2755126953125,-0.1041259765625
6.676,310,658,552,310,-1.0,36.0,42.0,-3.845214605331421,41.259761810302734,13.000487327575684,-1.19921875,0.3165283203125,-0.1192626953125
6.676,310,601,508,312,-1.0,36.0,42.0,-6.347655773162842,40.161128997802734,10.620116233825684,-1.171142578125,0.3284912109375,-0.083740234375
6.684,310,562,485,310,-1.0,36.0,42.0,-8.9111328125,38.4521484375,5.981444835662842,-1.0977783203125,0.3111572265625,-0.048095703125
6.699,311,519,475,310,-1.0,36.0,42.0,-9.1552734375,39.306640625,0.1220703050494194,-0.989013671875,0.281494140625,-0.05029296875
6.706,310,451,447,310,-1.0,36.0,42.0,-6.164550304412842,42.846675872802734,-5.615233898162842,-0.8856201171875,0.2421875,-0.07861328125
6.723,311,398,428,308,-1.0,36.0,42.0,-1.03759765625,46.508785247802734,-10.192870140075684,-0.8206787109375,0.1868896484375,-0.0914306640625
6.723,310,361,410,309,-1.0,36.0,42.0,4.8828125,47.851558685302734,-13.122557640075684,-0.780517578125,0.1561279296875,-0.0938720703125
6.737,309,328,415,310,-1.0,36.0,42.0,10.314940452575684,46.325679779052734,-13.183592796325684,-0.7293701171875,0.1746826171875,-0.092529296875
6.745,310,314,414,310,-1.0,36.0,42.0,12.573241233825684,42.053218841552734,-11.718749046325684,-0.6640625,0.163330078125,-0.043701171875
6.753,310,312,415,311,-3.0,38.0,46.0,10.009765625,35.5224609375,-11.535643577575684,-0.629638671875,0.1044921875,0.049560546875
6.769,310,311,414,310,-3.0,38.0,46.0,5.0048828125,28.076169967651367,-11.169432640075684,-0.679443359375,0.134765625,0.156494140625
6.778,310,312,413,310,-3.0,38.0,46.0,1.7089842557907104,21.057126998901367,-7.812499523162842,-0.679443359375,0.134765625,0.156494140625
6.782,310,310,419,310,-3.0,38.0,46.0,3.601073980331421,14.648436546325684,-2.13623046875,-0.7235107421875,0.1942138671875,0.163330078125
6.796,309,312,419,310,-3.0,38.0,46.0,10.559081077575684,10.253905296325684,2.746581792831421,-0.841796875,0.1640625,0.0230712890625
6.804,309,312,414,309,-3.0,38.0,46.0,20.263669967651367,9.46044921875,3.417968511581421,-0.841796875,0.1640625,0.0230712890625
6.812,310,310,421,310,-3.0,38.0,46.0,29.113767623901367,10.498045921325684,0.7934569716453552,-0.87939453125,0.11181640625,-0.0703125
6.827,308,312,424,308,-3.0,38.0,46.0,34.48486328125,9.3994140625,-0.30517578125,-0.80224609375,0.144775390625,-0.1434326171875
6.834,308,313,426,310,-3.0,38.0,46.0,36.865234375,4.57763671875,1.7700194120407104,-0.80224609375,0.144775390625,-0.1434326171875
6.843,310,310,426,310,-3.0,38.0,46.0,37.04833984375,-2.197265625,4.2724609375,-0.7542724609375,0.1690673828125,-0.1588134765625
6.857,310,316,435,311,-3.0,38.0,42.0,34.423828125,-8.48388671875,4.57763671875,-0.7203369140625,0.1446533203125,-0.1666259765625
6.881,310,325,435,309,-3.0,38.0,42.0,28.259275436401367,-12.512206077575684,2.563476324081421,-0.7203369140625,0.1446533203125,-0.1666259765625
6.881,308,327,435,309,-3.0,38.0,42.0,19.04296875,-15.075682640075684,-0.2441406100988388,-0.7164306640625,0.1163330078125,-0.1195068359375
6.886,309,349,408,309,-3.0,38.0,42.0,8.9111328125,-17.15087890625,-1.3427733182907104,-0.7198486328125,0.1231689453125,-0.06396484375
6.895,309,372,395,310,-3.0,38.0,42.0,1.8310545682907104,-18.12744140625,0.7934569716453552,-0.7713623046875,0.18115234375,-0.090576171875
6.902,310,401,402,310,-3.0,38.0,42.0,-1.4648436307907104,-19.4091796875,5.310058116912842,-0.7713623046875,0.18115234375,-0.090576171875
6.916,310,465,451,309,-3.0,38.0,42.0,-10.681151390075684,-32.28759765625,11.352538108825684,-0.7657470703125,0.24755859375,-0.1568603515625
6.925,308,493,488,310,-3.0,38.0,42.0,-10.681151390075684,-32.28759765625,11.352538108825684,-0.609619140625,0.2000732421875,-0.1392822265625
6.933,310,523,523,311,-3.0,38.0,42.0,-22.094724655151367,-40.588375091552734,8.9111328125,-0.609619140625,0.2000732421875,-0.1392822265625
6.946,310,572,633,310,-3.0,38.0,42.0,-59.570308685302734,-46.997066497802734,-6.713866710662842,-0.511962890625,-0.019775390625,0.0498046875
6.958,310,608,710,311,-3.0,36.0,46.0,-59.570308685302734,-46.997066497802734,-6.713866710662842,-0.67578125,-0.1575927734375,0.1868896484375
6.963,310,652,771,311,-3.0,36.0,46.0,-72.265625,-43.884273529052734,-12.756346702575684,-0.67578125,-0.1575927734375,0.1868896484375
6.983,310,711,861,311,-3.0,36.0,46.0,-32.5927734375,-31.433103561401367,3.295898199081421,-1.04931640625,0.1585693359375,0.1207275390625
6.985,310,754,902,312,-3.0,36.0,46.0,-32.5927734375,-31.433103561401367,3.295898199081421,-1.2501220703125,0.509765625,0.008056640625
6.993,310,778,929,312,-3.0,36.0,46.0,-2.807616949081421,-29.052732467651367,21.301267623901367,-1.2501220703125,0.509765625,0.008056640625
7.006,310,823,969,310,-3.0,36.0,46.0,3.295898199081421,-33.14208984375,25.512693405151367,-1.467041015625,0.521240234375,0.195556640625
7.015,309,846,982,312,-3.0,36.0,46.0,3.295898199081421,-33.14208984375,25.512693405151367,-1.6331787109375,0.408447265625,0.251220703125
7.024,313,858,982,310,-3.0,36.0,46.0,4.2724609375,-30.578611373901367,17.333984375,-1.6331787109375,0.408447265625,0.251220703125
7.086,311,859,943,310,-3.0,36.0,46.0,23.498533248901367,-13.977049827575684,5.798339366912842,-1.74365234375,0.3060302734375,0.013916015625
7.086,310,846,927,311,-3.0,36.0,46.0,23.498533248901367,-13.977049827575684,5.798339366912842,-1.431640625,0.2691650390625,-0.2376708984375
7.087,310,840,927,312,-3.0,37.0,42.0,34.72900390625,0.0610351525247097,-3.112792730331421,-1.1199951171875,0.2540283203125,-0.393798828125
7.087,310,833,939,311,-3.0,37.0,42.0,24.353025436401367,17.88330078125,-20.080564498901367,-1.127197265625,0.2557373046875,-0.3232421875
7.092,310,823,939,312,-3.0,37.0,42.0,-7.385253429412842,14.099120140075684,-17.578125,-1.377685546875,0.21044921875,-0.0823974609375
7.092,310,810,929,310,-3.0,37.0,42.0,-7.385253429412842,14.099120140075684,-17.578125,-1.5509033203125,0.1103515625,0.1470947265625
7.096,310,771,875,311,-3.0,37.0,42.0,-37.9638671875,9.94873046875,-4.39453125,-1.4871826171875,0.035400390625,0.205078125
7.105,309,741,837,311,-3.0,37.0,42.0,-24.719236373901367,14.587401390075684,1.4038084745407104,-1.318603515625,0.0545654296875,0.0992431640625
7.112,309,721,794,311,-3.0,37.0,42.0,-24.719236373901367,14.587401390075684,1.4038084745407104,-1.213623046875,0.1590576171875,-0.041748046875
7.127,310,662,713,311,-3.0,37.0,42.0,-0.2441406100988388,26.000974655151367,10.131834983825684,-1.1927490234375,0.27978515625,-0.118408203125
7.135,310,630,660,312,-3.0,37.0,42.0,0.30517578125,27.832029342651367,11.230467796325684,-1.1845703125,0.3531494140625,-0.1243896484375
7.149,310,588,607,311,-3.0,37.0,42.0,0.30517578125,27.832029342651367,11.230467796325684,-1.1358642578125,0.367431640625,-0.1112060546875
7.162,310,509,551,310,-2.0,37.0,43.0,-5.676269054412842,28.259275436401367,2.01416015625,-1.0323486328125,0.3525390625,-0.1185302734375
7.168,308,464,513,310,-2.0,37.0,43.0,-2.990722417831421,30.334470748901367,-6.896972179412842,-0.8984375,0.310546875,-0.126708984375
7.192,310,415,495,310,-2.0,37.0,43.0,-2.990722417831421,30.334470748901367,-6.896972179412842,-0.7855224609375,0.2579345703125,-0.10546875
7.193,308,345,454,310,-2.0,37.0,43.0,15.686034202575684,32.04345703125,-23.437498092651367,-0.7095947265625,0.265869140625,-0.09033203125
7.195,310,315,439,310,-2.0,37.0,43.0,23.620603561401367,29.724119186401367,-26.000974655151367,-0.644287109375,0.2828369140625,-0.0718994140625
7.204,310,314,439,309,-2.0,37.0,43.0,24.597166061401367,26.062009811401367,-28.869626998901367,-0.60205078125,0.2139892578125,0.0040283203125
7.218,310,313,449,310,-2.0,37.0,43.0,18.1884765625,20.874021530151367,-34.1796875,-0.61376953125,0.1240234375,0.1136474609375
7.226,310,312,444,308,-2.0,37.0,43.0,7.690429210662842,14.648436546325684,-38.26904296875,-0.6524658203125,0.10009765625,0.19970703125
7.234,310,312,447,309,-2.0,37.0,43.0,-0.30517578125,9.21630859375,-37.65869140625,-0.6959228515625,0.119140625,0.238525390625
7.250,310,312,439,312,-2.0,37.0,43.0,-1.5869139432907104,5.676269054412842,-31.738279342651367,-0.7611083984375,0.1004638671875,0.200439453125
7.269,309,312,447,309,-1.0,37.0,42.0,4.8828125,5.371093273162842,-23.010251998901367,-0.82470703125,0.0252685546875,0.065185546875
7.270,310,312,454,309,-1.0,37.0,42.0,16.4794921875,7.385253429412842,-13.488768577575684,-0.820556640625,-0.0396728515625,-0.0828857421875
7.280,308,314,467,309,-1.0,37.0,42.0,26.428220748901367,5.920409679412842,-3.356933355331421,-0.7398681640625,-0.0460205078125,-0.15478515625
7.290,310,313,479,310,-1.0,37.0,42.0,30.212400436401367,-0.8544921278953552,5.310058116912842,-0.659423828125,-0.0087890625,-0.1551513671875
7.294,310,315,481,310,-1.0,37.0,42.0,28.015134811401367,-8.48388671875,9.765625,-0.6341552734375,0.0333251953125,-0.110107421875
7.307,309,317,478,310,-1.0,37.0,42.0,22.705076217651367,-13.977049827575684,10.559081077575684,-0.6441650390625,0.06494140625,-0.0516357421875
7.315,310,325,475,308,-1.0,37.0,42.0,17.333984375,-16.6015625,10.314940452575684,-0.658935546875,0.094482421875,-0.0126953125
7.324,311,329,472,311,-1.0,37.0,42.0,13.549803733825684,-17.9443359375,10.375975608825684,-0.6585693359375,0.1358642578125,0.0047607421875
7.338,310,372,467,310,-1.0,37.0,42.0,10.803221702575684,-20.812986373901367,10.437010765075684,-0.665771484375,0.187744140625,0.005859375
7.346,308,410,472,310,-1.0,37.0,42.0,8.30078125,-25.939939498901367,10.192870140075684,-0.7393798828125,0.25048828125,-0.024658203125
7.357,310,444,493,310,-4.0,39.0,45.0,4.2724609375,-32.5927734375,9.1552734375,-0.8355712890625,0.2847900390625,-0.095947265625
7.367,309,509,578,309,-4.0,39.0,45.0,-2.990722417831421,-38.818359375,6.042479991912842,-0.8453369140625,0.2366943359375,-0.169189453125
7.393,310,548,642,311,-4.0,39.0,45.0,-12.756346702575684,-43.212886810302734,1.7089842557907104,-0.7548828125,0.1539306640625,-0.1630859375
7.394,312,574,698,311,-4.0,39.0,45.0,-26.794431686401367,-46.630855560302734,-2.13623046875,-0.6658935546875,0.0914306640625,-0.0706787109375
7.397,308,618,854,311,-4.0,39.0,45.0,-45.288082122802734,-46.874996185302734,-6.225585460662842,-0.6529541015625,0.0074462890625,0.04296875
7.406,311,646,931,311,-4.0,39.0,45.0,-59.265132904052734,-41.503902435302734,-11.474608421325684,-0.7310791015625,-0.1094970703125,0.1142578125
7.413,310,684,1000,312,-4.0,39.0,45.0,-56.823726654052734,-33.38623046875,-13.183592796325684,-0.8896484375,-0.10107421875,0.1243896484375
7.427,310,732,1105,311,-4.0,39.0,45.0,-39.9169921875,-28.686521530151367,-5.737304210662842,-1.0740966796875,0.12109375,0.1064453125
7.438,310,767,1157,312,-4.0,39.0,45.0,-24.414060592651367,-28.930662155151367,6.713866710662842,-1.207763671875,0.3895263671875,0.087890625
7.444,311,799,1204,312,-4.0,39.0,45.0,-18.798828125,-28.747556686401367,14.282225608825684,-1.2889404296875,0.484130859375,0.1151123046875
7.470,310,846,1260,311,-3.0,34.0,45.0,-15.808104515075684,-24.047849655151367,12.573241233825684,-1.543701171875,0.3270263671875,0.1636962890625
7.470,310,861,1275,312,-3.0,34.0,45.0,-9.70458984375,-16.6015625,6.347655773162842,-1.543701171875,0.3270263671875,0.1636962890625
7.473,311,868,1272,312,-3.0,34.0,45.0,-3.295898199081421,-10.009765625,1.4038084745407104,-1.6668701171875,0.2791748046875,0.15576171875
7.491,310,852,1204,312,-3.0,34.0,45.0,1.8920897245407104,-4.8828125,-1.15966796875,-1.4749755859375,0.2293701171875,0.009521484375
7.498,310,847,1185,312,-3.0,34.0,45.0,7.812499523162842,1.8310545682907104,-2.990722417831421,-1.4749755859375,0.2293701171875,0.009521484375
7.504,310,845,1183,312,-3.0,34.0,45.0,13.732909202575684,11.108397483825684,-6.103515148162842,-1.1895751953125,0.2420654296875,-0.0916748046875
7.517,310,827,1148,311,-3.0,34.0,45.0,11.108397483825684,17.39501953125,-7.995604991912842,-1.489990234375,0.1697998046875,0.0450439453125
7.525,310,810,1103,311,-3.0,34.0,45.0,-4.150390625,16.7236328125,-5.371093273162842,-1.489990234375,0.1697998046875,0.0450439453125
7.535,309,794,1043,312,-3.0,34.0,45.0,-18.4326171875,13.061522483825684,-0.2441406100988388,-1.5946044921875,0.06201171875,0.116455078125
7.548,311,749,920,310,-2.0,34.0,42.0,-19.10400390625,11.779784202575684,4.45556640625,-1.316650390625,0.1741943359375,-0.011474609375
7.555,310,705,846,311,-2.0,34.0,42.0,-10.131834983825684,14.770506858825684,7.934569835662842,-1.316650390625,0.1741943359375,-0.011474609375
7.578,310,668,778,311,-2.0,34.0,42.0,-1.7089842557907104,20.385740280151367,8.72802734375,-1.2559814453125,0.2838134765625,-0.11572265625
7.578,310,601,660,311,-2.0,34.0,42.0,1.7700194120407104,25.512693405151367,6.286620616912842,-1.19775390625,0.314453125,-0.16015625
7.600,311,552,601,310,-2.0,34.0,42.0,1.2817381620407104,27.587888717651367,1.6479490995407104,-1.08544921875,0.262939453125,-0.1241455078125
7.601,310,503,537,309,-2.0,34.0,42.0,-1.3427733182907104,27.099607467651367,-4.08935546875,-1.08544921875,0.262939453125,-0.1241455078125
7.607,308,407,452,310,-2.0,34.0,42.0,1.7089842557907104,30.883787155151367,-15.258788108825684,-0.707763671875,0.153076171875,-0.0853271484375
7.616,309,364,424,310,-2.0,34.0,42.0,1.7089842557907104,30.883787155151367,-15.258788108825684,-0.6015625,0.2061767578125,-0.09619140625
7.623,310,336,427,310,-2.0,34.0,42.0,10.681151390075684,34.1796875,-16.17431640625,-0.6015625,0.2061767578125,-0.09619140625
7.639,309,314,427,310,-2.0,34.0,42.0,7.019042491912842,30.395505905151367,-15.258788108825684,-0.5926513671875,0.1241455078125,0.01171875
7.646,310,312,438,310,-1.0,36.0,44.0,7.019042491912842,30.395505905151367,-15.258788108825684,-0.660400390625,0.0462646484375,0.1492919921875
7.654,310,312,435,309,-1.0,36.0,44.0,-9.6435546875,23.986814498901367,-19.71435546875,-0.660400390625,0.0462646484375,0.1492919921875
7.681,309,312,430,310,-1.0,36.0,44.0,-41.625972747802734,5.920409679412842,-15.686034202575684,-0.81689453125,0.087890625,0.2509765625
7.690,308,314,428,310,-1.0,36.0,44.0,-41.625972747802734,5.920409679412842,-15.686034202575684,-0.8543701171875,0.0855712890625,0.135498046875
7.700,308,301,435,310,-1.0,36.0,44.0,-37.90283203125,4.21142578125,-5.126952648162842,-0.8543701171875,0.0855712890625,0.135498046875
7.700,308,315,438,310,-1.0,36.0,44.0,4.0283203125,4.39453125,0.4272460639476776,-0.790283203125,0.037841796875,-0.0767822265625
7.706,310,315,441,310,-1.0,36.0,44.0,4.0283203125,4.39453125,0.4272460639476776,-0.7178955078125,0.0535888671875,-0.074951171875
7.714,310,315,447,310,-1.0,36.0,44.0,22.155759811401367,-2.929687261581421,-2.13623046875,-0.7178955078125,0.0535888671875,-0.074951171875
7.727,310,315,455,310,-1.0,36.0,44.0,38.14697265625,-21.728513717651367,-2.01416015625,-0.5921630859375,0.05517578125,-0.041748046875
7.735,309,315,465,310,-1.0,36.0,44.0,40.771480560302734,-25.268552780151367,0.1831054538488388,-0.58447265625,0.067138671875,-0.021240234375
7.744,310,317,457,309,-1.0,36.0,44.0,40.771480560302734,-25.268552780151367,0.1831054538488388,-0.585693359375,0.079345703125,0.0064697265625
7.757,310,326,465,309,-3.0,38.0,42.0,35.2783203125,-24.719236373901367,3.662109136581421,-0.5811767578125,0.0782470703125,0.044189453125
7.766,310,337,464,310,-3.0,38.0,42.0,31.860349655151367,-24.963376998901367,4.69970703125,-0.6015625,0.1046142578125,0.076171875
7.793,309,361,465,310,-3.0,38.0,42.0,31.860349655151367,-24.963376998901367,4.69970703125,-0.68505859375,0.1903076171875,0.0748291015625
7.803,309,430,481,310,-3.0,38.0,42.0,33.75244140625,-33.8134765625,7.934569835662842,-0.82470703125,0.281005859375,0.0076904296875
7.803,310,469,495,309,-3.0,38.0,42.0,33.26416015625,-41.442867279052734,6.713866710662842,-0.9232177734375,0.3046875,-0.1246337890625
7.804,310,494,525,310,-3.0,38.0,42.0,33.26416015625,-41.442867279052734,6.713866710662842,-0.8736572265625,0.260498046875,-0.1961669921875
7.818,308,577,639,310,-3.0,38.0,42.0,10.009765625,-61.279293060302734,-0.6103515625,-0.7261962890625,0.170166015625,-0.1016845703125
7.825,311,614,708,312,-3.0,38.0,42.0,-10.131834983825684,-68.29833984375,-4.2724609375,-0.6068115234375,0.0286865234375,0.043212890625
7.834,309,642,802,312,-3.0,38.0,42.0,-10.131834983825684,-68.29833984375,-4.2724609375,-0.572509765625,-0.140869140625,0.0631103515625
7.848,310,714,995,312,-2.0,35.0,47.0,-29.846189498901367,-50.598140716552734,-11.047362327575684,-0.648681640625,-0.21044921875,-0.0030517578125
7.856,310,750,1098,311,-2.0,35.0,47.0,-28.564451217651367,-38.57421875,-5.432128429412842,-0.822998046875,-0.1060791015625,0.0035400390625
7.864,310,784,1183,312,-2.0,35.0,47.0,-28.564451217651367,-38.57421875,-5.432128429412842,-1.01123046875,0.092041015625,0.0767822265625
7.879,311,846,1309,312,-2.0,35.0,47.0,-38.14697265625,-37.2314453125,18.9208984375,-1.163330078125,0.239990234375,0.1732177734375
7.905,311,886,1380,312,-2.0,35.0,47.0,-43.273921966552734,-35.0341796875,25.390623092651367,-1.3319091796875,0.2935791015625,0.26611328125
7.906,310,917,1422,312,-2.0,35.0,47.0,-41.320796966552734,-28.503416061401367,27.282712936401367,-1.5335693359375,0.3712158203125,0.2960205078125
7.907,297,943,1483,313,-2.0,35.0,47.0,-35.58349609375,-20.690916061401367,27.587888717651367,-1.6929931640625,0.4921875,0.301025390625
7.915,310,957,1490,312,-2.0,35.0,47.0,-28.930662155151367,-14.404295921325684,24.475095748901367,-1.726806640625,0.517333984375,0.3641357421875
7.923,311,960,1472,312,-2.0,35.0,47.0,-19.04296875,-8.48388671875,15.686034202575684,-1.65673828125,0.4078369140625,0.4144287109375
7.938,309,960,1447,311,-2.0,35.0,47.0,-3.356933355331421,0.9155272841453552,4.150390625,-1.50341796875,0.2943115234375,0.2930908203125
7.946,312,959,1434,312,-1.0,35.0,44.0,13.854979515075684,14.160155296325684,-6.591796398162842,-1.34716796875,0.28662109375,0.0662841796875
7.953,310,955,1422,312,-1.0,35.0,44.0,20.996091842651367,23.132322311401367,-14.160155296325684,-1.3787841796875,0.292724609375,-0.0260009765625
7.967,310,932,1374,312,-1.0,35.0,44.0,13.244627952575684,22.338865280151367,-17.27294921875,-1.516845703125,0.188720703125,0.035888671875
7.981,310,912,1323,312,-1.0,35.0,44.0,2.807616949081421,18.00537109375,-17.822265625,-1.54638671875,0.0421142578125,0.0955810546875
7.983,311,882,1264,312,-1.0,35.0,44.0,0.4272460639476776,16.78466796875,-16.05224609375,-1.448974609375,-0.0108642578125,0.0892333984375
7.998,310,833,1160,312,-1.0,35.0,44.0,2.01416015625,19.1650390625,-11.352538108825684,-1.3272705078125,0.0548095703125,0.0390625
8.009,310,803,1081,312,-1.0,35.0,44.0,0.9155272841453552,23.498533248901367,-5.615233898162842,-1.273681640625,0.1531982421875,-0.0098876953125
8.014,311,765,1000,311,-1.0,35.0,44.0,-3.295898199081421,28.381345748901367,-1.7089842557907104,-1.273681640625,0.204345703125,-0.042236328125
8.027,310,688,846,311,-1.0,35.0,44.0,-7.019042491912842,32.2265625,-0.9155272841453552,-1.2471923828125,0.2138671875,-0.0499267578125
8.036,310,644,757,312,-1.0,35.0,44.0,-8.48388671875,33.87451171875,-2.25830078125,-1.1556396484375,0.2276611328125,-0.0318603515625
8.051,311,587,694,312,1.0,36.0,41.0,-10.009765625,34.3017578125,-5.0048828125,-1.0167236328125,0.23193359375,-0.0040283203125
8.060,310,491,576,310,1.0,36.0,41.0,-11.108397483825684,36.43798828125,-9.033203125,-0.855712890625,0.21728515625,-0.0037841796875
8.065,310,440,531,310,1.0,36.0,41.0,-9.27734375,41.748043060302734,-13.305663108825684,-0.708984375,0.1953125,-0.0328369140625
8.073,310,381,465,311,1.0,36.0,41.0,-3.906249761581421,47.302242279052734,-15.869139671325684,-0.623779296875,0.18310546875,-0.0548095703125
8.087,310,331,439,310,1.0,36.0,41.0,1.8920897245407104,49.194332122802734,-14.648436546325684,-0.6019287109375,0.19384765625,-0.0657958984375
8.119,308,317,434,310,1.0,36.0,41.0,2.624511480331421,46.813961029052734,-10.864256858825684,-0.5885009765625,0.149658203125,-0.0235595703125
8.119,308,314,430,309,1.0,36.0,41.0,-2.44140625,41.503902435302734,-8.23974609375,-0.565673828125,0.031982421875,0.093017578125
8.120,310,312,433,290,1.0,36.0,41.0,-11.352538108825684,34.48486328125,-7.629394054412842,-0.5648193359375,-0.045166015625,0.20703125
8.126,309,312,433,310,1.0,36.0,41.0,-22.277830123901367,25.939939498901367,-7.019042491912842,-0.60986328125,-0.0296630859375,0.263671875
8.134,310,314,435,310,1.0,36.0,41.0,-30.029294967651367,16.357421875,-3.417968511581421,-0.703369140625,0.0216064453125,0.262451171875
8.147,310,314,430,309,-1.0,36.0,41.0,-26.977537155151367,8.544921875,3.173827886581421,-0.8148193359375,0.0355224609375,0.2012939453125
8.156,309,314,434,309,-1.0,36.0,41.0,-9.94873046875,6.103515148162842,8.85009765625,-0.88916015625,0.03173828125,0.0791015625
8.164,310,315,433,310,-1.0,36.0,41.0,13.122557640075684,7.202147960662842,12.207030296325684,-0.8809814453125,0.0711669921875,-0.03564453125
8.178,310,315,437,310,-1.0,36.0,41.0,29.052732467651367,5.065917491912842,13.366698265075684,-0.81103515625,0.1356201171875,-0.080322265625
8.187,310,322,438,308,-1.0,36.0,41.0,32.958984375,-2.3193359375,12.329100608825684,-0.7406005859375,0.165283203125,-0.0909423828125
8.194,310,316,437,310,-1.0,36.0,41.0,30.822751998901367,-10.559081077575684,10.375975608825684,-0.7091064453125,0.146240234375,-0.09765625
8.215,308,326,447,310,-1.0,36.0,41.0,29.479978561401367,-16.11328125,9.33837890625,-0.7239990234375,0.118408203125,-0.0797119140625
8.216,311,336,447,310,-1.0,36.0,41.0,28.747556686401367,-18.798828125,9.765625,-0.7239990234375,0.118408203125,-0.0797119140625
8.224,308,352,452,310,-1.0,36.0,41.0,26.367185592651367,-20.446775436401367,10.986327171325684,-0.7325439453125,0.1409912109375,-0.06005859375
8.237,311,391,456,310,-1.0,36.0,41.0,22.460935592651367,-24.291990280151367,11.718749046325684,-0.7568359375,0.197265625,-0.029541015625
8.246,309,426,481,310,-3.0,34.0,50.0,19.1650390625,-31.311033248901367,11.596678733825684,-0.7568359375,0.197265625,-0.029541015625
8.256,310,465,512,310,-3.0,34.0,50.0,16.41845703125,-39.48974609375,10.314940452575684,-0.7530517578125,0.22314453125,-0.0635986328125
8.267,310,522,631,310,-3.0,34.0,50.0,11.047362327575684,-46.997066497802734,6.896972179412842,-0.6785888671875,0.1834716796875,-0.126220703125
8.276,311,551,711,312,-3.0,34.0,50.0,-0.30517578125,-52.734371185302734,1.3427733182907104,-0.6785888671875,0.1834716796875,-0.126220703125
8.289,310,584,818,311,-3.0,34.0,50.0,-18.6767578125,-55.969234466552734,-4.39453125,-0.616943359375,0.1273193359375,-0.07861328125
8.303,309,648,1029,312,-3.0,34.0,50.0,-38.2080078125,-55.114742279052734,-9.1552734375,-0.5577392578125,-0.04150390625,0.0546875
8.311,311,689,1139,312,-3.0,34.0,50.0,-44.189449310302734,-49.743648529052734,-12.939452171325684,-0.5577392578125,-0.04150390625,0.0546875
8.319,310,725,1226,312,-3.0,34.0,50.0,-31.494138717651367,-43.701168060302734,-12.512206077575684,-0.707275390625,0.0250244140625,0.1251220703125
8.328,311,799,1353,311,-3.0,34.0,50.0,-15.258788108825684,-41.259761810302734,-6.835937023162842,-1.1239013671875,0.3355712890625,0.2845458984375
8.335,310,830,1401,314,-3.0,34.0,50.0,-7.751464366912842,-41.809078216552734,0.1831054538488388,-1.1239013671875,0.3355712890625,0.2845458984375
8.344,311,861,1455,312,-1.0,33.0,51.0,-5.676269054412842,-42.114253997802734,4.7607421875,-1.2760009765625,0.349609375,0.3587646484375
8.358,310,912,1511,312,-1.0,33.0,51.0,-1.8920897245407104,-28.442380905151367,5.0048828125,-1.5860595703125,0.307861328125,0.2930908203125
8.365,310,925,1538,312,-1.0,33.0,51.0,-1.8920897245407104,-28.442380905151367,5.0048828125,-1.701904296875,0.3548583984375,0.2666015625
8.374,310,938,1555,312,-1.0,33.0,51.0,-2.868652105331421,-18.00537109375,4.57763671875,-1.701904296875,0.3548583984375,0.2666015625
8.396,311,938,1528,312,-1.0,33.0,51.0,-4.2724609375,-6.591796398162842,-0.6713866591453552,-1.630859375,0.225341796875,0.3704833984375
8.396,310,935,1524,314,-1.0,33.0,51.0,-4.2724609375,-6.591796398162842,-0.6713866591453552,-1.4620361328125,0.1248779296875,0.236328125
8.424,310,933,1516,312,-1.0,33.0,51.0,2.01416015625,3.417968511581421,-7.202147960662842,-1.4620361328125,0.1248779296875,0.236328125
8.424,310,916,1483,310,-1.0,33.0,51.0,12.084959983825684,24.414060592651367,-14.465331077575684,-1.5457763671875,0.0654296875,0.0440673828125
8.426,310,889,1445,312,-1.0,33.0,51.0,12.084959983825684,24.414060592651367,-14.465331077575684,-1.5450439453125,0.01220703125,0.05615234375
8.434,310,867,1407,312,-1.0,33.0,51.0,6.469726085662842,25.146482467651367,-12.573241233825684,-1.5450439453125,0.01220703125,0.05615234375
8.449,310,818,1305,311,0.0,33.0,46.0,0.30517578125,26.245115280151367,-6.896972179412842,-1.3795166015625,0.0765380859375,0.039306640625
8.456,310,780,1229,312,0.0,33.0,46.0,0.30517578125,26.245115280151367,-6.896972179412842,-1.337890625,0.1864013671875,-0.0113525390625
8.464,311,741,1137,312,0.0,33.0,46.0,-0.9155272841453552,29.235837936401367,-4.150390625,-1.337890625,0.1864013671875,-0.0113525390625
8.477,312,665,992,311,0.0,33.0,46.0,-3.295898199081421,36.865234375,-6.774901866912842,-1.2440185546875,0.3475341796875,-0.1068115234375
8.485,310,618,883,312,0.0,33.0,46.0,-3.295898199081421,36.865234375,-6.774901866912842,-1.144287109375,0.3773193359375,-0.091552734375
8.493,310,562,780,312,0.0,33.0,46.0,-5.920409679412842,37.59765625,-11.474608421325684,-1.144287109375,0.3773193359375,-0.091552734375
8.527,310,479,657,310,0.0,33.0,46.0,-17.39501953125,38.02490234375,-23.193357467651367,-0.8121337890625,0.3128662109375,-0.023193359375
8.529,310,393,608,310,0.0,33.0,46.0,-17.7001953125,39.306640625,-28.015134811401367,-0.6400146484375,0.2445068359375,-0.0068359375
8.530,311,363,543,309,0.0,33.0,46.0,-17.7001953125,39.306640625,-28.015134811401367,-0.5361328125,0.152587890625,0.0098876953125
8.537,309,325,509,310,0.0,33.0,46.0,-4.57763671875,37.29248046875,-30.334470748901367,-0.490478515625,0.0101318359375,0.055908203125
8.546,310,314,485,310,-1.0,33.0,44.0,3.051757574081421,35.400390625,-30.090330123901367,-0.5009765625,-0.12109375,0.1417236328125
8.554,310,312,479,309,-1.0,33.0,44.0,3.051757574081421,35.400390625,-30.090330123901367,-0.537841796875,-0.1461181640625,0.22119140625
8.567,310,312,473,310,-1.0,33.0,44.0,2.197265625,25.451658248901367,-17.08984375,-0.5693359375,-0.09619140625,0.25830078125
8.575,309,314,475,310,-1.0,33.0,44.0,-6.469726085662842,15.502928733825684,-4.69970703125,-0.6041259765625,-0.0494384765625,0.239013671875
8.583,312,315,478,310,-1.0,33.0,44.0,-6.469726085662842,15.502928733825684,-4.69970703125,-0.651123046875,-0.0538330078125,0.1561279296875
8.597,310,322,488,309,-1.0,33.0,44.0,0.0610351525247097,0.9155272841453552,12.756346702575684,-0.687744140625,-0.0648193359375,0.0362548828125
8.625,310,317,494,309,-1.0,33.0,44.0,15.441893577575684,-0.9155272841453552,15.380858421325684,-0.6865234375,-0.020751953125,-0.0477294921875
8.626,310,325,504,310,-1.0,33.0,44.0,15.441893577575684,-0.9155272841453552,15.380858421325684,-0.6572265625,0.0543212890625,-0.0616455078125
8.634,308,338,518,310,-1.0,33.0,44.0,31.311033248901367,-13.427733421325684,17.2119140625,-0.6416015625,0.0987548828125,-0.0137939453125
8.636,310,336,505,312,-1.0,33.0,44.0,32.1044921875,-22.705076217651367,18.4326171875,-0.6439208984375,0.11572265625,0.0416259765625
8.644,310,387,537,311,-1.0,36.0,49.0,32.1044921875,-22.705076217651367,18.4326171875,-0.654296875,0.14453125,0.037841796875
8.657,310,446,606,310,-1.0,36.0,49.0,40.466304779052734,-33.63037109375,20.996091842651367,-0.66943359375,0.177978515625,-0.0166015625
8.667,310,479,659,310,-1.0,36.0,49.0,36.92626953125,-38.02490234375,17.822265625,-0.6583251953125,0.197509765625,-0.0821533203125
8.674,311,513,725,310,-1.0,36.0,49.0,20.385740280151367,-44.372554779052734,12.023924827575684,-0.594970703125,0.1900634765625,-0.0963134765625
8.687,310,564,901,311,-1.0,36.0,49.0,-4.57763671875,-51.452632904052734,5.0048828125,-0.549560546875,0.1312255859375,-0.0206298828125
8.699,310,599,1035,310,-1.0,36.0,49.0,-28.442380905151367,-54.626461029052734,-0.8544921278953552,-0.5653076171875,-0.0076904296875,0.072021484375
8.704,310,632,1159,312,-1.0,36.0,49.0,-37.59765625,-49.072261810302734,-3.479003667831421,-0.630859375,-0.17578125,0.123046875
8.730,310,698,1325,310,-1.0,36.0,49.0,-22.644041061401367,-39.1845703125,-0.0610351525247097,-0.789306640625,-0.19775390625,0.1617431640625
8.731,311,731,1407,312,-1.0,36.0,49.0,3.417968511581421,-34.48486328125,11.535643577575684,-0.9888916015625,0.0191650390625,0.18359375
