time,compression0,compression1,compression2,compression3,magn_x,magn_y,magn_z,gyro_x,gyro_y,gyro_z,accel_x,accel_y,accel_z
0.002,310,543,402,310,-23.0,47.0,27.0,0.0,-0.4882812201976776,-0.7324218153953552,-0.482666015625,0.783203125,-0.352783203125
0.002,308,540,402,308,-24.0,47.0,28.0,0.2441406100988388,-0.1831054538488388,-0.7324218153953552,-0.4857177734375,0.784912109375,-0.3525390625
0.003,308,540,401,309,-24.0,47.0,28.0,0.54931640625,0.1220703050494194,-0.6713866591453552,-0.4874267578125,0.785888671875,-0.354248046875
0.004,310,537,402,289,-24.0,47.0,28.0,0.7934569716453552,0.3662109076976776,-0.54931640625,-0.4871826171875,0.78466796875,-0.35693359375
0.013,310,533,401,310,-24.0,47.0,28.0,0.9155272841453552,0.54931640625,-0.3662109076976776,-0.4853515625,0.7830810546875,-0.358154296875
0.021,307,533,401,308,-24.0,47.0,28.0,0.9155272841453552,0.7324218153953552,-0.1220703050494194,-0.482177734375,0.78125,-0.355712890625
0.030,310,532,401,308,-24.0,47.0,28.0,0.9155272841453552,1.03759765625,0.2441406100988388,-0.4794921875,0.779052734375,-0.3536376953125
0.043,310,531,401,310,-24.0,47.0,28.0,1.03759765625,1.3427733182907104,0.7324218153953552,-0.478271484375,0.77880859375,-0.3544921875
0.051,310,530,401,310,-24.0,47.0,28.0,1.220703125,1.5869139432907104,1.220703125,-0.47802734375,0.7799072265625,-0.3555908203125
0.060,308,532,400,310,-24.0,47.0,28.0,1.5258787870407104,1.7700194120407104,1.7089842557907104,-0.47802734375,0.7784423828125,-0.355712890625
0.102,310,535,401,308,-24.0,47.0,28.0,1.6479490995407104,1.8920897245407104,2.197265625,-0.4776611328125,0.77490234375,-0.3564453125
0.103,306,535,401,308,-24.0,47.0,28.0,1.6479490995407104,1.8920897245407104,2.746581792831421,-0.4786376953125,0.7738037109375,-0.3592529296875
0.104,310,533,401,309,-23.0,49.0,27.0,1.5869139432907104,1.7089842557907104,3.479003667831421,-0.48046875,0.7781982421875,-0.364013671875
0.104,309,535,386,294,-23.0,49.0,27.0,1.2817381620407104,1.3427733182907104,4.39453125,-0.48095703125,0.7852783203125,-0.3697509765625
0.112,310,531,402,310,-23.0,49.0,27.0,0.7324218153953552,1.03759765625,5.371093273162842,-0.48193359375,0.7886962890625,-0.373779296875
0.120,308,531,400,308,-23.0,49.0,27.0,-0.1220703050494194,0.7324218153953552,6.286620616912842,-0.4833984375,0.7852783203125,-0.3707275390625
0.134,310,530,401,308,-23.0,49.0,27.0,-0.9155272841453552,0.4882812201976776,7.080077648162842,-0.482421875,0.779541015625,-0.3612060546875
0.142,310,531,401,310,-23.0,49.0,27.0,-1.4038084745407104,0.1831054538488388,7.690429210662842,-0.4788818359375,0.7786865234375,-0.3551025390625
0.208,309,533,402,310,-23.0,49.0,27.0,-0.4882812201976776,-0.6103515625,7.873534679412842,-0.4697265625,0.7891845703125,-0.3565673828125
0.210,310,531,401,311,-23.0,49.0,27.0,0.30517578125,-1.0986328125,7.751464366912842,-0.466552734375,0.79248046875,-0.35693359375
0.210,308,533,401,290,-23.0,49.0,27.0,1.03759765625,-1.4038084745407104,7.507323741912842,-0.467041015625,0.7979736328125,-0.3624267578125
0.215,310,531,401,310,-24.0,48.0,22.0,1.3427733182907104,-1.5258787870407104,7.202147960662842,-0.4697265625,0.8060302734375,-0.3719482421875
0.216,308,525,401,309,-24.0,48.0,22.0,1.03759765625,-1.5869139432907104,6.896972179412842,-0.47314453125,0.8128662109375,-0.37646484375
0.216,310,505,401,310,-24.0,48.0,22.0,0.1220703050494194,-1.4038084745407104,6.652831554412842,-0.4757080078125,0.8134765625,-0.3753662109375
0.219,309,518,401,308,-24.0,48.0,22.0,-1.03759765625,-0.9155272841453552,6.408690929412842,-0.475830078125,0.8082275390625,-0.3697509765625
0.232,309,509,401,309,-24.0,48.0,22.0,-2.01416015625,-0.1831054538488388,6.225585460662842,-0.4754638671875,0.8011474609375,-0.362548828125
0.243,309,506,401,310,-24.0,48.0,22.0,-2.38037109375,0.30517578125,6.042479991912842,-0.4742431640625,0.796630859375,-0.3568115234375
0.248,310,507,402,309,-24.0,48.0,22.0,-2.01416015625,0.30517578125,5.371093273162842,-0.468994140625,0.7945556640625,-0.3533935546875
0.263,309,508,402,309,-24.0,48.0,22.0,-1.5869139432907104,-0.2441406100988388,4.0283203125,-0.4610595703125,0.7911376953125,-0.349853515625
0.271,310,510,402,308,-24.0,48.0,22.0,-0.9765624403953552,-1.15966796875,2.25830078125,-0.454833984375,0.7894287109375,-0.34716796875
0.295,309,512,401,308,-24.0,48.0,22.0,-0.4272460639476776,-2.0751953125,0.7324218153953552,-0.453369140625,0.79736328125,-0.35302734375
0.309,310,512,401,308,-24.0,46.0,29.0,-0.1220703050494194,-2.807616949081421,-0.3662109076976776,-0.456787109375,0.814208984375,-0.3680419921875
0.310,308,508,399,309,-24.0,46.0,29.0,-0.1220703050494194,-3.417968511581421,-1.0986328125,-0.4639892578125,0.826416015625,-0.381103515625
0.311,310,506,401,310,-24.0,46.0,29.0,-0.4882812201976776,-4.0283203125,-1.9531248807907104,-0.47314453125,0.8258056640625,-0.382080078125
0.323,308,502,401,310,-24.0,46.0,29.0,-1.4038084745407104,-4.45556640625,-3.112792730331421,-0.4794921875,0.8033447265625,-0.3558349609375
0.332,309,502,399,310,-24.0,46.0,29.0,-2.197265625,-4.8828125,-4.69970703125,-0.4794921875,0.8033447265625,-0.3558349609375
0.339,308,502,400,310,-24.0,46.0,29.0,-2.3193359375,-5.371093273162842,-6.774901866912842,-0.475341796875,0.800048828125,-0.35009765625
0.353,310,498,399,308,-24.0,46.0,29.0,-1.7700194120407104,-6.042479991912842,-9.09423828125,-0.4698486328125,0.813232421875,-0.362548828125
0.360,308,495,400,310,-24.0,46.0,29.0,-1.15966796875,-6.896972179412842,-11.291502952575684,-0.4698486328125,0.813232421875,-0.362548828125
0.369,309,493,398,310,-24.0,46.0,29.0,-0.9155272841453552,-7.751464366912842,-13.305663108825684,-0.4715576171875,0.8211669921875,-0.3690185546875
0.410,306,493,394,310,-25.0,45.0,29.0,-1.220703125,-8.60595703125,-15.258788108825684,-0.47802734375,0.8262939453125,-0.371337890625
0.410,309,488,395,308,-25.0,45.0,29.0,-1.8310545682907104,-9.27734375,-17.39501953125,-0.47802734375,0.8262939453125,-0.371337890625
0.411,310,484,379,308,-25.0,45.0,29.0,-2.624511480331421,-9.8876953125,-19.775390625,-0.4820556640625,0.818603515625,-0.3677978515625
0.419,298,482,394,310,-25.0,45.0,29.0,-3.295898199081421,-10.803221702575684,-22.705076217651367,-0.501220703125,0.796875,-0.3651123046875
0.421,310,480,394,309,-25.0,45.0,29.0,-3.723144292831421,-12.451170921325684,-26.062009811401367,-0.501220703125,0.796875,-0.3651123046875
0.445,310,479,394,309,-25.0,45.0,29.0,-4.7607421875,-14.953612327575684,-29.357908248901367,-0.504150390625,0.795166015625,-0.367431640625
0.458,310,479,394,308,-25.0,45.0,29.0,-6.530761241912842,-17.7001953125,-31.677244186401367,-0.521240234375,0.77587890625,-0.366943359375
0.470,310,480,394,308,-25.0,45.0,29.0,-7.934569835662842,-20.080564498901367,-33.14208984375,-0.5302734375,0.7684326171875,-0.3602294921875
0.476,308,479,394,309,-25.0,45.0,29.0,-7.751464366912842,-22.216794967651367,-34.48486328125,-0.5302734375,0.7684326171875,-0.3602294921875
0.476,308,480,398,308,-25.0,45.0,29.0,-7.141112804412842,-26.184080123901367,-36.9873046875,-0.5318603515625,0.77880859375,-0.346923828125
0.480,310,476,396,310,-21.0,46.0,27.0,-7.141112804412842,-26.184080123901367,-36.9873046875,-0.5372314453125,0.7789306640625,-0.3349609375
0.491,310,476,396,309,-21.0,46.0,27.0,-8.60595703125,-27.587888717651367,-37.7197265625,-0.5372314453125,0.7789306640625,-0.3349609375
0.517,310,473,394,310,-21.0,46.0,27.0,-10.314940452575684,-29.052732467651367,-40.161128997802734,-0.550048828125,0.7764892578125,-0.322998046875
0.517,309,470,398,310,-21.0,46.0,27.0,-10.314940452575684,-29.052732467651367,-40.161128997802734,-0.55419921875,0.770751953125,-0.3199462890625
0.521,309,467,396,308,-21.0,46.0,27.0,-10.375975608825684,-29.602048873901367,-42.053218841552734,-0.55419921875,0.770751953125,-0.3199462890625
0.532,309,469,396,310,-21.0,46.0,27.0,-10.314940452575684,-31.372068405151367,-44.982906341552734,-0.558837890625,0.7518310546875,-0.30419921875
0.541,310,473,396,309,-21.0,46.0,27.0,-10.314940452575684,-31.372068405151367,-44.982906341552734,-0.5584716796875,0.748291015625,-0.290771484375
0.551,309,475,396,308,-21.0,46.0,27.0,-10.864256858825684,-32.5927734375,-45.898433685302734,-0.5584716796875,0.748291015625,-0.290771484375
0.562,310,473,396,309,-21.0,46.0,27.0,-8.30078125,-33.203125,-47.119136810302734,-0.576904296875,0.7552490234375,-0.2801513671875
0.571,310,473,394,310,-21.0,46.0,27.0,-8.30078125,-33.203125,-47.119136810302734,-0.5899658203125,0.750244140625,-0.2825927734375
0.578,308,472,394,309,-21.0,46.0,27.0,-5.493163585662842,-33.02001953125,-48.217769622802734,-0.5899658203125,0.750244140625,-0.2825927734375
0.593,309,475,394,310,-19.0,47.0,32.0,-3.784179449081421,-34.11865234375,-50.537105560302734,-0.6092529296875,0.7225341796875,-0.2811279296875
0.615,308,475,393,310,-19.0,47.0,32.0,-3.784179449081421,-35.15625,-50.964351654052734,-0.6180419921875,0.7095947265625,-0.2786865234375
0.620,308,477,394,308,-19.0,47.0,32.0,-3.784179449081421,-35.15625,-50.964351654052734,-0.6260986328125,0.70361328125,-0.27392578125
0.624,310,481,393,310,-19.0,47.0,32.0,-1.8920897245407104,-36.80419921875,-50.598140716552734,-0.6329345703125,0.7032470703125,-0.2647705078125
0.631,309,479,394,309,-19.0,47.0,32.0,-1.2817381620407104,-37.2314453125,-49.926753997802734,-0.6390380859375,0.7034912109375,-0.2550048828125
0.645,310,480,391,310,-19.0,47.0,32.0,-1.2817381620407104,-37.2314453125,-49.926753997802734,-0.643798828125,0.6990966796875,-0.2493896484375
0.653,310,481,393,310,-19.0,47.0,32.0,-0.6713866591453552,-37.29248046875,-48.217769622802734,-0.6478271484375,0.689697265625,-0.248046875
0.662,310,481,393,310,-19.0,47.0,32.0,-0.4272460639476776,-37.41455078125,-47.424312591552734,-0.65185546875,0.6807861328125,-0.248291015625
0.669,310,480,393,309,-19.0,47.0,32.0,-0.4272460639476776,-37.41455078125,-47.424312591552734,-0.66015625,0.67578125,-0.2481689453125
0.682,310,481,394,309,-15.0,47.0,35.0,-0.1831054538488388,-37.78076171875,-44.921871185302734,-0.67529296875,0.672119140625,-0.243896484375
0.696,309,481,393,310,-15.0,47.0,35.0,0.4272460639476776,-37.90283203125,-43.457027435302734,-0.6898193359375,0.6649169921875,-0.23193359375
0.709,310,482,393,308,-15.0,47.0,35.0,0.4272460639476776,-37.90283203125,-43.457027435302734,-0.6976318359375,0.651611328125,-0.21728515625
0.721,310,485,395,309,-15.0,47.0,35.0,2.50244140625,-37.41455078125,-41.381832122802734,-0.698974609375,0.6375732421875,-0.2081298828125
0.721,310,485,395,309,-15.0,47.0,35.0,3.173827886581421,-37.04833984375,-40.344234466552734,-0.694580078125,0.629150390625,-0.20751953125
0.729,308,493,396,310,-15.0,47.0,35.0,3.173827886581421,-37.04833984375,-40.344234466552734,-0.6923828125,0.627197265625,-0.2159423828125
0.742,310,495,395,310,-15.0,47.0,35.0,2.25830078125,-36.0107421875,-36.9873046875,-0.6959228515625,0.6290283203125,-0.22900390625
0.759,308,499,396,310,-15.0,47.0,35.0,0.0610351525247097,-35.33935546875,-34.3017578125,-0.70361328125,0.6302490234375,-0.2337646484375
0.762,310,500,395,299,-15.0,47.0,35.0,-3.112792730331421,-34.85107421875,-31.249998092651367,-0.7171630859375,0.62939453125,-0.2210693359375
0.773,310,504,396,308,-15.0,47.0,35.0,-6.225585460662842,-34.11865234375,-28.320310592651367,-0.7337646484375,0.6260986328125,-0.200439453125
0.781,310,506,394,308,-13.0,46.0,37.0,-7.873534679412842,-32.958984375,-26.184080123901367,-0.7467041015625,0.6192626953125,-0.181884765625
0.789,310,506,394,309,-13.0,46.0,37.0,-7.812499523162842,-31.738279342651367,-24.780271530151367,-0.749755859375,0.6094970703125,-0.16650390625
0.826,310,512,394,309,-13.0,46.0,37.0,-6.652831554412842,-30.822751998901367,-23.498533248901367,-0.7440185546875,0.5968017578125,-0.155517578125
0.829,310,513,394,307,-13.0,46.0,37.0,-4.82177734375,-30.212400436401367,-21.789548873901367,-0.738037109375,0.5830078125,-0.152099609375
0.829,310,519,394,297,-13.0,46.0,37.0,-2.746581792831421,-29.846189498901367,-19.775390625,-0.7379150390625,0.575439453125,-0.1566162109375
0.833,309,519,396,308,-13.0,46.0,37.0,-1.2817381620407104,-29.357908248901367,-17.27294921875,-0.7425537109375,0.5791015625,-0.165771484375
0.841,309,525,394,310,-13.0,46.0,37.0,-0.8544921278953552,-28.747556686401367,-14.221190452575684,-0.7509765625,0.5906982421875,-0.173095703125
0.849,310,527,395,308,-13.0,46.0,37.0,-1.6479490995407104,-28.320310592651367,-10.681151390075684,-0.75830078125,0.6029052734375,-0.1744384765625
0.870,310,530,394,308,-13.0,46.0,37.0,-3.051757574081421,-27.893064498901367,-7.019042491912842,-0.757080078125,0.610595703125,-0.17724609375
0.871,308,533,391,309,-13.0,46.0,37.0,-5.310058116912842,-27.404783248901367,-3.112792730331421,-0.7451171875,0.6082763671875,-0.18212890625
0.879,309,538,394,310,-12.0,44.0,37.0,-8.85009765625,-26.977537155151367,1.0986328125,-0.7236328125,0.5904541015625,-0.177490234375
0.893,306,561,393,308,-12.0,44.0,37.0,-13.610838890075684,-26.733396530151367,5.676269054412842,-0.7012939453125,0.5655517578125,-0.1614990234375
0.923,310,579,391,308,-12.0,44.0,37.0,-18.73779296875,-26.367185592651367,10.498045921325684,-0.670166015625,0.533203125,-0.1383056640625
0.923,295,592,387,308,-12.0,44.0,37.0,-23.986814498901367,-25.878904342651367,14.953612327575684,-0.6148681640625,0.482177734375,-0.105712890625
0.924,294,645,386,308,-12.0,44.0,37.0,-28.015134811401367,-25.146482467651367,18.12744140625,-0.525146484375,0.408935546875,-0.0584716796875
0.931,308,689,394,309,-12.0,44.0,37.0,-29.724119186401367,-23.803709030151367,19.10400390625,-0.4134521484375,0.3402099609375,-0.012939453125
0.938,308,763,419,309,-12.0,44.0,37.0,-32.958984375,-22.644041061401367,17.7001953125,-0.317138671875,0.3460693359375,0.0487060546875
0.952,310,882,447,309,-12.0,44.0,37.0,-39.1845703125,-23.437498092651367,12.756346702575684,-0.1278076171875,0.36572265625,0.1949462890625
0.963,308,989,477,308,-12.0,44.0,37.0,-44.738765716552734,-27.282712936401367,-4.33349609375,0.1680908203125,0.26123046875,0.3992919921875
0.968,310,1105,497,308,-12.0,44.0,37.0,-43.273921966552734,-35.2783203125,-39.55078125,0.28466796875,0.1141357421875,0.4635009765625
0.983,308,1336,543,310,-9.0,47.0,35.0,-26.123044967651367,-48.400875091552734,-84.65575408935547,0.0826416015625,0.1688232421875,0.26806640625
0.990,310,1386,548,309,-9.0,47.0,35.0,-4.2724609375,-64.453125,-124.51171112060547,-0.3284912109375,0.5760498046875,-0.019775390625
1.003,310,1404,558,310,-9.0,47.0,35.0,2.44140625,-73.1201171875,-143.310546875,-0.8662109375,1.1268310546875,-0.26904296875
1.023,310,1447,557,310,-9.0,47.0,35.0,-3.112792730331421,-62.866207122802734,-132.01904296875,-1.307861328125,1.3829345703125,-0.433837890625
1.024,310,1478,561,310,-9.0,47.0,35.0,-6.591796398162842,-38.02490234375,-102.78319549560547,-1.4866943359375,1.251953125,-0.3338623046875
1.029,309,1514,562,310,-9.0,47.0,35.0,-9.21630859375,-16.6015625,-79.1015625,-1.4725341796875,0.8365478515625,0.0101318359375
1.042,310,1580,574,310,-9.0,47.0,35.0,-18.4326171875,-8.056640625,-69.64111328125,-1.4747314453125,0.3642578125,0.2728271484375
1.050,309,1607,566,310,-9.0,47.0,35.0,-14.648436546325684,-5.615233898162842,-61.645503997802734,-1.6400146484375,0.1986083984375,0.2596435546875
1.058,310,1610,568,308,-9.0,47.0,35.0,14.892577171325684,-2.929687261581421,-45.349117279052734,-1.774169921875,0.3367919921875,0.0748291015625
1.072,310,1577,554,310,-9.0,47.0,35.0,53.161617279052734,3.173827886581421,-25.268552780151367,-1.2171630859375,0.5601806640625,-0.2884521484375
1.081,310,1555,540,309,-7.0,43.0,41.0,80.01708984375,12.573241233825684,-8.48388671875,-1.2171630859375,0.5601806640625,-0.2884521484375
1.095,310,1543,541,310,-7.0,43.0,41.0,88.56200408935547,18.798828125,-0.4272460639476776,-0.9075927734375,0.6319580078125,-0.3553466796875
1.105,310,1498,538,309,-7.0,43.0,41.0,79.833984375,18.73779296875,-1.8920897245407104,-1.0028076171875,0.8681640625,-0.525634765625
1.124,308,1523,548,310,-7.0,43.0,41.0,51.696773529052734,14.465331077575684,-8.72802734375,-1.0028076171875,0.8681640625,-0.525634765625
1.128,310,1534,548,310,-7.0,43.0,41.0,11.291502952575684,10.375975608825684,-14.953612327575684,-1.1988525390625,0.848388671875,-0.4720458984375
1.132,310,1512,552,310,-7.0,43.0,41.0,-28.686521530151367,7.507323741912842,-16.845703125,-1.932373046875,1.142822265625,-0.1885986328125
1.144,310,1472,546,311,-7.0,43.0,41.0,-68.90869140625,4.08935546875,-11.596678733825684,-1.932373046875,1.142822265625,-0.1885986328125
1.151,310,1428,547,310,-7.0,43.0,41.0,-106.99462127685547,3.601073980331421,4.7607421875,-1.9774169921875,1.0537109375,-0.0660400390625
1.166,308,1361,543,309,-7.0,43.0,41.0,-124.02342987060547,8.6669921875,30.761716842651367,-1.362548828125,0.5350341796875,0.0733642578125
1.171,310,1305,537,310,-7.0,43.0,41.0,-108.82567596435547,13.549803733825684,54.687496185302734,-1.362548828125,0.5350341796875,0.0733642578125
1.179,310,1241,523,309,-8.0,44.0,38.0,-67.7490234375,12.695311546325684,62.316890716552734,-0.91552734375,0.1595458984375,0.0821533203125
1.192,310,1063,481,308,-8.0,44.0,38.0,-14.831542015075684,8.36181640625,50.415035247802734,-0.25537109375,-0.3125,-0.0645751953125
1.229,308,958,452,310,-8.0,44.0,38.0,37.109375,5.249022960662842,29.479978561401367,-0.1329345703125,-0.1644287109375,-0.2359619140625
1.230,310,882,437,308,-8.0,44.0,38.0,77.63671875,7.934569835662842,12.023924827575684,-0.1329345703125,-0.1644287109375,-0.2359619140625
1.230,310,764,401,309,-8.0,44.0,38.0,97.35106658935547,20.385740280151367,2.44140625,-0.36181640625,0.5938720703125,-0.2611083984375
1.232,296,694,396,298,-8.0,44.0,38.0,97.35106658935547,20.385740280151367,2.44140625,-0.5113525390625,0.890869140625,-0.1439208984375
1.239,312,613,401,308,-8.0,44.0,38.0,74.0966796875,16.78466796875,3.723144292831421,-0.5113525390625,0.890869140625,-0.1439208984375
1.253,308,533,408,310,-8.0,44.0,38.0,-3.234863042831421,2.746581792831421,-4.7607421875,-0.46142578125,0.85107421875,-0.0003662109375
1.261,310,504,409,308,-8.0,44.0,38.0,-3.234863042831421,2.746581792831421,-4.7607421875,-0.5213623046875,0.642578125,0.0946044921875
1.272,310,477,410,308,-8.0,44.0,38.0,-33.69140625,-3.906249761581421,-11.169432640075684,-0.5213623046875,0.642578125,0.0946044921875
1.283,307,414,414,309,-8.0,44.0,37.0,-36.62109375,-12.145995140075684,-20.080564498901367,-0.6873779296875,0.4139404296875,0.1212158203125
1.292,311,399,415,310,-8.0,44.0,37.0,-20.324705123901367,-10.559081077575684,-24.719236373901367,-0.7432861328125,0.4188232421875,0.05126953125
1.299,308,393,414,310,-8.0,44.0,37.0,-20.324705123901367,-10.559081077575684,-24.719236373901367,-0.760498046875,0.41796875,-0.0164794921875
1.313,310,380,415,310,-8.0,44.0,37.0,-4.69970703125,-8.11767578125,-23.132322311401367,-0.7567138671875,0.389892578125,-0.053955078125
1.331,308,379,419,310,-8.0,44.0,37.0,-3.417968511581421,-9.09423828125,-17.51708984375,-0.7554931640625,0.364501953125,-0.0452880859375
1.332,310,374,419,308,-8.0,44.0,37.0,-3.417968511581421,-9.09423828125,-17.51708984375,-0.763671875,0.3697509765625,-0.013916015625
1.343,310,377,417,310,-8.0,44.0,37.0,9.09423828125,-10.742186546325684,-6.103515148162842,-0.780517578125,0.4171142578125,0.0020751953125
1.358,309,373,420,310,-8.0,44.0,37.0,15.502928733825684,-11.474608421325684,-0.4882812201976776,-0.791259765625,0.4520263671875,0.0
1.360,306,373,421,308,-8.0,44.0,37.0,15.502928733825684,-11.474608421325684,-0.4882812201976776,-0.7869873046875,0.4442138671875,-0.0181884765625
1.374,309,382,419,310,-8.0,44.0,37.0,17.333984375,-12.329100608825684,8.6669921875,-0.761962890625,0.4278564453125,-0.0546875
1.382,308,389,415,308,-7.0,40.0,43.0,15.808104515075684,-11.352538108825684,12.817381858825684,-0.7215576171875,0.4150390625,-0.0966796875
1.390,308,387,415,309,-7.0,40.0,43.0,15.808104515075684,-11.352538108825684,12.817381858825684,-0.6702880859375,0.391845703125,-0.1226806640625
1.403,306,494,411,308,-7.0,40.0,43.0,7.202147960662842,-9.09423828125,22.277830123901367,-0.5855712890625,0.330810546875,-0.0970458984375
1.412,310,538,410,310,-7.0,40.0,43.0,1.03759765625,-9.82666015625,25.573728561401367,-0.4302978515625,0.19921875,-0.0235595703125
1.436,308,636,396,309,-7.0,40.0,43.0,1.03759765625,-9.82666015625,25.573728561401367,-0.25244140625,0.07177734375,0.08203125
1.437,310,810,407,308,-7.0,40.0,43.0,-4.33349609375,-17.76123046875,30.639646530151367,-0.0328369140625,0.0762939453125,0.29248046875
1.443,310,929,428,310,-7.0,40.0,43.0,15.563963890075684,-22.338865280151367,32.958984375,0.3475341796875,0.155517578125,0.5987548828125
1.450,310,1047,450,309,-7.0,40.0,43.0,56.884761810302734,-29.663084030151367,19.53125,0.7843017578125,0.0126953125,0.8140869140625
1.464,309,1355,530,309,-7.0,40.0,43.0,113.28124237060547,-45.837398529052734,-22.216794967651367,0.88037109375,-0.3253173828125,0.653076171875
1.475,310,1474,573,310,-7.0,40.0,43.0,154.84619140625,-71.2890625,-83.74022674560547,0.4156494140625,-0.247802734375,0.178955078125
1.480,310,1531,586,310,-9.0,41.0,43.0,131.591796875,-96.25243377685547,-136.90185546875,-0.3995361328125,0.52197265625,-0.2947998046875
1.494,308,1591,614,310,-9.0,41.0,43.0,57.556148529052734,-95.76415252685547,-150.5126953125,-1.374267578125,1.45166015625,-0.820068359375
1.502,310,1636,629,310,-9.0,41.0,43.0,2.807616949081421,-59.509273529052734,-119.20165252685547,-2.302734375,1.975341796875,-1.1414794921875
1.515,309,1677,656,310,-9.0,41.0,43.0,-26.855466842651367,-21.118162155151367,-83.37401580810547,-2.7325439453125,1.833251953125,-0.8153076171875
1.536,310,1732,671,310,-9.0,41.0,43.0,-75.439453125,-14.953612327575684,-77.08740234375,-2.5911865234375,1.054931640625,-0.011474609375
1.537,310,1744,671,310,-9.0,41.0,43.0,-117.00438690185547,-31.799314498901367,-81.29882049560547,-2.288818359375,0.1583251953125,0.6605224609375
1.546,308,1733,639,310,-9.0,41.0,43.0,-84.22850799560547,-35.94970703125,-65.36865234375,-2.0943603515625,-0.2413330078125,0.651611328125
1.554,311,1708,599,308,-9.0,41.0,43.0,17.51708984375,-13.244627952575684,-33.8134765625,-1.7125244140625,-0.1102294921875,0.0968017578125
1.562,310,1682,594,310,-9.0,41.0,43.0,112.12157440185547,17.333984375,-10.742186546325684,-1.15234375,0.2923583984375,-0.4312744140625
1.571,310,1694,600,309,-9.0,41.0,43.0,138.36669921875,34.423828125,-4.5166015625,-0.947998046875,0.7525634765625,-0.665283203125
1.584,310,1705,628,308,-8.0,40.0,44.0,82.58055877685547,31.555173873901367,-8.36181640625,-1.19677734375,0.946533203125,-0.6021728515625
1.592,310,1700,634,310,-8.0,40.0,44.0,-15.563963890075684,17.15087890625,-11.901854515075684,-1.6573486328125,0.861572265625,-0.3428955078125
1.600,309,1678,639,308,-8.0,40.0,44.0,-96.19139862060547,4.638671875,-5.554198741912842,-1.9910888671875,0.6494140625,-0.0535888671875
1.619,313,1595,610,309,-8.0,40.0,44.0,-127.50243377685547,2.0751953125,12.817381858825684,-2.0439453125,0.4759521484375,0.1136474609375
1.635,310,1547,600,309,-8.0,40.0,44.0,-112.48778533935547,9.58251953125,37.78076171875,-1.9180908203125,0.5029296875,0.10595703125
1.637,310,1492,589,310,-8.0,40.0,44.0,-81.05467987060547,21.118162155151367,60.363765716552734,-1.6683349609375,0.6478271484375,0.0657958984375
1.644,310,1377,572,309,-8.0,40.0,44.0,-58.166500091552734,29.968259811401367,75.8056640625,-1.30712890625,0.6778564453125,0.117431640625
1.658,310,1297,538,308,-8.0,40.0,44.0,-43.212886810302734,34.24072265625,82.09227752685547,-0.8974609375,0.388671875,0.22900390625
1.660,310,1216,506,308,-8.0,40.0,44.0,-20.874021530151367,36.1328125,76.84326171875,-0.473876953125,-0.071044921875,0.2781982421875
1.679,310,1043,435,308,-8.0,43.0,38.0,17.9443359375,38.330078125,61.401363372802734,-0.086669921875,-0.340576171875,0.165771484375
1.685,310,944,391,308,-8.0,43.0,38.0,63.598628997802734,41.931148529052734,41.259761810302734,0.116455078125,-0.3004150390625,-0.0721435546875
1.690,309,861,388,308,-8.0,43.0,38.0,96.31346893310547,45.898433685302734,23.193357467651367,0.0465087890625,-0.018798828125,-0.3133544921875
1.703,310,749,387,310,-8.0,43.0,38.0,104.49217987060547,46.508785247802734,12.268065452575684,-0.1976318359375,0.3812255859375,-0.4395751953125
1.712,310,713,387,308,-8.0,43.0,38.0,86.36473846435547,39.4287109375,8.6669921875,-0.4208984375,0.76953125,-0.4295654296875
1.720,310,703,391,310,-8.0,43.0,38.0,47.790523529052734,26.245115280151367,8.36181640625,-0.5462646484375,1.043212890625,-0.3583984375
1.739,310,673,399,310,-8.0,43.0,38.0,2.807616949081421,11.779784202575684,6.896972179412842,-0.677001953125,1.1153564453125,-0.2781982421875
1.742,310,613,399,309,-8.0,43.0,38.0,-35.21728515625,-1.4038084745407104,1.4648436307907104,-0.817138671875,0.9935302734375,-0.202392578125
1.750,310,571,407,309,-8.0,43.0,38.0,-58.715816497802734,-9.46044921875,-8.72802734375,-0.85498046875,0.7596435546875,-0.126953125
1.764,308,523,408,309,-8.0,43.0,38.0,-67.3828125,-9.6435546875,-21.118162155151367,-0.7081298828125,0.228271484375,0.0345458984375
1.773,310,485,410,308,-8.0,43.0,39.0,-65.61279296875,-5.371093273162842,-30.151365280151367,-0.7081298828125,0.228271484375,0.0345458984375
1.790,308,465,411,311,-8.0,43.0,39.0,-55.664058685302734,-3.234863042831421,-31.311033248901367,-0.7027587890625,0.117431640625,0.1163330078125
1.794,308,419,411,310,-8.0,43.0,39.0,-40.588375091552734,-5.737304210662842,-25.817869186401367,-0.76953125,0.170166015625,0.154052734375
1.802,308,407,411,310,-8.0,43.0,39.0,-25.024412155151367,-10.742186546325684,-18.24951171875,-0.76953125,0.170166015625,0.154052734375
1.810,309,399,411,308,-8.0,43.0,39.0,-10.375975608825684,-15.258788108825684,-11.291502952575684,-0.7763671875,0.24658203125,0.1253662109375
1.824,310,387,409,309,-8.0,43.0,39.0,1.8920897245407104,-18.06640625,-5.0048828125,-0.798583984375,0.3936767578125,-0.0078125
1.837,309,386,410,310,-8.0,43.0,39.0,11.291502952575684,-18.5546875,0.6713866591453552,-0.798583984375,0.3936767578125,-0.0078125
1.846,310,384,410,309,-8.0,43.0,39.0,18.5546875,-16.6015625,4.8828125,-0.8125,0.4422607421875,-0.07861328125
1.854,310,386,408,308,-8.0,43.0,39.0,22.277830123901367,-13.488768577575684,7.934569835662842,-0.796142578125,0.4964599609375,-0.0770263671875
1.862,309,391,401,310,-8.0,43.0,39.0,19.59228515625,-10.864256858825684,11.047362327575684,-0.796142578125,0.4964599609375,-0.0770263671875
1.870,308,408,396,308,-8.0,43.0,39.0,10.131834983825684,-9.3994140625,14.953612327575684,-0.7579345703125,0.46435546875,-0.0523681640625
1.895,310,456,391,310,-7.0,43.0,41.0,-12.756346702575684,-7.080077648162842,22.399900436401367,-0.605224609375,0.2939453125,0.0067138671875
1.895,310,509,393,308,-7.0,43.0,41.0,-12.756346702575684,-7.080077648162842,22.399900436401367,-0.5159912109375,0.2147216796875,0.0706787109375
1.900,308,576,391,309,-7.0,43.0,41.0,-18.24951171875,-6.530761241912842,25.024412155151367,-0.5159912109375,0.2147216796875,0.0706787109375
1.914,310,777,395,310,-7.0,43.0,41.0,-9.94873046875,-8.36181640625,28.869626998901367,-0.240478515625,0.13818359375,0.2694091796875
1.945,309,889,423,309,-7.0,43.0,41.0,-9.94873046875,-8.36181640625,28.869626998901367,0.00732421875,0.0865478515625,0.4039306640625
1.946,309,1018,447,310,-7.0,43.0,41.0,2.868652105331421,-11.169432640075684,26.916501998901367,0.00732421875,0.0865478515625,0.4039306640625
1.948,296,1260,486,310,-7.0,43.0,41.0,40.710445404052734,-29.663084030151367,-1.2817381620407104,0.8045654296875,-0.47705078125,0.6583251953125
1.952,310,1393,526,310,-7.0,43.0,41.0,40.710445404052734,-29.663084030151367,-1.2817381620407104,0.7135009765625,-0.7578125,0.674072265625
1.959,310,1504,555,308,-7.0,43.0,41.0,57.373043060302734,-51.025386810302734,-36.43798828125,0.7135009765625,-0.7578125,0.674072265625
1.973,308,1569,549,309,-8.0,42.0,42.0,116.45507049560547,-71.044921875,-73.42529296875,-0.7418212890625,0.7452392578125,-0.3212890625
1.982,310,1595,564,310,-8.0,42.0,42.0,116.45507049560547,-71.044921875,-73.42529296875,-1.853271484375,1.776611328125,-1.325927734375
2.005,310,1636,584,309,-8.0,42.0,42.0,158.203125,-24.475095748901367,-54.138179779052734,-1.853271484375,1.776611328125,-1.325927734375
2.006,310,1689,589,310,-8.0,42.0,42.0,89.66063690185547,30.334470748901367,-43.273921966552734,-2.292236328125,1.41650390625,-0.5054931640625
2.012,310,1704,579,309,-8.0,42.0,42.0,89.66063690185547,30.334470748901367,-43.273921966552734,-2.0662841796875,0.7724609375,0.130615234375
2.029,310,1723,585,308,-8.0,42.0,42.0,23.254392623901367,13.977049827575684,-63.842769622802734,-2.0662841796875,0.7724609375,0.130615234375
2.058,310,1683,537,308,-8.0,42.0,42.0,59.631343841552734,4.21142578125,-48.156734466552734,-2.2486572265625,0.4512939453125,0.0228271484375
2.066,310,1634,509,308,-8.0,42.0,42.0,92.83446502685547,8.60595703125,-25.451658248901367,-1.89306640625,0.3270263671875,-0.268310546875
2.074,309,1598,495,308,-8.0,42.0,42.0,92.83446502685547,8.60595703125,-25.451658248901367,-1.2177734375,0.2593994140625,-0.49853515625
2.082,309,1551,483,308,-8.0,42.0,42.0,93.32274627685547,21.057126998901367,0.4272460639476776,-0.938720703125,0.483642578125,-0.6612548828125
2.083,296,1564,497,310,-9.0,43.0,44.0,47.973628997802734,15.808104515075684,1.5869139432907104,-1.0731201171875,0.71142578125,-0.7506103515625
2.083,310,1592,516,297,-9.0,43.0,44.0,47.973628997802734,15.808104515075684,1.5869139432907104,-1.4095458984375,0.86572265625,-0.6766357421875
2.094,310,1607,540,308,-9.0,43.0,44.0,-78.9794921875,-21.057126998901367,-8.48388671875,-1.938232421875,1.0740966796875,-0.4974365234375
2.110,310,1595,545,309,-9.0,43.0,44.0,-124.87792205810547,-38.2080078125,-9.09423828125,-2.3204345703125,1.08447265625,-0.3106689453125
2.110,309,1577,540,310,-9.0,43.0,44.0,-124.87792205810547,-38.2080078125,-9.09423828125,-2.2529296875,0.7689208984375,-0.0670166015625
2.131,309,1506,543,309,-9.0,43.0,44.0,-157.65380859375,-35.7666015625,16.6015625,-1.810302734375,0.3309326171875,0.2840576171875
2.132,298,1424,537,309,-9.0,43.0,44.0,-126.28173065185547,-14.892577171325684,37.2314453125,-1.2518310546875,0.025390625,0.6141357421875
2.154,309,1345,518,310,-9.0,43.0,44.0,-126.28173065185547,-14.892577171325684,37.2314453125,-0.771240234375,-0.1080322265625,0.6220703125
2.155,310,1170,454,309,-9.0,43.0,44.0,-25.451658248901367,22.216794967651367,53.833003997802734,-0.413818359375,-0.160400390625,0.27978515625
2.162,309,1081,399,310,-9.0,43.0,44.0,24.291990280151367,30.944822311401367,44.067378997802734,-0.1844482421875,-0.0206298828125,-0.184814453125
2.170,310,984,391,310,-8.0,42.0,41.0,24.291990280151367,30.944822311401367,44.067378997802734,-0.170166015625,0.3194580078125,-0.566162109375
2.183,310,873,393,310,-8.0,42.0,41.0,60.180660247802734,46.264644622802734,18.00537109375,-0.3056640625,0.656494140625,-0.7117919921875
2.198,309,832,394,307,-8.0,42.0,41.0,26.184080123901367,46.691890716552734,6.225585460662842,-0.3934326171875,0.813232421875,-0.5885009765625
2.200,310,777,402,309,-8.0,42.0,41.0,-23.986814498901367,41.137691497802734,-4.7607421875,-0.4254150390625,0.76953125,-0.3143310546875
2.214,310,685,411,308,-8.0,42.0,41.0,-66.58935546875,33.26416015625,-13.488768577575684,-0.42236328125,0.641845703125,-0.0733642578125
2.222,309,599,413,308,-8.0,42.0,41.0,-90.45409393310547,25.512693405151367,-17.88330078125,-0.429443359375,0.50341796875,0.0755615234375
2.231,310,547,414,310,-8.0,42.0,41.0,-101.07421112060547,17.15087890625,-17.822265625,-0.4615478515625,0.3609619140625,0.1553955078125
2.254,310,481,419,310,-8.0,42.0,41.0,-106.44530487060547,7.446288585662842,-17.27294921875,-0.5081787109375,0.191650390625,0.214599609375
2.255,310,465,420,309,-8.0,42.0,41.0,-103.02733612060547,-1.0986328125,-19.22607421875,-0.6090087890625,0.0657958984375,0.2239990234375
2.263,311,449,423,310,-8.0,42.0,41.0,-83.55712127685547,-5.0048828125,-20.385740280151367,-0.7572021484375,0.06591796875,0.1475830078125
2.274,308,410,426,310,-4.0,41.0,40.0,-54.382320404052734,-6.774901866912842,-16.4794921875,-0.8851318359375,0.1612548828125,0.0718994140625
2.282,309,401,426,310,-4.0,41.0,40.0,-27.954099655151367,-10.192870140075684,-7.385253429412842,-0.9361572265625,0.28173828125,0.0423583984375
2.294,310,387,426,306,-4.0,41.0,40.0,-10.070799827575684,-14.587401390075684,2.746581792831421,-0.9178466796875,0.3671875,0.0302734375
2.303,308,372,424,309,-4.0,41.0,40.0,0.9155272841453552,-18.06640625,10.009765625,-0.865234375,0.3843994140625,0.00830078125
2.316,312,369,420,309,-4.0,41.0,40.0,10.498045921325684,-19.287109375,13.854979515075684,-0.8294677734375,0.3604736328125,-0.0269775390625
2.320,310,373,420,310,-4.0,41.0,40.0,20.446775436401367,-18.85986328125,16.54052734375,-0.8275146484375,0.35986328125,-0.03955078125
2.360,309,373,415,310,-4.0,41.0,40.0,27.893064498901367,-18.6767578125,19.8974609375,-0.8223876953125,0.387939453125,-0.0167236328125
2.361,310,377,411,310,-4.0,41.0,40.0,31.921384811401367,-18.24951171875,22.949216842651367,-0.7919921875,0.40234375,-0.002685546875
2.361,308,380,411,307,-4.0,41.0,40.0,33.935546875,-16.66259765625,23.925779342651367,-0.75146484375,0.3951416015625,-0.0289306640625
2.365,309,382,411,308,-4.0,41.0,40.0,33.50830078125,-15.197752952575684,24.475095748901367,-0.701904296875,0.376220703125,-0.0633544921875
2.372,311,379,413,308,-7.0,40.0,44.0,29.113767623901367,-14.831542015075684,26.123044967651367,-0.6177978515625,0.3265380859375,-0.0721435546875
2.380,310,437,411,309,-7.0,40.0,44.0,20.141599655151367,-16.6015625,27.587888717651367,-0.46923828125,0.2188720703125,-0.044189453125
2.399,310,660,402,309,-7.0,40.0,44.0,7.568358898162842,-22.460935592651367,27.465818405151367,-0.2496337890625,0.065673828125,0.045654296875
2.402,309,832,407,308,-7.0,40.0,44.0,-3.540038824081421,-32.77587890625,26.245115280151367,-0.01708984375,-0.0330810546875,0.20068359375
2.410,309,952,425,310,-7.0,40.0,44.0,-2.868652105331421,-44.982906341552734,25.451658248901367,0.1396484375,0.06494140625,0.464111328125
2.424,309,1189,490,309,-7.0,40.0,44.0,25.146482467651367,-53.833003997802734,20.812986373901367,0.3734130859375,0.2635498046875,0.648193359375
2.438,310,1352,525,310,-7.0,40.0,44.0,74.52392578125,-58.532711029052734,-1.7700194120407104,0.7081298828125,0.1767578125,0.504150390625
2.458,308,1445,561,310,-7.0,40.0,44.0,108.15428924560547,-70.37353515625,-47.241207122802734,0.7244873046875,-0.1402587890625,0.290771484375
2.458,309,1609,579,310,-7.0,40.0,44.0,109.49706268310547,-93.87206268310547,-97.83934783935547,0.18701171875,-0.0277099609375,0.111572265625
2.462,310,1655,594,309,-7.0,40.0,44.0,99.24315643310547,-105.52977752685547,-125.12206268310547,-0.822021484375,0.701171875,-0.3450927734375
2.470,310,1698,608,310,-7.0,40.0,44.0,95.27587127685547,-82.09227752685547,-113.40331268310547,-1.919189453125,1.6868896484375,-0.960693359375
2.484,310,1752,631,310,-7.0,40.0,44.0,67.56591796875,-46.630855560302734,-88.56200408935547,-2.417236328125,2.1080322265625,-0.99951171875
2.492,310,1781,653,308,-7.0,40.0,44.0,-15.502928733825684,-40.283199310302734,-86.85301971435547,-2.3414306640625,1.3968505859375,-0.3056640625
2.500,309,1803,662,310,-7.0,40.0,44.0,-94.05516815185547,-58.166500091552734,-98.99901580810547,-2.2974853515625,0.40478515625,0.4281005859375
2.514,310,1803,644,310,-7.0,40.0,44.0,-97.04589080810547,-69.03076171875,-96.06932830810547,-2.345458984375,0.030517578125,0.6531982421875
2.522,310,1782,606,309,-7.0,40.0,44.0,-41.076656341552734,-58.654781341552734,-72.6318359375,-2.345458984375,0.030517578125,0.6531982421875
2.531,309,1750,587,309,-7.0,40.0,44.0,20.324705123901367,-31.982419967651367,-46.264644622802734,-1.7857666015625,0.0035400390625,0.2550048828125
2.561,308,1742,588,310,-7.0,40.0,44.0,62.377925872802734,-1.2817381620407104,-31.433103561401367,-1.0615234375,0.4136962890625,-0.39990234375
2.561,310,1742,599,310,-7.0,40.0,44.0,70.00732421875,18.9208984375,-23.498533248901367,-1.0615234375,0.4136962890625,-0.39990234375
2.562,309,1730,601,310,-7.0,40.0,44.0,22.583005905151367,21.179197311401367,-14.587401390075684,-1.535400390625,0.6497802734375,-0.2596435546875
2.574,310,1676,585,310,-2.0,38.0,47.0,-58.532711029052734,15.136717796325684,-0.54931640625,-2.384521484375,0.4132080078125,0.2587890625
2.582,308,1632,561,310,-2.0,38.0,47.0,-122.25341033935547,12.817381858825684,21.606443405151367,-2.384521484375,0.4132080078125,0.2587890625
2.590,310,1568,558,310,-2.0,38.0,47.0,-138.97705078125,18.5546875,51.452632904052734,-2.2120361328125,0.2308349609375,0.39599609375
2.603,308,1444,522,309,-2.0,38.0,47.0,-111.08397674560547,31.188962936401367,85.02196502685547,-1.4781494140625,0.391845703125,0.4072265625
2.612,309,1363,517,310,-2.0,38.0,47.0,-64.94140625,46.081539154052734,114.56298065185547,-1.4781494140625,0.391845703125,0.4072265625
2.620,308,1275,509,310,-2.0,38.0,47.0,-28.137205123901367,58.227535247802734,132.01904296875,-1.12890625,0.3790283203125,0.2984619140625
2.643,310,1123,449,309,-2.0,38.0,47.0,-7.019042491912842,65.24658203125,129.638671875,0.0751953125,-0.213623046875,0.0599365234375
2.646,310,1025,423,309,-2.0,38.0,47.0,10.925292015075684,70.4345703125,106.56737518310547,0.5462646484375,-0.3812255859375,-0.1142578125
2.663,310,959,410,310,-2.0,38.0,47.0,34.11865234375,74.70703125,72.57080078125,0.5462646484375,-0.3812255859375,-0.1142578125
2.664,309,764,393,308,-2.0,38.0,47.0,73.66943359375,70.12939453125,21.240232467651367,0.1844482421875,0.0804443359375,-0.23779296875
2.676,309,694,394,310,-10.0,41.0,39.0,73.66943359375,70.12939453125,21.240232467651367,-0.103515625,0.6580810546875,-0.1453857421875
2.680,310,631,396,310,-10.0,41.0,39.0,75.68359375,56.762691497802734,15.197752952575684,-0.103515625,0.6580810546875,-0.1453857421875
2.694,310,616,402,307,-10.0,41.0,39.0,23.437498092651367,21.789548873901367,25.329587936401367,-0.75732421875,1.36767578125,-0.18994140625
2.707,310,618,402,310,-10.0,41.0,39.0,23.437498092651367,21.789548873901367,25.329587936401367,-0.994873046875,1.182861328125,-0.269287109375
2.710,310,594,405,310,-10.0,41.0,39.0,-12.207030296325684,2.990722417831421,15.686034202575684,-0.994873046875,1.182861328125,-0.269287109375
2.724,309,540,401,308,-10.0,41.0,39.0,-44.860836029052734,-10.009765625,-25.024412155151367,-1.0614013671875,0.6177978515625,-0.2869873046875
2.732,310,504,402,310,-10.0,41.0,39.0,-44.860836029052734,-10.009765625,-25.024412155151367,-0.86474609375,0.3597412109375,-0.22802734375
2.768,309,473,407,309,-10.0,41.0,39.0,-58.471675872802734,-3.479003667831421,-30.395505905151367,-0.86474609375,0.3597412109375,-0.22802734375
2.769,309,424,408,310,-10.0,41.0,39.0,-84.65575408935547,-4.82177734375,-11.047362327575684,-0.6693115234375,-0.0169677734375,0.10107421875
2.776,309,415,410,308,-10.0,41.0,39.0,-84.65575408935547,-4.82177734375,-11.047362327575684,-0.6942138671875,-0.0711669921875,0.233642578125
2.777,296,421,409,297,-5.0,40.0,44.0,-73.3642578125,-12.207030296325684,2.3193359375,-0.6942138671875,-0.0711669921875,0.233642578125
2.785,309,426,411,309,-5.0,40.0,44.0,-47.302242279052734,-17.4560546875,11.047362327575684,-0.7425537109375,-0.0018310546875,0.2938232421875
2.793,308,421,413,309,-5.0,40.0,44.0,0.3662109076976776,-18.49365234375,23.071287155151367,-0.8360595703125,0.332763671875,0.2109375
2.808,310,426,414,310,-5.0,40.0,44.0,0.3662109076976776,-18.49365234375,23.071287155151367,-0.851318359375,0.442626953125,0.126708984375
2.809,308,426,415,297,-5.0,40.0,44.0,13.916014671325684,-15.197752952575684,27.893064498901367,-0.851318359375,0.442626953125,0.126708984375
2.822,309,437,414,310,-5.0,40.0,44.0,23.376462936401367,-8.1787109375,33.69140625,-0.7945556640625,0.5238037109375,0.0228271484375
2.831,310,455,413,308,-5.0,40.0,44.0,23.376462936401367,-8.1787109375,33.69140625,-0.7452392578125,0.4857177734375,0.000244140625
2.852,308,488,414,310,-5.0,40.0,44.0,17.333984375,-6.103515148162842,35.70556640625,-0.7452392578125,0.4857177734375,0.000244140625
2.868,309,545,411,310,-5.0,40.0,44.0,-0.0610351525247097,-3.662109136581421,36.0107421875,-0.601806640625,0.3553466796875,0.051513671875
2.868,309,608,413,309,-5.0,40.0,44.0,-0.0610351525247097,-3.662109136581421,36.0107421875,-0.4835205078125,0.309326171875,0.098876953125
2.869,310,691,414,296,-5.0,38.0,41.0,-3.601073980331421,-3.295898199081421,34.66796875,-0.3526611328125,0.26220703125,0.1279296875
2.883,310,884,426,309,-5.0,38.0,41.0,0.6713866591453552,-5.615233898162842,31.799314498901367,-0.217041015625,0.23193359375,0.16796875
2.890,310,982,440,309,-5.0,38.0,41.0,7.507323741912842,-10.314940452575684,30.822751998901367,0.0517578125,0.17724609375,0.2369384765625
2.899,310,1099,468,310,-5.0,38.0,41.0,7.507323741912842,-10.314940452575684,30.822751998901367,0.49609375,-0.02734375,0.3514404296875
2.913,312,1323,513,308,-5.0,38.0,41.0,3.112792730331421,-27.404783248901367,5.249022960662842,0.8096923828125,-0.4168701171875,0.56103515625
2.921,308,1452,537,310,-5.0,38.0,41.0,1.9531248807907104,-48.095699310302734,-32.53173828125,0.7174072265625,-0.71923828125,0.68310546875
2.929,310,1529,533,308,-5.0,38.0,41.0,1.9531248807907104,-48.095699310302734,-32.53173828125,0.193359375,-0.4390869140625,0.4910888671875
2.973,310,1615,545,310,-5.0,38.0,41.0,110.35155487060547,-65.24658203125,-91.67479705810547,-0.8316650390625,0.6143798828125,-0.1488037109375
2.974,309,1648,551,309,-5.0,38.0,41.0,169.55564880371094,-32.958984375,-59.631343841552734,-2.0667724609375,2.0628662109375,-0.9490966796875
2.974,310,1687,562,310,-5.0,38.0,41.0,169.55564880371094,-32.958984375,-59.631343841552734,-2.65771484375,2.4927978515625,-1.0224609375
2.975,310,1730,564,310,-8.0,39.0,46.0,81.17675018310547,2.50244140625,-28.137205123901367,-2.493896484375,1.540283203125,-0.3602294921875
2.980,308,1744,566,310,-8.0,39.0,46.0,-2.0751953125,-10.314940452575684,-50.170894622802734,-2.2969970703125,0.5743408203125,0.2259521484375
2.988,312,1732,566,308,-8.0,39.0,46.0,-2.0751953125,-10.314940452575684,-50.170894622802734,-2.3404541015625,0.27099609375,0.33837890625
3.002,310,1642,545,310,-8.0,39.0,46.0,27.770994186401367,-11.474608421325684,-27.587888717651367,-2.0689697265625,0.30029296875,0.0931396484375
3.011,309,1610,543,308,-8.0,39.0,46.0,70.4345703125,-2.13623046875,-2.624511480331421,-1.3389892578125,0.316162109375,-0.1868896484375
3.019,311,1621,545,308,-8.0,39.0,46.0,91.97997283935547,11.962889671325684,10.803221702575684,-0.9033203125,0.5987548828125,-0.4295654296875
3.032,310,1649,552,310,-8.0,39.0,46.0,68.4814453125,18.1884765625,9.521484375,-1.0936279296875,1.0130615234375,-0.5206298828125
3.041,310,1642,554,310,-8.0,39.0,46.0,-0.54931640625,8.72802734375,-0.1220703050494194,-1.649169921875,1.1971435546875,-0.35791015625
3.051,310,1634,552,310,-8.0,39.0,46.0,-73.91357421875,-4.5166015625,-6.225585460662842,-2.1929931640625,1.164794921875,-0.11328125
3.069,310,1580,546,310,-8.0,39.0,49.0,-119.75096893310547,-9.82666015625,-2.01416015625,-2.3968505859375,0.99560546875,0.0594482421875
3.077,310,1498,543,310,-8.0,39.0,49.0,-132.9345703125,-5.432128429412842,11.413573265075684,-2.1444091796875,0.749267578125,0.2171630859375
3.081,297,1462,535,310,-8.0,39.0,49.0,-123.41307830810547,5.432128429412842,28.747556686401367,-1.5718994140625,0.40283203125,0.442138671875
3.093,310,1349,516,308,-8.0,39.0,49.0,-93.81102752685547,18.98193359375,40.344234466552734,-0.958984375,0.0455322265625,0.533203125
3.101,309,1255,490,310,-8.0,39.0,49.0,-45.349117279052734,31.433103561401367,39.85595703125,-0.482666015625,-0.188720703125,0.3577880859375
3.112,310,1149,466,310,-8.0,39.0,49.0,9.1552734375,39.4287109375,30.029294967651367,-0.18896484375,-0.1690673828125,0.0377197265625
3.123,310,953,399,308,-8.0,39.0,49.0,52.001949310302734,44.006343841552734,19.22607421875,-0.0869140625,0.0574951171875,-0.285400390625
3.131,310,861,396,310,-8.0,39.0,49.0,69.27490234375,48.461910247802734,12.573241233825684,-0.1544189453125,0.2794189453125,-0.5247802734375
3.139,310,796,396,308,-8.0,39.0,49.0,59.570308685302734,51.208492279052734,9.521484375,-0.2728271484375,0.431640625,-0.5714111328125
3.153,309,689,399,310,-8.0,39.0,49.0,31.860349655151367,46.630855560302734,7.568358898162842,-0.3370361328125,0.572265625,-0.38818359375
3.174,309,660,408,310,-8.0,39.0,49.0,-0.8544921278953552,33.69140625,5.249022960662842,-0.3609619140625,0.7149658203125,-0.1639404296875
3.174,296,638,411,310,-8.0,40.0,39.0,-28.686521530151367,18.12744140625,2.807616949081421,-0.4276123046875,0.7861328125,-0.0552978515625
3.184,310,557,414,309,-8.0,40.0,39.0,-49.316402435302734,2.868652105331421,-0.4882812201976776,-0.58935546875,0.7415771484375,-0.0152587890625
3.191,308,518,411,310,-8.0,40.0,39.0,-62.622066497802734,-11.291502952575684,-7.202147960662842,-0.72021484375,0.6126708984375,0.02587890625
3.199,310,478,415,310,-8.0,40.0,39.0,-68.115234375,-19.1650390625,-17.9443359375,-0.7239990234375,0.424560546875,0.0814208984375
3.220,312,420,414,310,-8.0,40.0,39.0,-64.453125,-17.88330078125,-28.259275436401367,-0.705078125,0.25439453125,0.1387939453125
3.221,310,396,414,310,-8.0,40.0,39.0,-51.818843841552734,-12.878417015075684,-31.860349655151367,-0.730712890625,0.1927490234375,0.177734375
3.229,310,377,413,307,-8.0,40.0,39.0,-35.64453125,-10.742186546325684,-26.916501998901367,-0.778076171875,0.2159423828125,0.18408203125
3.243,308,371,411,309,-8.0,40.0,39.0,-21.057126998901367,-12.390135765075684,-17.27294921875,-0.8131103515625,0.245849609375,0.1649169921875
3.278,310,369,410,310,-8.0,40.0,39.0,-7.995604991912842,-14.892577171325684,-7.690429210662842,-0.8203125,0.226806640625,0.14208984375
3.279,310,369,408,309,-8.0,40.0,39.0,5.798339366912842,-15.014647483825684,-1.4648436307907104,-0.8173828125,0.204833984375,0.10986328125
3.279,309,372,408,310,-10.0,40.0,41.0,21.240232467651367,-12.145995140075684,1.8920897245407104,-0.7939453125,0.24560546875,0.059326171875
3.281,298,377,407,310,-10.0,40.0,41.0,34.1796875,-8.60595703125,5.859374523162842,-0.754638671875,0.3201904296875,0.030029296875
3.289,310,379,407,310,-10.0,40.0,41.0,39.97802734375,-6.225585460662842,10.620116233825684,-0.7169189453125,0.398193359375,0.0447998046875
3.303,309,384,408,310,-10.0,40.0,41.0,37.29248046875,-5.371093273162842,15.014647483825684,-0.669677734375,0.4478759765625,0.072265625
3.311,310,385,408,310,-10.0,40.0,41.0,27.343748092651367,-5.981444835662842,18.4326171875,-0.6214599609375,0.4417724609375,0.093017578125
3.320,309,415,410,310,-10.0,40.0,41.0,14.404295921325684,-7.934569835662842,20.324705123901367,-0.5679931640625,0.3857421875,0.1119384765625
3.333,308,552,413,309,-10.0,40.0,41.0,3.601073980331421,-10.253905296325684,20.263669967651367,-0.4398193359375,0.2547607421875,0.1251220703125
3.341,309,673,408,310,-10.0,40.0,41.0,-2.746581792831421,-12.390135765075684,18.4326171875,-0.4398193359375,0.2547607421875,0.1251220703125
3.349,312,796,411,309,-10.0,40.0,41.0,-4.08935546875,-14.404295921325684,16.78466796875,-0.3359375,0.279541015625,0.185302734375
3.376,310,998,447,310,-7.0,41.0,46.0,0.30517578125,-14.831542015075684,14.465331077575684,0.1866455078125,0.246826171875,0.3768310546875
3.380,310,1143,481,309,-7.0,41.0,46.0,8.6669921875,-14.465331077575684,6.835937023162842,0.1866455078125,0.246826171875,0.3768310546875
3.401,309,1306,513,308,-7.0,41.0,46.0,15.563963890075684,-19.10400390625,-9.46044921875,0.5836181640625,-0.06640625,0.4678955078125
3.402,308,1511,537,309,-7.0,41.0,46.0,17.9443359375,-34.423828125,-36.07177734375,0.379150390625,-0.6514892578125,0.449951171875
3.402,309,1578,543,309,-7.0,41.0,46.0,29.174802780151367,-57.800289154052734,-67.0166015625,0.379150390625,-0.6514892578125,0.449951171875
3.409,310,1619,539,312,-7.0,41.0,46.0,68.05419921875,-68.78662109375,-81.35985565185547,-0.50390625,-0.000732421875,-0.0362548828125
3.422,310,1694,580,310,-7.0,41.0,46.0,130.37109375,-46.142574310302734,-61.340328216552734,-2.310302734375,2.186767578125,-1.0819091796875
3.431,309,1721,594,310,-7.0,41.0,46.0,166.87010192871094,-6.042479991912842,-28.015134811401367,-2.310302734375,2.186767578125,-1.0819091796875
3.439,310,1744,594,310,-7.0,41.0,46.0,120.78856658935547,7.629394054412842,-21.606443405151367,-2.2982177734375,1.896728515625,-0.595703125
3.452,310,1778,599,308,-7.0,41.0,46.0,28.869626998901367,-13.244627952575684,-40.893550872802734,-2.0023193359375,0.375,0.3975830078125
3.493,310,1782,594,310,-6.0,37.0,45.0,-11.779784202575684,-33.14208984375,-52.001949310302734,-2.0023193359375,0.375,0.3975830078125
3.494,310,1763,585,311,-6.0,37.0,45.0,18.5546875,-31.677244186401367,-42.114253997802734,-2.2230224609375,0.421630859375,0.2484130859375
3.494,311,1732,566,308,-6.0,37.0,45.0,82.64159393310547,1.03759765625,-17.63916015625,-1.5030517578125,0.4013671875,-0.1905517578125
3.495,310,1727,594,310,-6.0,37.0,45.0,82.64159393310547,1.03759765625,-17.63916015625,-1.0716552734375,0.535400390625,-0.4404296875
3.499,310,1742,592,310,-6.0,37.0,45.0,71.8994140625,19.8974609375,-18.6767578125,-1.0716552734375,0.535400390625,-0.4404296875
3.513,309,1732,593,310,-6.0,37.0,45.0,-43.762203216552734,13.977049827575684,-18.4326171875,-1.890625,1.0445556640625,-0.3963623046875
3.524,310,1708,590,310,-6.0,37.0,45.0,-43.762203216552734,13.977049827575684,-18.4326171875,-2.4012451171875,0.9761962890625,-0.1318359375
3.530,310,1676,588,311,-6.0,37.0,45.0,-119.93407440185547,-0.3662109076976776,-4.45556640625,-2.4012451171875,0.9761962890625,-0.1318359375
3.543,309,1578,566,310,-6.0,37.0,45.0,-182.67820739746094,4.39453125,56.213375091552734,-1.9822998046875,0.3856201171875,0.5262451171875
3.551,310,1490,547,309,-6.0,37.0,45.0,-182.67820739746094,4.39453125,56.213375091552734,-1.3194580078125,0.0943603515625,0.7593994140625
3.563,311,1422,535,310,-6.0,37.0,45.0,-158.87451171875,20.263669967651367,84.22850799560547,-1.3194580078125,0.0943603515625,0.7593994140625
3.587,310,1250,488,310,-10.0,39.0,40.0,-31.555173873901367,50.354000091552734,81.42089080810547,-0.2412109375,-0.2933349609375,0.36767578125
3.599,310,1129,454,308,-10.0,39.0,40.0,-31.555173873901367,50.354000091552734,81.42089080810547,0.0809326171875,-0.26318359375,-0.0421142578125
3.602,310,1009,408,310,-10.0,39.0,40.0,42.114253997802734,58.715816497802734,53.588863372802734,0.0809326171875,-0.26318359375,-0.0421142578125
3.607,297,828,399,310,-10.0,39.0,40.0,106.75048065185547,68.29833984375,8.60595703125,0.046875,0.1832275390625,-0.561279296875
3.622,310,770,393,310,-10.0,39.0,40.0,88.13475799560547,67.87109375,4.5166015625,-0.1593017578125,0.4990234375,-0.5244140625
3.631,309,739,391,309,-10.0,39.0,40.0,88.13475799560547,67.87109375,4.5166015625,-0.341552734375,0.8192138671875,-0.369873046875
3.644,310,725,395,310,-10.0,39.0,40.0,-2.197265625,42.663570404052734,9.3994140625,-0.5159912109375,1.0260009765625,-0.23095703125
3.652,310,725,410,309,-10.0,39.0,40.0,-46.508785247802734,25.207517623901367,6.835937023162842,-0.73046875,1.0201416015625,-0.135498046875
3.666,310,707,410,309,-10.0,39.0,40.0,-46.508785247802734,25.207517623901367,6.835937023162842,-0.9248046875,0.8577880859375,-0.077880859375
3.690,310,634,407,310,-8.0,41.0,44.0,-91.43065643310547,4.5166015625,-6.408690929412842,-0.9791259765625,0.6593017578125,-0.0648193359375
3.693,310,612,413,309,-8.0,41.0,44.0,-97.47313690185547,6.469726085662842,-14.038084983825684,-0.8529052734375,0.4381103515625,-0.0452880859375
3.704,308,572,414,310,-8.0,41.0,44.0,-97.47313690185547,6.469726085662842,-14.038084983825684,-0.6944580078125,0.1983642578125,0.0562744140625
3.708,310,543,415,287,-8.0,41.0,44.0,-88.62303924560547,8.9111328125,-18.1884765625,-0.644775390625,0.04833984375,0.1995849609375
3.711,310,518,415,310,-8.0,41.0,44.0,-64.63623046875,4.69970703125,-12.329100608825684,-0.689453125,0.0482177734375,0.2926025390625
3.714,296,493,418,307,-8.0,41.0,44.0,-32.5927734375,0.54931640625,-6.103515148162842,-0.7568359375,0.1531982421875,0.3016357421875
3.721,308,477,419,309,-8.0,41.0,44.0,-32.5927734375,0.54931640625,-6.103515148162842,-0.7928466796875,0.2816162109375,0.2373046875
3.733,310,430,414,310,-8.0,41.0,44.0,15.258788108825684,-5.126952648162842,1.7089842557907104,-0.8226318359375,0.38134765625,0.1279296875
3.743,309,419,411,310,-8.0,41.0,44.0,24.902341842651367,-5.432128429412842,5.0048828125,-0.8480224609375,0.441162109375,0.0201416015625
3.749,308,402,408,309,-8.0,41.0,44.0,24.902341842651367,-5.432128429412842,5.0048828125,-0.853271484375,0.4754638671875,-0.0498046875
3.788,310,394,402,309,-8.0,40.0,42.0,31.372068405151367,-1.7700194120407104,9.3994140625,-0.8419189453125,0.4990234375,-0.08349609375
3.810,308,394,402,310,-8.0,40.0,42.0,28.442380905151367,-0.1831054538488388,11.962889671325684,-0.809814453125,0.5006103515625,-0.087158203125
3.816,310,396,402,308,-8.0,40.0,42.0,20.324705123901367,0.2441406100988388,14.953612327575684,-0.7501220703125,0.453369140625,-0.05908203125
3.817,309,435,399,296,-8.0,40.0,42.0,9.6435546875,-0.1220703050494194,16.9677734375,-0.677490234375,0.360107421875,-0.0142822265625
3.823,310,463,399,310,-8.0,40.0,42.0,0.7324218153953552,-0.7934569716453552,17.7001953125,-0.62646484375,0.277587890625,0.021240234375
3.827,310,488,396,309,-8.0,40.0,42.0,-3.356933355331421,-1.8920897245407104,18.6767578125,-0.6005859375,0.25732421875,0.0335693359375
3.833,310,588,382,308,-8.0,40.0,42.0,-2.746581792831421,-3.112792730331421,20.874021530151367,-0.5615234375,0.2952880859375,0.049560546875
3.833,310,689,380,309,-8.0,40.0,42.0,0.30517578125,-3.723144292831421,23.437498092651367,-0.4537353515625,0.3243408203125,0.102783203125
3.840,310,793,386,310,-8.0,40.0,42.0,3.234863042831421,-3.906249761581421,23.620603561401367,-0.28173828125,0.2806396484375,0.1962890625
3.853,309,960,428,310,-8.0,40.0,42.0,7.019042491912842,-5.859374523162842,20.202634811401367,0.0057373046875,0.1484375,0.323486328125
3.861,310,1116,465,309,-10.0,41.0,42.0,16.41845703125,-12.207030296325684,11.291502952575684,0.45166015625,-0.101318359375,0.458740234375
3.870,310,1300,504,309,-10.0,41.0,42.0,26.062009811401367,-28.381345748901367,-8.30078125,0.79150390625,-0.426025390625,0.54296875
3.892,310,1523,529,308,-10.0,41.0,42.0,29.968259811401367,-54.870601654052734,-39.4287109375,0.7093505859375,-0.512451171875,0.5064697265625
3.892,310,1591,536,310,-10.0,41.0,42.0,39.6728515625,-75.68359375,-71.47216796875,0.0205078125,-0.085693359375,0.1524658203125
3.901,308,1634,543,310,-10.0,41.0,42.0,73.42529296875,-64.51416015625,-81.66503143310547,-1.1351318359375,0.8118896484375,-0.5911865234375
3.919,310,1695,566,310,-10.0,41.0,42.0,125.48827362060547,-20.324705123901367,-59.265132904052734,-2.102294921875,1.8314208984375,-1.1239013671875
3.921,310,1732,587,310,-10.0,41.0,42.0,132.99560546875,12.145995140075684,-37.17041015625,-2.350341796875,2.162353515625,-0.8985595703125
3.932,310,1750,593,310,-10.0,41.0,42.0,52.429195404052734,-0.54931640625,-46.630855560302734,-2.1317138671875,1.4622802734375,-0.1832275390625
3.943,310,1785,592,309,-10.0,41.0,42.0,-40.161128997802734,-31.249998092651367,-65.61279296875,-2.024169921875,0.597900390625,0.3427734375
3.952,311,1774,578,310,-10.0,41.0,42.0,-51.940914154052734,-40.405269622802734,-62.561031341552734,-2.208251953125,0.26904296875,0.42822265625
3.959,310,1743,561,308,-7.0,41.0,42.0,0.0610351525247097,-27.587888717651367,-40.222164154052734,-2.2392578125,0.20361328125,0.265869140625
3.972,310,1695,551,308,-7.0,41.0,42.0,56.213375091552734,-6.591796398162842,-19.4091796875,-1.6680908203125,0.09814453125,-0.0244140625
3.995,310,1708,557,310,-7.0,41.0,42.0,94.23827362060547,17.02880859375,-9.58251953125,-1.0836181640625,0.3140869140625,-0.4112548828125
3.995,310,1718,561,298,-7.0,41.0,42.0,93.07860565185547,29.113767623901367,-7.080077648162842,-1.1512451171875,0.8729248046875,-0.701171875
4.003,310,1695,554,310,-7.0,41.0,42.0,30.517576217651367,17.39501953125,-7.934569835662842,-1.7156982421875,1.21923828125,-0.65576171875
4.011,310,1662,551,308,-7.0,41.0,42.0,-66.46728515625,-5.981444835662842,-5.249022960662842,-2.293701171875,1.17138671875,-0.365234375
4.027,309,1615,552,310,-7.0,41.0,42.0,-143.798828125,-19.6533203125,9.765625,-2.469970703125,0.8988037109375,-0.018310546875
4.038,310,1504,547,309,-7.0,41.0,42.0,-173.95018005371094,-16.17431640625,36.43798828125,-2.1572265625,0.5731201171875,0.32373046875
4.042,310,1428,530,308,-7.0,41.0,42.0,-161.49900817871094,-2.44140625,64.02587890625,-1.519287109375,0.26708984375,0.6007080078125
4.049,309,1346,513,308,-7.0,41.0,42.0,-116.63817596435547,11.779784202575684,77.45361328125,-0.86865234375,-0.01025390625,0.6219482421875
4.064,307,1185,490,310,-8.0,40.0,42.0,-49.316402435302734,20.996091842651367,68.84765625,-0.404052734375,-0.2420654296875,0.3681640625
4.075,309,1081,463,309,-8.0,40.0,42.0,23.132322311401367,25.756834030151367,44.677730560302734,-0.147705078125,-0.259033203125,-0.027587890625
4.098,310,973,435,309,-8.0,40.0,42.0,79.1015625,30.761716842651367,19.71435546875,-0.1229248046875,-0.0321044921875,-0.4173583984375
4.098,310,826,408,309,-8.0,40.0,42.0,99.67040252685547,37.53662109375,4.45556640625,-0.3978271484375,0.5218505859375,-0.5552978515625
4.101,308,725,406,310,-8.0,40.0,42.0,82.33641815185547,43.701168060302734,0.54931640625,-0.3978271484375,0.5218505859375,-0.5552978515625
4.110,310,636,402,308,-8.0,40.0,42.0,40.893550872802734,46.020503997802734,2.50244140625,-0.4237060546875,0.6793212890625,-0.333251953125
4.127,310,519,402,308,-8.0,40.0,42.0,-5.126952648162842,45.104976654052734,4.57763671875,-0.31494140625,0.762451171875,0.0885009765625
4.142,310,472,408,310,-8.0,40.0,42.0,-44.128414154052734,40.954586029052734,4.94384765625,-0.31494140625,0.762451171875,0.0885009765625
4.144,294,431,391,323,-8.0,40.0,42.0,-74.951171875,30.700681686401367,2.0751953125,-0.3638916015625,0.57373046875,0.282958984375
4.153,310,396,411,308,-8.0,40.0,42.0,-91.36962127685547,18.310546875,-4.94384765625,-0.712646484375,0.21826171875,0.3275146484375
4.161,310,387,410,308,-7.0,40.0,43.0,-83.49608612060547,11.962889671325684,-12.451170921325684,-0.712646484375,0.21826171875,0.3275146484375
4.169,309,382,410,310,-7.0,40.0,43.0,-56.091304779052734,13.244627952575684,-16.845703125,-0.8424072265625,0.2584228515625,0.154541015625
4.200,309,369,407,310,-7.0,40.0,43.0,-27.770994186401367,15.869139671325684,-17.63916015625,-0.875732421875,0.4190673828125,-0.0032958984375
4.200,308,367,382,308,-7.0,40.0,43.0,-12.817381858825684,13.916014671325684,-14.831542015075684,-0.875732421875,0.4190673828125,-0.0032958984375
4.201,309,361,401,289,-7.0,40.0,43.0,-9.94873046875,8.6669921875,-9.8876953125,-0.8671875,0.416748046875,0.02099609375
4.213,308,364,401,310,-7.0,40.0,43.0,-9.033203125,3.906249761581421,-5.737304210662842,-0.8228759765625,0.34375,0.0257568359375
4.221,308,368,396,308,-7.0,40.0,43.0,-3.784179449081421,0.3662109076976776,-3.356933355331421,-0.8228759765625,0.34375,0.0257568359375
4.233,309,371,394,309,-7.0,40.0,43.0,4.5166015625,-2.50244140625,-1.6479490995407104,-0.7685546875,0.299560546875,0.0137939453125
4.250,309,378,396,308,-7.0,40.0,43.0,21.667478561401367,-6.774901866912842,6.408690929412842,-0.705322265625,0.2694091796875,0.0108642578125
4.251,308,373,395,313,-7.0,40.0,43.0,21.667478561401367,-6.774901866912842,6.408690929412842,-0.6895751953125,0.3001708984375,0.0115966796875
4.259,309,372,396,310,-6.0,41.0,43.0,28.625486373901367,-7.263183116912842,13.244627952575684,-0.6895751953125,0.3001708984375,0.0115966796875
4.301,310,371,396,310,-6.0,41.0,43.0,33.38623046875,-6.652831554412842,23.620603561401367,-0.6336669921875,0.3145751953125,-0.0015869140625
4.302,310,373,401,310,-6.0,41.0,43.0,33.38623046875,-6.652831554412842,23.620603561401367,-0.5640869140625,0.272216796875,-0.000244140625
4.302,308,419,402,310,-6.0,41.0,43.0,28.320310592651367,-7.568358898162842,24.230955123901367,-0.5640869140625,0.272216796875,-0.000244140625
4.303,310,558,393,308,-6.0,41.0,43.0,8.72802734375,-13.610838890075684,22.094724655151367,-0.3936767578125,0.157470703125,0.0308837890625
4.311,310,689,383,309,-6.0,41.0,43.0,8.72802734375,-13.610838890075684,22.094724655151367,-0.351318359375,0.2342529296875,0.140869140625
4.319,310,805,384,310,-6.0,41.0,43.0,4.45556640625,-18.4326171875,25.512693405151367,-0.351318359375,0.2342529296875,0.140869140625
4.347,310,995,420,308,-6.0,41.0,43.0,29.052732467651367,-20.507810592651367,27.099607467651367,0.236083984375,0.2406005859375,0.572509765625
4.349,310,1199,463,308,-6.0,41.0,43.0,29.052732467651367,-20.507810592651367,27.099607467651367,0.7103271484375,-0.2442626953125,0.82470703125
4.351,309,1395,493,298,-6.0,41.0,43.0,46.508785247802734,-27.160642623901367,3.112792730331421,0.7103271484375,-0.2442626953125,0.82470703125
4.366,310,1585,513,310,-8.0,40.0,44.0,81.05467987060547,-66.71142578125,-77.57568359375,0.05419921875,-0.33984375,0.1014404296875
4.374,310,1618,513,310,-8.0,40.0,44.0,86.24266815185547,-70.73974609375,-90.39305877685547,-1.0999755859375,0.6939697265625,-0.8126220703125
4.384,309,1640,535,308,-8.0,40.0,44.0,86.24266815185547,-70.73974609375,-90.39305877685547,-2.1307373046875,1.747314453125,-1.5279541015625
4.404,310,1704,562,310,-8.0,40.0,44.0,88.31786346435547,-2.197265625,-25.207517623901367,-2.3720703125,2.1181640625,-1.29833984375
4.405,310,1742,580,308,-8.0,40.0,44.0,40.10009765625,-0.2441406100988388,-23.376462936401367,-2.0072021484375,1.595458984375,-0.3214111328125
4.410,310,1761,586,310,-8.0,40.0,44.0,40.10009765625,-0.2441406100988388,-23.376462936401367,-1.7276611328125,0.7445068359375,0.50244140625
4.424,310,1785,587,310,-8.0,40.0,44.0,-66.34521484375,-49.133296966552734,-59.997554779052734,-1.86767578125,0.350830078125,0.621826171875
4.432,308,1782,574,309,-8.0,40.0,44.0,-24.230955123901367,-39.4287109375,-54.138179779052734,-2.1241455078125,0.4395751953125,0.346435546875
4.450,310,1757,555,310,-8.0,40.0,44.0,-24.230955123901367,-39.4287109375,-54.138179779052734,-1.966796875,0.4173583984375,0.0926513671875
4.454,310,1730,547,310,-8.0,40.0,48.0,63.781734466552734,2.197265625,-39.73388671875,-1.3843994140625,0.2840576171875,-0.153564453125
4.463,310,1735,557,307,-8.0,40.0,48.0,70.12939453125,18.798828125,-40.0390625,-1.0433349609375,0.4456787109375,-0.40625
4.475,310,1741,558,310,-8.0,40.0,48.0,43.640132904052734,20.996091842651367,-38.02490234375,-1.29296875,0.810302734375,-0.5498046875
4.484,310,1718,568,310,-8.0,40.0,48.0,-17.4560546875,7.019042491912842,-33.447265625,-1.832763671875,0.986572265625,-0.447998046875
4.510,309,1689,566,310,-8.0,40.0,48.0,-86.42577362060547,-10.192870140075684,-25.207517623901367,-2.201416015625,0.8826904296875,-0.207763671875
4.510,309,1648,561,310,-8.0,40.0,48.0,-130.43212890625,-17.822265625,-10.986327171325684,-2.2373046875,0.6583251953125,0.005859375
4.515,310,1559,552,310,-8.0,40.0,48.0,-139.16015625,-13.732909202575684,9.033203125,-2.0157470703125,0.44775390625,0.1597900390625
4.522,311,1483,545,308,-8.0,40.0,48.0,-125.97655487060547,-3.295898199081421,32.04345703125,-1.6187744140625,0.259521484375,0.29833984375
4.530,309,1415,540,308,-8.0,40.0,48.0,-103.33251190185547,9.82666015625,52.246089935302734,-1.1502685546875,0.0472412109375,0.3822021484375
4.556,310,1260,513,310,-8.0,40.0,48.0,-71.8994140625,23.742673873901367,63.537593841552734,-0.71484375,-0.18115234375,0.358154296875
4.558,309,1157,486,310,-8.0,40.0,48.0,-28.747556686401367,34.97314453125,63.110347747802734,-0.341796875,-0.310302734375,0.2020263671875
4.562,308,1035,451,308,-6.0,40.0,45.0,21.484373092651367,43.212886810302734,53.405757904052734,-0.0740966796875,-0.2550048828125,-0.0716552734375
4.576,308,861,414,310,-6.0,40.0,45.0,61.401363372802734,49.194332122802734,40.527339935302734,0.028076171875,-0.0716552734375,-0.3333740234375
4.610,309,756,407,309,-6.0,40.0,45.0,77.2705078125,52.429195404052734,29.357908248901367,-0.03955078125,0.1712646484375,-0.422607421875
4.614,310,676,409,308,-6.0,40.0,45.0,68.7255859375,50.170894622802734,21.667478561401367,-0.1385498046875,0.4891357421875,-0.302978515625
4.620,308,585,414,294,-6.0,40.0,45.0,42.541500091552734,41.259761810302734,18.310546875,-0.210205078125,0.806884765625,-0.11865234375
4.620,308,562,418,309,-6.0,40.0,45.0,5.798339366912842,27.832029342651367,17.4560546875,-0.396728515625,0.9542236328125,0.04345703125
4.624,308,537,415,309,-6.0,40.0,45.0,-30.151365280151367,12.390135765075684,13.244627952575684,-0.67041015625,0.8961181640625,0.1632080078125
4.629,310,509,420,309,-6.0,40.0,45.0,-50.598140716552734,2.13623046875,1.4648436307907104,-0.8294677734375,0.714599609375,0.1971435546875
4.643,310,453,419,308,-6.0,40.0,45.0,-53.771968841552734,3.784179449081421,-15.930174827575684,-0.837890625,0.5035400390625,0.1490478515625
4.652,308,423,415,310,-6.0,40.0,45.0,-49.926753997802734,14.160155296325684,-31.005857467651367,-0.830810546875,0.359375,0.078369140625
4.660,308,401,415,310,-9.0,39.0,44.0,-47.607418060302734,22.094724655151367,-36.0107421875,-0.8236083984375,0.2999267578125,0.046630859375
4.673,308,382,415,308,-9.0,39.0,44.0,-46.936031341552734,21.789548873901367,-30.883787155151367,-0.8060302734375,0.253662109375,0.0550537109375
4.681,310,379,411,310,-9.0,39.0,44.0,-42.968746185302734,16.54052734375,-20.751951217651367,-0.8145751953125,0.204345703125,0.0811767578125
4.689,310,369,408,310,-9.0,39.0,44.0,-32.3486328125,11.169432640075684,-10.009765625,-0.8287353515625,0.1771240234375,0.1107177734375
4.709,309,363,406,308,-9.0,39.0,44.0,-16.2353515625,7.690429210662842,-0.6713866591453552,-0.8399658203125,0.1812744140625,0.1251220703125
4.711,309,363,401,310,-9.0,39.0,44.0,1.6479490995407104,5.859374523162842,7.446288585662842,-0.8192138671875,0.2010498046875,0.0946044921875
4.720,309,367,402,309,-9.0,39.0,44.0,17.2119140625,5.432128429412842,14.221190452575684,-0.759765625,0.2115478515625,0.0228271484375
4.733,308,369,396,310,-9.0,39.0,44.0,27.526853561401367,6.286620616912842,18.73779296875,-0.7166748046875,0.2408447265625,-0.0430908203125
4.741,308,370,396,310,-9.0,39.0,44.0,31.005857467651367,7.324218273162842,22.460935592651367,-0.711181640625,0.318603515625,-0.064697265625
4.751,309,369,394,308,-9.0,39.0,44.0,27.038572311401367,7.568358898162842,26.550291061401367,-0.7244873046875,0.391845703125,-0.0322265625
4.766,308,398,394,308,-6.0,43.0,39.0,18.24951171875,7.263183116912842,29.846189498901367,-0.7197265625,0.4056396484375,0.0189208984375
4.771,308,439,390,309,-6.0,43.0,39.0,10.559081077575684,7.080077648162842,31.188962936401367,-0.6763916015625,0.3577880859375,0.0328369140625
4.779,309,506,390,308,-6.0,43.0,39.0,5.981444835662842,6.652831554412842,30.883787155151367,-0.6080322265625,0.2861328125,0.00439453125
4.793,310,662,381,310,-6.0,43.0,39.0,1.5258787870407104,4.7607421875,30.578611373901367,-0.5146484375,0.2496337890625,0.009033203125
4.814,308,764,384,310,-6.0,43.0,39.0,-3.173827886581421,1.6479490995407104,30.822751998901367,-0.36767578125,0.2523193359375,0.10791015625
4.815,310,864,396,310,-6.0,43.0,39.0,-3.906249761581421,-1.7700194120407104,28.808591842651367,-0.1539306640625,0.2237548828125,0.2886962890625
4.823,308,1166,453,308,-6.0,43.0,39.0,6.530761241912842,-7.263183116912842,19.83642578125,0.220947265625,0.055908203125,0.4638671875
4.831,309,1351,493,310,-6.0,43.0,39.0,29.724119186401367,-19.287109375,-1.15966796875,0.6309814453125,-0.2945556640625,0.4962158203125
4.839,309,1499,519,308,-6.0,43.0,39.0,47.119136810302734,-42.968746185302734,-33.02001953125,0.6494140625,-0.536865234375,0.3541259765625
4.856,310,1613,523,308,-8.0,40.0,41.0,43.518062591552734,-71.59423828125,-61.767574310302734,-0.875244140625,0.594970703125,-0.323486328125
4.861,310,1634,527,309,-8.0,40.0,41.0,44.067378997802734,-80.38329315185547,-70.1904296875,-0.875244140625,0.594970703125,-0.323486328125
4.873,310,1674,547,309,-8.0,40.0,41.0,79.77294921875,-47.729488372802734,-48.461910247802734,-1.8369140625,1.5369873046875,-1.0472412109375
4.884,310,1734,577,310,-8.0,40.0,41.0,114.25780487060547,0.1220703050494194,-19.10400390625,-2.0733642578125,1.6868896484375,-0.47705078125
4.894,310,1761,587,309,-8.0,40.0,41.0,77.1484375,10.131834983825684,-20.507810592651367,-2.0733642578125,1.6868896484375,-0.47705078125
4.913,310,1782,594,309,-8.0,40.0,41.0,-16.357421875,-20.01953125,-45.776363372802734,-1.833984375,0.799072265625,0.3336181640625
4.913,310,1782,583,310,-8.0,40.0,41.0,-65.91796875,-44.128414154052734,-59.875484466552734,-2.290771484375,0.323486328125,0.2139892578125
4.926,310,1757,562,310,-8.0,40.0,41.0,-28.991697311401367,-36.92626953125,-50.476070404052734,-2.290771484375,0.323486328125,0.2139892578125
4.929,310,1738,551,310,-8.0,40.0,41.0,33.447265625,-15.686034202575684,-31.494138717651367,-2.05322265625,0.280517578125,-0.0889892578125
4.943,310,1743,558,310,-8.0,40.0,41.0,69.2138671875,4.69970703125,-17.9443359375,-1.0079345703125,0.4176025390625,-0.3704833984375
4.956,310,1741,564,310,-5.0,40.0,42.0,75.50048828125,20.324705123901367,-9.3994140625,-1.0079345703125,0.4176025390625,-0.3704833984375
4.960,310,1725,566,310,-5.0,40.0,42.0,45.043941497802734,22.277830123901367,-2.990722417831421,-1.373046875,0.8621826171875,-0.3756103515625
4.979,309,1682,557,308,-5.0,40.0,42.0,-19.775390625,13.366698265075684,2.25830078125,-2.2208251953125,0.852783203125,-0.1282958984375
4.981,294,1595,543,310,-5.0,40.0,42.0,-84.96092987060547,7.324218273162842,11.413573265075684,-2.2208251953125,0.852783203125,-0.1282958984375
4.989,310,1569,548,310,-5.0,40.0,42.0,-123.90135955810547,10.803221702575684,27.709959030151367,-2.17578125,0.6583251953125,0.0150146484375
5.016,312,1450,537,309,-5.0,40.0,42.0,-124.38964080810547,32.1044921875,64.5751953125,-1.288330078125,0.294921875,0.2939453125
5.016,310,1393,525,310,-5.0,40.0,42.0,-124.38964080810547,32.1044921875,64.5751953125,-0.7061767578125,0.00146484375,0.282470703125
5.019,310,1308,509,310,-5.0,40.0,42.0,-94.48241424560547,40.222164154052734,66.46728515625,-0.7061767578125,0.00146484375,0.282470703125
5.038,309,1157,456,310,-5.0,40.0,42.0,18.00537109375,38.02490234375,28.198240280151367,0.0908203125,-0.2960205078125,-0.0208740234375
5.041,309,1051,430,309,-5.0,40.0,42.0,18.00537109375,38.02490234375,28.198240280151367,0.065673828125,-0.0390625,-0.2574462890625
5.049,309,966,408,308,-5.0,40.0,42.0,75.68359375,35.33935546875,9.94873046875,0.065673828125,-0.0390625,-0.2574462890625
5.064,310,878,409,310,-7.0,40.0,42.0,88.19579315185547,31.311033248901367,3.601073980331421,-0.4515380859375,0.69091796875,-0.453369140625
5.072,310,858,413,310,-7.0,40.0,42.0,88.19579315185547,31.311033248901367,3.601073980331421,-0.634521484375,0.9320068359375,-0.388671875
5.086,310,854,415,310,-7.0,40.0,42.0,45.593257904052734,25.695798873901367,5.371093273162842,-0.634521484375,0.9320068359375,-0.388671875
5.099,309,823,423,310,-7.0,40.0,42.0,-57.617183685302734,10.253905296325684,-3.417968511581421,-0.8291015625,0.87744140625,-0.137451171875
5.101,298,782,427,310,-7.0,40.0,42.0,-57.617183685302734,10.253905296325684,-3.417968511581421,-0.8189697265625,0.6517333984375,-0.0184326171875
5.120,310,729,426,310,-7.0,40.0,42.0,-85.81542205810547,5.615233898162842,-10.681151390075684,-0.8189697265625,0.6517333984375,-0.0184326171875
5.123,310,659,428,310,-7.0,40.0,42.0,-92.10204315185547,9.3994140625,-26.123044967651367,-0.647705078125,0.166259765625,0.1275634765625
5.131,310,621,430,308,-7.0,40.0,42.0,-92.10204315185547,9.3994140625,-26.123044967651367,-0.6297607421875,0.0264892578125,0.233154296875
5.140,309,594,430,310,-7.0,40.0,42.0,-77.5146484375,8.85009765625,-27.221677780151367,-0.6923828125,0.027587890625,0.2987060546875
5.153,310,547,426,308,-2.0,41.0,39.0,-28.564451217651367,-2.929687261581421,-14.160155296325684,-0.76416015625,0.1192626953125,0.2822265625
5.164,310,517,426,310,-2.0,41.0,39.0,-5.859374523162842,-7.385253429412842,-6.164550304412842,-0.811767578125,0.2247314453125,0.2073974609375
5.171,310,495,420,310,-2.0,41.0,39.0,-5.859374523162842,-7.385253429412842,-6.164550304412842,-0.837158203125,0.319091796875,0.106689453125
5.184,310,451,419,309,-2.0,41.0,39.0,25.268552780151367,-7.629394054412842,6.835937023162842,-0.8489990234375,0.3961181640625,0.0208740234375
5.192,310,437,414,309,-2.0,41.0,39.0,33.26416015625,-5.432128429412842,11.230467796325684,-0.85693359375,0.43994140625,-0.0225830078125
5.201,310,428,411,309,-2.0,41.0,39.0,33.26416015625,-5.432128429412842,11.230467796325684,-0.856201171875,0.447509765625,-0.0244140625
5.221,309,423,407,310,-2.0,41.0,39.0,35.2783203125,-1.3427733182907104,13.977049827575684,-0.8387451171875,0.4373779296875,-0.0194091796875
5.223,308,408,401,296,-2.0,41.0,39.0,32.04345703125,0.0610351525247097,14.465331077575684,-0.817138671875,0.422119140625,-0.0413818359375
5.233,309,428,396,309,-2.0,41.0,39.0,28.747556686401367,0.8544921278953552,15.441893577575684,-0.7989501953125,0.4046630859375,-0.08837890625
5.244,308,439,398,309,-2.0,41.0,39.0,24.536130905151367,0.7324218153953552,17.08984375,-0.7821044921875,0.3851318359375,-0.132568359375
5.252,309,468,396,310,-8.0,42.0,44.0,17.7001953125,-0.1831054538488388,19.1650390625,-0.74560546875,0.353759765625,-0.1337890625
5.271,310,508,396,308,-8.0,42.0,44.0,8.9111328125,-2.44140625,20.996091842651367,-0.67041015625,0.2974853515625,-0.079833984375
5.275,308,622,387,310,-8.0,42.0,44.0,0.9765624403953552,-6.103515148162842,22.033689498901367,-0.5615234375,0.226318359375,-0.0040283203125
5.282,310,728,387,308,-8.0,42.0,44.0,-2.624511480331421,-10.803221702575684,22.399900436401367,-0.403076171875,0.15869140625,0.067138671875
5.290,310,816,393,308,-8.0,42.0,44.0,-1.5258787870407104,-16.7236328125,22.094724655151367,-0.2257080078125,0.095703125,0.1265869140625
5.343,310,992,417,310,-8.0,42.0,44.0,3.906249761581421,-24.658201217651367,20.141599655151367,-0.0369873046875,0.0419921875,0.180419921875
5.346,309,1151,452,294,-8.0,42.0,44.0,14.587401390075684,-33.0810546875,12.634276390075684,0.23779296875,-0.001953125,0.27978515625
5.346,309,1338,485,310,-8.0,42.0,44.0,14.282225608825684,-44.860836029052734,-7.080077648162842,0.49853515625,-0.0146484375,0.42529296875
5.346,308,1582,545,310,-8.0,42.0,44.0,-8.72802734375,-61.645503997802734,-43.457027435302734,0.477783203125,0.01416015625,0.5029296875
5.346,309,1646,547,309,-8.0,42.0,44.0,-28.442380905151367,-72.57080078125,-85.08300018310547,0.0108642578125,0.0804443359375,0.3243408203125
5.351,310,1686,555,310,-6.0,39.0,46.0,-5.432128429412842,-60.424800872802734,-97.29003143310547,-0.732666015625,0.4296875,-0.142822265625
5.366,310,1750,587,309,-6.0,39.0,46.0,65.61279296875,-24.230955123901367,-66.7724609375,-1.4393310546875,1.1861572265625,-0.614013671875
5.376,310,1785,590,310,-6.0,39.0,46.0,114.74608612060547,4.82177734375,-34.24072265625,-1.8890380859375,1.7696533203125,-0.6827392578125
5.382,310,1798,608,309,-6.0,39.0,46.0,75.68359375,-2.0751953125,-36.62109375,-2.0316162109375,1.5494384765625,-0.257568359375
5.394,310,1834,620,310,-6.0,39.0,46.0,-6.347655773162842,-29.357908248901367,-57.556148529052734,-2.1031494140625,0.767578125,0.2298583984375
5.431,310,1840,620,310,-6.0,39.0,46.0,-36.0107421875,-39.48974609375,-64.51416015625,-2.331787109375,0.2593994140625,0.33251953125
5.431,309,1828,601,309,-6.0,39.0,46.0,1.2817381620407104,-26.550291061401367,-49.499507904052734,-2.508056640625,0.1552734375,0.158203125
5.432,310,1788,573,310,-6.0,39.0,46.0,50.659175872802734,-6.652831554412842,-26.306150436401367,-2.075927734375,0.005615234375,-0.061279296875
5.432,296,1773,566,312,-6.0,39.0,46.0,83.61815643310547,15.136717796325684,-7.690429210662842,-1.2716064453125,-0.0194091796875,-0.28271484375
5.441,311,1782,572,309,-6.0,39.0,46.0,92.65135955810547,31.982419967651367,5.065917491912842,-0.950927734375,0.4007568359375,-0.468505859375
5.449,310,1775,568,310,-5.0,38.0,42.0,53.588863372802734,30.700681686401367,10.559081077575684,-1.31689453125,0.909912109375,-0.5213623046875
5.463,310,1742,562,310,-5.0,38.0,42.0,-28.503416061401367,14.892577171325684,9.8876953125,-1.9586181640625,1.103271484375,-0.3956298828125
5.472,311,1695,566,310,-5.0,38.0,42.0,-108.70360565185547,1.5869139432907104,13.000487327575684,-2.3848876953125,0.983642578125,-0.1929931640625
5.479,310,1642,562,309,-5.0,38.0,42.0,-153.13720703125,0.4272460639476776,28.137205123901367,-2.3739013671875,0.6514892578125,0.0535888671875
5.493,310,1547,551,310,-5.0,38.0,42.0,-151.3671875,10.192870140075684,52.917476654052734,-1.97412109375,0.2862548828125,0.33154296875
5.501,308,1474,533,310,-5.0,38.0,42.0,-113.64745330810547,22.277830123901367,76.35498046875,-1.389892578125,0.0699462890625,0.46728515625
5.531,310,1395,527,310,-5.0,38.0,42.0,-60.729976654052734,30.090330123901367,86.91405487060547,-0.807861328125,-0.045166015625,0.379150390625
5.532,310,1204,484,310,-5.0,38.0,42.0,-10.559081077575684,33.203125,79.89501953125,-0.2969970703125,-0.1611328125,0.2518310546875
5.532,310,1129,452,308,-5.0,38.0,42.0,29.602048873901367,36.68212890625,58.410640716552734,0.0625,-0.16796875,0.1099853515625
5.539,309,1020,420,310,-5.0,38.0,42.0,57.189937591552734,46.020503997802734,31.372068405151367,0.169921875,0.0062255859375,-0.1016845703125
5.553,308,878,408,310,-8.0,41.0,43.0,66.0400390625,58.471675872802734,8.85009765625,0.0594482421875,0.2900390625,-0.2669677734375
5.561,310,820,408,310,-8.0,41.0,43.0,53.833003997802734,67.44384765625,-3.662109136581421,-0.14404296875,0.5806884765625,-0.29833984375
5.571,310,796,410,310,-8.0,41.0,43.0,25.695798873901367,68.4814453125,-7.507323741912842,-0.3387451171875,0.7904052734375,-0.239990234375
5.583,308,771,414,308,-8.0,41.0,43.0,-7.751464366912842,61.523433685302734,-7.568358898162842,-0.5382080078125,0.8968505859375,-0.1712646484375
5.592,308,749,415,310,-8.0,41.0,43.0,-36.68212890625,48.522945404052734,-7.263183116912842,-0.776123046875,0.89599609375,-0.1239013671875
5.602,309,685,411,310,-8.0,41.0,43.0,-57.434078216552734,34.72900390625,-7.995604991912842,-0.962158203125,0.792236328125,-0.12548828125
5.613,308,599,414,309,-8.0,41.0,43.0,-69.15283203125,26.733396530151367,-11.352538108825684,-0.872802734375,0.3565673828125,-0.164794921875
5.631,308,551,411,310,-8.0,41.0,43.0,-73.30322265625,24.536130905151367,-16.2353515625,-0.872802734375,0.3565673828125,-0.164794921875
5.631,309,531,411,310,-8.0,41.0,43.0,-70.1904296875,21.972654342651367,-17.88330078125,-0.7490234375,0.1234130859375,-0.0721435546875
5.643,309,435,409,309,-8.0,41.0,43.0,-58.715816497802734,14.953612327575684,-12.329100608825684,-0.7305908203125,0.029541015625,0.1407470703125
5.651,309,401,409,310,-5.0,43.0,39.0,-41.687007904052734,4.33349609375,-1.9531248807907104,-0.7305908203125,0.029541015625,0.1407470703125
5.659,309,395,410,310,-5.0,43.0,39.0,-23.071287155151367,-6.530761241912842,7.141112804412842,-0.7723388671875,0.1085205078125,0.1650390625
5.675,309,379,411,310,-5.0,43.0,39.0,-4.57763671875,-15.014647483825684,12.939452171325684,-0.8067626953125,0.29248046875,0.0491943359375
5.681,310,369,411,309,-5.0,43.0,39.0,12.939452171325684,-20.01953125,16.7236328125,-0.8067626953125,0.29248046875,0.0491943359375
5.689,310,367,411,310,-5.0,43.0,39.0,27.099607467651367,-21.545408248901367,18.98193359375,-0.826171875,0.37353515625,-0.0264892578125
5.703,310,363,411,310,-5.0,43.0,39.0,36.56005859375,-20.385740280151367,20.141599655151367,-0.8427734375,0.501708984375,-0.0855712890625
5.754,310,364,411,309,-5.0,43.0,39.0,41.442867279052734,-17.822265625,21.545408248901367,-0.8427734375,0.501708984375,-0.0855712890625
5.755,310,364,410,310,-5.0,43.0,39.0,40.710445404052734,-15.502928733825684,23.559568405151367,-0.829833984375,0.5230712890625,-0.0880126953125
5.756,308,367,408,309,-5.0,43.0,39.0,33.63037109375,-14.465331077575684,25.146482467651367,-0.759033203125,0.42041015625,-0.0478515625
5.756,310,370,407,309,-5.0,43.0,39.0,23.010251998901367,-14.221190452575684,26.000974655151367,-0.718994140625,0.3623046875,-0.037353515625
5.757,296,361,385,309,-8.0,42.0,43.0,13.977049827575684,-13.366698265075684,26.916501998901367,-0.718994140625,0.3623046875,-0.037353515625
5.763,308,421,399,310,-8.0,42.0,43.0,4.21142578125,-10.803221702575684,30.395505905151367,-0.642333984375,0.292724609375,0.01220703125
5.779,308,479,393,310,-8.0,42.0,43.0,4.21142578125,-10.803221702575684,30.395505905151367,-0.5526123046875,0.2579345703125,0.071044921875
5.780,308,545,382,310,-8.0,42.0,43.0,-1.5258787870407104,-12.512206077575684,32.2265625,-0.5526123046875,0.2579345703125,0.071044921875
5.793,310,750,380,309,-8.0,42.0,43.0,-10.681151390075684,-20.996091842651367,34.66796875,-0.215087890625,0.1673583984375,0.19677734375
5.801,310,855,373,310,-8.0,42.0,43.0,-10.681151390075684,-20.996091842651367,34.66796875,0.0882568359375,0.075439453125,0.33154296875
5.816,310,976,396,309,-8.0,42.0,43.0,-1.03759765625,-27.587888717651367,33.99658203125,0.0882568359375,0.075439453125,0.33154296875
5.840,310,1265,430,309,-8.0,42.0,43.0,56.640621185302734,-53.100582122802734,6.347655773162842,0.7646484375,-0.431884765625,0.564453125
5.840,310,1416,485,310,-8.0,42.0,43.0,56.640621185302734,-53.100582122802734,6.347655773162842,0.6553955078125,-0.361572265625,0.4708251953125
5.841,310,1565,496,310,-8.0,42.0,43.0,86.12059783935547,-75.927734375,-27.526853561401367,0.6553955078125,-0.361572265625,0.4708251953125
5.853,309,1637,502,310,-8.0,43.0,45.0,58.837886810302734,-91.67479705810547,-89.78270721435547,-1.2965087890625,1.2381591796875,-0.623046875
5.861,310,1675,519,310,-8.0,43.0,45.0,58.837886810302734,-91.67479705810547,-89.78270721435547,-2.3348388671875,1.98046875,-1.1998291015625
5.869,310,1716,548,310,-8.0,43.0,45.0,61.523433685302734,-44.860836029052734,-76.171875,-2.3348388671875,1.98046875,-1.1998291015625
5.885,310,1775,566,309,-8.0,43.0,45.0,-13.793944358825684,-1.8310545682907104,-49.621578216552734,-2.2391357421875,1.2305908203125,-0.0736083984375
5.891,306,1788,568,310,-8.0,43.0,45.0,-90.82030487060547,-26.672361373901367,-65.0634765625,-2.1011962890625,0.3175048828125,0.42919921875
5.899,309,1785,558,310,-8.0,43.0,45.0,-90.82030487060547,-26.672361373901367,-65.0634765625,-2.250732421875,0.021484375,0.4390869140625
5.947,310,1734,527,308,-8.0,43.0,45.0,-21.911619186401367,-25.634763717651367,-27.160642623901367,-1.9864501953125,-0.0194091796875,0.1942138671875
5.951,310,1727,529,311,-8.0,43.0,45.0,43.762203216552734,-2.0751953125,-3.906249761581421,-1.2486572265625,0.034423828125,-0.07666015625
5.951,310,1735,535,310,-8.0,43.0,45.0,43.762203216552734,-2.0751953125,-3.906249761581421,-1.0350341796875,0.527099609375,-0.274169921875
5.951,310,1725,546,310,-8.0,43.0,45.0,47.058101654052734,30.700681686401367,13.854979515075684,-1.488525390625,1.104736328125,-0.3310546875
5.951,310,1704,545,310,-4.0,40.0,47.0,-20.507810592651367,27.526853561401367,19.6533203125,-1.960693359375,1.2235107421875,-0.2293701171875
5.959,310,1667,545,309,-4.0,40.0,47.0,-20.507810592651367,27.526853561401367,19.6533203125,-2.10009765625,1.0081787109375,-0.048095703125
5.973,310,1585,538,310,-4.0,40.0,47.0,-114.44091033935547,29.235837936401367,40.954586029052734,-1.88330078125,0.708984375,0.1473388671875
5.984,310,1523,525,311,-4.0,40.0,47.0,-114.86815643310547,34.48486328125,52.917476654052734,-1.444091796875,0.4124755859375,0.3115234375
5.994,310,1463,519,310,-4.0,40.0,47.0,-114.86815643310547,34.48486328125,52.917476654052734,-0.9866943359375,0.188232421875,0.327392578125
6.011,310,1355,497,310,-4.0,40.0,47.0,-55.541988372802734,42.724605560302734,52.246089935302734,-0.5902099609375,0.019775390625,0.221923828125
6.012,310,1281,479,297,-4.0,40.0,47.0,-12.023924827575684,44.433589935302734,36.07177734375,-0.286376953125,-0.0780029296875,0.077880859375
6.067,309,1211,479,310,-4.0,40.0,47.0,-12.023924827575684,44.433589935302734,36.07177734375,-0.131591796875,-0.0250244140625,-0.1099853515625
6.068,311,1079,438,308,-4.0,40.0,47.0,54.016109466552734,44.494625091552734,4.21142578125,-0.19873046875,0.16259765625,-0.3013916015625
6.068,310,1013,437,309,-4.0,40.0,47.0,60.546871185302734,43.151851654052734,0.8544921278953552,-0.440673828125,0.4398193359375,-0.4456787109375
6.068,310,960,433,309,-7.0,44.0,39.0,47.485347747802734,38.6962890625,3.234863042831421,-0.6461181640625,0.70068359375,-0.4676513671875
6.068,294,891,430,308,-7.0,44.0,39.0,18.06640625,30.395505905151367,4.638671875,-0.7406005859375,0.818359375,-0.38720703125
6.071,310,848,433,310,-7.0,44.0,39.0,-16.4794921875,20.996091842651367,2.197265625,-0.814208984375,0.817626953125,-0.2974853515625
6.085,310,809,424,309,-7.0,44.0,39.0,-45.166011810302734,11.901854515075684,-0.9155272841453552,-0.876953125,0.7569580078125,-0.1939697265625
6.098,308,652,420,308,-7.0,44.0,39.0,-63.598628997802734,3.295898199081421,-2.44140625,-0.873046875,0.6444091796875,-0.0753173828125
6.101,310,572,419,310,-7.0,44.0,39.0,-69.64111328125,-2.624511480331421,-2.929687261581421,-0.754638671875,0.460693359375,0.0302734375
6.109,310,509,419,310,-7.0,44.0,39.0,-62.561031341552734,-5.676269054412842,-4.7607421875,-0.60009765625,0.21337890625,0.1435546875
6.123,310,401,415,309,-7.0,44.0,39.0,-43.457027435302734,-9.033203125,-7.873534679412842,-0.5501708984375,0.0462646484375,0.25
6.155,310,368,411,310,-7.0,44.0,39.0,-16.357421875,-13.610838890075684,-9.09423828125,-0.6240234375,0.077880859375,0.29345703125
6.155,308,333,414,308,-7.0,44.0,39.0,9.521484375,-18.310546875,-8.056640625,-0.72802734375,0.23681640625,0.2691650390625
6.158,308,356,407,308,-7.0,40.0,41.0,26.611326217651367,-21.972654342651367,-6.286620616912842,-0.7982177734375,0.3714599609375,0.200927734375
6.161,310,356,402,310,-7.0,40.0,41.0,34.72900390625,-22.949216842651367,-5.249022960662842,-0.87255859375,0.408935546875,0.106201171875
6.169,309,356,398,310,-7.0,40.0,41.0,38.330078125,-20.507810592651367,-6.591796398162842,-0.914306640625,0.428955078125,0.0185546875
6.187,309,352,387,308,-7.0,40.0,41.0,42.053218841552734,-15.686034202575684,-8.36181640625,-0.876953125,0.4853515625,-0.0404052734375
6.194,310,356,391,310,-7.0,40.0,41.0,43.762203216552734,-10.437010765075684,-6.103515148162842,-0.806640625,0.5159912109375,-0.0535888671875
6.199,310,356,391,310,-7.0,40.0,41.0,38.2080078125,-6.958007335662842,-1.2817381620407104,-0.73046875,0.4844970703125,-0.024169921875
6.213,308,363,387,310,-7.0,40.0,41.0,27.099607467651367,-5.737304210662842,3.051757574081421,-0.6575927734375,0.4190673828125,0.0037841796875
6.246,310,361,386,308,-7.0,40.0,41.0,15.502928733825684,-6.225585460662842,7.202147960662842,-0.5906982421875,0.339111328125,0.0057373046875
6.246,296,364,382,310,-7.0,40.0,41.0,7.873534679412842,-7.080077648162842,10.925292015075684,-0.5399169921875,0.2572021484375,-0.014892578125
6.246,309,354,382,310,-8.0,39.0,40.0,4.57763671875,-7.873534679412842,13.061522483825684,-0.5015869140625,0.206787109375,-0.0233154296875
6.262,310,423,383,307,-8.0,39.0,40.0,1.15966796875,-10.314940452575684,13.671874046325684,-0.426025390625,0.1656494140625,0.0057373046875
6.262,310,545,380,310,-8.0,39.0,40.0,-5.432128429412842,-15.624999046325684,13.427733421325684,-0.3040771484375,0.0804443359375,0.060546875
6.277,309,745,371,310,-8.0,39.0,40.0,-11.596678733825684,-23.437498092651367,13.854979515075684,-0.2445068359375,0.0711669921875,0.1785888671875
6.281,310,853,384,310,-8.0,39.0,40.0,-4.57763671875,-31.860349655151367,19.71435546875,-0.2705078125,0.2545166015625,0.3876953125
6.339,310,990,399,310,-8.0,39.0,40.0,31.860349655151367,-35.2783203125,25.146482467651367,-0.10791015625,0.373291015625,0.50439453125
6.339,310,1294,477,310,-8.0,39.0,40.0,83.86229705810547,-34.0576171875,12.207030296325684,0.30615234375,0.193115234375,0.4781494140625
6.339,310,1463,522,310,-8.0,39.0,40.0,95.52001190185547,-41.870113372802734,-22.949216842651367,0.5826416015625,-0.1199951171875,0.4775390625
6.340,310,1580,530,309,-8.0,39.0,40.0,41.442867279052734,-60.058589935302734,-69.39697265625,0.3504638671875,-0.2137451171875,0.5228271484375
6.353,310,1671,521,310,-8.0,39.0,40.0,-20.080564498901367,-67.87109375,-104.24803924560547,-0.4599609375,0.0748291015625,0.2611083984375
6.354,296,1701,531,308,-9.0,41.0,37.0,-8.056640625,-39.794921875,-94.84862518310547,-1.41455078125,0.7615966796875,-0.534912109375
6.354,295,1704,538,310,-9.0,41.0,37.0,68.66455078125,12.634276390075684,-48.828121185302734,-2.0093994140625,1.562744140625,-1.1268310546875
6.363,310,1787,562,310,-9.0,41.0,37.0,105.89598846435547,34.97314453125,-21.911619186401367,-1.9490966796875,1.0484619140625,-0.1529541015625
6.372,310,1800,568,311,-9.0,41.0,37.0,60.729976654052734,9.1552734375,-36.56005859375,-1.9490966796875,1.0484619140625,-0.1529541015625
6.379,310,1816,587,310,-9.0,41.0,37.0,9.33837890625,-23.437498092651367,-57.006832122802734,-2.0555419921875,0.6004638671875,0.2535400390625
6.397,310,1801,579,310,-9.0,41.0,37.0,5.615233898162842,-31.249998092651367,-55.725093841552734,-2.2921142578125,0.529296875,-0.048095703125
6.402,310,1761,558,310,-9.0,41.0,37.0,21.789548873901367,-21.606443405151367,-41.931148529052734,-2.2921142578125,0.529296875,-0.048095703125
6.412,310,1744,559,309,-9.0,41.0,37.0,27.770994186401367,-6.408690929412842,-30.883787155151367,-1.7261962890625,0.2825927734375,-0.3175048828125
6.430,310,1752,566,310,-9.0,41.0,37.0,21.362302780151367,7.873534679412842,-22.949216842651367,-1.1248779296875,0.583251953125,-0.4102783203125
6.431,310,1746,572,310,-9.0,41.0,37.0,-3.112792730331421,12.268065452575684,-14.099120140075684,-1.1248779296875,0.583251953125,-0.4102783203125
6.440,310,1727,568,309,-9.0,41.0,37.0,-48.461910247802734,5.615233898162842,-4.8828125,-1.62451171875,0.8533935546875,-0.1907958984375
6.456,309,1666,566,310,-7.0,40.0,43.0,-95.70311737060547,-1.9531248807907104,5.676269054412842,-2.2442626953125,0.6448974609375,0.19677734375
6.461,310,1615,562,309,-7.0,40.0,43.0,-121.09374237060547,-3.051757574081421,20.141599655151367,-2.2442626953125,0.6448974609375,0.19677734375
6.471,310,1557,561,310,-7.0,40.0,43.0,-113.09813690185547,2.746581792831421,37.04833984375,-1.904296875,0.3551025390625,0.3802490234375
6.483,312,1416,543,310,-7.0,40.0,43.0,-80.74950408935547,11.840819358825684,51.757808685302734,-0.913330078125,0.0318603515625,0.4134521484375
6.491,308,1325,525,310,-7.0,40.0,43.0,-40.283199310302734,21.606443405151367,60.668941497802734,-0.913330078125,0.0318603515625,0.4134521484375
6.502,310,1231,503,310,-7.0,40.0,43.0,-1.7700194120407104,29.541013717651367,61.035152435302734,-0.5523681640625,-0.020263671875,0.1328125
6.516,310,1078,467,308,-7.0,40.0,43.0,47.668453216552734,38.39111328125,39.12353515625,-0.16796875,0.233154296875,-0.3931884765625
6.523,309,994,449,310,-7.0,40.0,43.0,47.668453216552734,38.39111328125,39.12353515625,-0.209716796875,0.36572265625,-0.44970703125
6.534,310,918,437,310,-7.0,40.0,43.0,46.020503997802734,42.663570404052734,24.597166061401367,-0.209716796875,0.36572265625,-0.44970703125
6.557,308,822,426,310,-8.0,40.0,48.0,11.291502952575684,45.104976654052734,3.784179449081421,-0.347412109375,0.5318603515625,-0.2021484375
6.557,296,780,405,295,-8.0,40.0,48.0,11.291502952575684,45.104976654052734,3.784179449081421,-0.4324951171875,0.614501953125,-0.0830078125
6.560,310,741,424,310,-8.0,40.0,48.0,-11.474608421325684,41.381832122802734,-0.7934569716453552,-0.4324951171875,0.614501953125,-0.0830078125
6.578,310,653,423,310,-8.0,40.0,48.0,-53.100582122802734,24.353025436401367,-2.01416015625,-0.6658935546875,0.7127685546875,0.1143798828125
6.581,307,608,423,310,-8.0,40.0,48.0,-53.100582122802734,24.353025436401367,-2.01416015625,-0.6934814453125,0.5689697265625,0.135986328125
6.591,310,583,424,308,-8.0,40.0,48.0,-69.27490234375,14.648436546325684,-3.845214605331421,-0.6934814453125,0.5689697265625,0.135986328125
6.603,308,533,423,310,-8.0,40.0,48.0,-66.40625,12.939452171325684,-18.310546875,-0.7724609375,0.2257080078125,0.077880859375
6.619,310,495,424,311,-8.0,40.0,48.0,-66.40625,12.939452171325684,-18.310546875,-0.8514404296875,0.229248046875,0.0994873046875
6.621,296,444,423,310,-8.0,40.0,48.0,-48.583980560302734,13.610838890075684,-20.507810592651367,-0.8514404296875,0.229248046875,0.0994873046875
6.637,312,384,415,310,-8.0,40.0,48.0,-20.080564498901367,4.39453125,-6.042479991912842,-0.915771484375,0.3143310546875,0.1226806640625
6.659,310,370,419,310,-5.0,42.0,39.0,-20.080564498901367,4.39453125,-6.042479991912842,-0.8917236328125,0.31396484375,0.08837890625
6.660,309,364,415,310,-5.0,42.0,39.0,-9.70458984375,0.1831054538488388,3.723144292831421,-0.853759765625,0.292724609375,0.0745849609375
6.666,310,354,410,309,-5.0,42.0,39.0,11.901854515075684,-3.784179449081421,15.319823265075684,-0.8218994140625,0.2801513671875,0.0703125
6.671,310,352,411,310,-5.0,42.0,39.0,19.53125,-5.126952648162842,19.22607421875,-0.8018798828125,0.2928466796875,0.0394287109375
6.685,309,351,408,308,-5.0,42.0,39.0,19.53125,-5.126952648162842,19.22607421875,-0.769287109375,0.3175048828125,-0.0145263671875
6.700,309,354,401,309,-5.0,42.0,39.0,26.367185592651367,-6.042479991912842,27.404783248901367,-0.72607421875,0.33056640625,-0.05224609375
6.702,309,354,387,308,-5.0,42.0,39.0,25.268552780151367,-4.82177734375,29.296873092651367,-0.6993408203125,0.345703125,-0.05126953125
6.709,310,356,407,308,-5.0,42.0,39.0,25.268552780151367,-4.82177734375,29.296873092651367,-0.6793212890625,0.3699951171875,-0.0225830078125
6.728,310,367,402,310,-5.0,42.0,39.0,16.05224609375,-2.929687261581421,28.015134811401367,-0.6435546875,0.379638671875,0.007080078125
6.739,310,380,408,309,-5.0,42.0,39.0,9.765625,-4.08935546875,25.207517623901367,-0.5765380859375,0.3486328125,0.01806640625
6.760,310,436,402,308,-5.0,41.0,39.0,9.765625,-4.08935546875,25.207517623901367,-0.451171875,0.2568359375,0.0020751953125
6.760,296,622,386,295,-5.0,41.0,39.0,1.3427733182907104,-13.366698265075684,18.4326171875,-0.2969970703125,0.1497802734375,-0.0169677734375
6.762,299,749,386,310,-5.0,41.0,39.0,-1.7089842557907104,-23.010251998901367,17.9443359375,-0.15869140625,0.12646484375,0.0670166015625
6.769,310,891,398,310,-5.0,41.0,39.0,-1.7089842557907104,-23.010251998901367,17.9443359375,0.0382080078125,0.166259765625,0.271728515625
6.789,309,1173,467,309,-5.0,41.0,39.0,30.090330123901367,-43.701168060302734,17.15087890625,0.4271240234375,0.0926513671875,0.46826171875
6.791,310,1338,524,312,-5.0,41.0,39.0,56.823726654052734,-55.053707122802734,-4.94384765625,0.8258056640625,-0.2215576171875,0.534912109375
6.802,310,1462,551,309,-5.0,41.0,39.0,56.823726654052734,-55.053707122802734,-4.94384765625,0.687744140625,-0.455810546875,0.480712890625
6.813,311,1595,538,308,-5.0,41.0,39.0,34.85107421875,-96.43553924560547,-76.2939453125,-0.13916015625,-0.144287109375,0.2398681640625
6.821,309,1640,547,310,-5.0,41.0,39.0,49.499507904052734,-88.92821502685547,-82.21434783935547,-1.348876953125,0.730224609375,-0.447021484375
6.829,308,1682,567,310,-5.0,41.0,39.0,106.38426971435547,-37.29248046875,-57.067867279052734,-2.357666015625,1.888427734375,-1.093017578125
6.863,310,1744,603,310,-5.0,38.0,44.0,114.01366424560547,3.967284917831421,-36.1328125,-2.5950927734375,2.2877197265625,-0.9232177734375
6.863,310,1775,616,311,-5.0,38.0,44.0,20.935056686401367,-5.981444835662842,-48.950191497802734,-2.2877197265625,1.49072265625,-0.203125
6.863,296,1791,628,308,-5.0,38.0,44.0,-70.98388671875,-34.912109375,-67.87109375,-2.1099853515625,0.595703125,0.4005126953125
6.873,310,1789,616,310,-5.0,38.0,44.0,-72.021484375,-44.555660247802734,-61.523433685302734,-2.2386474609375,0.2169189453125,0.6099853515625
6.881,310,1772,594,312,-5.0,38.0,44.0,-16.29638671875,-32.40966796875,-39.24560546875,-2.0325927734375,0.0172119140625,0.416259765625
6.899,310,1748,594,308,-5.0,38.0,44.0,39.61181640625,-7.324218273162842,-21.972654342651367,-1.3321533203125,-0.02197265625,0.013671875
6.904,309,1750,594,309,-5.0,38.0,44.0,69.9462890625,18.61572265625,-13.366698265075684,-0.9476318359375,0.3902587890625,-0.31005859375
6.911,308,1744,601,310,-5.0,38.0,44.0,52.429195404052734,29.479978561401367,-8.544921875,-1.23095703125,0.90234375,-0.3946533203125
6.919,311,1729,588,310,-5.0,38.0,44.0,-10.681151390075684,25.390623092651367,-5.249022960662842,-1.8182373046875,1.0859375,-0.280029296875
6.933,310,1674,587,310,-5.0,38.0,44.0,-82.51952362060547,18.798828125,1.4648436307907104,-2.2591552734375,0.969482421875,-0.099609375
6.943,311,1621,586,310,-8.0,39.0,44.0,-129.94384765625,17.578125,16.11328125,-2.3331298828125,0.7200927734375,0.0709228515625
6.963,310,1555,574,309,-8.0,39.0,44.0,-140.19775390625,24.047849655151367,38.57421875,-2.1043701171875,0.5316162109375,0.2188720703125
6.964,310,1415,531,295,-8.0,39.0,44.0,-123.10790252685547,36.4990234375,64.27001953125,-1.7196044921875,0.5006103515625,0.34912109375
6.973,310,1325,510,310,-8.0,39.0,44.0,-98.26659393310547,50.354000091552734,83.86229705810547,-1.2740478515625,0.401123046875,0.3958740234375
6.979,310,1219,488,310,-8.0,39.0,44.0,-71.044921875,60.363765716552734,87.34130096435547,-0.7742919921875,0.03759765625,0.3470458984375
6.993,310,960,438,310,-8.0,39.0,44.0,-30.639646530151367,65.3076171875,72.265625,-0.229248046875,-0.3804931640625,0.187255859375
7.006,310,829,408,308,-8.0,39.0,44.0,27.221677780151367,69.27490234375,46.874996185302734,0.2125244140625,-0.55810546875,-0.109375
7.010,309,716,402,308,-8.0,39.0,44.0,83.61815643310547,73.30322265625,23.315427780151367,0.3994140625,-0.4210205078125,-0.371826171875
7.025,308,552,391,310,-8.0,39.0,44.0,112.06053924560547,72.20458984375,7.507323741912842,0.2713623046875,-0.0675048828125,-0.3997802734375
7.032,310,497,393,308,-8.0,39.0,44.0,105.89598846435547,62.255855560302734,-0.6103515625,-0.0003662109375,0.4296875,-0.2431640625
7.046,308,477,394,310,-6.0,43.0,44.0,75.86669921875,44.372554779052734,-1.0986328125,-0.253662109375,0.9296875,-0.083984375
7.068,310,452,396,309,-6.0,43.0,44.0,32.958984375,19.775390625,2.990722417831421,-0.5635986328125,1.15869140625,-0.0316162109375
7.068,310,439,402,309,-6.0,43.0,44.0,-6.774901866912842,-6.042479991912842,3.112792730331421,-0.853515625,1.0279541015625,-0.0833740234375
7.069,310,425,409,310,-6.0,43.0,44.0,-24.841306686401367,-22.827146530151367,-5.981444835662842,-0.9560546875,0.7276611328125,-0.159912109375
7.084,307,413,410,310,-6.0,43.0,44.0,-21.606443405151367,-24.353025436401367,-18.98193359375,-0.9107666015625,0.4388427734375,-0.208251953125
7.092,309,391,409,307,-6.0,43.0,44.0,-18.06640625,-16.54052734375,-26.916501998901367,-0.9107666015625,0.4388427734375,-0.208251953125
7.101,310,380,407,308,-6.0,43.0,44.0,-28.198240280151367,-11.718749046325684,-26.550291061401367,-0.8677978515625,0.400390625,-0.087158203125
7.117,308,349,407,310,-6.0,43.0,44.0,-44.250484466552734,-12.695311546325684,-19.8974609375,-0.77197265625,0.23095703125,0.14208984375
7.122,310,343,408,309,-6.0,43.0,44.0,-51.513668060302734,-14.404295921325684,-11.047362327575684,-0.77197265625,0.23095703125,0.14208984375
7.132,308,346,408,309,-6.0,43.0,44.0,-44.250484466552734,-14.343260765075684,-3.356933355331421,-0.7855224609375,0.1685791015625,0.167236328125
7.148,309,354,407,309,-4.0,41.0,43.0,-27.099607467651367,-13.549803733825684,2.0751953125,-0.789306640625,0.2315673828125,0.16748046875
7.166,308,354,408,310,-4.0,41.0,43.0,-9.27734375,-12.512206077575684,5.981444835662842,-0.789306640625,0.2315673828125,0.16748046875
7.171,309,357,408,308,-4.0,41.0,43.0,4.08935546875,-10.620116233825684,9.033203125,-0.76416015625,0.2939453125,0.154541015625
7.178,308,360,411,309,-4.0,41.0,43.0,12.756346702575684,-7.995604991912842,11.474608421325684,-0.7218017578125,0.4251708984375,0.0672607421875
7.182,309,367,409,308,-4.0,41.0,43.0,16.6015625,-6.225585460662842,14.160155296325684,-0.703369140625,0.4298095703125,0.0306396484375
7.190,310,382,409,308,-4.0,41.0,43.0,15.991209983825684,-6.347655773162842,16.845703125,-0.703369140625,0.4298095703125,0.0306396484375
7.205,308,444,402,310,-4.0,41.0,43.0,12.145995140075684,-8.30078125,18.9208984375,-0.6827392578125,0.3707275390625,-0.0523681640625
7.219,310,505,391,310,-4.0,41.0,43.0,12.145995140075684,-8.30078125,18.9208984375,-0.6671142578125,0.3822021484375,-0.0894775390625
7.220,310,557,384,296,-4.0,41.0,43.0,12.084959983825684,-9.1552734375,20.812986373901367,-0.6671142578125,0.3822021484375,-0.0894775390625
7.234,310,664,373,308,-4.0,41.0,43.0,5.126952648162842,-10.742186546325684,28.503416061401367,-0.606689453125,0.424560546875,-0.0167236328125
7.242,310,753,373,310,-8.0,39.0,44.0,5.126952648162842,-10.742186546325684,28.503416061401367,-0.4842529296875,0.3643798828125,0.098388671875
7.250,310,847,381,310,-8.0,39.0,44.0,-1.7089842557907104,-12.451170921325684,31.799314498901367,-0.4842529296875,0.3643798828125,0.098388671875
7.273,309,1094,430,309,-8.0,39.0,44.0,-7.507323741912842,-22.399900436401367,20.568845748901367,0.2752685546875,-0.070068359375,0.4205322265625
7.274,309,1253,456,297,-8.0,39.0,44.0,-7.507323741912842,-22.399900436401367,20.568845748901367,0.7325439453125,-0.488525390625,0.61572265625
7.280,310,1400,525,310,-8.0,39.0,44.0,-7.263183116912842,-36.68212890625,-1.5869139432907104,0.7325439453125,-0.488525390625,0.61572265625
7.294,310,1583,519,309,-8.0,39.0,44.0,17.08984375,-75.25634765625,-84.77782440185547,0.2191162109375,-0.5869140625,0.4388427734375
7.302,310,1634,512,310,-8.0,39.0,44.0,17.08984375,-75.25634765625,-84.77782440185547,-0.751953125,0.272216796875,-0.11279296875
7.313,310,1665,529,310,-8.0,39.0,44.0,67.68798828125,-74.3408203125,-98.51073455810547,-0.751953125,0.272216796875,-0.11279296875
7.343,310,1732,562,310,-8.0,39.0,44.0,181.21336364746094,10.009765625,-27.465818405151367,-2.504150390625,2.52587890625,-1.1314697265625
7.344,296,1761,585,310,-8.0,39.0,44.0,107.05565643310547,10.864256858825684,-27.343748092651367,-2.3975830078125,2.0123291015625,-0.515869140625
7.344,310,1789,594,308,-11.0,40.0,45.0,107.05565643310547,10.864256858825684,-27.343748092651367,-2.14892578125,0.925048828125,0.205078125
7.355,310,1801,594,310,-11.0,40.0,45.0,-47.973628997802734,-31.982419967651367,-69.27490234375,-2.200927734375,0.3172607421875,0.4339599609375
7.377,310,1788,566,310,-11.0,40.0,45.0,-14.953612327575684,-24.536130905151367,-54.382320404052734,-2.0992431640625,0.0511474609375,0.310546875
7.377,310,1763,557,308,-11.0,40.0,45.0,-14.953612327575684,-24.536130905151367,-54.382320404052734,-1.4678955078125,-0.153076171875,0.1029052734375
7.384,309,1743,551,308,-11.0,40.0,45.0,81.66503143310547,14.587401390075684,-7.385253429412842,-0.94580078125,0.0887451171875,-0.17041015625
7.393,311,1748,562,309,-11.0,40.0,45.0,94.17723846435547,26.428220748901367,3.723144292831421,-1.0496826171875,0.716796875,-0.486328125
7.405,310,1752,566,310,-11.0,40.0,45.0,94.17723846435547,26.428220748901367,3.723144292831421,-1.54296875,1.1387939453125,-0.624755859375
7.410,310,1748,566,310,-11.0,40.0,45.0,54.443355560302734,20.01953125,1.7700194120407104,-2.031982421875,1.186767578125,-0.47998046875
7.430,309,1711,568,310,-11.0,40.0,45.0,-89.17235565185547,-13.732909202575684,-8.85009765625,-2.267822265625,1.00537109375,-0.2205810546875
7.431,296,1656,562,308,-11.0,40.0,45.0,-131.40869140625,-19.1650390625,1.03759765625,-2.26025390625,0.800537109375,-0.022705078125
7.439,310,1595,562,310,-11.0,40.0,47.0,-131.40869140625,-19.1650390625,1.03759765625,-2.050537109375,0.6773681640625,0.1556396484375
7.455,310,1468,533,310,-11.0,40.0,47.0,-136.8408203125,1.0986328125,40.832515716552734,-1.65869140625,0.5638427734375,0.347412109375
7.476,308,1382,518,310,-11.0,40.0,47.0,-117.55370330810547,18.9208984375,53.588863372802734,-1.141357421875,0.267333984375,0.4610595703125
7.476,310,1281,495,296,-11.0,40.0,47.0,-117.55370330810547,18.9208984375,53.588863372802734,-0.547119140625,-0.2376708984375,0.4393310546875
7.485,309,1038,428,310,-11.0,40.0,47.0,-27.770994186401367,39.12353515625,41.564937591552734,0.0076904296875,-0.63916015625,0.2437744140625
7.491,310,889,402,309,-11.0,40.0,47.0,43.090816497802734,43.029781341552734,23.681638717651367,0.3350830078125,-0.6778564453125,-0.0848388671875
7.499,311,801,394,310,-11.0,40.0,47.0,43.090816497802734,43.029781341552734,23.681638717651367,0.3277587890625,-0.3837890625,-0.330322265625
7.519,310,622,386,310,-11.0,40.0,47.0,116.63817596435547,49.804683685302734,-4.45556640625,0.02685546875,0.1031494140625,-0.3489990234375
7.535,308,548,393,309,-11.0,40.0,47.0,98.69384002685547,44.921871185302734,-10.131834983825684,-0.2879638671875,0.6668701171875,-0.22314453125
7.536,298,502,393,310,-11.0,40.0,47.0,98.69384002685547,44.921871185302734,-10.131834983825684,-0.482177734375,1.0755615234375,-0.0958251953125
7.544,308,454,399,308,-7.0,41.0,46.0,11.962889671325684,11.901854515075684,-6.713866710662842,-0.6600341796875,1.0921630859375,-0.049560546875
7.579,309,424,398,309,-7.0,41.0,46.0,-25.634763717651367,-5.249022960662842,-8.36181640625,-0.8018798828125,0.8017578125,-0.0733642578125
7.579,310,402,382,298,-7.0,41.0,46.0,-39.794921875,-12.878417015075684,-15.502928733825684,-0.8721923828125,0.5029296875,-0.107421875
7.580,296,395,401,310,-7.0,41.0,46.0,-35.5224609375,-10.131834983825684,-22.888181686401367,-0.9124755859375,0.3695068359375,-0.112060546875
7.582,308,373,399,308,-7.0,41.0,46.0,-31.555173873901367,-3.967284917831421,-26.062009811401367,-0.9197998046875,0.3553466796875,-0.065673828125
7.589,308,353,398,310,-7.0,41.0,46.0,-37.53662109375,-1.7700194120407104,-23.193357467651367,-0.8826904296875,0.3380126953125,0.0177001953125
7.603,308,344,396,310,-7.0,41.0,46.0,-47.119136810302734,-4.2724609375,-15.563963890075684,-0.84130859375,0.259765625,0.0986328125
7.611,308,342,398,309,-7.0,41.0,46.0,-49.438472747802734,-8.30078125,-6.469726085662842,-0.8040771484375,0.1593017578125,0.1517333984375
7.620,310,343,399,308,-7.0,41.0,46.0,-39.12353515625,-11.169432640075684,1.8310545682907104,-0.773193359375,0.0968017578125,0.1614990234375
7.633,309,343,401,309,-6.0,40.0,44.0,-19.71435546875,-12.329100608825684,8.7890625,-0.748046875,0.1182861328125,0.13818359375
7.644,310,351,402,309,-6.0,40.0,44.0,-0.0610351525247097,-11.962889671325684,14.465331077575684,-0.7218017578125,0.200927734375,0.1181640625
7.649,308,355,402,310,-6.0,40.0,44.0,13.183592796325684,-10.498045921325684,18.1884765625,-0.7054443359375,0.2911376953125,0.112060546875
7.682,308,357,402,308,-6.0,40.0,44.0,18.9208984375,-8.6669921875,19.95849609375,-0.694091796875,0.3658447265625,0.1097412109375
7.683,310,356,407,308,-6.0,40.0,44.0,19.1650390625,-7.263183116912842,20.935056686401367,-0.6678466796875,0.3905029296875,0.090576171875
7.684,310,402,402,290,-6.0,40.0,44.0,16.29638671875,-6.958007335662842,21.362302780151367,-0.6109619140625,0.3408203125,0.0545654296875
7.694,310,523,387,310,-6.0,40.0,44.0,13.122557640075684,-7.995604991912842,21.118162155151367,-0.55419921875,0.2662353515625,0.0211181640625
7.702,309,601,380,308,-6.0,40.0,44.0,11.657713890075684,-10.131834983825684,21.728513717651367,-0.5411376953125,0.2716064453125,-0.0020751953125
7.710,309,691,372,308,-6.0,40.0,44.0,12.390135765075684,-11.901854515075684,25.207517623901367,-0.5445556640625,0.3897705078125,0.009521484375
7.724,310,854,377,309,-6.0,40.0,44.0,13.732909202575684,-12.695311546325684,28.869626998901367,-0.47900390625,0.50390625,0.049072265625
7.732,309,981,386,310,-7.0,39.0,45.0,12.390135765075684,-15.319823265075684,26.733396530151367,-0.247802734375,0.4749755859375,0.104248046875
7.750,313,1127,402,308,-7.0,39.0,45.0,9.46044921875,-24.902341842651367,18.00537109375,0.19482421875,0.2596435546875,0.2572021484375
7.761,310,1393,490,310,-7.0,39.0,45.0,12.023924827575684,-45.227046966552734,0.9765624403953552,0.703857421875,-0.1417236328125,0.4547119140625
7.762,310,1529,512,310,-7.0,39.0,45.0,21.850584030151367,-72.6318359375,-32.89794921875,0.8583984375,-0.57470703125,0.50830078125
7.782,308,1625,516,309,-7.0,39.0,45.0,37.353515625,-97.47313690185547,-78.857421875,0.325439453125,-0.6990966796875,0.5064697265625
7.784,310,1716,531,308,-7.0,39.0,45.0,81.60399627685547,-100.03661346435547,-108.70360565185547,-0.8077392578125,-0.1732177734375,0.153564453125
7.793,310,1759,551,310,-7.0,39.0,45.0,171.99705505371094,-58.288570404052734,-102.11180877685547,-2.0084228515625,1.128173828125,-0.7149658203125
7.800,310,1798,562,310,-7.0,39.0,45.0,220.39793395996094,-8.36181640625,-78.43017578125,-2.649169921875,2.2403564453125,-1.2938232421875
7.814,310,1831,569,310,-7.0,39.0,45.0,134.6435546875,-7.202147960662842,-72.3876953125,-2.3758544921875,1.040771484375,-0.2667236328125
7.824,308,1838,594,310,-7.0,39.0,45.0,-5.554198741912842,-42.419429779052734,-82.45848846435547,-2.3758544921875,1.040771484375,-0.2667236328125
7.830,310,1826,592,310,-7.0,39.0,45.0,-74.462890625,-68.66455078125,-82.51952362060547,-2.3294677734375,0.3184814453125,0.474853515625
7.844,308,1800,558,309,-8.0,36.0,50.0,-65.36865234375,-69.580078125,-64.3310546875,-1.5631103515625,-0.298828125,0.4224853515625
7.886,310,1790,558,311,-8.0,36.0,50.0,-28.381345748901367,-48.645015716552734,-38.0859375,-1.5631103515625,-0.298828125,0.4224853515625
7.886,310,1789,566,309,-8.0,36.0,50.0,7.690429210662842,-15.136717796325684,-12.756346702575684,-0.9127197265625,-0.130615234375,0.0496826171875
7.886,308,1775,590,310,-8.0,36.0,50.0,15.624999046325684,11.230467796325684,7.202147960662842,-1.473388671875,0.7694091796875,0.0897216796875
7.886,296,1750,586,309,-8.0,36.0,50.0,-21.057126998901367,20.263669967651367,18.6767578125,-1.473388671875,0.7694091796875,0.0897216796875
7.891,310,1723,587,310,-8.0,36.0,50.0,-76.5380859375,20.629880905151367,24.414060592651367,-1.9344482421875,0.76611328125,0.2030029296875
7.904,310,1649,572,310,-8.0,36.0,50.0,-111.02294158935547,22.338865280151367,31.188962936401367,-1.9512939453125,0.4576416015625,0.2852783203125
7.912,309,1582,552,310,-8.0,36.0,50.0,-109.00878143310547,28.320310592651367,43.273921966552734,-1.9512939453125,0.4576416015625,0.2852783203125
7.920,310,1516,535,310,-8.0,36.0,50.0,-83.92333221435547,38.9404296875,60.363765716552734,-1.724365234375,0.4620361328125,0.3013916015625
7.934,310,1390,493,310,-6.0,40.0,48.0,-58.471675872802734,53.100582122802734,77.7587890625,-1.1275634765625,0.303466796875,0.2418212890625
7.942,310,1300,473,310,-6.0,40.0,48.0,-42.968746185302734,66.7724609375,88.56200408935547,-0.6309814453125,-0.03125,0.242919921875
7.951,310,1202,439,310,-6.0,40.0,48.0,-31.860349655151367,73.79150390625,86.91405487060547,-0.6309814453125,-0.03125,0.242919921875
7.988,309,973,402,308,-6.0,40.0,48.0,32.04345703125,77.57568359375,48.278804779052734,0.1251220703125,-0.3702392578125,-0.1019287109375
7.989,310,848,374,310,-6.0,40.0,48.0,32.04345703125,77.57568359375,48.278804779052734,0.1455078125,-0.1551513671875,-0.29931640625
7.989,310,765,371,297,-6.0,40.0,48.0,70.4345703125,77.33154296875,27.160642623901367,0.1455078125,-0.1551513671875,-0.29931640625
7.994,310,604,380,310,-6.0,40.0,48.0,70.73974609375,63.354488372802734,5.615233898162842,-0.157958984375,0.6087646484375,-0.2857666015625
8.002,310,566,382,309,-6.0,40.0,48.0,70.73974609375,63.354488372802734,5.615233898162842,-0.361572265625,0.9937744140625,-0.22607421875
8.010,310,554,380,308,-6.0,40.0,48.0,41.625972747802734,49.621578216552734,5.126952648162842,-0.361572265625,0.9937744140625,-0.22607421875
8.026,310,548,386,310,-6.0,40.0,48.0,-26.000974655151367,7.751464366912842,6.042479991912842,-0.943603515625,0.9742431640625,-0.2127685546875
8.032,308,533,387,308,-5.0,39.0,48.0,-26.000974655151367,7.751464366912842,6.042479991912842,-1.0543212890625,0.7315673828125,-0.251220703125
8.040,310,522,386,308,-5.0,39.0,48.0,-39.00146484375,-6.469726085662842,-6.713866710662842,-1.0543212890625,0.7315673828125,-0.251220703125
8.054,310,483,385,310,-5.0,39.0,48.0,-45.349117279052734,-3.784179449081421,-30.456541061401367,-0.9293212890625,0.3675537109375,-0.134765625
8.092,310,472,382,310,-5.0,39.0,48.0,-45.349117279052734,-3.784179449081421,-30.456541061401367,-0.8236083984375,0.2520751953125,0.017578125
8.093,310,447,379,309,-5.0,39.0,48.0,-56.335445404052734,-1.220703125,-30.700681686401367,-0.8236083984375,0.2520751953125,0.017578125
8.093,310,380,368,308,-5.0,39.0,48.0,-56.640621185302734,-5.065917491912842,-13.427733421325684,-0.7740478515625,0.11572265625,0.228271484375
8.093,308,383,367,299,-5.0,39.0,48.0,-38.26904296875,-6.713866710662842,-5.187987804412842,-0.7982177734375,0.12255859375,0.23779296875
8.100,308,384,381,310,-5.0,39.0,48.0,-38.26904296875,-6.713866710662842,-5.187987804412842,-0.7969970703125,0.1622314453125,0.2083740234375
8.115,310,382,382,309,-5.0,39.0,48.0,3.540038824081421,-7.568358898162842,4.39453125,-0.789794921875,0.219482421875,0.15966796875
8.122,309,384,382,308,-5.0,39.0,48.0,14.221190452575684,-7.263183116912842,7.995604991912842,-0.7674560546875,0.2716064453125,0.09814453125
8.133,310,391,384,310,-5.0,39.0,42.0,14.221190452575684,-7.263183116912842,7.995604991912842,-0.74853515625,0.3214111328125,0.0382080078125
8.144,310,414,381,309,-5.0,39.0,42.0,19.10400390625,-4.5166015625,15.869139671325684,-0.75,0.37548828125,0.0108642578125
8.152,310,430,382,310,-5.0,39.0,42.0,16.2353515625,-2.990722417831421,20.629880905151367,-0.755615234375,0.4007568359375,0.02197265625
8.160,309,454,379,308,-5.0,39.0,42.0,16.2353515625,-2.990722417831421,20.629880905151367,-0.74462890625,0.3857421875,0.044921875
8.196,310,505,372,308,-5.0,39.0,42.0,8.6669921875,-0.9155272841453552,25.146482467651367,-0.70703125,0.35986328125,0.0499267578125
8.196,308,555,354,298,-5.0,39.0,42.0,7.812499523162842,-0.4272460639476776,25.451658248901367,-0.629638671875,0.3267822265625,0.0338134765625
8.196,310,617,363,309,-5.0,39.0,42.0,7.812499523162842,-0.4272460639476776,25.451658248901367,-0.5233154296875,0.279296875,0.020263671875
8.204,310,796,364,310,-5.0,39.0,42.0,7.873534679412842,-7.873534679412842,24.047849655151367,-0.3955078125,0.235595703125,0.0419921875
8.212,310,902,367,310,-5.0,39.0,42.0,10.498045921325684,-16.11328125,22.094724655151367,-0.195068359375,0.189453125,0.1226806640625
8.220,309,1037,381,310,-5.0,39.0,42.0,10.498045921325684,-16.11328125,22.094724655151367,0.180908203125,0.0797119140625,0.32421875
8.236,308,1311,438,309,-10.0,38.0,46.0,33.0810546875,-40.344234466552734,1.03759765625,0.596923828125,-0.136962890625,0.582763671875
8.242,310,1456,485,309,-10.0,38.0,46.0,44.067378997802734,-59.204097747802734,-33.26416015625,0.63671875,-0.35986328125,0.6234130859375
8.250,311,1561,503,309,-10.0,38.0,46.0,51.513668060302734,-75.927734375,-73.6083984375,0.0126953125,-0.1705322265625,0.331787109375
8.264,310,1655,529,310,-10.0,38.0,46.0,66.2841796875,-74.3408203125,-89.23339080810547,-1.1202392578125,0.5689697265625,-0.409912109375
8.296,310,1691,540,310,-10.0,38.0,46.0,93.50585174560547,-40.405269622802734,-68.4814453125,-2.0552978515625,1.45361328125,-1.2283935546875
8.296,297,1729,554,309,-10.0,38.0,46.0,87.58544158935547,-2.685546636581421,-43.151851654052734,-2.2330322265625,1.810302734375,-1.258056640625
8.296,310,1743,554,311,-10.0,38.0,46.0,11.474608421325684,-3.356933355331421,-43.395992279052734,-1.867431640625,1.3282470703125,-0.46875
8.305,311,1801,579,310,-10.0,38.0,46.0,-71.6552734375,-32.53173828125,-57.495113372802734,-1.5809326171875,0.525634765625,0.408203125
8.310,310,1817,592,309,-10.0,38.0,46.0,-80.38329315185547,-52.124019622802734,-63.171382904052734,-1.7110595703125,0.11474609375,0.706298828125
8.324,310,1824,587,310,-10.0,38.0,46.0,-22.338865280151367,-49.377437591552734,-56.701656341552734,-2.0400390625,0.2296142578125,0.4779052734375
8.334,306,1810,566,310,-7.0,38.0,47.0,36.9873046875,-36.19384765625,-46.081539154052734,-2.0836181640625,0.4085693359375,0.1248779296875
8.341,311,1791,572,309,-7.0,38.0,47.0,61.035152435302734,-21.179197311401367,-39.24560546875,-1.6229248046875,0.391845703125,-0.187744140625
8.354,310,1785,576,310,-7.0,38.0,47.0,54.626461029052734,-8.056640625,-37.109375,-1.1243896484375,0.41845703125,-0.3876953125
8.362,310,1778,579,308,-7.0,38.0,47.0,25.329587936401367,-4.150390625,-35.64453125,-1.0972900390625,0.5662841796875,-0.37890625
8.377,310,1770,574,310,-7.0,38.0,47.0,-22.766111373901367,-10.253905296325684,-30.822751998901367,-1.4737548828125,0.6317138671875,-0.1431884765625
8.389,310,1711,586,310,-7.0,38.0,47.0,-74.0966796875,-16.90673828125,-18.61572265625,-1.8837890625,0.53857421875,0.1417236328125
8.392,310,1666,579,310,-7.0,38.0,47.0,-106.93358612060547,-15.197752952575684,2.563476324081421,-2.0631103515625,0.3861083984375,0.3280029296875
8.400,310,1598,561,309,-7.0,38.0,47.0,-113.28124237060547,-3.540038824081421,30.700681686401367,-2.02197265625,0.3406982421875,0.4085693359375
8.434,309,1462,522,310,-7.0,38.0,47.0,-103.57665252685547,13.732909202575684,62.988277435302734,-1.8544921875,0.39990234375,0.39208984375
8.435,310,1393,504,310,-7.0,38.0,47.0,-87.46337127685547,31.249998092651367,93.32274627685547,-1.57470703125,0.4237060546875,0.303955078125
8.435,310,1308,488,309,-5.0,39.0,44.0,-65.73486328125,44.616695404052734,110.16844940185547,-1.08447265625,0.2581787109375,0.238525390625
8.444,310,1162,442,308,-5.0,39.0,44.0,-34.60693359375,53.283687591552734,104.91942596435547,-0.468994140625,-0.0870361328125,0.187255859375
8.452,310,1051,423,309,-5.0,39.0,44.0,5.920409679412842,60.058589935302734,80.74950408935547,0.007080078125,-0.4376220703125,0.0498046875
8.460,310,939,414,310,-5.0,39.0,44.0,45.776363372802734,65.61279296875,49.194332122802734,0.251708984375,-0.4998779296875,-0.146728515625
8.504,310,818,411,309,-5.0,39.0,44.0,70.80078125,67.3828125,22.338865280151367,0.2254638671875,-0.1575927734375,-0.23486328125
8.504,310,739,408,309,-5.0,39.0,44.0,67.9931640625,58.898921966552734,4.82177734375,-0.0477294921875,0.3509521484375,-0.1309814453125
8.505,310,666,410,309,-5.0,39.0,44.0,37.65869140625,39.9169921875,-7.019042491912842,-0.3658447265625,0.8079833984375,0.0107421875
8.505,297,592,409,310,-5.0,39.0,44.0,-0.8544921278953552,20.263669967651367,-14.892577171325684,-0.57373046875,1.06103515625,0.0201416015625
8.512,310,562,409,308,-5.0,39.0,44.0,-30.761716842651367,7.141112804412842,-18.6767578125,-0.7724609375,1.0042724609375,-0.069091796875
8.520,310,527,411,310,-5.0,39.0,44.0,-45.104976654052734,0.4882812201976776,-18.49365234375,-0.97314453125,0.73046875,-0.1373291015625
8.534,309,468,410,309,-5.0,39.0,46.0,-41.687007904052734,0.7934569716453552,-16.4794921875,-1.0323486328125,0.48095703125,-0.17431640625
8.542,310,426,407,310,-5.0,39.0,46.0,-30.761716842651367,6.103515148162842,-14.709471702575684,-0.9725341796875,0.3685302734375,-0.1719970703125
8.550,308,373,401,309,-5.0,39.0,46.0,-29.296873092651367,8.36181640625,-13.488768577575684,-0.8970947265625,0.3157958984375,-0.0758056640625
8.564,308,352,393,310,-5.0,39.0,46.0,-36.68212890625,3.845214605331421,-10.742186546325684,-0.81884765625,0.157470703125,0.21875
8.572,310,349,388,308,-5.0,39.0,46.0,-40.0390625,-3.479003667831421,-3.906249761581421,-0.81884765625,0.157470703125,0.21875
8.581,310,342,386,310,-5.0,39.0,46.0,-32.1044921875,-8.97216796875,4.8828125,-0.751953125,0.0467529296875,0.2880859375
8.612,309,349,387,309,-5.0,39.0,46.0,-12.939452171325684,-10.559081077575684,12.512206077575684,-0.7001953125,0.1058349609375,0.1878662109375
8.613,296,349,391,309,-5.0,39.0,46.0,11.474608421325684,-9.27734375,18.73779296875,-0.7001953125,0.1058349609375,0.1878662109375
8.613,293,337,387,309,-5.0,39.0,46.0,31.921384811401367,-7.446288585662842,23.925779342651367,-0.718017578125,0.260498046875,0.111572265625
8.624,310,357,386,309,-5.0,39.0,46.0,42.541500091552734,-6.225585460662842,26.916501998901367,-0.7420654296875,0.481689453125,0.0362548828125
8.632,309,364,386,310,-7.0,41.0,41.0,42.785640716552734,-5.859374523162842,27.709959030151367,-0.7420654296875,0.481689453125,0.0362548828125
8.667,308,371,386,310,-7.0,41.0,41.0,36.19384765625,-5.798339366912842,27.404783248901367,-0.7275390625,0.48046875,-0.0050048828125
