time,compression0,compression1,compression2,compression3,magn_x,magn_y,magn_z,gyro_x,gyro_y,gyro_z,accel_x,accel_y,accel_z
0.001,310,408,420,310,-8.0,42.0,40.0,-8.4228515625,1.5258787870407104,-2.807616949081421,-0.8662109375,0.4298095703125,-0.256103515625
0.008,310,402,419,310,-10.0,43.0,38.0,-11.474608421325684,1.5869139432907104,-5.981444835662842,-0.8817138671875,0.40625,-0.2611083984375
0.016,309,407,419,310,-10.0,43.0,38.0,-11.474608421325684,1.5869139432907104,-5.981444835662842,-0.8980712890625,0.370849609375,-0.2464599609375
0.067,310,401,417,308,-10.0,43.0,38.0,-17.15087890625,0.30517578125,-7.629394054412842,-0.9071044921875,0.341552734375,-0.2227783203125
0.068,310,401,419,309,-10.0,43.0,38.0,-15.075682640075684,-1.5869139432907104,-5.981444835662842,-0.9029541015625,0.33154296875,-0.20263671875
0.068,310,396,415,310,-10.0,43.0,38.0,-15.075682640075684,-1.5869139432907104,-5.981444835662842,-0.8873291015625,0.3436279296875,-0.18701171875
0.069,308,398,411,308,-10.0,43.0,38.0,-6.591796398162842,-4.57763671875,-1.8920897245407104,-0.8740234375,0.361328125,-0.173828125
0.069,297,386,396,310,-10.0,43.0,38.0,-3.112792730331421,-4.69970703125,-1.3427733182907104,-0.873046875,0.3709716796875,-0.16796875
0.076,310,401,413,310,-10.0,43.0,38.0,-3.112792730331421,-4.69970703125,-1.3427733182907104,-0.880615234375,0.374267578125,-0.175048828125
0.090,310,411,408,310,-10.0,43.0,38.0,-0.4272460639476776,-2.01416015625,-1.220703125,-0.890869140625,0.37109375,-0.19775390625
0.100,308,415,408,310,-10.0,43.0,38.0,-2.25830078125,-0.7324218153953552,-1.0986328125,-0.900390625,0.3631591796875,-0.2213134765625
0.106,310,413,407,310,-7.0,42.0,40.0,-5.0048828125,-0.54931640625,-0.6713866591453552,-0.90771484375,0.3614501953125,-0.23193359375
0.121,310,415,396,310,-7.0,42.0,40.0,-6.896972179412842,-1.15966796875,0.0610351525247097,-0.909423828125,0.3736572265625,-0.2342529296875
0.128,310,420,396,309,-7.0,42.0,40.0,-7.812499523162842,-1.9531248807907104,0.54931640625,-0.9039306640625,0.38427734375,-0.2271728515625
0.149,310,420,393,311,-7.0,42.0,40.0,-8.36181640625,-2.563476324081421,0.4272460639476776,-0.8935546875,0.375244140625,-0.20947265625
0.169,309,423,385,310,-7.0,42.0,40.0,-8.60595703125,-3.051757574081421,0.3662109076976776,-0.8828125,0.3575439453125,-0.1910400390625
0.171,310,426,387,310,-7.0,42.0,40.0,-8.1787109375,-3.356933355331421,0.9765624403953552,-0.8760986328125,0.3531494140625,-0.1800537109375
0.171,310,427,389,310,-7.0,42.0,40.0,-7.141112804412842,-3.723144292831421,1.7089842557907104,-0.8751220703125,0.359375,-0.1788330078125
0.180,310,432,393,310,-7.0,42.0,40.0,-5.859374523162842,-3.967284917831421,2.44140625,-0.8814697265625,0.3662109375,-0.1849365234375
0.188,309,435,396,310,-7.0,42.0,40.0,-4.5166015625,-4.2724609375,3.295898199081421,-0.894775390625,0.3773193359375,-0.1959228515625
0.200,308,437,393,310,-7.0,42.0,40.0,-3.601073980331421,-4.7607421875,4.21142578125,-0.906005859375,0.3873291015625,-0.203125
0.211,310,441,395,310,-9.0,43.0,41.0,-2.807616949081421,-5.615233898162842,4.69970703125,-0.9017333984375,0.3875732421875,-0.2003173828125
0.218,310,440,396,310,-9.0,43.0,41.0,-1.5869139432907104,-6.591796398162842,4.45556640625,-0.8878173828125,0.385009765625,-0.1962890625
0.228,310,444,398,310,-9.0,43.0,41.0,-0.30517578125,-7.446288585662842,3.601073980331421,-0.8765869140625,0.3841552734375,-0.195556640625
0.242,308,452,401,310,-9.0,43.0,41.0,0.3662109076976776,-7.934569835662842,2.50244140625,-0.8717041015625,0.3863525390625,-0.19921875
0.264,310,452,402,310,-9.0,43.0,41.0,0.1831054538488388,-8.11767578125,1.4038084745407104,-0.8758544921875,0.3924560546875,-0.2091064453125
0.271,309,457,408,310,-9.0,43.0,41.0,-1.4648436307907104,-8.30078125,0.6103515625,-0.8856201171875,0.4002685546875,-0.2193603515625
0.271,310,465,393,308,-9.0,43.0,41.0,-4.08935546875,-8.4228515625,0.0610351525247097,-0.8929443359375,0.410400390625,-0.2247314453125
0.279,310,465,414,310,-9.0,43.0,41.0,-7.080077648162842,-8.4228515625,-0.7934569716453552,-0.8956298828125,0.4166259765625,-0.2220458984375
0.286,310,466,411,310,-9.0,43.0,41.0,-9.1552734375,-8.48388671875,-2.0751953125,-0.895263671875,0.4140625,-0.2119140625
0.300,310,469,418,310,-10.0,43.0,42.0,-9.58251953125,-8.6669921875,-3.417968511581421,-0.891357421875,0.41015625,-0.203369140625
0.316,311,477,419,309,-10.0,43.0,42.0,-8.97216796875,-8.97216796875,-4.7607421875,-0.8863525390625,0.406005859375,-0.1962890625
0.317,310,477,415,310,-10.0,43.0,42.0,-8.6669921875,-9.46044921875,-6.042479991912842,-0.884765625,0.398193359375,-0.18603515625
0.330,310,481,423,310,-10.0,43.0,42.0,-8.7890625,-9.8876953125,-6.896972179412842,-0.8870849609375,0.390380859375,-0.177001953125
0.344,310,481,424,308,-10.0,43.0,42.0,-8.60595703125,-9.8876953125,-6.958007335662842,-0.895751953125,0.3875732421875,-0.17333984375
0.347,309,488,423,312,-10.0,43.0,42.0,-8.23974609375,-9.3994140625,-6.408690929412842,-0.9105224609375,0.388671875,-0.1722412109375
0.415,309,491,423,309,-10.0,43.0,42.0,-7.934569835662842,-8.60595703125,-5.676269054412842,-0.9228515625,0.390380859375,-0.170166015625
0.436,310,494,423,310,-10.0,43.0,42.0,-7.629394054412842,-7.873534679412842,-4.7607421875,-0.9276123046875,0.3878173828125,-0.1646728515625
0.490,310,495,430,309,-10.0,43.0,42.0,-4.82177734375,-7.507323741912842,-3.112792730331421,-0.921875,0.3739013671875,-0.1414794921875
0.492,309,495,424,308,-10.0,43.0,42.0,-1.3427733182907104,-7.385253429412842,-2.868652105331421,-0.9169921875,0.3699951171875,-0.134765625
0.492,310,496,425,310,-5.0,42.0,40.0,2.197265625,-6.896972179412842,-2.807616949081421,-0.9156494140625,0.3719482421875,-0.1402587890625
0.492,310,496,427,310,-5.0,42.0,40.0,4.2724609375,-6.225585460662842,-2.563476324081421,-0.9122314453125,0.3763427734375,-0.1573486328125
0.493,310,496,432,310,-5.0,42.0,40.0,4.5166015625,-5.432128429412842,-2.0751953125,-0.9122314453125,0.3763427734375,-0.1573486328125
0.493,309,497,430,311,-5.0,42.0,40.0,3.845214605331421,-4.5166015625,-1.2817381620407104,-0.9088134765625,0.368408203125,-0.156494140625
0.493,310,497,428,310,-5.0,42.0,40.0,3.479003667831421,-3.540038824081421,-0.0610351525247097,-0.9088134765625,0.3616943359375,-0.145751953125
0.493,308,497,430,310,-5.0,42.0,40.0,3.784179449081421,-2.746581792831421,1.220703125,-0.9088134765625,0.3616943359375,-0.145751953125
0.493,310,497,428,310,-5.0,42.0,40.0,4.39453125,-2.13623046875,2.38037109375,-0.91259765625,0.367431640625,-0.148193359375
0.493,310,496,428,310,-5.0,42.0,40.0,5.065917491912842,-1.7700194120407104,3.234863042831421,-0.9219970703125,0.3909912109375,-0.16162109375
0.493,310,496,430,310,-5.0,42.0,40.0,5.676269054412842,-1.5869139432907104,3.417968511581421,-0.9219970703125,0.3909912109375,-0.16162109375
0.496,308,495,430,310,-5.0,42.0,40.0,5.981444835662842,-1.4038084745407104,3.112792730331421,-0.9195556640625,0.3912353515625,-0.1732177734375
0.513,308,490,426,310,-9.0,45.0,38.0,5.615233898162842,-1.2817381620407104,2.807616949081421,-0.9024658203125,0.3865966796875,-0.1824951171875
0.518,310,487,426,310,-9.0,45.0,38.0,4.7607421875,-1.220703125,2.685546636581421,-0.9024658203125,0.3865966796875,-0.1824951171875
0.527,310,486,428,312,-9.0,45.0,38.0,4.150390625,-1.2817381620407104,2.807616949081421,-0.8975830078125,0.3800048828125,-0.1805419921875
0.540,309,481,428,310,-9.0,45.0,38.0,4.08935546875,-1.5258787870407104,3.356933355331421,-0.9063720703125,0.3797607421875,-0.1627197265625
0.549,310,481,426,310,-9.0,45.0,38.0,4.150390625,-1.8310545682907104,3.967284917831421,-0.9063720703125,0.3797607421875,-0.1627197265625
0.561,309,480,426,310,-9.0,45.0,38.0,4.21142578125,-2.0751953125,4.2724609375,-0.90625,0.3782958984375,-0.14892578125
0.581,309,479,424,308,-9.0,45.0,38.0,6.042479991912842,-2.44140625,4.21142578125,-0.900390625,0.3809814453125,-0.1552734375
0.582,308,473,423,310,-9.0,45.0,38.0,6.042479991912842,-2.44140625,4.21142578125,-0.89892578125,0.388427734375,-0.1658935546875
0.587,309,468,423,308,-9.0,45.0,38.0,7.812499523162842,-3.112792730331421,4.08935546875,-0.89892578125,0.388427734375,-0.1658935546875
0.595,308,467,423,310,-9.0,45.0,38.0,9.033203125,-3.784179449081421,4.0283203125,-0.8997802734375,0.3963623046875,-0.1768798828125
0.609,308,465,423,310,-10.0,42.0,40.0,9.27734375,-4.21142578125,3.906249761581421,-0.9058837890625,0.408447265625,-0.189453125
0.617,310,454,424,308,-10.0,42.0,40.0,8.1787109375,-4.33349609375,3.417968511581421,-0.9058837890625,0.408447265625,-0.189453125
0.625,309,452,424,310,-10.0,42.0,40.0,6.042479991912842,-4.2724609375,2.685546636581421,-0.9083251953125,0.406005859375,-0.1817626953125
0.639,310,447,423,310,-10.0,42.0,40.0,4.39453125,-4.21142578125,1.8920897245407104,-0.9085693359375,0.389404296875,-0.165283203125
0.657,309,439,424,310,-10.0,42.0,40.0,4.8828125,-4.7607421875,1.4648436307907104,-0.905517578125,0.397216796875,-0.166259765625
0.660,309,437,423,310,-10.0,42.0,40.0,7.446288585662842,-6.103515148162842,1.03759765625,-0.905517578125,0.397216796875,-0.166259765625
0.682,309,428,424,310,-10.0,42.0,40.0,11.535643577575684,-8.544921875,-1.4648436307907104,-0.899658203125,0.4146728515625,-0.1834716796875
0.684,310,424,424,286,-10.0,42.0,40.0,11.535643577575684,-8.544921875,-1.4648436307907104,-0.90234375,0.41259765625,-0.1865234375
0.686,308,419,424,296,-10.0,42.0,40.0,10.559081077575684,-8.9111328125,-3.051757574081421,-0.90234375,0.41259765625,-0.1865234375
0.700,310,408,424,310,-9.0,42.0,35.0,5.371093273162842,-8.4228515625,-5.126952648162842,-0.901123046875,0.3865966796875,-0.1724853515625
0.707,310,399,424,310,-9.0,42.0,35.0,5.371093273162842,-8.4228515625,-5.126952648162842,-0.902099609375,0.373779296875,-0.1639404296875
0.719,310,395,426,310,-9.0,42.0,35.0,3.540038824081421,-8.36181640625,-5.187987804412842,-0.902099609375,0.373779296875,-0.1639404296875
0.744,310,387,425,308,-9.0,42.0,35.0,4.45556640625,-9.94873046875,-4.150390625,-0.905517578125,0.364501953125,-0.1551513671875
0.744,310,381,425,310,-9.0,42.0,35.0,4.45556640625,-9.94873046875,-4.150390625,-0.90283203125,0.3663330078125,-0.1566162109375
0.745,309,373,425,310,-9.0,42.0,35.0,5.554198741912842,-10.742186546325684,-3.479003667831421,-0.90283203125,0.3663330078125,-0.1566162109375
0.776,309,371,424,310,-9.0,42.0,35.0,6.713866710662842,-12.268065452575684,-3.051757574081421,-0.893310546875,0.375732421875,-0.1600341796875
0.790,308,369,425,310,-9.0,42.0,35.0,6.713866710662842,-12.268065452575684,-3.051757574081421,-0.8907470703125,0.38427734375,-0.15283203125
0.790,310,367,426,311,-9.0,42.0,35.0,6.469726085662842,-12.817381858825684,-3.356933355331421,-0.8907470703125,0.38427734375,-0.15283203125
0.790,310,360,427,293,-9.0,42.0,35.0,5.0048828125,-12.756346702575684,-4.7607421875,-0.8924560546875,0.3876953125,-0.13525390625
0.798,308,359,426,308,-8.0,41.0,41.0,3.234863042831421,-12.268065452575684,-5.126952648162842,-0.9012451171875,0.391845703125,-0.13720703125
0.805,310,357,426,310,-8.0,41.0,41.0,3.234863042831421,-12.268065452575684,-5.126952648162842,-0.9014892578125,0.3818359375,-0.1322021484375
0.820,310,363,426,310,-8.0,41.0,41.0,-1.15966796875,-11.962889671325684,-4.7607421875,-0.891357421875,0.357177734375,-0.131103515625
0.827,310,357,428,310,-8.0,41.0,41.0,-0.9155272841453552,-11.657713890075684,-4.08935546875,-0.88134765625,0.3353271484375,-0.142333984375
0.835,310,360,430,310,-8.0,41.0,41.0,-0.9155272841453552,-11.657713890075684,-4.08935546875,-0.8780517578125,0.328125,-0.15625
0.856,310,364,428,310,-8.0,41.0,41.0,1.0986328125,-11.657713890075684,-2.624511480331421,-0.8843994140625,0.3399658203125,-0.1644287109375
0.857,310,364,430,309,-8.0,41.0,41.0,-0.1220703050494194,-12.329100608825684,-1.7700194120407104,-0.9005126953125,0.3602294921875,-0.1680908203125
0.879,310,364,427,310,-8.0,41.0,41.0,-0.1220703050494194,-12.329100608825684,-1.7700194120407104,-0.9163818359375,0.3731689453125,-0.16259765625
0.879,309,367,437,310,-8.0,41.0,41.0,-7.751464366912842,-13.977049827575684,0.8544921278953552,-0.9189453125,0.3697509765625,-0.1483154296875
0.895,311,368,437,308,-8.0,41.0,41.0,-11.352538108825684,-13.671874046325684,2.13623046875,-0.9053955078125,0.3599853515625,-0.1385498046875
0.896,308,369,439,310,-9.0,41.0,37.0,-11.352538108825684,-13.671874046325684,2.13623046875,-0.8985595703125,0.357666015625,-0.1370849609375
0.909,310,371,441,310,-9.0,41.0,37.0,-18.37158203125,-12.878417015075684,3.356933355331421,-0.891845703125,0.3541259765625,-0.1273193359375
0.919,310,371,439,310,-9.0,41.0,37.0,-21.240232467651367,-13.183592796325684,4.2724609375,-0.874267578125,0.34716796875,-0.1231689453125
0.925,310,371,439,308,-9.0,41.0,37.0,-21.240232467651367,-13.183592796325684,4.2724609375,-0.861328125,0.3338623046875,-0.1256103515625
0.939,310,377,433,310,-9.0,41.0,37.0,-28.503416061401367,-12.939452171325684,8.7890625,-0.8482666015625,0.3004150390625,-0.101806640625
0.947,310,380,426,310,-9.0,41.0,37.0,-31.860349655151367,-13.122557640075684,13.122557640075684,-0.8409423828125,0.27001953125,-0.07861328125
0.958,310,384,428,310,-9.0,41.0,37.0,-33.69140625,-12.878417015075684,19.4091796875,-0.8350830078125,0.261962890625,-0.0889892578125
0.988,309,402,435,309,-9.0,41.0,37.0,-35.888671875,-12.329100608825684,26.855466842651367,-0.8055419921875,0.252685546875,-0.103515625
0.989,308,420,427,310,-9.0,41.0,37.0,-37.90283203125,-12.512206077575684,34.423828125,-0.7431640625,0.2313232421875,-0.0863037109375
0.989,310,431,475,310,-9.0,41.0,37.0,-38.2080078125,-13.427733421325684,42.114253997802734,-0.631103515625,0.174072265625,-0.0543212890625
1.001,310,490,485,310,-9.0,41.0,41.0,-33.0810546875,-16.17431640625,49.682613372802734,-0.4256591796875,0.049072265625,-0.0302734375
1.007,310,543,505,310,-9.0,41.0,41.0,-19.04296875,-25.085447311401367,56.152339935302734,-0.0341796875,-0.1025390625,0.04345703125
1.019,310,605,508,309,-9.0,41.0,41.0,5.676269054412842,-45.227046966552734,55.175777435302734,0.6026611328125,-0.3096923828125,0.24560546875
1.029,310,713,644,311,-9.0,41.0,41.0,50.476070404052734,-67.81005859375,41.015621185302734,0.9761962890625,-0.62060546875,0.37060546875
1.037,310,790,778,311,-9.0,41.0,41.0,105.40770721435547,-74.951171875,23.376462936401367,0.6182861328125,-0.39990234375,0.1427001953125
1.045,310,876,875,308,-9.0,41.0,41.0,117.79784393310547,-66.162109375,12.817381858825684,-0.2186279296875,0.56494140625,-0.2235107421875
1.061,310,982,1039,310,-9.0,41.0,41.0,60.791011810302734,-47.912593841552734,1.5869139432907104,-1.217041015625,1.51611328125,-0.61767578125
1.073,311,1034,1183,312,-9.0,41.0,41.0,-29.541013717651367,-23.010251998901367,-6.286620616912842,-2.1103515625,2.271240234375,-1.0692138671875
1.079,310,1071,1294,312,-9.0,41.0,41.0,-124.14550018310547,-13.183592796325684,-11.901854515075684,-2.579833984375,2.1466064453125,-0.7265625
1.091,310,1094,1300,312,-9.0,41.0,41.0,-188.47654724121094,-30.944822311401367,-28.808591842651367,-2.53173828125,0.8367919921875,0.58349609375
1.112,310,1082,1147,312,-7.0,39.0,42.0,-160.94969177246094,-50.598140716552734,-35.64453125,-2.230224609375,-0.4268798828125,1.6588134765625
1.112,310,1071,988,311,-7.0,39.0,42.0,-40.10009765625,-42.358394622802734,-7.568358898162842,-1.891845703125,-0.577880859375,1.51025390625
1.119,310,1081,974,311,-7.0,39.0,42.0,100.46385955810547,-1.9531248807907104,39.36767578125,-1.465087890625,0.25048828125,0.3447265625
1.129,310,1074,982,311,-7.0,39.0,42.0,172.91258239746094,38.818359375,63.903804779052734,-1.368896484375,1.1746826171875,-0.817138671875
1.135,311,1055,989,311,-7.0,39.0,42.0,138.5498046875,50.903316497802734,51.757808685302734,-1.7613525390625,1.5576171875,-1.2867431640625
1.154,310,987,1003,311,-7.0,39.0,42.0,41.748043060302734,39.306640625,26.000974655151367,-2.0081787109375,1.2266845703125,-0.9930419921875
1.165,310,943,1000,311,-7.0,39.0,42.0,-36.9873046875,21.057126998901367,12.756346702575684,-1.8690185546875,0.693115234375,-0.3565673828125
1.165,310,902,963,314,-7.0,39.0,42.0,-59.265132904052734,7.080077648162842,14.892577171325684,-1.5469970703125,0.352294921875,0.1475830078125
1.194,310,793,849,310,-7.0,39.0,42.0,-37.29248046875,2.44140625,20.874021530151367,-1.2703857421875,0.249755859375,0.2696533203125
1.194,310,739,799,312,-7.0,39.0,42.0,-0.6713866591453552,7.629394054412842,30.761716842651367,-1.0712890625,0.437255859375,0.072509765625
1.195,310,654,758,310,-12.0,38.0,38.0,20.446775436401367,13.793944358825684,42.846675872802734,-0.8138427734375,0.644287109375,-0.08251953125
1.220,310,601,714,312,-12.0,38.0,38.0,15.624999046325684,15.258788108825684,46.813961029052734,-0.4996337890625,0.61962890625,-0.034423828125
1.220,310,557,683,312,-12.0,38.0,38.0,0.6103515625,17.333984375,36.80419921875,-0.229736328125,0.4613037109375,0.0721435546875
1.227,310,530,673,310,-12.0,38.0,38.0,-9.3994140625,21.179197311401367,16.90673828125,-0.0185546875,0.3115234375,0.1552734375
1.239,310,497,684,312,-12.0,38.0,38.0,-10.681151390075684,22.583005905151367,-3.906249761581421,0.099365234375,0.2437744140625,0.1494140625
1.247,310,476,697,310,-12.0,38.0,38.0,-4.638671875,18.24951171875,-20.874021530151367,0.012451171875,0.28515625,0.0574951171875
1.255,310,463,685,310,-12.0,38.0,38.0,2.38037109375,8.11767578125,-33.75244140625,-0.234619140625,0.4102783203125,-0.0589599609375
1.269,310,454,683,310,-12.0,38.0,38.0,4.39453125,-1.2817381620407104,-42.602535247802734,-0.739013671875,0.5347900390625,-0.3360595703125
1.279,310,450,668,310,-12.0,38.0,38.0,3.356933355331421,-5.310058116912842,-47.180171966552734,-0.739013671875,0.5347900390625,-0.3360595703125
1.289,311,447,666,310,-12.0,38.0,38.0,1.8310545682907104,-7.141112804412842,-48.278804779052734,-0.8922119140625,0.53857421875,-0.327392578125
1.301,310,437,653,310,-12.0,42.0,42.0,-3.051757574081421,-9.82666015625,-47.851558685302734,-0.90771484375,0.3046875,-0.0562744140625
1.307,310,435,646,311,-12.0,42.0,42.0,-10.620116233825684,-11.657713890075684,-46.569820404052734,-0.90771484375,0.3046875,-0.0562744140625
1.326,312,426,653,310,-12.0,42.0,42.0,-13.732909202575684,-11.718749046325684,-43.395992279052734,-0.868408203125,0.2032470703125,0.0205078125
1.333,310,414,657,308,-12.0,42.0,42.0,-9.6435546875,-12.329100608825684,-39.4287109375,-0.8377685546875,0.2474365234375,0.0814208984375
1.338,310,410,660,312,-12.0,42.0,42.0,-1.7089842557907104,-14.282225608825684,-36.0107421875,-0.8377685546875,0.2474365234375,0.0814208984375
1.345,310,402,656,310,-12.0,42.0,42.0,6.286620616912842,-15.136717796325684,-32.958984375,-0.8800048828125,0.3697509765625,0.05078125
1.359,310,393,636,310,-12.0,42.0,42.0,11.718749046325684,-13.610838890075684,-30.517576217651367,-0.94482421875,0.4703369140625,-0.03564453125
1.368,310,386,620,310,-12.0,42.0,42.0,13.122557640075684,-10.375975608825684,-28.991697311401367,-0.94482421875,0.4703369140625,-0.03564453125
1.396,310,384,614,311,-12.0,42.0,42.0,11.108397483825684,-6.958007335662842,-28.381345748901367,-0.92724609375,0.419189453125,-0.0150146484375
1.397,310,373,588,310,-12.0,42.0,42.0,8.6669921875,-4.0283203125,-28.198240280151367,-0.8895263671875,0.3046875,0.0224609375
1.397,297,354,574,310,-10.0,38.0,44.0,8.23974609375,-0.8544921278953552,-27.099607467651367,-0.8895263671875,0.3046875,0.0224609375
1.405,310,357,583,310,-10.0,38.0,44.0,8.544921875,2.0751953125,-24.291990280151367,-0.8968505859375,0.32421875,0.000244140625
1.419,310,343,552,311,-10.0,38.0,44.0,6.347655773162842,5.310058116912842,-19.53125,-0.9432373046875,0.4259033203125,-0.073486328125
1.427,311,338,547,310,-10.0,38.0,44.0,6.347655773162842,5.310058116912842,-19.53125,-0.9453125,0.43115234375,-0.109375
1.443,310,329,533,310,-10.0,38.0,44.0,2.746581792831421,6.103515148162842,-19.71435546875,-0.9453125,0.43115234375,-0.109375
1.449,309,326,519,310,-10.0,38.0,44.0,-11.474608421325684,7.690429210662842,-18.61572265625,-0.85595703125,0.3243408203125,-0.0787353515625
1.457,310,328,522,310,-10.0,38.0,44.0,-11.474608421325684,7.690429210662842,-18.61572265625,-0.7418212890625,0.19873046875,-0.07080078125
1.471,310,343,523,311,-10.0,38.0,44.0,-19.775390625,9.82666015625,-14.038084983825684,-0.7418212890625,0.19873046875,-0.07080078125
1.479,310,423,558,310,-10.0,38.0,44.0,-30.273435592651367,3.845214605331421,6.347655773162842,-0.2757568359375,-0.1058349609375,-0.085205078125
1.488,310,485,587,310,-10.0,38.0,44.0,-30.273435592651367,3.845214605331421,6.347655773162842,0.1234130859375,-0.2371826171875,-0.03857421875
1.503,310,558,622,311,-7.0,39.0,42.0,-24.963376998901367,-11.779784202575684,17.333984375,0.1234130859375,-0.2371826171875,-0.03857421875
1.509,310,700,676,310,-7.0,39.0,42.0,29.357908248901367,-50.903316497802734,20.202634811401367,1.1136474609375,-0.4342041015625,0.2620849609375
1.517,310,799,802,310,-7.0,39.0,42.0,29.357908248901367,-50.903316497802734,20.202634811401367,0.980712890625,-0.3209228515625,0.070556640625
1.525,310,891,935,311,-7.0,39.0,42.0,85.20507049560547,-55.358882904052734,6.774901866912842,0.980712890625,-0.3209228515625,0.070556640625
1.540,311,1051,1143,312,-7.0,39.0,42.0,98.57176971435547,-53.527828216552734,-36.2548828125,-0.992919921875,1.154296875,-0.3753662109375
1.551,310,1105,1290,311,-7.0,39.0,42.0,98.57176971435547,-53.527828216552734,-36.2548828125,-1.912841796875,1.4075927734375,-0.487060546875
1.555,310,1159,1422,310,-7.0,39.0,42.0,9.21630859375,-46.691890716552734,-53.649898529052734,-2.433349609375,1.427490234375,-0.479736328125
1.573,312,1219,1582,310,-7.0,39.0,42.0,-144.8974609375,-37.90283203125,-41.442867279052734,-2.469482421875,0.8690185546875,0.227294921875
1.577,310,1243,1603,312,-7.0,39.0,42.0,-140.56396484375,-53.955074310302734,-33.447265625,-2.3587646484375,0.0625,1.21240234375
1.609,311,1242,1536,311,-7.0,39.0,42.0,-140.56396484375,-53.955074310302734,-33.447265625,-2.34521484375,-0.1934814453125,1.3438720703125
1.627,310,1232,1367,312,-6.0,38.0,47.0,32.04345703125,-12.084959983825684,1.03759765625,-2.06396484375,0.18994140625,0.5323486328125
2.019,298,1232,1355,311,-6.0,38.0,47.0,97.29003143310547,32.3486328125,18.1884765625,-1.1578369140625,0.7674560546875,-0.5343017578125
2.020,311,1211,1323,311,-6.0,38.0,47.0,52.917476654052734,46.508785247802734,7.568358898162842,-1.6279296875,0.99169921875,-0.6153564453125
2.021,311,1178,1294,312,-6.0,38.0,47.0,-1.03759765625,33.203125,-1.6479490995407104,-2.076171875,0.924560546875,-0.443603515625
2.021,310,1143,1281,312,-6.0,38.0,47.0,-32.470703125,18.9208984375,-5.615233898162842,-2.1165771484375,0.67724609375,-0.1654052734375
2.021,310,1069,1219,312,-6.0,38.0,47.0,-39.12353515625,9.94873046875,-2.685546636581421,-1.9296875,0.4652099609375,-0.031494140625
2.021,311,1011,1163,311,-6.0,38.0,47.0,-27.770994186401367,8.36181640625,3.723144292831421,-1.697509765625,0.34619140625,-0.03759765625
2.021,310,932,1069,311,-6.0,38.0,47.0,-4.33349609375,11.352538108825684,11.718749046325684,-1.43212890625,0.3504638671875,-0.035888671875
2.022,310,796,932,310,-6.0,39.0,39.0,17.51708984375,15.502928733825684,22.827146530151367,-1.1134033203125,0.451171875,0.0465087890625
2.022,310,718,846,311,-6.0,39.0,39.0,20.812986373901367,19.10400390625,33.8134765625,-0.755126953125,0.4473876953125,0.1954345703125
2.022,311,644,780,312,-6.0,39.0,39.0,6.652831554412842,25.878904342651367,37.841796875,-0.4307861328125,0.2447509765625,0.279541015625
2.022,310,543,667,312,-6.0,39.0,39.0,-9.46044921875,36.92626953125,34.36279296875,-0.1802978515625,-0.0093994140625,0.301025390625
2.022,310,508,622,311,-6.0,39.0,39.0,-14.526366233825684,42.419429779052734,24.963376998901367,-0.02099609375,-0.1634521484375,0.3404541015625
2.022,310,477,617,310,-6.0,39.0,39.0,-1.7700194120407104,35.5224609375,10.803221702575684,-0.0257568359375,-0.0948486328125,0.2725830078125
2.022,310,407,574,310,-6.0,39.0,39.0,27.282712936401367,23.010251998901367,-5.737304210662842,-0.1903076171875,0.13720703125,-0.0001220703125
2.022,310,386,552,310,-6.0,39.0,39.0,57.556148529052734,15.014647483825684,-20.080564498901367,-0.383544921875,0.3466796875,-0.314697265625
2.022,308,371,545,310,-6.0,39.0,39.0,68.05419921875,12.512206077575684,-22.888181686401367,-0.531982421875,0.5386962890625,-0.480712890625
2.022,310,357,540,310,-6.0,39.0,39.0,55.419918060302734,11.108397483825684,-13.549803733825684,-0.62841796875,0.712158203125,-0.47509765625
2.022,310,345,532,310,-9.0,38.0,42.0,29.968259811401367,7.751464366912842,-8.60595703125,-0.6561279296875,0.6878662109375,-0.3421630859375
2.022,310,329,535,310,-9.0,38.0,42.0,3.845214605331421,3.417968511581421,-19.34814453125,-0.662109375,0.4532470703125,-0.1702880859375
2.022,310,343,536,310,-9.0,38.0,42.0,-12.451170921325684,0.1831054538488388,-35.5224609375,-0.7119140625,0.2392578125,-0.0595703125
2.022,310,344,532,311,-9.0,38.0,42.0,-16.9677734375,-2.44140625,-44.067378997802734,-0.805419921875,0.1561279296875,-0.0263671875
2.022,310,343,537,311,-9.0,38.0,42.0,-13.854979515075684,-4.69970703125,-43.579097747802734,-0.8946533203125,0.18408203125,-0.0447998046875
2.023,315,338,524,310,-9.0,38.0,42.0,-9.21630859375,-6.042479991912842,-37.4755859375,-0.952880859375,0.279296875,-0.0828857421875
2.023,308,339,513,310,-9.0,38.0,42.0,-8.36181640625,-6.408690929412842,-30.334470748901367,-0.978759765625,0.3358154296875,-0.0869140625
2.023,310,338,506,310,-9.0,38.0,42.0,-12.023924827575684,-5.798339366912842,-25.390623092651367,-0.968017578125,0.2882080078125,-0.04248046875
2.023,310,340,512,310,-9.0,38.0,42.0,-15.686034202575684,-4.45556640625,-21.667478561401367,-0.927734375,0.1907958984375,0.0157470703125
2.023,308,342,521,310,-9.0,38.0,42.0,-14.709471702575684,-3.356933355331421,-16.845703125,-0.89013671875,0.1312255859375,0.05126953125
2.023,310,343,527,311,-7.0,39.0,46.0,-9.94873046875,-2.990722417831421,-10.009765625,-0.873046875,0.1414794921875,0.0537109375
2.023,308,345,533,310,-7.0,39.0,46.0,-6.225585460662842,-2.868652105331421,-2.13623046875,-0.8740234375,0.191650390625,0.029052734375
2.023,310,355,537,310,-7.0,39.0,46.0,-6.591796398162842,-1.7700194120407104,5.249022960662842,-0.88330078125,0.2423095703125,-0.01416015625
2.023,309,359,538,310,-7.0,39.0,46.0,-12.023924827575684,0.54931640625,10.986327171325684,-0.8662109375,0.268310546875,-0.05810546875
2.023,311,378,535,310,-7.0,39.0,46.0,-21.362302780151367,3.295898199081421,14.892577171325684,-0.7926025390625,0.262451171875,-0.0965576171875
2.023,309,414,573,310,-7.0,39.0,46.0,-32.28759765625,4.638671875,17.822265625,-0.67041015625,0.2296142578125,-0.1405029296875
2.023,310,449,614,311,-7.0,39.0,46.0,-42.114253997802734,3.112792730331421,20.874021530151367,-0.51318359375,0.1796875,-0.1669921875
2.023,310,488,654,311,-7.0,39.0,46.0,-48.278804779052734,-2.197265625,23.742673873901367,-0.3245849609375,0.128662109375,-0.1541748046875
2.023,310,607,711,310,-7.0,39.0,46.0,-47.729488372802734,-10.437010765075684,25.207517623901367,-0.0921630859375,0.05517578125,-0.1011962890625
2.023,310,698,764,311,-7.0,39.0,46.0,-42.236324310302734,-18.24951171875,24.719236373901367,0.1395263671875,-0.03271484375,-0.0426025390625
2.023,310,771,846,311,-7.0,39.0,46.0,-33.87451171875,-24.597166061401367,23.315427780151367,0.273193359375,-0.0218505859375,0.0084228515625
2.023,310,914,1078,312,-9.0,37.0,42.0,-20.690916061401367,-36.56005859375,18.85986328125,0.26953125,0.109130859375,0.1534423828125
2.023,310,996,1184,311,-9.0,37.0,42.0,-5.676269054412842,-57.373043060302734,6.225585460662842,0.10888671875,0.1927490234375,0.3642578125
2.024,310,1074,1281,311,-9.0,37.0,42.0,6.530761241912842,-72.32666015625,-14.465331077575684,-0.265869140625,0.191162109375,0.3905029296875
2.029,310,1189,1473,312,-9.0,37.0,42.0,15.991209983825684,-63.781734466552734,-30.212400436401367,-1.670654296875,1.1025390625,-0.4788818359375
2.037,311,1228,1569,311,-9.0,37.0,42.0,7.751464366912842,-39.61181640625,-27.465818405151367,-1.670654296875,1.1025390625,-0.4788818359375
2.046,310,1260,1648,314,-9.0,37.0,42.0,-36.68212890625,-27.709959030151367,-14.038084983825684,-2.189453125,1.49072265625,-0.3828125
2.066,310,1294,1711,311,-9.0,37.0,42.0,-90.02684783935547,-37.7197265625,-12.207030296325684,-2.55908203125,0.1678466796875,1.019287109375
2.068,295,1255,1650,311,-9.0,37.0,42.0,-99.60936737060547,-43.945308685302734,-22.094724655151367,-2.55908203125,0.1678466796875,1.019287109375
2.075,311,1267,1595,312,-9.0,37.0,42.0,-53.283687591552734,-23.010251998901367,-17.333984375,-2.5955810546875,-0.1461181640625,0.72119140625
2.090,310,1267,1565,311,-5.0,38.0,44.0,13.854979515075684,12.939452171325684,8.72802734375,-1.1800537109375,0.511474609375,-0.2342529296875
2.100,310,1268,1572,312,-5.0,38.0,44.0,58.288570404052734,35.46142578125,28.930662155151367,-1.1800537109375,0.511474609375,-0.2342529296875
2.105,310,1266,1566,311,-5.0,38.0,44.0,60.302730560302734,37.7197265625,26.611326217651367,-1.2288818359375,1.067626953125,-0.4547119140625
2.119,310,1234,1535,312,-5.0,38.0,44.0,29.968259811401367,29.907224655151367,7.507323741912842,-2.0465087890625,0.84521484375,-0.2303466796875
2.127,310,1191,1508,312,-5.0,38.0,44.0,-5.432128429412842,15.624999046325684,-14.343260765075684,-2.0465087890625,0.84521484375,-0.2303466796875
2.136,310,1160,1460,312,-5.0,38.0,44.0,-22.033689498901367,0.6713866591453552,-22.888181686401367,-1.9500732421875,0.491455078125,0.063720703125
2.151,311,1092,1363,312,-5.0,38.0,44.0,-15.563963890075684,-5.920409679412842,-17.63916015625,-1.55908203125,0.3363037109375,0.0977783203125
2.158,309,1026,1278,312,-5.0,38.0,44.0,1.8310545682907104,-2.3193359375,-9.82666015625,-1.55908203125,0.3363037109375,0.0977783203125
2.173,311,948,1166,313,-5.0,38.0,44.0,19.10400390625,6.164550304412842,-3.967284917831421,-1.3653564453125,0.337890625,0.02587890625
2.180,308,823,992,311,-5.0,38.0,44.0,22.644041061401367,21.057126998901367,12.573241233825684,-0.82421875,0.4154052734375,0.1424560546875
2.188,310,749,882,312,-7.0,39.0,42.0,22.644041061401367,21.057126998901367,12.573241233825684,-0.4989013671875,0.20556640625,0.2855224609375
2.218,311,664,803,312,-7.0,39.0,42.0,8.4228515625,25.817869186401367,15.869139671325684,-0.4989013671875,0.20556640625,0.2855224609375
2.218,310,557,687,310,-7.0,39.0,42.0,2.685546636581421,37.41455078125,10.681151390075684,-0.2138671875,-0.1795654296875,0.282470703125
2.219,310,499,614,310,-7.0,39.0,42.0,2.685546636581421,37.41455078125,10.681151390075684,-0.1998291015625,-0.22265625,0.2589111328125
2.263,310,384,496,310,-7.0,39.0,42.0,65.73486328125,31.249998092651367,-5.981444835662842,-0.4088134765625,0.155517578125,-0.232666015625
2.263,310,353,483,310,-7.0,39.0,42.0,65.73486328125,31.249998092651367,-5.981444835662842,-0.42919921875,0.3778076171875,-0.3372802734375
2.263,310,329,491,310,-7.0,39.0,42.0,67.81005859375,28.381345748901367,-8.30078125,-0.42919921875,0.3778076171875,-0.3372802734375
2.270,310,326,481,310,-7.0,39.0,42.0,22.827146530151367,17.9443359375,1.5258787870407104,-0.536376953125,0.7569580078125,-0.2860107421875
2.279,310,325,477,311,-7.0,39.0,42.0,22.827146530151367,17.9443359375,1.5258787870407104,-0.6236572265625,0.684814453125,-0.2181396484375
2.290,310,324,476,310,-7.0,38.0,44.0,-2.563476324081421,14.770506858825684,-3.112792730331421,-0.6236572265625,0.684814453125,-0.2181396484375
2.318,308,325,467,310,-7.0,38.0,44.0,-29.724119186401367,6.530761241912842,-25.695798873901367,-0.7723388671875,0.260986328125,-0.028076171875
2.319,307,326,477,310,-7.0,38.0,44.0,-29.724119186401367,6.530761241912842,-25.695798873901367,-0.8280029296875,0.1029052734375,0.02587890625
2.319,309,326,475,310,-7.0,38.0,44.0,-25.207517623901367,0.4272460639476776,-31.311033248901367,-0.8779296875,0.0736083984375,0.0322265625
2.330,310,326,481,310,-7.0,38.0,44.0,-0.6103515625,-10.986327171325684,-22.155759811401367,-0.9080810546875,0.123046875,0.0213623046875
2.340,310,329,491,308,-7.0,38.0,44.0,7.446288585662842,-13.305663108825684,-12.573241233825684,-0.9140625,0.169677734375,0.0072021484375
2.346,308,328,499,311,-7.0,38.0,44.0,7.446288585662842,-13.305663108825684,-12.573241233825684,-0.9078369140625,0.183837890625,-0.0006103515625
2.360,311,328,499,310,-7.0,38.0,44.0,7.019042491912842,-10.437010765075684,4.57763671875,-0.8934326171875,0.18603515625,-0.0013427734375
2.368,310,336,506,310,-7.0,38.0,44.0,3.356933355331421,-7.385253429412842,11.047362327575684,-0.86865234375,0.1983642578125,-0.007568359375
2.375,310,339,510,310,-7.0,38.0,44.0,3.356933355331421,-7.385253429412842,11.047362327575684,-0.8358154296875,0.2191162109375,-0.0216064453125
2.393,310,353,523,310,-5.0,37.0,42.0,-5.554198741912842,-3.051757574081421,21.545408248901367,-0.7989501953125,0.2431640625,-0.0458984375
2.398,309,364,540,311,-5.0,37.0,42.0,-12.145995140075684,-0.9765624403953552,26.123044967651367,-0.7640380859375,0.25927734375,-0.0753173828125
2.414,310,372,561,310,-5.0,37.0,42.0,-12.145995140075684,-0.9765624403953552,26.123044967651367,-0.734619140625,0.259765625,-0.093994140625
2.422,309,409,603,311,-5.0,37.0,42.0,-35.64453125,6.408690929412842,32.04345703125,-0.6959228515625,0.2451171875,-0.113525390625
2.428,312,444,639,312,-5.0,37.0,42.0,-49.804683685302734,9.94873046875,34.66796875,-0.6016845703125,0.1815185546875,-0.140625
2.436,310,483,684,311,-5.0,37.0,42.0,-49.804683685302734,9.94873046875,34.66796875,-0.391845703125,0.01416015625,-0.121337890625
2.452,310,607,721,310,-5.0,37.0,42.0,-64.94140625,0.4882812201976776,41.442867279052734,-0.0552978515625,-0.1597900390625,0.014404296875
2.459,310,691,756,311,-5.0,37.0,42.0,-50.903316497802734,-13.671874046325684,40.954586029052734,0.2777099609375,-0.2398681640625,0.210693359375
2.466,311,758,861,311,-5.0,37.0,42.0,-50.903316497802734,-13.671874046325684,40.954586029052734,0.4261474609375,-0.185546875,0.3197021484375
2.480,311,904,1071,311,-5.0,37.0,42.0,34.1796875,-40.771480560302734,18.06640625,0.37841796875,0.125,0.3109130859375
2.501,310,987,1162,312,-6.0,37.0,44.0,73.486328125,-59.509273529052734,-2.38037109375,0.1083984375,0.529296875,0.190673828125
2.509,311,1078,1251,311,-6.0,37.0,44.0,74.462890625,-66.0400390625,-22.766111373901367,-0.512939453125,1.0028076171875,-0.210205078125
2.519,310,1176,1483,312,-6.0,37.0,44.0,37.109375,-48.706050872802734,-29.052732467651367,-1.4676513671875,1.724853515625,-0.82763671875
2.522,310,1226,1584,312,-6.0,37.0,44.0,-31.799314498901367,-34.0576171875,-31.066892623901367,-2.222900390625,1.918212890625,-0.717041015625
2.525,312,1243,1671,312,-6.0,37.0,44.0,-102.78319549560547,-48.034664154052734,-46.997066497802734,-2.389892578125,0.95654296875,0.461669921875
2.539,310,1275,1689,312,-6.0,37.0,44.0,-112.60985565185547,-64.75830078125,-60.119625091552734,-2.4580078125,-0.2109375,1.3994140625
2.548,311,1253,1619,312,-6.0,37.0,44.0,-47.546382904052734,-46.813961029052734,-45.166011810302734,-2.6463623046875,-0.5433349609375,1.1087646484375
2.555,310,1250,1572,312,-6.0,37.0,44.0,39.794921875,-1.5869139432907104,-7.995604991912842,-2.2484130859375,-0.1810302734375,0.2252197265625
2.569,311,1264,1546,312,-6.0,37.0,44.0,89.59960174560547,32.5927734375,21.911619186401367,-1.3941650390625,0.302001953125,-0.279296875
2.577,310,1260,1533,312,-6.0,37.0,44.0,79.65087890625,42.419429779052734,29.602048873901367,-1.2042236328125,0.8558349609375,-0.4613037109375
2.585,311,1246,1519,312,-4.0,38.0,44.0,33.8134765625,40.0390625,21.057126998901367,-1.6546630859375,1.175537109375,-0.5045166015625
2.615,311,1215,1488,311,-4.0,38.0,44.0,-11.047362327575684,29.174802780151367,5.310058116912842,-1.943359375,0.9619140625,-0.275146484375
2.621,311,1173,1450,311,-4.0,38.0,44.0,-32.04345703125,14.404295921325684,-5.493163585662842,-1.868896484375,0.6446533203125,0.03857421875
2.621,310,1134,1401,311,-4.0,38.0,44.0,-28.930662155151367,6.225585460662842,-7.080077648162842,-1.667236328125,0.4844970703125,0.1427001953125
2.629,310,1050,1286,311,-4.0,38.0,44.0,-13.488768577575684,8.11767578125,-5.126952648162842,-1.48828125,0.3770751953125,0.05615234375
2.637,310,982,1201,312,-4.0,38.0,44.0,4.57763671875,13.854979515075684,-2.13623046875,-1.32763671875,0.302001953125,-0.0166015625
2.645,310,916,1096,311,-4.0,38.0,44.0,18.61572265625,19.47021484375,5.859374523162842,-1.1571044921875,0.3690185546875,-0.0260009765625
2.660,311,813,939,310,-4.0,38.0,44.0,20.202634811401367,24.536130905151367,17.39501953125,-0.9447021484375,0.437255859375,0.0450439453125
2.668,310,747,822,312,-4.0,38.0,44.0,7.385253429412842,27.954099655151367,24.169919967651367,-0.67041015625,0.331787109375,0.1947021484375
2.678,311,676,775,312,-4.0,38.0,44.0,-7.751464366912842,32.65380859375,23.620603561401367,-0.3927001953125,0.134033203125,0.285888671875
2.689,310,585,700,311,-6.0,40.0,44.0,-9.33837890625,37.04833984375,18.00537109375,-0.2276611328125,-0.008544921875,0.248779296875
2.730,310,538,659,311,-6.0,40.0,44.0,6.225585460662842,32.89794921875,6.225585460662842,-0.21630859375,-0.0384521484375,0.1650390625
2.730,310,509,629,310,-6.0,40.0,44.0,27.648923873901367,21.972654342651367,-8.6669921875,-0.3155517578125,0.036865234375,0.0450439453125
2.731,311,457,579,310,-6.0,40.0,44.0,43.212886810302734,14.831542015075684,-17.76123046875,-0.445556640625,0.173095703125,-0.1422119140625
2.731,308,434,552,310,-6.0,40.0,44.0,47.607418060302734,14.038084983825684,-17.76123046875,-0.5220947265625,0.3055419921875,-0.3076171875
2.736,309,414,530,310,-6.0,40.0,44.0,41.625972747802734,15.136717796325684,-13.061522483825684,-0.55322265625,0.4312744140625,-0.339111328125
2.750,308,393,519,310,-6.0,40.0,44.0,30.761716842651367,14.221190452575684,-8.97216796875,-0.572265625,0.5345458984375,-0.2203369140625
2.757,310,379,522,310,-6.0,40.0,44.0,17.02880859375,10.681151390075684,-9.3994140625,-0.597412109375,0.5465087890625,-0.0692138671875
2.768,312,373,525,310,-6.0,40.0,44.0,2.563476324081421,7.263183116912842,-16.357421875,-0.651123046875,0.470458984375,0.0076904296875
2.780,310,372,523,310,-6.0,40.0,44.0,-7.934569835662842,5.0048828125,-25.512693405151367,-0.7239990234375,0.36279296875,0.016845703125
2.790,309,372,523,310,-6.0,40.0,44.0,-11.413573265075684,3.234863042831421,-30.395505905151367,-0.79736328125,0.2659912109375,-0.0098876953125
2.802,309,378,530,311,-6.0,40.0,44.0,-8.48388671875,1.8920897245407104,-29.602048873901367,-0.860107421875,0.2109375,-0.04931640625
2.833,310,379,535,310,-6.0,40.0,44.0,-4.33349609375,0.6713866591453552,-24.658201217651367,-0.93505859375,0.2154541015625,-0.056640625
2.834,310,380,533,310,-6.0,40.0,44.0,-3.845214605331421,-0.6103515625,-17.9443359375,-0.93505859375,0.2154541015625,-0.056640625
2.834,309,382,537,310,-6.0,40.0,44.0,-7.141112804412842,-1.4038084745407104,-11.657713890075684,-0.932861328125,0.1988525390625,-0.0283203125
2.840,308,385,543,310,-6.0,40.0,44.0,-11.474608421325684,-1.4038084745407104,-6.042479991912842,-0.910888671875,0.15625,0.02294921875
2.848,310,387,554,310,-6.0,40.0,44.0,-15.380858421325684,-0.2441406100988388,0.1220703050494194,-0.910888671875,0.15625,0.02294921875
2.855,311,391,558,311,-6.0,40.0,44.0,-17.333984375,1.9531248807907104,7.263183116912842,-0.8900146484375,0.177001953125,0.0220947265625
2.871,310,402,572,310,-6.0,40.0,44.0,-16.7236328125,3.234863042831421,14.038084983825684,-0.7841796875,0.2010498046875,-0.0262451171875
2.878,310,410,590,311,-6.0,40.0,44.0,-17.333984375,2.929687261581421,20.202634811401367,-0.7841796875,0.2010498046875,-0.0262451171875
2.885,311,415,629,308,-6.0,38.0,38.0,-22.399900436401367,2.929687261581421,26.062009811401367,-0.7171630859375,0.223876953125,-0.0606689453125
2.910,310,473,698,310,-6.0,38.0,38.0,-33.3251953125,4.7607421875,30.761716842651367,-0.412353515625,0.1646728515625,-0.113037109375
2.918,311,522,739,312,-6.0,38.0,38.0,-47.729488372802734,5.920409679412842,32.71484375,-0.412353515625,0.1646728515625,-0.113037109375
2.935,310,577,737,311,-6.0,38.0,38.0,-56.640621185302734,1.8310545682907104,31.799314498901367,-0.12451171875,-0.0035400390625,-0.0677490234375
2.935,310,684,826,311,-6.0,38.0,38.0,-50.964351654052734,-7.690429210662842,30.639646530151367,0.2978515625,-0.16552734375,0.0811767578125
2.939,311,764,947,311,-6.0,38.0,38.0,-24.108884811401367,-18.00537109375,31.738279342651367,0.259765625,0.1639404296875,0.088134765625
2.946,310,846,1074,310,-6.0,38.0,38.0,17.02880859375,-30.517576217651367,28.869626998901367,0.259765625,0.1639404296875,0.088134765625
2.959,310,1000,1271,311,-6.0,38.0,38.0,42.297359466552734,-69.88525390625,-18.00537109375,-0.234619140625,0.5384521484375,0.033447265625
2.968,310,1091,1393,311,-6.0,38.0,38.0,42.297359466552734,-69.88525390625,-18.00537109375,-0.88134765625,0.819580078125,-0.229736328125
2.975,310,1160,1518,312,-6.0,38.0,38.0,24.719236373901367,-68.2373046875,-38.51318359375,-0.88134765625,0.819580078125,-0.229736328125
2.989,310,1239,1679,314,-7.0,38.0,45.0,-69.2138671875,-41.687007904052734,-29.968259811401367,-2.16162109375,1.4547119140625,-0.2457275390625
2.997,311,1264,1753,312,-7.0,38.0,45.0,-69.2138671875,-41.687007904052734,-29.968259811401367,-2.3048095703125,0.6864013671875,0.7420654296875
3.006,310,1281,1789,312,-7.0,38.0,45.0,-118.59130096435547,-55.603023529052734,-30.517576217651367,-2.3048095703125,0.6864013671875,0.7420654296875
3.036,311,1261,1694,311,-7.0,38.0,45.0,-38.75732421875,-30.822751998901367,-10.925292015075684,-2.564453125,-0.42138671875,0.8232421875
3.036,310,1251,1664,312,-7.0,38.0,45.0,-38.75732421875,-30.822751998901367,-10.925292015075684,-1.9326171875,-0.0067138671875,0.0546875
3.037,310,1243,1640,312,-7.0,38.0,45.0,40.710445404052734,21.118162155151367,21.667478561401367,-1.9326171875,-0.0067138671875,0.0546875
3.049,311,1242,1637,312,-7.0,38.0,45.0,65.673828125,47.912593841552734,36.4990234375,-1.070068359375,1.04736328125,-0.462890625
3.058,310,1232,1632,312,-7.0,38.0,45.0,65.673828125,47.912593841552734,36.4990234375,-1.5518798828125,1.1903076171875,-0.4580078125
3.065,310,1214,1621,312,-7.0,38.0,45.0,26.245115280151367,34.66796875,18.06640625,-1.5518798828125,1.1903076171875,-0.4580078125
3.080,310,1166,1568,313,-4.0,39.0,41.0,-33.02001953125,6.286620616912842,-10.681151390075684,-1.80908203125,0.5272216796875,0.1011962890625
3.088,311,1123,1514,312,-4.0,39.0,41.0,-28.564451217651367,3.295898199081421,-6.652831554412842,-1.6527099609375,0.395751953125,0.2281494140625
3.096,312,1078,1463,312,-4.0,39.0,41.0,-28.564451217651367,3.295898199081421,-6.652831554412842,-1.5599365234375,0.400390625,0.1815185546875
3.113,310,964,1338,312,-4.0,39.0,41.0,9.21630859375,21.240232467651367,9.70458984375,-1.4901123046875,0.4569091796875,0.0899658203125
3.141,310,889,1239,311,-4.0,39.0,41.0,23.071287155151367,31.127927780151367,20.080564498901367,-1.3695068359375,0.5166015625,0.023193359375
3.141,310,819,1139,312,-4.0,39.0,41.0,23.071287155151367,31.127927780151367,20.080564498901367,-1.12548828125,0.432373046875,0.06640625
3.142,309,696,963,311,-4.0,39.0,41.0,20.080564498901367,40.0390625,40.0390625,-0.740966796875,0.1878662109375,0.1865234375
3.147,310,621,876,312,-4.0,39.0,41.0,15.869139671325684,42.053218841552734,39.36767578125,-0.3564453125,-0.066650390625,0.2550048828125
3.155,310,568,784,311,-4.0,39.0,41.0,15.869139671325684,42.053218841552734,39.36767578125,-0.1348876953125,-0.196533203125,0.2564697265625
3.172,310,490,676,310,-4.0,39.0,41.0,32.8369140625,31.249998092651367,18.1884765625,-0.1153564453125,-0.1409912109375,0.2021484375
3.178,310,439,657,310,-4.0,39.0,41.0,51.513668060302734,23.193357467651367,2.929687261581421,-0.235595703125,0.0482177734375,0.0179443359375
3.187,311,402,600,310,-9.0,41.0,44.0,51.513668060302734,23.193357467651367,2.929687261581421,-0.375244140625,0.258056640625,-0.2353515625
3.200,310,367,549,310,-9.0,41.0,44.0,76.84326171875,25.085447311401367,-14.770506858825684,-0.4921875,0.4912109375,-0.4215087890625
3.212,310,339,537,310,-9.0,41.0,44.0,71.59423828125,26.855466842651367,-11.169432640075684,-0.5787353515625,0.74609375,-0.4859619140625
3.216,311,337,537,310,-9.0,41.0,44.0,71.59423828125,26.855466842651367,-11.169432640075684,-0.5848388671875,0.8035888671875,-0.379150390625
3.246,310,325,538,311,-9.0,41.0,44.0,20.080564498901367,10.925292015075684,-15.075682640075684,-0.552978515625,0.58447265625,-0.1455078125
3.246,311,325,543,310,-9.0,41.0,44.0,-2.563476324081421,0.6103515625,-27.893064498901367,-0.573486328125,0.3580322265625,0.04931640625
3.247,309,326,548,310,-9.0,41.0,44.0,-7.141112804412842,-6.286620616912842,-36.43798828125,-0.658203125,0.2510986328125,0.1024169921875
3.259,310,329,557,310,-9.0,41.0,44.0,1.2817381620407104,-8.60595703125,-39.55078125,-0.7694091796875,0.197021484375,0.03515625
3.268,309,328,564,310,-9.0,41.0,44.0,11.291502952575684,-7.019042491912842,-37.90283203125,-0.8685302734375,0.17578125,-0.068359375
3.280,310,328,562,308,-9.0,41.0,44.0,15.380858421325684,-5.126952648162842,-30.761716842651367,-0.936279296875,0.181640625,-0.1259765625
3.289,310,337,572,310,-9.0,39.0,40.0,12.756346702575684,-5.432128429412842,-20.263669967651367,-0.96484375,0.195556640625,-0.111328125
3.298,310,337,574,311,-9.0,39.0,40.0,6.652831554412842,-7.141112804412842,-9.46044921875,-0.9560546875,0.1888427734375,-0.045654296875
3.305,310,337,580,310,-9.0,39.0,40.0,1.4648436307907104,-8.1787109375,-0.1220703050494194,-0.9332275390625,0.16796875,0.0062255859375
3.319,310,340,592,310,-9.0,39.0,40.0,0.30517578125,-7.934569835662842,7.568358898162842,-0.9130859375,0.1793212890625,0.0107421875
3.346,310,341,594,310,-9.0,39.0,40.0,1.7089842557907104,-6.896972179412842,13.854979515075684,-0.8975830078125,0.2313232421875,-0.0087890625
3.346,310,341,601,310,-9.0,39.0,40.0,2.13623046875,-5.554198741912842,19.287109375,-0.8792724609375,0.2841796875,-0.03271484375
3.353,310,364,621,309,-9.0,39.0,40.0,-0.1220703050494194,-4.150390625,24.536130905151367,-0.8421630859375,0.311767578125,-0.05712890625
3.357,310,373,639,310,-9.0,39.0,40.0,-5.126952648162842,-3.173827886581421,29.541013717651367,-0.78466796875,0.3209228515625,-0.0777587890625
3.366,310,381,657,311,-9.0,39.0,40.0,-11.962889671325684,-2.746581792831421,33.5693359375,-0.7154541015625,0.3045654296875,-0.0953369140625
3.383,310,435,687,310,-7.0,42.0,37.0,-18.9208984375,-2.38037109375,36.80419921875,-0.6461181640625,0.254638671875,-0.1077880859375
3.388,310,475,698,310,-7.0,42.0,37.0,-24.719236373901367,-2.563476324081421,40.893550872802734,-0.54248046875,0.189453125,-0.0616455078125
3.396,310,516,716,312,-7.0,42.0,37.0,-28.747556686401367,-3.540038824081421,46.142574310302734,-0.343505859375,0.161376953125,0.017333984375
3.417,310,627,858,311,-7.0,42.0,37.0,-29.357908248901367,-5.065917491912842,48.522945404052734,-0.04296875,0.1954345703125,0.0458984375
3.418,310,698,947,310,-7.0,42.0,37.0,-24.963376998901367,-10.070799827575684,39.97802734375,0.2808837890625,0.22802734375,0.07177734375
3.440,311,764,1094,312,-7.0,42.0,37.0,-14.343260765075684,-22.338865280151367,15.686034202575684,0.41650390625,0.1817626953125,0.0992431640625
3.452,309,893,1377,311,-7.0,42.0,37.0,-4.08935546875,-37.841796875,-12.634276390075684,0.2999267578125,0.2095947265625,0.02880859375
3.452,310,980,1508,312,-7.0,42.0,37.0,-3.356933355331421,-50.720211029052734,-33.3251953125,-0.015380859375,0.318603515625,-0.1436767578125
3.455,311,1042,1613,311,-7.0,42.0,37.0,-11.901854515075684,-56.091304779052734,-47.790523529052734,-0.6282958984375,0.4598388671875,-0.3876953125
3.469,312,1188,1774,312,-7.0,42.0,37.0,-31.738279342651367,-51.208492279052734,-51.147457122802734,-1.4385986328125,0.843017578125,-0.56591796875
3.479,312,1242,1878,313,-5.0,37.0,45.0,-75.98876953125,-46.936031341552734,-42.419429779052734,-2.130615234375,1.1385498046875,-0.3228759765625
3.485,311,1282,1920,312,-5.0,37.0,45.0,-132.50732421875,-52.490230560302734,-33.3251953125,-2.5584716796875,0.74365234375,0.4368896484375
3.499,311,1292,1911,312,-5.0,37.0,45.0,-150.5126953125,-57.983394622802734,-22.644041061401367,-2.6796875,-0.1416015625,1.195556640625
3.507,312,1268,1865,313,-5.0,37.0,45.0,-96.00829315185547,-41.259761810302734,5.981444835662842,-2.50537109375,-0.37890625,1.21875
3.519,311,1243,1845,312,-5.0,37.0,45.0,0.6713866591453552,-0.3662109076976776,48.400875091552734,-1.8421630859375,0.199951171875,0.6075439453125
3.539,311,1216,1813,312,-5.0,37.0,45.0,76.904296875,36.4990234375,68.359375,-1.0330810546875,0.84375,0.00830078125
3.540,311,1204,1815,313,-5.0,37.0,45.0,92.71239471435547,53.222652435302734,51.574703216552734,-0.8192138671875,1.237060546875,-0.40673828125
3.546,310,1196,1810,313,-5.0,37.0,45.0,56.396480560302734,52.490230560302734,17.9443359375,-1.2501220703125,1.2344970703125,-0.616943359375
3.559,310,1151,1785,312,-5.0,37.0,45.0,6.591796398162842,38.6962890625,-9.521484375,-2.0850830078125,0.6571044921875,-0.205322265625
3.567,310,1112,1748,312,-5.0,37.0,45.0,-28.259275436401367,18.37158203125,-18.24951171875,-2.0850830078125,0.6571044921875,-0.205322265625
3.579,310,1067,1691,312,-5.0,37.0,40.0,-37.17041015625,2.807616949081421,-11.291502952575684,-1.962890625,0.4554443359375,0.06982421875
3.589,311,966,1566,312,-5.0,37.0,40.0,-24.597166061401367,0.7934569716453552,1.15966796875,-1.5704345703125,0.535888671875,0.06201171875
3.597,311,905,1474,312,-5.0,37.0,40.0,-5.187987804412842,8.97216796875,12.145995140075684,-1.5704345703125,0.535888671875,0.06201171875
3.605,312,840,1374,311,-5.0,37.0,40.0,9.8876953125,19.1650390625,21.972654342651367,-1.2947998046875,0.521240234375,0.1058349609375
3.621,310,714,1213,311,-5.0,37.0,40.0,17.15087890625,26.062009811401367,30.151365280151367,-0.55029296875,0.106201171875,0.3094482421875
3.649,310,648,1098,312,-5.0,37.0,40.0,21.606443405151367,31.555173873901367,33.99658203125,-0.55029296875,0.106201171875,0.3094482421875
3.649,310,594,1008,312,-5.0,37.0,40.0,28.503416061401367,36.376953125,32.470703125,-0.241455078125,-0.0638427734375,0.2674560546875
3.650,310,495,891,312,-5.0,37.0,40.0,37.109375,36.865234375,25.024412155151367,-0.073974609375,-0.0853271484375,0.0489501953125
3.663,310,439,835,312,-5.0,37.0,40.0,49.804683685302734,33.38623046875,13.000487327575684,-0.073974609375,-0.0853271484375,0.0489501953125
3.672,310,407,770,310,-5.0,37.0,40.0,67.7490234375,29.357908248901367,-2.3193359375,-0.193603515625,0.1456298828125,-0.1483154296875
3.680,310,367,733,310,-7.0,40.0,39.0,78.2470703125,27.343748092651367,-19.95849609375,-0.465576171875,0.531005859375,-0.475341796875
3.697,310,359,711,310,-7.0,40.0,39.0,69.39697265625,25.634763717651367,-31.066892623901367,-0.465576171875,0.531005859375,-0.475341796875
3.697,308,342,696,310,-7.0,40.0,39.0,47.546382904052734,21.057126998901367,-29.602048873901367,-0.5902099609375,0.6944580078125,-0.428955078125
3.710,309,338,660,310,-7.0,40.0,39.0,-0.6103515625,6.164550304412842,-25.756834030151367,-0.63916015625,0.5382080078125,-0.0390625
3.724,310,337,662,310,-7.0,40.0,39.0,-0.6103515625,6.164550304412842,-25.756834030151367,-0.6435546875,0.3272705078125,0.0906982421875
3.725,310,337,662,310,-7.0,40.0,39.0,-13.183592796325684,-2.25830078125,-31.616209030151367,-0.6435546875,0.3272705078125,0.0906982421875
3.748,310,343,660,311,-7.0,40.0,39.0,6.103515148162842,-11.718749046325684,-37.17041015625,-0.79541015625,0.27978515625,-0.0355224609375
3.751,310,339,657,310,-7.0,40.0,39.0,6.103515148162842,-11.718749046325684,-37.17041015625,-0.89990234375,0.359619140625,-0.1107177734375
3.762,309,341,656,310,-7.0,40.0,39.0,18.9208984375,-13.916014671325684,-35.7666015625,-0.89990234375,0.359619140625,-0.1107177734375
3.770,308,342,657,310,-7.0,40.0,39.0,16.845703125,-18.12744140625,-32.5927734375,-0.9407958984375,0.3155517578125,-0.052490234375
3.778,310,338,668,310,-8.0,38.0,41.0,16.845703125,-18.12744140625,-32.5927734375,-0.9151611328125,0.2183837890625,0.0062255859375
3.787,308,344,683,310,-8.0,38.0,41.0,7.507323741912842,-18.37158203125,-27.221677780151367,-0.9151611328125,0.2183837890625,0.0062255859375
3.804,308,353,700,310,-8.0,38.0,41.0,-1.8310545682907104,-13.854979515075684,-8.9111328125,-0.890380859375,0.069580078125,0.0672607421875
3.807,310,360,728,310,-8.0,38.0,41.0,-1.8310545682907104,-13.854979515075684,-8.9111328125,-0.8857421875,0.082275390625,0.0615234375
3.816,310,365,753,310,-8.0,38.0,41.0,-0.7934569716453552,-10.681151390075684,1.8920897245407104,-0.8857421875,0.082275390625,0.0615234375
3.830,310,391,796,310,-8.0,38.0,41.0,1.15966796875,-9.70458984375,24.475095748901367,-0.8123779296875,0.2027587890625,0.0323486328125
3.855,309,402,819,310,-8.0,38.0,41.0,1.15966796875,-9.70458984375,24.475095748901367,-0.7333984375,0.2550048828125,-0.02587890625
3.856,310,434,840,310,-8.0,38.0,41.0,1.0986328125,-10.498045921325684,34.0576171875,-0.634765625,0.26708984375,-0.0819091796875
3.867,310,504,932,311,-8.0,38.0,41.0,-5.859374523162842,-9.27734375,44.372554779052734,-0.4761962890625,0.23779296875,-0.1243896484375
3.878,310,551,996,310,-8.0,38.0,41.0,-12.695311546325684,-7.934569835662842,46.203609466552734,-0.2476806640625,0.2347412109375,-0.1351318359375
3.892,310,622,1097,310,-9.0,40.0,45.0,-12.695311546325684,-7.934569835662842,46.203609466552734,0.0404052734375,0.3084716796875,-0.0894775390625
3.893,296,754,1268,294,-9.0,40.0,45.0,-10.803221702575684,-21.057126998901367,29.907224655151367,0.2869873046875,0.347412109375,-0.07275390625
3.900,311,830,1428,311,-9.0,40.0,45.0,-12.878417015075684,-35.46142578125,6.042479991912842,0.404541015625,0.3055419921875,-0.071044921875
3.908,312,916,1543,312,-9.0,40.0,45.0,-19.287109375,-53.283687591552734,-22.460935592651367,0.327392578125,0.3321533203125,-0.01904296875
3.917,310,987,1656,312,-9.0,40.0,45.0,-19.287109375,-53.283687591552734,-22.460935592651367,-0.1142578125,0.4222412109375,-0.0789794921875
3.930,310,1147,1816,312,-9.0,40.0,45.0,-27.832029342651367,-60.241695404052734,-71.47216796875,-0.903076171875,0.539306640625,-0.21826171875
3.949,311,1214,1886,313,-9.0,40.0,45.0,-44.677730560302734,-52.185054779052734,-76.23291015625,-1.742431640625,0.71923828125,-0.14990234375
3.949,310,1279,1943,312,-9.0,40.0,45.0,-44.677730560302734,-52.185054779052734,-76.23291015625,-2.3326416015625,0.683349609375,0.214599609375
3.960,311,1338,1991,312,-9.0,40.0,45.0,-96.98485565185547,-56.701656341552734,-48.217769622802734,-2.5699462890625,0.2437744140625,0.668701171875
3.968,311,1365,2008,312,-9.0,40.0,45.0,-79.77294921875,-50.659175872802734,-22.094724655151367,-2.54736328125,-0.1531982421875,0.849853515625
3.982,310,1355,1987,313,-2.0,36.0,44.0,-79.77294921875,-50.659175872802734,-22.094724655151367,-2.3236083984375,-0.00634765625,0.593994140625
3.989,310,1334,1952,312,-2.0,36.0,44.0,9.6435546875,7.324218273162842,45.837398529052734,-1.68994140625,0.3519287109375,0.25537109375
3.998,310,1297,1905,312,-2.0,36.0,44.0,34.1796875,30.822751998901367,54.260250091552734,-1.0076904296875,0.7088623046875,0.058349609375
4.005,310,1284,1890,311,-2.0,36.0,44.0,40.161128997802734,39.9169921875,38.4521484375,-0.8031005859375,1.027099609375,-0.152099609375
4.020,312,1265,1894,313,-2.0,36.0,44.0,29.724119186401367,38.0859375,10.192870140075684,-1.0167236328125,1.00244140625,-0.2935791015625
4.036,310,1251,1881,312,-2.0,36.0,44.0,12.939452171325684,29.541013717651367,-15.258788108825684,-1.57080078125,0.8839111328125,-0.3338623046875
4.037,310,1225,1861,312,-2.0,36.0,44.0,-5.737304210662842,17.39501953125,-26.123044967651367,-2.01513671875,0.70068359375,-0.2340087890625
4.052,310,1160,1824,313,-2.0,36.0,44.0,-19.34814453125,4.150390625,-23.559568405151367,-2.0108642578125,0.40380859375,0.0008544921875
4.058,311,1112,1786,312,-2.0,36.0,44.0,-16.29638671875,-3.112792730331421,-13.061522483825684,-1.7625732421875,0.2669677734375,0.158935546875
4.066,310,1056,1732,312,-2.0,36.0,44.0,-0.7324218153953552,-1.5258787870407104,-0.3662109076976776,-1.4744873046875,0.3255615234375,0.171630859375
4.079,310,960,1610,312,-6.0,38.0,42.0,13.305663108825684,6.469726085662842,11.413573265075684,-1.220947265625,0.4212646484375,0.12646484375
4.090,310,907,1524,312,-6.0,38.0,42.0,16.66259765625,16.05224609375,20.324705123901367,-0.9769287109375,0.3905029296875,0.1505126953125
4.098,310,859,1437,314,-6.0,38.0,42.0,11.840819358825684,24.475095748901367,24.719236373901367,-0.7208251953125,0.2606201171875,0.251220703125
4.109,311,749,1300,312,-6.0,38.0,42.0,11.535643577575684,33.0810546875,25.024412155151367,-0.5294189453125,0.15966796875,0.272216796875
4.117,310,696,1225,311,-6.0,38.0,42.0,21.057126998901367,39.794921875,21.301267623901367,-0.407958984375,0.135986328125,0.158935546875
4.125,306,644,1145,312,-6.0,38.0,42.0,32.470703125,39.97802734375,12.512206077575684,-0.3270263671875,0.0870361328125,0.0364990234375
4.178,310,552,1054,311,-6.0,38.0,42.0,43.640132904052734,36.1328125,1.9531248807907104,-0.354248046875,0.072509765625,-0.0911865234375
4.205,309,517,1001,312,-6.0,38.0,42.0,54.443355560302734,32.2265625,-5.737304210662842,-0.45947265625,0.179443359375,-0.221923828125
4.214,311,483,955,310,-6.0,38.0,42.0,56.152339935302734,26.184080123901367,-11.901854515075684,-0.5350341796875,0.26416015625,-0.2547607421875
4.265,308,414,888,310,-6.0,39.0,43.0,39.794921875,14.709471702575684,-20.874021530151367,-0.5277099609375,0.3564453125,-0.1156005859375
4.266,310,396,872,310,-6.0,39.0,43.0,34.66796875,11.596678733825684,-20.629880905151367,-0.5716552734375,0.4364013671875,-0.0467529296875
4.271,310,394,858,310,-6.0,39.0,43.0,28.137205123901367,8.056640625,-19.53125,-0.6402587890625,0.487060546875,0.014404296875
4.271,310,394,853,312,-6.0,39.0,43.0,17.88330078125,5.126952648162842,-19.34814453125,-0.7020263671875,0.4527587890625,0.051513671875
4.272,308,399,848,312,-6.0,39.0,43.0,8.544921875,3.967284917831421,-20.385740280151367,-0.75830078125,0.3626708984375,0.0487060546875
4.273,310,401,846,311,-6.0,39.0,43.0,4.39453125,3.784179449081421,-21.179197311401367,-0.823974609375,0.26513671875,0.005126953125
4.273,310,402,832,311,-6.0,39.0,43.0,5.493163585662842,3.845214605331421,-19.8974609375,-0.8995361328125,0.20751953125,-0.0546875
4.274,310,408,823,314,-6.0,39.0,43.0,7.934569835662842,3.417968511581421,-15.075682640075684,-0.955322265625,0.2064208984375,-0.08984375
4.274,310,410,813,311,-6.0,39.0,43.0,7.019042491912842,2.50244140625,-7.751464366912842,-0.976318359375,0.228759765625,-0.0853271484375
4.275,309,408,810,298,-6.0,39.0,43.0,1.220703125,1.7700194120407104,-0.1220703050494194,-0.969482421875,0.2406005859375,-0.052978515625
4.276,310,410,810,312,-7.0,40.0,45.0,-5.737304210662842,1.9531248807907104,6.286620616912842,-0.9500732421875,0.235107421875,-0.0115966796875
4.290,309,414,806,310,-7.0,40.0,45.0,-9.58251953125,3.051757574081421,11.657713890075684,-0.9344482421875,0.25439453125,0.0189208984375
4.304,310,420,803,311,-7.0,40.0,45.0,-10.375975608825684,4.69970703125,17.08984375,-0.9344482421875,0.25439453125,0.0189208984375
4.307,310,424,799,310,-7.0,40.0,45.0,-10.925292015075684,6.652831554412842,22.583005905151367,-0.9234619140625,0.2669677734375,0.00634765625
4.320,310,433,808,310,-7.0,40.0,45.0,-13.488768577575684,9.33837890625,27.709959030151367,-0.850830078125,0.2398681640625,-0.0634765625
4.329,309,444,810,312,-7.0,40.0,45.0,-17.822265625,12.451170921325684,32.89794921875,-0.850830078125,0.2398681640625,-0.0634765625
4.338,308,466,816,312,-7.0,40.0,45.0,-23.803709030151367,15.624999046325684,39.48974609375,-0.773193359375,0.2174072265625,-0.1287841796875
4.369,310,525,877,312,-7.0,40.0,45.0,-32.04345703125,16.90673828125,47.485347747802734,-0.404541015625,0.1116943359375,-0.076904296875
4.370,310,579,928,312,-7.0,40.0,45.0,-40.10009765625,12.390135765075684,55.297847747802734,-0.404541015625,0.1116943359375,-0.076904296875
4.370,311,673,982,311,-7.0,40.0,45.0,-40.771480560302734,0.6103515625,58.776851654052734,0.0599365234375,0.0062255859375,0.0762939453125
4.381,311,799,1133,310,-8.0,40.0,44.0,-29.052732467651367,-13.793944358825684,52.795406341552734,0.8074951171875,-0.179443359375,0.1212158203125
4.388,310,873,1306,312,-8.0,40.0,44.0,-2.685546636581421,-23.498533248901367,37.41455078125,0.6751708984375,0.1231689453125,-0.0966796875
4.397,310,966,1445,313,-8.0,40.0,44.0,29.968259811401367,-30.578611373901367,17.27294921875,0.6751708984375,0.1231689453125,-0.0966796875
4.413,310,1138,1636,312,-8.0,40.0,44.0,-2.50244140625,-48.767086029052734,-37.9638671875,-0.6187744140625,0.941162109375,-0.485595703125
4.418,310,1206,1732,312,-8.0,40.0,44.0,-2.50244140625,-48.767086029052734,-37.9638671875,-1.716064453125,1.3685302734375,-0.657470703125
4.427,311,1272,1811,311,-8.0,40.0,44.0,-61.706539154052734,-39.36767578125,-51.147457122802734,-1.716064453125,1.3685302734375,-0.657470703125
4.440,311,1348,1957,312,-8.0,40.0,44.0,-193.29832458496094,-50.537105560302734,-27.099607467651367,-2.736083984375,0.7825927734375,0.546630859375
4.465,310,1367,1973,313,-8.0,40.0,44.0,-193.29832458496094,-50.537105560302734,-27.099607467651367,-2.700927734375,-0.56640625,1.5133056640625
4.465,312,1351,1913,313,-8.0,40.0,44.0,-191.95555114746094,-71.59423828125,-17.27294921875,-2.700927734375,-0.56640625,1.5133056640625
4.471,311,1338,1812,312,-4.0,38.0,37.0,48.889156341552734,0.6103515625,45.654293060302734,-1.622314453125,-0.04833984375,0.73291015625
4.480,310,1309,1774,314,-4.0,38.0,37.0,48.889156341552734,0.6103515625,45.654293060302734,-0.9256591796875,0.8935546875,-0.179931640625
4.487,312,1313,1772,313,-4.0,38.0,37.0,142.51708984375,52.856441497802734,63.293453216552734,-0.9256591796875,0.8935546875,-0.179931640625
4.500,311,1306,1770,311,-4.0,38.0,37.0,75.74462890625,65.61279296875,21.301267623901367,-1.4014892578125,1.400390625,-0.8929443359375
4.516,312,1289,1756,312,-4.0,38.0,37.0,75.74462890625,65.61279296875,21.301267623901367,-1.9227294921875,1.1007080078125,-0.6378173828125
4.517,311,1226,1746,310,-4.0,38.0,37.0,1.4038084745407104,42.602535247802734,-3.784179449081421,-1.9227294921875,1.1007080078125,-0.6378173828125
4.531,312,1189,1691,312,-4.0,38.0,37.0,-42.236324310302734,-1.03759765625,-14.587401390075684,-1.872314453125,0.447265625,0.081787109375
4.545,310,1137,1624,312,-4.0,38.0,37.0,-17.7001953125,-4.8828125,-8.11767578125,-1.656005859375,0.4119873046875,0.1082763671875
4.547,310,1081,1555,311,-4.0,38.0,37.0,-17.7001953125,-4.8828125,-8.11767578125,-1.4075927734375,0.469970703125,0.0653076171875
4.563,312,982,1407,312,-4.0,38.0,37.0,35.400390625,8.60595703125,6.713866710662842,-1.1180419921875,0.5057373046875,0.06689453125
4.570,311,904,1306,312,-7.0,40.0,46.0,38.0859375,15.686034202575684,13.061522483825684,-0.8170166015625,0.43115234375,0.1134033203125
4.593,310,833,1211,312,-7.0,40.0,46.0,38.0859375,15.686034202575684,13.061522483825684,-0.55322265625,0.2904052734375,0.126220703125
4.594,310,698,1070,311,-7.0,40.0,46.0,24.230955123901367,27.526853561401367,12.573241233825684,-0.3826904296875,0.1705322265625,0.108154296875
4.606,310,644,959,312,-7.0,40.0,46.0,22.277830123901367,28.503416061401367,5.798339366912842,-0.2659912109375,0.013427734375,0.166015625
4.607,308,592,891,312,-7.0,40.0,46.0,22.277830123901367,28.503416061401367,5.798339366912842,-0.1986083984375,-0.1236572265625,0.241943359375
4.632,310,496,816,311,-7.0,40.0,46.0,47.607418060302734,20.141599655151367,-15.441893577575684,-0.250244140625,-0.0396728515625,0.114013671875
4.633,310,456,777,310,-7.0,40.0,46.0,71.6552734375,17.7001953125,-23.193357467651367,-0.356201171875,0.181640625,-0.1614990234375
4.637,310,427,751,312,-7.0,40.0,46.0,71.6552734375,17.7001953125,-23.193357467651367,-0.4468994140625,0.4005126953125,-0.3359375
4.650,310,393,750,311,-7.0,40.0,46.0,65.73486328125,6.652831554412842,-31.249998092651367,-0.5184326171875,0.640869140625,-0.3824462890625
4.661,310,386,756,310,-7.0,40.0,46.0,43.334957122802734,0.7934569716453552,-27.709959030151367,-0.5400390625,0.7789306640625,-0.3399658203125
4.668,310,387,766,312,-7.0,40.0,46.0,43.334957122802734,0.7934569716453552,-27.709959030151367,-0.5472412109375,0.64794921875,-0.20947265625
4.681,311,395,780,311,-7.0,41.0,39.0,2.563476324081421,-9.09423828125,-40.527339935302734,-0.60400390625,0.396240234375,-0.07373046875
4.689,310,401,790,312,-7.0,41.0,39.0,-0.30517578125,-12.329100608825684,-48.461910247802734,-0.7215576171875,0.2392578125,-0.036865234375
4.697,310,401,782,311,-7.0,41.0,39.0,4.8828125,-14.526366233825684,-49.316402435302734,-0.83740234375,0.175048828125,-0.059814453125
4.713,310,407,805,310,-7.0,41.0,39.0,8.6669921875,-15.808104515075684,-44.677730560302734,-0.900146484375,0.138916015625,-0.059814453125
4.719,310,410,814,310,-7.0,41.0,39.0,8.4228515625,-15.380858421325684,-37.04833984375,-0.93798828125,0.1331787109375,-0.03369140625
4.728,310,414,816,311,-7.0,41.0,39.0,5.310058116912842,-14.038084983825684,-26.855466842651367,-0.95849609375,0.173583984375,0.0128173828125
4.748,311,425,837,310,-7.0,41.0,39.0,-0.7324218153953552,-12.207030296325684,-15.319823265075684,-0.957275390625,0.2069091796875,0.072509765625
4.749,310,428,854,312,-7.0,41.0,39.0,-8.23974609375,-8.4228515625,-4.94384765625,-0.9486083984375,0.2005615234375,0.1158447265625
4.757,310,437,861,310,-7.0,41.0,39.0,-14.160155296325684,-2.3193359375,3.540038824081421,-0.9422607421875,0.185546875,0.1104736328125
4.781,310,442,875,312,-6.0,38.0,38.0,-18.00537109375,4.0283203125,11.169432640075684,-0.9368896484375,0.179931640625,0.0692138671875
4.781,310,452,883,312,-6.0,38.0,38.0,-20.751951217651367,8.1787109375,19.59228515625,-0.9190673828125,0.196044921875,0.0250244140625
4.787,309,457,902,311,-6.0,38.0,38.0,-22.766111373901367,10.253905296325684,28.930662155151367,-0.872802734375,0.2408447265625,-0.0167236328125
4.800,310,485,927,310,-6.0,38.0,38.0,-24.841306686401367,12.084959983825684,36.9873046875,-0.782470703125,0.273193359375,-0.0609130859375
4.811,310,530,953,312,-6.0,38.0,38.0,-28.320310592651367,14.404295921325684,41.992183685302734,-0.6273193359375,0.231689453125,-0.08642578125
4.824,309,579,984,312,-6.0,38.0,38.0,-31.127927780151367,14.709471702575684,44.982906341552734,-0.3538818359375,0.1103515625,-0.0599365234375
4.836,310,723,1104,310,-6.0,38.0,38.0,-26.489255905151367,8.544921875,46.142574310302734,0.06201171875,0.023681640625,0.014404296875
4.838,311,809,1228,312,-6.0,38.0,38.0,-10.620116233825684,-4.7607421875,39.6728515625,0.4642333984375,0.0733642578125,0.056396484375
4.851,311,886,1383,312,-6.0,38.0,38.0,11.718749046325684,-21.606443405151367,17.7001953125,0.665283203125,0.188232421875,-0.078125
4.869,312,1022,1607,310,-6.0,38.0,38.0,22.888181686401367,-40.0390625,-18.12744140625,0.60107421875,0.388671875,-0.3365478515625
4.870,310,1120,1711,312,-3.0,40.0,39.0,4.0283203125,-56.518550872802734,-53.527828216552734,0.160888671875,0.564697265625,-0.4644775390625
4.877,311,1225,1805,313,-3.0,40.0,39.0,-31.249998092651367,-60.974117279052734,-72.998046875,-0.77001953125,0.8096923828125,-0.52392578125
4.890,309,1365,1937,312,-3.0,40.0,39.0,-70.12939453125,-56.457515716552734,-72.3876953125,-1.865234375,1.2293701171875,-0.4097900390625
4.899,312,1413,1994,312,-3.0,40.0,39.0,-125.42723846435547,-59.082027435302734,-62.927242279052734,-2.5555419921875,1.049560546875,0.2227783203125
4.907,311,1445,2018,314,-3.0,40.0,39.0,-165.52732849121094,-66.95556640625,-51.940914154052734,-2.736328125,-0.0233154296875,1.0474853515625
4.923,311,1464,1967,312,-3.0,40.0,39.0,-130.92041015625,-60.302730560302734,-26.916501998901367,-2.64599609375,-0.869384765625,1.444580078125
4.930,310,1463,1920,313,-3.0,40.0,39.0,-30.151365280151367,-24.597166061401367,18.9208984375,-2.2664794921875,-0.5806884765625,1.0771484375
4.992,310,1447,1880,312,-3.0,40.0,39.0,66.5283203125,27.465818405151367,62.072750091552734,-1.4862060546875,0.2135009765625,0.31298828125
4.993,311,1419,1831,311,-3.0,40.0,39.0,108.64257049560547,64.8193359375,74.70703125,-0.899169921875,0.9168701171875,-0.3260498046875
4.993,311,1413,1831,312,-3.0,40.0,39.0,90.51512908935547,72.6318359375,57.861324310302734,-0.842041015625,1.2510986328125,-0.667236328125
4.993,310,1400,1837,313,-5.0,40.0,40.0,41.687007904052734,57.739253997802734,27.832029342651367,-1.12939453125,1.12841796875,-0.6800537109375
4.993,310,1353,1823,311,-5.0,40.0,40.0,-2.01416015625,35.64453125,1.220703125,-1.6361083984375,0.946044921875,-0.5140380859375
4.993,311,1308,1803,313,-5.0,40.0,40.0,-29.968259811401367,15.686034202575684,-12.023924827575684,-1.9395751953125,0.678466796875,-0.2291259765625
4.996,310,1260,1763,312,-5.0,40.0,40.0,-39.0625,2.38037109375,-11.413573265075684,-1.929931640625,0.4267578125,0.02197265625
5.010,310,1136,1650,311,-5.0,40.0,40.0,-29.113767623901367,0.1220703050494194,-1.03759765625,-1.6356201171875,0.4061279296875,0.0838623046875
5.020,312,1065,1553,312,-5.0,40.0,40.0,-10.559081077575684,6.713866710662842,12.268065452575684,-1.6356201171875,0.4061279296875,0.0838623046875
5.026,311,1008,1463,312,-5.0,40.0,40.0,5.920409679412842,18.73779296875,27.526853561401367,-1.4041748046875,0.426513671875,0.095458984375
5.058,310,891,1246,312,-5.0,40.0,40.0,13.061522483825684,31.555173873901367,43.945308685302734,-0.796875,0.1982421875,0.2867431640625
5.059,310,822,1148,314,-5.0,40.0,40.0,12.512206077575684,42.358394622802734,55.664058685302734,-0.796875,0.1982421875,0.2867431640625
5.060,311,756,1074,310,-5.0,40.0,40.0,14.221190452575684,49.987789154052734,57.800289154052734,-0.4296875,0.0032958984375,0.3177490234375
5.079,311,658,944,312,-8.0,39.0,42.0,22.094724655151367,52.062984466552734,50.170894622802734,-0.0355224609375,-0.1181640625,0.16162109375
5.082,310,604,891,314,-8.0,39.0,42.0,35.7666015625,47.851558685302734,35.82763671875,-0.0355224609375,-0.1181640625,0.16162109375
5.087,311,566,875,311,-8.0,39.0,42.0,54.504390716552734,38.0859375,17.2119140625,-0.1666259765625,0.1357421875,-0.08984375
5.101,310,513,820,311,-8.0,39.0,42.0,67.44384765625,25.939939498901367,-1.8310545682907104,-0.516357421875,0.5740966796875,-0.582763671875
5.109,310,493,799,310,-8.0,39.0,42.0,64.39208984375,15.380858421325684,-15.380858421325684,-0.516357421875,0.5740966796875,-0.582763671875
5.118,310,475,770,312,-8.0,39.0,42.0,48.583980560302734,8.60595703125,-19.1650390625,-0.5985107421875,0.6768798828125,-0.6060791015625
5.131,311,438,749,311,-8.0,39.0,42.0,29.541013717651367,5.126952648162842,-15.930174827575684,-0.6009521484375,0.6767578125,-0.2879638671875
5.139,310,427,753,312,-8.0,39.0,42.0,10.009765625,1.4038084745407104,-16.2353515625,-0.6009521484375,0.6767578125,-0.2879638671875
5.147,310,424,764,312,-8.0,39.0,42.0,-8.4228515625,-4.638671875,-25.756834030151367,-0.5889892578125,0.44091796875,-0.0379638671875
5.187,310,430,767,310,-8.0,39.0,42.0,-15.075682640075684,-15.563963890075684,-42.480464935302734,-0.7242431640625,0.1624755859375,0.1627197265625
5.188,310,435,755,310,-6.0,40.0,41.0,-15.075682640075684,-15.563963890075684,-42.480464935302734,-0.8228759765625,0.2177734375,0.116455078125
5.188,310,437,771,312,-6.0,40.0,41.0,-6.103515148162842,-16.11328125,-39.36767578125,-0.8228759765625,0.2177734375,0.116455078125
5.191,309,444,777,311,-6.0,40.0,41.0,4.0283203125,-10.803221702575684,-24.658201217651367,-0.9586181640625,0.294921875,0.0294189453125
5.202,310,447,785,312,-6.0,40.0,41.0,4.0283203125,-10.803221702575684,-24.658201217651367,-0.989501953125,0.2645263671875,0.017578125
5.207,312,451,784,312,-6.0,40.0,41.0,4.69970703125,-6.652831554412842,-17.2119140625,-0.989501953125,0.2645263671875,0.017578125
5.229,310,453,780,311,-6.0,40.0,41.0,0.6713866591453552,1.4038084745407104,-1.5869139432907104,-0.9765625,0.193603515625,0.018310546875
5.230,308,454,771,312,-6.0,40.0,41.0,0.6713866591453552,1.4038084745407104,-1.5869139432907104,-0.953857421875,0.2103271484375,-0.0010986328125
5.237,310,454,763,310,-6.0,40.0,41.0,-1.0986328125,5.676269054412842,6.103515148162842,-0.953857421875,0.2103271484375,-0.0010986328125
5.250,309,463,763,311,-6.0,40.0,41.0,-5.126952648162842,11.047362327575684,20.080564498901367,-0.938720703125,0.3218994140625,-0.0758056640625
5.288,310,465,758,311,-6.0,40.0,41.0,-5.126952648162842,11.047362327575684,20.080564498901367,-0.9234619140625,0.3428955078125,-0.10107421875
5.288,312,469,755,312,-8.0,41.0,38.0,-9.46044921875,12.573241233825684,25.146482467651367,-0.9234619140625,0.3428955078125,-0.10107421875
5.289,310,472,764,298,-8.0,41.0,38.0,-17.578125,14.038084983825684,32.65380859375,-0.7864990234375,0.288330078125,-0.1431884765625
5.289,311,496,756,311,-8.0,41.0,38.0,-17.578125,14.038084983825684,32.65380859375,-0.6446533203125,0.247802734375,-0.1717529296875
5.298,310,546,840,312,-8.0,41.0,38.0,-18.9208984375,11.047362327575684,37.53662109375,-0.424560546875,0.1800537109375,-0.1561279296875
5.306,310,579,873,311,-8.0,41.0,38.0,-19.34814453125,3.723144292831421,42.907711029052734,-0.424560546875,0.1800537109375,-0.1561279296875
5.320,310,747,889,310,-8.0,41.0,38.0,-16.2353515625,-19.8974609375,43.579097747802734,0.3406982421875,-0.083251953125,0.1376953125
5.328,311,820,992,311,-8.0,41.0,38.0,-16.2353515625,-19.8974609375,43.579097747802734,0.6544189453125,-0.1370849609375,0.1644287109375
5.336,310,907,1170,312,-8.0,41.0,38.0,0.6103515625,-28.503416061401367,31.311033248901367,0.6544189453125,-0.1370849609375,0.1644287109375
5.350,310,1051,1447,312,-8.0,41.0,38.0,39.12353515625,-41.320796966552734,-24.658201217651367,0.2867431640625,0.5509033203125,-0.3782958984375
5.417,310,1145,1567,312,-8.0,41.0,38.0,39.12353515625,-41.320796966552734,-24.658201217651367,-0.332275390625,0.7894287109375,-0.552001953125
5.427,310,1211,1676,312,-5.0,40.0,44.0,-3.173827886581421,-52.368160247802734,-56.396480560302734,-0.332275390625,0.7894287109375,-0.552001953125
5.428,311,1320,1853,312,-5.0,40.0,44.0,-126.03759002685547,-48.522945404052734,-51.879878997802734,-2.16796875,1.3306884765625,-0.3729248046875
5.428,311,1373,1936,314,-5.0,40.0,44.0,-172.30223083496094,-57.067867279052734,-31.494138717651367,-2.55908203125,0.88818359375,0.443603515625
5.428,312,1367,1987,312,-5.0,40.0,44.0,-172.30223083496094,-57.067867279052734,-31.494138717651367,-2.576416015625,-0.2315673828125,1.402099609375
5.428,312,1400,1911,312,-5.0,40.0,44.0,-89.05028533935547,-57.189937591552734,8.056640625,-2.3985595703125,-0.761474609375,1.619384765625
5.429,311,1445,1842,312,-5.0,40.0,44.0,37.7197265625,-7.873534679412842,40.466304779052734,-1.905029296875,-0.16748046875,0.895751953125
5.430,310,1419,1772,312,-5.0,40.0,44.0,37.7197265625,-7.873534679412842,40.466304779052734,-1.2548828125,0.7225341796875,-0.140380859375
5.440,310,1401,1708,312,-5.0,40.0,44.0,142.15087890625,79.2236328125,59.082027435302734,-0.8988037109375,1.2205810546875,-0.8021240234375
5.448,312,1397,1723,312,-5.0,40.0,44.0,85.14403533935547,70.49560546875,35.0341796875,-0.937255859375,1.220458984375,-0.8914794921875
5.456,311,1381,1734,312,-5.0,40.0,44.0,85.14403533935547,70.49560546875,35.0341796875,-1.3021240234375,1.0452880859375,-0.689697265625
5.484,310,1351,1732,312,-4.0,42.0,42.0,-29.235837936401367,21.728513717651367,-10.009765625,-1.7591552734375,0.9481201171875,-0.4239501953125
5.493,310,1309,1721,312,-4.0,42.0,42.0,-47.119136810302734,2.25830078125,-17.63916015625,-1.9110107421875,0.7490234375,-0.094482421875
5.495,311,1268,1694,312,-4.0,42.0,42.0,-47.119136810302734,2.25830078125,-17.63916015625,-1.821533203125,0.55029296875,0.115478515625
5.499,311,1192,1585,312,-4.0,42.0,42.0,-19.34814453125,-6.958007335662842,-13.610838890075684,-1.68896484375,0.4703369140625,0.1390380859375
5.508,311,1125,1502,312,-4.0,42.0,42.0,9.82666015625,1.6479490995407104,-7.507323741912842,-1.53466796875,0.4957275390625,0.0736083984375
5.516,310,1056,1401,312,-4.0,42.0,42.0,9.82666015625,1.6479490995407104,-7.507323741912842,-1.3245849609375,0.5684814453125,0.0069580078125
5.532,310,931,1226,312,-4.0,42.0,42.0,37.2314453125,18.5546875,9.33837890625,-1.032470703125,0.5330810546875,0.024658203125
5.539,310,827,1143,312,-4.0,42.0,42.0,30.456541061401367,21.484373092651367,13.305663108825684,-0.6949462890625,0.36865234375,0.0762939453125
5.546,311,725,1071,313,-4.0,42.0,42.0,22.521970748901367,24.658201217651367,11.962889671325684,-0.423583984375,0.163818359375,0.1112060546875
5.567,310,603,946,312,-4.0,42.0,42.0,19.04296875,26.367185592651367,6.225585460662842,-0.247802734375,-0.0880126953125,0.1998291015625
5.568,311,533,868,312,-9.0,39.0,42.0,24.414060592651367,24.536130905151367,-2.38037109375,-0.19189453125,-0.2706298828125,0.2862548828125
5.587,310,482,784,311,-9.0,39.0,42.0,43.029781341552734,22.827146530151367,-9.21630859375,-0.292724609375,-0.1995849609375,0.1832275390625
5.589,310,399,698,311,-9.0,39.0,42.0,67.68798828125,23.498533248901367,-13.732909202575684,-0.4541015625,0.0389404296875,-0.071533203125
5.606,309,364,622,311,-9.0,39.0,42.0,80.50536346435547,21.057126998901367,-17.4560546875,-0.5517578125,0.3348388671875,-0.264892578125
5.607,310,340,587,310,-9.0,39.0,42.0,75.0732421875,12.573241233825684,-17.7001953125,-0.56787109375,0.632568359375,-0.3580322265625
5.620,308,326,564,310,-9.0,39.0,42.0,56.396480560302734,2.929687261581421,-17.2119140625,-0.5469970703125,0.7969970703125,-0.39404296875
5.628,310,328,557,310,-9.0,39.0,42.0,30.456541061401367,-4.57763671875,-20.324705123901367,-0.525634765625,0.75146484375,-0.349853515625
5.636,309,325,558,309,-9.0,39.0,42.0,7.141112804412842,-9.70458984375,-27.770994186401367,-0.5491943359375,0.5595703125,-0.24951171875
5.650,309,325,594,310,-9.0,39.0,42.0,-5.0048828125,-12.878417015075684,-35.888671875,-0.619873046875,0.3641357421875,-0.1571044921875
5.657,311,322,601,308,-9.0,39.0,42.0,-7.141112804412842,-15.380858421325684,-40.710445404052734,-0.7059326171875,0.2374267578125,-0.0767822265625
5.669,310,324,607,310,-7.0,41.0,35.0,-4.33349609375,-17.578125,-42.175289154052734,-0.7850341796875,0.18603515625,-0.0040283203125
5.698,310,326,621,310,-7.0,41.0,35.0,0.30517578125,-18.24951171875,-40.161128997802734,-0.8526611328125,0.1961669921875,0.033447265625
5.698,310,336,636,310,-7.0,41.0,35.0,4.94384765625,-16.05224609375,-34.1796875,-0.9058837890625,0.22705078125,0.024658203125
5.698,310,340,648,311,-7.0,41.0,35.0,5.554198741912842,-12.573241233825684,-25.695798873901367,-0.9302978515625,0.2230224609375,0.0023193359375
5.709,310,345,678,310,-7.0,41.0,35.0,1.6479490995407104,-9.94873046875,-16.66259765625,-0.923828125,0.177978515625,-0.017333984375
5.719,310,345,712,310,-7.0,41.0,35.0,-2.929687261581421,-8.7890625,-7.507323741912842,-0.90576171875,0.1376953125,-0.0355224609375
5.726,309,352,732,310,-7.0,41.0,35.0,-4.94384765625,-8.48388671875,1.7089842557907104,-0.881103515625,0.1204833984375,-0.057373046875
5.740,310,371,766,309,-7.0,41.0,35.0,-5.554198741912842,-7.934569835662842,10.986327171325684,-0.841796875,0.1373291015625,-0.0892333984375
5.748,310,386,784,311,-7.0,41.0,35.0,-8.85009765625,-7.324218273162842,20.446775436401367,-0.786376953125,0.17431640625,-0.1077880859375
5.756,308,401,799,310,-7.0,41.0,35.0,-17.333984375,-7.324218273162842,29.785154342651367,-0.7137451171875,0.1844482421875,-0.1136474609375
5.772,309,463,822,310,-9.0,41.0,44.0,-28.503416061401367,-7.812499523162842,38.9404296875,-0.6339111328125,0.196044921875,-0.1282958984375
5.800,310,502,853,310,-9.0,41.0,44.0,-39.12353515625,-8.85009765625,46.508785247802734,-0.507568359375,0.2154541015625,-0.1168212890625
5.800,310,579,858,310,-9.0,41.0,44.0,-46.264644622802734,-12.939452171325684,48.156734466552734,-0.2369384765625,0.1868896484375,-0.027587890625
5.801,311,725,885,311,-9.0,41.0,44.0,-44.006343841552734,-22.216794967651367,39.12353515625,0.1439208984375,0.0654296875,0.1220703125
5.808,310,805,998,311,-9.0,41.0,44.0,-26.000974655151367,-31.188962936401367,20.080564498901367,0.435302734375,-0.1295166015625,0.219970703125
5.816,310,884,1184,312,-9.0,41.0,44.0,9.21630859375,-36.43798828125,-2.746581792831421,0.474365234375,-0.07470703125,0.176025390625
5.832,310,1050,1422,310,-9.0,41.0,44.0,44.494625091552734,-45.471187591552734,-25.878904342651367,0.277587890625,0.349853515625,0.011474609375
5.839,310,1148,1540,312,-9.0,41.0,44.0,42.663570404052734,-57.495113372802734,-48.950191497802734,-0.1600341796875,0.6605224609375,-0.18701171875
5.846,308,1232,1682,312,-9.0,41.0,44.0,1.2817381620407104,-56.457515716552734,-58.227535247802734,-0.976806640625,1.0380859375,-0.521240234375
5.859,310,1333,1880,312,-2.0,39.0,48.0,-57.189937591552734,-43.273921966552734,-46.508785247802734,-2.5205078125,1.519287109375,-0.0966796875
5.874,311,1367,1952,312,-2.0,39.0,48.0,-128.60107421875,-44.433589935302734,-37.04833984375,-2.5205078125,1.519287109375,-0.0966796875
5.876,298,1398,1973,312,-2.0,39.0,48.0,-175.84226989746094,-64.63623046875,-40.893550872802734,-2.603271484375,0.2213134765625,1.16162109375
5.893,311,1379,1831,312,-2.0,39.0,48.0,-140.07568359375,-68.4814453125,-35.94970703125,-2.291259765625,-0.755859375,1.0096435546875
5.900,310,1351,1757,314,-2.0,39.0,48.0,-26.123044967651367,-27.954099655151367,-1.8920897245407104,-2.291259765625,-0.755859375,1.0096435546875
5.906,311,1349,1718,312,-2.0,39.0,48.0,91.73583221435547,27.954099655151367,39.306640625,-1.4918212890625,0.0625,0.1151123046875
5.920,310,1338,1718,312,-2.0,39.0,48.0,142.4560546875,58.898921966552734,54.443355560302734,-1.35009765625,1.44970703125,-0.809326171875
5.928,310,1311,1716,312,-2.0,39.0,48.0,111.02294158935547,61.767574310302734,44.494625091552734,-1.35009765625,1.44970703125,-0.809326171875
5.937,310,1279,1700,312,-2.0,39.0,48.0,35.15625,46.447750091552734,24.169919967651367,-1.8883056640625,1.30810546875,-0.750732421875
5.949,310,1201,1651,312,-2.0,39.0,48.0,-30.334470748901367,23.742673873901367,7.934569835662842,-1.92236328125,0.349609375,0.1234130859375
5.958,310,1145,1598,312,-2.0,39.0,48.0,-55.175777435302734,6.835937023162842,6.103515148162842,-1.92236328125,0.349609375,0.1234130859375
5.966,312,1078,1528,312,-5.0,39.0,44.0,-42.724605560302734,5.187987804412842,17.02880859375,-1.7265625,0.25439453125,0.1895751953125
5.980,310,944,1316,311,-5.0,39.0,44.0,-12.756346702575684,14.648436546325684,32.28759765625,-1.3140869140625,0.4383544921875,0.031982421875
5.997,310,872,1211,313,-5.0,39.0,44.0,12.451170921325684,26.733396530151367,48.156734466552734,-0.9813232421875,0.4573974609375,0.12890625
6.007,310,784,1108,298,-5.0,39.0,44.0,18.798828125,35.888671875,62.377925872802734,-0.9813232421875,0.4573974609375,0.12890625
6.010,310,697,971,311,-5.0,39.0,44.0,8.1787109375,43.640132904052734,59.448238372802734,-0.0892333984375,0.005859375,0.375
6.018,310,653,916,313,-5.0,39.0,44.0,8.1787109375,43.640132904052734,59.448238372802734,0.1331787109375,-0.202880859375,0.308837890625
6.026,310,614,884,312,-5.0,39.0,44.0,17.88330078125,46.081539154052734,41.442867279052734,0.1331787109375,-0.202880859375,0.308837890625
6.042,310,545,861,312,-5.0,39.0,44.0,56.945796966552734,31.799314498901367,-0.6103515625,-0.1131591796875,0.2298583984375,-0.1370849609375
6.048,311,525,840,310,-5.0,39.0,44.0,56.945796966552734,31.799314498901367,-0.6103515625,-0.3890380859375,0.5943603515625,-0.400634765625
6.057,310,516,813,312,-5.0,39.0,44.0,65.12451171875,20.141599655151367,-14.892577171325684,-0.3890380859375,0.5943603515625,-0.400634765625
6.070,308,496,784,312,-9.0,40.0,39.0,32.65380859375,2.868652105331421,-20.751951217651367,-0.614013671875,0.7889404296875,-0.5098876953125
6.080,310,496,785,311,-9.0,40.0,39.0,32.65380859375,2.868652105331421,-20.751951217651367,-0.6468505859375,0.7423095703125,-0.403076171875
6.094,309,497,794,311,-9.0,40.0,39.0,14.282225608825684,0.6713866591453552,-16.54052734375,-0.6468505859375,0.7423095703125,-0.403076171875
6.115,310,491,803,312,-9.0,40.0,39.0,-15.869139671325684,-6.896972179412842,-34.24072265625,-0.711669921875,0.2237548828125,0.002197265625
6.116,309,490,818,311,-9.0,40.0,39.0,-15.869139671325684,-6.896972179412842,-34.24072265625,-0.809814453125,0.1341552734375,0.0784912109375
6.116,310,488,803,299,-9.0,40.0,39.0,-14.404295921325684,-10.498045921325684,-41.687007904052734,-0.809814453125,0.1341552734375,0.0784912109375
6.130,308,490,835,311,-9.0,40.0,39.0,2.746581792831421,-17.9443359375,-32.8369140625,-0.9537353515625,0.2708740234375,0.093994140625
6.138,309,491,840,311,-9.0,40.0,39.0,5.859374523162842,-19.04296875,-24.963376998901367,-0.9715576171875,0.323974609375,0.0740966796875
6.147,312,490,835,312,-9.0,40.0,39.0,5.859374523162842,-19.04296875,-24.963376998901367,-0.959716796875,0.30078125,0.0433349609375
6.159,310,490,840,312,-7.0,41.0,36.0,4.5166015625,-9.70458984375,-11.718749046325684,-0.9407958984375,0.250244140625,0.027587890625
6.169,310,490,837,311,-7.0,41.0,36.0,3.356933355331421,-3.051757574081421,-5.615233898162842,-0.9334716796875,0.2333984375,0.0225830078125
6.181,308,484,832,311,-7.0,41.0,36.0,3.356933355331421,-3.051757574081421,-5.615233898162842,-0.944091796875,0.264892578125,0.0067138671875
6.204,310,477,818,311,-7.0,41.0,36.0,-1.2817381620407104,6.408690929412842,6.896972179412842,-0.9609375,0.30419921875,-0.0194091796875
6.210,309,451,808,310,-7.0,41.0,36.0,-6.469726085662842,9.033203125,12.878417015075684,-0.9716796875,0.318359375,-0.0413818359375
6.211,310,456,794,311,-7.0,41.0,36.0,-6.469726085662842,9.033203125,12.878417015075684,-0.9697265625,0.3143310546875,-0.04833984375
6.220,309,441,767,310,-7.0,41.0,36.0,-17.4560546875,13.427733421325684,24.230955123901367,-0.9532470703125,0.3099365234375,-0.0469970703125
6.227,310,439,746,312,-7.0,41.0,36.0,-20.446775436401367,15.197752952575684,29.907224655151367,-0.91845703125,0.3106689453125,-0.055419921875
6.236,310,439,739,310,-7.0,41.0,36.0,-20.446775436401367,15.197752952575684,29.907224655151367,-0.848876953125,0.3045654296875,-0.0718994140625
6.249,310,475,777,310,-7.0,41.0,36.0,-22.827146530151367,13.793944358825684,41.076656341552734,-0.711669921875,0.2864990234375,-0.0775146484375
6.258,310,504,749,310,-7.0,40.0,38.0,-21.728513717651367,7.995604991912842,44.738765716552734,-0.473388671875,0.239990234375,-0.0478515625
6.265,310,543,688,311,-7.0,40.0,38.0,-21.728513717651367,7.995604991912842,44.738765716552734,-0.1448974609375,0.11181640625,-0.0194091796875
6.298,308,668,632,310,-7.0,40.0,38.0,-4.45556640625,-17.39501953125,36.56005859375,0.32421875,-0.06982421875,0.0452880859375
6.301,308,758,683,311,-7.0,40.0,38.0,23.071287155151367,-36.92626953125,23.132322311401367,0.835693359375,-0.280517578125,0.1461181640625
6.306,310,830,849,312,-7.0,40.0,38.0,74.52392578125,-55.114742279052734,-1.7700194120407104,1.0526123046875,-0.2913818359375,0.0394287109375
6.311,310,1010,1104,312,-7.0,40.0,38.0,123.77928924560547,-65.61279296875,-32.89794921875,0.7286376953125,0.1649169921875,-0.32861328125
6.318,310,1105,1231,312,-7.0,40.0,38.0,111.32811737060547,-69.51904296875,-58.105464935302734,-0.1572265625,0.7742919921875,-0.6258544921875
6.326,311,1176,1397,311,-7.0,40.0,38.0,22.521970748901367,-64.5751953125,-63.476558685302734,-1.349853515625,1.3092041015625,-0.8157958984375
6.339,310,1286,1704,312,-7.0,40.0,38.0,-92.59032440185547,-51.025386810302734,-44.128414154052734,-2.382568359375,1.797119140625,-0.849853515625
6.348,311,1338,1835,314,-7.0,40.0,38.0,-195.86180114746094,-52.490230560302734,-24.475095748901367,-2.651123046875,1.5067138671875,-0.04248046875
6.356,310,1374,1886,314,-6.0,37.0,47.0,-249.20652770996094,-76.5380859375,-26.184080123901367,-2.3094482421875,0.033447265625,1.42919921875
6.369,311,1393,1795,311,-6.0,37.0,47.0,-191.89451599121094,-80.32225799560547,-29.602048873901367,-2.0819091796875,-1.11181640625,2.14892578125
6.378,312,1393,1694,312,-6.0,37.0,47.0,-33.203125,-30.883787155151367,-2.929687261581421,-2.0142822265625,-0.6568603515625,1.35400390625
6.386,310,1396,1632,312,-6.0,37.0,47.0,123.96239471435547,38.6962890625,40.10009765625,-1.663330078125,0.4957275390625,0.00634765625
6.410,310,1388,1591,311,-6.0,37.0,47.0,180.60301208496094,73.18115234375,55.053707122802734,-1.183837890625,1.1529541015625,-0.7318115234375
6.414,308,1391,1613,312,-6.0,37.0,47.0,129.5166015625,66.162109375,34.97314453125,-1.02490234375,1.201904296875,-0.7967529296875
6.416,310,1380,1634,312,-6.0,37.0,47.0,40.771480560302734,44.555660247802734,6.591796398162842,-1.2772216796875,1.010498046875,-0.5855712890625
6.432,311,1352,1624,312,-6.0,37.0,47.0,-23.376462936401367,26.794431686401367,-10.620116233825684,-1.722900390625,0.868408203125,-0.3175048828125
6.438,310,1319,1611,311,-6.0,37.0,47.0,-50.048824310302734,13.549803733825684,-14.343260765075684,-1.93798828125,0.72802734375,-0.0322265625
6.446,312,1286,1593,311,-6.0,37.0,47.0,-47.546382904052734,4.39453125,-12.145995140075684,-1.89404296875,0.585693359375,0.114501953125
6.459,310,1225,1514,312,-8.0,37.0,41.0,-26.367185592651367,2.197265625,-8.4228515625,-1.7718505859375,0.51171875,0.085205078125
6.468,311,1173,1428,312,-8.0,37.0,41.0,0.54931640625,3.173827886581421,-5.249022960662842,-1.605712890625,0.3885498046875,0.0614013671875
6.476,314,1104,1339,312,-8.0,37.0,41.0,27.221677780151367,5.676269054412842,-0.30517578125,-1.4061279296875,0.3228759765625,0.08251953125
6.489,312,966,1189,312,-8.0,37.0,41.0,48.339839935302734,11.779784202575684,9.09423828125,-1.171142578125,0.4630126953125,0.071533203125
6.516,310,878,1104,312,-8.0,37.0,41.0,52.368160247802734,18.310546875,16.7236328125,-0.859619140625,0.5867919921875,0.0814208984375
6.517,310,780,1029,312,-8.0,37.0,41.0,38.0859375,22.583005905151367,15.991209983825684,-0.54345703125,0.52685546875,0.08447265625
6.520,310,608,920,312,-8.0,37.0,41.0,19.6533203125,26.550291061401367,8.544921875,-0.3026123046875,0.34765625,0.052978515625
6.528,310,551,818,312,-8.0,37.0,41.0,7.141112804412842,27.221677780151367,-4.2724609375,-0.128662109375,0.0892333984375,0.0965576171875
6.540,310,493,780,312,-8.0,37.0,41.0,4.33349609375,21.545408248901367,-19.71435546875,-0.06005859375,-0.1123046875,0.185302734375
6.550,310,382,713,310,-8.0,37.0,41.0,18.85986328125,14.648436546325684,-30.334470748901367,-0.1580810546875,-0.0828857421875,0.1259765625
6.558,310,354,682,310,-8.0,40.0,42.0,46.386714935302734,11.962889671325684,-34.72900390625,-0.380859375,0.1673583984375,-0.126220703125
6.566,310,340,645,310,-8.0,40.0,42.0,62.194820404052734,9.521484375,-35.58349609375,-0.583740234375,0.4344482421875,-0.3408203125
6.580,310,331,622,309,-8.0,40.0,42.0,54.626461029052734,2.563476324081421,-32.40966796875,-0.654052734375,0.5771484375,-0.3687744140625
6.591,310,327,616,309,-8.0,40.0,42.0,36.92626953125,-4.5166015625,-27.954099655151367,-0.6241455078125,0.6092529296875,-0.305908203125
6.596,309,325,614,309,-8.0,40.0,42.0,18.1884765625,-7.080077648162842,-29.296873092651367,-0.60400390625,0.5072021484375,-0.212646484375
6.609,310,324,632,309,-8.0,40.0,42.0,-1.15966796875,-7.019042491912842,-37.29248046875,-0.7303466796875,0.156982421875,-0.0152587890625
6.620,308,325,629,310,-8.0,40.0,42.0,-15.319823265075684,-6.225585460662842,-43.823238372802734,-0.7303466796875,0.156982421875,-0.0152587890625
6.626,310,326,628,310,-8.0,40.0,42.0,-19.83642578125,-5.554198741912842,-43.518062591552734,-0.814697265625,0.1126708984375,0.0137939453125
6.646,309,322,644,310,-8.0,40.0,42.0,-17.4560546875,-5.432128429412842,-36.865234375,-0.887939453125,0.2073974609375,0.0140380859375
6.648,310,325,648,310,-8.0,40.0,42.0,-13.000487327575684,-5.432128429412842,-27.038572311401367,-0.887939453125,0.2073974609375,0.0140380859375
6.656,309,325,657,311,-9.0,40.0,45.0,-11.657713890075684,-5.249022960662842,-16.66259765625,-0.8834228515625,0.221923828125,0.0443115234375
6.670,308,329,688,310,-9.0,40.0,45.0,-13.427733421325684,-4.21142578125,-8.48388671875,-0.857421875,0.130615234375,0.1143798828125
6.678,310,331,705,311,-9.0,40.0,45.0,-12.634276390075684,-0.54931640625,-3.540038824081421,-0.857421875,0.130615234375,0.1143798828125
6.693,310,337,718,310,-9.0,40.0,45.0,-7.385253429412842,5.0048828125,0.8544921278953552,-0.86328125,0.14111328125,0.0672607421875
6.715,310,340,745,311,-9.0,40.0,45.0,-1.5258787870407104,8.85009765625,7.080077648162842,-0.8565673828125,0.2344970703125,-0.06640625
6.717,298,356,766,310,-9.0,40.0,45.0,1.0986328125,8.97216796875,14.953612327575684,-0.8565673828125,0.2344970703125,-0.06640625
6.718,310,374,784,309,-9.0,40.0,45.0,-1.8310545682907104,6.103515148162842,22.766111373901367,-0.8160400390625,0.244140625,-0.0911865234375
6.733,309,414,806,311,-9.0,40.0,45.0,-10.314940452575684,3.051757574081421,29.174802780151367,-0.599853515625,0.1619873046875,-0.0750732421875
6.738,310,457,827,311,-9.0,40.0,45.0,-20.446775436401367,1.6479490995407104,34.0576171875,-0.599853515625,0.1619873046875,-0.0750732421875
6.753,310,510,818,312,-9.0,40.0,45.0,-26.611326217651367,0.1831054538488388,36.376953125,-0.3450927734375,0.10302734375,-0.04833984375
6.761,310,646,840,310,-8.0,40.0,39.0,-15.624999046325684,-11.962889671325684,29.052732467651367,0.25537109375,0.0054931640625,0.03662109375
6.768,310,728,957,312,-8.0,40.0,39.0,-15.624999046325684,-11.962889671325684,29.052732467651367,0.375732421875,0.0982666015625,-0.0596923828125
6.776,312,797,1095,312,-8.0,40.0,39.0,1.4648436307907104,-19.287109375,19.6533203125,0.375732421875,0.0982666015625,-0.0596923828125
6.797,310,955,1348,312,-8.0,40.0,39.0,10.253905296325684,-50.537105560302734,-22.827146530151367,-0.0107421875,0.697509765625,-0.2611083984375
6.798,310,1054,1464,312,-8.0,40.0,39.0,10.253905296325684,-50.537105560302734,-22.827146530151367,-0.5111083984375,0.766845703125,-0.169189453125
6.818,310,1145,1580,312,-8.0,40.0,39.0,-20.507810592651367,-62.988277435302734,-49.682613372802734,-0.5111083984375,0.766845703125,-0.169189453125
6.823,310,1279,1759,312,-8.0,40.0,39.0,-74.76806640625,-45.715328216552734,-67.44384765625,-1.930908203125,1.0775146484375,-0.0765380859375
6.828,310,1334,1842,311,-8.0,40.0,39.0,-74.76806640625,-45.715328216552734,-67.44384765625,-2.1353759765625,0.58984375,0.5738525390625
6.836,311,1377,1891,312,-8.0,40.0,39.0,-114.99022674560547,-49.560543060302734,-60.302730560302734,-2.1353759765625,0.58984375,0.5738525390625
6.849,310,1413,1895,312,-8.0,40.0,39.0,-62.744136810302734,-39.24560546875,-35.888671875,-2.3466796875,-0.5445556640625,1.04150390625
6.859,311,1392,1844,312,-5.0,40.0,42.0,-62.744136810302734,-39.24560546875,-35.888671875,-2.394287109375,0.010986328125,0.1964111328125
6.866,310,1380,1803,312,-5.0,40.0,42.0,14.221190452575684,-2.990722417831421,-1.5258787870407104,-2.394287109375,0.010986328125,0.1964111328125
6.880,310,1363,1748,312,-5.0,40.0,42.0,49.255367279052734,42.541500091552734,42.175289154052734,-1.0850830078125,0.54833984375,-0.140869140625
6.888,311,1366,1743,312,-5.0,40.0,42.0,49.255367279052734,42.541500091552734,42.175289154052734,-1.012939453125,0.8416748046875,-0.0960693359375
6.898,310,1361,1742,310,-5.0,40.0,42.0,29.968259811401367,42.053218841552734,33.8134765625,-1.012939453125,0.8416748046875,-0.0960693359375
6.917,310,1323,1709,314,-5.0,40.0,42.0,-7.751464366912842,33.87451171875,1.15966796875,-1.868896484375,0.89697265625,-0.3026123046875
6.918,310,1294,1689,312,-5.0,40.0,42.0,-23.986814498901367,22.521970748901367,-9.3994140625,-1.900390625,0.55322265625,-0.086669921875
6.926,311,1257,1655,312,-5.0,40.0,42.0,-23.986814498901367,22.521970748901367,-9.3994140625,-1.7822265625,0.3895263671875,0.0489501953125
6.940,311,1170,1559,312,-5.0,40.0,42.0,-17.15087890625,14.465331077575684,-2.990722417831421,-1.64599609375,0.3394775390625,0.028564453125
6.948,310,1089,1483,312,-5.0,40.0,42.0,-5.249022960662842,19.8974609375,4.39453125,-1.4775390625,0.298583984375,-0.0028076171875
6.967,310,1026,1383,312,-3.0,40.0,45.0,-5.249022960662842,19.8974609375,4.39453125,-1.2896728515625,0.337890625,0.017333984375
6.972,310,916,1183,312,-3.0,40.0,45.0,4.57763671875,35.82763671875,25.939939498901367,-1.0855712890625,0.3385009765625,0.1285400390625
6.978,310,847,1078,312,-3.0,40.0,45.0,0.54931640625,42.358394622802734,34.97314453125,-0.837158203125,0.1981201171875,0.2906494140625
6.986,310,766,992,312,-3.0,40.0,45.0,0.54931640625,42.358394622802734,34.97314453125,-0.580810546875,0.0389404296875,0.354248046875
7.000,310,631,837,311,-3.0,40.0,45.0,14.709471702575684,54.809566497802734,40.893550872802734,-0.34912109375,-0.0743408203125,0.322998046875
7.018,310,568,744,310,-3.0,40.0,45.0,33.63037109375,53.344722747802734,35.70556640625,-0.1754150390625,-0.15869140625,0.270263671875
7.028,310,521,698,310,-3.0,40.0,45.0,33.63037109375,53.344722747802734,35.70556640625,-0.119140625,-0.1246337890625,0.1048583984375
7.030,311,451,601,308,-3.0,40.0,45.0,75.37841796875,40.161128997802734,10.437010765075684,-0.1846923828125,0.046875,-0.19775390625
7.038,310,424,564,310,-3.0,40.0,45.0,84.47264862060547,33.02001953125,-0.1220703050494194,-0.298095703125,0.3182373046875,-0.4549560546875
7.046,310,414,557,310,-3.0,40.0,45.0,84.47264862060547,33.02001953125,-0.1220703050494194,-0.39501953125,0.6490478515625,-0.5477294921875
7.060,310,399,556,310,-9.0,39.0,37.0,50.537105560302734,13.366698265075684,6.286620616912842,-0.4818115234375,0.8662109375,-0.504638671875
7.083,310,396,566,312,-9.0,39.0,37.0,19.71435546875,6.225585460662842,5.798339366912842,-0.553466796875,0.8223876953125,-0.375244140625
7.083,310,399,577,310,-9.0,39.0,37.0,-8.11767578125,2.3193359375,-5.737304210662842,-0.6201171875,0.564208984375,-0.21630859375
7.090,311,408,579,310,-9.0,39.0,37.0,-23.254392623901367,0.0,-20.080564498901367,-0.71826171875,0.288818359375,-0.08740234375
7.103,311,411,591,310,-9.0,39.0,37.0,-25.695798873901367,-2.44140625,-28.381345748901367,-0.8192138671875,0.131103515625,-0.005859375
7.106,310,413,574,311,-9.0,39.0,37.0,-21.545408248901367,-3.967284917831421,-27.954099655151367,-0.8892822265625,0.08544921875,0.023681640625
7.120,310,427,585,312,-9.0,39.0,37.0,-15.686034202575684,-3.662109136581421,-21.118162155151367,-0.9403076171875,0.0989990234375,0.0157470703125
7.135,310,430,583,312,-9.0,39.0,37.0,-11.596678733825684,-2.929687261581421,-11.413573265075684,-0.970458984375,0.1331787109375,0.01806640625
7.136,296,438,579,310,-9.0,39.0,37.0,-11.779784202575684,-2.746581792831421,-0.4882812201976776,-0.9837646484375,0.18115234375,0.035400390625
7.150,310,452,573,312,-7.0,40.0,39.0,-14.526366233825684,-2.01416015625,10.620116233825684,-0.991455078125,0.2291259765625,0.03662109375
7.158,308,453,566,311,-7.0,40.0,39.0,-17.51708984375,0.6103515625,20.202634811401367,-0.9859619140625,0.2442626953125,0.02294921875
7.169,310,455,562,311,-7.0,40.0,39.0,-20.385740280151367,4.94384765625,27.832029342651367,-0.96484375,0.2412109375,0.0089111328125
7.184,310,467,532,310,-7.0,40.0,39.0,-22.949216842651367,10.070799827575684,35.09521484375,-0.9322509765625,0.25634765625,-0.0020751953125
7.188,310,469,523,310,-7.0,40.0,39.0,-27.038572311401367,15.930174827575684,43.090816497802734,-0.8876953125,0.260986328125,-0.00830078125
7.196,310,481,504,311,-7.0,40.0,39.0,-32.89794921875,22.216794967651367,51.879878997802734,-0.8311767578125,0.2198486328125,-0.0216064453125
7.250,310,497,456,310,-7.0,40.0,39.0,-35.82763671875,27.038572311401367,62.927242279052734,-0.753662109375,0.1640625,-0.0753173828125
7.250,310,518,420,310,-7.0,40.0,39.0,-34.66796875,27.587888717651367,77.45361328125,-0.6456298828125,0.089111328125,-0.1373291015625
7.250,310,552,423,310,-7.0,40.0,39.0,-33.75244140625,22.583005905151367,94.42137908935547,-0.470703125,-0.015869140625,-0.1043701171875
7.250,310,644,425,310,-7.0,40.0,39.0,-30.639646530151367,13.122557640075684,109.13085174560547,-0.20654296875,-0.0518798828125,0.0009765625
7.250,310,713,449,310,-7.0,40.0,39.0,-14.526366233825684,-1.220703125,112.73192596435547,0.17822265625,0.024658203125,0.1519775390625
7.256,310,780,525,310,-9.0,38.0,38.0,24.658201217651367,-21.301267623901367,91.97997283935547,0.5394287109375,0.0809326171875,0.32861328125
7.271,310,913,772,310,-9.0,38.0,38.0,72.3876953125,-37.78076171875,45.898433685302734,0.51318359375,0.16748046875,0.1641845703125
7.287,310,987,879,312,-9.0,38.0,38.0,85.99852752685547,-43.762203216552734,0.4272460639476776,0.098388671875,0.505126953125,-0.339111328125
7.287,311,1053,996,312,-9.0,38.0,38.0,36.56005859375,-42.907711029052734,-21.545408248901367,-0.4312744140625,0.9798583984375,-0.7625732421875
7.299,311,1143,1251,311,-9.0,38.0,38.0,-47.851558685302734,-31.799314498901367,-17.578125,-1.134765625,1.5330810546875,-1.151611328125
7.308,311,1175,1381,313,-9.0,38.0,38.0,-125.97655487060547,-20.385740280151367,-2.25830078125,-2.027587890625,1.961181640625,-1.181884765625
7.335,311,1201,1476,312,-9.0,38.0,38.0,-199.27976989746094,-35.64453125,8.4228515625,-2.5931396484375,1.452392578125,-0.157958984375
7.335,311,1213,1508,312,-9.0,38.0,38.0,-238.58641052246094,-64.94140625,16.845703125,-2.4981689453125,0.1243896484375,1.3037109375
7.338,312,1204,1419,312,-9.0,38.0,38.0,-172.91258239746094,-65.3076171875,28.808591842651367,-2.0491943359375,-0.6632080078125,1.8865966796875
7.346,310,1189,1289,312,-9.0,38.0,38.0,-20.446775436401367,-30.090330123901367,43.945308685302734,-1.53173828125,-0.31298828125,1.3526611328125
7.359,312,1184,1163,311,-8.0,43.0,44.0,112.42675018310547,16.29638671875,54.565425872802734,-1.0638427734375,0.531005859375,0.2938232421875
7.368,311,1185,1163,312,-8.0,43.0,44.0,155.6396484375,52.673336029052734,52.368160247802734,-0.8570556640625,1.1661376953125,-0.60888671875
7.376,310,1184,1156,313,-8.0,43.0,44.0,113.15917205810547,64.453125,37.7197265625,-1.0765380859375,1.36474609375,-0.933837890625
7.391,311,1160,1146,312,-8.0,43.0,44.0,34.48486328125,54.931636810302734,17.88330078125,-1.8387451171875,1.0140380859375,-0.432861328125
7.398,310,1143,1120,312,-8.0,43.0,44.0,-26.245115280151367,39.306640625,5.554198741912842,-1.8387451171875,1.0140380859375,-0.432861328125
7.419,310,1108,1074,312,-8.0,43.0,44.0,-45.898433685302734,23.193357467651367,4.150390625,-1.7861328125,0.7236328125,-0.0882568359375
7.422,311,1010,943,309,-8.0,43.0,44.0,-28.198240280151367,9.8876953125,6.042479991912842,-1.3377685546875,0.4224853515625,0.134765625
7.439,310,986,885,312,-8.0,43.0,44.0,9.6435546875,4.08935546875,6.591796398162842,-1.3377685546875,0.4224853515625,0.134765625
7.439,297,928,793,311,-8.0,43.0,44.0,44.921871185302734,6.164550304412842,7.751464366912842,-1.1746826171875,0.5771484375,0.005126953125
7.449,310,824,677,312,-10.0,42.0,38.0,60.424800872802734,11.718749046325684,10.253905296325684,-0.6788330078125,0.777587890625,-0.052978515625
7.458,310,778,632,311,-10.0,42.0,38.0,54.382320404052734,13.916014671325684,9.1552734375,-0.6788330078125,0.777587890625,-0.052978515625
7.466,310,716,590,311,-10.0,42.0,38.0,39.73388671875,11.901854515075684,0.4882812201976776,-0.394287109375,0.57275390625,0.016845703125
7.480,310,619,543,311,-10.0,42.0,38.0,30.639646530151367,9.33837890625,-13.610838890075684,-0.1702880859375,0.310302734375,0.0592041015625
7.488,310,572,519,311,-10.0,42.0,38.0,30.334470748901367,6.713866710662842,-27.770994186401367,-0.1702880859375,0.310302734375,0.0592041015625
7.498,310,533,502,312,-10.0,42.0,38.0,35.400390625,4.39453125,-37.59765625,-0.223876953125,0.2884521484375,0.0369873046875
7.514,310,480,488,310,-10.0,42.0,38.0,41.015621185302734,2.685546636581421,-42.663570404052734,-0.3818359375,0.29638671875,-0.0889892578125
7.526,310,451,504,311,-10.0,42.0,38.0,42.785640716552734,0.7324218153953552,-45.104976654052734,-0.4652099609375,0.3514404296875,-0.1910400390625
7.531,310,430,526,310,-10.0,42.0,38.0,41.259761810302734,-2.13623046875,-46.630855560302734,-0.4652099609375,0.3514404296875,-0.1910400390625
7.540,310,414,553,310,-10.0,42.0,38.0,31.921384811401367,-12.634276390075684,-48.645015716552734,-0.7183837890625,0.5159912109375,-0.3243408203125
7.548,309,407,568,311,-10.0,42.0,39.0,31.921384811401367,-12.634276390075684,-48.645015716552734,-0.7723388671875,0.4620361328125,-0.2891845703125
7.557,310,408,568,310,-10.0,42.0,39.0,20.01953125,-18.1884765625,-48.645015716552734,-0.7723388671875,0.4620361328125,-0.2891845703125
7.570,310,408,582,310,-10.0,42.0,39.0,2.44140625,-23.864744186401367,-43.334957122802734,-0.779052734375,0.247314453125,-0.0721435546875
7.581,310,409,594,310,-10.0,42.0,39.0,2.44140625,-23.864744186401367,-43.334957122802734,-0.7969970703125,0.2003173828125,-0.003662109375
7.586,310,411,603,310,-10.0,42.0,39.0,2.624511480331421,-24.230955123901367,-38.818359375,-0.7969970703125,0.2003173828125,-0.003662109375
7.604,310,415,607,312,-10.0,42.0,39.0,5.981444835662842,-24.353025436401367,-29.235837936401367,-0.8714599609375,0.2816162109375,0.0389404296875
7.615,308,420,608,312,-10.0,42.0,39.0,5.981444835662842,-24.353025436401367,-29.235837936401367,-0.8916015625,0.30810546875,0.005615234375
7.616,306,420,608,311,-10.0,42.0,39.0,5.615233898162842,-21.850584030151367,-24.108884811401367,-0.8916015625,0.30810546875,0.005615234375
7.642,309,428,603,310,-10.0,42.0,39.0,-2.868652105331421,-9.033203125,-9.8876953125,-0.878173828125,0.298095703125,-0.05224609375
7.643,308,434,606,310,-10.0,42.0,39.0,-2.868652105331421,-9.033203125,-9.8876953125,-0.843017578125,0.31005859375,-0.0379638671875
7.647,310,440,612,311,-10.0,42.0,39.0,-10.864256858825684,-4.150390625,-2.44140625,-0.843017578125,0.31005859375,-0.0379638671875
7.660,311,452,620,310,-10.0,42.0,39.0,-20.01953125,-1.5869139432907104,8.7890625,-0.7252197265625,0.2423095703125,-0.040283203125
7.668,310,473,622,310,-10.0,42.0,39.0,-24.047849655151367,-1.03759765625,16.357421875,-0.6695556640625,0.1907958984375,-0.068115234375
7.676,310,496,639,310,-10.0,42.0,39.0,-24.047849655151367,-1.03759765625,16.357421875,-0.556640625,0.1510009765625,-0.0828857421875
7.690,310,561,620,311,-10.0,42.0,39.0,-31.616209030151367,-3.662109136581421,34.97314453125,-0.3460693359375,0.1524658203125,-0.0738525390625
7.698,310,639,620,310,-10.0,42.0,39.0,-27.221677780151367,-10.131834983825684,36.865234375,-0.0386962890625,0.1668701171875,-0.04931640625
7.719,310,697,668,311,-10.0,42.0,39.0,-27.221677780151367,-10.131834983825684,36.865234375,0.2418212890625,0.14208984375,0.0010986328125
7.719,295,819,853,304,-10.0,42.0,39.0,9.8876953125,-28.808591842651367,5.493163585662842,0.2803955078125,0.1744384765625,0.029541015625
7.739,312,894,1000,311,-10.0,42.0,39.0,22.521970748901367,-40.527339935302734,-19.95849609375,0.138671875,0.3516845703125,0.051513671875
7.746,312,980,1146,312,-10.0,42.0,39.0,22.521970748901367,-40.527339935302734,-19.95849609375,-0.113037109375,0.50927734375,-0.0067138671875
7.749,311,1122,1323,311,-6.0,39.0,46.0,-9.09423828125,-49.133296966552734,-59.631343841552734,-0.611572265625,0.644287109375,-0.21875
7.758,310,1196,1428,312,-6.0,39.0,46.0,-43.090816497802734,-42.724605560302734,-56.518550872802734,-1.316162109375,0.9825439453125,-0.3948974609375
7.766,310,1243,1518,312,-6.0,39.0,46.0,-43.090816497802734,-42.724605560302734,-56.518550872802734,-1.8514404296875,1.087646484375,-0.16552734375
7.781,311,1295,1666,312,-6.0,39.0,46.0,-113.34227752685547,-48.645015716552734,-26.733396530151367,-2.0650634765625,0.68115234375,0.4541015625
7.789,312,1326,1711,311,-6.0,39.0,46.0,-98.81591033935547,-48.889156341552734,-18.24951171875,-2.1990966796875,0.21875,0.980712890625
7.796,310,1349,1704,312,-6.0,39.0,46.0,-98.81591033935547,-48.889156341552734,-18.24951171875,-2.259765625,-0.0799560546875,1.025390625
7.816,310,1344,1592,312,-6.0,39.0,46.0,24.108884811401367,-5.493163585662842,13.854979515075684,-2.0638427734375,0.044189453125,0.44140625
7.825,311,1321,1545,311,-6.0,39.0,46.0,75.0732421875,29.724119186401367,31.921384811401367,-1.49853515625,0.4471435546875,-0.1868896484375
7.826,296,1302,1502,311,-6.0,39.0,46.0,81.35985565185547,45.288082122802734,36.92626953125,-0.9813232421875,0.8145751953125,-0.44140625
7.843,310,1294,1511,312,-6.0,39.0,46.0,48.828121185302734,40.222164154052734,25.939939498901367,-0.8604736328125,0.977294921875,-0.4296875
7.848,310,1286,1518,314,-6.0,39.0,41.0,8.72802734375,28.137205123901367,7.873534679412842,-1.14990234375,0.9332275390625,-0.3026123046875
7.859,310,1264,1499,313,-6.0,39.0,41.0,-17.39501953125,19.10400390625,-5.310058116912842,-1.6925048828125,0.915771484375,-0.18798828125
7.870,310,1219,1434,312,-6.0,39.0,41.0,-29.968259811401367,11.901854515075684,-8.4228515625,-1.971923828125,0.779052734375,-0.011474609375
7.878,311,1188,1393,312,-6.0,39.0,41.0,-27.832029342651367,6.835937023162842,-4.94384765625,-1.889892578125,0.558837890625,0.1214599609375
7.887,314,1147,1319,312,-6.0,39.0,41.0,-8.7890625,7.934569835662842,1.4648436307907104,-1.6827392578125,0.42333984375,0.1265869140625
7.900,310,1050,1112,312,-6.0,39.0,41.0,16.41845703125,14.282225608825684,8.60595703125,-1.476318359375,0.418701171875,0.0528564453125
7.909,312,971,987,312,-6.0,39.0,41.0,34.60693359375,23.681638717651367,17.822265625,-1.2630615234375,0.4991455078125,-0.011474609375
7.937,311,910,861,312,-6.0,39.0,41.0,36.9873046875,31.372068405151367,27.709959030151367,-0.9984130859375,0.4918212890625,0.0535888671875
7.946,308,778,694,312,-6.0,39.0,41.0,26.367185592651367,35.400390625,32.77587890625,-0.70263671875,0.3507080078125,0.188720703125
7.946,310,695,644,312,-6.0,39.0,41.0,16.845703125,39.12353515625,31.494138717651367,-0.4644775390625,0.17919921875,0.2255859375
7.950,310,629,579,312,-9.0,40.0,41.0,18.1884765625,41.809078216552734,25.939939498901367,-0.330810546875,0.02294921875,0.181396484375
7.960,310,545,538,311,-9.0,40.0,41.0,27.648923873901367,39.306640625,16.29638671875,-0.252685546875,-0.0882568359375,0.1671142578125
7.972,310,497,512,310,-9.0,40.0,41.0,41.503902435302734,32.16552734375,4.150390625,-0.2467041015625,-0.0416259765625,0.109375
7.976,310,435,485,312,-9.0,40.0,41.0,56.274410247802734,23.376462936401367,-6.286620616912842,-0.3369140625,0.1768798828125,-0.06298828125
7.991,309,385,439,310,-9.0,40.0,41.0,64.39208984375,14.465331077575684,-12.390135765075684,-0.384765625,0.4588623046875,-0.270263671875
7.998,310,371,439,310,-9.0,40.0,41.0,61.950679779052734,8.7890625,-12.084959983825684,-0.36865234375,0.70703125,-0.4384765625
8.006,310,362,442,311,-9.0,40.0,41.0,49.865718841552734,6.164550304412842,-8.6669921875,-0.408447265625,0.841796875,-0.4951171875
8.053,310,364,465,310,-9.0,40.0,41.0,29.724119186401367,2.25830078125,-11.230467796325684,-0.5028076171875,0.7799072265625,-0.4208984375
8.053,310,367,481,310,-9.0,40.0,41.0,9.3994140625,-2.38037109375,-22.521970748901367,-0.6080322265625,0.5472412109375,-0.2939453125
8.054,311,379,496,311,-9.0,40.0,41.0,-2.685546636581421,-6.896972179412842,-34.97314453125,-0.6937255859375,0.320068359375,-0.1700439453125
8.054,297,380,506,310,-10.0,40.0,36.0,-7.019042491912842,-12.451170921325684,-40.710445404052734,-0.758544921875,0.224609375,-0.0767822265625
8.058,309,391,533,311,-10.0,40.0,36.0,-7.690429210662842,-17.27294921875,-38.26904296875,-0.813720703125,0.2386474609375,-0.0421142578125
8.066,310,396,548,308,-10.0,40.0,36.0,-8.11767578125,-19.10400390625,-31.127927780151367,-0.8468017578125,0.2529296875,-0.0284423828125
8.084,310,407,579,311,-10.0,40.0,36.0,-11.047362327575684,-18.00537109375,-22.338865280151367,-0.872314453125,0.2313232421875,0.0029296875
8.093,310,411,588,310,-10.0,40.0,36.0,-15.747069358825684,-14.038084983825684,-13.183592796325684,-0.9119873046875,0.2113037109375,0.027587890625
8.096,309,415,593,311,-10.0,40.0,36.0,-19.34814453125,-7.263183116912842,-4.2724609375,-0.9515380859375,0.20361328125,0.0279541015625
8.109,310,425,599,312,-10.0,40.0,36.0,-22.216794967651367,0.3662109076976776,4.82177734375,-0.97216796875,0.204345703125,0.0177001953125
8.118,310,433,607,311,-10.0,40.0,36.0,-26.733396530151367,6.958007335662842,14.648436546325684,-0.962646484375,0.204833984375,0.008544921875
8.127,310,438,608,311,-10.0,40.0,36.0,-33.14208984375,11.108397483825684,25.634763717651367,-0.9073486328125,0.197021484375,-0.0047607421875
8.157,310,465,587,310,-10.0,40.0,36.0,-38.57421875,12.451170921325684,38.51318359375,-0.7054443359375,0.1715087890625,0.0013427734375
8.158,310,495,552,312,-8.0,40.0,41.0,-41.687007904052734,12.084959983825684,52.551265716552734,-0.7054443359375,0.1715087890625,0.0013427734375
8.158,310,532,482,297,-8.0,40.0,41.0,-41.992183685302734,11.718749046325684,65.85693359375,-0.538818359375,0.1083984375,0.0008544921875
8.170,310,644,473,312,-8.0,40.0,41.0,-36.865234375,9.58251953125,76.96533203125,0.33203125,-0.010009765625,0.2294921875
8.178,310,715,558,310,-8.0,40.0,41.0,-20.812986373901367,2.13623046875,80.44432830810547,0.33203125,-0.010009765625,0.2294921875
8.186,310,792,689,311,-8.0,40.0,41.0,13.183592796325684,-8.23974609375,66.71142578125,0.64599609375,0.0574951171875,0.25830078125
8.201,312,925,981,312,-8.0,40.0,41.0,56.640621185302734,-21.301267623901367,33.50830078125,0.2509765625,0.5135498046875,-0.2816162109375
8.208,310,1008,1101,312,-8.0,40.0,41.0,72.20458984375,-35.2783203125,-7.568358898162842,0.2509765625,0.5135498046875,-0.2816162109375
8.216,311,1101,1206,313,-8.0,40.0,41.0,31.127927780151367,-38.75732421875,-38.4521484375,-0.35107421875,0.8829345703125,-0.634521484375
8.230,311,1198,1456,311,-8.0,40.0,41.0,-45.166011810302734,-26.916501998901367,-46.203609466552734,-2.2149658203125,1.82177734375,-0.99755859375
8.259,311,1231,1564,312,-8.0,40.0,41.0,-127.92967987060547,-18.24951171875,-29.968259811401367,-2.2149658203125,1.82177734375,-0.99755859375
8.260,312,1243,1634,313,-5.0,40.0,41.0,-203.12498474121094,-35.888671875,-7.324218273162842,-2.612548828125,1.3162841796875,-0.0499267578125
8.260,311,1242,1624,312,-5.0,40.0,41.0,-224.48728942871094,-65.4296875,8.1787109375,-2.3311767578125,-0.9354248046875,1.853759765625
8.268,311,1219,1543,312,-5.0,40.0,41.0,-145.751953125,-66.40625,25.512693405151367,-2.3311767578125,-0.9354248046875,1.853759765625
8.276,312,1204,1464,312,-5.0,40.0,41.0,0.4272460639476776,-27.404783248901367,49.804683685302734,-1.7091064453125,-0.5328369140625,1.2718505859375
8.290,310,1198,1404,312,-5.0,40.0,41.0,152.83203125,65.61279296875,66.46728515625,-0.6639404296875,1.4677734375,-0.7296142578125
8.298,310,1198,1407,312,-5.0,40.0,41.0,152.83203125,65.61279296875,66.46728515625,-0.937744140625,1.4578857421875,-0.8958740234375
8.310,310,1191,1395,312,-5.0,40.0,41.0,92.46825408935547,70.12939453125,42.480464935302734,-0.937744140625,1.4578857421875,-0.8958740234375
8.320,310,1162,1345,312,-5.0,40.0,41.0,-38.51318359375,36.43798828125,2.868652105331421,-1.872314453125,0.873046875,-0.3505859375
8.337,310,1132,1308,312,-5.0,40.0,41.0,-38.51318359375,36.43798828125,2.868652105331421,-1.8563232421875,0.6806640625,-0.05419921875
8.337,311,1092,1239,314,-5.0,40.0,41.0,-45.959468841552734,20.141599655151367,6.530761241912842,-1.8563232421875,0.6806640625,-0.05419921875
8.778,310,963,902,312,-15.0,39.0,41.0,5.615233898162842,9.765625,18.61572265625,-1.2869873046875,0.627685546875,0.0516357421875
8.779,311,886,771,311,-15.0,39.0,41.0,32.89794921875,13.671874046325684,21.606443405151367,-1.2869873046875,0.627685546875,0.0516357421875
8.779,310,796,599,299,-15.0,39.0,41.0,45.654293060302734,20.202634811401367,29.235837936401367,-0.73388671875,0.493896484375,0.0762939453125
8.779,310,739,547,310,-15.0,39.0,41.0,45.654293060302734,20.202634811401367,29.235837936401367,-0.4669189453125,0.338134765625,0.07666015625
8.779,311,693,483,311,-15.0,39.0,41.0,39.85595703125,22.521970748901367,28.991697311401367,-0.4669189453125,0.338134765625,0.07666015625
8.779,309,616,469,310,-15.0,39.0,41.0,33.69140625,26.916501998901367,8.7890625,-0.08349609375,0.065185546875,0.128662109375
8.779,310,573,475,310,-15.0,39.0,41.0,33.69140625,26.916501998901367,8.7890625,-0.06689453125,0.083984375,0.114990234375
8.779,310,537,481,312,-15.0,39.0,41.0,40.283199310302734,25.634763717651367,-10.192870140075684,-0.18798828125,0.317138671875,0.0487060546875
8.779,310,496,481,312,-14.0,42.0,43.0,52.734371185302734,13.916014671325684,-31.738279342651367,-0.328369140625,0.5634765625,-0.0977783203125
8.779,308,483,481,310,-14.0,42.0,43.0,47.424312591552734,10.925292015075684,-32.470703125,-0.43505859375,0.6907958984375,-0.3118896484375
8.779,309,479,484,312,-14.0,42.0,43.0,47.424312591552734,10.925292015075684,-32.470703125,-0.5687255859375,0.7723388671875,-0.46533203125
8.780,310,457,496,312,-14.0,42.0,43.0,29.663084030151367,6.347655773162842,-27.893064498901367,-0.719970703125,0.7408447265625,-0.46533203125
8.780,311,452,504,310,-14.0,42.0,43.0,12.817381858825684,-1.8310545682907104,-31.188962936401367,-0.804931640625,0.54345703125,-0.321533203125
8.780,310,452,519,312,-14.0,42.0,43.0,12.817381858825684,-1.8310545682907104,-31.188962936401367,-0.8077392578125,0.3134765625,-0.14404296875
8.780,310,444,524,310,-14.0,42.0,43.0,-5.310058116912842,-16.90673828125,-34.85107421875,-0.783935546875,0.2081298828125,-0.0577392578125
8.780,310,447,533,311,-14.0,42.0,43.0,2.44140625,-20.935056686401367,-31.494138717651367,-0.78076171875,0.2392578125,-0.05859375
8.780,310,447,533,311,-14.0,42.0,43.0,2.44140625,-20.935056686401367,-31.494138717651367,-0.8087158203125,0.323974609375,-0.052001953125
8.780,310,452,547,311,-14.0,42.0,43.0,11.047362327575684,-25.146482467651367,-25.451658248901367,-0.83984375,0.3955078125,-0.0185546875
8.780,311,450,556,312,-14.0,42.0,43.0,6.103515148162842,-23.254392623901367,-21.728513717651367,-0.858154296875,0.421630859375,-0.0166015625
8.780,310,451,562,310,-9.0,40.0,42.0,6.103515148162842,-23.254392623901367,-21.728513717651367,-0.8692626953125,0.4161376953125,-0.0426025390625
8.780,310,449,576,311,-9.0,40.0,42.0,-1.3427733182907104,-13.000487327575684,-13.549803733825684,-0.8717041015625,0.3934326171875,-0.0487060546875
8.780,310,447,587,310,-9.0,40.0,42.0,-4.82177734375,-8.4228515625,-10.314940452575684,-0.8680419921875,0.3626708984375,-0.03271484375
8.780,310,447,592,311,-9.0,40.0,42.0,-4.82177734375,-8.4228515625,-10.314940452575684,-0.8663330078125,0.3548583984375,-0.023193359375
8.781,310,449,599,310,-9.0,40.0,42.0,-14.953612327575684,-0.4882812201976776,-0.9765624403953552,-0.867431640625,0.3602294921875,-0.0303955078125
8.781,310,449,596,311,-9.0,40.0,42.0,-19.4091796875,3.356933355331421,3.784179449081421,-0.8621826171875,0.3541259765625,-0.046630859375
8.781,310,452,592,312,-9.0,40.0,42.0,-22.888181686401367,6.713866710662842,8.7890625,-0.846923828125,0.346923828125,-0.06494140625
8.781,310,469,588,311,-9.0,40.0,42.0,-25.451658248901367,8.72802734375,14.648436546325684,-0.8076171875,0.34326171875,-0.072265625
8.781,310,490,585,311,-9.0,40.0,42.0,-27.343748092651367,8.30078125,20.385740280151367,-0.705322265625,0.2996826171875,-0.07373046875
8.781,308,518,589,310,-9.0,40.0,42.0,-27.343748092651367,4.69970703125,24.475095748901367,-0.5115966796875,0.2169189453125,-0.093994140625
8.781,311,601,604,310,-10.0,40.0,43.0,-23.986814498901367,-3.112792730331421,25.573728561401367,-0.195556640625,0.17919921875,-0.0953369140625
8.781,308,666,639,310,-10.0,40.0,43.0,-14.038084983825684,-15.075682640075684,18.12744140625,0.196533203125,0.146728515625,-0.0352783203125
8.781,310,740,684,310,-10.0,40.0,43.0,2.929687261581421,-26.184080123901367,-3.051757574081421,0.4578857421875,0.1099853515625,-0.006103515625
8.781,310,878,869,311,-10.0,40.0,43.0,23.864744186401367,-35.0341796875,-31.555173873901367,0.469970703125,0.2174072265625,-0.09326171875
8.781,310,966,998,312,-10.0,40.0,43.0,39.794921875,-48.400875091552734,-57.312007904052734,0.2574462890625,0.438232421875,-0.215576171875
8.781,310,1047,1129,308,-10.0,40.0,43.0,32.16552734375,-64.14794921875,-76.23291015625,-0.1591796875,0.6385498046875,-0.2974853515625
8.781,312,1204,1316,312,-10.0,40.0,43.0,-5.0048828125,-70.12939453125,-84.96092987060547,-0.83544921875,0.838134765625,-0.3641357421875
8.781,310,1264,1431,312,-10.0,40.0,43.0,-57.800289154052734,-64.8193359375,-77.69775390625,-1.6610107421875,1.1102294921875,-0.3531494140625
8.781,312,1300,1533,312,-10.0,40.0,43.0,-109.92430877685547,-59.692378997802734,-59.509273529052734,-2.171630859375,1.11328125,0.03662109375
