time,compression0,compression1,compression2,compression3,magn_x,magn_y,magn_z,gyro_x,gyro_y,gyro_z,accel_x,accel_y,accel_z
0.000,310,331,360,310,-10.0,43.0,42.0,-2.44140625,-2.563476324081421,-4.21142578125,-0.8741455078125,0.423828125,-0.057861328125
0.043,309,337,364,310,-10.0,43.0,42.0,-0.6713866591453552,-3.601073980331421,-7.751464366912842,-0.8992919921875,0.41748046875,-0.0316162109375
0.043,310,340,361,296,-10.0,43.0,42.0,0.4882812201976776,-4.45556640625,-11.901854515075684,-0.9202880859375,0.4227294921875,-0.016357421875
0.044,309,338,357,297,-10.0,43.0,42.0,0.2441406100988388,-5.0048828125,-15.991209983825684,-0.928466796875,0.42529296875,-0.017333984375
0.045,308,343,357,310,-10.0,43.0,42.0,0.0610351525247097,-4.5166015625,-18.798828125,-0.9293212890625,0.4156494140625,-0.03515625
0.051,311,345,354,310,-10.0,43.0,42.0,1.3427733182907104,-2.929687261581421,-19.4091796875,-0.93310546875,0.4007568359375,-0.0635986328125
0.058,309,355,354,309,-10.0,43.0,42.0,4.33349609375,-1.15966796875,-17.76123046875,-0.942138671875,0.39599609375,-0.094482421875
0.074,309,356,355,310,-10.0,43.0,42.0,8.1787109375,0.1220703050494194,-14.465331077575684,-0.94482421875,0.41015625,-0.1229248046875
0.082,310,356,357,310,-10.0,43.0,42.0,11.230467796325684,0.9155272841453552,-11.047362327575684,-0.929443359375,0.4393310546875,-0.148681640625
0.088,310,357,357,309,-10.0,43.0,42.0,11.535643577575684,1.220703125,-8.72802734375,-0.9039306640625,0.4708251953125,-0.1676025390625
0.102,309,363,361,308,-8.0,43.0,34.0,8.7890625,0.54931640625,-7.934569835662842,-0.8875732421875,0.4879150390625,-0.17041015625
0.137,310,364,361,310,-8.0,43.0,34.0,5.0048828125,-1.4038084745407104,-8.23974609375,-0.8812255859375,0.4830322265625,-0.14794921875
0.143,310,363,357,310,-8.0,43.0,34.0,4.21142578125,-4.57763671875,-8.72802734375,-0.872802734375,0.4796142578125,-0.11962890625
0.143,310,364,357,308,-8.0,43.0,34.0,6.408690929412842,-7.690429210662842,-9.46044921875,-0.8670654296875,0.48095703125,-0.1124267578125
0.143,311,367,357,310,-8.0,43.0,34.0,7.263183116912842,-9.1552734375,-10.437010765075684,-0.8680419921875,0.4681396484375,-0.118896484375
0.149,309,364,360,310,-8.0,43.0,34.0,5.432128429412842,-9.33837890625,-10.986327171325684,-0.8677978515625,0.4530029296875,-0.1153564453125
0.162,310,367,360,309,-8.0,43.0,34.0,3.723144292831421,-9.765625,-10.986327171325684,-0.8680419921875,0.44921875,-0.0980224609375
0.171,310,367,357,310,-8.0,43.0,34.0,4.21142578125,-10.681151390075684,-11.169432640075684,-0.873291015625,0.4527587890625,-0.079833984375
0.187,309,369,357,308,-8.0,43.0,34.0,6.713866710662842,-11.596678733825684,-11.596678733825684,-0.8775634765625,0.4534912109375,-0.0694580078125
0.194,310,370,357,309,-10.0,43.0,49.0,10.375975608825684,-12.084959983825684,-11.901854515075684,-0.8782958984375,0.450439453125,-0.0716552734375
0.201,310,368,363,310,-10.0,43.0,49.0,13.305663108825684,-12.023924827575684,-12.207030296325684,-0.8798828125,0.44775390625,-0.0838623046875
0.215,310,371,364,310,-10.0,43.0,49.0,14.099120140075684,-11.474608421325684,-12.573241233825684,-0.8817138671875,0.4451904296875,-0.09814453125
0.231,309,370,364,309,-10.0,43.0,49.0,12.756346702575684,-10.681151390075684,-13.122557640075684,-0.8856201171875,0.4239501953125,-0.1220703125
0.276,310,369,364,310,-10.0,43.0,49.0,9.94873046875,-9.70458984375,-13.610838890075684,-0.8856201171875,0.4239501953125,-0.1220703125
0.276,310,370,363,310,-10.0,43.0,49.0,6.164550304412842,-8.6669921875,-13.916014671325684,-0.886474609375,0.4134521484375,-0.1304931640625
0.276,310,371,363,310,-10.0,43.0,49.0,1.8310545682907104,-7.995604991912842,-13.916014671325684,-0.8936767578125,0.40771484375,-0.116943359375
0.276,309,372,364,310,-10.0,43.0,49.0,-1.8310545682907104,-8.11767578125,-13.610838890075684,-0.8936767578125,0.40771484375,-0.116943359375
0.276,310,372,363,310,-10.0,43.0,49.0,-3.173827886581421,-9.27734375,-12.939452171325684,-0.9010009765625,0.4091796875,-0.090087890625
0.289,308,373,362,309,-10.0,43.0,49.0,-1.4648436307907104,-10.986327171325684,-11.962889671325684,-0.91162109375,0.431884765625,-0.0509033203125
0.292,308,373,363,310,-8.0,39.0,42.0,1.8310545682907104,-12.207030296325684,-10.742186546325684,-0.91162109375,0.431884765625,-0.0509033203125
0.298,310,372,357,310,-8.0,39.0,42.0,4.57763671875,-11.718749046325684,-9.46044921875,-0.90380859375,0.4327392578125,-0.053466796875
0.317,310,373,360,310,-8.0,39.0,42.0,5.615233898162842,-9.94873046875,-8.23974609375,-0.878662109375,0.41796875,-0.0628662109375
0.321,308,372,362,311,-8.0,39.0,42.0,5.0048828125,-8.056640625,-7.385253429412842,-0.878662109375,0.41796875,-0.0628662109375
0.341,310,373,363,310,-8.0,39.0,42.0,4.2724609375,-6.835937023162842,-6.958007335662842,-0.8807373046875,0.4056396484375,-0.06494140625
0.342,310,381,363,310,-8.0,39.0,42.0,4.638671875,-6.408690929412842,-6.530761241912842,-0.891845703125,0.3924560546875,-0.0687255859375
0.356,310,384,361,310,-8.0,39.0,42.0,6.042479991912842,-6.835937023162842,-5.676269054412842,-0.891845703125,0.3924560546875,-0.0687255859375
0.359,308,384,360,309,-8.0,39.0,42.0,8.056640625,-7.751464366912842,-4.638671875,-0.8922119140625,0.3922119140625,-0.0726318359375
0.372,308,386,364,310,-8.0,39.0,42.0,10.437010765075684,-8.9111328125,-2.685546636581421,-0.8975830078125,0.4022216796875,-0.08642578125
0.381,310,391,367,310,-8.0,39.0,42.0,10.437010765075684,-8.9111328125,-2.685546636581421,-0.899658203125,0.408935546875,-0.09326171875
0.389,310,393,365,310,-11.0,41.0,39.0,10.070799827575684,-8.85009765625,-1.7700194120407104,-0.899658203125,0.408935546875,-0.09326171875
0.404,308,393,367,309,-11.0,41.0,39.0,7.385253429412842,-7.751464366912842,-0.7934569716453552,-0.9063720703125,0.4189453125,-0.09912109375
0.411,310,391,367,310,-11.0,41.0,39.0,7.385253429412842,-7.751464366912842,-0.7934569716453552,-0.9100341796875,0.4210205078125,-0.0977783203125
0.420,310,391,367,310,-11.0,41.0,39.0,5.371093273162842,-7.324218273162842,-0.4882812201976776,-0.9100341796875,0.4210205078125,-0.0977783203125
0.457,308,391,368,308,-11.0,41.0,39.0,1.03759765625,-6.958007335662842,-0.0610351525247097,-0.910400390625,0.41259765625,-0.09814453125
0.459,308,393,370,309,-11.0,41.0,39.0,1.03759765625,-6.958007335662842,-0.0610351525247097,-0.9066162109375,0.40869140625,-0.099609375
0.460,309,391,369,310,-11.0,41.0,39.0,-0.8544921278953552,-7.019042491912842,0.0610351525247097,-0.9066162109375,0.40869140625,-0.099609375
0.468,309,393,365,310,-11.0,41.0,39.0,-3.967284917831421,-7.263183116912842,0.6103515625,-0.898681640625,0.4088134765625,-0.08837890625
0.471,310,394,367,310,-11.0,41.0,39.0,-3.967284917831421,-7.263183116912842,0.6103515625,-0.8970947265625,0.40771484375,-0.0767822265625
0.478,310,393,367,310,-11.0,41.0,39.0,-4.8828125,-7.629394054412842,0.9155272841453552,-0.8970947265625,0.40771484375,-0.0767822265625
0.494,309,391,372,310,-7.0,37.0,45.0,-5.187987804412842,-8.30078125,1.8920897245407104,-0.89892578125,0.40673828125,-0.059326171875
0.502,309,391,371,310,-7.0,37.0,45.0,-5.187987804412842,-8.30078125,1.8920897245407104,-0.8984375,0.409912109375,-0.0560302734375
0.509,310,390,371,310,-7.0,37.0,45.0,-4.69970703125,-8.60595703125,2.25830078125,-0.894287109375,0.4119873046875,-0.053466796875
0.523,310,394,370,309,-7.0,37.0,45.0,-2.624511480331421,-8.85009765625,2.3193359375,-0.88720703125,0.411376953125,-0.0496826171875
0.549,308,393,371,310,-7.0,37.0,45.0,-1.03759765625,-8.7890625,2.0751953125,-0.881103515625,0.408447265625,-0.044921875
0.553,310,394,371,310,-7.0,37.0,45.0,-1.03759765625,-8.7890625,2.0751953125,-0.879638671875,0.4090576171875,-0.03955078125
0.553,308,394,364,310,-7.0,37.0,45.0,2.50244140625,-7.751464366912842,0.9765624403953552,-0.8837890625,0.4193115234375,-0.0333251953125
0.561,310,395,368,309,-7.0,37.0,45.0,4.08935546875,-6.896972179412842,0.0,-0.892333984375,0.43359375,-0.029541015625
0.569,309,394,364,310,-7.0,37.0,45.0,4.08935546875,-6.896972179412842,0.0,-0.9010009765625,0.4381103515625,-0.031005859375
0.586,310,396,365,309,-7.0,37.0,45.0,7.080077648162842,-5.0048828125,-2.563476324081421,-0.9053955078125,0.42822265625,-0.0340576171875
0.595,308,399,364,309,-10.0,43.0,38.0,8.72802734375,-4.638671875,-3.295898199081421,-0.906982421875,0.41162109375,-0.0338134765625
0.599,308,401,367,310,-10.0,43.0,38.0,8.72802734375,-4.638671875,-3.295898199081421,-0.9085693359375,0.3997802734375,-0.0318603515625
0.612,310,401,367,310,-10.0,43.0,38.0,14.770506858825684,-5.126952648162842,-3.723144292831421,-0.9097900390625,0.4012451171875,-0.0323486328125
0.624,310,400,369,310,-10.0,43.0,38.0,18.37158203125,-5.676269054412842,-3.967284917831421,-0.9083251953125,0.416015625,-0.0382080078125
0.629,309,399,364,308,-10.0,43.0,38.0,18.37158203125,-5.676269054412842,-3.967284917831421,-0.9029541015625,0.43896484375,-0.0462646484375
0.656,309,399,367,308,-10.0,43.0,38.0,21.911619186401367,-6.164550304412842,-6.164550304412842,-0.894775390625,0.4583740234375,-0.05419921875
0.660,309,401,367,308,-10.0,43.0,38.0,20.874021530151367,-5.737304210662842,-8.36181640625,-0.887451171875,0.4619140625,-0.0618896484375
0.662,309,400,368,310,-10.0,43.0,38.0,20.874021530151367,-5.737304210662842,-8.36181640625,-0.8848876953125,0.4476318359375,-0.067626953125
0.673,310,401,369,310,-10.0,43.0,38.0,16.17431640625,-4.94384765625,-13.305663108825684,-0.8907470703125,0.4248046875,-0.069580078125
0.681,310,402,369,310,-10.0,43.0,38.0,15.258788108825684,-5.676269054412842,-15.319823265075684,-0.9014892578125,0.40966796875,-0.0692138671875
0.700,310,405,370,310,-10.0,40.0,44.0,15.747069358825684,-7.141112804412842,-16.54052734375,-0.9114990234375,0.41064453125,-0.076171875
0.704,310,407,368,309,-10.0,40.0,44.0,16.90673828125,-8.544921875,-16.845703125,-0.9163818359375,0.417724609375,-0.09375
0.711,308,409,370,310,-10.0,40.0,44.0,17.63916015625,-9.521484375,-16.9677734375,-0.912841796875,0.418212890625,-0.10888671875
0.718,310,408,373,309,-10.0,40.0,44.0,16.9677734375,-10.437010765075684,-17.39501953125,-0.90576171875,0.41259765625,-0.1090087890625
0.732,310,408,371,310,-10.0,40.0,44.0,14.587401390075684,-11.535643577575684,-18.37158203125,-0.902587890625,0.40673828125,-0.0931396484375
0.762,310,407,370,310,-10.0,40.0,44.0,10.986327171325684,-12.634276390075684,-19.53125,-0.905029296875,0.4007568359375,-0.07177734375
0.767,310,408,372,310,-10.0,40.0,44.0,7.568358898162842,-13.427733421325684,-20.385740280151367,-0.9111328125,0.3931884765625,-0.0614013671875
0.768,310,414,372,310,-10.0,40.0,44.0,5.554198741912842,-13.732909202575684,-20.812986373901367,-0.91845703125,0.3858642578125,-0.0677490234375
0.771,310,414,372,311,-10.0,40.0,44.0,4.2724609375,-13.854979515075684,-20.690916061401367,-0.9234619140625,0.3814697265625,-0.07958984375
0.779,310,413,372,308,-10.0,40.0,44.0,2.746581792831421,-14.038084983825684,-20.141599655151367,-0.923828125,0.37646484375,-0.0845947265625
0.809,308,415,372,308,-7.0,39.0,40.0,0.7324218153953552,-14.404295921325684,-19.47021484375,-0.921875,0.3658447265625,-0.080322265625
0.809,310,414,371,310,-7.0,39.0,40.0,-1.2817381620407104,-14.831542015075684,-18.798828125,-0.919921875,0.3543701171875,-0.0697021484375
0.810,309,415,372,310,-7.0,39.0,40.0,-2.990722417831421,-15.380858421325684,-18.00537109375,-0.9193115234375,0.3463134765625,-0.05810546875
0.829,310,419,372,310,-7.0,39.0,40.0,-4.2724609375,-15.930174827575684,-17.08984375,-0.921142578125,0.3424072265625,-0.04833984375
0.831,306,418,370,310,-7.0,39.0,40.0,-5.065917491912842,-16.41845703125,-16.11328125,-0.9249267578125,0.34326171875,-0.0379638671875
0.839,308,417,373,308,-7.0,39.0,40.0,-5.0048828125,-16.7236328125,-15.197752952575684,-0.92822265625,0.3475341796875,-0.02685546875
0.855,310,419,372,308,-7.0,39.0,40.0,-3.906249761581421,-16.7236328125,-14.465331077575684,-0.9278564453125,0.3515625,-0.01904296875
0.861,312,420,371,310,-7.0,39.0,40.0,-2.624511480331421,-16.6015625,-14.038084983825684,-0.92578125,0.3543701171875,-0.013916015625
0.870,309,420,372,310,-7.0,39.0,40.0,-2.01416015625,-16.66259765625,-13.671874046325684,-0.9195556640625,0.35400390625,-0.0098876953125
0.883,310,420,372,310,-7.0,39.0,40.0,-2.01416015625,-16.7236328125,-13.549803733825684,-0.9027099609375,0.3441162109375,-0.0048828125
0.892,310,424,367,310,-8.0,40.0,43.0,-1.4648436307907104,-16.9677734375,-14.099120140075684,-0.87939453125,0.331787109375,0.004150390625
0.902,308,426,360,309,-8.0,40.0,43.0,-0.0610351525247097,-17.578125,-15.991209983825684,-0.84765625,0.341064453125,0.01708984375
0.918,308,433,364,310,-8.0,40.0,43.0,1.4648436307907104,-18.1884765625,-20.263669967651367,-0.802978515625,0.3797607421875,0.025146484375
0.921,296,452,364,310,-8.0,40.0,43.0,1.5869139432907104,-17.7001953125,-27.893064498901367,-0.7476806640625,0.411376953125,0.0224609375
0.931,310,467,361,308,-8.0,40.0,43.0,-0.30517578125,-15.869139671325684,-37.90283203125,-0.6578369140625,0.387451171875,-0.005126953125
0.959,308,524,353,310,-8.0,40.0,43.0,-3.601073980331421,-13.671874046325684,-46.386714935302734,-0.5076904296875,0.3153076171875,-0.0843505859375
0.961,310,548,352,308,-8.0,40.0,43.0,-9.82666015625,-13.305663108825684,-48.400875091552734,-0.3369140625,0.2738037109375,-0.185546875
0.961,310,599,349,310,-8.0,40.0,43.0,-26.245115280151367,-18.49365234375,-42.236324310302734,-0.2154541015625,0.3221435546875,-0.214111328125
0.977,310,639,423,309,-8.0,40.0,43.0,-58.288570404052734,-32.71484375,-31.005857467651367,0.099853515625,0.3660888671875,0.0341796875
0.981,309,667,507,310,-8.0,40.0,43.0,-98.51073455810547,-51.818843841552734,-23.742673873901367,0.099853515625,0.3660888671875,0.0341796875
0.989,310,707,566,311,-2.0,38.0,47.0,-131.40869140625,-67.93212890625,-31.311033248901367,0.04052734375,0.3111572265625,0.1702880859375
1.004,310,778,779,310,-2.0,38.0,47.0,-146.1181640625,-83.55712127685547,-48.522945404052734,-1.3712158203125,0.5638427734375,0.511962890625
1.012,310,809,887,310,-2.0,38.0,47.0,-128.2958984375,-96.67967987060547,-55.175777435302734,-1.3712158203125,0.5638427734375,0.511962890625
1.018,310,824,985,311,-2.0,38.0,47.0,-78.43017578125,-89.59960174560547,-42.968746185302734,-1.979248046875,0.749755859375,0.17724609375
1.037,310,830,1123,309,-2.0,38.0,47.0,-44.799800872802734,-60.485836029052734,-24.291990280151367,-1.835693359375,0.3829345703125,-0.3118896484375
1.040,309,827,1162,310,-2.0,38.0,47.0,-74.64599609375,-33.87451171875,-16.357421875,-1.835693359375,0.3829345703125,-0.3118896484375
1.062,310,822,1162,311,-2.0,38.0,47.0,-150.57373046875,-31.066892623901367,-19.287109375,-1.6956787109375,0.060791015625,0.062744140625
1.064,310,809,1122,310,-2.0,38.0,47.0,-211.30369567871094,-47.912593841552734,-20.751951217651367,-1.7158203125,-0.647216796875,0.6392822265625
1.071,311,819,1116,310,-2.0,38.0,47.0,-194.51902770996094,-49.438472747802734,-20.263669967651367,-1.7158203125,-0.647216796875,0.6392822265625
1.083,311,809,1071,310,-2.0,38.0,47.0,-93.38378143310547,-13.366698265075684,-21.667478561401367,-1.4619140625,-0.6092529296875,0.4366455078125
1.092,310,790,932,311,2.0,36.0,43.0,17.51708984375,31.494138717651367,-22.033689498901367,-0.936279296875,0.196533203125,0.27978515625
1.106,310,790,865,309,2.0,36.0,43.0,74.27978515625,53.100582122802734,-21.118162155151367,-0.936279296875,0.196533203125,0.27978515625
1.109,309,785,835,312,2.0,36.0,43.0,83.25194549560547,53.588863372802734,-21.057126998901367,-0.859375,0.3948974609375,0.2572021484375
1.122,310,772,814,310,2.0,36.0,43.0,73.54736328125,47.851558685302734,-20.874021530151367,-1.3326416015625,0.5567626953125,0.1619873046875
1.149,310,763,780,310,2.0,36.0,43.0,58.654781341552734,40.893550872802734,-18.24951171875,-1.582275390625,0.5277099609375,0.1607666015625
1.149,310,741,756,311,2.0,36.0,43.0,42.541500091552734,30.761716842651367,-13.061522483825684,-1.582275390625,0.5277099609375,0.1607666015625
1.163,310,723,667,310,2.0,36.0,43.0,16.357421875,21.179197311401367,-3.479003667831421,-1.3226318359375,0.3497314453125,-0.03369140625
1.163,309,700,608,312,2.0,36.0,43.0,16.357421875,21.179197311401367,-3.479003667831421,-1.1053466796875,0.1773681640625,-0.102294921875
1.169,310,684,562,311,2.0,36.0,43.0,6.530761241912842,22.033689498901367,-0.7324218153953552,-1.1053466796875,0.1773681640625,-0.102294921875
1.189,309,657,499,310,0.0,38.0,44.0,7.812499523162842,18.49365234375,2.44140625,-0.86767578125,0.033203125,0.008056640625
1.191,298,634,473,307,0.0,38.0,44.0,7.812499523162842,18.49365234375,2.44140625,-0.7855224609375,0.0455322265625,0.1427001953125
1.199,310,621,441,308,0.0,38.0,44.0,22.094724655151367,15.441893577575684,0.3662109076976776,-0.7855224609375,0.0455322265625,0.1427001953125
1.212,308,601,414,310,0.0,38.0,44.0,37.353515625,22.338865280151367,-13.122557640075684,-0.603759765625,0.0650634765625,0.136474609375
1.220,308,594,406,311,0.0,38.0,44.0,37.353515625,22.338865280151367,-13.122557640075684,-0.602783203125,0.1085205078125,0.057373046875
1.229,310,584,396,310,0.0,38.0,44.0,33.87451171875,30.090330123901367,-18.85986328125,-0.602783203125,0.1085205078125,0.057373046875
1.243,310,566,386,308,0.0,38.0,44.0,20.080564498901367,30.944822311401367,-15.014647483825684,-0.71142578125,0.158447265625,0.047119140625
1.263,310,562,382,310,0.0,38.0,44.0,20.080564498901367,30.944822311401367,-15.014647483825684,-0.762451171875,0.232421875,0.0299072265625
1.266,310,551,379,310,0.0,38.0,44.0,18.49365234375,26.123044967651367,-7.507323741912842,-0.762451171875,0.232421875,0.0299072265625
1.272,310,535,379,310,0.0,38.0,44.0,14.526366233825684,14.770506858825684,4.82177734375,-0.8211669921875,0.3839111328125,0.0482177734375
1.281,309,530,380,308,0.0,38.0,44.0,5.798339366912842,9.765625,5.371093273162842,-0.86669921875,0.3897705078125,0.0927734375
1.295,310,521,381,310,1.0,40.0,45.0,5.798339366912842,9.765625,5.371093273162842,-0.908203125,0.341796875,0.1400146484375
1.303,310,506,378,309,1.0,40.0,45.0,-11.718749046325684,5.859374523162842,-0.7324218153953552,-0.9417724609375,0.2532958984375,0.1541748046875
1.311,309,497,382,309,1.0,40.0,45.0,-12.817381858825684,7.019042491912842,-4.39453125,-0.98486328125,0.1856689453125,0.1180419921875
1.319,310,493,384,311,1.0,40.0,45.0,-12.817381858825684,7.019042491912842,-4.39453125,-1.0296630859375,0.1639404296875,0.068115234375
1.333,310,473,383,310,1.0,40.0,45.0,-7.202147960662842,7.690429210662842,-3.662109136581421,-1.0511474609375,0.158447265625,0.0384521484375
1.341,310,464,383,309,1.0,40.0,45.0,-3.845214605331421,5.310058116912842,-1.220703125,-1.039794921875,0.1505126953125,0.0257568359375
1.349,310,452,380,309,1.0,40.0,45.0,-3.845214605331421,5.310058116912842,-1.220703125,-1.014404296875,0.150146484375,0.0111083984375
1.374,310,438,378,310,1.0,40.0,45.0,4.5166015625,0.54931640625,2.990722417831421,-0.9998779296875,0.1683349609375,-0.0096435546875
1.374,308,431,373,310,1.0,40.0,45.0,7.507323741912842,-1.7700194120407104,3.967284917831421,-0.9932861328125,0.1956787109375,-0.0235595703125
1.379,310,427,379,310,1.0,40.0,45.0,7.507323741912842,-1.7700194120407104,3.967284917831421,-0.982421875,0.2178955078125,-0.0277099609375
1.392,308,420,372,310,0.0,36.0,42.0,6.652831554412842,-6.774901866912842,3.479003667831421,-0.9727783203125,0.2332763671875,-0.029052734375
1.402,310,414,371,310,0.0,36.0,42.0,3.906249761581421,-8.48388671875,2.624511480331421,-0.9688720703125,0.2430419921875,-0.025390625
1.413,310,410,371,310,0.0,36.0,42.0,3.906249761581421,-8.48388671875,2.624511480331421,-0.958984375,0.2425537109375,-0.01318359375
1.423,311,402,369,310,0.0,36.0,42.0,-3.967284917831421,-10.131834983825684,0.8544921278953552,-0.9371337890625,0.2303466796875,0.0025634765625
1.431,309,401,365,309,0.0,36.0,42.0,-7.873534679412842,-10.314940452575684,0.6713866591453552,-0.903564453125,0.2115478515625,0.0181884765625
1.444,308,401,364,309,0.0,36.0,42.0,-11.108397483825684,-10.620116233825684,2.13623046875,-0.8551025390625,0.1895751953125,0.034912109375
1.452,309,411,362,308,0.0,36.0,42.0,-13.000487327575684,-11.718749046325684,5.798339366912842,-0.78369140625,0.1566162109375,0.0572509765625
1.461,310,426,364,310,0.0,36.0,42.0,-12.329100608825684,-13.610838890075684,11.230467796325684,-0.67724609375,0.1153564453125,0.073974609375
1.471,310,447,371,310,0.0,36.0,42.0,-9.765625,-15.686034202575684,17.76123046875,-0.528564453125,0.0604248046875,0.0953369140625
1.483,310,523,400,309,-1.0,37.0,42.0,-5.859374523162842,-18.24951171875,23.803709030151367,-0.3310546875,-0.0115966796875,0.136474609375
1.491,310,548,509,310,-1.0,37.0,42.0,1.7700194120407104,-21.484373092651367,27.404783248901367,-0.0572509765625,0.0294189453125,0.136474609375
1.499,310,566,601,311,-1.0,37.0,42.0,8.056640625,-27.893064498901367,27.160642623901367,0.2998046875,0.3414306640625,0.0936279296875
1.516,310,604,767,310,-1.0,37.0,42.0,0.7324218153953552,-42.114253997802734,22.033689498901367,0.7095947265625,0.66357421875,0.166015625
1.521,311,650,873,310,-1.0,37.0,42.0,-20.812986373901367,-58.593746185302734,8.72802734375,0.8199462890625,0.7081298828125,0.39013671875
1.529,310,716,992,310,-1.0,37.0,42.0,-48.095699310302734,-71.77734375,-15.136717796325684,0.2064208984375,0.597412109375,0.748046875
1.546,310,826,1199,310,-1.0,37.0,42.0,-62.499996185302734,-83.25194549560547,-47.302242279052734,-1.2288818359375,0.583251953125,1.02392578125
1.551,310,868,1292,312,-1.0,37.0,42.0,-51.635738372802734,-84.35057830810547,-74.15771484375,-2.6190185546875,0.5784912109375,0.77099609375
1.559,310,893,1325,311,-1.0,37.0,42.0,-28.320310592651367,-51.330562591552734,-86.85301971435547,-2.9627685546875,0.406005859375,-0.1402587890625
1.575,308,917,1323,311,-1.0,37.0,42.0,-24.230955123901367,5.676269054412842,-96.49657440185547,-2.619384765625,0.249267578125,-0.8702392578125
1.581,310,904,1239,311,3.0,33.0,47.0,-62.316890716552734,22.399900436401367,-99.36522674560547,-2.3970947265625,0.1109619140625,-0.595703125
1.594,310,888,1155,310,3.0,33.0,47.0,-102.90526580810547,-13.732909202575684,-81.48192596435547,-2.156005859375,-0.2509765625,0.049560546875
1.603,310,848,996,310,3.0,33.0,47.0,-70.73974609375,-28.442380905151367,-59.204097747802734,-1.630615234375,-0.6693115234375,0.1923828125
1.617,309,846,966,311,3.0,33.0,47.0,20.812986373901367,7.080077648162842,-51.757808685302734,-1.186279296875,-0.710693359375,0.0975341796875
1.625,308,846,969,311,3.0,33.0,47.0,90.08788299560547,45.593257904052734,-50.415035247802734,-1.04638671875,-0.2725830078125,0.25927734375
1.633,310,819,917,310,3.0,33.0,47.0,110.47362518310547,54.992671966552734,-41.931148529052734,-1.392333984375,0.34814453125,0.561279296875
1.641,310,796,853,311,3.0,33.0,47.0,92.71239471435547,33.50830078125,-25.085447311401367,-1.8651123046875,0.7059326171875,0.75
1.649,310,766,784,310,3.0,33.0,47.0,52.734371185302734,8.72802734375,-8.7890625,-1.8363037109375,0.6473388671875,0.638427734375
1.673,310,725,658,310,3.0,33.0,47.0,16.357421875,13.061522483825684,-3.906249761581421,-1.44091796875,0.3770751953125,0.24853515625
1.673,310,685,592,311,3.0,33.0,47.0,-2.50244140625,38.9404296875,-7.995604991912842,-1.1224365234375,0.10107421875,-0.1187744140625
1.679,308,653,532,308,3.0,33.0,47.0,-5.371093273162842,59.509273529052734,-10.742186546325684,-1.00341796875,-0.1533203125,-0.2471923828125
1.693,310,592,444,309,3.0,34.0,44.0,3.845214605331421,62.805171966552734,-7.141112804412842,-0.9439697265625,-0.3343505859375,-0.2176513671875
1.707,308,562,399,310,3.0,34.0,44.0,19.83642578125,54.443355560302734,1.220703125,-0.73486328125,-0.35693359375,-0.1470947265625
1.709,310,533,364,309,3.0,34.0,44.0,35.82763671875,46.569820404052734,9.94873046875,-0.405029296875,-0.2401123046875,-0.092041015625
1.727,310,502,344,310,3.0,34.0,44.0,44.860836029052734,45.776363372802734,15.258788108825684,-0.1883544921875,-0.1126708984375,-0.024169921875
1.731,308,496,343,308,3.0,34.0,44.0,40.527339935302734,46.264644622802734,16.41845703125,-0.2061767578125,-0.0543212890625,0.0865478515625
1.739,310,484,340,310,3.0,34.0,44.0,24.108884811401367,40.832515716552734,16.7236328125,-0.3677978515625,0.01416015625,0.195556640625
1.753,310,483,343,310,3.0,34.0,44.0,6.774901866912842,30.395505905151367,20.141599655151367,-0.6513671875,0.3328857421875,0.189453125
1.781,310,485,351,310,3.0,34.0,44.0,-1.15966796875,20.812986373901367,27.099607467651367,-0.6513671875,0.3328857421875,0.189453125
1.781,310,485,357,308,3.0,34.0,44.0,-3.906249761581421,14.160155296325684,35.0341796875,-0.7769775390625,0.4410400390625,0.126708984375
1.783,309,496,356,310,2.0,36.0,45.0,-6.835937023162842,10.131834983825684,39.0625,-0.8031005859375,0.263427734375,0.125
1.791,310,499,360,310,2.0,36.0,45.0,-8.97216796875,8.9111328125,36.865234375,-0.8031005859375,0.263427734375,0.125
1.799,308,506,367,310,2.0,36.0,45.0,-10.192870140075684,8.4228515625,31.005857467651367,-0.8309326171875,0.193603515625,0.1395263671875
1.820,310,522,379,308,2.0,36.0,45.0,-9.21630859375,7.263183116912842,24.719236373901367,-0.973388671875,0.269775390625,0.043701171875
1.828,310,523,386,310,2.0,36.0,45.0,-4.94384765625,6.591796398162842,19.83642578125,-0.973388671875,0.269775390625,0.043701171875
1.829,310,527,391,310,2.0,36.0,45.0,-1.5869139432907104,6.286620616912842,17.08984375,-1.035888671875,0.31982421875,-0.0306396484375
1.843,308,530,402,310,2.0,36.0,45.0,-3.051757574081421,5.371093273162842,14.953612327575684,-1.085205078125,0.23974609375,-0.0340576171875
1.853,310,527,411,310,2.0,36.0,45.0,-7.812499523162842,3.723144292831421,11.840819358825684,-1.085205078125,0.23974609375,-0.0340576171875
1.859,310,525,423,311,2.0,36.0,45.0,-11.901854515075684,2.3193359375,8.60595703125,-1.08642578125,0.1529541015625,-0.0030517578125
1.881,309,519,426,311,2.0,36.0,45.0,-13.488768577575684,1.4038084745407104,6.835937023162842,-1.0599365234375,0.0419921875,0.023193359375
1.881,309,516,426,310,2.0,37.0,42.0,-12.756346702575684,0.1831054538488388,6.958007335662842,-1.035400390625,0.0419921875,0.0130615234375
1.889,310,516,428,310,2.0,37.0,42.0,-10.375975608825684,-1.6479490995407104,8.48388671875,-1.035400390625,0.0419921875,0.0130615234375
1.903,308,508,426,310,2.0,37.0,42.0,-3.662109136581421,-6.591796398162842,12.878417015075684,-1.0426025390625,0.164306640625,-0.0155029296875
1.914,308,504,426,311,2.0,37.0,42.0,-3.662109136581421,-6.591796398162842,12.878417015075684,-1.03955078125,0.2047119140625,-0.0185546875
1.940,310,497,419,309,2.0,37.0,42.0,-1.7700194120407104,-8.6669921875,14.282225608825684,-1.03955078125,0.2047119140625,-0.0185546875
1.940,310,486,420,310,2.0,37.0,42.0,-3.845214605331421,-10.131834983825684,14.404295921325684,-1.0152587890625,0.173583984375,0.0042724609375
1.941,310,481,420,297,2.0,37.0,42.0,-3.845214605331421,-10.131834983825684,14.404295921325684,-0.998046875,0.151611328125,0.0225830078125
1.957,310,473,420,310,2.0,37.0,42.0,-6.347655773162842,-10.925292015075684,14.770506858825684,-0.998046875,0.151611328125,0.0225830078125
1.963,310,456,420,310,2.0,37.0,42.0,-5.676269054412842,-13.427733421325684,16.54052734375,-0.9552001953125,0.1728515625,0.03076171875
1.983,310,449,419,309,2.0,37.0,42.0,-5.676269054412842,-13.427733421325684,16.54052734375,-0.9261474609375,0.1868896484375,0.0157470703125
1.984,309,451,420,310,1.0,40.0,45.0,-3.540038824081421,-14.709471702575684,17.15087890625,-0.9261474609375,0.1868896484375,0.0157470703125
1.993,310,454,414,310,1.0,40.0,45.0,-8.23974609375,-15.869139671325684,20.996091842651367,-0.8658447265625,0.134765625,-0.0115966796875
2.001,310,469,402,310,1.0,40.0,45.0,-8.23974609375,-15.869139671325684,20.996091842651367,-0.7783203125,0.08349609375,-0.0111083984375
2.012,310,480,399,310,1.0,40.0,45.0,-14.770506858825684,-16.4794921875,26.306150436401367,-0.7783203125,0.08349609375,-0.0111083984375
2.028,308,516,411,310,1.0,40.0,45.0,-28.991697311401367,-20.629880905151367,35.21728515625,-0.5374755859375,0.2132568359375,0.045166015625
2.031,310,533,426,310,1.0,40.0,45.0,-28.991697311401367,-20.629880905151367,35.21728515625,-0.4022216796875,0.432373046875,0.091064453125
2.048,308,554,451,310,1.0,40.0,45.0,-30.395505905151367,-24.780271530151367,30.822751998901367,-0.0877685546875,0.539794921875,0.2044677734375
2.058,310,596,552,310,1.0,40.0,45.0,-13.244627952575684,-38.330078125,5.554198741912842,0.3922119140625,0.3934326171875,0.3072509765625
2.061,310,627,662,310,1.0,40.0,45.0,-9.3994140625,-48.706050872802734,-4.5166015625,0.66259765625,0.21484375,0.2783203125
2.087,309,650,741,311,1.0,40.0,45.0,-9.3994140625,-48.706050872802734,-4.5166015625,0.4322509765625,0.2550048828125,0.299072265625
2.088,310,750,986,310,1.0,37.0,47.0,-26.916501998901367,-82.39745330810547,-23.620603561401367,-0.3492431640625,0.46142578125,0.5479736328125
2.091,310,809,1127,310,1.0,37.0,47.0,-27.832029342651367,-90.63719940185547,-41.259761810302734,-1.5447998046875,0.6632080078125,0.7642822265625
2.099,309,855,1229,311,1.0,37.0,47.0,-27.832029342651367,-90.63719940185547,-41.259761810302734,-2.4593505859375,0.713134765625,0.516845703125
2.113,310,902,1320,310,1.0,37.0,47.0,-28.930662155151367,-43.884273529052734,-52.795406341552734,-2.5521240234375,0.5643310546875,-0.134765625
2.121,310,902,1325,311,1.0,37.0,47.0,-57.495113372802734,-3.784179449081421,-50.109859466552734,-2.2154541015625,0.3253173828125,-0.4530029296875
2.130,309,878,1264,311,1.0,37.0,47.0,-57.495113372802734,-3.784179449081421,-50.109859466552734,-2.07373046875,-0.041015625,-0.0618896484375
2.149,311,855,1120,310,1.0,37.0,47.0,-150.0244140625,-37.4755859375,-20.446775436401367,-2.016357421875,-0.5911865234375,0.380859375
2.165,310,833,1025,310,1.0,37.0,47.0,-106.75048065185547,-32.28759765625,2.929687261581421,-1.750732421875,-0.951171875,0.3203125
2.165,310,827,992,311,1.0,37.0,47.0,-106.75048065185547,-32.28759765625,2.929687261581421,-1.447509765625,-0.794921875,0.1168212890625
2.173,310,830,1000,312,1.0,37.0,47.0,84.77782440185547,57.556148529052734,0.7934569716453552,-1.3726806640625,-0.1280517578125,0.1971435546875
2.188,310,816,972,310,3.0,35.0,44.0,127.07518768310547,67.32177734375,-4.21142578125,-1.658203125,0.67138671875,0.5128173828125
2.191,309,785,893,312,3.0,35.0,44.0,117.61473846435547,47.180171966552734,4.150390625,-1.89501953125,1.019287109375,0.72119140625
2.205,308,741,735,311,3.0,35.0,44.0,78.61328125,25.573728561401367,16.05224609375,-1.6944580078125,0.87890625,0.5535888671875
2.211,310,704,662,310,3.0,35.0,44.0,40.10009765625,27.893064498901367,16.90673828125,-1.3101806640625,0.5946044921875,0.1466064453125
2.219,310,674,580,310,3.0,35.0,44.0,10.131834983825684,45.898433685302734,8.48388671875,-1.0677490234375,0.2911376953125,-0.1622314453125
2.233,310,607,465,310,3.0,35.0,44.0,-8.60595703125,60.791011810302734,-1.15966796875,-0.965576171875,-0.05224609375,-0.253662109375
2.241,310,576,413,310,3.0,35.0,44.0,-9.521484375,65.73486328125,-7.263183116912842,-0.8040771484375,-0.33544921875,-0.239013671875
2.254,308,540,372,310,3.0,35.0,44.0,7.995604991912842,64.51416015625,-8.48388671875,-0.4912109375,-0.428466796875,-0.221923828125
2.270,310,513,353,310,3.0,35.0,44.0,36.865234375,62.988277435302734,-6.469726085662842,-0.2144775390625,-0.3284912109375,-0.191650390625
2.271,309,499,354,308,3.0,35.0,44.0,61.828609466552734,60.180660247802734,-3.479003667831421,-0.1644287109375,-0.137451171875,-0.0738525390625
2.279,310,485,345,310,3.0,36.0,47.0,65.85693359375,50.231929779052734,-0.6713866591453552,-0.268310546875,0.062744140625,0.1107177734375
2.293,310,480,354,308,3.0,36.0,47.0,48.156734466552734,35.5224609375,2.624511480331421,-0.3546142578125,0.2298583984375,0.248291015625
2.301,309,475,354,310,3.0,36.0,47.0,24.108884811401367,24.658201217651367,8.72802734375,-0.46875,0.3646240234375,0.2557373046875
2.309,310,469,357,310,3.0,36.0,47.0,4.57763671875,18.5546875,19.53125,-0.6195068359375,0.4652099609375,0.2188720703125
2.331,310,477,357,310,3.0,36.0,47.0,-8.30078125,12.634276390075684,30.700681686401367,-0.69677734375,0.4776611328125,0.208740234375
2.335,309,481,346,308,3.0,36.0,47.0,-13.610838890075684,7.751464366912842,34.66796875,-0.732421875,0.4041748046875,0.2137451171875
2.339,309,488,367,310,3.0,36.0,47.0,-13.244627952575684,4.0283203125,29.541013717651367,-0.7630615234375,0.3197021484375,0.2239990234375
2.367,310,504,377,308,3.0,36.0,47.0,-7.995604991912842,1.9531248807907104,20.629880905151367,-0.805908203125,0.287353515625,0.173095703125
2.368,308,509,376,309,3.0,36.0,47.0,-0.2441406100988388,2.624511480331421,13.488768577575684,-0.88427734375,0.319580078125,0.0469970703125
2.369,309,518,382,310,3.0,36.0,47.0,1.220703125,2.50244140625,8.97216796875,-0.973876953125,0.3677978515625,-0.060546875
2.395,310,522,386,309,0.0,38.0,42.0,-7.507323741912842,-1.6479490995407104,5.981444835662842,-1.0499267578125,0.3603515625,-0.0831298828125
2.396,310,523,386,309,0.0,38.0,42.0,-18.310546875,-7.934569835662842,4.45556640625,-1.1153564453125,0.29052734375,-0.0316162109375
2.399,310,530,383,310,0.0,38.0,42.0,-21.972654342651367,-13.000487327575684,4.638671875,-1.172119140625,0.212890625,0.0399169921875
2.413,310,527,372,310,0.0,38.0,42.0,-18.798828125,-14.587401390075684,4.45556640625,-1.1846923828125,0.143310546875,0.0904541015625
2.421,309,527,369,310,0.0,38.0,42.0,-12.451170921325684,-11.535643577575684,2.13623046875,-1.14404296875,0.07568359375,0.0936279296875
2.429,310,530,369,310,0.0,38.0,42.0,-3.540038824081421,-5.249022960662842,-1.6479490995407104,-1.1038818359375,0.0518798828125,0.05859375
2.444,308,522,368,310,0.0,38.0,42.0,6.591796398162842,-0.6103515625,-4.69970703125,-1.09375,0.0960693359375,0.027099609375
2.451,310,518,367,310,0.0,38.0,42.0,14.160155296325684,-0.2441406100988388,-5.187987804412842,-1.087158203125,0.174072265625,0.0068359375
2.459,309,512,365,310,0.0,38.0,42.0,16.7236328125,-1.3427733182907104,-2.563476324081421,-1.055908203125,0.23046875,-0.0111083984375
2.474,310,502,367,308,0.0,38.0,42.0,13.732909202575684,-1.220703125,1.0986328125,-1.0,0.2305908203125,-0.023681640625
2.496,308,495,363,309,1.0,38.0,45.0,7.690429210662842,0.30517578125,3.295898199081421,-0.94921875,0.2008056640625,-0.0255126953125
2.496,310,494,364,310,1.0,38.0,45.0,2.563476324081421,1.4038084745407104,3.601073980331421,-0.9300537109375,0.190673828125,-0.013671875
2.506,308,483,364,310,1.0,38.0,45.0,-0.4882812201976776,0.30517578125,2.868652105331421,-0.9305419921875,0.2337646484375,0.0391845703125
2.511,310,477,364,308,1.0,38.0,45.0,-2.563476324081421,-2.624511480331421,2.38037109375,-0.9305419921875,0.2337646484375,0.0391845703125
2.519,310,469,364,308,1.0,38.0,45.0,-4.7607421875,-5.920409679412842,2.807616949081421,-0.915283203125,0.247314453125,0.0635986328125
2.539,310,465,364,310,1.0,38.0,45.0,-7.019042491912842,-8.36181640625,3.967284917831421,-0.8746337890625,0.2340087890625,0.1068115234375
2.541,309,465,364,310,1.0,38.0,45.0,-9.09423828125,-9.94873046875,5.371093273162842,-0.8746337890625,0.2340087890625,0.1068115234375
2.549,310,467,364,310,1.0,38.0,45.0,-10.375975608825684,-10.925292015075684,6.958007335662842,-0.8671875,0.209716796875,0.1220703125
2.570,309,477,364,309,1.0,38.0,45.0,-10.131834983825684,-11.535643577575684,8.85009765625,-0.8695068359375,0.1904296875,0.0831298828125
2.571,310,481,363,309,1.0,38.0,45.0,-9.3994140625,-12.573241233825684,10.925292015075684,-0.8695068359375,0.1904296875,0.0831298828125
2.582,310,493,363,310,0.0,34.0,42.0,-8.7890625,-14.831542015075684,12.451170921325684,-0.8603515625,0.197265625,0.019775390625
2.600,311,508,352,310,0.0,34.0,42.0,-8.4228515625,-19.287109375,13.061522483825684,-0.7276611328125,0.2158203125,-0.1519775390625
2.607,308,519,353,295,0.0,34.0,42.0,-8.7890625,-26.428220748901367,13.488768577575684,-0.7276611328125,0.2158203125,-0.1519775390625
2.609,309,541,364,310,0.0,34.0,42.0,-9.521484375,-35.64453125,15.747069358825684,-0.505859375,0.189453125,-0.209228515625
2.623,309,566,405,310,0.0,34.0,42.0,-9.58251953125,-45.532222747802734,21.301267623901367,0.413818359375,0.0274658203125,0.0130615234375
2.631,310,586,428,311,0.0,34.0,42.0,-10.803221702575684,-55.358882904052734,29.418943405151367,0.413818359375,0.0274658203125,0.0130615234375
2.643,310,601,480,309,0.0,34.0,42.0,-15.930174827575684,-63.232418060302734,35.94970703125,0.818603515625,0.037109375,0.2861328125
2.653,309,689,646,311,0.0,34.0,42.0,-30.456541061401367,-74.5849609375,4.5166015625,-0.0428466796875,0.549072265625,0.8404541015625
2.661,310,750,830,310,0.0,34.0,42.0,-30.456541061401367,-74.5849609375,4.5166015625,-1.392333984375,0.861328125,0.9068603515625
2.680,310,803,1000,310,0.0,34.0,42.0,-19.6533203125,-76.0498046875,-36.31591796875,-1.392333984375,0.861328125,0.9068603515625
2.700,311,852,1151,308,2.0,34.0,49.0,-7.751464366912842,-35.64453125,-85.93749237060547,-2.851318359375,0.7567138671875,-0.185791015625
2.701,310,840,1162,310,2.0,34.0,49.0,-7.751464366912842,-35.64453125,-85.93749237060547,-2.58984375,0.553466796875,-0.408935546875
2.701,310,861,1082,311,2.0,34.0,49.0,-31.738279342651367,-5.126952648162842,-86.79198455810547,-2.58984375,0.553466796875,-0.408935546875
2.713,310,840,891,311,2.0,34.0,49.0,-87.09716033935547,-46.691890716552734,-66.10107421875,-1.9664306640625,-0.3465576171875,0.45068359375
2.721,311,823,820,311,2.0,34.0,49.0,-87.09716033935547,-46.691890716552734,-66.10107421875,-1.446533203125,-0.8804931640625,0.403076171875
2.729,310,822,823,310,2.0,34.0,49.0,-52.185054779052734,-36.4990234375,-56.579586029052734,-1.446533203125,-0.8804931640625,0.403076171875
2.745,310,822,854,311,2.0,34.0,49.0,92.52928924560547,57.861324310302734,-44.616695404052734,-1.25341796875,-0.045654296875,0.4661865234375
2.751,309,814,826,311,2.0,34.0,49.0,92.52928924560547,57.861324310302734,-44.616695404052734,-1.72119140625,0.650390625,0.7301025390625
2.759,310,799,754,310,2.0,34.0,49.0,111.32811737060547,56.152339935302734,-30.090330123901367,-1.72119140625,0.650390625,0.7301025390625
2.775,310,765,587,310,1.0,35.0,49.0,60.363765716552734,28.991697311401367,-16.845703125,-1.7088623046875,0.49365234375,0.266357421875
2.807,310,739,518,310,1.0,35.0,49.0,60.363765716552734,28.991697311401367,-16.845703125,-1.341552734375,0.2598876953125,-0.21533203125
2.807,310,700,473,310,1.0,35.0,49.0,31.921384811401367,41.992183685302734,-18.06640625,-1.341552734375,0.2598876953125,-0.21533203125
2.807,308,653,407,294,1.0,35.0,49.0,-0.7324218153953552,43.640132904052734,-7.263183116912842,-0.9327392578125,0.1121826171875,-0.227783203125
2.811,310,618,383,310,1.0,35.0,49.0,0.8544921278953552,31.860349655151367,-5.371093273162842,-0.810302734375,-0.1060791015625,0.031494140625
2.819,310,577,357,310,1.0,35.0,49.0,0.8544921278953552,31.860349655151367,-5.371093273162842,-0.6363525390625,-0.316162109375,0.1170654296875
2.833,309,533,343,311,1.0,35.0,49.0,21.606443405151367,38.6962890625,-13.671874046325684,-0.3759765625,-0.40771484375,0.063720703125
2.847,310,519,344,310,1.0,35.0,49.0,26.855466842651367,48.889156341552734,-14.953612327575684,-0.182373046875,-0.4005126953125,0.0238037109375
2.849,297,510,345,308,1.0,35.0,49.0,26.855466842651367,48.889156341552734,-14.953612327575684,-0.228515625,-0.2423095703125,0.07373046875
2.864,310,490,344,311,1.0,35.0,49.0,25.024412155151367,40.344234466552734,-6.530761241912842,-0.42431640625,0.0469970703125,0.168701171875
2.878,310,488,352,310,1.0,36.0,46.0,18.12744140625,27.709959030151367,7.812499523162842,-0.575927734375,0.291259765625,0.19921875
2.879,309,485,351,311,1.0,36.0,46.0,18.12744140625,27.709959030151367,7.812499523162842,-0.6552734375,0.401611328125,0.1591796875
2.914,311,485,357,309,1.0,36.0,46.0,6.408690929412842,11.962889671325684,35.46142578125,-0.7122802734375,0.3853759765625,0.1334228515625
2.914,310,493,357,311,1.0,36.0,46.0,-2.197265625,5.737304210662842,41.931148529052734,-0.760986328125,0.2930908203125,0.14599609375
2.915,310,496,364,309,1.0,36.0,46.0,-2.197265625,5.737304210662842,41.931148529052734,-0.8140869140625,0.2227783203125,0.1640625
2.923,310,499,379,310,1.0,36.0,46.0,-7.385253429412842,-3.295898199081421,37.04833984375,-0.8792724609375,0.2113037109375,0.1573486328125
2.931,310,506,384,310,1.0,36.0,46.0,-5.126952648162842,-6.225585460662842,33.63037109375,-0.948486328125,0.22021484375,0.114990234375
2.946,313,508,391,310,1.0,36.0,46.0,-5.126952648162842,-6.225585460662842,33.63037109375,-1.0084228515625,0.227294921875,0.05615234375
2.955,310,512,400,308,1.0,36.0,46.0,-10.986327171325684,-8.30078125,36.1328125,-1.061767578125,0.23681640625,0.0096435546875
2.961,310,512,401,310,1.0,36.0,46.0,-16.29638671875,-10.070799827575684,38.9404296875,-1.101806640625,0.2418212890625,-0.0035400390625
2.969,310,508,401,309,1.0,36.0,46.0,-18.98193359375,-12.512206077575684,39.00146484375,-1.117431640625,0.231201171875,0.0137939453125
2.983,310,506,394,310,2.0,35.0,43.0,-18.4326171875,-14.465331077575684,35.21728515625,-1.1026611328125,0.207763671875,0.0474853515625
3.000,310,499,391,310,2.0,35.0,43.0,-14.404295921325684,-14.099120140075684,28.625486373901367,-1.0821533203125,0.2005615234375,0.077392578125
3.007,306,495,387,309,2.0,35.0,43.0,-8.85009765625,-11.474608421325684,21.972654342651367,-1.071044921875,0.22265625,0.099853515625
3.013,310,485,379,309,2.0,35.0,43.0,-5.0048828125,-8.1787109375,17.63916015625,-1.0491943359375,0.236083984375,0.1163330078125
3.021,310,480,372,310,2.0,35.0,43.0,-2.50244140625,-4.5166015625,15.258788108825684,-1.0164794921875,0.2164306640625,0.114013671875
3.029,310,473,365,310,2.0,35.0,43.0,0.3662109076976776,-0.9155272841453552,13.793944358825684,-0.981201171875,0.183837890625,0.0989990234375
3.043,310,465,361,309,2.0,35.0,43.0,3.845214605331421,0.7934569716453552,12.939452171325684,-0.9490966796875,0.1705322265625,0.0799560546875
3.060,310,453,364,310,2.0,35.0,43.0,6.835937023162842,0.4272460639476776,12.451170921325684,-0.937255859375,0.1959228515625,0.05419921875
3.060,310,451,360,310,2.0,35.0,43.0,8.056640625,-1.2817381620407104,11.779784202575684,-0.9334716796875,0.2491455078125,0.03271484375
3.073,308,447,363,310,-1.0,35.0,45.0,7.019042491912842,-3.601073980331421,10.498045921325684,-0.924560546875,0.2906494140625,0.0306396484375
3.082,310,442,357,307,-1.0,35.0,45.0,3.784179449081421,-6.408690929412842,8.23974609375,-0.9248046875,0.294189453125,0.04931640625
3.089,309,441,356,310,-1.0,35.0,45.0,-0.8544921278953552,-9.521484375,5.920409679412842,-0.92333984375,0.2684326171875,0.07568359375
3.106,309,440,355,309,-1.0,35.0,45.0,-4.33349609375,-11.657713890075684,5.0048828125,-0.9132080078125,0.2410888671875,0.086181640625
3.113,310,444,357,311,-1.0,35.0,45.0,-5.615233898162842,-12.939452171325684,5.493163585662842,-0.896240234375,0.2291259765625,0.08642578125
3.119,310,447,357,310,-1.0,35.0,45.0,-5.798339366912842,-14.953612327575684,6.286620616912842,-0.86474609375,0.231201171875,0.09765625
3.134,309,456,357,309,-1.0,35.0,45.0,-5.432128429412842,-17.9443359375,6.347655773162842,-0.8277587890625,0.2384033203125,0.1112060546875
3.141,309,465,354,310,-1.0,35.0,45.0,-5.249022960662842,-21.057126998901367,5.310058116912842,-0.798095703125,0.241455078125,0.1138916015625
3.152,310,473,356,308,-1.0,35.0,45.0,-5.554198741912842,-23.742673873901367,3.662109136581421,-0.757568359375,0.231689453125,0.1036376953125
3.163,310,495,359,309,-1.0,35.0,45.0,-4.45556640625,-25.878904342651367,1.220703125,-0.7076416015625,0.2235107421875,0.04541015625
3.171,310,509,387,310,0.0,33.0,40.0,-1.2817381620407104,-28.259275436401367,-2.3193359375,-0.652587890625,0.227294921875,-0.069091796875
3.184,310,530,479,310,0.0,33.0,40.0,3.723144292831421,-32.958984375,-6.347655773162842,-0.5360107421875,0.2174072265625,-0.1990966796875
3.193,310,558,678,309,0.0,33.0,40.0,12.695311546325684,-39.9169921875,-10.253905296325684,-0.2349853515625,0.201904296875,-0.287353515625
3.215,310,594,772,310,0.0,33.0,40.0,23.864744186401367,-47.180171966552734,-14.038084983825684,0.3251953125,0.2122802734375,-0.21142578125
3.216,310,620,827,310,0.0,33.0,40.0,27.526853561401367,-54.077144622802734,-19.95849609375,0.8138427734375,0.32568359375,0.124267578125
3.223,310,689,912,311,0.0,33.0,40.0,13.793944358825684,-63.049312591552734,-32.5927734375,0.66650390625,0.5452880859375,0.6171875
3.231,310,740,1022,312,0.0,33.0,40.0,-10.498045921325684,-70.25146484375,-53.588863372802734,-0.2064208984375,0.7725830078125,1.0101318359375
3.239,310,785,1153,312,0.0,33.0,40.0,-23.864744186401367,-66.95556640625,-76.66015625,-1.458251953125,0.89990234375,1.09521484375
3.257,310,853,1281,310,0.0,33.0,40.0,-21.179197311401367,-52.490230560302734,-96.80175018310547,-2.519287109375,0.7548828125,0.911376953125
3.261,311,875,1303,312,0.0,33.0,40.0,-14.892577171325684,-29.724119186401367,-115.66161346435547,-2.8792724609375,0.36083984375,0.521728515625
3.269,310,875,1267,311,4.0,30.0,45.0,-18.49365234375,-2.685546636581421,-131.591796875,-2.673828125,-0.0166015625,0.1475830078125
3.291,310,864,1129,311,4.0,30.0,45.0,-37.353515625,13.488768577575684,-133.36181640625,-1.7054443359375,-0.671630859375,-0.105224609375
3.292,310,846,1039,310,4.0,30.0,45.0,-49.011226654052734,21.789548873901367,-118.71337127685547,-1.7054443359375,-0.671630859375,-0.105224609375
3.320,310,833,982,312,4.0,30.0,45.0,-22.644041061401367,46.081539154052734,-103.14940643310547,-1.251220703125,-0.8707275390625,-0.1553955078125
3.321,310,830,966,308,4.0,30.0,45.0,30.334470748901367,76.59912109375,-90.88134002685547,-1.3175048828125,-0.220947265625,0.263427734375
3.322,310,814,914,312,4.0,30.0,45.0,67.81005859375,79.77294921875,-69.03076171875,-1.3175048828125,-0.220947265625,0.263427734375
3.330,310,794,819,310,4.0,30.0,45.0,65.61279296875,43.823238372802734,-33.69140625,-1.826416015625,0.2537841796875,0.6207275390625
3.344,310,755,646,310,4.0,30.0,45.0,7.995604991912842,-6.530761241912842,12.268065452575684,-1.51416015625,0.28076171875,0.479248046875
3.361,309,730,563,310,4.0,30.0,45.0,7.995604991912842,-6.530761241912842,12.268065452575684,-1.1285400390625,0.102783203125,-0.06787109375
3.362,309,698,508,310,4.0,30.0,45.0,-11.657713890075684,21.606443405151367,13.000487327575684,-1.1285400390625,0.102783203125,-0.06787109375
3.374,309,657,465,310,2.0,33.0,43.0,-41.992183685302734,50.903316497802734,24.108884811401367,-0.95068359375,-0.197998046875,-0.2874755859375
3.389,310,616,437,310,2.0,33.0,43.0,-41.992183685302734,50.903316497802734,24.108884811401367,-0.96044921875,-0.319580078125,-0.0389404296875
3.397,310,579,411,310,2.0,33.0,43.0,-36.865234375,36.68212890625,32.04345703125,-0.96044921875,-0.319580078125,-0.0389404296875
3.418,310,530,371,310,2.0,33.0,43.0,5.0048828125,21.972654342651367,33.8134765625,-0.5718994140625,-0.22509765625,0.1849365234375
3.425,307,513,360,296,2.0,33.0,43.0,5.0048828125,21.972654342651367,33.8134765625,-0.2967529296875,-0.2227783203125,0.153564453125
3.426,310,497,349,311,2.0,33.0,43.0,16.90673828125,33.447265625,27.648923873901367,-0.2967529296875,-0.2227783203125,0.153564453125
3.434,310,491,343,310,2.0,33.0,43.0,18.49365234375,42.602535247802734,27.404783248901367,-0.365966796875,0.013427734375,0.147705078125
3.442,308,483,343,310,2.0,33.0,43.0,18.49365234375,42.602535247802734,27.404783248901367,-0.5079345703125,0.235107421875,0.1619873046875
3.450,310,481,345,310,2.0,33.0,43.0,13.793944358825684,31.799314498901367,39.61181640625,-0.5079345703125,0.235107421875,0.1619873046875
3.464,310,480,354,308,2.0,33.0,43.0,2.624511480331421,10.253905296325684,56.640621185302734,-0.7373046875,0.4412841796875,0.1378173828125
3.472,310,483,356,310,3.0,32.0,45.0,2.624511480331421,10.253905296325684,56.640621185302734,-0.8302001953125,0.410888671875,0.153564453125
3.480,310,488,357,311,3.0,32.0,45.0,-6.408690929412842,3.662109136581421,53.649898529052734,-0.8935546875,0.35107421875,0.146484375
3.494,309,493,360,310,3.0,32.0,45.0,-9.8876953125,1.5869139432907104,33.203125,-0.9344482421875,0.294921875,0.10595703125
3.520,310,494,363,311,3.0,32.0,45.0,-9.09423828125,2.50244140625,26.306150436401367,-0.9539794921875,0.223388671875,0.056396484375
3.520,308,496,363,310,3.0,32.0,45.0,-9.09423828125,2.50244140625,26.306150436401367,-0.9658203125,0.146240234375,0.0028076171875
3.524,310,500,367,310,3.0,32.0,45.0,-14.831542015075684,-2.3193359375,26.794431686401367,-0.9888916015625,0.104248046875,-0.0289306640625
3.534,308,506,369,310,3.0,32.0,45.0,-19.287109375,-8.6669921875,31.066892623901367,-1.01904296875,0.12109375,-0.0009765625
3.540,310,505,373,310,3.0,32.0,45.0,-19.287109375,-8.6669921875,31.066892623901367,-1.0447998046875,0.1689453125,0.0750732421875
3.553,310,504,377,309,3.0,32.0,45.0,-16.6015625,-18.9208984375,28.564451217651367,-1.06494140625,0.2093505859375,0.149658203125
3.565,310,502,377,310,3.0,32.0,45.0,-10.498045921325684,-17.7001953125,20.629880905151367,-1.062744140625,0.2197265625,0.1839599609375
3.570,310,503,373,309,2.0,35.0,42.0,-10.498045921325684,-17.7001953125,20.629880905151367,-1.03125,0.1905517578125,0.163818359375
3.584,308,502,379,311,2.0,35.0,42.0,0.8544921278953552,-6.347655773162842,7.324218273162842,-1.0074462890625,0.1470947265625,0.10693359375
3.594,310,499,373,310,2.0,35.0,42.0,2.50244140625,-3.417968511581421,6.896972179412842,-1.00439453125,0.1253662109375,0.05908203125
3.600,310,499,372,311,2.0,35.0,42.0,2.50244140625,-3.417968511581421,6.896972179412842,-0.99560546875,0.125732421875,0.04443359375
3.621,310,495,369,310,2.0,35.0,42.0,2.0751953125,-8.97216796875,14.648436546325684,-0.978271484375,0.1407470703125,0.047119140625
3.622,310,493,367,310,2.0,35.0,42.0,2.0751953125,-13.488768577575684,17.51708984375,-0.9644775390625,0.1739501953125,0.0621337890625
3.630,308,488,365,308,2.0,35.0,42.0,2.0751953125,-13.488768577575684,17.51708984375,-0.960205078125,0.2115478515625,0.089111328125
3.644,310,483,365,310,2.0,35.0,42.0,-2.13623046875,-19.6533203125,17.76123046875,-0.9593505859375,0.228271484375,0.111083984375
3.653,310,482,365,310,2.0,35.0,42.0,-4.69970703125,-20.629880905151367,16.7236328125,-0.9437255859375,0.215576171875,0.114990234375
3.665,310,483,365,310,2.0,35.0,42.0,-6.835937023162842,-21.057126998901367,16.41845703125,-0.903076171875,0.183837890625,0.1025390625
3.674,310,493,367,310,0.0,36.0,44.0,-8.30078125,-22.338865280151367,17.08984375,-0.85498046875,0.159423828125,0.083740234375
3.682,310,502,369,310,0.0,36.0,44.0,-9.27734375,-25.329587936401367,18.310546875,-0.7933349609375,0.1614990234375,0.0775146484375
3.697,309,510,377,310,0.0,36.0,44.0,-8.48388671875,-29.724119186401367,19.53125,-0.686279296875,0.175537109375,0.0789794921875
3.704,310,533,413,310,0.0,36.0,44.0,-4.8828125,-34.11865234375,20.080564498901367,-0.5367431640625,0.177734375,0.0599365234375
3.725,310,558,469,310,0.0,36.0,44.0,-1.8310545682907104,-38.818359375,20.141599655151367,-0.3076171875,0.1651611328125,0.025634765625
3.726,310,588,545,310,0.0,36.0,44.0,-2.624511480331421,-45.349117279052734,20.629880905151367,0.0338134765625,0.182373046875,-0.00390625
3.734,309,620,705,310,0.0,36.0,44.0,-9.27734375,-53.100582122802734,20.263669967651367,0.404541015625,0.2557373046875,0.032470703125
3.745,308,648,777,311,0.0,36.0,44.0,-24.719236373901367,-60.241695404052734,14.404295921325684,0.6058349609375,0.35791015625,0.2496337890625
3.750,310,700,873,310,0.0,36.0,44.0,-45.288082122802734,-63.903804779052734,-0.1831054538488388,0.35302734375,0.475830078125,0.6431884765625
3.770,308,803,1087,311,2.0,30.0,47.0,-58.349605560302734,-60.302730560302734,-22.155759811401367,-0.5980224609375,0.622314453125,0.9483642578125
3.772,309,840,1217,312,2.0,30.0,47.0,-59.204097747802734,-50.659175872802734,-44.799800872802734,-1.8360595703125,0.6822509765625,0.8721923828125
3.780,310,868,1292,311,2.0,30.0,47.0,-54.443355560302734,-33.50830078125,-59.204097747802734,-2.558349609375,0.528564453125,0.3580322265625
3.799,310,905,1345,310,2.0,30.0,47.0,-53.710933685302734,-9.46044921875,-68.54248046875,-2.5712890625,0.2860107421875,-0.049560546875
3.802,310,910,1312,312,2.0,30.0,47.0,-63.415523529052734,-0.9765624403953552,-74.462890625,-2.28955078125,0.103759765625,0.140869140625
3.828,310,907,1239,311,2.0,30.0,47.0,-75.50048828125,-13.488768577575684,-66.46728515625,-2.01806640625,-0.0782470703125,0.5247802734375
3.829,309,890,1096,311,2.0,30.0,47.0,-66.89453125,-7.263183116912842,-50.720211029052734,-1.6676025390625,-0.3590087890625,0.4373779296875
3.832,310,872,1009,312,2.0,30.0,47.0,-26.123044967651367,38.57421875,-44.494625091552734,-1.3138427734375,-0.50634765625,-0.021240234375
3.840,310,862,943,311,2.0,30.0,47.0,18.00537109375,84.04540252685547,-44.799800872802734,-1.0777587890625,-0.27001953125,-0.1993408203125
3.854,310,854,910,312,2.0,30.0,47.0,39.0625,90.69823455810547,-41.381832122802734,-1.0380859375,0.127685546875,-0.0020751953125
3.862,310,840,886,312,2.0,30.0,47.0,40.10009765625,65.3076171875,-34.423828125,-1.3875732421875,0.4056396484375,0.38525390625
3.871,310,820,833,311,9.0,32.0,47.0,26.550291061401367,31.249998092651367,-25.756834030151367,-1.7940673828125,0.4786376953125,0.6954345703125
3.884,310,784,705,310,9.0,32.0,47.0,7.629394054412842,14.282225608825684,-19.34814453125,-1.790771484375,0.3843994140625,0.5985107421875
3.892,310,764,607,309,9.0,32.0,47.0,-8.36181640625,21.057126998901367,-18.1884765625,-1.4705810546875,0.2503662109375,0.246337890625
3.901,310,739,535,310,9.0,32.0,47.0,-20.507810592651367,35.0341796875,-18.9208984375,-1.1632080078125,0.1636962890625,-0.008544921875
3.930,310,691,456,311,9.0,32.0,47.0,-23.254392623901367,43.334957122802734,-16.9677734375,-1.0228271484375,0.1025390625,-0.064208984375
3.930,308,658,430,311,9.0,32.0,47.0,-13.427733421325684,42.480464935302734,-12.695311546325684,-0.9671630859375,0.0037841796875,-0.029296875
3.931,307,601,408,297,9.0,32.0,47.0,1.7700194120407104,36.80419921875,-10.437010765075684,-0.877685546875,-0.1103515625,0.01953125
3.944,310,568,369,309,9.0,32.0,47.0,12.939452171325684,33.02001953125,-11.657713890075684,-0.6904296875,-0.1839599609375,0.0933837890625
3.965,310,547,357,310,9.0,32.0,47.0,18.06640625,34.0576171875,-14.160155296325684,-0.4591064453125,-0.2396240234375,0.1495361328125
3.965,310,529,360,310,9.0,32.0,47.0,22.094724655151367,40.588375091552734,-15.563963890075684,-0.330810546875,-0.3057861328125,0.1319580078125
3.974,310,513,357,310,4.0,33.0,43.0,27.893064498901367,46.752925872802734,-12.939452171325684,-0.4921875,-0.1763916015625,0.118408203125
3.983,311,509,354,311,4.0,33.0,43.0,29.968259811401367,42.968746185302734,-3.051757574081421,-0.4921875,-0.1763916015625,0.118408203125
3.990,310,503,349,310,4.0,33.0,43.0,26.428220748901367,29.602048873901367,12.207030296325684,-0.6123046875,0.0234375,0.1754150390625
4.004,310,499,356,310,4.0,33.0,43.0,20.812986373901367,16.7236328125,26.794431686401367,-0.7691650390625,0.2962646484375,0.209228515625
4.012,310,498,357,310,4.0,33.0,43.0,13.977049827575684,11.047362327575684,36.7431640625,-0.7691650390625,0.2962646484375,0.209228515625
4.035,309,502,357,310,4.0,33.0,43.0,6.469726085662842,11.169432640075684,41.137691497802734,-0.8367919921875,0.280029296875,0.19677734375
4.035,310,509,357,310,4.0,33.0,43.0,1.5258787870407104,12.695311546325684,41.442867279052734,-0.9256591796875,0.177734375,0.1309814453125
4.042,310,513,361,310,4.0,33.0,43.0,-0.7934569716453552,12.207030296325684,39.55078125,-0.9256591796875,0.177734375,0.1309814453125
4.050,310,517,367,310,4.0,33.0,43.0,-3.356933355331421,9.33837890625,36.80419921875,-0.9727783203125,0.162353515625,0.0888671875
4.064,309,519,369,310,3.0,35.0,43.0,-5.371093273162842,6.469726085662842,34.24072265625,-1.0419921875,0.212646484375,0.0245361328125
4.072,310,519,373,310,3.0,35.0,43.0,-5.371093273162842,5.310058116912842,32.3486328125,-1.0419921875,0.212646484375,0.0245361328125
4.082,310,513,373,310,3.0,35.0,43.0,-5.432128429412842,5.371093273162842,30.273435592651367,-1.043212890625,0.2393798828125,0.0325927734375
4.094,308,508,379,308,3.0,35.0,43.0,-6.408690929412842,5.981444835662842,26.611326217651367,-1.012451171875,0.1900634765625,0.08837890625
4.107,309,506,379,311,3.0,35.0,43.0,-7.141112804412842,6.896972179412842,21.484373092651367,-1.0205078125,0.1610107421875,0.1029052734375
4.111,307,502,374,310,3.0,35.0,43.0,-7.141112804412842,7.324218273162842,17.27294921875,-1.0205078125,0.1610107421875,0.1029052734375
4.136,309,499,372,310,3.0,35.0,43.0,-5.981444835662842,6.835937023162842,16.9677734375,-1.0244140625,0.111328125,0.0797119140625
4.136,308,495,369,311,3.0,35.0,43.0,-5.981444835662842,6.835937023162842,16.9677734375,-1.0169677734375,0.093017578125,0.0633544921875
4.140,308,488,365,310,3.0,35.0,43.0,-5.126952648162842,5.859374523162842,20.141599655151367,-1.0169677734375,0.093017578125,0.0633544921875
4.154,309,481,364,310,3.0,35.0,43.0,-5.126952648162842,0.0,28.991697311401367,-0.99169921875,0.0904541015625,0.0439453125
4.162,310,477,360,310,4.0,36.0,41.0,-5.126952648162842,0.0,28.991697311401367,-0.9892578125,0.11083984375,0.0413818359375
4.186,310,465,357,309,4.0,36.0,41.0,-5.371093273162842,-4.08935546875,32.71484375,-0.9892578125,0.11083984375,0.0413818359375
4.186,308,455,357,309,4.0,36.0,41.0,-6.225585460662842,-10.742186546325684,36.2548828125,-1.001953125,0.1553955078125,0.0477294921875
4.192,310,452,357,310,4.0,36.0,41.0,-6.225585460662842,-10.742186546325684,36.2548828125,-0.994384765625,0.1495361328125,0.0523681640625
4.200,310,456,357,310,4.0,36.0,41.0,-7.263183116912842,-12.695311546325684,37.353515625,-0.994384765625,0.1495361328125,0.0523681640625
4.214,308,463,357,310,4.0,36.0,41.0,-8.23974609375,-15.869139671325684,41.870113372802734,-0.9197998046875,0.0986328125,0.02880859375
4.238,310,467,356,310,4.0,36.0,41.0,-8.23974609375,-15.869139671325684,41.870113372802734,-0.824462890625,0.103515625,0.001220703125
4.238,310,475,340,310,4.0,36.0,41.0,-7.202147960662842,-18.6767578125,44.860836029052734,-0.824462890625,0.103515625,0.001220703125
4.244,308,482,357,311,4.0,36.0,41.0,-3.295898199081421,-30.456541061401367,44.677730560302734,-0.662841796875,0.292236328125,-0.0379638671875
4.252,310,493,357,310,4.0,36.0,41.0,2.624511480331421,-40.527339935302734,37.7197265625,-0.618896484375,0.3895263671875,-0.0643310546875
4.260,310,497,357,310,2.0,35.0,43.0,2.624511480331421,-40.527339935302734,37.7197265625,-0.542236328125,0.4058837890625,-0.09765625
4.278,309,533,386,310,2.0,35.0,43.0,32.28759765625,-58.410640716552734,18.61572265625,-0.3170166015625,0.3746337890625,-0.119384765625
4.285,308,559,473,310,2.0,35.0,43.0,44.311519622802734,-64.0869140625,9.94873046875,0.0941162109375,0.39208984375,-0.079833984375
4.290,310,578,585,310,2.0,35.0,43.0,44.311519622802734,-64.0869140625,9.94873046875,0.5467529296875,0.4739990234375,0.1748046875
4.311,310,631,721,310,2.0,35.0,43.0,31.188962936401367,-68.603515625,-26.245115280151367,0.678955078125,0.53759765625,0.580810546875
4.312,310,660,785,312,2.0,35.0,43.0,10.192870140075684,-56.762691497802734,-54.870601654052734,0.128173828125,0.66259765625,0.8878173828125
4.320,310,714,932,311,2.0,35.0,43.0,10.192870140075684,-56.762691497802734,-54.870601654052734,-0.9451904296875,0.85791015625,0.9581298828125
4.335,311,799,1199,311,2.0,35.0,43.0,-21.789548873901367,-21.240232467651367,-87.76854705810547,-2.0401611328125,0.876708984375,0.86328125
4.342,310,818,1286,312,2.0,35.0,43.0,-38.63525390625,-25.939939498901367,-82.45848846435547,-2.6492919921875,0.5152587890625,0.632568359375
4.350,309,832,1300,310,2.0,35.0,43.0,-38.63525390625,-25.939939498901367,-82.45848846435547,-2.6085205078125,0.0313720703125,0.30029296875
4.364,310,846,1234,311,5.0,33.0,41.0,-56.030269622802734,-36.7431640625,-80.32225799560547,-2.3031005859375,-0.2449951171875,0.011962890625
4.372,311,830,1188,311,5.0,33.0,41.0,-45.837398529052734,-23.254392623901367,-79.52880859375,-1.9102783203125,-0.4967041015625,-0.222900390625
4.390,310,823,1166,310,5.0,33.0,41.0,-45.837398529052734,-23.254392623901367,-79.52880859375,-1.4830322265625,-0.7274169921875,-0.2486572265625
4.394,310,793,1069,310,5.0,33.0,41.0,11.718749046325684,40.466304779052734,-57.556148529052734,-1.208740234375,-0.6439208984375,0.01708984375
4.403,310,784,1037,310,5.0,33.0,41.0,48.156734466552734,59.997554779052734,-46.447750091552734,-1.037109375,-0.2799072265625,0.3363037109375
4.417,310,780,1035,310,5.0,33.0,41.0,68.78662109375,65.24658203125,-37.353515625,-1.0299072265625,0.12841796875,0.4947509765625
4.441,310,766,966,311,5.0,33.0,41.0,62.133785247802734,58.288570404052734,-24.536130905151367,-1.373046875,0.4681396484375,0.54833984375
4.443,310,747,871,310,5.0,33.0,41.0,30.029294967651367,41.931148529052734,-5.065917491912842,-1.7552490234375,0.5281982421875,0.5035400390625
4.443,310,728,793,310,5.0,33.0,41.0,-6.103515148162842,27.893064498901367,13.977049827575684,-1.7203369140625,0.2685546875,0.2933349609375
4.454,310,683,678,310,5.0,33.0,41.0,-22.644041061401367,24.169919967651367,28.442380905151367,-1.3712158203125,-0.0091552734375,0.009521484375
4.462,310,654,639,312,4.0,34.0,45.0,-23.132322311401367,25.878904342651367,39.794921875,-1.039794921875,-0.154296875,-0.16162109375
4.470,310,644,604,310,4.0,34.0,45.0,-19.1650390625,27.282712936401367,47.851558685302734,-0.8739013671875,-0.1845703125,-0.0994873046875
4.493,310,607,574,310,4.0,34.0,45.0,-8.30078125,27.648923873901367,50.964351654052734,-0.846923828125,-0.1407470703125,0.0880126953125
4.493,310,584,545,310,4.0,34.0,45.0,7.324218273162842,27.954099655151367,49.133296966552734,-0.8441162109375,-0.0450439453125,0.2255859375
4.500,310,554,518,311,4.0,34.0,45.0,18.4326171875,29.724119186401367,45.043941497802734,-0.7254638671875,0.005859375,0.2310791015625
4.516,309,531,490,309,4.0,34.0,45.0,26.306150436401367,35.46142578125,39.36767578125,-0.5279541015625,-0.040771484375,0.1309814453125
4.523,309,512,479,310,4.0,34.0,45.0,32.71484375,41.564937591552734,33.02001953125,-0.4420166015625,-0.0457763671875,0.062744140625
4.533,308,506,456,310,4.0,34.0,45.0,32.470703125,41.137691497802734,31.005857467651367,-0.500732421875,0.0552978515625,0.0821533203125
4.546,309,496,438,309,4.0,34.0,45.0,27.832029342651367,35.46142578125,35.5224609375,-0.6015625,0.1893310546875,0.0948486328125
4.552,310,495,447,310,4.0,34.0,45.0,24.902341842651367,29.113767623901367,42.907711029052734,-0.6600341796875,0.3118896484375,0.073974609375
4.560,310,497,437,310,1.0,38.0,42.0,23.254392623901367,23.254392623901367,47.607418060302734,-0.696044921875,0.4158935546875,0.065673828125
4.574,310,499,435,310,1.0,38.0,42.0,18.798828125,17.88330078125,46.569820404052734,-0.7520751953125,0.4744873046875,0.093017578125
4.588,308,499,437,310,1.0,38.0,42.0,11.169432640075684,14.404295921325684,40.466304779052734,-0.8067626953125,0.46923828125,0.1275634765625
4.597,310,502,438,310,1.0,38.0,42.0,3.845214605331421,13.916014671325684,32.2265625,-0.841552734375,0.4239501953125,0.137451171875
4.604,310,497,441,310,1.0,38.0,42.0,-1.7700194120407104,14.892577171325684,24.841306686401367,-0.8719482421875,0.3717041015625,0.127685546875
4.618,308,497,444,309,1.0,38.0,42.0,-6.713866710662842,15.075682640075684,20.141599655151367,-0.9100341796875,0.3265380859375,0.1070556640625
4.620,298,497,450,309,1.0,38.0,42.0,-12.084959983825684,13.854979515075684,18.1884765625,-0.95068359375,0.2855224609375,0.084228515625
4.647,310,497,451,310,1.0,38.0,42.0,-16.78466796875,11.718749046325684,17.76123046875,-0.9833984375,0.2493896484375,0.069091796875
4.650,308,495,452,310,1.0,38.0,42.0,-18.73779296875,9.82666015625,17.08984375,-1.0003662109375,0.2327880859375,0.0615234375
4.650,310,495,441,310,1.0,38.0,42.0,-17.333984375,8.9111328125,14.831542015075684,-1.0032958984375,0.240478515625,0.0626220703125
4.664,310,483,467,310,0.0,38.0,42.0,-13.366698265075684,9.09423828125,10.437010765075684,-0.9989013671875,0.2523193359375,0.0699462890625
4.672,310,481,469,310,0.0,38.0,42.0,-8.36181640625,9.8876953125,5.371093273162842,-0.9920654296875,0.246337890625,0.07275390625
4.681,310,480,473,311,0.0,38.0,42.0,-4.0283203125,11.108397483825684,2.01416015625,-0.984375,0.2237548828125,0.063720703125
4.695,310,480,467,310,0.0,38.0,42.0,-1.3427733182907104,12.084959983825684,1.4038084745407104,-0.9739990234375,0.1956787109375,0.04443359375
4.703,310,479,465,310,0.0,38.0,42.0,-0.54931640625,11.901854515075684,3.051757574081421,-0.962890625,0.171875,0.0224609375
4.710,309,479,463,310,0.0,38.0,42.0,-0.54931640625,10.131834983825684,6.164550304412842,-0.9534912109375,0.1639404296875,-0.000244140625
4.724,312,481,456,309,0.0,38.0,42.0,-0.54931640625,6.896972179412842,10.314940452575684,-0.9442138671875,0.197265625,-0.0103759765625
4.748,310,481,454,310,0.0,38.0,42.0,-1.0986328125,2.44140625,14.770506858825684,-0.9442138671875,0.197265625,-0.0103759765625
4.749,308,483,451,309,0.0,38.0,42.0,-2.929687261581421,-2.25830078125,19.1650390625,-0.9393310546875,0.2117919921875,0.0042724609375
4.754,308,490,441,311,0.0,38.0,42.0,-6.042479991912842,-6.347655773162842,23.376462936401367,-0.9010009765625,0.1954345703125,0.0126953125
4.762,310,496,437,310,0.0,37.0,42.0,-10.375975608825684,-9.6435546875,27.954099655151367,-0.9010009765625,0.1954345703125,0.0126953125
4.770,309,502,434,310,0.0,37.0,42.0,-15.197752952575684,-12.451170921325684,32.89794921875,-0.8433837890625,0.1759033203125,0.001220703125
4.784,311,518,402,308,0.0,37.0,42.0,-20.202634811401367,-14.831542015075684,37.4755859375,-0.7342529296875,0.234375,-0.09375
4.792,310,519,393,310,0.0,37.0,42.0,-25.390623092651367,-18.24951171875,40.832515716552734,-0.7342529296875,0.234375,-0.09375
4.800,310,510,378,312,0.0,37.0,42.0,-32.04345703125,-24.475095748901367,43.395992279052734,-0.720947265625,0.3209228515625,-0.1458740234375
4.814,310,504,354,310,0.0,37.0,42.0,-40.283199310302734,-32.5927734375,45.532222747802734,-0.506591796875,0.317138671875,0.0072021484375
4.823,310,517,345,310,0.0,37.0,42.0,-48.278804779052734,-37.17041015625,46.569820404052734,-0.506591796875,0.317138671875,0.0072021484375
4.830,310,530,345,309,0.0,37.0,42.0,-56.579586029052734,-33.26416015625,45.471187591552734,-0.367919921875,0.3419189453125,0.2283935546875
4.850,310,559,364,310,0.0,37.0,42.0,-65.185546875,-21.850584030151367,39.00146484375,-0.0401611328125,0.59423828125,0.6895751953125
4.852,310,576,369,310,0.0,37.0,42.0,-68.78662109375,-5.859374523162842,21.240232467651367,0.0838623046875,0.494140625,0.49072265625
4.861,310,603,402,310,2.0,37.0,42.0,-65.00244140625,10.498045921325684,-5.310058116912842,0.0838623046875,0.494140625,0.49072265625
4.874,310,689,522,308,2.0,37.0,42.0,-68.42041015625,-5.859374523162842,-39.4287109375,-0.9013671875,0.5689697265625,0.212890625
4.882,310,741,653,310,2.0,37.0,42.0,-68.42041015625,-5.859374523162842,-39.4287109375,-1.765869140625,0.5167236328125,0.30712890625
4.892,310,778,784,310,2.0,37.0,42.0,-76.23291015625,-41.442867279052734,-44.860836029052734,-1.765869140625,0.5167236328125,0.30712890625
4.904,311,814,932,310,2.0,37.0,42.0,-56.457515716552734,-42.602535247802734,-42.175289154052734,-2.301513671875,-0.0518798828125,-0.1514892578125
4.917,310,822,944,311,2.0,37.0,42.0,-56.457515716552734,-42.602535247802734,-42.175289154052734,-2.0242919921875,0.0001220703125,0.0572509765625
4.926,310,819,886,310,2.0,37.0,42.0,-41.015621185302734,-27.038572311401367,-31.066892623901367,-2.0242919921875,0.0001220703125,0.0572509765625
4.934,310,796,728,310,2.0,37.0,42.0,-9.3994140625,3.479003667831421,-4.69970703125,-1.4461669921875,0.0279541015625,0.447509765625
4.951,309,767,633,310,2.0,37.0,42.0,-9.3994140625,3.479003667831421,-4.69970703125,-1.2049560546875,-0.0174560546875,0.3056640625
4.954,310,754,605,310,2.0,37.0,42.0,15.380858421325684,35.5224609375,-4.45556640625,-1.2049560546875,-0.0174560546875,0.3056640625
4.964,310,740,620,310,0.0,37.0,43.0,51.513668060302734,71.533203125,-17.333984375,-1.350341796875,0.5731201171875,0.365478515625
4.973,310,725,606,310,0.0,37.0,43.0,51.513668060302734,71.533203125,-17.333984375,-1.7559814453125,0.7940673828125,0.4886474609375
4.980,309,708,564,310,0.0,37.0,43.0,52.368160247802734,65.91796875,-15.014647483825684,-1.7559814453125,0.7940673828125,0.4886474609375
4.997,309,657,488,310,0.0,37.0,43.0,31.799314498901367,44.250484466552734,4.638671875,-1.568603515625,0.4102783203125,0.073974609375
5.002,311,634,447,310,0.0,37.0,43.0,26.245115280151367,40.588375091552734,9.6435546875,-1.1614990234375,0.2296142578125,-0.1287841796875
5.010,306,614,401,310,0.0,37.0,43.0,26.245115280151367,40.588375091552734,9.6435546875,-0.927001953125,0.0667724609375,-0.1650390625
5.034,309,577,364,310,0.0,37.0,43.0,26.489255905151367,37.17041015625,12.084959983825684,-0.8519287109375,-0.0780029296875,-0.1263427734375
5.034,310,538,364,310,0.0,37.0,43.0,39.12353515625,37.353515625,8.4228515625,-0.739013671875,-0.134765625,-0.12548828125
5.055,308,513,369,310,0.0,37.0,43.0,39.12353515625,37.353515625,8.4228515625,-0.5142822265625,-0.041259765625,-0.156982421875
5.055,308,481,374,310,1.0,40.0,40.0,77.94189453125,41.687007904052734,-16.845703125,-0.31591796875,0.124267578125,-0.10986328125
5.062,310,477,377,310,1.0,40.0,40.0,87.15819549560547,40.954586029052734,-31.372068405151367,-0.2938232421875,0.25048828125,0.0213623046875
5.070,310,463,372,310,1.0,40.0,40.0,87.15819549560547,40.954586029052734,-31.372068405151367,-0.405029296875,0.3138427734375,0.1478271484375
5.086,310,454,368,310,1.0,40.0,40.0,54.809566497802734,28.442380905151367,-40.527339935302734,-0.51123046875,0.3458251953125,0.1806640625
5.092,309,452,369,310,1.0,40.0,40.0,32.1044921875,25.329587936401367,-33.26416015625,-0.585205078125,0.428955078125,0.125
5.100,309,453,371,310,1.0,40.0,40.0,32.1044921875,25.329587936401367,-33.26416015625,-0.6461181640625,0.501708984375,0.0831298828125
5.114,310,466,373,310,1.0,40.0,40.0,8.97216796875,19.83642578125,-12.084959983825684,-0.6881103515625,0.4447021484375,0.0780029296875
5.137,310,476,373,310,1.0,40.0,40.0,6.347655773162842,14.709471702575684,-11.901854515075684,-0.8118896484375,0.2742919921875,0.0667724609375
5.149,309,483,391,310,1.0,40.0,40.0,7.446288585662842,4.7607421875,-23.071287155151367,-0.889892578125,0.26318359375,0.0518798828125
5.152,311,490,385,310,1.0,40.0,40.0,8.30078125,1.9531248807907104,-26.550291061401367,-0.9676513671875,0.2587890625,0.0247802734375
5.179,310,493,386,310,1.0,36.0,44.0,8.11767578125,0.1831054538488388,-26.306150436401367,-1.0299072265625,0.244873046875,-0.00439453125
5.184,310,497,401,310,1.0,36.0,44.0,5.065917491912842,-1.4648436307907104,-22.888181686401367,-1.062255859375,0.1922607421875,-0.0303955078125
5.184,310,498,414,310,1.0,36.0,44.0,0.0,-2.807616949081421,-18.12744140625,-1.0787353515625,0.11474609375,-0.04833984375
5.190,309,497,420,310,1.0,36.0,44.0,-4.39453125,-4.2724609375,-13.000487327575684,-1.0968017578125,0.0550537109375,-0.0535888671875
5.207,309,496,428,311,1.0,36.0,44.0,-6.225585460662842,-6.591796398162842,-7.690429210662842,-1.1114501953125,0.0294189453125,-0.040771484375
5.212,310,496,436,310,1.0,36.0,44.0,-4.638671875,-9.6435546875,-2.746581792831421,-1.0975341796875,0.0264892578125,-0.01171875
5.220,310,497,439,310,1.0,36.0,44.0,0.30517578125,-12.023924827575684,1.4038084745407104,-1.065673828125,0.0582275390625,0.0084228515625
5.234,310,490,441,311,1.0,36.0,44.0,6.164550304412842,-12.756346702575684,5.310058116912842,-1.045166015625,0.13427734375,0.0107421875
5.264,310,488,438,310,1.0,36.0,44.0,9.765625,-12.512206077575684,9.09423828125,-1.0203857421875,0.199951171875,0.0057373046875
5.264,309,472,434,310,1.0,36.0,44.0,10.559081077575684,-11.474608421325684,11.535643577575684,-0.9927978515625,0.2138671875,-0.00439453125
5.264,310,465,428,296,0.0,39.0,42.0,8.9111328125,-10.559081077575684,12.878417015075684,-0.984619140625,0.202880859375,-0.0084228515625
5.272,310,479,419,310,0.0,39.0,42.0,5.920409679412842,-10.925292015075684,14.099120140075684,-0.9915771484375,0.1973876953125,-0.0030517578125
5.280,310,475,414,308,0.0,39.0,42.0,3.479003667831421,-12.512206077575684,15.686034202575684,-1.0010986328125,0.2000732421875,-0.0001220703125
5.294,310,467,407,309,0.0,39.0,42.0,1.8920897245407104,-14.404295921325684,17.76123046875,-1.0010986328125,0.1978759765625,0.000244140625
5.313,309,454,399,310,0.0,39.0,42.0,0.1220703050494194,-16.2353515625,20.812986373901367,-0.9879150390625,0.181640625,0.00537109375
5.313,310,452,386,310,0.0,39.0,42.0,-2.38037109375,-18.06640625,25.512693405151367,-0.967041015625,0.154052734375,0.016357421875
5.324,309,452,382,309,0.0,39.0,42.0,-5.065917491912842,-19.71435546875,32.2265625,-0.943359375,0.114013671875,0.0267333984375
5.364,310,456,373,308,0.0,39.0,42.0,-7.934569835662842,-21.240232467651367,41.503902435302734,-0.900146484375,0.0562744140625,0.02734375
5.364,309,473,372,310,0.0,39.0,42.0,-10.314940452575684,-23.498533248901367,52.490230560302734,-0.810546875,0.01220703125,0.000244140625
5.365,308,493,371,310,1.0,37.0,42.0,-10.498045921325684,-27.893064498901367,62.133785247802734,-0.68212890625,0.055908203125,-0.0311279296875
5.365,308,518,380,310,1.0,37.0,42.0,-7.080077648162842,-35.82763671875,65.673828125,-0.5113525390625,0.1722412109375,-0.036376953125
5.370,310,537,402,310,1.0,37.0,42.0,0.30517578125,-45.104976654052734,59.082027435302734,-0.29541015625,0.2962646484375,-0.0716552734375
5.384,308,587,513,311,1.0,37.0,42.0,8.11767578125,-52.246089935302734,42.419429779052734,-0.063232421875,0.4935302734375,-0.075439453125
5.392,312,608,658,310,1.0,37.0,42.0,12.695311546325684,-58.532711029052734,17.9443359375,0.239013671875,0.6798095703125,0.1640625
5.451,309,634,796,310,1.0,37.0,42.0,14.953612327575684,-64.453125,-12.817381858825684,0.567626953125,0.6435546875,0.510009765625
5.451,310,725,1003,310,1.0,37.0,42.0,11.169432640075684,-68.359375,-40.771480560302734,0.65771484375,0.4613037109375,0.6754150390625
5.451,310,785,1104,312,1.0,37.0,42.0,-0.8544921278953552,-76.23291015625,-57.434078216552734,0.0096435546875,0.456298828125,0.658203125
5.451,311,835,1213,312,1.0,37.0,42.0,-8.11767578125,-92.28514862060547,-64.75830078125,-1.4521484375,0.7109375,0.5146484375
5.466,311,886,1309,311,1.0,37.0,42.0,1.3427733182907104,-97.90038299560547,-52.368160247802734,-2.627685546875,0.8070068359375,0.1573486328125
5.470,310,904,1321,309,1.0,35.0,42.0,14.526366233825684,-70.73974609375,-22.460935592651367,-2.5660400390625,0.65234375,-0.351806640625
5.471,310,912,1295,312,1.0,35.0,42.0,-13.610838890075684,-35.888671875,-2.38037109375,-2.05810546875,0.442626953125,-0.4395751953125
5.474,310,902,1185,311,1.0,35.0,42.0,-93.93309783935547,-39.48974609375,9.21630859375,-2.150390625,-0.5606689453125,0.489501953125
5.482,310,888,1134,310,1.0,35.0,42.0,-146.6064453125,-57.189937591552734,21.667478561401367,-2.150390625,-0.5606689453125,0.489501953125
5.490,311,873,1078,312,1.0,35.0,42.0,-105.16356658935547,-32.1044921875,22.033689498901367,-1.853759765625,-0.8798828125,0.3299560546875
5.506,310,840,939,311,1.0,35.0,42.0,-20.751951217651367,18.12744140625,11.901854515075684,-1.10205078125,0.105712890625,0.2047119140625
5.512,309,833,918,311,1.0,35.0,42.0,36.92626953125,45.104976654052734,3.356933355331421,-1.10205078125,0.105712890625,0.2047119140625
5.520,310,830,904,310,1.0,35.0,42.0,64.88037109375,46.081539154052734,-5.310058116912842,-1.00390625,0.67626953125,0.4364013671875
5.545,310,803,832,310,1.0,35.0,42.0,73.18115234375,40.405269622802734,-13.366698265075684,-1.4381103515625,1.046875,0.53271484375
5.572,310,780,762,310,1.0,35.0,42.0,61.584468841552734,36.43798828125,-13.916014671325684,-1.4381103515625,1.046875,0.53271484375
5.572,310,741,702,311,1.0,35.0,46.0,36.07177734375,34.912109375,-10.925292015075684,-1.37646484375,0.81982421875,0.204345703125
5.573,309,718,617,310,0.0,35.0,46.0,5.554198741912842,34.1796875,-10.437010765075684,-1.0400390625,0.292724609375,-0.0975341796875
5.573,310,689,585,310,0.0,35.0,46.0,-21.240232467651367,31.188962936401367,-11.840819358825684,-1.0400390625,0.292724609375,-0.0975341796875
5.580,310,660,551,311,0.0,35.0,46.0,-34.912109375,29.113767623901367,-13.488768577575684,-0.97412109375,0.112548828125,-0.0596923828125
5.594,310,601,513,310,0.0,35.0,46.0,-30.456541061401367,31.372068405151367,-13.732909202575684,-0.831787109375,-0.040283203125,0.0487060546875
5.603,310,568,485,310,0.0,35.0,46.0,-13.244627952575684,34.7900390625,-13.183592796325684,-0.831787109375,-0.040283203125,0.0487060546875
5.612,310,547,465,309,0.0,35.0,46.0,4.69970703125,37.04833984375,-14.587401390075684,-0.649658203125,-0.101318359375,0.076171875
5.624,310,522,441,309,0.0,35.0,46.0,17.63916015625,40.283199310302734,-27.832029342651367,-0.4793701171875,-0.215576171875,0.1356201171875
5.632,311,510,438,310,0.0,35.0,46.0,17.63916015625,40.283199310302734,-27.832029342651367,-0.550537109375,-0.111328125,0.1873779296875
5.642,310,508,437,311,0.0,35.0,46.0,17.333984375,37.7197265625,-29.968259811401367,-0.550537109375,-0.111328125,0.1873779296875
5.672,310,494,433,310,3.0,36.0,43.0,27.709959030151367,29.235837936401367,-10.131834983825684,-0.659423828125,0.280029296875,0.1702880859375
5.673,310,493,434,312,3.0,36.0,43.0,27.709959030151367,29.235837936401367,-10.131834983825684,-0.69384765625,0.4276123046875,0.12939453125
5.674,310,493,437,310,3.0,36.0,43.0,33.203125,26.062009811401367,1.7700194120407104,-0.69384765625,0.4276123046875,0.12939453125
5.684,310,493,437,310,3.0,36.0,43.0,19.22607421875,15.075682640075684,11.596678733825684,-0.7474365234375,0.3946533203125,0.1446533203125
5.692,310,495,439,311,3.0,36.0,43.0,19.22607421875,15.075682640075684,11.596678733825684,-0.7763671875,0.306640625,0.1558837890625
5.700,310,497,444,310,3.0,36.0,43.0,9.033203125,10.620116233825684,9.6435546875,-0.7763671875,0.306640625,0.1558837890625
5.714,310,502,449,308,3.0,36.0,43.0,0.1831054538488388,4.57763671875,3.723144292831421,-0.94384765625,0.3634033203125,0.130126953125
5.722,308,503,447,310,3.0,36.0,43.0,0.1831054538488388,4.57763671875,3.723144292831421,-0.995361328125,0.3662109375,0.1021728515625
5.730,310,499,441,310,3.0,36.0,43.0,0.2441406100988388,2.685546636581421,-0.54931640625,-0.995361328125,0.3662109375,0.1021728515625
5.745,310,493,433,309,3.0,36.0,43.0,0.7324218153953552,4.69970703125,-8.97216796875,-1.0416259765625,0.2447509765625,0.0025634765625
5.752,310,484,430,310,2.0,36.0,39.0,0.7324218153953552,4.69970703125,-8.97216796875,-1.0594482421875,0.1968994140625,-0.003662109375
5.773,309,480,423,310,2.0,36.0,39.0,-3.173827886581421,4.94384765625,-9.46044921875,-1.0594482421875,0.1968994140625,-0.003662109375
5.774,308,441,386,310,2.0,36.0,39.0,-6.164550304412842,1.5869139432907104,-5.798339366912842,-1.04736328125,0.1492919921875,0.0361328125
5.782,309,465,393,309,2.0,36.0,39.0,-4.0283203125,-0.0610351525247097,-2.624511480331421,-1.034423828125,0.150146484375,0.0457763671875
5.790,310,452,388,310,2.0,36.0,39.0,-4.0283203125,-0.0610351525247097,-2.624511480331421,-1.017822265625,0.1510009765625,0.0543212890625
5.804,309,431,373,310,2.0,36.0,39.0,-2.0751953125,-1.4648436307907104,5.310058116912842,-1.0037841796875,0.1455078125,0.06640625
5.817,310,424,371,308,2.0,36.0,39.0,-2.01416015625,-2.13623046875,9.70458984375,-0.986328125,0.135498046875,0.0771484375
5.820,310,414,367,309,2.0,36.0,39.0,-2.01416015625,-2.13623046875,9.70458984375,-0.9613037109375,0.1236572265625,0.0723876953125
5.834,310,411,367,310,2.0,36.0,39.0,-1.7700194120407104,-3.112792730331421,18.73779296875,-0.9462890625,0.1171875,0.0462646484375
5.847,310,408,367,309,2.0,36.0,39.0,-3.784179449081421,-3.051757574081421,24.230955123901367,-0.9429931640625,0.12646484375,0.0196533203125
5.850,310,408,367,310,1.0,39.0,44.0,-3.784179449081421,-3.051757574081421,24.230955123901367,-0.9327392578125,0.147216796875,0.013427734375
5.883,310,409,363,310,1.0,39.0,44.0,-10.498045921325684,-4.45556640625,39.0625,-0.9010009765625,0.16650390625,0.018310546875
5.883,309,415,357,312,1.0,39.0,44.0,-14.892577171325684,-6.835937023162842,46.020503997802734,-0.8447265625,0.1719970703125,0.0223388671875
5.884,310,427,356,310,1.0,39.0,44.0,-14.892577171325684,-6.835937023162842,46.020503997802734,-0.7637939453125,0.15869140625,0.0194091796875
5.894,310,451,356,310,1.0,39.0,44.0,-28.442380905151367,-14.892577171325684,54.565425872802734,-0.641357421875,0.1385498046875,0.00048828125
5.902,310,481,362,310,1.0,39.0,44.0,-32.16552734375,-19.71435546875,55.053707122802734,-0.47314453125,0.1207275390625,-0.020263671875
5.910,309,506,368,308,1.0,39.0,44.0,-32.16552734375,-19.71435546875,55.053707122802734,-0.3095703125,0.1771240234375,-0.0411376953125
5.924,310,548,439,309,1.0,39.0,44.0,-21.179197311401367,-35.400390625,37.65869140625,-0.169921875,0.4560546875,-0.0159912109375
5.932,310,582,558,310,1.0,39.0,44.0,-7.141112804412842,-51.391597747802734,16.7236328125,0.1114501953125,0.73681640625,0.19482421875
5.940,311,601,713,310,1.0,39.0,44.0,10.620116233825684,-70.25146484375,-16.845703125,0.504638671875,0.687744140625,0.4697265625
5.954,310,658,918,310,0.0,33.0,47.0,28.808591842651367,-84.59471893310547,-55.419918060302734,0.6300048828125,0.4749755859375,0.5625
5.989,309,723,1035,310,0.0,33.0,47.0,29.418943405151367,-97.10692596435547,-81.60399627685547,0.0013427734375,0.4410400390625,0.5750732421875
5.990,310,785,1143,311,0.0,33.0,47.0,5.065917491912842,-113.89159393310547,-87.82958221435547,-1.4345703125,0.678466796875,0.661865234375
5.990,309,846,1273,312,0.0,33.0,47.0,-17.39501953125,-120.36132049560547,-65.49072265625,-2.6656494140625,0.8963623046875,0.5802001953125
5.992,309,835,1292,310,0.0,33.0,47.0,-9.58251953125,-86.18163299560547,-26.550291061401367,-2.6815185546875,0.792724609375,0.05126953125
6.000,310,864,1283,311,0.0,33.0,47.0,-7.995604991912842,-27.587888717651367,-10.192870140075684,-2.1070556640625,0.370849609375,-0.39453125
6.014,311,865,1219,310,0.0,33.0,47.0,-66.162109375,-6.042479991912842,-11.352538108825684,-1.9644775390625,-0.2733154296875,-0.180419921875
6.022,310,865,1204,312,0.0,33.0,47.0,-133.4228515625,-26.000974655151367,4.2724609375,-1.9190673828125,-0.8948974609375,0.2252197265625
6.030,310,861,1175,310,0.0,33.0,47.0,-114.68505096435547,-33.87451171875,28.320310592651367,-1.6251220703125,-0.9891357421875,0.2708740234375
6.044,310,833,1078,311,0.0,33.0,47.0,-28.076169967651367,-18.798828125,38.0859375,-1.2994384765625,-0.4437255859375,0.2535400390625
6.052,310,816,989,310,1.0,33.0,43.0,41.076656341552734,-1.9531248807907104,30.334470748901367,-1.0477294921875,0.244140625,0.4339599609375
6.060,310,809,959,310,1.0,33.0,43.0,67.87109375,17.88330078125,10.986327171325684,-0.912109375,0.643310546875,0.5211181640625
6.079,310,794,946,311,1.0,33.0,43.0,70.12939453125,43.518062591552734,-9.1552734375,-0.96533203125,0.80517578125,0.4271240234375
6.089,310,780,920,311,1.0,33.0,43.0,57.006832122802734,59.875484466552734,-18.61572265625,-1.216796875,0.875244140625,0.4178466796875
6.090,296,769,861,290,1.0,33.0,43.0,33.3251953125,53.894039154052734,-14.892577171325684,-1.4180908203125,0.772705078125,0.46044921875
6.104,309,737,740,310,1.0,33.0,43.0,10.131834983825684,36.1328125,-7.385253429412842,-1.3812255859375,0.5948486328125,0.3287353515625
6.112,310,716,685,310,1.0,33.0,43.0,-6.652831554412842,24.780271530151367,-2.624511480331421,-1.2222900390625,0.47998046875,0.1168212890625
6.127,310,688,616,311,1.0,33.0,43.0,-19.59228515625,23.864744186401367,-0.4272460639476776,-1.100830078125,0.3558349609375,-0.0069580078125
6.129,308,657,594,311,1.0,33.0,43.0,-28.686521530151367,29.357908248901367,0.54931640625,-1.0133056640625,0.181884765625,-0.005126953125
6.143,310,617,549,310,1.0,33.0,43.0,-27.587888717651367,36.0107421875,0.2441406100988388,-0.923828125,0.01123046875,0.05615234375
6.154,310,592,519,310,2.0,35.0,41.0,-14.953612327575684,39.00146484375,-3.662109136581421,-0.8372802734375,-0.0755615234375,0.129150390625
6.159,310,566,497,310,2.0,35.0,41.0,2.38037109375,37.78076171875,-10.803221702575684,-0.7205810546875,-0.11181640625,0.178955078125
6.174,308,551,465,310,2.0,35.0,41.0,20.568845748901367,38.87939453125,-21.179197311401367,-0.5858154296875,-0.160400390625,0.1529541015625
6.184,310,545,444,310,2.0,35.0,41.0,35.82763671875,43.518062591552734,-33.447265625,-0.531494140625,-0.135498046875,0.122802734375
6.195,310,532,428,310,2.0,35.0,41.0,41.015621185302734,43.518062591552734,-39.00146484375,-0.561767578125,0.012451171875,0.17333984375
6.203,308,530,414,310,2.0,35.0,41.0,39.61181640625,36.92626953125,-33.14208984375,-0.612060546875,0.202880859375,0.2265625
6.213,310,523,411,310,2.0,35.0,41.0,40.588375091552734,30.151365280151367,-21.606443405151367,-0.65673828125,0.3587646484375,0.2120361328125
6.225,310,523,410,310,2.0,35.0,41.0,44.433589935302734,25.390623092651367,-12.145995140075684,-0.6937255859375,0.448974609375,0.180908203125
6.233,310,519,407,310,2.0,35.0,41.0,46.508785247802734,21.118162155151367,-8.85009765625,-0.7445068359375,0.45947265625,0.1573486328125
6.241,310,518,410,310,2.0,35.0,41.0,44.128414154052734,17.578125,-11.047362327575684,-0.8067626953125,0.415283203125,0.1287841796875
6.249,310,509,411,310,-2.0,37.0,43.0,37.109375,15.563963890075684,-15.075682640075684,-0.8641357421875,0.36474609375,0.10009765625
6.263,308,502,407,310,-2.0,37.0,43.0,26.245115280151367,14.770506858825684,-18.06640625,-0.9197998046875,0.3212890625,0.0804443359375
6.286,309,494,405,310,-2.0,37.0,43.0,13.183592796325684,13.671874046325684,-19.22607421875,-0.9635009765625,0.263916015625,0.070556640625
6.286,310,490,401,310,-2.0,37.0,43.0,1.8310545682907104,12.145995140075684,-18.9208984375,-0.994140625,0.190673828125,0.055908203125
6.293,310,475,402,308,-2.0,37.0,43.0,-4.94384765625,10.498045921325684,-16.845703125,-1.0252685546875,0.1290283203125,0.03466796875
6.301,308,465,407,310,-2.0,37.0,43.0,-7.690429210662842,8.36181640625,-12.634276390075684,-1.0501708984375,0.093017578125,0.0238037109375
6.309,309,453,402,310,-2.0,37.0,43.0,-8.1787109375,5.737304210662842,-6.835937023162842,-1.0504150390625,0.073974609375,0.0308837890625
6.325,310,447,402,310,-2.0,37.0,43.0,-7.080077648162842,3.295898199081421,-0.54931640625,-0.989013671875,0.081787109375,0.066162109375
6.334,309,438,401,309,-2.0,37.0,43.0,-4.69970703125,1.4648436307907104,5.065917491912842,-0.989013671875,0.081787109375,0.066162109375
6.339,310,437,399,310,-2.0,37.0,43.0,-1.7700194120407104,0.0,9.21630859375,-0.961669921875,0.10546875,0.0863037109375
6.359,310,435,394,309,0.0,36.0,44.0,0.8544921278953552,-1.5258787870407104,11.718749046325684,-0.957275390625,0.1590576171875,0.09228515625
6.361,309,426,391,311,0.0,36.0,44.0,2.38037109375,-3.112792730331421,13.488768577575684,-0.957275390625,0.1590576171875,0.09228515625
6.387,309,424,391,310,0.0,36.0,44.0,2.25830078125,-4.82177734375,15.502928733825684,-0.9649658203125,0.188232421875,0.074462890625
6.387,310,419,382,310,0.0,36.0,44.0,0.7934569716453552,-6.286620616912842,17.9443359375,-0.972412109375,0.212158203125,0.0562744140625
6.391,310,414,379,310,0.0,36.0,44.0,-1.5258787870407104,-7.507323741912842,20.751951217651367,-0.972412109375,0.212158203125,0.0562744140625
6.399,309,415,377,310,0.0,36.0,44.0,-4.69970703125,-8.60595703125,24.169919967651367,-0.970703125,0.19140625,0.0711669921875
6.413,310,428,361,308,0.0,36.0,44.0,-7.995604991912842,-9.33837890625,29.174802780151367,-0.880859375,0.06689453125,0.0809326171875
6.421,310,437,360,310,0.0,36.0,44.0,-9.70458984375,-8.48388671875,37.04833984375,-0.880859375,0.06689453125,0.0809326171875
6.437,312,454,360,310,0.0,36.0,44.0,-11.657713890075684,-5.371093273162842,47.729488372802734,-0.766357421875,0.0389404296875,0.031005859375
6.443,309,508,377,310,0.0,36.0,44.0,-19.53125,-3.234863042831421,59.082027435302734,-0.310546875,-0.039794921875,0.0738525390625
6.451,309,561,411,310,1.0,38.0,45.0,-31.616209030151367,-4.638671875,67.138671875,-0.00439453125,-0.049072265625,0.1405029296875
6.462,310,587,495,310,1.0,38.0,45.0,-40.283199310302734,-6.835937023162842,66.34521484375,-0.00439453125,-0.049072265625,0.1405029296875
6.489,310,632,676,310,1.0,38.0,45.0,-19.71435546875,-24.597166061401367,31.372068405151367,0.479736328125,0.5419921875,0.592529296875
6.490,309,666,770,310,1.0,38.0,45.0,-19.71435546875,-24.597166061401367,31.372068405151367,0.548095703125,0.6744384765625,0.8021240234375
6.490,310,749,918,310,1.0,38.0,45.0,12.756346702575684,-44.006343841552734,-1.6479490995407104,0.548095703125,0.6744384765625,0.8021240234375
6.503,310,830,1105,310,1.0,38.0,45.0,21.179197311401367,-81.48192596435547,-73.79150390625,-1.591552734375,0.89208984375,0.5240478515625
6.514,310,872,1192,312,1.0,38.0,45.0,21.179197311401367,-81.48192596435547,-73.79150390625,-2.5611572265625,0.8594970703125,-0.2449951171875
6.519,309,891,1225,310,1.0,38.0,45.0,19.1650390625,-69.64111328125,-72.08251953125,-2.5611572265625,0.8594970703125,-0.2449951171875
6.533,310,912,1228,309,1.0,38.0,45.0,-30.273435592651367,11.352538108825684,-5.310058116912842,-2.21923828125,0.5604248046875,-0.6551513671875
6.542,310,902,1216,311,1.0,38.0,45.0,-30.273435592651367,11.352538108825684,-5.310058116912842,-1.716552734375,0.31396484375,-0.045654296875
6.550,310,904,1173,311,1.0,37.0,49.0,-106.75048065185547,-1.9531248807907104,18.49365234375,-1.716552734375,0.31396484375,-0.045654296875
6.564,310,902,1092,311,1.0,37.0,49.0,-130.615234375,-36.92626953125,20.01953125,-1.3900146484375,-0.47509765625,0.3427734375
6.571,312,886,1029,311,1.0,37.0,49.0,-130.615234375,-36.92626953125,20.01953125,-1.4443359375,-0.6505126953125,0.34423828125
6.579,310,873,944,311,1.0,37.0,49.0,-72.998046875,-18.61572265625,1.7089842557907104,-1.4443359375,-0.6505126953125,0.34423828125
6.601,310,840,780,311,1.0,37.0,49.0,53.039546966552734,33.3251953125,-18.00537109375,-0.970947265625,0.216796875,0.4287109375
6.601,308,833,736,310,1.0,37.0,49.0,53.039546966552734,33.3251953125,-18.00537109375,-0.746826171875,0.5220947265625,0.350341796875
6.609,311,837,698,311,1.0,37.0,49.0,77.5146484375,48.889156341552734,-19.95849609375,-0.894775390625,0.6380615234375,0.2113037109375
6.623,310,822,667,308,1.0,37.0,49.0,55.114742279052734,49.987789154052734,-16.90673828125,-1.3170166015625,0.6326904296875,0.1632080078125
6.636,310,803,654,311,1.0,37.0,49.0,31.860349655151367,25.939939498901367,-12.023924827575684,-1.5771484375,0.537353515625,0.1632080078125
6.639,310,778,636,310,1.0,37.0,49.0,31.860349655151367,25.939939498901367,-12.023924827575684,-1.4783935546875,0.4788818359375,0.1236572265625
6.653,308,751,594,310,2.0,35.0,47.0,-3.601073980331421,-1.220703125,2.25830078125,-1.1978759765625,0.4088134765625,0.088134765625
6.670,311,728,588,311,2.0,35.0,47.0,-20.568845748901367,3.112792730331421,6.896972179412842,-0.982177734375,0.25390625,0.0516357421875
6.671,310,703,582,310,2.0,35.0,47.0,-20.568845748901367,3.112792730331421,6.896972179412842,-0.88671875,0.1383056640625,0.0106201171875
6.690,310,668,572,310,2.0,35.0,47.0,-22.277830123901367,19.71435546875,8.36181640625,-0.82373046875,0.1182861328125,0.01318359375
6.692,310,650,572,310,2.0,35.0,47.0,-8.4228515625,17.333984375,3.112792730331421,-0.729248046875,0.11279296875,0.0372314453125
6.700,310,630,552,311,2.0,35.0,47.0,3.845214605331421,8.60595703125,-5.676269054412842,-0.62646484375,0.0804443359375,0.0552978515625
6.714,310,608,537,310,2.0,35.0,47.0,7.934569835662842,-1.6479490995407104,-13.183592796325684,-0.55810546875,0.009033203125,0.08642578125
6.728,309,604,543,310,2.0,35.0,47.0,8.85009765625,-7.446288585662842,-17.822265625,-0.5667724609375,-0.04296875,0.1107177734375
6.730,310,601,540,310,2.0,35.0,47.0,13.000487327575684,-6.469726085662842,-19.4091796875,-0.6474609375,0.0194091796875,0.124267578125
6.744,310,601,551,310,0.0,34.0,40.0,17.51708984375,-3.906249761581421,-16.9677734375,-0.743408203125,0.1856689453125,0.1549072265625
6.752,310,594,553,311,0.0,34.0,40.0,18.798828125,-3.662109136581421,-11.230467796325684,-0.8157958984375,0.3524169921875,0.2059326171875
6.760,310,599,552,310,0.0,34.0,40.0,17.4560546875,-4.69970703125,-6.774901866912842,-0.842529296875,0.4202880859375,0.2618408203125
6.775,310,592,551,311,0.0,34.0,40.0,15.686034202575684,-4.7607421875,-7.690429210662842,-0.8492431640625,0.402099609375,0.284912109375
6.796,310,588,546,310,0.0,34.0,40.0,14.038084983825684,-2.197265625,-12.634276390075684,-0.8779296875,0.365966796875,0.2659912109375
6.797,310,582,538,311,0.0,34.0,40.0,11.352538108825684,1.8310545682907104,-17.9443359375,-0.923583984375,0.309814453125,0.23095703125
6.804,310,566,531,310,0.0,34.0,40.0,7.507323741912842,5.432128429412842,-21.484373092651367,-0.975341796875,0.2310791015625,0.189208984375
6.812,310,559,527,310,0.0,34.0,40.0,4.0283203125,7.263183116912842,-21.789548873901367,-1.0213623046875,0.173828125,0.1474609375
6.820,310,554,522,309,0.0,34.0,40.0,2.746581792831421,7.324218273162842,-19.1650390625,-1.0479736328125,0.154296875,0.113525390625
6.836,310,543,509,310,0.0,34.0,40.0,3.967284917831421,5.981444835662842,-15.686034202575684,-1.053466796875,0.15283203125,0.091796875
6.842,310,537,508,310,2.0,36.0,45.0,5.615233898162842,3.906249761581421,-13.000487327575684,-1.0426025390625,0.1556396484375,0.0848388671875
6.850,310,531,503,310,2.0,36.0,45.0,6.713866710662842,2.0751953125,-11.474608421325684,-1.0201416015625,0.153564453125,0.0853271484375
6.871,308,522,483,310,2.0,36.0,45.0,6.774901866912842,1.0986328125,-10.559081077575684,-0.99853515625,0.1463623046875,0.0845947265625
6.872,310,518,481,310,2.0,36.0,45.0,6.164550304412842,0.6713866591453552,-9.82666015625,-0.9847412109375,0.1463623046875,0.083740234375
6.901,310,510,469,310,2.0,36.0,45.0,6.042479991912842,0.0,-8.60595703125,-0.9696044921875,0.15673828125,0.0841064453125
6.901,308,502,452,310,2.0,36.0,45.0,6.469726085662842,-1.4038084745407104,-6.713866710662842,-0.9542236328125,0.1650390625,0.08837890625
6.902,296,495,446,310,2.0,36.0,45.0,6.286620616912842,-4.0283203125,-4.150390625,-0.9468994140625,0.1649169921875,0.0982666015625
6.912,310,495,438,310,2.0,36.0,45.0,5.0048828125,-7.446288585662842,-0.54931640625,-0.94189453125,0.1632080078125,0.1053466796875
6.919,310,493,433,310,2.0,36.0,45.0,3.173827886581421,-10.681151390075684,3.662109136581421,-0.9312744140625,0.162353515625,0.1038818359375
6.939,310,494,414,310,2.0,36.0,45.0,1.0986328125,-13.305663108825684,7.873534679412842,-0.908935546875,0.15625,0.09716796875
6.941,309,495,399,309,1.0,34.0,44.0,-1.4038084745407104,-15.502928733825684,11.779784202575684,-0.872314453125,0.1507568359375,0.08935546875
6.949,309,502,387,310,1.0,34.0,44.0,-5.126952648162842,-17.63916015625,15.624999046325684,-0.823486328125,0.1533203125,0.0911865234375
6.963,310,524,367,310,1.0,34.0,44.0,-9.70458984375,-20.507810592651367,19.1650390625,-0.7510986328125,0.148193359375,0.1097412109375
6.973,310,545,354,310,1.0,34.0,44.0,-13.671874046325684,-23.925779342651367,22.155759811401367,-0.641357421875,0.1182861328125,0.1343994140625
6.979,309,554,351,310,1.0,34.0,44.0,-14.099120140075684,-26.916501998901367,24.719236373901367,-0.4962158203125,0.0914306640625,0.1497802734375
7.007,310,587,379,310,1.0,34.0,44.0,-7.690429210662842,-29.785154342651367,26.855466842651367,-0.3465576171875,0.134765625,0.1519775390625
7.007,310,592,428,310,1.0,34.0,44.0,1.6479490995407104,-34.24072265625,27.587888717651367,-0.141845703125,0.2181396484375,0.1751708984375
7.009,312,599,504,310,1.0,34.0,44.0,2.868652105331421,-38.818359375,23.376462936401367,0.088134765625,0.3419189453125,0.2569580078125
7.023,310,653,794,311,1.0,34.0,44.0,-12.084959983825684,-42.175289154052734,10.498045921325684,0.2191162109375,0.5172119140625,0.4609375
7.031,310,710,954,310,1.0,34.0,44.0,-34.7900390625,-46.203609466552734,-12.207030296325684,0.0638427734375,0.6590576171875,0.6126708984375
7.053,311,756,1082,310,4.0,31.0,47.0,-46.081539154052734,-47.607418060302734,-40.710445404052734,-0.669189453125,0.7584228515625,0.453125
7.053,310,819,1245,298,4.0,31.0,47.0,-42.724605560302734,-47.668453216552734,-61.035152435302734,-1.6285400390625,0.691162109375,0.1331787109375
7.061,310,837,1294,311,4.0,31.0,47.0,-35.58349609375,-45.471187591552734,-59.082027435302734,-2.042724609375,0.383544921875,-0.0765380859375
7.076,311,861,1323,311,4.0,31.0,47.0,-34.912109375,-34.48486328125,-38.9404296875,-1.7647705078125,0.0421142578125,-0.048583984375
7.083,310,889,1351,312,4.0,31.0,47.0,-52.001949310302734,-23.498533248901367,-12.023924827575684,-1.7559814453125,-0.5029296875,0.5601806640625
7.107,311,895,1336,312,4.0,31.0,47.0,-87.15819549560547,-26.306150436401367,20.690916061401367,-1.7559814453125,-0.5029296875,0.5601806640625
7.114,311,901,1297,310,4.0,31.0,47.0,-104.73632049560547,-35.33935546875,54.626461029052734,-2.04150390625,-0.5184326171875,0.7255859375
7.114,310,888,1228,311,4.0,31.0,47.0,-66.22314453125,-26.000974655151367,72.20458984375,-1.380859375,0.0113525390625,0.1798095703125
7.122,308,873,1173,312,4.0,31.0,47.0,2.01416015625,7.324218273162842,61.706539154052734,-1.380859375,0.0113525390625,0.1798095703125
7.129,310,859,1087,311,4.0,31.0,47.0,43.090816497802734,40.466304779052734,35.33935546875,-1.080810546875,0.276123046875,0.0955810546875
7.153,311,827,974,311,7.0,33.0,43.0,51.696773529052734,56.274410247802734,11.413573265075684,-0.9140625,0.6341552734375,0.3046875
7.154,310,819,957,310,7.0,33.0,43.0,53.466793060302734,60.302730560302734,-6.591796398162842,-0.9140625,0.6341552734375,0.3046875
7.159,310,813,939,311,7.0,33.0,43.0,55.664058685302734,61.340328216552734,-21.118162155151367,-1.009033203125,0.688232421875,0.319091796875
7.178,309,795,875,311,7.0,33.0,43.0,52.978511810302734,57.006832122802734,-30.578611373901367,-1.5469970703125,0.6446533203125,0.379150390625
7.181,310,782,796,312,7.0,33.0,43.0,45.349117279052734,42.785640716552734,-32.89794921875,-1.5469970703125,0.6446533203125,0.379150390625
7.206,311,766,730,310,7.0,33.0,43.0,35.70556640625,28.503416061401367,-29.724119186401367,-1.5428466796875,0.4879150390625,0.2093505859375
7.206,312,736,642,311,7.0,33.0,43.0,23.803709030151367,24.597166061401367,-23.925779342651367,-1.0625,0.2061767578125,-0.0186767578125
7.212,310,712,592,310,7.0,33.0,43.0,9.70458984375,26.855466842651367,-18.4326171875,-0.9161376953125,0.08544921875,0.0623779296875
7.219,310,698,566,312,7.0,33.0,43.0,0.0,28.442380905151367,-16.2353515625,-0.9161376953125,0.08544921875,0.0623779296875
7.233,310,668,522,309,7.0,33.0,43.0,11.291502952575684,34.60693359375,-14.587401390075684,-0.72607421875,-0.1593017578125,0.073974609375
7.241,310,648,497,310,3.0,33.0,45.0,11.291502952575684,34.60693359375,-14.587401390075684,-0.591064453125,-0.184814453125,0.090576171875
7.251,310,632,473,310,3.0,33.0,45.0,14.648436546325684,33.38623046875,-7.385253429412842,-0.591064453125,-0.184814453125,0.090576171875
7.263,310,616,451,310,3.0,33.0,45.0,13.305663108825684,20.690916061401367,6.530761241912842,-0.459716796875,-0.081298828125,0.138427734375
7.271,310,607,450,311,3.0,33.0,45.0,13.305663108825684,20.690916061401367,6.530761241912842,-0.5389404296875,0.069580078125,0.1546630859375
7.281,308,609,449,310,3.0,33.0,45.0,19.1650390625,19.95849609375,6.530761241912842,-0.5389404296875,0.069580078125,0.1546630859375
7.315,308,604,463,310,3.0,33.0,45.0,21.301267623901367,17.39501953125,4.2724609375,-0.7122802734375,0.3536376953125,0.2249755859375
7.316,296,605,466,310,3.0,33.0,45.0,21.301267623901367,17.39501953125,4.2724609375,-0.7718505859375,0.412841796875,0.208984375
7.316,296,608,468,310,3.0,33.0,45.0,18.49365234375,15.319823265075684,6.469726085662842,-0.7718505859375,0.412841796875,0.208984375
7.323,306,616,475,308,3.0,33.0,45.0,13.549803733825684,12.390135765075684,9.46044921875,-0.8673095703125,0.36083984375,0.154541015625
7.331,309,618,477,308,3.0,33.0,45.0,13.549803733825684,12.390135765075684,9.46044921875,-0.932861328125,0.319091796875,0.1429443359375
7.339,311,620,477,308,1.0,34.0,40.0,10.986327171325684,10.498045921325684,6.591796398162842,-0.932861328125,0.319091796875,0.1429443359375
7.353,310,622,477,310,1.0,34.0,40.0,5.798339366912842,7.141112804412842,-3.601073980331421,-0.9837646484375,0.213623046875,0.09521484375
7.366,309,622,473,310,1.0,34.0,40.0,5.798339366912842,7.141112804412842,-3.601073980331421,-0.99169921875,0.179443359375,0.069580078125
7.369,310,628,472,311,1.0,34.0,40.0,2.807616949081421,6.469726085662842,-6.042479991912842,-0.9908447265625,0.16845703125,0.06103515625
7.383,310,628,467,309,1.0,34.0,40.0,-4.94384765625,4.0283203125,-2.25830078125,-0.9820556640625,0.1639404296875,0.060791015625
7.392,310,629,467,310,1.0,34.0,40.0,-6.713866710662842,2.13623046875,0.4882812201976776,-0.97802734375,0.1563720703125,0.0694580078125
7.413,310,628,473,312,1.0,34.0,40.0,-6.713866710662842,2.13623046875,0.4882812201976776,-0.98583984375,0.1534423828125,0.0906982421875
7.413,309,621,481,307,1.0,34.0,40.0,-4.57763671875,-1.3427733182907104,4.0283203125,-0.9989013671875,0.160888671875,0.113037109375
7.421,309,622,482,309,1.0,34.0,40.0,-2.44140625,-1.0986328125,5.310058116912842,-1.0010986328125,0.1741943359375,0.12158203125
7.429,310,620,485,308,1.0,34.0,40.0,-2.44140625,-1.0986328125,5.310058116912842,-0.988525390625,0.1905517578125,0.117919921875
7.443,309,607,485,308,0.0,35.0,45.0,-1.0986328125,2.25830078125,7.385253429412842,-0.9830322265625,0.2120361328125,0.1151123046875
7.452,309,601,488,311,0.0,35.0,45.0,-2.01416015625,2.3193359375,7.995604991912842,-1.0020751953125,0.23779296875,0.1201171875
7.461,310,592,485,310,0.0,35.0,45.0,-2.01416015625,2.3193359375,7.995604991912842,-1.031982421875,0.2574462890625,0.122802734375
7.473,310,577,481,310,0.0,35.0,45.0,-3.845214605331421,0.4882812201976776,8.056640625,-1.0484619140625,0.255859375,0.1097412109375
7.485,310,566,479,309,0.0,35.0,45.0,-4.39453125,0.3662109076976776,8.1787109375,-1.0458984375,0.2332763671875,0.08740234375
7.489,308,566,470,310,0.0,35.0,45.0,-4.39453125,0.3662109076976776,8.1787109375,-1.0367431640625,0.2021484375,0.07568359375
7.517,310,538,449,310,0.0,35.0,45.0,-7.812499523162842,-1.0986328125,10.803221702575684,-1.03125,0.174072265625,0.079833984375
7.518,310,527,430,310,0.0,35.0,45.0,-9.3994140625,-2.746581792831421,13.793944358825684,-1.0281982421875,0.1544189453125,0.0870361328125
7.519,296,522,418,308,0.0,35.0,45.0,-10.986327171325684,-4.08935546875,18.5546875,-1.02099609375,0.1292724609375,0.08154296875
7.533,310,502,395,310,0.0,35.0,45.0,-13.549803733825684,-5.676269054412842,25.817869186401367,-1.013427734375,0.09033203125,0.0467529296875
7.541,310,499,384,310,1.0,37.0,44.0,-17.39501953125,-9.6435546875,36.19384765625,-1.0,0.041259765625,-0.0030517578125
7.549,310,502,378,310,1.0,37.0,44.0,-21.179197311401367,-18.06640625,49.560543060302734,-0.908447265625,-0.0306396484375,-0.037109375
7.564,310,508,394,310,1.0,37.0,44.0,-22.155759811401367,-30.456541061401367,62.683101654052734,-0.721435546875,-0.072998046875,-0.0758056640625
7.571,310,522,428,309,1.0,37.0,44.0,-23.742673873901367,-44.311519622802734,71.2890625,-0.5137939453125,0.038330078125,-0.0784912109375
7.579,309,543,488,310,1.0,37.0,44.0,-24.841306686401367,-58.166500091552734,71.044921875,-0.291748046875,0.2900390625,-0.006591796875
7.593,308,578,692,310,1.0,37.0,44.0,-15.563963890075684,-69.88525390625,58.044429779052734,-0.04150390625,0.548583984375,0.0762939453125
7.624,310,593,827,310,1.0,37.0,44.0,-0.1831054538488388,-75.5615234375,31.677244186401367,0.2591552734375,0.649658203125,0.206298828125
7.624,309,592,934,310,1.0,37.0,44.0,14.038084983825684,-71.77734375,-4.21142578125,0.5360107421875,0.541748046875,0.4034423828125
7.624,310,673,1101,311,1.0,37.0,44.0,29.724119186401367,-59.387203216552734,-38.51318359375,0.5518798828125,0.5140380859375,0.5745849609375
7.669,310,728,1191,312,1.0,37.0,44.0,33.447265625,-51.086421966552734,-58.715816497802734,0.0445556640625,0.7384033203125,0.7342529296875
7.670,310,799,1281,312,3.0,32.0,47.0,5.249022960662842,-58.715816497802734,-65.7958984375,-1.0494384765625,0.9844970703125,0.945556640625
7.670,310,858,1363,311,3.0,32.0,47.0,-38.6962890625,-70.86181640625,-59.875484466552734,-2.04931640625,0.94189453125,0.972412109375
7.670,311,875,1377,312,3.0,32.0,47.0,-62.011714935302734,-57.556148529052734,-45.166011810302734,-2.388671875,0.4593505859375,0.5164794921875
7.670,311,886,1355,312,3.0,32.0,47.0,-61.828609466552734,-17.9443359375,-40.405269622802734,-2.42578125,-0.09912109375,-0.0457763671875
7.693,310,889,1300,311,3.0,32.0,47.0,-58.410640716552734,2.685546636581421,-34.66796875,-2.3426513671875,-0.4173583984375,-0.2127685546875
7.694,311,885,1281,310,3.0,32.0,47.0,-50.781246185302734,-8.6669921875,-10.498045921325684,-2.0242919921875,-0.63037109375,-0.1646728515625
7.710,310,875,1251,312,3.0,32.0,47.0,-22.705076217651367,-12.329100608825684,13.244627952575684,-1.60205078125,-0.6383056640625,-0.1268310546875
7.714,310,847,1151,310,3.0,32.0,47.0,14.465331077575684,3.417968511581421,22.766111373901367,-1.2269287109375,-0.276123046875,0.060791015625
7.721,310,827,1078,311,3.0,32.0,47.0,36.07177734375,19.34814453125,23.559568405151367,-0.974365234375,0.2156982421875,0.4056396484375
7.729,310,816,1071,311,3.0,32.0,47.0,44.677730560302734,33.3251953125,16.66259765625,-0.86669921875,0.51513671875,0.5948486328125
7.743,309,813,1048,311,1.0,33.0,48.0,50.048824310302734,52.001949310302734,4.150390625,-0.978759765625,0.6614990234375,0.539794921875
7.751,310,802,1017,311,1.0,33.0,48.0,44.616695404052734,64.453125,-1.7089842557907104,-1.29833984375,0.7196044921875,0.480224609375
7.923,311,782,959,311,1.0,33.0,48.0,25.390623092651367,58.654781341552734,6.042479991912842,-1.538818359375,0.6312255859375,0.4337158203125
7.927,308,764,806,310,1.0,33.0,48.0,3.845214605331421,43.945308685302734,19.95849609375,-1.4637451171875,0.4942626953125,0.2821044921875
7.927,310,749,713,311,1.0,33.0,48.0,-12.817381858825684,33.3251953125,32.958984375,-1.17724609375,0.370361328125,0.0943603515625
7.928,310,726,646,310,1.0,33.0,48.0,-27.709959030151367,28.381345748901367,42.663570404052734,-0.925048828125,0.2283935546875,-0.0181884765625
7.928,310,694,592,308,1.0,33.0,48.0,-38.39111328125,28.137205123901367,44.921871185302734,-0.803466796875,0.126220703125,0.0081787109375
7.928,308,666,585,311,1.0,33.0,48.0,-32.470703125,31.616209030151367,35.70556640625,-0.7606201171875,0.1402587890625,0.12939453125
7.929,310,633,551,310,1.0,33.0,48.0,13.671874046325684,38.0859375,-1.7089842557907104,-0.5780029296875,0.154052734375,0.285888671875
7.929,310,617,543,310,0.0,38.0,45.0,13.671874046325684,38.0859375,-1.7089842557907104,-0.526611328125,0.059326171875,0.2032470703125
7.929,308,607,535,310,0.0,38.0,45.0,28.808591842651367,43.090816497802734,-18.310546875,-0.526611328125,0.059326171875,0.2032470703125
7.929,312,605,535,310,0.0,38.0,45.0,34.7900390625,49.682613372802734,-28.259275436401367,-0.5833740234375,0.0439453125,0.1083984375
7.929,310,592,540,310,0.0,38.0,45.0,32.40966796875,50.903316497802734,-28.991697311401367,-0.7176513671875,0.20458984375,0.12158203125
7.930,308,579,543,311,0.0,38.0,45.0,26.733396530151367,45.471187591552734,-22.216794967651367,-0.7176513671875,0.20458984375,0.12158203125
7.930,311,578,543,310,0.0,38.0,45.0,24.719236373901367,38.0859375,-11.840819358825684,-0.7479248046875,0.3001708984375,0.1298828125
7.930,310,575,537,310,0.0,38.0,45.0,27.954099655151367,31.860349655151367,-3.479003667831421,-0.8172607421875,0.4234619140625,0.09326171875
7.930,310,573,537,310,0.0,38.0,45.0,31.311033248901367,26.428220748901367,-1.9531248807907104,-0.8172607421875,0.4234619140625,0.09326171875
7.930,310,564,525,309,0.0,38.0,45.0,29.785154342651367,20.751951217651367,-6.164550304412842,-0.87060546875,0.425048828125,0.1124267578125
7.930,310,554,496,310,0.0,38.0,45.0,24.597166061401367,15.869139671325684,-11.840819358825684,-0.9664306640625,0.3267822265625,0.130615234375
7.931,310,548,484,308,0.0,38.0,45.0,18.49365234375,13.610838890075684,-15.380858421325684,-0.9664306640625,0.3267822265625,0.130615234375
7.939,310,538,479,310,0.0,36.0,45.0,12.207030296325684,13.305663108825684,-15.930174827575684,-0.996337890625,0.2701416015625,0.106201171875
7.953,309,523,465,310,0.0,36.0,45.0,6.042479991912842,12.756346702575684,-14.587401390075684,-1.028564453125,0.1717529296875,0.06005859375
8.101,309,509,452,310,0.0,36.0,45.0,1.8920897245407104,11.291502952575684,-12.573241233825684,-1.028564453125,0.1717529296875,0.06005859375
8.102,310,497,452,308,0.0,36.0,45.0,0.4272460639476776,9.46044921875,-10.070799827575684,-1.0340576171875,0.1575927734375,0.037109375
8.102,310,477,444,310,0.0,36.0,45.0,2.3193359375,6.225585460662842,-4.21142578125,-1.0234375,0.1749267578125,0.0274658203125
8.102,309,469,438,308,0.0,36.0,45.0,2.3193359375,6.225585460662842,-4.21142578125,-1.011474609375,0.17919921875,0.0406494140625
8.102,310,454,433,310,0.0,36.0,45.0,3.662109136581421,5.371093273162842,-1.4648436307907104,-1.011474609375,0.17919921875,0.0406494140625
8.102,310,437,426,310,0.0,36.0,45.0,4.57763671875,5.859374523162842,4.150390625,-0.9637451171875,0.1748046875,0.0406494140625
8.103,308,433,411,309,0.0,36.0,45.0,4.57763671875,5.859374523162842,4.150390625,-0.9498291015625,0.186767578125,0.0341796875
8.103,310,423,407,310,0.0,36.0,45.0,2.868652105331421,6.652831554412842,7.995604991912842,-0.9498291015625,0.186767578125,0.0341796875
8.103,310,411,391,310,0.0,37.0,47.0,-2.50244140625,5.432128429412842,17.4560546875,-0.9410400390625,0.21875,0.0677490234375
8.103,308,408,383,310,0.0,37.0,47.0,-2.50244140625,5.432128429412842,17.4560546875,-0.93310546875,0.23193359375,0.085693359375
8.103,310,399,377,309,0.0,37.0,47.0,-4.8828125,3.906249761581421,21.545408248901367,-0.93310546875,0.23193359375,0.085693359375
8.103,308,391,367,309,0.0,37.0,47.0,-10.803221702575684,0.9765624403953552,28.808591842651367,-0.9107666015625,0.23388671875,0.0902099609375
8.103,309,391,364,310,0.0,37.0,47.0,-10.803221702575684,0.9765624403953552,28.808591842651367,-0.886962890625,0.2183837890625,0.077880859375
8.103,310,391,360,310,0.0,37.0,47.0,-14.709471702575684,0.0610351525247097,33.203125,-0.886962890625,0.2183837890625,0.077880859375
8.103,310,402,360,310,0.0,37.0,47.0,-21.301267623901367,-1.15966796875,44.738765716552734,-0.7198486328125,0.1109619140625,0.0208740234375
8.133,310,417,367,310,0.0,37.0,47.0,-21.301267623901367,-1.15966796875,44.738765716552734,-0.564453125,0.066650390625,-0.0181884765625
8.133,310,437,382,306,0.0,37.0,47.0,-24.291990280151367,-4.21142578125,50.292964935302734,-0.564453125,0.066650390625,-0.0181884765625
8.134,310,495,561,294,0.0,39.0,45.0,-42.663570404052734,-18.12744140625,53.161617279052734,-0.141845703125,0.207275390625,-0.2178955078125
8.141,310,502,726,311,0.0,39.0,45.0,-50.354000091552734,-25.390623092651367,41.809078216552734,0.12890625,0.5806884765625,-0.3819580078125
8.284,310,518,859,311,0.0,39.0,45.0,-50.354000091552734,-25.390623092651367,41.809078216552734,0.4781494140625,0.88330078125,-0.257080078125
8.284,308,564,987,310,0.0,39.0,45.0,-59.143062591552734,-51.940914154052734,-13.000487327575684,0.5380859375,0.9085693359375,0.088623046875
8.284,310,601,1043,312,0.0,39.0,45.0,-55.297847747802734,-63.598628997802734,-39.794921875,-0.001708984375,1.082275390625,0.4713134765625
8.284,310,653,1108,311,0.0,39.0,45.0,-55.297847747802734,-63.598628997802734,-39.794921875,-0.8656005859375,1.30908203125,0.93017578125
8.285,310,758,1273,312,0.0,39.0,45.0,-97.59520721435547,-96.25243377685547,-36.07177734375,-1.637939453125,1.0228271484375,1.4462890625
8.285,310,813,1300,311,0.0,39.0,45.0,-117.79784393310547,-111.99950408935547,-30.517576217651367,-2.0218505859375,0.2044677734375,1.6875
8.285,311,837,1255,311,0.0,39.0,45.0,-117.79784393310547,-111.99950408935547,-30.517576217651367,-2.09326171875,-0.431884765625,1.2706298828125
8.285,310,846,1198,311,0.0,39.0,45.0,-90.94237518310547,-57.861324310302734,-68.7255859375,-2.1669921875,-0.5731201171875,0.3785400390625
8.285,310,858,1182,312,5.0,36.0,39.0,-66.83349609375,1.4648436307907104,-54.321285247802734,-2.21826171875,-0.594970703125,-0.4791259765625
8.285,309,856,1173,311,5.0,36.0,39.0,-66.83349609375,1.4648436307907104,-54.321285247802734,-2.076171875,-0.6610107421875,-0.873779296875
8.285,311,834,1117,311,5.0,36.0,39.0,4.57763671875,67.626953125,8.9111328125,-1.77880859375,-0.562255859375,-0.692138671875
8.285,310,813,1035,311,5.0,36.0,39.0,45.715328216552734,60.913082122802734,20.202634811401367,-1.43798828125,-0.180419921875,-0.201904296875
8.285,310,779,969,310,5.0,36.0,39.0,45.715328216552734,60.913082122802734,20.202634811401367,-1.1201171875,0.2701416015625,0.2757568359375
8.285,310,778,943,310,5.0,36.0,39.0,97.16796112060547,37.41455078125,14.343260765075684,-0.9444580078125,0.5709228515625,0.56689453125
8.292,310,762,928,310,5.0,36.0,39.0,105.46874237060547,41.076656341552734,2.868652105331421,-1.072509765625,0.7674560546875,0.6915283203125
8.305,310,745,895,311,5.0,36.0,39.0,95.27587127685547,45.410152435302734,-2.746581792831421,-1.340576171875,0.88330078125,0.6671142578125
8.313,310,717,794,309,5.0,36.0,39.0,68.9697265625,43.884273529052734,-0.9765624403953552,-1.3887939453125,0.83251953125,0.4346923828125
8.336,310,698,716,311,5.0,36.0,39.0,36.68212890625,40.588375091552734,2.50244140625,-1.16845703125,0.576416015625,0.1561279296875
8.336,310,689,618,310,1.0,37.0,45.0,7.568358898162842,33.5693359375,6.042479991912842,-0.9114990234375,0.214111328125,0.025390625
8.343,310,658,523,311,1.0,37.0,45.0,-7.507323741912842,25.512693405151367,10.314940452575684,-0.7564697265625,-0.031494140625,-0.0260009765625
8.354,310,640,469,310,1.0,37.0,45.0,-0.9765624403953552,27.099607467651367,12.634276390075684,-0.6806640625,-0.0467529296875,-0.116455078125
8.359,310,628,447,310,1.0,37.0,45.0,21.789548873901367,38.02490234375,8.6669921875,-0.6209716796875,0.0599365234375,-0.216064453125
8.376,310,604,420,310,1.0,37.0,45.0,45.532222747802734,47.912593841552734,-2.50244140625,-0.5760498046875,0.1705322265625,-0.20654296875
8.382,310,592,419,310,1.0,37.0,45.0,57.983394622802734,47.973628997802734,-16.2353515625,-0.5771484375,0.248291015625,-0.0318603515625
8.389,309,589,417,310,1.0,37.0,45.0,57.189937591552734,38.4521484375,-25.207517623901367,-0.5960693359375,0.2664794921875,0.1878662109375
8.407,309,587,426,308,1.0,37.0,45.0,49.926753997802734,29.724119186401367,-27.160642623901367,-0.6239013671875,0.2606201171875,0.2811279296875
8.411,310,584,428,312,1.0,37.0,45.0,42.541500091552734,28.259275436401367,-23.132322311401367,-0.6776123046875,0.300048828125,0.2159423828125
8.438,309,580,435,310,1.0,37.0,45.0,35.400390625,30.029294967651367,-15.014647483825684,-0.743408203125,0.3826904296875,0.1011962890625
8.438,310,579,438,310,3.0,37.0,45.0,26.306150436401367,28.320310592651367,-7.385253429412842,-0.7847900390625,0.4241943359375,0.0478515625
8.441,310,583,441,310,3.0,37.0,45.0,15.930174827575684,21.728513717651367,-4.638671875,-0.80224609375,0.38623046875,0.065185546875
8.449,310,582,447,310,3.0,37.0,45.0,7.812499523162842,14.099120140075684,-7.080077648162842,-0.836669921875,0.3255615234375,0.1043701171875
8.466,310,587,451,310,3.0,37.0,45.0,4.150390625,8.72802734375,-11.108397483825684,-0.8980712890625,0.2916259765625,0.125
8.471,308,590,452,310,3.0,37.0,45.0,3.601073980331421,6.652831554412842,-13.610838890075684,-0.9483642578125,0.2735595703125,0.1114501953125
8.480,310,588,452,310,3.0,37.0,45.0,2.807616949081421,7.446288585662842,-13.610838890075684,-0.9757080078125,0.2520751953125,0.0789794921875
8.494,308,582,456,310,3.0,37.0,45.0,-0.1831054538488388,8.9111328125,-11.718749046325684,-1.000244140625,0.220703125,0.0526123046875
8.501,310,578,465,309,3.0,37.0,45.0,-4.8828125,9.46044921875,-8.72802734375,-1.0186767578125,0.177490234375,0.0382080078125
8.510,309,572,469,310,3.0,37.0,45.0,-8.056640625,9.46044921875,-5.0048828125,-1.0281982421875,0.142333984375,0.0244140625
8.523,310,562,473,310,3.0,37.0,45.0,-8.11767578125,9.1552734375,-0.4272460639476776,-1.0352783203125,0.139892578125,0.0128173828125
8.541,308,558,476,310,2.0,39.0,44.0,-7.019042491912842,7.751464366912842,4.8828125,-1.0299072265625,0.1641845703125,0.0164794921875
8.541,310,548,481,310,2.0,39.0,44.0,-5.737304210662842,5.615233898162842,9.6435546875,-1.0128173828125,0.18896484375,0.0308837890625
8.553,310,533,479,310,2.0,39.0,44.0,-4.0283203125,3.540038824081421,12.695311546325684,-0.99951171875,0.198486328125,0.0389404296875
8.561,310,527,481,310,2.0,39.0,44.0,-2.746581792831421,1.8310545682907104,14.892577171325684,-0.9981689453125,0.2012939453125,0.03369140625
8.569,310,519,475,310,2.0,39.0,44.0,-3.112792730331421,-0.1220703050494194,17.578125,-1.0076904296875,0.204833984375,0.0286865234375
8.586,309,498,465,310,2.0,39.0,44.0,-4.7607421875,-2.807616949081421,21.118162155151367,-1.0281982421875,0.2083740234375,0.0311279296875
8.592,309,493,449,308,2.0,39.0,44.0,-6.713866710662842,-6.042479991912842,25.451658248901367,-1.0477294921875,0.2138671875,0.0264892578125
8.600,309,475,441,310,2.0,39.0,44.0,-7.934569835662842,-9.521484375,30.334470748901367,-1.0504150390625,0.2183837890625,0.00048828125
8.613,310,449,423,310,2.0,39.0,44.0,-8.6669921875,-13.183592796325684,36.1328125,-1.0396728515625,0.207275390625,-0.07568359375
8.645,310,434,410,310,2.0,39.0,44.0,-10.131834983825684,-17.51708984375,43.884273529052734,-1.0396728515625,0.207275390625,-0.07568359375
8.646,311,439,386,308,1.0,38.0,42.0,-13.977049827575684,-23.010251998901367,54.748531341552734,-1.0101318359375,0.1568603515625,-0.076171875
8.646,310,467,382,310,1.0,38.0,42.0,-17.578125,-29.357908248901367,67.44384765625,-0.726806640625,-0.0576171875,-0.113525390625
8.652,310,485,373,310,1.0,38.0,42.0,-17.578125,-35.58349609375,77.94189453125,-0.726806640625,-0.0576171875,-0.113525390625
8.661,310,512,360,310,1.0,38.0,42.0,-18.85986328125,-41.748043060302734,83.98436737060547,-0.4815673828125,-0.0423583984375,-0.1529541015625
8.674,310,549,415,310,1.0,38.0,42.0,-24.353025436401367,-49.133296966552734,83.12987518310547,-0.0595703125,0.4700927734375,-0.079345703125
8.691,310,562,469,309,1.0,38.0,42.0,-24.536130905151367,-56.091304779052734,70.4345703125,-0.0595703125,0.4700927734375,-0.079345703125
8.691,308,572,572,311,1.0,38.0,42.0,-18.12744140625,-63.598628997802734,44.677730560302734,0.0357666015625,1.0390625,0.0987548828125
8.703,310,606,750,310,1.0,38.0,42.0,-16.11328125,-70.068359375,5.615233898162842,0.291015625,0.9010009765625,0.4686279296875
8.714,310,621,816,310,1.0,38.0,42.0,-13.549803733825684,-62.011714935302734,-39.4287109375,0.291015625,0.9010009765625,0.4686279296875
8.719,310,661,865,311,1.0,38.0,42.0,-10.498045921325684,-41.564937591552734,-65.85693359375,0.1136474609375,0.709228515625,0.4906005859375
8.739,309,766,1056,311,0.0,34.0,40.0,-21.911619186401367,-28.259275436401367,-65.73486328125,-1.2159423828125,0.9151611328125,0.66748046875
8.752,310,827,1139,311,0.0,34.0,40.0,-43.640132904052734,-27.770994186401367,-59.692378997802734,-1.885986328125,0.766845703125,0.7100830078125
8.752,310,862,1175,310,0.0,34.0,40.0,-68.7255859375,-39.85595703125,-54.382320404052734,-1.885986328125,0.766845703125,0.7100830078125
8.763,310,861,1155,308,0.0,34.0,40.0,-130.92041015625,-60.485836029052734,-50.903316497802734,-2.1656494140625,-0.2650146484375,0.18701171875
8.771,310,861,1125,311,0.0,34.0,40.0,-130.92041015625,-60.485836029052734,-50.903316497802734,-2.23779296875,-0.4630126953125,0.08447265625
8.783,310,868,1088,310,0.0,34.0,40.0,-122.25341033935547,-54.870601654052734,-40.405269622802734,-2.23779296875,-0.4630126953125,0.08447265625
8.794,310,867,1025,311,0.0,34.0,40.0,-1.8310545682907104,-2.01416015625,8.30078125,-1.7520751953125,-0.703857421875,-0.0609130859375
8.805,310,854,955,311,0.0,34.0,40.0,-1.8310545682907104,-2.01416015625,8.30078125,-1.427978515625,-0.4544677734375,0.11181640625
