time,compression0,compression1,compression2,compression3,magn_x,magn_y,magn_z,gyro_x,gyro_y,gyro_z,accel_x,accel_y,accel_z
0.000,309,387,441,310,-20.0,47.0,30.0,-6.286620616912842,-6.713866710662842,1.4038084745407104,-0.665283203125,0.61083984375,-0.376220703125
0.001,310,374,437,310,-20.0,47.0,30.0,-5.859374523162842,-5.859374523162842,1.0986328125,-0.6624755859375,0.621337890625,-0.38427734375
0.010,310,387,440,311,-20.0,47.0,30.0,-4.7607421875,-4.7607421875,0.9155272841453552,-0.6632080078125,0.6292724609375,-0.39404296875
0.023,309,394,441,311,-20.0,47.0,30.0,-3.967284917831421,-3.906249761581421,0.7934569716453552,-0.665771484375,0.6307373046875,-0.3963623046875
0.041,310,391,441,310,-20.0,47.0,30.0,-3.417968511581421,-3.234863042831421,0.6713866591453552,-0.669189453125,0.6259765625,-0.392822265625
0.041,296,391,441,309,-20.0,47.0,30.0,-2.868652105331421,-2.807616949081421,0.4882812201976776,-0.6729736328125,0.61865234375,-0.390380859375
0.054,309,393,446,310,-20.0,47.0,30.0,-2.13623046875,-2.50244140625,0.4272460639476776,-0.6754150390625,0.6123046875,-0.3900146484375
0.061,310,393,447,310,-20.0,47.0,30.0,-1.3427733182907104,-2.563476324081421,0.4882812201976776,-0.6759033203125,0.6107177734375,-0.390869140625
0.087,307,391,444,310,-20.0,47.0,30.0,-0.3662109076976776,-2.868652105331421,0.6713866591453552,-0.6741943359375,0.61474609375,-0.391357421875
0.087,308,394,444,310,-16.0,48.0,30.0,1.03759765625,-3.234863042831421,0.8544921278953552,-0.6678466796875,0.617919921875,-0.3880615234375
0.093,308,396,447,310,-16.0,48.0,30.0,2.50244140625,-3.601073980331421,0.7934569716453552,-0.6602783203125,0.6163330078125,-0.383056640625
0.155,309,396,449,310,-16.0,48.0,30.0,3.540038824081421,-3.845214605331421,0.6103515625,-0.6566162109375,0.6141357421875,-0.382568359375
0.157,310,395,450,310,-16.0,48.0,30.0,3.662109136581421,-3.906249761581421,0.6713866591453552,-0.658447265625,0.615478515625,-0.3861083984375
0.158,310,396,450,310,-16.0,48.0,30.0,3.112792730331421,-3.845214605331421,0.9155272841453552,-0.664794921875,0.619873046875,-0.39013671875
0.158,315,383,452,308,-16.0,48.0,30.0,2.746581792831421,-3.662109136581421,0.9765624403953552,-0.673095703125,0.6236572265625,-0.393798828125
0.158,295,396,452,310,-16.0,48.0,30.0,2.807616949081421,-3.540038824081421,0.7324218153953552,-0.6778564453125,0.6236572265625,-0.3973388671875
0.158,308,396,452,310,-16.0,48.0,30.0,2.685546636581421,-3.662109136581421,0.30517578125,-0.6751708984375,0.6207275390625,-0.4005126953125
0.160,308,396,453,310,-16.0,48.0,30.0,1.9531248807907104,-4.2724609375,-0.1831054538488388,-0.67041015625,0.619140625,-0.4012451171875
0.179,308,396,453,310,-16.0,48.0,30.0,0.9765624403953552,-5.065917491912842,-0.54931640625,-0.6689453125,0.6214599609375,-0.4000244140625
0.182,308,394,453,311,-17.0,49.0,29.0,0.6103515625,-6.042479991912842,-1.0986328125,-0.67041015625,0.6263427734375,-0.4019775390625
0.195,308,394,452,310,-17.0,49.0,29.0,0.6103515625,-7.202147960662842,-2.01416015625,-0.6732177734375,0.6298828125,-0.4083251953125
0.203,308,394,452,311,-17.0,49.0,29.0,0.3662109076976776,-8.60595703125,-3.112792730331421,-0.673583984375,0.6307373046875,-0.4144287109375
0.233,310,393,454,310,-17.0,49.0,29.0,-0.1220703050494194,-10.314940452575684,-4.2724609375,-0.6708984375,0.631103515625,-0.4173583984375
0.249,309,395,450,310,-17.0,49.0,29.0,-0.9155272841453552,-12.084959983825684,-5.432128429412842,-0.6683349609375,0.631591796875,-0.4195556640625
0.250,310,380,446,310,-17.0,49.0,29.0,-2.0751953125,-13.671874046325684,-6.530761241912842,-0.6683349609375,0.630859375,-0.4222412109375
0.250,310,381,430,310,-17.0,49.0,29.0,-3.967284917831421,-15.197752952575684,-7.385253429412842,-0.672607421875,0.630859375,-0.4227294921875
0.256,308,394,430,299,-17.0,49.0,29.0,-6.225585460662842,-16.845703125,-8.11767578125,-0.680419921875,0.6328125,-0.41748046875
0.263,309,394,438,311,-17.0,49.0,29.0,-8.1787109375,-18.5546875,-9.1552734375,-0.68896484375,0.6351318359375,-0.4080810546875
0.271,310,393,437,311,-17.0,49.0,29.0,-9.21630859375,-20.324705123901367,-10.498045921325684,-0.6962890625,0.6358642578125,-0.3966064453125
0.286,309,391,435,311,-19.0,47.0,32.0,-9.46044921875,-21.911619186401367,-12.023924827575684,-0.702392578125,0.632080078125,-0.38623046875
0.293,308,387,432,310,-19.0,47.0,32.0,-9.46044921875,-23.437498092651367,-13.610838890075684,-0.70849609375,0.6103515625,-0.3701171875
0.301,310,386,433,311,-19.0,47.0,32.0,-9.21630859375,-25.024412155151367,-15.075682640075684,-0.70849609375,0.6103515625,-0.3701171875
0.310,310,386,433,312,-19.0,47.0,32.0,-8.23974609375,-26.794431686401367,-16.54052734375,-0.7081298828125,0.6005859375,-0.3616943359375
0.350,310,387,427,310,-19.0,47.0,32.0,-6.835937023162842,-28.808591842651367,-18.06640625,-0.709716796875,0.5972900390625,-0.3360595703125
0.350,310,391,413,296,-19.0,47.0,32.0,-5.310058116912842,-30.822751998901367,-19.83642578125,-0.709716796875,0.5972900390625,-0.3360595703125
0.350,289,373,423,309,-19.0,47.0,32.0,-3.906249761581421,-32.8369140625,-21.789548873901367,-0.7100830078125,0.596435546875,-0.333251953125
0.354,310,387,420,312,-19.0,47.0,32.0,-2.563476324081421,-34.60693359375,-23.681638717651367,-0.706298828125,0.601318359375,-0.3492431640625
0.361,309,387,417,311,-19.0,47.0,32.0,-1.5258787870407104,-36.07177734375,-25.024412155151367,-0.706298828125,0.601318359375,-0.3492431640625
0.370,310,387,414,312,-19.0,47.0,32.0,-1.3427733182907104,-37.29248046875,-25.634763717651367,-0.7039794921875,0.60400390625,-0.361083984375
0.384,309,391,411,310,-17.0,48.0,36.0,-2.807616949081421,-38.0859375,-25.634763717651367,-0.7216796875,0.6282958984375,-0.3443603515625
0.395,309,388,408,311,-17.0,48.0,36.0,-5.187987804412842,-38.57421875,-25.451658248901367,-0.7216796875,0.6282958984375,-0.3443603515625
0.399,310,388,409,310,-17.0,48.0,36.0,-6.958007335662842,-38.6962890625,-25.878904342651367,-0.738525390625,0.6334228515625,-0.3226318359375
0.414,308,387,408,310,-17.0,48.0,36.0,-7.019042491912842,-38.39111328125,-26.733396530151367,-0.756591796875,0.58740234375,-0.2928466796875
0.422,310,386,407,310,-17.0,48.0,36.0,-5.859374523162842,-37.841796875,-27.404783248901367,-0.756591796875,0.58740234375,-0.2928466796875
0.429,308,386,402,310,-17.0,48.0,36.0,-4.638671875,-37.2314453125,-27.526853561401367,-0.75341796875,0.5556640625,-0.2857666015625
0.454,310,386,401,311,-17.0,48.0,36.0,-2.685546636581421,-36.92626953125,-25.451658248901367,-0.74609375,0.5301513671875,-0.273681640625
0.455,310,385,401,311,-17.0,48.0,36.0,-2.685546636581421,-36.92626953125,-25.451658248901367,-0.7506103515625,0.5357666015625,-0.2685546875
0.460,309,387,401,310,-17.0,48.0,36.0,-1.9531248807907104,-36.80419921875,-23.559568405151367,-0.7506103515625,0.5357666015625,-0.2685546875
0.473,310,386,400,310,-17.0,48.0,36.0,-0.6103515625,-35.46142578125,-19.47021484375,-0.7677001953125,0.5467529296875,-0.267333984375
0.481,309,386,399,310,-12.0,46.0,34.0,-0.6103515625,-35.46142578125,-19.47021484375,-0.7764892578125,0.5472412109375,-0.2662353515625
0.492,310,384,396,310,-12.0,46.0,34.0,-0.30517578125,-34.423828125,-17.578125,-0.7764892578125,0.5472412109375,-0.2662353515625
0.504,309,382,393,311,-12.0,46.0,34.0,-1.5258787870407104,-32.40966796875,-14.709471702575684,-0.7821044921875,0.5626220703125,-0.258056640625
0.512,310,380,394,310,-12.0,46.0,34.0,-1.5258787870407104,-32.40966796875,-14.709471702575684,-0.7843017578125,0.564697265625,-0.2518310546875
0.520,308,379,394,310,-12.0,46.0,34.0,-2.685546636581421,-31.677244186401367,-13.854979515075684,-0.7843017578125,0.564697265625,-0.2518310546875
0.534,309,377,394,309,-12.0,46.0,34.0,-1.8920897245407104,-30.029294967651367,-12.207030296325684,-0.80029296875,0.554931640625,-0.249755859375
0.554,309,373,393,310,-12.0,46.0,34.0,-1.8920897245407104,-30.029294967651367,-12.207030296325684,-0.8016357421875,0.5496826171875,-0.25048828125
0.555,309,360,379,310,-12.0,46.0,34.0,0.1831054538488388,-28.991697311401367,-10.864256858825684,-0.8016357421875,0.5496826171875,-0.25048828125
0.566,308,371,387,311,-12.0,46.0,34.0,2.990722417831421,-27.282712936401367,-6.713866710662842,-0.798095703125,0.53564453125,-0.246337890625
0.571,308,371,387,311,-12.0,46.0,34.0,2.990722417831421,-27.282712936401367,-6.713866710662842,-0.7921142578125,0.52294921875,-0.24267578125
0.580,308,371,391,310,-14.0,43.0,32.0,3.051757574081421,-26.245115280151367,-3.845214605331421,-0.7781982421875,0.5050048828125,-0.2357177734375
0.596,308,371,387,310,-14.0,43.0,32.0,-0.54931640625,-23.681638717651367,3.295898199081421,-0.755126953125,0.48583984375,-0.21875
0.604,309,372,386,310,-14.0,43.0,32.0,-4.08935546875,-22.583005905151367,7.446288585662842,-0.728515625,0.469970703125,-0.196533203125
0.609,310,372,387,309,-14.0,43.0,32.0,-4.08935546875,-22.583005905151367,7.446288585662842,-0.705810546875,0.457275390625,-0.1785888671875
0.623,310,372,384,310,-14.0,43.0,32.0,-11.352538108825684,-21.240232467651367,15.441893577575684,-0.6829833984375,0.4398193359375,-0.1651611328125
0.656,310,385,381,310,-14.0,43.0,32.0,-15.441893577575684,-21.484373092651367,18.98193359375,-0.6351318359375,0.4119873046875,-0.1512451171875
0.662,310,399,379,311,-14.0,43.0,32.0,-15.441893577575684,-21.484373092651367,18.98193359375,-0.5181884765625,0.3372802734375,-0.1343994140625
0.670,308,447,369,310,-14.0,43.0,32.0,-31.311033248901367,-28.991697311401367,22.888181686401367,-0.3250732421875,0.2039794921875,-0.0709228515625
0.675,308,451,356,312,-14.0,43.0,32.0,-52.368160247802734,-37.65869140625,23.681638717651367,-0.113525390625,0.130615234375,0.0943603515625
0.688,310,483,410,310,-14.0,43.0,32.0,-52.368160247802734,-37.65869140625,23.681638717651367,0.158203125,0.1761474609375,0.3216552734375
0.688,309,572,454,312,-12.0,45.0,41.0,-55.847164154052734,-50.476070404052734,14.770506858825684,0.505615234375,0.239501953125,0.546142578125
0.691,310,673,476,312,-12.0,45.0,41.0,5.554198741912842,-60.485836029052734,-20.874021530151367,0.833984375,0.2864990234375,0.6300048828125
0.699,308,805,564,312,-12.0,45.0,41.0,5.554198741912842,-60.485836029052734,-20.874021530151367,0.7303466796875,0.4925537109375,0.182861328125
0.714,310,920,606,313,-12.0,45.0,41.0,102.78319549560547,-108.82567596435547,-153.01513671875,0.150634765625,0.892578125,-0.5367431640625
0.721,308,976,614,314,-12.0,45.0,41.0,26.855466842651367,-125.79344940185547,-192.50486755371094,-0.919677734375,1.241455078125,-1.1943359375
0.736,310,1081,676,313,-12.0,45.0,41.0,26.855466842651367,-125.79344940185547,-192.50486755371094,-2.3602294921875,1.638916015625,-1.6064453125
0.760,308,1245,756,312,-12.0,45.0,41.0,-86.42577362060547,-70.556640625,-116.02782440185547,-3.1090087890625,1.8148193359375,-1.1790771484375
0.760,309,1280,775,314,-12.0,45.0,41.0,-151.79443359375,-59.631343841552734,-61.279293060302734,-3.0042724609375,1.0728759765625,-0.1407470703125
0.760,309,1266,801,314,-12.0,45.0,41.0,-209.22850036621094,-51.269527435302734,-22.888181686401367,-2.5894775390625,-0.1849365234375,0.65625
0.774,309,1318,796,312,-12.0,45.0,41.0,-175.17088317871094,-34.0576171875,0.2441406100988388,-1.8768310546875,-1.0283203125,0.869384765625
0.788,310,1306,797,312,-6.0,41.0,38.0,-66.46728515625,-23.010251998901367,7.690429210662842,-1.1331787109375,-0.9246826171875,0.7281494140625
0.790,311,1268,780,314,-6.0,41.0,38.0,32.40966796875,-24.963376998901367,8.1787109375,-0.7890625,-0.07666015625,0.3857421875
0.803,310,1160,732,313,-6.0,41.0,38.0,78.67431640625,-26.428220748901367,7.019042491912842,-0.780029296875,0.71240234375,-0.0528564453125
0.817,310,1153,732,312,-6.0,41.0,38.0,77.7587890625,-14.465331077575684,-1.4038084745407104,-0.8900146484375,1.012451171875,-0.3604736328125
0.820,308,1162,739,313,-6.0,41.0,38.0,48.767086029052734,5.676269054412842,-14.526366233825684,-1.0894775390625,1.018798828125,-0.4058837890625
0.839,307,1108,712,312,-6.0,41.0,38.0,9.3994140625,20.263669967651367,-19.59228515625,-1.49072265625,1.0726318359375,-0.300048828125
0.842,310,1054,700,314,-6.0,41.0,38.0,-26.855466842651367,27.282712936401367,-6.286620616912842,-1.8914794921875,1.16552734375,-0.2659912109375
0.851,310,1001,691,312,-6.0,41.0,38.0,-54.565425872802734,34.1796875,20.080564498901367,-1.9552001953125,1.0723876953125,-0.2349853515625
0.864,308,923,664,312,-6.0,41.0,38.0,-69.64111328125,40.283199310302734,45.227046966552734,-1.67041015625,0.774169921875,-0.0382080078125
0.872,310,877,649,314,-6.0,41.0,38.0,-63.415523529052734,42.541500091552734,58.715816497802734,-1.263427734375,0.43701171875,0.168701171875
0.879,308,830,634,312,-6.0,41.0,38.0,-37.109375,41.809078216552734,58.166500091552734,-0.9434814453125,0.1953125,0.2470703125
0.893,310,726,603,313,-6.0,41.0,38.0,-6.103515148162842,37.41455078125,48.645015716552734,-0.7454833984375,0.032958984375,0.2659912109375
0.909,310,662,563,314,-6.0,41.0,38.0,19.287109375,29.174802780151367,36.80419921875,-0.580078125,-0.0811767578125,0.240966796875
0.912,296,608,529,314,-6.0,41.0,38.0,39.306640625,21.240232467651367,25.512693405151367,-0.422119140625,-0.1392822265625,0.1124267578125
0.923,308,532,444,312,-6.0,41.0,38.0,54.809566497802734,16.66259765625,12.695311546325684,-0.339111328125,-0.15576171875,-0.0751953125
0.932,308,496,430,312,-6.0,41.0,38.0,63.842769622802734,13.793944358825684,-2.807616949081421,-0.339599609375,-0.062744140625,-0.18701171875
0.960,310,473,411,314,-6.0,41.0,38.0,66.0400390625,10.864256858825684,-16.11328125,-0.416259765625,0.2042236328125,-0.185546875
0.965,308,436,408,298,-6.0,41.0,38.0,65.4296875,9.58251953125,-22.155759811401367,-0.5137939453125,0.518798828125,-0.1700439453125
0.966,297,396,402,310,-6.0,41.0,38.0,64.02587890625,11.474608421325684,-22.033689498901367,-0.5535888671875,0.75537109375,-0.223876953125
0.973,310,391,408,313,-6.0,41.0,38.0,56.945796966552734,14.648436546325684,-18.37158203125,-0.57568359375,0.9073486328125,-0.309326171875
0.984,309,373,401,311,-9.0,42.0,40.0,40.527339935302734,15.319823265075684,-11.047362327575684,-0.6346435546875,0.9130859375,-0.3583984375
0.992,309,364,401,312,-9.0,42.0,40.0,17.333984375,11.779784202575684,-4.2724609375,-0.6796875,0.7705078125,-0.332763671875
1.000,310,364,406,310,-9.0,42.0,40.0,-4.638671875,5.798339366912842,-3.173827886581421,-0.6812744140625,0.60498046875,-0.250732421875
1.014,308,356,401,311,-9.0,42.0,40.0,-18.310546875,0.6103515625,-5.554198741912842,-0.68212890625,0.498779296875,-0.16015625
1.022,308,343,399,312,-9.0,42.0,40.0,-23.010251998901367,-3.601073980331421,-6.713866710662842,-0.708251953125,0.4464111328125,-0.09130859375
1.030,308,342,396,312,-9.0,42.0,40.0,-21.301267623901367,-8.056640625,-4.82177734375,-0.7486572265625,0.41455078125,-0.048828125
1.044,308,331,396,311,-9.0,42.0,40.0,-15.869139671325684,-12.451170921325684,-1.0986328125,-0.78515625,0.3856201171875,-0.0164794921875
1.067,309,336,396,312,-9.0,42.0,40.0,-9.46044921875,-16.2353515625,2.25830078125,-0.7982177734375,0.36279296875,0.0242919921875
1.067,296,337,396,310,-9.0,42.0,40.0,-2.868652105331421,-18.6767578125,4.2724609375,-0.7747802734375,0.346923828125,0.0537109375
1.075,309,340,399,311,-12.0,42.0,42.0,5.0048828125,-18.310546875,6.530761241912842,-0.7509765625,0.3863525390625,-0.0286865234375
1.082,310,349,399,312,-12.0,42.0,42.0,12.878417015075684,-15.441893577575684,10.803221702575684,-0.7509765625,0.3863525390625,-0.0286865234375
1.090,310,351,399,312,-12.0,42.0,42.0,16.845703125,-12.084959983825684,17.08984375,-0.7593994140625,0.447998046875,-0.0460205078125
1.108,310,363,396,311,-12.0,42.0,42.0,14.831542015075684,-9.27734375,23.193357467651367,-0.7391357421875,0.48193359375,-0.0198974609375
1.111,310,377,395,312,-12.0,42.0,42.0,8.72802734375,-6.469726085662842,26.733396530151367,-0.7391357421875,0.48193359375,-0.0198974609375
1.126,310,389,394,311,-12.0,42.0,42.0,2.25830078125,-3.479003667831421,28.076169967651367,-0.69189453125,0.4202880859375,-0.06298828125
1.138,309,433,384,311,-12.0,42.0,42.0,-3.906249761581421,-1.3427733182907104,29.785154342651367,-0.459716796875,0.2879638671875,-0.054443359375
1.163,310,469,380,312,-12.0,42.0,42.0,-11.840819358825684,-1.8310545682907104,33.50830078125,-0.459716796875,0.2879638671875,-0.054443359375
1.167,308,502,373,311,-12.0,42.0,42.0,-21.606443405151367,-6.042479991912842,38.0859375,-0.278564453125,0.263427734375,0.083740234375
1.172,296,567,382,312,-12.0,42.0,42.0,-28.137205123901367,-13.366698265075684,42.236324310302734,0.3524169921875,0.1456298828125,0.491943359375
1.172,309,622,408,312,-12.0,42.0,42.0,-20.324705123901367,-20.935056686401367,44.433589935302734,0.3524169921875,0.1456298828125,0.491943359375
1.179,310,742,463,312,-11.0,38.0,43.0,18.6767578125,-31.921384811401367,34.24072265625,0.85693359375,-0.1339111328125,0.7183837890625
1.193,310,1000,543,313,-11.0,38.0,43.0,103.45458221435547,-53.161617279052734,-8.36181640625,0.78759765625,0.04296875,0.027099609375
1.201,310,1091,561,314,-11.0,38.0,43.0,182.98338317871094,-73.2421875,-84.16747283935547,-0.249267578125,0.7091064453125,-0.4881591796875
1.209,308,1148,594,314,-11.0,38.0,43.0,138.85498046875,-89.78270721435547,-156.005859375,-0.249267578125,0.7091064453125,-0.4881591796875
1.223,309,1286,700,314,-11.0,38.0,43.0,-28.991697311401367,-51.208492279052734,-132.8125,-3.3514404296875,2.24169921875,-1.552978515625
1.231,309,1365,744,314,-11.0,38.0,43.0,-28.991697311401367,-51.208492279052734,-132.8125,-3.7886962890625,2.4595947265625,-1.2222900390625
1.272,310,1393,757,315,-11.0,38.0,43.0,-65.49072265625,-26.367185592651367,-81.23778533935547,-3.7886962890625,2.4595947265625,-1.2222900390625
1.272,310,1390,756,314,-11.0,38.0,43.0,-257.2021484375,-53.039546966552734,-29.052732467651367,-2.264404296875,-0.501220703125,0.61376953125
1.272,310,1374,740,315,-11.0,38.0,43.0,-257.2021484375,-53.039546966552734,-29.052732467651367,-1.272705078125,-1.6724853515625,1.064697265625
1.272,310,1334,723,314,-11.0,38.0,43.0,-203.36912536621094,-36.4990234375,-9.70458984375,-1.272705078125,-1.6724853515625,1.064697265625
1.283,308,1335,725,314,-8.0,39.0,44.0,90.88134002685547,0.6713866591453552,-4.94384765625,-0.962890625,0.511962890625,0.1080322265625
1.291,308,1320,714,314,-8.0,39.0,44.0,90.88134002685547,0.6713866591453552,-4.94384765625,-1.674072265625,1.7408447265625,-0.5318603515625
1.299,310,1289,700,314,-8.0,39.0,44.0,129.57763671875,10.437010765075684,-5.676269054412842,-1.674072265625,1.7408447265625,-0.5318603515625
1.313,310,1219,678,314,-8.0,39.0,44.0,-14.587401390075684,24.597166061401367,3.051757574081421,-2.2352294921875,1.3175048828125,-0.4263916015625
1.321,310,1159,668,314,-8.0,39.0,44.0,-14.587401390075684,24.597166061401367,3.051757574081421,-1.784912109375,0.5562744140625,0.0352783203125
1.330,311,1105,638,314,-8.0,39.0,44.0,-76.904296875,25.756834030151367,11.108397483825684,-1.784912109375,0.5562744140625,0.0352783203125
1.376,309,992,594,314,-8.0,39.0,44.0,-53.527828216552734,37.29248046875,36.80419921875,-0.8944091796875,0.0224609375,0.4921875
1.378,310,920,585,314,-8.0,39.0,44.0,-17.822265625,45.288082122802734,44.921871185302734,-0.679443359375,0.1083984375,0.4046630859375
1.378,296,849,552,296,-8.0,39.0,44.0,-17.822265625,45.288082122802734,44.921871185302734,-0.5426025390625,0.1748046875,0.247802734375
1.378,296,703,484,300,-6.0,40.0,45.0,27.160642623901367,45.043941497802734,28.930662155151367,-0.424560546875,0.079833984375,0.0926513671875
1.382,309,632,445,314,-6.0,40.0,45.0,38.75732421875,41.748043060302734,7.690429210662842,-0.334716796875,-0.130126953125,-0.078125
1.390,308,564,430,313,-6.0,40.0,45.0,38.75732421875,41.748043060302734,7.690429210662842,-0.33935546875,-0.2171630859375,-0.2806396484375
1.403,308,488,414,312,-6.0,40.0,45.0,77.392578125,49.499507904052734,-20.690916061401367,-0.4036865234375,-0.0374755859375,-0.384033203125
1.416,308,452,420,314,-6.0,40.0,45.0,85.44921112060547,50.659175872802734,-18.37158203125,-0.46728515625,0.260986328125,-0.3187255859375
1.420,309,421,414,312,-6.0,40.0,45.0,85.44921112060547,50.659175872802734,-18.37158203125,-0.541015625,0.5550537109375,-0.228759765625
1.433,308,373,394,312,-6.0,40.0,45.0,50.598140716552734,36.2548828125,-11.108397483825684,-0.5799560546875,0.77490234375,-0.2197265625
1.441,308,357,393,312,-6.0,40.0,45.0,22.827146530151367,26.367185592651367,-7.934569835662842,-0.6014404296875,0.8050537109375,-0.2584228515625
1.474,308,336,391,312,-6.0,40.0,45.0,22.827146530151367,26.367185592651367,-7.934569835662842,-0.6773681640625,0.7037353515625,-0.2794189453125
1.475,309,314,394,312,-6.0,40.0,45.0,-17.76123046875,8.9111328125,-2.25830078125,-0.7874755859375,0.60888671875,-0.251708984375
1.475,309,314,386,312,-9.0,43.0,40.0,-20.812986373901367,3.479003667831421,-3.540038824081421,-0.866943359375,0.5135498046875,-0.1783447265625
1.480,310,313,380,310,-9.0,43.0,40.0,-20.812986373901367,3.479003667831421,-3.540038824081421,-0.8350830078125,0.4022216796875,-0.1053466796875
1.493,310,322,379,310,-9.0,43.0,40.0,-10.375975608825684,-2.50244140625,-20.141599655151367,-0.7149658203125,0.3057861328125,-0.0750732421875
1.501,310,323,379,310,-9.0,43.0,40.0,-3.845214605331421,-3.112792730331421,-21.667478561401367,-0.6195068359375,0.233642578125,-0.0626220703125
1.510,310,326,379,311,-9.0,43.0,40.0,0.6713866591453552,-3.417968511581421,-15.075682640075684,-0.596435546875,0.2044677734375,-0.0316162109375
1.523,310,328,380,307,-9.0,43.0,40.0,5.493163585662842,-4.33349609375,-5.187987804412842,-0.6343994140625,0.2169189453125,0.002197265625
1.532,310,330,380,311,-9.0,43.0,40.0,12.207030296325684,-5.493163585662842,4.638671875,-0.6865234375,0.259033203125,-0.00244140625
1.539,310,332,377,312,-9.0,43.0,40.0,18.06640625,-6.103515148162842,12.939452171325684,-0.7261962890625,0.3271484375,-0.0294189453125
1.582,309,337,379,310,-9.0,43.0,40.0,18.06640625,-6.469726085662842,19.47021484375,-0.732666015625,0.39501953125,-0.0159912109375
1.583,308,338,379,310,-9.0,43.0,40.0,10.681151390075684,-6.713866710662842,24.414060592651367,-0.702392578125,0.41748046875,0.0274658203125
1.583,308,357,372,310,-9.0,43.0,40.0,-0.4272460639476776,-6.591796398162842,28.015134811401367,-0.6505126953125,0.384765625,0.0572509765625
1.584,309,415,356,312,-6.0,40.0,40.0,-12.207030296325684,-6.835937023162842,31.616209030151367,-0.568359375,0.319580078125,0.0877685546875
1.592,310,453,363,312,-6.0,40.0,40.0,-22.521970748901367,-7.995604991912842,36.92626953125,-0.4493408203125,0.2762451171875,0.1292724609375
1.600,308,509,363,312,-6.0,40.0,40.0,-27.465818405151367,-8.85009765625,44.921871185302734,-0.3394775390625,0.302001953125,0.165771484375
1.616,308,582,372,314,-6.0,40.0,40.0,-21.911619186401367,-9.6435546875,54.077144622802734,-0.2047119140625,0.3201904296875,0.200439453125
1.624,309,642,379,312,-6.0,40.0,40.0,-7.141112804412842,-13.854979515075684,58.105464935302734,0.1458740234375,0.1883544921875,0.310546875
1.630,308,763,426,312,-6.0,40.0,40.0,11.108397483825684,-27.648923873901367,48.889156341552734,0.6910400390625,-0.0701904296875,0.515380859375
1.644,309,1003,527,313,-6.0,40.0,40.0,40.771480560302734,-53.100582122802734,18.12744140625,1.0543212890625,-0.2366943359375,0.4810791015625
1.658,309,1143,579,314,-6.0,40.0,40.0,76.2939453125,-77.7587890625,-36.865234375,0.7650146484375,0.0045166015625,0.1463623046875
1.659,308,1213,593,313,-6.0,40.0,40.0,67.32177734375,-89.59960174560547,-93.87206268310547,-0.189453125,0.4671630859375,-0.01953125
1.682,310,1344,684,314,-8.0,43.0,36.0,21.667478561401367,-73.486328125,-122.25341033935547,-1.629638671875,0.89404296875,-0.430419921875
1.682,310,1429,731,314,-8.0,43.0,36.0,9.70458984375,-25.329587936401367,-105.83495330810547,-3.0731201171875,1.546630859375,-1.1357421875
1.694,308,1486,767,314,-8.0,43.0,36.0,-4.7607421875,7.141112804412842,-62.133785247802734,-3.6097412109375,1.9610595703125,-1.2510986328125
1.703,310,1476,756,314,-8.0,43.0,36.0,-80.50536346435547,1.8310545682907104,-25.817869186401367,-3.3182373046875,1.43896484375,-0.718994140625
1.711,310,1476,763,314,-8.0,43.0,36.0,-151.42822265625,-6.896972179412842,-2.0751953125,-2.69091796875,0.2144775390625,0.05517578125
1.719,310,1454,749,314,-8.0,43.0,36.0,-134.27734375,-3.540038824081421,10.925292015075684,-1.676513671875,-0.7618408203125,0.681640625
1.734,310,1415,717,314,-8.0,43.0,36.0,-44.982906341552734,-0.9765624403953552,12.878417015075684,-0.8472900390625,-0.5931396484375,0.7646484375
1.742,310,1413,725,314,-8.0,43.0,36.0,40.0390625,-3.906249761581421,12.268065452575684,-0.7301025390625,0.4029541015625,0.2723388671875
1.750,309,1406,724,314,-8.0,43.0,36.0,75.37841796875,1.15966796875,7.080077648162842,-1.2178955078125,1.365966796875,-0.32373046875
1.764,310,1353,684,313,-8.0,43.0,36.0,55.419918060302734,16.7236328125,-2.01416015625,-1.9129638671875,1.767333984375,-0.6043701171875
1.785,310,1306,658,315,-8.0,40.0,40.0,-3.295898199081421,34.7900390625,-5.493163585662842,-2.2822265625,1.4771728515625,-0.5235595703125
1.785,310,1239,620,299,-8.0,40.0,40.0,-59.814449310302734,50.537105560302734,0.7934569716453552,-2.2115478515625,0.9041748046875,-0.2169189453125
1.794,310,1092,594,314,-8.0,40.0,40.0,-84.89989471435547,59.936519622802734,18.310546875,-1.7593994140625,0.3922119140625,0.143310546875
1.802,309,1029,582,314,-8.0,40.0,40.0,-75.3173828125,61.828609466552734,40.954586029052734,-1.1324462890625,0.0107421875,0.3563232421875
1.810,310,955,561,314,-8.0,40.0,40.0,-36.68212890625,56.396480560302734,55.969234466552734,-0.6221923828125,-0.158203125,0.3616943359375
1.825,308,819,523,314,-8.0,40.0,40.0,12.329100608825684,43.273921966552734,54.687496185302734,-0.32666015625,-0.0218505859375,0.1810302734375
1.831,310,721,475,314,-8.0,40.0,40.0,48.278804779052734,28.381345748901367,37.4755859375,-0.32666015625,-0.0218505859375,0.1810302734375
1.840,310,642,439,314,-8.0,40.0,40.0,65.3076171875,20.202634811401367,10.864256858825684,-0.3184814453125,-0.0233154296875,0.007080078125
1.853,308,506,413,312,-8.0,40.0,40.0,75.98876953125,23.315427780151367,-16.29638671875,-0.4942626953125,0.034423828125,-0.4407958984375
1.864,310,467,411,312,-8.0,40.0,40.0,89.66063690185547,33.02001953125,-31.616209030151367,-0.4942626953125,0.034423828125,-0.4407958984375
1.887,310,437,411,314,-10.0,42.0,41.0,97.77831268310547,37.7197265625,-29.846189498901367,-0.5355224609375,0.2615966796875,-0.384033203125
1.888,294,372,407,312,-10.0,42.0,41.0,92.77342987060547,35.33935546875,-21.484373092651367,-0.545654296875,0.7103271484375,-0.2408447265625
1.894,309,357,399,314,-10.0,42.0,41.0,77.1484375,30.334470748901367,-15.991209983825684,-0.545654296875,0.7103271484375,-0.2408447265625
1.899,310,327,396,311,-10.0,42.0,41.0,52.856441497802734,23.437498092651367,-14.038084983825684,-0.5029296875,0.7821044921875,-0.2364501953125
1.915,308,317,401,312,-10.0,42.0,41.0,24.475095748901367,14.770506858825684,-14.038084983825684,-0.755615234375,0.5849609375,-0.1959228515625
1.922,309,315,407,311,-10.0,42.0,41.0,0.2441406100988388,4.150390625,-13.549803733825684,-0.755615234375,0.5849609375,-0.1959228515625
1.929,310,314,400,310,-10.0,42.0,41.0,-18.12744140625,-9.46044921875,-13.061522483825684,-0.8031005859375,0.4722900390625,-0.1728515625
1.943,308,315,396,311,-10.0,42.0,41.0,-28.442380905151367,-19.775390625,-14.221190452575684,-0.6529541015625,0.3170166015625,-0.163818359375
1.951,309,314,394,311,-10.0,42.0,41.0,-25.939939498901367,-19.83642578125,-14.343260765075684,-0.696044921875,0.3583984375,-0.129638671875
1.967,308,315,391,310,-10.0,42.0,41.0,-18.5546875,-15.197752952575684,-10.864256858825684,-0.696044921875,0.3583984375,-0.129638671875
1.993,309,323,394,312,-11.0,41.0,40.0,-22.094724655151367,-14.221190452575684,-2.25830078125,-0.7562255859375,0.3670654296875,0.0028076171875
1.997,297,326,394,311,-11.0,41.0,40.0,-22.094724655151367,-14.221190452575684,-2.25830078125,-0.741943359375,0.3280029296875,-0.00146484375
1.997,310,328,396,312,-11.0,41.0,40.0,-24.291990280151367,-13.427733421325684,-0.30517578125,-0.741943359375,0.3280029296875,-0.00146484375
2.004,310,331,394,311,-11.0,41.0,40.0,-18.37158203125,-6.164550304412842,6.530761241912842,-0.740478515625,0.3553466796875,-0.05078125
2.012,310,331,396,312,-11.0,41.0,40.0,-18.37158203125,-6.164550304412842,6.530761241912842,-0.732666015625,0.3763427734375,-0.0318603515625
2.020,310,345,391,312,-11.0,41.0,40.0,-18.6767578125,-4.2724609375,12.756346702575684,-0.732666015625,0.3763427734375,-0.0318603515625
2.036,310,382,368,311,-11.0,41.0,40.0,-28.259275436401367,-4.7607421875,24.291990280151367,-0.6378173828125,0.259033203125,-0.006103515625
2.042,309,411,379,313,-11.0,41.0,40.0,-28.259275436401367,-4.7607421875,24.291990280151367,-0.5921630859375,0.198974609375,-0.02001953125
2.049,310,437,369,312,-11.0,41.0,40.0,-32.40966796875,-5.0048828125,27.954099655151367,-0.5921630859375,0.198974609375,-0.02001953125
2.070,310,518,360,313,-11.0,41.0,40.0,-35.58349609375,-7.568358898162842,34.3017578125,-0.4532470703125,0.236328125,0.177490234375
2.099,310,579,367,310,-9.0,41.0,41.0,-35.58349609375,-7.568358898162842,34.3017578125,-0.185791015625,0.1756591796875,0.3543701171875
2.099,309,658,380,314,-9.0,41.0,41.0,-28.442380905151367,-11.474608421325684,34.912109375,-0.185791015625,0.1756591796875,0.3543701171875
2.099,308,868,496,314,-9.0,41.0,41.0,24.597166061401367,-47.546382904052734,1.5869139432907104,0.7418212890625,-0.2178955078125,0.3638916015625
2.102,310,974,537,313,-9.0,41.0,41.0,24.597166061401367,-47.546382904052734,1.5869139432907104,0.818115234375,-0.21044921875,0.135009765625
2.110,310,1065,564,314,-9.0,41.0,41.0,49.377437591552734,-88.07372283935547,-39.97802734375,0.328369140625,0.1109619140625,-0.1053466796875
2.123,308,1162,594,314,-9.0,41.0,41.0,71.71630859375,-98.75487518310547,-85.75438690185547,-0.7391357421875,0.6612548828125,-0.64697265625
2.133,308,1246,643,314,-9.0,41.0,41.0,89.84374237060547,-40.710445404052734,-69.39697265625,-1.88818359375,1.3428955078125,-1.071533203125
2.141,310,1340,703,315,-9.0,41.0,41.0,89.84374237060547,-40.710445404052734,-69.39697265625,-2.6019287109375,1.73828125,-0.8612060546875
2.153,311,1428,745,314,-9.0,41.0,41.0,-24.780271530151367,-18.49365234375,-54.260250091552734,-2.897705078125,1.5394287109375,-0.4793701171875
2.162,309,1457,754,314,-9.0,41.0,41.0,-105.83495330810547,-47.790523529052734,-58.837886810302734,-2.852783203125,1.0338134765625,-0.1328125
2.172,310,1447,749,315,-4.0,40.0,43.0,-105.83495330810547,-47.790523529052734,-58.837886810302734,-2.5540771484375,0.445068359375,0.247802734375
2.207,310,1415,723,314,-4.0,40.0,43.0,-86.91405487060547,-61.523433685302734,-30.639646530151367,-1.8677978515625,-0.32275390625,0.51025390625
2.207,296,1371,700,314,-4.0,40.0,43.0,-10.925292015075684,-45.227046966552734,-27.526853561401367,-1.1099853515625,-0.6634521484375,0.4666748046875
2.207,310,1371,713,302,-4.0,40.0,43.0,-10.925292015075684,-45.227046966552734,-27.526853561401367,-0.9197998046875,0.0535888671875,0.0709228515625
2.214,307,1369,704,314,-4.0,40.0,43.0,118.40819549560547,-0.8544921278953552,-33.5693359375,-1.39892578125,1.1402587890625,-0.3951416015625
2.221,310,1342,674,314,-4.0,40.0,43.0,79.833984375,2.44140625,-29.418943405151367,-2.14794921875,1.623046875,-0.6236572265625
2.233,310,1292,644,314,-4.0,40.0,43.0,79.833984375,2.44140625,-29.418943405151367,-2.543212890625,1.2996826171875,-0.497802734375
2.244,310,1186,613,314,-4.0,40.0,43.0,-100.34178924560547,-5.554198741912842,-2.38037109375,-2.3931884765625,0.69677734375,-0.1212158203125
2.253,311,1125,599,314,-4.0,40.0,43.0,-137.39013671875,10.864256858825684,32.28759765625,-1.8675537109375,0.225830078125,0.2808837890625
2.260,310,1051,568,314,-4.0,40.0,43.0,-125.79344940185547,39.9169921875,71.1669921875,-1.252197265625,-0.1212158203125,0.53662109375
2.273,309,931,557,314,-5.0,39.0,38.0,-83.43505096435547,67.2607421875,95.15380096435547,-0.728271484375,-0.37939453125,0.6025390625
2.297,310,840,540,314,-5.0,39.0,38.0,-28.198240280151367,79.77294921875,94.42137908935547,-0.314208984375,-0.4632568359375,0.531982421875
2.297,309,726,497,302,-5.0,39.0,38.0,21.423337936401367,73.79150390625,72.021484375,0.010498046875,-0.4166259765625,0.374755859375
2.312,310,629,469,314,-5.0,39.0,38.0,52.734371185302734,59.143062591552734,39.306640625,0.1820068359375,-0.3544921875,0.1279296875
2.312,309,582,423,300,-5.0,39.0,38.0,70.00732421875,50.964351654052734,9.09423828125,0.1114501953125,-0.19970703125,-0.112060546875
2.320,309,530,427,314,-5.0,39.0,38.0,75.01220703125,50.537105560302734,-5.615233898162842,-0.169921875,0.12451171875,-0.193359375
2.338,310,454,413,313,-5.0,39.0,38.0,66.7724609375,51.147457122802734,-2.44140625,-0.37939453125,0.4693603515625,-0.186279296875
2.342,308,430,409,313,-5.0,39.0,38.0,51.452632904052734,52.307125091552734,6.164550304412842,-0.4222412109375,0.7357177734375,-0.2637939453125
2.350,310,414,410,312,-5.0,39.0,38.0,32.2265625,53.710933685302734,14.770506858825684,-0.5504150390625,0.9158935546875,-0.400390625
2.365,309,401,410,312,-5.0,39.0,38.0,8.23974609375,49.194332122802734,24.536130905151367,-0.730712890625,0.9349365234375,-0.4617919921875
2.377,309,394,407,314,-6.0,40.0,36.0,-15.808104515075684,38.0859375,27.404783248901367,-0.8275146484375,0.8099365234375,-0.393798828125
2.396,310,393,401,313,-6.0,40.0,36.0,-34.85107421875,25.329587936401367,19.4091796875,-0.819580078125,0.62109375,-0.2071533203125
2.396,296,387,399,311,-6.0,40.0,36.0,-45.043941497802734,14.648436546325684,6.347655773162842,-0.7528076171875,0.4173583984375,-0.0096435546875
2.402,310,385,399,312,-6.0,40.0,36.0,-40.588375091552734,9.27734375,-3.662109136581421,-0.73828125,0.296630859375,0.0611572265625
2.418,308,377,396,312,-6.0,40.0,36.0,-23.925779342651367,7.629394054412842,-5.615233898162842,-0.8018798828125,0.309326171875,0.013427734375
2.424,308,353,401,313,-6.0,40.0,36.0,-8.1787109375,4.39453125,-1.7700194120407104,-0.882080078125,0.3623046875,-0.0345458984375
2.432,308,340,401,313,-6.0,40.0,36.0,-1.2817381620407104,-2.13623046875,2.624511480331421,-0.910400390625,0.3662109375,-0.029296875
2.443,309,336,401,312,-6.0,40.0,36.0,0.54931640625,-8.544921875,6.042479991912842,-0.8826904296875,0.3365478515625,-0.0247802734375
2.453,310,326,401,312,-6.0,40.0,36.0,4.638671875,-11.047362327575684,10.192870140075684,-0.857666015625,0.33349609375,-0.076416015625
2.463,310,322,401,312,-6.0,40.0,36.0,11.718749046325684,-10.253905296325684,16.54052734375,-0.86279296875,0.3658447265625,-0.1588134765625
2.470,310,322,402,312,-9.0,43.0,43.0,16.845703125,-9.46044921875,24.963376998901367,-0.866455078125,0.3883056640625,-0.2198486328125
2.501,309,326,399,313,-9.0,43.0,43.0,15.930174827575684,-9.8876953125,33.8134765625,-0.84228515625,0.381103515625,-0.228515625
2.502,310,342,380,299,-9.0,43.0,43.0,8.36181640625,-10.437010765075684,41.137691497802734,-0.783447265625,0.356201171875,-0.175048828125
2.502,310,360,391,313,-9.0,43.0,43.0,-4.08935546875,-10.437010765075684,45.410152435302734,-0.697021484375,0.3228759765625,-0.0933837890625
2.520,308,426,385,312,-9.0,43.0,43.0,-17.27294921875,-10.742186546325684,46.386714935302734,-0.5941162109375,0.2904052734375,-0.0130615234375
2.522,308,469,373,314,-9.0,43.0,43.0,-26.611326217651367,-13.061522483825684,44.860836029052734,-0.4615478515625,0.232666015625,0.0955810546875
2.530,310,518,369,314,-9.0,43.0,43.0,-31.127927780151367,-17.9443359375,42.846675872802734,-0.2760009765625,0.14892578125,0.25634765625
2.544,308,654,391,313,-9.0,43.0,43.0,-29.785154342651367,-24.353025436401367,43.151851654052734,0.0404052734375,0.06494140625,0.461669921875
2.552,309,749,437,314,-9.0,43.0,43.0,-7.629394054412842,-31.799314498901367,40.649410247802734,0.6185302734375,-0.0814208984375,0.615234375
2.560,310,872,498,314,-9.0,43.0,43.0,38.26904296875,-44.616695404052734,20.141599655151367,1.194091796875,-0.2237548828125,0.547607421875
2.582,310,1104,601,314,-9.0,39.0,45.0,76.84326171875,-67.3828125,-20.202634811401367,0.6156005859375,0.0133056640625,0.0943603515625
2.582,310,1184,594,314,-9.0,39.0,45.0,77.20947265625,-94.36034393310547,-62.744136810302734,0.6156005859375,0.0133056640625,0.0943603515625
2.600,310,1239,619,315,-9.0,39.0,45.0,58.715816497802734,-101.25731658935547,-85.87645721435547,-0.614990234375,0.59912109375,-0.5150146484375
2.604,310,1404,749,315,-9.0,39.0,45.0,72.32666015625,-64.02587890625,-73.66943359375,-3.201171875,2.0892333984375,-1.4371337890625
2.612,310,1474,767,314,-9.0,39.0,45.0,79.40673828125,-24.536130905151367,-40.771480560302734,-3.201171875,2.0892333984375,-1.4371337890625
2.620,310,1518,794,314,-9.0,39.0,45.0,0.7934569716453552,-34.72900390625,-23.986814498901367,-3.293701171875,1.8631591796875,-0.677001953125
2.633,310,1531,766,314,-9.0,39.0,45.0,-115.11229705810547,-69.3359375,-19.34814453125,-2.3912353515625,0.1446533203125,0.7169189453125
2.644,310,1516,756,315,-9.0,39.0,45.0,-155.517578125,-83.43505096435547,0.1220703050494194,-2.3912353515625,0.1446533203125,0.7169189453125
2.650,310,1478,732,315,-9.0,39.0,45.0,-96.86278533935547,-67.3828125,20.507810592651367,-1.7001953125,-0.48583984375,0.9063720703125
2.664,310,1415,705,314,-7.0,39.0,42.0,4.7607421875,-37.59765625,15.747069358825684,-0.7310791015625,0.3631591796875,0.1644287109375
2.672,310,1422,713,315,-7.0,39.0,42.0,91.43065643310547,-7.629394054412842,-2.38037109375,-0.7310791015625,0.3631591796875,0.1644287109375
2.706,310,1381,673,315,-7.0,39.0,42.0,80.74950408935547,31.616209030151367,-24.536130905151367,-2.4205322265625,1.6339111328125,-0.53515625
2.706,310,1317,633,314,-7.0,39.0,42.0,-7.995604991912842,30.700681686401367,-24.230955123901367,-2.4205322265625,1.6339111328125,-0.53515625
2.710,310,1251,604,314,-7.0,39.0,42.0,-95.58104705810547,29.357908248901367,-11.047362327575684,-2.6044921875,1.24267578125,-0.2442626953125
2.724,310,1103,554,314,-7.0,39.0,42.0,-158.63037109375,56.274410247802734,44.982906341552734,-1.618896484375,0.290771484375,0.41943359375
2.736,309,1014,547,314,-7.0,39.0,42.0,-158.63037109375,56.274410247802734,44.982906341552734,-0.818603515625,-0.16357421875,0.49853515625
2.743,310,943,542,314,-7.0,39.0,42.0,-123.77928924560547,70.98388671875,66.95556640625,-0.818603515625,-0.16357421875,0.49853515625
2.754,310,771,512,314,-7.0,39.0,42.0,20.01953125,57.678218841552734,49.621578216552734,0.037353515625,-0.4698486328125,0.2310791015625
2.762,310,678,476,314,-7.0,40.0,37.0,20.01953125,57.678218841552734,49.621578216552734,0.104736328125,-0.5311279296875,0.0347900390625
2.770,310,594,437,313,-7.0,40.0,37.0,66.40625,35.70556640625,14.953612327575684,0.104736328125,-0.5311279296875,0.0347900390625
2.786,308,496,427,314,-7.0,40.0,37.0,112.42675018310547,24.658201217651367,-40.222164154052734,-0.213623046875,-0.0244140625,-0.3687744140625
2.818,309,456,430,314,-7.0,40.0,37.0,112.42675018310547,24.658201217651367,-40.222164154052734,-0.4588623046875,0.4290771484375,-0.2752685546875
2.819,310,423,428,312,-7.0,40.0,37.0,117.24852752685547,26.611326217651367,-35.33935546875,-0.4588623046875,0.4290771484375,-0.2752685546875
2.821,308,371,420,312,-7.0,40.0,37.0,82.76366424560547,27.038572311401367,-10.620116233825684,-0.5826416015625,0.99267578125,-0.281005859375
2.822,309,338,419,298,-7.0,40.0,37.0,82.76366424560547,27.038572311401367,-10.620116233825684,-0.6378173828125,0.9857177734375,-0.3414306640625
2.830,309,322,407,312,-7.0,40.0,37.0,47.363277435302734,25.756834030151367,-3.417968511581421,-0.6378173828125,0.9857177734375,-0.3414306640625
2.846,309,314,408,311,-7.0,40.0,37.0,-19.4091796875,6.347655773162842,-0.7934569716453552,-0.90966796875,0.4970703125,-0.226806640625
2.852,310,315,408,311,-7.0,40.0,37.0,-19.4091796875,6.347655773162842,-0.7934569716453552,-0.876220703125,0.408447265625,-0.1429443359375
2.860,309,315,400,312,-7.0,40.0,37.0,-28.747556686401367,-4.45556640625,-8.30078125,-0.876220703125,0.408447265625,-0.1429443359375
2.874,309,319,391,310,-10.0,42.0,40.0,-32.28759765625,-10.192870140075684,-10.925292015075684,-0.6712646484375,0.2926025390625,-0.01611328125
2.888,309,321,387,311,-10.0,42.0,40.0,-31.372068405151367,-9.27734375,-4.45556640625,-0.6475830078125,0.196533203125,0.020751953125
2.890,309,323,387,312,-10.0,42.0,40.0,-31.372068405151367,-9.27734375,-4.45556640625,-0.6090087890625,0.145263671875,0.03515625
2.909,308,329,396,311,-10.0,42.0,40.0,-16.78466796875,-10.864256858825684,6.591796398162842,-0.58544921875,0.164794921875,0.01904296875
2.912,310,329,394,311,-10.0,42.0,40.0,-3.173827886581421,-11.108397483825684,12.878417015075684,-0.609375,0.2681884765625,0.0152587890625
2.920,309,329,399,312,-10.0,42.0,40.0,-3.173827886581421,-11.108397483825684,12.878417015075684,-0.6705322265625,0.4366455078125,0.038818359375
2.933,309,337,399,311,-10.0,42.0,40.0,12.878417015075684,-12.695311546325684,26.123044967651367,-0.7252197265625,0.583984375,0.0748291015625
2.949,308,343,396,312,-10.0,42.0,40.0,10.864256858825684,-14.221190452575684,27.832029342651367,-0.7244873046875,0.6187744140625,0.0848388671875
2.953,296,364,393,312,-10.0,42.0,40.0,10.864256858825684,-14.221190452575684,27.832029342651367,-0.6607666015625,0.5238037109375,0.034423828125
2.964,310,414,381,312,-9.0,40.0,41.0,-5.920409679412842,-13.061522483825684,21.606443405151367,-0.5625,0.39111328125,-0.0177001953125
2.972,309,439,384,312,-9.0,40.0,41.0,-17.15087890625,-10.314940452575684,21.728513717651367,-0.4884033203125,0.3472900390625,0.0186767578125
3.085,302,494,371,312,-9.0,40.0,41.0,-17.15087890625,-10.314940452575684,21.728513717651367,-0.372314453125,0.373779296875,0.146240234375
3.094,310,613,379,311,-9.0,40.0,41.0,-24.841306686401367,-6.896972179412842,32.2265625,-0.0845947265625,0.3245849609375,0.28466796875
3.095,310,702,410,312,-9.0,40.0,41.0,-11.840819358825684,-10.803221702575684,27.160642623901367,0.3873291015625,0.13916015625,0.4022216796875
3.095,309,819,447,312,-9.0,40.0,41.0,-11.840819358825684,-10.803221702575684,27.160642623901367,0.95361328125,-0.1314697265625,0.470703125
3.096,310,1063,533,301,-9.0,40.0,41.0,17.15087890625,-56.579586029052734,-32.71484375,1.17578125,-0.3690185546875,0.3648681640625
3.096,310,1157,576,314,-9.0,40.0,41.0,19.1650390625,-89.35546112060547,-83.43505096435547,0.7364501953125,-0.2596435546875,0.2015380859375
3.096,310,1219,589,314,-9.0,40.0,41.0,27.343748092651367,-96.80175018310547,-116.33300018310547,-0.353759765625,0.278564453125,-0.148193359375
3.096,308,1336,648,313,-9.0,40.0,41.0,68.29833984375,-56.274410247802734,-108.09325408935547,-1.982177734375,1.2164306640625,-0.87890625
3.096,296,1443,683,300,-7.0,41.0,44.0,99.67040252685547,-7.080077648162842,-72.6318359375,-3.3408203125,2.127197265625,-1.262939453125
3.096,311,1498,694,315,-7.0,41.0,44.0,32.40966796875,-7.080077648162842,-46.081539154052734,-3.619873046875,2.0931396484375,-0.86865234375
3.096,299,1488,668,299,-7.0,41.0,44.0,-99.06005096435547,-38.4521484375,-34.423828125,-3.1400146484375,1.0360107421875,-0.0882568359375
3.098,310,1504,695,314,-7.0,41.0,44.0,-166.25975036621094,-50.964351654052734,-22.277830123901367,-2.5302734375,-0.2750244140625,0.5543212890625
3.114,310,1478,693,315,-7.0,41.0,44.0,-114.50194549560547,-33.02001953125,-9.033203125,-1.6807861328125,-1.040771484375,0.771240234375
3.115,308,1397,671,314,-7.0,41.0,44.0,0.6713866591453552,-8.48388671875,1.7089842557907104,-0.8759765625,-0.7161865234375,0.5772705078125
3.124,306,1404,683,314,-7.0,41.0,44.0,92.52928924560547,9.3994140625,9.8876953125,-0.6693115234375,0.4052734375,0.076416015625
3.130,309,1409,684,314,-7.0,41.0,44.0,116.69921112060547,24.536130905151367,8.72802734375,-1.0963134765625,1.3795166015625,-0.4290771484375
3.144,308,1387,644,315,-7.0,41.0,44.0,71.4111328125,31.005857467651367,0.1831054538488388,-1.863037109375,1.7542724609375,-0.6236572265625
3.168,310,1338,613,314,-7.0,41.0,44.0,-15.563963890075684,27.526853561401367,-2.38037109375,-2.402099609375,1.5509033203125,-0.4913330078125
3.168,307,1260,593,314,-10.0,40.0,46.0,-92.95653533935547,30.517576217651367,7.385253429412842,-2.5308837890625,1.0550537109375,-0.2196044921875
3.174,310,1092,547,314,-10.0,40.0,46.0,-128.7841796875,45.349117279052734,32.04345703125,-2.32275390625,0.672119140625,0.1201171875
3.182,310,1008,527,315,-10.0,40.0,46.0,-125.61034393310547,62.805171966552734,66.40625,-1.7916259765625,0.4071044921875,0.424072265625
3.196,310,923,523,314,-10.0,40.0,46.0,-93.32274627685547,76.171875,91.43065643310547,-1.0623779296875,0.09423828125,0.5274658203125
3.216,310,756,504,314,-10.0,40.0,46.0,-42.785640716552734,80.62743377685547,88.07372283935547,-0.3905029296875,-0.2724609375,0.4793701171875
3.217,309,651,464,312,-10.0,40.0,46.0,10.131834983825684,72.20458984375,54.626461029052734,0.106689453125,-0.6473388671875,0.3817138671875
3.220,310,562,407,314,-10.0,40.0,46.0,53.588863372802734,55.786128997802734,5.432128429412842,0.4139404296875,-0.8487548828125,0.173583984375
3.234,310,481,398,312,-10.0,40.0,46.0,89.84374237060547,44.311519622802734,-38.51318359375,0.458984375,-0.6312255859375,-0.0963134765625
3.242,308,439,402,314,-10.0,40.0,46.0,118.16405487060547,41.198726654052734,-57.861324310302734,0.1683349609375,-0.0814208984375,-0.216064453125
3.251,310,408,402,314,-10.0,40.0,46.0,130.0048828125,39.48974609375,-48.706050872802734,-0.2291259765625,0.46337890625,-0.251953125
3.274,310,393,396,312,-10.0,41.0,47.0,124.45067596435547,37.78076171875,-25.573728561401367,-0.4107666015625,0.9420166015625,-0.394287109375
3.274,310,393,396,312,-10.0,41.0,47.0,94.90966033935547,34.66796875,-3.051757574081421,-0.560791015625,1.269287109375,-0.5740966796875
3.280,309,394,402,312,-10.0,41.0,47.0,40.466304779052734,24.169919967651367,9.6435546875,-0.85693359375,1.2305908203125,-0.66455078125
3.298,308,386,396,313,-10.0,41.0,47.0,-12.634276390075684,7.141112804412842,7.080077648162842,-1.0594482421875,0.9591064453125,-0.634521484375
3.317,310,382,386,312,-10.0,41.0,47.0,-43.823238372802734,-8.60595703125,-5.187987804412842,-1.0384521484375,0.703857421875,-0.4749755859375
3.319,308,367,380,299,-10.0,41.0,47.0,-60.546871185302734,-16.6015625,-16.4794921875,-0.9136962890625,0.506591796875,-0.2393798828125
3.324,308,336,364,310,-10.0,41.0,47.0,-72.3876953125,-15.319823265075684,-19.53125,-0.688720703125,0.2451171875,0.0731201171875
3.332,310,337,372,312,-10.0,41.0,47.0,-78.0029296875,-8.6669921875,-13.671874046325684,-0.688720703125,0.2451171875,0.0731201171875
3.340,309,337,372,313,-10.0,41.0,47.0,-76.84326171875,-3.967284917831421,-3.601073980331421,-0.68798828125,0.1568603515625,0.148193359375
3.356,309,341,370,312,-10.0,41.0,47.0,-70.1904296875,-5.371093273162842,5.065917491912842,-0.752197265625,0.09130859375,0.206787109375
3.363,310,354,371,299,-9.0,42.0,43.0,-57.739253997802734,-10.498045921325684,11.108397483825684,-0.752197265625,0.09130859375,0.206787109375
3.379,308,360,372,313,-9.0,42.0,43.0,-39.61181640625,-14.038084983825684,15.380858421325684,-0.7938232421875,0.1123046875,0.1517333984375
3.384,308,373,371,312,-9.0,42.0,43.0,-17.578125,-13.549803733825684,19.22607421875,-0.8160400390625,0.3134765625,-0.0120849609375
3.392,310,381,372,312,-9.0,42.0,43.0,2.563476324081421,-10.986327171325684,24.841306686401367,-0.8160400390625,0.3134765625,-0.0120849609375
3.400,308,391,373,312,-9.0,42.0,43.0,14.465331077575684,-8.6669921875,32.40966796875,-0.78759765625,0.4173583984375,-0.05078125
3.421,309,411,369,312,-9.0,42.0,43.0,16.6015625,-6.958007335662842,39.12353515625,-0.65576171875,0.3929443359375,-0.0474853515625
3.423,296,447,363,310,-9.0,42.0,43.0,12.451170921325684,-5.249022960662842,42.663570404052734,-0.65576171875,0.3929443359375,-0.0474853515625
3.430,310,495,357,312,-9.0,42.0,43.0,4.8828125,-4.2724609375,43.579097747802734,-0.5340576171875,0.3231201171875,0.017333984375
3.443,308,616,367,313,-9.0,42.0,43.0,-2.868652105331421,-6.286620616912842,44.555660247802734,0.0633544921875,0.1185302734375,0.3106689453125
3.452,309,703,393,314,-9.0,42.0,43.0,-3.784179449081421,-12.390135765075684,45.776363372802734,0.0633544921875,0.1185302734375,0.3106689453125
3.460,310,805,441,314,-11.0,39.0,43.0,8.97216796875,-24.414060592651367,41.625972747802734,0.72705078125,-0.128173828125,0.5635986328125
3.480,308,1078,572,314,-11.0,39.0,43.0,40.588375091552734,-46.264644622802734,18.37158203125,1.416259765625,-0.42041015625,0.5196533203125
3.482,311,1201,634,314,-11.0,39.0,43.0,85.26610565185547,-70.3125,-33.203125,0.4501953125,0.21240234375,0.122314453125
3.492,310,1274,683,314,-11.0,39.0,43.0,104.85839080810547,-88.01268768310547,-91.49169158935547,0.4501953125,0.21240234375,0.122314453125
3.504,310,1400,756,313,-11.0,39.0,43.0,92.22411346435547,-46.508785247802734,-119.68993377685547,-2.9249267578125,1.8831787109375,-1.83837890625
3.524,309,1483,782,315,-11.0,39.0,43.0,92.22411346435547,-46.508785247802734,-119.68993377685547,-3.654541015625,2.3446044921875,-1.7611083984375
3.524,298,1540,823,314,-11.0,39.0,43.0,56.335445404052734,-21.545408248901367,-94.11620330810547,-3.654541015625,2.3446044921875,-1.7611083984375
3.534,310,1575,861,314,-11.0,39.0,43.0,-201.04978942871094,-85.26610565185547,-52.062984466552734,-2.7119140625,0.4444580078125,0.3392333984375
3.542,307,1562,848,315,-11.0,39.0,43.0,-201.04978942871094,-85.26610565185547,-52.062984466552734,-2.0650634765625,-0.797119140625,1.038818359375
3.550,310,1534,835,315,-11.0,39.0,43.0,-217.71238708496094,-90.08788299560547,-27.832029342651367,-2.0650634765625,-0.797119140625,1.038818359375
3.565,310,1498,820,315,-8.0,37.0,44.0,25.451658248901367,-17.9443359375,-8.48388671875,-0.7587890625,-0.543701171875,0.73486328125
3.572,309,1492,826,315,-8.0,37.0,44.0,25.451658248901367,-17.9443359375,-8.48388671875,-1.0206298828125,0.82861328125,-0.002197265625
3.588,310,1483,813,315,-8.0,37.0,44.0,118.83544158935547,13.732909202575684,-7.812499523162842,-1.0206298828125,0.82861328125,-0.002197265625
3.594,310,1395,713,314,-8.0,37.0,44.0,31.616209030151367,36.07177734375,11.535643577575684,-2.468505859375,1.6334228515625,-0.6490478515625
3.626,310,1309,667,315,-8.0,37.0,44.0,31.616209030151367,36.07177734375,11.535643577575684,-2.6016845703125,1.03955078125,-0.265625
3.627,309,1239,644,314,-8.0,37.0,44.0,-61.950679779052734,37.9638671875,41.503902435302734,-2.6016845703125,1.03955078125,-0.265625
3.627,310,1081,586,311,-8.0,37.0,44.0,-101.62352752685547,65.36865234375,114.62401580810547,-1.5174560546875,0.089599609375,0.6162109375
3.632,309,1025,567,314,-8.0,37.0,44.0,-45.837398529052734,81.54296112060547,124.81688690185547,-0.8021240234375,0.0162353515625,0.638916015625
3.640,310,943,554,314,-8.0,37.0,44.0,-45.837398529052734,81.54296112060547,124.81688690185547,-0.3021240234375,0.045166015625,0.4805908203125
3.655,310,766,499,314,-8.0,37.0,44.0,51.025386810302734,80.078125,61.462398529052734,0.03466796875,-0.1248779296875,0.309326171875
3.666,310,662,485,313,-9.0,40.0,43.0,63.049312591552734,62.255855560302734,14.892577171325684,0.2447509765625,-0.3721923828125,0.0811767578125
3.670,309,609,463,312,-9.0,40.0,43.0,63.049312591552734,62.255855560302734,14.892577171325684,0.22216796875,-0.3883056640625,-0.203857421875
3.684,309,531,433,312,-9.0,40.0,43.0,92.16307830810547,40.832515716552734,-32.470703125,0.0037841796875,-0.046142578125,-0.3505859375
3.692,308,488,419,314,-9.0,40.0,43.0,95.70311737060547,34.24072265625,-30.090330123901367,-0.2900390625,0.4154052734375,-0.343017578125
3.707,310,452,423,314,-9.0,40.0,43.0,95.70311737060547,34.24072265625,-30.090330123901367,-0.5313720703125,0.7838134765625,-0.3929443359375
3.749,308,425,426,313,-9.0,40.0,43.0,70.1904296875,25.817869186401367,-14.465331077575684,-0.6923828125,1.0596923828125,-0.5340576171875
3.753,296,408,428,299,-9.0,40.0,43.0,41.625972747802734,17.76123046875,-6.469726085662842,-0.830078125,1.10498046875,-0.5953369140625
3.753,308,393,423,312,-9.0,40.0,43.0,41.625972747802734,17.76123046875,-6.469726085662842,-0.8870849609375,0.86474609375,-0.505615234375
3.757,308,363,419,312,-9.0,40.0,43.0,-20.690916061401367,-8.72802734375,-7.995604991912842,-0.832275390625,0.5677490234375,-0.31689453125
3.757,297,352,414,312,-9.0,40.0,43.0,-35.2783203125,-14.343260765075684,-14.770506858825684,-0.740234375,0.360595703125,-0.11181640625
3.760,308,336,411,312,-10.0,41.0,41.0,-35.2783203125,-14.343260765075684,-14.770506858825684,-0.71728515625,0.27685546875,0.01708984375
3.774,308,326,391,312,-10.0,41.0,41.0,-32.77587890625,-10.620116233825684,-9.8876953125,-0.7684326171875,0.2738037109375,0.074462890625
3.782,308,326,387,312,-10.0,41.0,41.0,-28.991697311401367,-11.779784202575684,-0.9155272841453552,-0.8065185546875,0.2462158203125,0.131591796875
3.790,310,326,387,312,-10.0,41.0,41.0,-26.245115280151367,-15.563963890075684,5.065917491912842,-0.79296875,0.1856689453125,0.170166015625
3.811,310,328,385,310,-10.0,41.0,41.0,-18.310546875,-17.2119140625,7.385253429412842,-0.770263671875,0.1802978515625,0.1285400390625
3.818,297,328,384,312,-10.0,41.0,41.0,-4.8828125,-15.197752952575684,9.82666015625,-0.7801513671875,0.263916015625,0.0321044921875
3.833,308,329,384,312,-10.0,41.0,41.0,7.812499523162842,-11.169432640075684,14.465331077575684,-0.8184814453125,0.3807373046875,-0.043212890625
3.834,296,337,382,312,-10.0,41.0,41.0,14.770506858825684,-7.324218273162842,20.385740280151367,-0.8436279296875,0.4676513671875,-0.056396484375
3.842,310,338,380,312,-10.0,41.0,41.0,14.404295921325684,-4.2724609375,25.512693405151367,-0.82763671875,0.49462890625,-0.0303955078125
3.850,310,342,381,312,-10.0,41.0,41.0,7.629394054412842,-1.7700194120407104,28.320310592651367,-0.790771484375,0.468994140625,-0.0120849609375
3.864,309,371,381,313,-10.0,42.0,40.0,-2.38037109375,0.9155272841453552,29.296873092651367,-0.756103515625,0.413330078125,-0.02099609375
3.874,310,391,380,312,-10.0,42.0,40.0,-10.681151390075684,4.33349609375,30.517576217651367,-0.6947021484375,0.3389892578125,-0.025390625
3.880,309,428,379,314,-10.0,42.0,40.0,-15.991209983825684,7.202147960662842,31.982419967651367,-0.545654296875,0.23779296875,0.039306640625
3.894,310,551,379,312,-10.0,42.0,40.0,-19.4091796875,7.019042491912842,31.738279342651367,-0.29833984375,0.10986328125,0.18994140625
3.933,309,638,415,314,-10.0,42.0,40.0,-19.83642578125,1.8310545682907104,28.930662155151367,0.153564453125,-0.04736328125,0.4122314453125
3.933,309,710,463,313,-10.0,42.0,40.0,-7.812499523162842,-9.33837890625,16.6015625,0.802734375,-0.2371826171875,0.60546875
3.933,308,935,545,314,-10.0,42.0,40.0,22.705076217651367,-27.648923873901367,-14.587401390075684,1.2479248046875,-0.3819580078125,0.557373046875
3.933,309,1081,601,314,-10.0,42.0,40.0,54.138179779052734,-53.405757904052734,-55.664058685302734,1.073974609375,-0.262451171875,0.3968505859375
3.942,315,1153,608,314,-10.0,42.0,40.0,70.9228515625,-80.38329315185547,-84.41161346435547,0.25927734375,0.3319091796875,0.089599609375
3.954,308,1251,654,314,-8.0,41.0,45.0,93.87206268310547,-76.35498046875,-92.28514862060547,-1.089599609375,1.1964111328125,-0.93212890625
3.962,310,1313,713,315,-8.0,41.0,45.0,120.23925018310547,-31.799314498901367,-81.66503143310547,-2.44970703125,2.0150146484375,-1.88330078125
3.970,310,1383,751,315,-8.0,41.0,45.0,76.96533203125,-7.202147960662842,-69.88525390625,-3.0447998046875,2.285888671875,-1.5677490234375
3.984,309,1476,794,314,-8.0,41.0,45.0,-62.011714935302734,-33.63037109375,-73.73046875,-2.9219970703125,1.5760498046875,-0.548095703125
3.992,309,1487,799,314,-8.0,41.0,45.0,-192.93211364746094,-67.5048828125,-70.4345703125,-2.5771484375,0.4119873046875,0.3966064453125
4.000,310,1471,794,314,-8.0,41.0,45.0,-208.12986755371094,-70.12939453125,-42.297359466552734,-2.2471923828125,-0.5439453125,0.94384765625
4.022,310,1428,778,314,-8.0,41.0,45.0,-112.24364471435547,-44.982906341552734,-12.084959983825684,-1.651611328125,-1.0748291015625,0.93310546875
4.032,310,1377,754,314,-8.0,41.0,45.0,23.742673873901367,-12.878417015075684,0.7934569716453552,-0.983154296875,-0.7198486328125,0.4808349609375
4.032,309,1351,744,314,-8.0,41.0,45.0,130.43212890625,13.366698265075684,1.220703125,-0.8150634765625,0.441650390625,-0.201904296875
4.045,310,1371,754,315,-8.0,41.0,45.0,157.470703125,27.038572311401367,-5.676269054412842,-1.0838623046875,1.3101806640625,-0.7159423828125
4.055,310,1365,751,314,-8.0,41.0,45.0,102.47801971435547,21.606443405151367,-16.17431640625,-1.625,1.4697265625,-0.8240966796875
4.060,308,1342,729,314,-9.0,39.0,44.0,10.437010765075684,1.6479490995407104,-20.263669967651367,-2.1722412109375,1.228515625,-0.61767578125
4.074,310,1251,669,314,-9.0,39.0,44.0,-68.84765625,-15.014647483825684,-10.681151390075684,-2.4287109375,0.880859375,-0.2845458984375
4.082,310,1182,642,314,-9.0,39.0,44.0,-111.51122283935547,-15.014647483825684,14.526366233825684,-2.351806640625,0.6754150390625,0.041748046875
4.090,309,1101,614,315,-9.0,39.0,44.0,-121.76512908935547,1.0986328125,48.522945404052734,-1.95947265625,0.5560302734375,0.3204345703125
4.105,310,948,594,314,-9.0,39.0,44.0,-109.61913299560547,25.390623092651367,76.66015625,-0.80810546875,-0.066162109375,0.5736083984375
4.140,310,835,561,314,-9.0,39.0,44.0,-73.66943359375,47.668453216552734,86.36473846435547,-0.80810546875,-0.066162109375,0.5736083984375
4.140,310,730,518,314,-9.0,39.0,44.0,-15.624999046325684,59.509273529052734,76.11083984375,-0.332275390625,-0.3115234375,0.5140380859375
4.141,309,562,430,301,-9.0,39.0,44.0,41.503902435302734,58.227535247802734,49.255367279052734,0.3662109375,-0.60400390625,0.0809326171875
4.144,309,502,414,313,-9.0,39.0,44.0,81.35985565185547,50.537105560302734,12.207030296325684,0.3662109375,-0.60400390625,0.0809326171875
4.151,310,465,408,313,-9.0,39.0,44.0,109.19188690185547,44.921871185302734,-19.287109375,0.3385009765625,-0.3402099609375,-0.1385498046875
4.168,310,388,406,313,-9.0,39.0,41.0,123.29100799560547,40.0390625,-31.982419967651367,-0.2791748046875,0.6361083984375,-0.32568359375
4.172,308,378,408,313,-9.0,39.0,41.0,120.23925018310547,33.87451171875,-28.137205123901367,-0.2791748046875,0.6361083984375,-0.32568359375
4.181,310,369,410,311,-9.0,39.0,41.0,104.00389862060547,30.090330123901367,-17.333984375,-0.4783935546875,1.08154296875,-0.4866943359375
4.194,308,357,411,311,-9.0,39.0,41.0,70.80078125,24.475095748901367,-4.69970703125,-0.9930419921875,0.992919921875,-0.5894775390625
4.202,310,338,411,312,-9.0,39.0,41.0,29.602048873901367,12.817381858825684,2.563476324081421,-0.9930419921875,0.992919921875,-0.5894775390625
4.210,310,328,408,312,-9.0,39.0,41.0,-3.662109136581421,-0.7324218153953552,-0.4272460639476776,-1.029296875,0.726806640625,-0.4752197265625
4.241,308,323,394,311,-9.0,39.0,41.0,-30.151365280151367,-10.559081077575684,-8.7890625,-0.759765625,0.2694091796875,-0.0244140625
4.241,298,322,395,311,-9.0,39.0,41.0,-51.757808685302734,-12.878417015075684,-14.160155296325684,-0.6961669921875,0.1451416015625,0.1005859375
4.241,308,310,379,312,-9.0,39.0,41.0,-63.354488372802734,-8.6669921875,-10.559081077575684,-0.6961669921875,0.1451416015625,0.1005859375
4.254,310,323,396,314,-9.0,41.0,38.0,-58.898921966552734,-3.967284917831421,9.82666015625,-0.7125244140625,0.06298828125,0.2275390625
4.262,310,323,398,312,-9.0,41.0,38.0,-58.898921966552734,-3.967284917831421,9.82666015625,-0.7310791015625,0.0958251953125,0.2427978515625
4.270,308,326,399,312,-9.0,41.0,38.0,-46.264644622802734,-5.981444835662842,14.526366233825684,-0.7310791015625,0.0958251953125,0.2427978515625
4.288,308,338,399,312,-9.0,41.0,38.0,-3.601073980331421,-3.723144292831421,21.850584030151367,-0.7662353515625,0.3538818359375,0.01318359375
4.292,308,340,398,312,-9.0,41.0,38.0,-3.601073980331421,-3.723144292831421,21.850584030151367,-0.783935546875,0.4658203125,-0.09228515625
4.300,310,349,394,312,-9.0,41.0,38.0,11.718749046325684,-0.7934569716453552,28.564451217651367,-0.783935546875,0.4658203125,-0.09228515625
4.314,309,379,381,313,-9.0,41.0,38.0,7.263183116912842,1.9531248807907104,38.330078125,-0.7825927734375,0.503662109375,-0.103515625
4.324,308,393,372,312,-9.0,41.0,38.0,7.263183116912842,1.9531248807907104,38.330078125,-0.7225341796875,0.4610595703125,-0.045654296875
4.345,308,415,356,312,-9.0,41.0,38.0,-5.0048828125,3.356933355331421,40.344234466552734,-0.7225341796875,0.4610595703125,-0.045654296875
4.345,309,481,354,298,-9.0,41.0,38.0,-23.071287155151367,5.615233898162842,42.480464935302734,-0.431884765625,0.252197265625,0.07470703125
4.352,307,572,354,314,-10.0,40.0,41.0,-23.071287155151367,5.615233898162842,42.480464935302734,-0.1162109375,0.136474609375,0.2196044921875
4.360,310,644,368,313,-10.0,40.0,41.0,-24.291990280151367,3.234863042831421,42.541500091552734,-0.1162109375,0.136474609375,0.2196044921875
4.374,309,827,476,314,-10.0,40.0,41.0,1.5258787870407104,-14.343260765075684,19.287109375,1.152099609375,-0.19873046875,0.660888671875
4.385,310,1005,545,314,-10.0,40.0,41.0,1.5258787870407104,-14.343260765075684,19.287109375,1.5047607421875,-0.4129638671875,0.6177978515625
4.393,310,1162,631,314,-10.0,40.0,41.0,29.479978561401367,-37.29248046875,-18.98193359375,1.0133056640625,-0.25634765625,0.3218994140625
4.404,310,1299,674,315,-10.0,40.0,41.0,86.48680877685547,-81.84813690185547,-109.98534393310547,-0.3079833984375,0.454833984375,-0.4998779296875
4.412,310,1365,726,315,-10.0,40.0,41.0,127.80760955810547,-58.349605560302734,-115.78368377685547,-2.1580810546875,1.483642578125,-1.848876953125
4.426,309,1450,780,315,-10.0,40.0,41.0,127.80760955810547,-58.349605560302734,-115.78368377685547,-3.52490234375,2.38330078125,-2.31396484375
4.450,311,1551,848,315,-10.0,40.0,41.0,-17.39501953125,-46.997066497802734,-83.25194549560547,-3.7342529296875,2.409912109375,-1.43359375
4.451,310,1561,861,314,-10.0,40.0,41.0,-222.77830505371094,-92.40721893310547,-68.78662109375,-3.2113037109375,1.3251953125,-0.05712890625
4.451,297,1541,865,301,-5.0,37.0,44.0,-222.77830505371094,-92.40721893310547,-68.78662109375,-2.50390625,-0.5081787109375,1.05517578125
4.463,309,1516,837,315,-5.0,37.0,44.0,-274.71923828125,-81.66503143310547,-17.08984375,-1.5784912109375,-1.939697265625,1.519775390625
4.471,310,1511,822,314,-5.0,37.0,44.0,-76.66015625,-34.0576171875,-3.662109136581421,-0.7393798828125,-1.619140625,1.333984375
4.486,310,1502,808,314,-5.0,37.0,44.0,123.41307830810547,5.737304210662842,3.479003667831421,-0.7740478515625,0.2259521484375,0.557861328125
4.493,310,1484,785,315,-5.0,37.0,44.0,203.73533630371094,33.3251953125,11.657713890075684,-1.6243896484375,1.8837890625,-0.38916015625
4.507,310,1443,763,315,-5.0,37.0,44.0,138.427734375,47.363277435302734,25.695798873901367,-2.3909912109375,2.151611328125,-0.8057861328125
4.518,310,1323,711,315,-5.0,37.0,44.0,11.108397483825684,52.856441497802734,46.386714935302734,-2.51611328125,1.398681640625,-0.482421875
4.557,310,1242,664,315,-5.0,37.0,44.0,-77.57568359375,62.561031341552734,72.6318359375,-2.177734375,0.5963134765625,0.1434326171875
4.561,310,1160,628,315,-5.0,37.0,44.0,-91.06444549560547,75.86669921875,95.39794158935547,-1.5703125,0.1474609375,0.525146484375
4.562,312,1008,594,300,-5.0,37.0,44.0,-45.593257904052734,84.96092987060547,99.73143768310547,-0.9344482421875,0.0738525390625,0.509765625
4.562,308,916,579,314,-9.0,39.0,43.0,12.084959983825684,82.45848846435547,80.38329315185547,-0.4256591796875,0.0594482421875,0.371826171875
4.562,310,799,543,314,-9.0,39.0,43.0,49.865718841552734,67.7490234375,44.860836029052734,-0.0328369140625,-0.171142578125,0.23583984375
4.575,310,631,453,314,-9.0,39.0,43.0,72.998046875,48.339839935302734,7.751464366912842,0.1533203125,-0.4073486328125,0.0286865234375
4.583,309,574,437,314,-9.0,39.0,43.0,95.64208221435547,34.36279296875,-18.9208984375,0.0980224609375,-0.4345703125,-0.2447509765625
4.591,310,527,414,314,-9.0,39.0,43.0,120.91063690185547,33.38623046875,-31.616209030151367,-0.1134033203125,-0.1429443359375,-0.466796875
4.604,309,473,414,314,-9.0,39.0,43.0,134.09423828125,40.405269622802734,-29.357908248901367,-0.431640625,0.3782958984375,-0.572998046875
4.630,309,444,415,313,-9.0,39.0,43.0,118.40819549560547,42.602535247802734,-16.357421875,-0.7177734375,0.85693359375,-0.6204833984375
4.630,296,416,408,297,-9.0,39.0,43.0,75.50048828125,34.1796875,-4.2724609375,-0.8177490234375,1.1175537109375,-0.6314697265625
4.652,312,378,401,312,-9.0,39.0,43.0,19.95849609375,18.6767578125,0.3662109076976776,-0.779296875,1.0523681640625,-0.55126953125
4.653,309,342,381,312,-9.0,39.0,43.0,-29.724119186401367,3.112792730331421,-1.4648436307907104,-0.7108154296875,0.7413330078125,-0.3746337890625
4.653,310,340,394,312,-11.0,43.0,38.0,-58.654781341552734,-7.324218273162842,-7.263183116912842,-0.6746826171875,0.44873046875,-0.17333984375
4.665,308,323,387,311,-11.0,43.0,38.0,-66.0400390625,-11.596678733825684,-13.366698265075684,-0.6624755859375,0.3170166015625,-0.011474609375
4.673,310,322,388,312,-11.0,43.0,38.0,-59.020992279052734,-11.047362327575684,-16.17431640625,-0.6929931640625,0.316162109375,0.0670166015625
4.681,309,322,386,311,-11.0,43.0,38.0,-45.654293060302734,-9.033203125,-14.404295921325684,-0.785400390625,0.3629150390625,0.0882568359375
4.695,308,322,387,312,-11.0,43.0,38.0,-33.50830078125,-10.253905296325684,-10.009765625,-0.830078125,0.3837890625,0.1322021484375
4.703,310,316,386,311,-11.0,43.0,38.0,-25.695798873901367,-14.221190452575684,-7.080077648162842,-0.780029296875,0.3428955078125,0.181884765625
4.711,308,322,386,311,-11.0,43.0,38.0,-17.7001953125,-15.747069358825684,-7.019042491912842,-0.7216796875,0.2781982421875,0.155029296875
4.745,308,323,387,310,-11.0,43.0,38.0,-5.371093273162842,-12.939452171325684,-7.202147960662842,-0.7144775390625,0.257080078125,0.0555419921875
4.758,310,324,391,312,-11.0,43.0,38.0,8.7890625,-8.11767578125,-4.2724609375,-0.7513427734375,0.295654296875,-0.036376953125
4.762,308,322,387,312,-11.0,43.0,38.0,17.7001953125,-4.08935546875,1.5258787870407104,-0.7880859375,0.3583984375,-0.0584716796875
4.763,309,305,367,298,-10.0,41.0,49.0,17.76123046875,-2.01416015625,8.056640625,-0.78466796875,0.3883056640625,-0.0205078125
4.763,310,338,384,312,-10.0,41.0,49.0,11.718749046325684,-0.7934569716453552,13.244627952575684,-0.73388671875,0.348388671875,0.01513671875
4.771,309,370,384,312,-10.0,41.0,49.0,4.2724609375,0.1831054538488388,16.6015625,-0.6558837890625,0.2691650390625,0.0047607421875
4.785,308,415,372,312,-10.0,41.0,49.0,-3.112792730331421,-0.1831054538488388,18.85986328125,-0.557861328125,0.2596435546875,-0.046142578125
4.795,310,441,368,313,-10.0,41.0,49.0,-10.437010765075684,-2.990722417831421,21.301267623901367,-0.557861328125,0.2596435546875,-0.046142578125
4.801,310,488,365,312,-10.0,41.0,49.0,-17.7001953125,-7.141112804412842,24.963376998901367,-0.523193359375,0.3360595703125,-0.026123046875
4.814,309,578,369,312,-10.0,41.0,49.0,-24.047849655151367,-10.803221702575684,29.357908248901367,-0.152587890625,0.3642578125,0.171875
4.823,310,654,380,314,-10.0,41.0,49.0,-23.254392623901367,-13.305663108825684,31.494138717651367,-0.152587890625,0.3642578125,0.171875
4.834,310,766,415,314,-10.0,41.0,49.0,-12.451170921325684,-19.10400390625,27.893064498901367,0.3267822265625,0.10595703125,0.4407958984375
4.853,310,1038,539,314,-10.0,41.0,49.0,17.39501953125,-35.400390625,8.97216796875,1.1651611328125,-0.3309326171875,0.2855224609375
4.854,310,1137,575,299,-9.0,42.0,40.0,75.01220703125,-60.852046966552734,-41.381832122802734,1.1651611328125,-0.3309326171875,0.2855224609375
4.868,310,1198,590,314,-9.0,42.0,40.0,114.86815643310547,-80.74950408935547,-98.32762908935547,0.1253662109375,0.2030029296875,-0.482421875
4.875,309,1334,689,315,-9.0,42.0,40.0,114.25780487060547,-71.8994140625,-108.21532440185547,-2.3416748046875,1.242919921875,-1.3770751953125
4.883,309,1411,750,315,-9.0,42.0,40.0,107.66600799560547,-34.85107421875,-75.86669921875,-2.3416748046875,1.242919921875,-1.3770751953125
4.891,310,1470,782,314,-9.0,42.0,40.0,57.739253997802734,-17.7001953125,-51.391597747802734,-2.597412109375,1.3316650390625,-0.906005859375
4.904,310,1529,809,315,-9.0,42.0,40.0,-56.884761810302734,-41.381832122802734,-47.790523529052734,-2.4541015625,0.7545166015625,0.2523193359375
4.913,310,1528,813,315,-9.0,42.0,40.0,-146.8505859375,-65.673828125,-41.992183685302734,-2.4541015625,0.7545166015625,0.2523193359375
4.921,310,1502,808,315,-9.0,42.0,40.0,-152.77099609375,-64.39208984375,-25.146482467651367,-2.5035400390625,0.3011474609375,0.6405029296875
4.941,309,1458,767,314,-9.0,42.0,40.0,-8.60595703125,-26.672361373901367,0.0610351525247097,-1.31787109375,-0.4522705078125,0.53515625
4.945,309,1437,756,315,-9.0,42.0,40.0,-8.60595703125,-26.672361373901367,0.0610351525247097,-0.703369140625,0.15087890625,0.071533203125
4.970,311,1444,765,315,-6.0,38.0,45.0,66.7724609375,-11.596678733825684,-0.8544921278953552,-0.703369140625,0.15087890625,0.071533203125
4.973,310,1422,763,314,-6.0,38.0,45.0,62.622066497802734,11.779784202575684,-8.30078125,-1.5743408203125,1.3055419921875,-0.5853271484375
4.973,296,1392,747,314,-6.0,38.0,45.0,62.622066497802734,11.779784202575684,-8.30078125,-2.1966552734375,1.1783447265625,-0.4407958984375
4.981,308,1346,726,314,-6.0,38.0,45.0,-6.591796398162842,11.474608421325684,-0.30517578125,-2.1966552734375,1.1783447265625,-0.4407958984375
4.995,310,1243,673,314,-6.0,38.0,45.0,-97.90038299560547,24.414060592651367,50.476070404052734,-2.1929931640625,0.5482177734375,0.31396484375
5.003,310,1175,636,315,-6.0,38.0,45.0,-97.90038299560547,24.414060592651367,50.476070404052734,-1.6787109375,0.3216552734375,0.5152587890625
5.011,309,1096,620,314,-6.0,38.0,45.0,-98.44969940185547,42.602535247802734,80.13916015625,-1.6787109375,0.3216552734375,0.5152587890625
5.025,310,967,586,314,-6.0,38.0,45.0,-26.245115280151367,67.3828125,82.45848846435547,-0.505859375,-0.0570068359375,0.4027099609375
5.060,310,878,535,314,-6.0,38.0,45.0,-26.245115280151367,67.3828125,82.45848846435547,-0.1312255859375,-0.205078125,0.2432861328125
5.060,310,780,479,299,-6.0,38.0,45.0,19.22607421875,64.208984375,57.922359466552734,-0.1312255859375,-0.205078125,0.2432861328125
5.060,308,658,437,314,-10.0,40.0,40.0,70.556640625,39.12353515625,7.873534679412842,0.0816650390625,-0.2413330078125,-0.2081298828125
5.080,309,601,420,315,-10.0,40.0,40.0,70.556640625,39.12353515625,7.873534679412842,-0.0533447265625,-0.003173828125,-0.4578857421875
5.080,308,562,420,314,-10.0,40.0,40.0,85.38817596435547,36.31591796875,-10.070799827575684,-0.0533447265625,-0.003173828125,-0.4578857421875
5.085,309,497,417,314,-10.0,40.0,40.0,71.6552734375,37.7197265625,-10.925292015075684,-0.6221923828125,0.8363037109375,-0.598876953125
5.093,309,469,419,314,-10.0,40.0,40.0,32.958984375,26.245115280151367,-0.9765624403953552,-0.79443359375,1.08349609375,-0.5679931640625
5.102,308,439,413,314,-10.0,40.0,40.0,32.958984375,26.245115280151367,-0.9765624403953552,-0.8258056640625,1.0125732421875,-0.48876953125
5.115,310,406,400,312,-10.0,40.0,40.0,-51.635738372802734,-1.220703125,3.417968511581421,-0.7928466796875,0.720458984375,-0.352294921875
5.123,309,390,396,313,-10.0,40.0,40.0,-73.42529296875,-8.30078125,-1.5869139432907104,-0.74462890625,0.4365234375,-0.1607666015625
5.131,308,371,387,314,-10.0,40.0,40.0,-73.42529296875,-8.30078125,-1.5869139432907104,-0.6864013671875,0.259033203125,0.0374755859375
5.145,302,337,381,314,-9.0,40.0,40.0,-72.44873046875,-8.97216796875,-7.507323741912842,-0.68505859375,0.207275390625,0.14794921875
5.163,308,326,377,312,-9.0,40.0,40.0,-55.908199310302734,-5.554198741912842,-4.638671875,-0.75537109375,0.2542724609375,0.1790771484375
5.164,310,322,373,313,-9.0,40.0,40.0,-55.908199310302734,-5.554198741912842,-4.638671875,-0.8077392578125,0.2991943359375,0.2156982421875
5.188,308,322,379,312,-9.0,40.0,40.0,-32.958984375,-10.925292015075684,4.69970703125,-0.810302734375,0.295166015625,0.247314453125
5.191,310,321,380,314,-9.0,40.0,40.0,-23.132322311401367,-13.366698265075684,5.798339366912842,-0.8046875,0.290283203125,0.2039794921875
5.192,309,319,379,311,-9.0,40.0,40.0,-23.132322311401367,-13.366698265075684,5.798339366912842,-0.81103515625,0.330322265625,0.089111328125
5.205,308,322,379,313,-9.0,40.0,40.0,12.573241233825684,-4.7607421875,9.521484375,-0.817138671875,0.409423828125,-0.0147705078125
5.213,310,322,379,311,-9.0,40.0,40.0,23.864744186401367,0.30517578125,13.488768577575684,-0.7943115234375,0.480712890625,-0.0426025390625
5.221,308,328,380,312,-9.0,40.0,40.0,23.864744186401367,0.30517578125,13.488768577575684,-0.73388671875,0.487548828125,-0.0142822265625
5.234,308,336,379,313,-9.0,40.0,40.0,15.075682640075684,3.845214605331421,15.869139671325684,-0.657470703125,0.4163818359375,0.02978515625
5.243,308,345,378,312,-9.0,40.0,40.0,3.967284917831421,3.845214605331421,13.732909202575684,-0.5762939453125,0.3052978515625,0.06884765625
5.265,308,387,372,312,-10.0,39.0,43.0,-3.540038824081421,3.051757574081421,11.657713890075684,-0.4759521484375,0.2073974609375,0.0828857421875
5.265,309,441,352,313,-10.0,39.0,43.0,-5.371093273162842,1.3427733182907104,10.681151390075684,-0.3623046875,0.164306640625,0.0999755859375
5.273,309,538,363,314,-10.0,39.0,43.0,-2.0751953125,-2.929687261581421,11.291502952575684,-0.247314453125,0.1881103515625,0.17919921875
5.281,310,616,370,313,-10.0,39.0,43.0,8.9111328125,-9.8876953125,13.488768577575684,0.110595703125,0.146728515625,0.320068359375
5.296,309,794,426,314,-10.0,39.0,43.0,33.69140625,-17.02880859375,9.033203125,0.710205078125,-0.0435791015625,0.4456787109375
5.306,309,933,496,314,-10.0,39.0,43.0,63.598628997802734,-31.127927780151367,-15.624999046325684,1.1368408203125,-0.1697998046875,0.4078369140625
5.312,310,1056,557,314,-10.0,39.0,43.0,73.8525390625,-60.485836029052734,-59.020992279052734,0.934814453125,-0.006591796875,0.172607421875
5.325,309,1189,594,314,-10.0,39.0,43.0,58.044429779052734,-88.56200408935547,-94.36034393310547,-0.00048828125,0.3638916015625,-0.32421875
5.333,310,1251,630,315,-10.0,39.0,43.0,62.866207122802734,-75.13427734375,-94.29930877685547,-1.37109375,0.830810546875,-1.1783447265625
5.347,309,1323,706,314,-10.0,39.0,43.0,97.16796112060547,-29.663084030151367,-65.00244140625,-2.44775390625,1.39892578125,-1.562255859375
5.366,308,1454,780,315,-8.0,40.0,45.0,67.3828125,-20.141599655151367,-42.907711029052734,-2.846923828125,1.5784912109375,-0.9620361328125
5.366,310,1486,806,315,-8.0,40.0,45.0,-43.945308685302734,-56.945796966552734,-42.114253997802734,-2.8533935546875,1.1358642578125,-0.0703125
5.371,308,1504,813,316,-8.0,40.0,45.0,-129.33349609375,-84.16747283935547,-40.771480560302734,-2.719970703125,0.4920654296875,0.59228515625
5.385,306,1456,772,314,-8.0,40.0,45.0,-123.53514862060547,-72.08251953125,-29.235837936401367,-2.540283203125,-0.0345458984375,0.8428955078125
5.399,308,1419,754,315,-8.0,40.0,45.0,-55.114742279052734,-39.306640625,-17.39501953125,-1.8447265625,-0.3656005859375,0.6937255859375
5.407,310,1411,754,314,-8.0,40.0,45.0,22.094724655151367,-9.033203125,-13.549803733825684,-0.917724609375,-0.1593017578125,0.3310546875
5.414,310,1411,763,315,-8.0,40.0,45.0,72.57080078125,14.648436546325684,-15.624999046325684,-0.772216796875,0.649658203125,-0.1251220703125
5.423,310,1393,749,315,-8.0,40.0,45.0,69.76318359375,28.015134811401367,-16.78466796875,-1.41748046875,1.2916259765625,-0.4779052734375
5.431,309,1365,708,315,-8.0,40.0,45.0,11.291502952575684,28.930662155151367,-13.916014671325684,-2.11669921875,1.310302734375,-0.5069580078125
5.449,310,1274,654,314,-5.0,39.0,49.0,-61.462398529052734,29.296873092651367,-3.967284917831421,-2.394287109375,0.9267578125,-0.2589111328125
5.467,308,1202,608,314,-5.0,39.0,49.0,-107.29979705810547,40.283199310302734,17.822265625,-2.287841796875,0.5479736328125,0.1112060546875
5.467,309,1122,592,314,-5.0,39.0,49.0,-118.16405487060547,59.875484466552734,50.231929779052734,-1.9510498046875,0.3475341796875,0.4068603515625
5.474,310,966,554,314,-5.0,39.0,49.0,-101.50145721435547,79.40673828125,80.01708984375,-1.480224609375,0.25390625,0.479736328125
5.483,310,854,522,314,-5.0,39.0,49.0,-65.36865234375,92.04100799560547,91.18651580810547,-0.95751953125,0.1495361328125,0.3792724609375
5.491,309,763,456,314,-5.0,39.0,49.0,-21.972654342651367,92.59032440185547,78.79638671875,-0.4337158203125,-0.0418701171875,0.2294921875
5.504,309,572,393,314,-5.0,39.0,49.0,13.244627952575684,77.880859375,49.682613372802734,0.0357666015625,-0.3775634765625,0.0946044921875
5.519,308,513,388,314,-5.0,39.0,49.0,35.400390625,53.833003997802734,15.014647483825684,0.3619384765625,-0.6505126953125,-0.0313720703125
5.521,309,481,384,314,-5.0,39.0,49.0,54.504390716552734,35.400390625,-13.366698265075684,0.4368896484375,-0.544921875,-0.109130859375
5.534,310,394,387,312,-5.0,39.0,49.0,73.3642578125,28.686521530151367,-27.893064498901367,0.1324462890625,-0.1075439453125,-0.143310546875
5.551,309,382,391,310,-7.0,40.0,40.0,86.73094940185547,29.174802780151367,-27.160642623901367,-0.2703857421875,0.4825439453125,-0.251708984375
5.551,308,379,382,310,-7.0,40.0,40.0,88.98925018310547,31.372068405151367,-15.136717796325684,-0.479248046875,1.0640869140625,-0.4322509765625
5.569,308,355,387,308,-7.0,40.0,40.0,65.24658203125,28.564451217651367,0.6103515625,-1.01318359375,1.126708984375,-0.5592041015625
5.573,308,338,384,310,-7.0,40.0,40.0,23.254392623901367,17.02880859375,9.8876953125,-1.01318359375,1.126708984375,-0.5592041015625
5.581,310,329,379,312,-7.0,40.0,40.0,-10.375975608825684,1.5869139432907104,5.493163585662842,-1.047119140625,0.8211669921875,-0.4375
5.595,308,324,380,312,-7.0,40.0,40.0,-31.860349655151367,-9.21630859375,-7.507323741912842,-0.76708984375,0.3270263671875,-0.0335693359375
5.614,310,319,379,312,-7.0,40.0,40.0,-48.034664154052734,-11.352538108825684,-18.12744140625,-0.76708984375,0.3270263671875,-0.0335693359375
5.614,311,321,379,310,-7.0,40.0,40.0,-56.701656341552734,-7.568358898162842,-18.49365234375,-0.7088623046875,0.2015380859375,0.0670166015625
5.625,310,322,380,311,-7.0,40.0,40.0,-55.480953216552734,-4.08935546875,-9.8876953125,-0.7232666015625,0.099853515625,0.2098388671875
5.633,309,323,382,312,-7.0,40.0,40.0,-49.865718841552734,-5.615233898162842,-0.2441406100988388,-0.7232666015625,0.099853515625,0.2098388671875
5.641,308,324,384,312,-14.0,40.0,46.0,-41.198726654052734,-10.375975608825684,4.638671875,-0.707763671875,0.0538330078125,0.2530517578125
5.654,308,329,386,311,-14.0,40.0,46.0,-23.071287155151367,-12.573241233825684,6.164550304412842,-0.7489013671875,0.222900390625,0.0196533203125
5.666,308,337,387,312,-14.0,40.0,46.0,4.150390625,-10.375975608825684,9.27734375,-0.7489013671875,0.222900390625,0.0196533203125
5.673,310,356,384,312,-14.0,40.0,46.0,26.855466842651367,-7.080077648162842,16.17431640625,-0.7899169921875,0.370361328125,-0.087890625
5.685,309,384,386,312,-14.0,40.0,46.0,34.36279296875,-5.493163585662842,23.559568405151367,-0.74951171875,0.420654296875,-0.04345703125
5.693,310,395,384,312,-14.0,40.0,46.0,28.625486373901367,-5.432128429412842,27.709959030151367,-0.693603515625,0.3712158203125,0.0089111328125
5.701,310,411,383,312,-14.0,40.0,46.0,17.39501953125,-5.676269054412842,28.625486373901367,-0.693603515625,0.3712158203125,0.0089111328125
5.718,310,447,381,312,-14.0,40.0,46.0,1.220703125,-4.94384765625,31.921384811401367,-0.59423828125,0.3148193359375,-0.0098876953125
5.723,310,481,381,313,-14.0,40.0,46.0,1.220703125,-4.94384765625,31.921384811401367,-0.443115234375,0.3238525390625,0.0068359375
5.731,314,530,382,312,-14.0,40.0,46.0,-1.8310545682907104,-4.69970703125,35.46142578125,-0.443115234375,0.3238525390625,0.0068359375
5.745,310,643,371,313,-10.0,41.0,44.0,-0.9155272841453552,-12.145995140075684,31.677244186401367,0.1680908203125,0.14208984375,0.272216796875
5.756,310,758,391,314,-10.0,41.0,44.0,-0.9155272841453552,-12.145995140075684,31.677244186401367,0.5556640625,-0.009765625,0.387451171875
5.773,308,916,454,314,-10.0,41.0,44.0,12.268065452575684,-27.343748092651367,16.41845703125,0.5556640625,-0.009765625,0.387451171875
5.776,310,1117,519,314,-10.0,41.0,44.0,51.391597747802734,-75.68359375,-53.649898529052734,0.5123291015625,0.0906982421875,-0.0184326171875
5.786,310,1188,543,314,-10.0,41.0,44.0,51.391597747802734,-75.68359375,-53.649898529052734,-0.5316162109375,0.31982421875,-0.7042236328125
5.791,310,1258,585,314,-10.0,41.0,44.0,77.94189453125,-67.44384765625,-77.7587890625,-0.5316162109375,0.31982421875,-0.7042236328125
5.804,310,1375,673,315,-10.0,41.0,44.0,106.68944549560547,-11.840819358825684,-46.936031341552734,-2.1839599609375,1.1785888671875,-1.0860595703125
5.813,310,1443,737,315,-10.0,41.0,44.0,106.68944549560547,-11.840819358825684,-46.936031341552734,-2.4444580078125,1.265625,-0.5828857421875
5.826,310,1488,770,315,-10.0,41.0,44.0,28.320310592651367,-31.372068405151367,-35.5224609375,-2.4444580078125,1.265625,-0.5828857421875
5.835,310,1518,782,315,-10.0,41.0,44.0,-100.03661346435547,-78.79638671875,-18.6767578125,-2.66650390625,0.8572998046875,0.3912353515625
5.843,310,1490,784,316,-8.0,39.0,43.0,-82.27538299560547,-66.58935546875,-7.873534679412842,-2.3831787109375,0.355224609375,0.6756591796875
5.879,310,1473,770,315,-8.0,39.0,43.0,-82.27538299560547,-66.58935546875,-7.873534679412842,-1.5810546875,-0.1549072265625,0.7135009765625
5.880,310,1447,756,315,-8.0,39.0,43.0,28.198240280151367,-8.23974609375,-11.291502952575684,-0.7913818359375,0.0111083984375,0.4390869140625
5.880,309,1447,763,315,-8.0,39.0,43.0,69.7021484375,16.357421875,-20.202634811401367,-0.8197021484375,0.7633056640625,-0.0927734375
5.881,310,1409,763,313,-8.0,39.0,43.0,69.7021484375,16.357421875,-20.202634811401367,-1.4764404296875,1.255126953125,-0.5257568359375
5.895,310,1392,739,315,-8.0,39.0,43.0,3.173827886581421,30.639646530151367,-30.822751998901367,-2.0838623046875,1.2174072265625,-0.5677490234375
5.903,310,1348,703,315,-8.0,39.0,43.0,-63.720699310302734,30.334470748901367,-22.827146530151367,-2.324951171875,0.8953857421875,-0.306396484375
5.911,309,1271,662,315,-8.0,39.0,43.0,-63.720699310302734,30.334470748901367,-22.827146530151367,-2.291259765625,0.634033203125,0.0128173828125
5.932,310,1122,601,314,-8.0,39.0,43.0,-115.29540252685547,55.908199310302734,27.343748092651367,-2.0579833984375,0.5203857421875,0.25341796875
5.933,310,1031,548,314,-8.0,39.0,43.0,-100.58592987060547,75.86669921875,56.884761810302734,-1.621826171875,0.412109375,0.36376953125
5.941,309,944,557,314,-7.0,39.0,37.0,-100.58592987060547,75.86669921875,56.884761810302734,-1.008056640625,0.17236328125,0.353515625
5.961,310,756,454,314,-7.0,39.0,37.0,-29.602048873901367,87.89061737060547,67.93212890625,-0.365478515625,-0.214599609375,0.28515625
5.980,311,634,401,314,-7.0,39.0,37.0,10.620116233825684,70.556640625,41.015621185302734,0.128662109375,-0.66064453125,0.1927490234375
5.980,310,535,387,312,-7.0,39.0,37.0,10.620116233825684,70.556640625,41.015621185302734,0.4129638671875,-0.8922119140625,0.02978515625
5.985,310,475,401,310,-7.0,39.0,37.0,79.52880859375,27.893064498901367,-20.568845748901367,0.4486083984375,-0.660888671875,-0.1370849609375
6.022,309,424,402,310,-7.0,39.0,37.0,108.76464080810547,19.8974609375,-31.433103561401367,0.085693359375,-0.0902099609375,-0.2286376953125
6.022,310,386,386,310,-7.0,39.0,37.0,122.61962127685547,15.930174827575684,-26.123044967651367,-0.39794921875,0.5584716796875,-0.374755859375
6.022,310,367,370,296,-7.0,39.0,37.0,115.96678924560547,14.160155296325684,-11.657713890075684,-0.570556640625,1.144287109375,-0.595947265625
6.026,296,359,384,308,-7.0,39.0,37.0,76.72119140625,12.268065452575684,3.906249761581421,-0.744140625,1.31884765625,-0.703125
6.116,308,337,387,310,-7.0,39.0,37.0,16.845703125,3.906249761581421,14.343260765075684,-0.99755859375,1.0341796875,-0.6226806640625
6.117,309,326,387,311,-11.0,40.0,45.0,16.845703125,3.906249761581421,14.343260765075684,-1.0137939453125,0.7286376953125,-0.4276123046875
6.117,296,322,384,310,-11.0,40.0,45.0,-43.579097747802734,-20.080564498901367,2.38037109375,-0.869873046875,0.5260009765625,-0.19189453125
6.117,310,316,382,310,-11.0,40.0,45.0,-49.987789154052734,-22.949216842651367,-9.82666015625,-0.7572021484375,0.359619140625,-0.013427734375
6.117,309,316,380,310,-11.0,40.0,45.0,-52.185054779052734,-20.507810592651367,-13.854979515075684,-0.73779296875,0.2568359375,0.0533447265625
6.117,310,317,380,310,-11.0,40.0,45.0,-51.818843841552734,-18.1884765625,-7.629394054412842,-0.74560546875,0.2059326171875,0.0830078125
6.117,309,317,377,312,-11.0,40.0,45.0,-49.560543060302734,-19.287109375,2.197265625,-0.720458984375,0.1434326171875,0.137451171875
6.117,310,315,371,311,-11.0,40.0,45.0,-43.334957122802734,-22.155759811401367,8.60595703125,-0.679443359375,0.080322265625,0.17822265625
6.117,296,322,360,312,-11.0,40.0,45.0,-31.677244186401367,-22.399900436401367,11.413573265075684,-0.6522216796875,0.0908203125,0.1707763671875
6.123,308,325,373,310,-11.0,40.0,45.0,-16.54052734375,-17.578125,14.465331077575684,-0.670654296875,0.2054443359375,0.1292724609375
6.130,309,338,377,312,-11.0,40.0,45.0,-2.3193359375,-10.253905296325684,19.8974609375,-0.7274169921875,0.357177734375,0.0992431640625
6.143,308,372,379,312,-9.0,40.0,42.0,5.737304210662842,-5.0048828125,25.878904342651367,-0.761962890625,0.4456787109375,0.095703125
6.152,308,401,374,312,-9.0,40.0,42.0,5.798339366912842,-2.929687261581421,29.541013717651367,-0.72216796875,0.42529296875,0.0838623046875
6.166,310,428,369,311,-9.0,40.0,42.0,0.9765624403953552,-2.25830078125,30.273435592651367,-0.597900390625,0.3001708984375,0.0372314453125
6.184,309,495,361,310,-9.0,40.0,42.0,-6.652831554412842,-1.2817381620407104,29.724119186401367,-0.406005859375,0.17919921875,-0.0179443359375
6.184,310,548,356,310,-9.0,40.0,42.0,-16.90673828125,0.4882812201976776,29.968259811401367,-0.1378173828125,0.1937255859375,0.063232421875
6.199,310,603,349,313,-9.0,40.0,42.0,-27.099607467651367,2.25830078125,28.198240280151367,0.171630859375,0.320068359375,0.3936767578125
6.204,310,799,363,314,-9.0,40.0,42.0,-28.320310592651367,-0.1831054538488388,14.953612327575684,0.4200439453125,0.3714599609375,0.82666015625
6.212,310,975,437,314,-9.0,40.0,42.0,-1.6479490995407104,-13.671874046325684,-16.7236328125,0.5936279296875,0.2689208984375,0.955078125
6.220,310,1094,472,314,-9.0,40.0,42.0,41.992183685302734,-38.57421875,-64.27001953125,0.527587890625,0.2294921875,0.3326416015625
6.233,308,1204,488,314,-9.0,40.0,42.0,58.288570404052734,-56.335445404052734,-109.49706268310547,-0.2275390625,0.31591796875,-0.8358154296875
6.251,310,1258,508,314,-7.0,38.0,44.0,48.889156341552734,-47.485347747802734,-115.90575408935547,-1.50048828125,0.50634765625,-1.652099609375
6.252,309,1313,564,315,-7.0,38.0,44.0,47.851558685302734,-24.414060592651367,-83.19091033935547,-2.271728515625,0.7781982421875,-1.5592041015625
6.269,308,1406,662,314,-7.0,38.0,44.0,25.268552780151367,-22.521970748901367,-56.762691497802734,-2.2578125,0.7786865234375,-0.7608642578125
6.284,310,1450,694,315,-7.0,38.0,44.0,-35.0341796875,-48.156734466552734,-48.889156341552734,-2.12744140625,0.57373046875,0.0
6.285,310,1486,718,315,-7.0,38.0,44.0,-70.61767578125,-72.3876953125,-39.73388671875,-2.206298828125,0.512451171875,0.30224609375
6.294,310,1474,728,315,-7.0,38.0,44.0,-55.480953216552734,-78.18603515625,-25.024412155151367,-2.31201171875,0.5947265625,0.3817138671875
6.308,310,1456,711,314,-7.0,38.0,44.0,-21.728513717651367,-68.90869140625,-14.038084983825684,-2.1304931640625,0.583984375,0.38916015625
6.310,299,1422,697,315,-7.0,38.0,44.0,5.493163585662842,-49.621578216552734,-15.502928733825684,-1.4959716796875,0.33544921875,0.315185546875
6.323,309,1416,705,315,-7.0,38.0,44.0,25.756834030151367,-25.756834030151367,-27.343748092651367,-0.9056396484375,0.30517578125,0.1307373046875
6.332,310,1415,711,315,-7.0,38.0,44.0,34.72900390625,-6.408690929412842,-40.649410247802734,-0.9500732421875,0.6512451171875,-0.1435546875
6.340,310,1399,702,317,-4.0,39.0,46.0,14.831542015075684,-0.2441406100988388,-49.621578216552734,-1.506591796875,0.93994140625,-0.3212890625
6.355,308,1351,676,315,-4.0,39.0,46.0,-33.50830078125,-5.859374523162842,-50.842281341552734,-2.0687255859375,0.9075927734375,-0.2921142578125
6.380,310,1286,654,315,-4.0,39.0,46.0,-83.49608612060547,-13.244627952575684,-42.236324310302734,-2.2802734375,0.635986328125,-0.1142578125
6.407,310,1214,633,315,-4.0,39.0,46.0,-110.10741424560547,-13.183592796325684,-23.498533248901367,-2.1568603515625,0.4332275390625,0.0997314453125
6.407,310,1055,586,315,-4.0,39.0,46.0,-109.74120330810547,-1.6479490995407104,3.112792730331421,-1.562744140625,0.35595703125,0.332275390625
6.422,310,969,548,301,-4.0,39.0,46.0,-94.66551971435547,20.080564498901367,32.5927734375,-1.562744140625,0.35595703125,0.332275390625
6.428,306,873,537,314,-4.0,39.0,46.0,-69.39697265625,47.790523529052734,60.729976654052734,-1.26220703125,0.1104736328125,0.372314453125
6.439,309,705,465,314,-4.0,39.0,46.0,-29.357908248901367,73.66943359375,82.94676971435547,-0.214599609375,-0.73974609375,0.3133544921875
6.439,310,594,396,314,-4.0,39.0,46.0,15.808104515075684,86.05956268310547,88.01268768310547,-0.214599609375,-0.73974609375,0.3133544921875
6.439,308,543,387,314,-4.0,39.0,46.0,48.767086029052734,77.94189453125,69.76318359375,0.31298828125,-0.9400634765625,0.19287109375
6.444,308,472,382,314,-6.0,41.0,45.0,69.4580078125,58.166500091552734,37.841796875,0.3033447265625,-0.234619140625,-0.0296630859375
6.453,310,425,384,312,-6.0,41.0,45.0,82.03124237060547,36.865234375,6.225585460662842,0.3033447265625,-0.234619140625,-0.0296630859375
6.461,308,399,386,314,-6.0,41.0,45.0,89.84374237060547,18.798828125,-13.793944358825684,-0.096923828125,0.3704833984375,-0.0777587890625
6.473,309,371,382,312,-6.0,41.0,45.0,92.71239471435547,9.94873046875,-14.831542015075684,-0.6197509765625,1.405029296875,-0.451904296875
6.492,309,363,382,312,-6.0,41.0,45.0,74.3408203125,9.765625,2.685546636581421,-0.6197509765625,1.405029296875,-0.451904296875
6.492,309,336,386,313,-6.0,41.0,45.0,34.7900390625,11.657713890075684,22.033689498901367,-0.94384765625,1.29296875,-0.5274658203125
6.505,309,328,386,312,-6.0,41.0,45.0,2.13623046875,11.962889671325684,22.521970748901367,-1.08203125,0.57177734375,-0.24462890625
6.512,310,322,380,312,-6.0,41.0,45.0,-14.099120140075684,7.995604991912842,7.324218273162842,-1.08203125,0.57177734375,-0.24462890625
6.521,308,317,380,312,-6.0,41.0,45.0,-28.076169967651367,1.4038084745407104,-7.568358898162842,-0.9061279296875,0.343994140625,-0.0364990234375
6.537,308,316,380,311,-6.0,41.0,45.0,-50.659175872802734,-0.3662109076976776,-4.69970703125,-0.7830810546875,0.1103515625,0.126708984375
6.542,307,316,380,312,-7.0,38.0,42.0,-50.659175872802734,-0.3662109076976776,-4.69970703125,-0.7530517578125,0.0521240234375,0.2188720703125
6.550,310,315,384,310,-7.0,38.0,42.0,-52.307125091552734,-1.7700194120407104,7.141112804412842,-0.7530517578125,0.0521240234375,0.2188720703125
6.576,310,315,384,310,-7.0,38.0,42.0,-18.5546875,-4.7607421875,23.803709030151367,-0.7154541015625,0.0501708984375,0.1875
6.576,310,315,371,299,-7.0,38.0,42.0,-18.5546875,-4.7607421875,23.803709030151367,-0.738525390625,0.1917724609375,0.038818359375
6.595,308,316,382,312,-7.0,38.0,42.0,9.3994140625,-1.5258787870407104,30.456541061401367,-0.738525390625,0.1917724609375,0.038818359375
6.595,308,336,383,314,-7.0,38.0,42.0,27.465818405151367,4.5166015625,43.334957122802734,-0.7628173828125,0.4539794921875,-0.0216064453125
6.604,309,345,380,312,-7.0,38.0,42.0,27.465818405151367,4.5166015625,43.334957122802734,-0.7640380859375,0.47412109375,0.0316162109375
6.610,308,371,386,313,-7.0,38.0,42.0,18.49365234375,5.981444835662842,45.288082122802734,-0.7640380859375,0.47412109375,0.0316162109375
6.624,309,408,385,312,-7.0,38.0,42.0,1.9531248807907104,9.033203125,42.480464935302734,-0.663818359375,0.3453369140625,0.0174560546875
6.634,308,423,382,313,-7.0,38.0,42.0,1.9531248807907104,9.033203125,42.480464935302734,-0.6187744140625,0.3206787109375,-0.0267333984375
6.646,309,452,382,313,-9.0,40.0,41.0,-2.563476324081421,9.09423828125,44.555660247802734,-0.6187744140625,0.3206787109375,-0.0267333984375
6.653,310,535,380,313,-9.0,40.0,41.0,-9.3994140625,7.446288585662842,53.100582122802734,-0.318603515625,0.3179931640625,0.093994140625
6.662,309,586,372,314,-9.0,40.0,41.0,-9.3994140625,7.446288585662842,53.100582122802734,0.076416015625,0.189697265625,0.34033203125
6.697,310,671,393,314,-9.0,40.0,41.0,-10.620116233825684,6.408690929412842,48.767086029052734,0.076416015625,0.189697265625,0.34033203125
6.698,309,910,502,315,-9.0,40.0,41.0,7.873534679412842,-22.949216842651367,3.112792730331421,0.872314453125,-0.10595703125,0.5654296875
6.698,296,1025,546,314,-9.0,40.0,41.0,23.559568405151367,-54.260250091552734,-42.480464935302734,0.733154296875,-0.0235595703125,0.242919921875
6.700,309,1091,561,314,-9.0,40.0,41.0,23.559568405151367,-54.260250091552734,-42.480464935302734,-0.0623779296875,0.2000732421875,-0.320556640625
6.713,308,1183,601,314,-9.0,40.0,41.0,80.44432830810547,-42.297359466552734,-80.68846893310547,-1.3575439453125,0.6710205078125,-1.0577392578125
6.722,309,1245,654,315,-9.0,40.0,41.0,119.20165252685547,-1.220703125,-50.048824310302734,-2.3236083984375,1.3397216796875,-1.348388671875
6.730,311,1306,683,314,-9.0,40.0,41.0,119.20165252685547,-1.220703125,-50.048824310302734,-2.652099609375,1.5311279296875,-0.9549560546875
6.744,309,1373,726,315,-7.0,41.0,42.0,-37.353515625,-36.62109375,-22.521970748901367,-2.7393798828125,1.1259765625,-0.3468017578125
6.759,308,1392,741,314,-7.0,41.0,42.0,-110.71776580810547,-64.02587890625,-14.282225608825684,-2.6878662109375,0.670166015625,0.208740234375
6.760,309,1369,723,315,-7.0,41.0,42.0,-110.71776580810547,-64.02587890625,-14.282225608825684,-2.3822021484375,0.2908935546875,0.5889892578125
6.801,310,1336,689,315,-7.0,41.0,42.0,-40.588375091552734,-43.151851654052734,14.160155296325684,-1.571044921875,-0.11279296875,0.6881103515625
6.801,296,1279,671,315,-7.0,41.0,42.0,32.40966796875,-17.51708984375,10.009765625,-0.7750244140625,-0.095703125,0.4892578125
6.801,310,1273,662,315,-7.0,41.0,42.0,32.40966796875,-17.51708984375,10.009765625,-0.6995849609375,0.5745849609375,0.0546875
6.804,309,1300,691,315,-7.0,41.0,42.0,98.51073455810547,22.949216842651367,-8.85009765625,-1.21240234375,1.2264404296875,-0.3709716796875
6.812,309,1284,691,315,-7.0,41.0,42.0,55.786128997802734,26.489255905151367,-18.06640625,-1.8194580078125,1.3817138671875,-0.5394287109375
6.820,309,1253,682,315,-7.0,41.0,42.0,55.786128997802734,26.489255905151367,-18.06640625,-2.1298828125,1.1502685546875,-0.42626953125
6.834,310,1172,639,314,-8.0,40.0,44.0,-70.068359375,23.498533248901367,-14.831542015075684,-2.1204833984375,0.8125,-0.1666259765625
6.842,309,1105,608,315,-8.0,40.0,44.0,-96.06932830810547,34.423828125,2.25830078125,-1.9376220703125,0.5723876953125,0.1219482421875
6.850,310,1039,587,315,-8.0,40.0,44.0,-96.55760955810547,51.208492279052734,24.719236373901367,-1.6229248046875,0.419189453125,0.3173828125
6.863,308,931,551,314,-8.0,40.0,44.0,-79.2236328125,64.39208984375,42.846675872802734,-1.1407470703125,0.2000732421875,0.3603515625
6.872,310,847,512,314,-8.0,40.0,44.0,-45.532222747802734,66.34521484375,45.471187591552734,-0.5797119140625,-0.12841796875,0.3092041015625
6.903,310,763,488,315,-8.0,40.0,44.0,-0.7324218153953552,55.847164154052734,31.677244186401367,-0.1346435546875,-0.403076171875,0.180419921875
6.903,310,657,437,314,-8.0,40.0,44.0,44.860836029052734,38.14697265625,12.207030296325684,0.067138671875,-0.4783935546875,-0.0250244140625
6.903,310,601,411,314,-8.0,40.0,44.0,81.17675018310547,22.033689498901367,-3.173827886581421,0.020263671875,-0.3291015625,-0.2513427734375
6.911,308,568,399,314,-8.0,40.0,44.0,101.68456268310547,13.732909202575684,-10.803221702575684,-0.21923828125,0.024658203125,-0.4249267578125
6.923,308,524,396,312,-8.0,40.0,44.0,103.27147674560547,12.268065452575684,-10.253905296325684,-0.5015869140625,0.4454345703125,-0.5093994140625
6.932,309,495,393,313,-8.0,41.0,37.0,82.88573455810547,10.864256858825684,-5.0048828125,-0.7288818359375,0.777099609375,-0.510009765625
6.944,309,473,386,313,-8.0,41.0,37.0,43.395992279052734,4.57763671875,1.03759765625,-0.852783203125,0.94873046875,-0.4478759765625
6.959,309,424,382,314,-8.0,41.0,37.0,0.0,-4.150390625,4.7607421875,-0.861572265625,0.9354248046875,-0.362060546875
6.962,309,394,374,313,-8.0,41.0,37.0,-31.677244186401367,-9.94873046875,5.065917491912842,-0.8380126953125,0.7694091796875,-0.272216796875
6.970,310,356,377,313,-8.0,41.0,37.0,-48.034664154052734,-13.000487327575684,2.685546636581421,-0.8052978515625,0.544189453125,-0.15380859375
7.004,310,326,380,312,-8.0,41.0,37.0,-54.443355560302734,-15.502928733825684,-1.8920897245407104,-0.734130859375,0.3411865234375,-0.0108642578125
7.005,310,302,368,306,-8.0,41.0,37.0,-53.466793060302734,-15.563963890075684,-5.554198741912842,-0.6719970703125,0.2408447265625,0.088623046875
7.005,309,316,382,312,-8.0,41.0,37.0,-45.104976654052734,-12.023924827575684,-3.967284917831421,-0.6949462890625,0.2587890625,0.12451171875
7.014,308,315,382,310,-8.0,41.0,37.0,-34.0576171875,-8.60595703125,1.7700194120407104,-0.782470703125,0.304443359375,0.1629638671875
7.022,310,315,382,312,-8.0,41.0,37.0,-26.184080123901367,-8.4228515625,7.324218273162842,-0.8134765625,0.3104248046875,0.224609375
7.030,309,314,380,312,-8.0,41.0,37.0,-18.5546875,-8.23974609375,9.6435546875,-0.773681640625,0.2747802734375,0.249267578125
7.046,308,315,382,310,-9.0,40.0,41.0,-5.126952648162842,-4.08935546875,8.7890625,-0.7481689453125,0.25537109375,0.203369140625
7.052,308,314,382,311,-9.0,40.0,41.0,11.840819358825684,2.685546636581421,8.23974609375,-0.741455078125,0.2991943359375,0.1151123046875
7.060,309,314,382,312,-9.0,40.0,41.0,23.254392623901367,8.4228515625,10.681151390075684,-0.720703125,0.3759765625,0.0423583984375
7.073,308,315,384,310,-9.0,40.0,41.0,23.742673873901367,10.803221702575684,15.258788108825684,-0.68359375,0.4234619140625,0.0169677734375
7.088,310,314,385,311,-9.0,40.0,41.0,16.4794921875,10.498045921325684,19.22607421875,-0.64990234375,0.4005126953125,0.017333984375
7.110,309,315,386,312,-9.0,40.0,41.0,8.30078125,9.46044921875,20.690916061401367,-0.61181640625,0.3226318359375,0.0096435546875
7.110,308,354,384,310,-9.0,40.0,41.0,1.8310545682907104,7.873534679412842,19.83642578125,-0.54443359375,0.2344970703125,-0.0003662109375
7.112,309,395,380,312,-9.0,40.0,41.0,-5.126952648162842,3.784179449081421,17.63916015625,-0.4000244140625,0.1514892578125,0.0306396484375
7.120,310,444,378,312,-9.0,40.0,41.0,-14.770506858825684,-4.0283203125,14.282225608825684,-0.25048828125,0.119873046875,0.1253662109375
7.134,310,566,372,312,-10.0,40.0,42.0,-21.423337936401367,-14.648436546325684,13.183592796325684,-0.1783447265625,0.2633056640625,0.26611328125
7.142,310,648,372,313,-10.0,40.0,42.0,-5.920409679412842,-22.827146530151367,15.869139671325684,0.15087890625,0.3116455078125,0.398193359375
7.150,308,780,434,314,-10.0,40.0,42.0,34.97314453125,-28.808591842651367,5.554198741912842,0.607177734375,0.08447265625,0.3814697265625
7.164,310,1022,527,315,-10.0,40.0,42.0,66.650390625,-45.959468841552734,-28.381345748901367,0.4742431640625,0.1348876953125,-0.087890625
7.172,310,1096,547,315,-10.0,40.0,42.0,61.767574310302734,-74.03564453125,-72.8759765625,0.4742431640625,0.1348876953125,-0.087890625
7.180,310,1145,582,315,-10.0,40.0,42.0,35.94970703125,-86.91405487060547,-99.67040252685547,-0.5836181640625,0.5439453125,-0.6068115234375
7.216,310,1253,671,315,-10.0,40.0,42.0,39.306640625,-58.532711029052734,-89.47753143310547,-2.308837890625,1.4686279296875,-1.2247314453125
7.219,294,1286,723,300,-10.0,40.0,42.0,50.903316497802734,-18.9208984375,-61.401363372802734,-2.308837890625,1.4686279296875,-1.2247314453125
7.219,310,1357,756,317,-10.0,40.0,42.0,-12.207030296325684,-21.667478561401367,-45.593257904052734,-2.3624267578125,1.38916015625,-0.48583984375
7.225,310,1415,810,316,-10.0,40.0,42.0,-118.28612518310547,-53.344722747802734,-39.00146484375,-2.42578125,0.173095703125,0.5382080078125
7.232,309,1404,799,315,-7.0,39.0,40.0,-153.38134765625,-65.5517578125,-25.878904342651367,-2.42578125,0.173095703125,0.5382080078125
7.240,310,1387,802,315,-7.0,39.0,40.0,-97.04589080810547,-50.903316497802734,-7.568358898162842,-2.45166015625,-0.0755615234375,0.6278076171875
7.254,311,1353,778,315,-7.0,39.0,40.0,-18.06640625,-29.785154342651367,7.995604991912842,-1.0606689453125,-0.1409912109375,0.4078369140625
7.263,310,1323,764,316,-7.0,39.0,40.0,38.0859375,-9.521484375,13.427733421325684,-1.0606689453125,-0.1409912109375,0.4078369140625
7.270,310,1334,772,315,-7.0,39.0,40.0,66.7724609375,9.8876953125,10.864256858825684,-0.6649169921875,0.3814697265625,0.1024169921875
7.292,310,1320,766,315,-7.0,39.0,40.0,63.354488372802734,26.794431686401367,4.7607421875,-1.5386962890625,1.12646484375,-0.4278564453125
7.293,296,1297,749,315,-7.0,39.0,40.0,27.038572311401367,36.62109375,-1.4038084745407104,-2.04443359375,1.079345703125,-0.345703125
7.315,310,1258,723,315,-7.0,39.0,40.0,-21.606443405151367,39.794921875,-0.6103515625,-2.04443359375,1.079345703125,-0.345703125
7.315,310,1153,644,315,-7.0,39.0,40.0,-76.59912109375,52.612300872802734,30.639646530151367,-2.1397705078125,0.6939697265625,0.11181640625
7.323,310,1076,588,317,-7.0,39.0,40.0,-76.59912109375,52.612300872802734,30.639646530151367,-1.9163818359375,0.67333984375,0.248046875
7.330,310,992,554,314,-8.0,41.0,42.0,-76.904296875,64.94140625,59.448238372802734,-1.9163818359375,0.67333984375,0.248046875
7.344,310,846,537,314,-8.0,41.0,42.0,-44.494625091552734,82.82469940185547,92.04100799560547,-1.0704345703125,0.4071044921875,0.161376953125
7.355,308,751,523,315,-8.0,41.0,42.0,-44.494625091552734,82.82469940185547,92.04100799560547,-0.5050048828125,-0.069580078125,0.18017578125
7.360,309,657,473,315,-8.0,41.0,42.0,-14.892577171325684,80.078125,74.21875,-0.5050048828125,-0.069580078125,0.18017578125
7.374,309,523,420,314,-8.0,41.0,42.0,49.133296966552734,43.273921966552734,-0.30517578125,0.287353515625,-0.89892578125,0.0875244140625
7.382,309,481,396,314,-8.0,41.0,42.0,49.133296966552734,43.273921966552734,-0.30517578125,0.3468017578125,-0.653076171875,-0.0860595703125
7.395,310,438,390,314,-8.0,41.0,42.0,81.11571502685547,27.770994186401367,-27.465818405151367,0.3468017578125,-0.653076171875,-0.0860595703125
7.424,309,408,385,314,-8.0,41.0,42.0,110.29051971435547,2.624511480331421,-31.066892623901367,-0.2767333984375,0.55224609375,-0.195068359375
7.425,309,386,385,314,-8.0,41.0,42.0,110.29051971435547,2.624511480331421,-31.066892623901367,-0.538818359375,1.0498046875,-0.412353515625
7.425,309,377,384,312,-8.0,41.0,42.0,105.46874237060547,-1.2817381620407104,-25.329587936401367,-0.538818359375,1.0498046875,-0.412353515625
7.435,309,356,391,312,-9.0,41.0,35.0,24.841306686401367,-0.7324218153953552,-10.009765625,-0.90185546875,1.2244873046875,-0.555908203125
7.442,308,339,393,314,-9.0,41.0,35.0,-21.545408248901367,-3.784179449081421,-8.6669921875,-0.9688720703125,0.798828125,-0.3773193359375
7.450,310,329,386,312,-9.0,41.0,35.0,-21.545408248901367,-3.784179449081421,-8.6669921875,-0.9171142578125,0.4544677734375,-0.1788330078125
7.464,309,319,385,313,-9.0,41.0,35.0,-49.682613372802734,3.723144292831421,-18.798828125,-0.8272705078125,0.2757568359375,-0.0203857421875
7.472,310,322,379,312,-9.0,41.0,35.0,-50.476070404052734,9.33837890625,-16.41845703125,-0.7967529296875,0.208740234375,0.0667724609375
7.480,309,315,377,312,-9.0,41.0,35.0,-50.476070404052734,9.33837890625,-16.41845703125,-0.8228759765625,0.1812744140625,0.117919921875
7.513,309,315,373,308,-9.0,41.0,35.0,-56.762691497802734,5.249022960662842,0.0610351525247097,-0.81103515625,0.1512451171875,0.176025390625
7.518,310,314,379,312,-9.0,41.0,35.0,-58.288570404052734,-0.6103515625,6.774901866912842,-0.761962890625,0.1268310546875,0.1910400390625
7.518,309,314,382,310,-9.0,41.0,35.0,-58.288570404052734,-0.6103515625,6.774901866912842,-0.760986328125,0.1204833984375,0.119873046875
7.526,308,317,384,312,-9.0,41.0,35.0,-21.301267623901367,-2.746581792831421,15.319823265075684,-0.7947998046875,0.1767578125,0.0067138671875
7.533,308,315,386,312,-10.0,40.0,43.0,4.8828125,-1.0986328125,20.996091842651367,-0.8065185546875,0.298828125,-0.0609130859375
7.540,309,314,386,312,-10.0,40.0,43.0,4.8828125,-1.0986328125,20.996091842651367,-0.7799072265625,0.39697265625,-0.051513671875
7.557,310,326,386,312,-10.0,40.0,43.0,22.399900436401367,-3.540038824081421,31.372068405151367,-0.7330322265625,0.4146728515625,-0.024658203125
7.562,310,337,386,312,-10.0,40.0,43.0,18.85986328125,-5.676269054412842,32.77587890625,-0.6895751953125,0.3773193359375,-0.0181884765625
7.570,309,364,386,312,-10.0,40.0,43.0,18.85986328125,-5.676269054412842,32.77587890625,-0.6402587890625,0.328369140625,-0.0181884765625
7.584,308,408,387,312,-10.0,40.0,43.0,7.385253429412842,-8.11767578125,33.447265625,-0.5928955078125,0.302978515625,-0.011962890625
7.601,308,437,387,313,-10.0,40.0,43.0,2.13623046875,-8.97216796875,34.912109375,-0.5443115234375,0.31884765625,0.03125
7.602,310,477,384,314,-10.0,40.0,43.0,-1.15966796875,-10.253905296325684,36.80419921875,-0.373046875,0.322265625,0.1617431640625
7.618,308,576,371,314,-10.0,40.0,43.0,1.7700194120407104,-11.535643577575684,34.3017578125,0.0067138671875,0.2161865234375,0.343505859375
7.622,308,657,393,314,-10.0,40.0,43.0,15.747069358825684,-15.747069358825684,20.812986373901367,0.4263916015625,0.037109375,0.4171142578125
7.635,310,772,444,314,-10.0,40.0,44.0,35.0341796875,-30.761716842651367,-5.615233898162842,0.6822509765625,-0.025146484375,0.28857421875
7.644,309,994,531,314,-10.0,40.0,44.0,37.109375,-58.776851654052734,-40.954586029052734,0.6153564453125,0.1488037109375,0.0712890625
7.652,310,1065,548,314,-10.0,40.0,44.0,13.183592796325684,-81.78710174560547,-73.18115234375,-0.0125732421875,0.484619140625,-0.2523193359375
7.662,311,1117,568,314,-10.0,40.0,44.0,0.30517578125,-72.3876953125,-85.08300018310547,-1.1063232421875,0.8363037109375,-0.8419189453125
7.674,310,1234,654,315,-10.0,40.0,44.0,24.108884811401367,-34.48486328125,-70.61767578125,-2.03515625,1.20849609375,-1.2325439453125
7.682,311,1294,700,315,-10.0,40.0,44.0,27.893064498901367,-13.793944358825684,-51.940914154052734,-2.288818359375,1.441162109375,-0.8775634765625
7.690,310,1352,744,315,-10.0,40.0,44.0,-40.405269622802734,-33.203125,-46.752925872802734,-2.2069091796875,1.2000732421875,-0.1719970703125
7.704,310,1413,772,315,-10.0,40.0,44.0,-118.34716033935547,-59.143062591552734,-41.381832122802734,-2.1790771484375,0.625244140625,0.3106689453125
7.716,310,1395,771,316,-10.0,40.0,44.0,-119.87303924560547,-57.739253997802734,-27.221677780151367,-2.258544921875,0.179931640625,0.510986328125
7.720,310,1374,764,317,-10.0,40.0,44.0,-59.143062591552734,-36.7431640625,-12.145995140075684,-2.1746826171875,-0.1234130859375,0.5697021484375
7.741,308,1334,737,315,-9.0,42.0,47.0,5.249022960662842,-16.90673828125,-2.807616949081421,-1.521728515625,-0.3375244140625,0.5303955078125
7.742,310,1323,726,314,-9.0,42.0,47.0,53.588863372802734,-3.662109136581421,2.38037109375,-0.858642578125,-0.0723876953125,0.3211669921875
7.750,310,1323,726,315,-9.0,42.0,47.0,81.29882049560547,7.568358898162842,6.774901866912842,-0.841552734375,0.623779296875,-0.05029296875
7.764,310,1305,710,315,-9.0,42.0,47.0,74.89013671875,19.47021484375,7.995604991912842,-1.3760986328125,1.1839599609375,-0.4014892578125
7.772,310,1271,674,315,-9.0,42.0,47.0,30.883787155151367,28.259275436401367,7.629394054412842,-1.95654296875,1.3173828125,-0.51171875
7.780,310,1213,634,315,-9.0,42.0,47.0,-27.893064498901367,35.94970703125,12.512206077575684,-2.211669921875,1.149169921875,-0.358154296875
7.794,309,1094,578,314,-9.0,42.0,47.0,-71.4111328125,47.790523529052734,28.198240280151367,-2.183349609375,0.9163818359375,-0.0950927734375
7.804,309,1020,562,314,-9.0,42.0,47.0,-89.66063690185547,63.842769622802734,54.870601654052734,-1.9478759765625,0.699462890625,0.130615234375
7.819,308,946,551,315,-9.0,42.0,47.0,-85.99852752685547,78.79638671875,81.29882049560547,-1.4755859375,0.4522705078125,0.2421875
7.827,310,782,519,314,-9.0,42.0,47.0,-64.208984375,85.57128143310547,89.47753143310547,-0.858154296875,0.1177978515625,0.26708984375
7.835,310,691,467,315,-9.0,42.0,40.0,-28.442380905151367,79.52880859375,70.068359375,-0.341552734375,-0.287353515625,0.2977294921875
7.850,310,608,441,314,-9.0,42.0,40.0,13.000487327575684,61.767574310302734,31.738279342651367,-0.022216796875,-0.61279296875,0.263671875
7.854,311,504,386,314,-9.0,42.0,40.0,53.588863372802734,41.625972747802734,-7.141112804412842,0.129638671875,-0.6402587890625,0.0546875
7.862,310,469,387,314,-9.0,42.0,40.0,86.97509002685547,25.024412155151367,-32.77587890625,0.0745849609375,-0.296875,-0.1591796875
7.870,310,430,395,314,-9.0,42.0,40.0,101.68456268310547,7.507323741912842,-39.55078125,-0.202392578125,0.196044921875,-0.2091064453125
7.886,310,394,391,313,-9.0,42.0,40.0,99.79247283935547,-8.85009765625,-33.87451171875,-0.45556640625,0.580810546875,-0.23388671875
7.892,310,380,391,313,-9.0,42.0,40.0,91.85790252685547,-14.770506858825684,-28.015134811401367,-0.547119140625,0.8853759765625,-0.387451171875
7.926,309,370,398,314,-9.0,42.0,40.0,72.021484375,-12.084959983825684,-22.033689498901367,-0.64697265625,1.1046142578125,-0.5340576171875
7.927,309,329,402,311,-9.0,42.0,40.0,36.43798828125,-11.047362327575684,-12.695311546325684,-0.946533203125,0.72509765625,-0.367919921875
7.927,308,326,396,296,-9.0,42.0,40.0,2.13623046875,-13.916014671325684,-7.202147960662842,-0.946533203125,0.72509765625,-0.367919921875
7.930,308,322,394,313,-9.0,42.0,40.0,-17.822265625,-17.39501953125,-7.690429210662842,-0.906982421875,0.46337890625,-0.181884765625
7.944,310,317,384,310,-9.0,42.0,40.0,-26.916501998901367,-18.85986328125,-9.3994140625,-0.7972412109375,0.251953125,0.0030517578125
7.954,308,317,383,310,-9.0,42.0,40.0,-29.785154342651367,-17.08984375,-7.934569835662842,-0.7972412109375,0.251953125,0.0030517578125
7.960,310,317,382,311,-9.0,42.0,40.0,-31.677244186401367,-15.075682640075684,-0.54931640625,-0.8160400390625,0.2342529296875,0.0213623046875
7.974,308,321,379,311,-9.0,42.0,40.0,-36.31591796875,-15.563963890075684,9.033203125,-0.6884765625,0.1328125,0.1787109375
7.982,310,322,382,311,-9.0,42.0,40.0,-38.57421875,-16.05224609375,15.319823265075684,-0.6884765625,0.1328125,0.1787109375
7.990,305,317,384,311,-9.0,42.0,40.0,-31.311033248901367,-13.793944358825684,18.310546875,-0.6514892578125,0.1488037109375,0.195068359375
8.009,310,322,386,311,-9.0,42.0,40.0,-16.357421875,-8.97216796875,21.240232467651367,-0.719482421875,0.3525390625,0.096923828125
8.015,309,322,387,314,-9.0,42.0,40.0,-2.25830078125,-4.150390625,25.268552780151367,-0.719482421875,0.3525390625,0.096923828125
8.030,308,343,393,313,-9.0,42.0,40.0,5.187987804412842,-1.8310545682907104,28.564451217651367,-0.7320556640625,0.42822265625,0.075927734375
8.034,309,382,387,312,-8.0,41.0,42.0,6.530761241912842,-2.0751953125,29.235837936401367,-0.6458740234375,0.39453125,0.005126953125
8.042,310,407,385,312,-8.0,41.0,42.0,4.45556640625,-3.723144292831421,27.404783248901367,-0.6458740234375,0.39453125,0.005126953125
8.050,310,425,382,314,-8.0,41.0,42.0,2.197265625,-5.371093273162842,25.451658248901367,-0.631591796875,0.3714599609375,-0.0478515625
8.070,310,497,379,313,-8.0,41.0,42.0,0.6103515625,-6.347655773162842,29.296873092651367,-0.474853515625,0.3897705078125,0.03466796875
8.072,310,562,371,313,-8.0,41.0,42.0,0.6103515625,-6.347655773162842,29.296873092651367,-0.11376953125,0.273193359375,0.2034912109375
8.080,309,640,361,314,-8.0,41.0,42.0,-2.3193359375,-6.896972179412842,27.648923873901367,-0.11376953125,0.273193359375,0.2034912109375
8.094,310,830,467,314,-8.0,41.0,42.0,1.03759765625,-23.925779342651367,-7.263183116912842,0.75634765625,-0.078369140625,0.400146484375
8.102,310,953,517,314,-8.0,41.0,42.0,1.03759765625,-23.925779342651367,-7.263183116912842,0.828857421875,-0.208251953125,0.3203125
8.133,310,1064,548,315,-8.0,41.0,42.0,0.3662109076976776,-49.987789154052734,-46.997066497802734,0.828857421875,-0.208251953125,0.3203125
8.133,310,1189,564,315,-6.0,39.0,43.0,5.615233898162842,-77.2705078125,-97.59520721435547,-0.850341796875,0.47607421875,-0.37255859375
8.133,296,1243,583,315,-6.0,39.0,43.0,5.615233898162842,-77.2705078125,-97.59520721435547,-2.0863037109375,1.447509765625,-1.03662109375
8.141,310,1300,629,315,-6.0,39.0,43.0,67.56591796875,-38.75732421875,-74.21875,-2.0863037109375,1.447509765625,-1.03662109375
8.154,309,1393,706,317,-6.0,39.0,43.0,5.737304210662842,-17.27294921875,-48.339839935302734,-2.696044921875,1.619140625,-0.3720703125
8.167,310,1422,725,315,-6.0,39.0,43.0,5.737304210662842,-17.27294921875,-48.339839935302734,-2.5263671875,0.6871337890625,0.175048828125
8.170,310,1416,720,315,-6.0,39.0,43.0,-87.70751190185547,-45.227046966552734,-55.419918060302734,-2.5263671875,0.6871337890625,0.175048828125
8.184,310,1395,708,315,-6.0,39.0,43.0,-40.954586029052734,-50.842281341552734,-31.066892623901367,-1.7633056640625,-0.44970703125,0.438232421875
8.192,310,1365,705,315,-6.0,39.0,43.0,-40.954586029052734,-50.842281341552734,-31.066892623901367,-1.0684814453125,-0.3948974609375,0.2655029296875
8.200,310,1357,700,315,-6.0,39.0,43.0,37.53662109375,-30.334470748901367,-17.76123046875,-0.810302734375,0.31591796875,-0.0401611328125
8.214,309,1366,710,315,-6.0,39.0,43.0,110.29051971435547,11.047362327575684,-13.854979515075684,-1.0855712890625,1.066162109375,-0.34375
8.233,309,1352,700,315,-10.0,36.0,44.0,66.34521484375,9.94873046875,-18.310546875,-1.584228515625,1.2509765625,-0.4237060546875
8.233,310,1340,685,317,-10.0,36.0,44.0,66.34521484375,9.94873046875,-18.310546875,-1.9207763671875,0.9720458984375,-0.2791748046875
8.244,310,1275,639,314,-10.0,36.0,44.0,-63.232418060302734,-8.11767578125,-11.352538108825684,-1.9815673828125,0.6226806640625,-0.048583984375
8.252,310,1215,606,315,-10.0,36.0,44.0,-88.98925018310547,0.30517578125,9.3994140625,-1.8792724609375,0.4759521484375,0.134033203125
8.260,310,1151,566,315,-10.0,36.0,44.0,-88.98925018310547,0.30517578125,9.3994140625,-1.7220458984375,0.4801025390625,0.2340087890625
8.277,310,1020,531,315,-10.0,36.0,44.0,-86.42577362060547,45.349117279052734,62.561031341552734,-1.507080078125,0.4454345703125,0.2991943359375
8.282,310,943,527,315,-10.0,36.0,44.0,-73.66943359375,67.93212890625,77.69775390625,-1.1622314453125,0.2576904296875,0.3265380859375
8.290,310,848,509,314,-10.0,36.0,44.0,-73.66943359375,67.93212890625,77.69775390625,-0.7366943359375,-0.031494140625,0.3033447265625
8.304,308,685,423,314,-10.0,36.0,44.0,-8.9111328125,80.87157440185547,59.265132904052734,-0.341796875,-0.3751220703125,0.2286376953125
8.315,309,594,415,314,-10.0,36.0,44.0,27.770994186401367,67.3828125,32.71484375,-0.0281982421875,-0.645263671875,0.061279296875
8.320,310,537,391,314,-10.0,36.0,44.0,27.770994186401367,67.3828125,32.71484375,0.1214599609375,-0.56201171875,-0.110107421875
8.338,308,453,395,314,-9.0,40.0,43.0,91.49169158935547,35.82763671875,-4.0283203125,-0.0035400390625,-0.155517578125,-0.1370849609375
8.342,309,411,394,314,-9.0,40.0,43.0,98.93798065185547,20.263669967651367,-7.324218273162842,-0.276611328125,0.3099365234375,-0.1129150390625
8.350,310,384,393,314,-9.0,40.0,43.0,93.26171112060547,12.023924827575684,-6.530761241912842,-0.425537109375,0.762939453125,-0.2225341796875
8.364,309,360,391,311,-9.0,40.0,43.0,74.462890625,13.427733421325684,-0.2441406100988388,-0.5355224609375,1.1192626953125,-0.399169921875
8.384,310,344,391,310,-9.0,40.0,43.0,36.80419921875,13.610838890075684,10.375975608825684,-0.76708984375,1.1162109375,-0.4527587890625
8.384,310,328,393,308,-9.0,40.0,43.0,1.2817381620407104,7.446288585662842,14.465331077575684,-1.0040283203125,0.857666015625,-0.393798828125
8.394,310,315,387,309,-9.0,40.0,43.0,-12.268065452575684,-1.4648436307907104,8.36181640625,-1.0467529296875,0.6490478515625,-0.287841796875
8.402,309,314,381,310,-9.0,40.0,43.0,-16.7236328125,-9.46044921875,-1.9531248807907104,-0.9091796875,0.5029296875,-0.150634765625
8.417,310,313,380,311,-9.0,40.0,43.0,-24.841306686401367,-12.695311546325684,-9.8876953125,-0.7906494140625,0.377685546875,-0.04736328125
8.439,310,314,380,310,-7.0,39.0,43.0,-33.203125,-12.023924827575684,-9.765625,-0.7564697265625,0.30029296875,0.01171875
8.439,308,314,380,310,-7.0,39.0,43.0,-36.9873046875,-11.718749046325684,-2.0751953125,-0.75244140625,0.2470703125,0.0673828125
8.440,310,314,379,310,-7.0,39.0,43.0,-33.26416015625,-12.207030296325684,6.652831554412842,-0.7347412109375,0.1981201171875,0.1312255859375
8.454,310,315,380,310,-7.0,39.0,43.0,-21.240232467651367,-11.840819358825684,12.084959983825684,-0.7022705078125,0.1878662109375,0.1751708984375
8.462,310,315,381,310,-7.0,39.0,43.0,-4.150390625,-9.521484375,15.930174827575684,-0.6798095703125,0.234130859375,0.1673583984375
8.474,308,315,382,310,-7.0,39.0,43.0,11.230467796325684,-5.737304210662842,20.141599655151367,-0.673095703125,0.2974853515625,0.11376953125
8.503,308,322,385,310,-7.0,39.0,43.0,18.61572265625,-2.44140625,24.414060592651367,-0.660400390625,0.329833984375,0.05712890625
8.503,309,336,384,298,-7.0,39.0,43.0,16.66259765625,-1.03759765625,27.648923873901367,-0.62890625,0.32666015625,0.0333251953125
8.503,307,362,386,311,-7.0,39.0,43.0,8.36181640625,-1.7700194120407104,29.296873092651367,-0.5789794921875,0.30322265625,0.036376953125
8.515,310,411,377,311,-7.0,39.0,43.0,-1.03759765625,-3.906249761581421,29.418943405151367,-0.526611328125,0.2740478515625,0.04052734375
8.539,308,454,371,312,-11.0,42.0,50.0,-7.751464366912842,-6.958007335662842,30.090330123901367,-0.481689453125,0.30517578125,0.0499267578125
8.539,309,519,363,312,-11.0,42.0,50.0,-10.314940452575684,-10.009765625,34.24072265625,-0.3287353515625,0.394287109375,0.120361328125
8.544,309,648,360,312,-11.0,42.0,50.0,-5.065917491912842,-10.742186546325684,35.64453125,0.025634765625,0.3741455078125,0.2747802734375
8.552,308,756,394,314,-11.0,42.0,50.0,9.765625,-12.268065452575684,22.949216842651367,0.4659423828125,0.1732177734375,0.4510498046875
8.561,310,912,457,314,-11.0,42.0,50.0,25.878904342651367,-24.536130905151367,-6.530761241912842,0.7747802734375,-0.0418701171875,0.4990234375
8.574,308,1092,518,313,-11.0,42.0,50.0,31.433103561401367,-48.461910247802734,-50.354000091552734,0.6199951171875,-0.07958984375,0.339111328125
8.593,309,1145,530,315,-11.0,42.0,50.0,25.878904342651367,-65.12451171875,-91.18651580810547,-0.2100830078125,0.126220703125,-0.1446533203125
8.593,294,1176,540,314,-11.0,42.0,50.0,41.076656341552734,-47.180171966552734,-98.75487518310547,-1.4287109375,0.6331787109375,-0.931396484375
8.604,308,1297,628,314,-11.0,42.0,50.0,78.43017578125,-8.23974609375,-72.44873046875,-2.2918701171875,1.283447265625,-1.311767578125
8.612,311,1349,673,316,-11.0,42.0,50.0,61.218257904052734,0.54931640625,-45.837398529052734,-2.5013427734375,1.5216064453125,-0.9071044921875
8.624,310,1379,705,315,-8.0,38.0,47.0,-28.686521530151367,-30.334470748901367,-35.888671875,-2.4404296875,1.1160888671875,-0.240478515625
8.642,310,1402,720,317,-8.0,38.0,47.0,-94.97069549560547,-60.485836029052734,-28.808591842651367,-2.3697509765625,0.5198974609375,0.2734375
8.642,310,1392,716,316,-8.0,38.0,47.0,-78.125,-62.866207122802734,-14.953612327575684,-2.240966796875,0.177978515625,0.5472412109375
8.653,310,1379,710,315,-8.0,38.0,47.0,-18.310546875,-43.823238372802734,-2.685546636581421,-1.724853515625,-0.001953125,0.563720703125
8.664,310,1339,682,314,-8.0,38.0,47.0,36.2548828125,-16.845703125,-3.723144292831421,-0.7576904296875,0.4833984375,-0.0384521484375
