time,compression0,compression1,compression2,compression3,magn_x,magn_y,magn_z,gyro_x,gyro_y,gyro_z,accel_x,accel_y,accel_z
0.003,311,336,383,308,-9.0,40.0,38.0,4.57763671875,-3.662109136581421,0.6713866591453552,-0.8253173828125,0.5264892578125,-0.1317138671875
0.016,309,336,381,310,-11.0,44.0,38.0,7.080077648162842,-4.33349609375,1.4038084745407104,-0.82080078125,0.5225830078125,-0.11865234375
0.032,310,334,382,311,-11.0,44.0,38.0,10.986327171325684,-5.371093273162842,2.01416015625,-0.823486328125,0.515380859375,-0.11474609375
0.035,310,331,386,304,-11.0,44.0,38.0,14.587401390075684,-6.591796398162842,2.01416015625,-0.823486328125,0.515380859375,-0.11474609375
0.046,310,336,386,310,-11.0,44.0,38.0,19.04296875,-7.812499523162842,1.2817381620407104,-0.8310546875,0.5087890625,-0.1065673828125
0.055,310,336,391,310,-11.0,44.0,38.0,19.04296875,-7.812499523162842,1.2817381620407104,-0.8299560546875,0.5103759765625,-0.10498046875
0.065,310,331,393,310,-11.0,44.0,38.0,21.179197311401367,-7.568358898162842,0.9155272841453552,-0.8299560546875,0.5103759765625,-0.10498046875
0.076,310,331,399,310,-11.0,44.0,38.0,25.390623092651367,-6.103515148162842,-0.0610351525247097,-0.8265380859375,0.5279541015625,-0.1102294921875
0.097,308,336,401,310,-11.0,44.0,38.0,25.390623092651367,-6.103515148162842,-0.0610351525247097,-0.8251953125,0.53564453125,-0.1201171875
0.098,310,336,402,311,-11.0,44.0,38.0,25.939939498901367,-5.859374523162842,-0.7934569716453552,-0.8251953125,0.53564453125,-0.1201171875
0.106,308,331,408,310,-12.0,45.0,39.0,23.498533248901367,-7.568358898162842,-2.746581792831421,-0.83056640625,0.52734375,-0.1302490234375
0.114,309,331,410,308,-12.0,45.0,39.0,23.498533248901367,-7.568358898162842,-2.746581792831421,-0.8331298828125,0.515625,-0.123291015625
0.122,308,332,408,310,-12.0,45.0,39.0,21.789548873901367,-8.544921875,-3.662109136581421,-0.8331298828125,0.515625,-0.123291015625
0.138,308,337,410,310,-12.0,45.0,39.0,20.446775436401367,-8.7890625,-5.310058116912842,-0.8350830078125,0.494873046875,-0.1207275390625
0.146,310,336,410,310,-12.0,45.0,39.0,20.446775436401367,-8.7890625,-5.310058116912842,-0.8330078125,0.4991455078125,-0.1304931640625
0.152,310,336,408,308,-12.0,45.0,39.0,19.04296875,-8.36181640625,-5.798339366912842,-0.8330078125,0.4991455078125,-0.1304931640625
0.167,308,337,408,310,-12.0,45.0,39.0,11.901854515075684,-7.934569835662842,-6.408690929412842,-0.828857421875,0.5164794921875,-0.1453857421875
0.175,308,336,410,309,-12.0,45.0,39.0,11.901854515075684,-7.934569835662842,-6.408690929412842,-0.83056640625,0.517822265625,-0.1448974609375
0.186,310,332,409,310,-12.0,45.0,39.0,8.056640625,-7.934569835662842,-6.469726085662842,-0.8348388671875,0.5096435546875,-0.1380615234375
0.202,309,336,410,310,-12.0,45.0,39.0,2.929687261581421,-7.751464366912842,-6.347655773162842,-0.83544921875,0.4940185546875,-0.1268310546875
0.205,310,336,410,309,-10.0,43.0,39.0,1.9531248807907104,-7.873534679412842,-5.981444835662842,-0.830322265625,0.479248046875,-0.116455078125
0.213,314,336,410,310,-10.0,43.0,39.0,1.9531248807907104,-7.873534679412842,-5.981444835662842,-0.8228759765625,0.469482421875,-0.1107177734375
0.226,310,337,411,310,-10.0,43.0,39.0,2.01416015625,-8.23974609375,-4.39453125,-0.8162841796875,0.4677734375,-0.114013671875
0.237,310,337,411,310,-10.0,43.0,39.0,1.9531248807907104,-8.30078125,-3.173827886581421,-0.811767578125,0.4765625,-0.122802734375
0.243,309,338,408,310,-10.0,43.0,39.0,1.9531248807907104,-8.30078125,-3.173827886581421,-0.8072509765625,0.4871826171875,-0.1314697265625
0.256,310,340,408,310,-10.0,43.0,39.0,-0.0610351525247097,-7.995604991912842,0.3662109076976776,-0.7982177734375,0.486083984375,-0.134033203125
0.270,309,339,411,311,-10.0,43.0,39.0,-1.8920897245407104,-7.690429210662842,2.868652105331421,-0.78271484375,0.47412109375,-0.1231689453125
0.273,310,342,410,310,-10.0,43.0,39.0,-1.8920897245407104,-7.690429210662842,2.868652105331421,-0.760986328125,0.4652099609375,-0.10400390625
0.288,310,352,418,310,-10.0,43.0,39.0,-4.7607421875,-6.713866710662842,8.056640625,-0.7373046875,0.465087890625,-0.0927734375
0.302,310,357,418,310,-10.0,43.0,39.0,-5.371093273162842,-6.530761241912842,9.94873046875,-0.712646484375,0.46240234375,-0.0941162109375
0.302,310,356,425,310,-11.0,41.0,37.0,-5.371093273162842,-6.530761241912842,9.94873046875,-0.6781005859375,0.4378662109375,-0.099853515625
0.316,310,386,437,310,-11.0,41.0,37.0,-7.690429210662842,-7.629394054412842,13.977049827575684,-0.6097412109375,0.3822021484375,-0.1060791015625
0.325,310,395,441,310,-11.0,41.0,37.0,-10.498045921325684,-6.652831554412842,16.9677734375,-0.491455078125,0.304443359375,-0.0921630859375
0.333,310,402,439,310,-11.0,41.0,37.0,-13.305663108825684,-4.33349609375,20.507810592651367,-0.3648681640625,0.2318115234375,-0.0469970703125
0.347,309,427,488,310,-11.0,41.0,37.0,-11.230467796325684,-2.685546636581421,23.254392623901367,-0.30810546875,0.20849609375,0.008544921875
0.354,310,440,502,310,-11.0,41.0,37.0,-3.906249761581421,-4.33349609375,22.521970748901367,-0.2994384765625,0.235107421875,0.0867919921875
0.422,310,465,543,310,-11.0,41.0,37.0,4.82177734375,-8.9111328125,14.953612327575684,-0.264892578125,0.25634765625,0.19091796875
0.422,292,513,644,310,-11.0,41.0,37.0,18.73779296875,-10.742186546325684,-1.5258787870407104,-0.229248046875,0.3536376953125,0.22021484375
0.422,310,566,728,311,-11.0,41.0,37.0,37.17041015625,-8.36181640625,-22.644041061401367,-0.24560546875,0.5584716796875,0.123779296875
0.423,310,601,816,311,-11.0,41.0,37.0,41.015621185302734,-8.11767578125,-39.55078125,-0.345947265625,0.714599609375,-0.0426025390625
0.423,311,644,944,312,-14.0,42.0,38.0,24.291990280151367,-12.207030296325684,-45.715328216552734,-0.6962890625,0.8321533203125,-0.2545166015625
0.423,311,650,1022,313,-14.0,42.0,38.0,3.417968511581421,-14.343260765075684,-41.015621185302734,-1.383056640625,0.9310302734375,-0.54931640625
0.423,310,657,1063,313,-14.0,42.0,38.0,-13.061522483825684,-9.1552734375,-28.869626998901367,-2.09228515625,0.8353271484375,-0.7528076171875
0.436,310,683,1101,312,-14.0,42.0,38.0,-28.991697311401367,-2.868652105331421,-6.958007335662842,-2.407470703125,0.5538330078125,-0.60791015625
0.446,310,691,1129,312,-14.0,42.0,38.0,-44.677730560302734,-3.723144292831421,24.536130905151367,-2.21533203125,0.3056640625,-0.232177734375
0.453,311,694,1129,310,-14.0,42.0,38.0,-47.241207122802734,-9.8876953125,50.292964935302734,-1.693115234375,0.2991943359375,0.1256103515625
0.466,310,684,1112,312,-14.0,42.0,38.0,-22.277830123901367,-13.244627952575684,54.260250091552734,-1.1290283203125,0.5960693359375,0.251953125
0.481,310,673,1096,312,-14.0,42.0,38.0,19.287109375,-6.774901866912842,36.68212890625,-0.7557373046875,0.9288330078125,0.09619140625
0.483,297,666,1094,312,-14.0,42.0,38.0,47.302242279052734,4.150390625,10.192870140075684,-0.661376953125,1.0263671875,-0.130126953125
0.502,310,664,1087,313,-14.0,42.0,38.0,46.020503997802734,10.131834983825684,-12.268065452575684,-0.8529052734375,0.914306640625,-0.27685546875
0.505,310,654,1051,312,-10.0,43.0,40.0,23.559568405151367,8.9111328125,-23.132322311401367,-1.2320556640625,0.8238525390625,-0.3348388671875
0.516,308,642,1017,310,-10.0,43.0,40.0,-4.94384765625,3.662109136581421,-20.996091842651367,-1.5662841796875,0.854248046875,-0.3228759765625
0.526,310,613,943,312,-10.0,43.0,40.0,-27.832029342651367,0.0,-10.192870140075684,-1.6678466796875,0.8731689453125,-0.2528076171875
0.534,310,594,912,312,-10.0,43.0,40.0,-36.0107421875,0.9155272841453552,2.563476324081421,-1.5308837890625,0.7938232421875,-0.1353759765625
0.542,310,567,877,312,-10.0,43.0,40.0,-27.526853561401367,4.2724609375,11.352538108825684,-1.2686767578125,0.6568603515625,0.0
0.556,310,531,767,311,-10.0,43.0,40.0,-8.30078125,7.263183116912842,13.305663108825684,-1.003173828125,0.5614013671875,0.0953369140625
0.565,310,506,725,312,-10.0,43.0,40.0,13.000487327575684,9.033203125,8.056640625,-0.804931640625,0.5277099609375,0.1007080078125
0.576,310,476,671,314,-10.0,43.0,40.0,30.334470748901367,11.291502952575684,-2.3193359375,-0.6839599609375,0.5064697265625,0.013671875
0.595,310,437,600,311,-10.0,43.0,40.0,39.794921875,13.916014671325684,-14.038084983825684,-0.602294921875,0.4407958984375,-0.0914306640625
0.600,310,396,568,311,-10.0,43.0,40.0,41.809078216552734,14.221190452575684,-23.681638717651367,-0.5445556640625,0.29248046875,-0.1177978515625
0.607,308,389,547,311,-12.0,41.0,40.0,42.846675872802734,11.474608421325684,-30.578611373901367,-0.54931640625,0.1148681640625,-0.114013671875
0.622,310,371,508,310,-12.0,41.0,40.0,48.767086029052734,10.009765625,-34.7900390625,-0.5537109375,0.054931640625,-0.24462890625
0.625,310,361,497,311,-12.0,41.0,40.0,57.189937591552734,12.329100608825684,-36.2548828125,-0.5537109375,0.054931640625,-0.24462890625
0.634,310,357,490,310,-12.0,41.0,40.0,60.424800872802734,12.939452171325684,-33.75244140625,-0.58349609375,0.2532958984375,-0.268310546875
0.649,310,357,488,310,-12.0,41.0,40.0,54.016109466552734,7.324218273162842,-29.357908248901367,-0.6162109375,0.5936279296875,-0.2484130859375
0.655,310,356,490,310,-12.0,41.0,40.0,39.61181640625,0.0,-27.893064498901367,-0.6162109375,0.5936279296875,-0.2484130859375
0.664,309,354,493,310,-12.0,41.0,40.0,21.728513717651367,-4.5166015625,-28.503416061401367,-0.638671875,0.596923828125,-0.2332763671875
0.680,310,349,481,310,-12.0,41.0,40.0,5.798339366912842,-7.568358898162842,-28.747556686401367,-0.6517333984375,0.4794921875,-0.115478515625
0.685,310,351,483,311,-12.0,41.0,40.0,-5.798339366912842,-10.314940452575684,-28.747556686401367,-0.6517333984375,0.4794921875,-0.115478515625
0.709,311,352,485,310,-12.0,41.0,40.0,-12.634276390075684,-10.742186546325684,-27.893064498901367,-0.642822265625,0.41015625,-0.0469970703125
0.709,310,357,499,310,-10.0,42.0,40.0,-15.441893577575684,-8.48388671875,-25.024412155151367,-0.676513671875,0.428466796875,0.0101318359375
0.716,310,359,497,310,-10.0,42.0,40.0,-15.624999046325684,-6.042479991912842,-20.935056686401367,-0.72021484375,0.45654296875,-0.0057373046875
0.731,308,364,499,310,-10.0,42.0,40.0,-14.526366233825684,-4.94384765625,-17.15087890625,-0.72021484375,0.45654296875,-0.0057373046875
0.738,310,365,497,310,-10.0,42.0,40.0,-8.72802734375,-3.967284917831421,-11.901854515075684,-0.757568359375,0.3734130859375,-0.0487060546875
0.746,308,364,506,310,-10.0,42.0,40.0,-8.72802734375,-3.967284917831421,-11.901854515075684,-0.7708740234375,0.3433837890625,-0.067138671875
0.754,308,369,509,311,-10.0,42.0,40.0,-2.929687261581421,-3.112792730331421,-7.629394054412842,-0.7708740234375,0.3433837890625,-0.067138671875
0.768,310,373,509,312,-10.0,42.0,40.0,6.103515148162842,-3.234863042831421,5.554198741912842,-0.814208984375,0.3883056640625,-0.1064453125
0.782,310,377,512,311,-10.0,42.0,40.0,6.103515148162842,-3.234863042831421,5.554198741912842,-0.8333740234375,0.3936767578125,-0.1378173828125
0.784,310,382,507,309,-10.0,42.0,40.0,5.981444835662842,-3.479003667831421,10.864256858825684,-0.8333740234375,0.3936767578125,-0.1378173828125
0.807,308,391,513,310,-10.0,42.0,40.0,-2.0751953125,-3.662109136581421,19.775390625,-0.8258056640625,0.3597412109375,-0.1514892578125
0.810,311,396,523,310,-10.0,42.0,37.0,-2.0751953125,-3.662109136581421,19.775390625,-0.79931640625,0.357177734375,-0.1343994140625
0.819,310,402,526,310,-10.0,42.0,37.0,-5.676269054412842,-3.479003667831421,24.047849655151367,-0.79931640625,0.357177734375,-0.1343994140625
0.827,308,420,535,310,-10.0,42.0,37.0,-10.131834983825684,-2.0751953125,31.127927780151367,-0.73193359375,0.37841796875,-0.11083984375
0.835,310,426,535,311,-10.0,42.0,37.0,-10.131834983825684,-2.0751953125,31.127927780151367,-0.6827392578125,0.4205322265625,-0.094970703125
0.843,311,442,552,311,-10.0,42.0,37.0,-11.108397483825684,-2.13623046875,33.63037109375,-0.6827392578125,0.4205322265625,-0.094970703125
0.858,310,465,578,312,-10.0,42.0,37.0,-21.728513717651367,-4.69970703125,28.320310592651367,-0.4886474609375,0.354248046875,-0.0078125
0.866,310,483,608,312,-10.0,42.0,37.0,-27.221677780151367,-4.45556640625,21.423337936401367,-0.3660888671875,0.2777099609375,0.06103515625
0.874,310,504,662,312,-10.0,42.0,37.0,-27.221677780151367,-4.45556640625,21.423337936401367,-0.2098388671875,0.215576171875,0.194091796875
0.887,310,551,771,311,-10.0,42.0,37.0,-10.925292015075684,-7.690429210662842,2.13623046875,-0.08837890625,0.201171875,0.3226318359375
0.902,310,580,882,311,-10.0,42.0,37.0,16.29638671875,-11.169432640075684,-13.183592796325684,-0.162353515625,0.357666015625,0.29150390625
0.911,310,614,932,312,-13.0,43.0,43.0,16.29638671875,-11.169432640075684,-13.183592796325684,-0.6273193359375,0.67578125,-0.0931396484375
0.918,311,648,1013,312,-13.0,43.0,43.0,42.724605560302734,-7.995604991912842,-39.4287109375,-1.357666015625,0.9219970703125,-0.6820068359375
0.931,310,662,1054,312,-13.0,43.0,43.0,15.930174827575684,1.9531248807907104,-41.503902435302734,-1.946533203125,0.9656982421875,-0.98583984375
0.934,311,676,1092,312,-13.0,43.0,43.0,15.930174827575684,1.9531248807907104,-41.503902435302734,-2.2127685546875,0.8369140625,-0.8206787109375
0.947,311,668,1069,312,-13.0,43.0,43.0,-59.570308685302734,-8.30078125,-20.507810592651367,-2.1885986328125,0.624755859375,-0.4085693359375
0.959,310,653,1056,311,-13.0,43.0,43.0,-68.78662109375,-20.080564498901367,-0.0610351525247097,-1.77734375,0.317138671875,0.0673828125
0.964,310,650,1047,312,-13.0,43.0,43.0,-68.78662109375,-20.080564498901367,-0.0610351525247097,-1.1337890625,0.114013671875,0.37451171875
0.977,310,647,1039,312,-13.0,43.0,43.0,25.817869186401367,-7.446288585662842,23.315427780151367,-0.8447265625,0.4832763671875,0.248779296875
0.986,310,644,1029,312,-13.0,43.0,43.0,69.580078125,2.01416015625,20.080564498901367,-1.0692138671875,1.1673583984375,-0.1663818359375
0.993,310,636,1012,312,-13.0,43.0,43.0,69.580078125,2.01416015625,20.080564498901367,-1.40771484375,1.41943359375,-0.5220947265625
1.011,310,618,957,312,-12.0,43.0,44.0,17.08984375,-0.4882812201976776,-10.803221702575684,-1.55322265625,1.1500244140625,-0.6287841796875
1.016,310,603,918,312,-12.0,43.0,44.0,-16.6015625,-6.774901866912842,-20.202634811401367,-1.4781494140625,0.755126953125,-0.46240234375
1.024,310,579,878,312,-12.0,43.0,44.0,-27.526853561401367,-14.831542015075684,-19.53125,-1.282958984375,0.5035400390625,-0.1651611328125
1.044,310,538,805,310,-12.0,43.0,44.0,-19.1650390625,-18.00537109375,-13.793944358825684,-1.0888671875,0.4234619140625,0.04736328125
1.052,310,512,756,312,-12.0,43.0,44.0,-2.563476324081421,-14.160155296325684,-9.70458984375,-0.9268798828125,0.376220703125,0.115234375
1.056,312,486,712,312,-12.0,43.0,44.0,12.329100608825684,-7.629394054412842,-10.437010765075684,-0.780517578125,0.295654296875,0.0709228515625
1.067,310,434,622,310,-12.0,43.0,44.0,22.644041061401367,-2.38037109375,-13.549803733825684,-0.636962890625,0.2200927734375,0.0234375
1.076,308,408,576,311,-12.0,43.0,44.0,30.090330123901367,-1.03759765625,-16.6015625,-0.5283203125,0.1102294921875,0.0318603515625
1.090,310,394,571,311,-12.0,43.0,44.0,40.283199310302734,0.30517578125,-20.324705123901367,-0.4996337890625,-0.02587890625,-0.0242919921875
1.098,310,379,547,311,-13.0,43.0,38.0,55.480953216552734,6.164550304412842,-23.498533248901367,-0.533203125,-0.023193359375,-0.1395263671875
1.108,310,368,540,311,-13.0,43.0,38.0,63.720699310302734,9.70458984375,-23.437498092651367,-0.5635986328125,0.162109375,-0.18603515625
1.120,310,364,546,311,-13.0,43.0,38.0,56.640621185302734,5.676269054412842,-21.667478561401367,-0.5650634765625,0.3966064453125,-0.1982421875
1.128,308,363,543,310,-13.0,43.0,38.0,40.405269622802734,-1.4648436307907104,-21.545408248901367,-0.5714111328125,0.5606689453125,-0.228759765625
1.135,310,357,543,309,-13.0,43.0,38.0,22.338865280151367,-7.751464366912842,-23.193357467651367,-0.598876953125,0.615478515625,-0.237548828125
1.144,310,359,539,310,-13.0,43.0,38.0,6.164550304412842,-12.817381858825684,-25.451658248901367,-0.6378173828125,0.5848388671875,-0.2039794921875
1.167,309,359,543,310,-13.0,43.0,38.0,-7.141112804412842,-16.9677734375,-27.282712936401367,-0.6632080078125,0.5003662109375,-0.1358642578125
1.167,310,360,547,310,-13.0,43.0,38.0,-17.02880859375,-18.85986328125,-27.282712936401367,-0.67919921875,0.38916015625,-0.0538330078125
1.174,310,365,551,310,-13.0,43.0,38.0,-22.521970748901367,-17.578125,-24.047849655151367,-0.708984375,0.30859375,0.010498046875
1.191,310,367,552,310,-13.0,43.0,38.0,-22.888181686401367,-14.648436546325684,-17.822265625,-0.7635498046875,0.3079833984375,0.03076171875
1.196,310,370,558,310,-10.0,40.0,43.0,-19.10400390625,-12.145995140075684,-10.559081077575684,-0.810546875,0.3421630859375,0.02685546875
1.217,310,373,561,311,-10.0,40.0,43.0,-13.244627952575684,-10.009765625,-4.638671875,-0.813720703125,0.3231201171875,0.02734375
1.222,310,379,566,311,-10.0,40.0,43.0,-6.225585460662842,-7.507323741912842,0.0610351525247097,-0.802734375,0.2843017578125,0.0189208984375
1.226,310,382,568,310,-10.0,40.0,43.0,2.197265625,-5.0048828125,5.554198741912842,-0.8114013671875,0.3045654296875,-0.0157470703125
1.234,311,386,572,311,-10.0,40.0,43.0,9.8876953125,-3.356933355331421,11.474608421325684,-0.82958984375,0.3671875,-0.0662841796875
1.247,310,393,567,310,-10.0,40.0,43.0,13.061522483825684,-2.746581792831421,16.54052734375,-0.8330078125,0.4105224609375,-0.1041259765625
1.263,311,396,566,310,-10.0,40.0,43.0,10.925292015075684,-2.868652105331421,20.202634811401367,-0.8187255859375,0.4141845703125,-0.1131591796875
1.270,308,401,572,310,-10.0,40.0,43.0,6.774901866912842,-3.112792730331421,22.216794967651367,-0.802001953125,0.4010009765625,-0.106689453125
1.278,308,402,573,310,-10.0,40.0,43.0,2.990722417831421,-2.868652105331421,23.071287155151367,-0.796630859375,0.3856201171875,-0.10107421875
1.285,310,414,573,311,-10.0,40.0,43.0,-0.7934569716453552,-2.13623046875,23.986814498901367,-0.795654296875,0.3719482421875,-0.0938720703125
1.295,310,423,575,311,-10.0,40.0,43.0,-4.39453125,-1.4038084745407104,25.817869186401367,-0.776611328125,0.3720703125,-0.0802001953125
1.322,310,447,589,311,-11.0,42.0,49.0,-7.202147960662842,-0.9765624403953552,27.893064498901367,-0.7425537109375,0.3763427734375,-0.068603515625
1.322,310,454,601,310,-11.0,42.0,49.0,-9.8876953125,-1.15966796875,28.808591842651367,-0.68505859375,0.35986328125,-0.05419921875
1.324,310,454,616,310,-11.0,42.0,49.0,-13.610838890075684,-1.2817381620407104,28.747556686401367,-0.60400390625,0.303955078125,-0.0264892578125
1.338,310,509,673,312,-11.0,42.0,49.0,-17.51708984375,-0.8544921278953552,29.174802780151367,-0.3511962890625,0.1837158203125,0.1265869140625
1.346,310,537,742,312,-11.0,42.0,49.0,-17.9443359375,-0.54931640625,28.808591842651367,-0.3511962890625,0.1837158203125,0.1265869140625
1.354,310,562,827,312,-11.0,42.0,49.0,-10.314940452575684,-1.5258787870407104,23.681638717651367,-0.1766357421875,0.1719970703125,0.237060546875
1.375,310,622,955,311,-11.0,42.0,49.0,5.249022960662842,-3.906249761581421,10.070799827575684,-0.1668701171875,0.366943359375,0.0875244140625
1.382,310,662,1003,286,-11.0,42.0,49.0,23.315427780151367,-4.94384765625,-9.521484375,-0.1668701171875,0.366943359375,0.0875244140625
1.384,310,689,1067,312,-11.0,42.0,49.0,31.311033248901367,-1.5258787870407104,-26.245115280151367,-0.5701904296875,0.479248046875,-0.2945556640625
1.398,311,741,1163,312,-10.0,42.0,43.0,21.301267623901367,3.601073980331421,-34.912109375,-1.5235595703125,0.8809814453125,-0.71240234375
1.406,310,763,1211,312,-10.0,42.0,43.0,-1.6479490995407104,3.906249761581421,-36.92626953125,-1.5235595703125,0.8809814453125,-0.71240234375
1.424,310,780,1246,311,-10.0,42.0,43.0,-34.11865234375,-4.69970703125,-36.1328125,-1.91796875,1.145263671875,-0.662353515625
1.428,310,780,1245,312,-10.0,42.0,43.0,-70.068359375,-19.1650390625,-34.60693359375,-2.17626953125,0.6727294921875,-0.1239013671875
1.435,310,756,1215,314,-10.0,42.0,43.0,-86.60887908935547,-30.395505905151367,-29.663084030151367,-2.17626953125,0.6727294921875,-0.1239013671875
1.443,310,741,1188,312,-10.0,42.0,43.0,-67.44384765625,-31.555173873901367,-17.578125,-1.8433837890625,0.3343505859375,0.218017578125
1.457,310,740,1184,312,-10.0,42.0,43.0,-18.37158203125,-20.01953125,-3.723144292831421,-0.91357421875,0.4371337890625,0.217041015625
1.468,311,726,1173,312,-10.0,42.0,43.0,37.29248046875,-0.2441406100988388,5.371093273162842,-0.91357421875,0.4371337890625,0.217041015625
1.476,310,713,1141,312,-10.0,42.0,43.0,58.044429779052734,11.901854515075684,6.469726085662842,-1.2445068359375,1.1114501953125,-0.2738037109375
1.501,310,685,1074,312,-10.0,42.0,43.0,-10.070799827575684,0.1220703050494194,-16.2353515625,-1.8201904296875,0.8309326171875,-0.435546875
1.502,310,665,1031,311,-8.0,40.0,39.0,-10.070799827575684,0.1220703050494194,-16.2353515625,-1.699462890625,0.531494140625,-0.1607666015625
1.505,310,620,951,315,-8.0,40.0,39.0,-30.700681686401367,-7.019042491912842,-17.333984375,-1.699462890625,0.531494140625,-0.1607666015625
1.521,310,594,905,312,-8.0,40.0,39.0,-22.949216842651367,-2.929687261581421,8.30078125,-1.2508544921875,0.5103759765625,0.13330078125
1.526,310,564,832,312,-8.0,40.0,39.0,-22.949216842651367,-2.929687261581421,8.30078125,-0.9857177734375,0.4637451171875,0.1522216796875
1.534,310,533,771,312,-8.0,40.0,39.0,-9.70458984375,8.056640625,14.038084983825684,-0.9857177734375,0.4637451171875,0.1522216796875
1.548,310,455,658,310,-8.0,40.0,39.0,28.259275436401367,22.399900436401367,3.662109136581421,-0.4739990234375,0.19384765625,0.0789794921875
1.556,308,424,601,311,-8.0,40.0,39.0,28.259275436401367,22.399900436401367,3.662109136581421,-0.3369140625,0.066162109375,0.0352783203125
1.564,310,410,577,311,-8.0,40.0,39.0,45.166011810302734,23.254392623901367,-4.7607421875,-0.3369140625,0.066162109375,0.0352783203125
1.581,309,372,548,311,-8.0,40.0,39.0,70.00732421875,22.460935592651367,-22.644041061401367,-0.3673095703125,-0.1290283203125,-0.1802978515625
1.586,310,360,531,310,-8.0,40.0,39.0,70.00732421875,22.460935592651367,-22.644041061401367,-0.45703125,0.02197265625,-0.3043212890625
1.608,309,354,522,310,-10.0,42.0,42.0,75.25634765625,23.620603561401367,-26.550291061401367,-0.45703125,0.02197265625,-0.3043212890625
1.608,310,342,519,310,-10.0,42.0,42.0,41.442867279052734,7.751464366912842,-18.24951171875,-0.595458984375,0.5538330078125,-0.31787109375
1.634,309,341,518,310,-10.0,42.0,42.0,41.442867279052734,7.751464366912842,-18.24951171875,-0.6353759765625,0.6055908203125,-0.267822265625
1.634,310,343,522,310,-10.0,42.0,42.0,15.258788108825684,-3.234863042831421,-16.41845703125,-0.6353759765625,0.6055908203125,-0.267822265625
1.638,310,344,527,310,-10.0,42.0,42.0,-18.310546875,-15.563963890075684,-20.263669967651367,-0.6453857421875,0.4112548828125,-0.116943359375
1.646,310,349,525,310,-10.0,42.0,42.0,-21.911619186401367,-18.06640625,-19.775390625,-0.6619873046875,0.3590087890625,-0.0528564453125
1.654,310,349,533,310,-10.0,42.0,42.0,-21.911619186401367,-18.06640625,-19.775390625,-0.6951904296875,0.3551025390625,-0.0029296875
1.668,310,356,535,310,-10.0,42.0,42.0,-18.49365234375,-18.1884765625,-13.732909202575684,-0.7486572265625,0.398193359375,0.017822265625
1.676,310,356,533,310,-10.0,42.0,42.0,-18.85986328125,-15.991209983825684,-10.620116233825684,-0.791259765625,0.427734375,0.030517578125
1.688,310,360,536,312,-10.0,42.0,42.0,-18.85986328125,-15.991209983825684,-10.620116233825684,-0.8062744140625,0.3819580078125,0.049560546875
1.704,308,364,540,310,-10.0,40.0,44.0,-16.78466796875,-7.507323741912842,-9.09423828125,-0.81298828125,0.308349609375,0.060302734375
1.706,310,369,543,311,-10.0,40.0,44.0,-11.962889671325684,-3.906249761581421,-5.737304210662842,-0.810302734375,0.274658203125,0.058349609375
1.720,309,372,548,310,-10.0,40.0,44.0,-11.962889671325684,-3.906249761581421,-5.737304210662842,-0.80859375,0.279296875,0.0386962890625
1.728,310,377,552,311,-10.0,40.0,44.0,0.2441406100988388,-1.4648436307907104,8.60595703125,-0.8160400390625,0.2960205078125,0.00244140625
1.738,310,382,558,311,-10.0,40.0,44.0,5.493163585662842,-1.220703125,15.380858421325684,-0.8218994140625,0.314208984375,-0.044921875
1.744,310,384,561,310,-10.0,40.0,44.0,5.493163585662842,-1.220703125,15.380858421325684,-0.834716796875,0.332763671875,-0.0980224609375
1.757,310,394,557,310,-10.0,40.0,44.0,9.1552734375,-0.7324218153953552,26.245115280151367,-0.8616943359375,0.337158203125,-0.1334228515625
1.766,309,401,561,311,-10.0,40.0,44.0,4.08935546875,0.4272460639476776,32.28759765625,-0.8717041015625,0.30859375,-0.1239013671875
1.775,310,410,561,312,-10.0,40.0,44.0,4.08935546875,0.4272460639476776,32.28759765625,-0.830322265625,0.2708740234375,-0.064208984375
1.795,311,438,588,310,-10.0,40.0,44.0,-10.131834983825684,3.112792730331421,42.358394622802734,-0.7362060546875,0.2757568359375,0.0123291015625
1.796,310,450,568,287,-10.0,44.0,41.0,0.1831054538488388,1.6479490995407104,43.151851654052734,-0.597412109375,0.292724609375,0.0506591796875
1.806,310,469,634,310,-10.0,44.0,41.0,17.4560546875,-1.9531248807907104,39.55078125,-0.4241943359375,0.2506103515625,0.062255859375
1.819,310,523,713,311,-10.0,44.0,41.0,26.428220748901367,-4.39453125,33.50830078125,-0.2177734375,0.17822265625,0.1314697265625
1.840,310,551,794,311,-10.0,44.0,41.0,25.695798873901367,-3.479003667831421,25.268552780151367,0.0185546875,0.135009765625,0.274169921875
1.840,310,606,920,312,-10.0,44.0,41.0,25.817869186401367,-2.3193359375,10.925292015075684,0.2303466796875,0.12109375,0.39794921875
1.848,310,688,1038,311,-10.0,44.0,41.0,37.109375,-4.5166015625,-10.864256858825684,0.136474609375,0.2755126953125,0.189453125
1.856,311,721,1133,313,-10.0,44.0,41.0,52.307125091552734,-9.1552734375,-32.16552734375,-0.3531494140625,0.5635986328125,-0.447265625
1.864,310,770,1211,313,-10.0,44.0,41.0,49.072261810302734,-14.648436546325684,-44.921871185302734,-0.9346923828125,0.7633056640625,-1.0126953125
1.881,311,826,1338,312,-10.0,44.0,41.0,18.798828125,-21.423337936401367,-49.499507904052734,-1.4468994140625,0.8955078125,-1.0633544921875
1.886,312,861,1387,314,-10.0,44.0,41.0,-31.921384811401367,-31.433103561401367,-50.964351654052734,-1.8719482421875,0.926025390625,-0.6363525390625
1.900,311,889,1416,312,-13.0,42.0,44.0,-85.38817596435547,-41.076656341552734,-49.377437591552734,-2.20361328125,0.712646484375,-0.0662841796875
1.908,310,888,1404,313,-13.0,42.0,44.0,-112.30467987060547,-41.015621185302734,-38.2080078125,-2.409423828125,0.4217529296875,0.32080078125
1.916,310,873,1374,312,-13.0,42.0,44.0,-96.67967987060547,-27.221677780151367,-14.831542015075684,-2.3115234375,0.338134765625,0.4266357421875
1.936,310,864,1349,312,-13.0,42.0,44.0,-47.180171966552734,-4.69970703125,10.253905296325684,-1.6138916015625,0.187255859375,0.4647216796875
1.938,310,832,1289,312,-13.0,42.0,44.0,22.216794967651367,20.263669967651367,23.193357467651367,-0.859375,0.254638671875,0.27001953125
1.946,315,827,1297,312,-13.0,42.0,44.0,73.66943359375,36.1328125,21.911619186401367,-0.7164306640625,0.77490234375,-0.266845703125
1.954,310,822,1305,313,-13.0,42.0,44.0,68.359375,32.1044921875,6.042479991912842,-1.0213623046875,1.0859375,-0.7099609375
1.967,310,808,1260,312,-13.0,42.0,44.0,18.4326171875,12.634276390075684,-17.39501953125,-1.505859375,1.0322265625,-0.763671875
1.981,311,782,1219,312,-13.0,42.0,44.0,-39.55078125,-11.108397483825684,-30.883787155151367,-1.8828125,0.7738037109375,-0.4437255859375
1.984,310,764,1178,312,-13.0,42.0,44.0,-72.998046875,-26.184080123901367,-27.648923873901367,-1.97607421875,0.468017578125,-0.0364990234375
1.998,310,715,1092,312,-9.0,40.0,46.0,-69.7021484375,-25.207517623901367,-12.939452171325684,-1.8409423828125,0.314208984375,0.2265625
2.014,310,688,1022,311,-9.0,40.0,46.0,-40.527339935302734,-12.695311546325684,5.432128429412842,-1.5865478515625,0.3958740234375,0.30712890625
2.014,310,654,960,312,-9.0,40.0,46.0,-5.493163585662842,1.5258787870407104,20.080564498901367,-1.2725830078125,0.537841796875,0.2701416015625
2.029,310,578,833,311,-9.0,40.0,46.0,20.935056686401367,11.657713890075684,25.024412155151367,-0.9395751953125,0.535888671875,0.18359375
2.039,310,535,771,312,-9.0,40.0,46.0,39.24560546875,17.88330078125,19.4091796875,-0.6151123046875,0.439208984375,0.060302734375
2.044,309,504,725,310,-9.0,40.0,46.0,54.199214935302734,23.254392623901367,7.812499523162842,-0.392333984375,0.37255859375,-0.1123046875
2.058,310,447,629,311,-9.0,40.0,46.0,59.875484466552734,26.550291061401367,-4.638671875,-0.32568359375,0.3648681640625,-0.2691650390625
2.066,310,411,594,311,-9.0,40.0,46.0,47.790523529052734,23.498533248901367,-15.686034202575684,-0.362548828125,0.2852783203125,-0.29052734375
2.074,314,391,574,311,-9.0,40.0,46.0,26.000974655151367,15.624999046325684,-26.123044967651367,-0.4212646484375,0.051025390625,-0.23876953125
2.088,311,372,551,310,-9.0,40.0,46.0,14.160155296325684,11.047362327575684,-34.48486328125,-0.458251953125,-0.1005859375,-0.2474365234375
2.096,309,377,549,312,-10.0,42.0,41.0,14.587401390075684,10.131834983825684,-34.97314453125,-0.491943359375,-0.00537109375,-0.2408447265625
2.104,310,368,547,310,-10.0,42.0,41.0,13.244627952575684,4.638671875,-28.198240280151367,-0.53076171875,0.1676025390625,-0.13818359375
2.120,308,364,549,310,-10.0,42.0,41.0,5.249022960662842,-5.310058116912842,-21.179197311401367,-0.60546875,0.3316650390625,-0.004150390625
2.128,310,364,552,311,-10.0,42.0,41.0,-3.601073980331421,-12.023924827575684,-17.2119140625,-0.60546875,0.3316650390625,-0.004150390625
2.139,310,364,562,310,-10.0,42.0,41.0,-9.70458984375,-13.366698265075684,-14.953612327575684,-0.640869140625,0.3709716796875,-0.0302734375
2.147,309,371,572,310,-10.0,42.0,41.0,-12.573241233825684,-13.427733421325684,-12.634276390075684,-0.68701171875,0.401611328125,-0.016357421875
2.156,307,372,583,312,-10.0,42.0,41.0,-14.099120140075684,-14.465331077575684,-9.6435546875,-0.68701171875,0.401611328125,-0.016357421875
2.171,310,374,588,311,-10.0,42.0,41.0,-15.991209983825684,-15.197752952575684,-6.530761241912842,-0.7197265625,0.3587646484375,0.0323486328125
2.178,308,382,593,311,-10.0,42.0,41.0,-17.27294921875,-13.610838890075684,-3.601073980331421,-0.7647705078125,0.256591796875,0.056396484375
2.186,310,387,601,310,-10.0,42.0,41.0,-16.54052734375,-9.70458984375,-0.1220703050494194,-0.7647705078125,0.256591796875,0.056396484375
2.194,309,396,604,311,-9.0,42.0,42.0,-14.465331077575684,-5.920409679412842,4.69970703125,-0.7841796875,0.26123046875,0.0460205078125
2.208,310,405,614,310,-9.0,42.0,42.0,-11.718749046325684,-3.662109136581421,10.559081077575684,-0.7994384765625,0.3050537109375,0.01123046875
2.224,310,409,622,311,-9.0,42.0,42.0,-7.751464366912842,-2.01416015625,15.930174827575684,-0.7994384765625,0.3050537109375,0.01123046875
2.225,310,419,634,311,-9.0,42.0,42.0,-2.990722417831421,-0.54931640625,19.83642578125,-0.78271484375,0.3197021484375,-0.0189208984375
2.246,310,451,644,310,-9.0,42.0,42.0,1.03759765625,0.4272460639476776,22.094724655151367,-0.744384765625,0.395751953125,-0.0628662109375
2.247,310,457,644,310,-9.0,42.0,42.0,3.417968511581421,0.4882812201976776,23.559568405151367,-0.7208251953125,0.4130859375,-0.0611572265625
2.254,310,469,644,310,-9.0,42.0,42.0,1.7089842557907104,-0.7934569716453552,23.559568405151367,-0.7208251953125,0.4130859375,-0.0611572265625
2.268,310,491,695,312,-9.0,42.0,42.0,-11.230467796325684,-3.234863042831421,19.1650390625,-0.6739501953125,0.3221435546875,-0.0570068359375
2.276,310,508,723,312,-9.0,42.0,42.0,-11.230467796325684,-3.234863042831421,19.1650390625,-0.6312255859375,0.3292236328125,-0.0596923828125
2.285,310,531,756,311,-9.0,42.0,42.0,-13.000487327575684,-4.45556640625,17.39501953125,-0.6312255859375,0.3292236328125,-0.0596923828125
2.298,310,576,832,312,-7.0,39.0,46.0,-9.6435546875,-8.23974609375,10.925292015075684,-0.4525146484375,0.2320556640625,-0.010986328125
2.306,309,613,891,311,-7.0,39.0,46.0,-9.6435546875,-8.23974609375,10.925292015075684,-0.4453125,0.1197509765625,0.047607421875
2.318,310,644,980,312,-7.0,39.0,46.0,-5.737304210662842,-9.8876953125,5.065917491912842,-0.4453125,0.1197509765625,0.047607421875
2.327,310,702,1091,311,-7.0,39.0,46.0,9.1552734375,-13.732909202575684,-14.770506858825684,-0.7474365234375,0.186767578125,-0.0645751953125
2.346,310,739,1151,313,-7.0,39.0,46.0,9.1552734375,-13.732909202575684,-14.770506858825684,-1.0145263671875,0.4375,-0.2694091796875
2.346,310,777,1206,312,-7.0,39.0,46.0,13.122557640075684,-16.6015625,-22.644041061401367,-1.0145263671875,0.4375,-0.2694091796875
2.358,309,822,1287,312,-7.0,39.0,46.0,-22.521970748901367,-20.263669967651367,-23.437498092651367,-1.443359375,0.827880859375,-0.3057861328125
2.366,310,830,1323,314,-7.0,39.0,46.0,-22.521970748901367,-20.263669967651367,-23.437498092651367,-1.695556640625,0.93603515625,-0.1619873046875
2.374,312,846,1326,313,-7.0,39.0,46.0,-51.269527435302734,-19.775390625,-19.59228515625,-1.695556640625,0.93603515625,-0.1619873046875
2.389,310,835,1292,311,-6.0,40.0,42.0,-74.40185546875,-15.136717796325684,-7.995604991912842,-1.9298095703125,0.52685546875,0.25927734375
2.398,310,827,1266,313,-6.0,40.0,42.0,-51.940914154052734,-4.94384765625,1.5258787870407104,-1.423095703125,0.1060791015625,0.462646484375
2.404,310,813,1226,313,-6.0,40.0,42.0,-51.940914154052734,-4.94384765625,1.5258787870407104,-0.88671875,0.1136474609375,0.3489990234375
2.422,310,794,1209,312,-6.0,40.0,42.0,47.973628997802734,24.597166061401367,14.465331077575684,-0.83349609375,0.6444091796875,-0.1053466796875
2.443,310,790,1189,314,-6.0,40.0,42.0,57.128902435302734,24.047849655151367,4.0283203125,-1.1688232421875,1.07275390625,-0.495361328125
2.443,310,780,1160,312,-6.0,40.0,42.0,57.128902435302734,24.047849655151367,4.0283203125,-1.572265625,1.0479736328125,-0.5545654296875
2.452,310,754,1087,312,-6.0,40.0,42.0,-23.254392623901367,-5.126952648162842,-37.17041015625,-1.798583984375,0.7117919921875,-0.3427734375
2.456,311,728,1026,314,-6.0,40.0,42.0,-49.133296966552734,-15.502928733825684,-38.87939453125,-1.807373046875,0.431640625,-0.0794677734375
2.464,310,703,968,312,-6.0,40.0,42.0,-49.133296966552734,-15.502928733825684,-38.87939453125,-1.6881103515625,0.403076171875,0.075439453125
2.478,310,650,879,311,-6.0,40.0,42.0,-30.456541061401367,-10.620116233825684,-6.958007335662842,-1.49853515625,0.4681396484375,0.122314453125
2.490,311,620,826,312,-6.0,39.0,44.0,-10.864256858825684,-1.2817381620407104,5.432128429412842,-1.2269287109375,0.43505859375,0.1451416015625
2.495,310,585,777,312,-6.0,39.0,44.0,-10.864256858825684,-1.2817381620407104,5.432128429412842,-0.9053955078125,0.322509765625,0.1630859375
2.511,310,522,694,312,-6.0,39.0,44.0,20.568845748901367,15.686034202575684,10.681151390075684,-0.6126708984375,0.193603515625,0.1619873046875
2.532,309,488,644,312,-6.0,39.0,44.0,34.97314453125,18.798828125,9.3994140625,-0.4100341796875,0.1326904296875,0.1180419921875
2.551,293,444,629,311,-6.0,39.0,44.0,34.97314453125,18.798828125,9.3994140625,-0.3118896484375,0.1561279296875,0.0330810546875
2.555,309,413,599,311,-6.0,39.0,44.0,57.678218841552734,19.775390625,-3.906249761581421,-0.3228759765625,0.17138671875,-0.025390625
2.555,309,391,588,310,-6.0,39.0,44.0,55.297847747802734,17.2119140625,-14.648436546325684,-0.3944091796875,0.0960693359375,-0.0335693359375
2.555,310,382,590,310,-6.0,39.0,44.0,50.109859466552734,14.282225608825684,-23.437498092651367,-0.4786376953125,-0.0006103515625,-0.07666015625
2.568,310,381,577,311,-6.0,39.0,44.0,48.339839935302734,13.610838890075684,-25.268552780151367,-0.564453125,0.0538330078125,-0.165771484375
2.576,310,372,580,310,-6.0,39.0,44.0,44.921871185302734,11.718749046325684,-19.59228515625,-0.6279296875,0.2432861328125,-0.22021484375
2.584,309,371,582,311,-6.0,39.0,44.0,34.48486328125,6.652831554412842,-11.657713890075684,-0.676025390625,0.427490234375,-0.2265625
2.598,310,372,587,309,-8.0,40.0,43.0,21.179197311401367,0.4272460639476776,-6.164550304412842,-0.7066650390625,0.5020751953125,-0.191650390625
2.606,308,373,594,311,-8.0,40.0,43.0,9.765625,-4.69970703125,-4.8828125,-0.7100830078125,0.4422607421875,-0.1346435546875
2.614,310,373,591,310,-8.0,40.0,43.0,2.563476324081421,-7.629394054412842,-5.981444835662842,-0.7105712890625,0.3551025390625,-0.075439453125
2.630,310,382,592,311,-8.0,40.0,43.0,-0.1831054538488388,-8.6669921875,-5.187987804412842,-0.7232666015625,0.323486328125,-0.001953125
2.662,311,386,604,310,-8.0,40.0,43.0,-0.4272460639476776,-8.48388671875,-2.0751953125,-0.7435302734375,0.2945556640625,0.06787109375
2.663,308,388,601,311,-8.0,40.0,43.0,-0.7934569716453552,-6.652831554412842,1.3427733182907104,-0.7664794921875,0.25,0.088623046875
2.663,310,399,604,299,-8.0,40.0,43.0,-1.2817381620407104,-3.295898199081421,5.126952648162842,-0.7916259765625,0.246337890625,0.0609130859375
2.666,308,402,606,310,-8.0,40.0,43.0,-0.6103515625,-0.1831054538488388,9.6435546875,-0.8131103515625,0.2742919921875,0.01708984375
2.674,309,409,607,311,-8.0,40.0,43.0,0.8544921278953552,1.4038084745407104,14.404295921325684,-0.8131103515625,0.285400390625,-0.01416015625
2.688,310,432,601,310,-8.0,39.0,42.0,3.112792730331421,1.03759765625,19.04296875,-0.7933349609375,0.282470703125,-0.039306640625
2.696,310,437,606,311,-8.0,39.0,42.0,7.629394054412842,-0.6103515625,23.315427780151367,-0.785888671875,0.2998046875,-0.0841064453125
2.704,310,451,616,312,-8.0,39.0,42.0,12.512206077575684,-2.197265625,26.855466842651367,-0.8017578125,0.36083984375,-0.1278076171875
2.718,310,477,618,311,-8.0,39.0,42.0,12.268065452575684,-3.356933355331421,29.052732467651367,-0.79248046875,0.4083251953125,-0.1337890625
2.734,309,491,635,311,-8.0,39.0,42.0,5.065917491912842,-3.967284917831421,28.686521530151367,-0.751220703125,0.3843994140625,-0.11962890625
2.734,310,502,657,310,-8.0,39.0,42.0,-5.615233898162842,-4.45556640625,26.916501998901367,-0.7005615234375,0.3480224609375,-0.100341796875
2.767,310,543,730,310,-8.0,39.0,42.0,-14.648436546325684,-5.615233898162842,25.451658248901367,-0.613525390625,0.33203125,-0.0545654296875
2.767,309,566,767,296,-8.0,39.0,42.0,-20.324705123901367,-6.713866710662842,23.681638717651367,-0.520263671875,0.28173828125,0.017822265625
2.768,310,576,808,313,-8.0,39.0,42.0,-22.766111373901367,-8.9111328125,19.71435546875,-0.4522705078125,0.1441650390625,0.1173095703125
2.778,310,640,944,312,-8.0,39.0,42.0,-20.080564498901367,-13.854979515075684,12.451170921325684,-0.4019775390625,-0.03369140625,0.20263671875
2.786,311,675,1025,312,-9.0,42.0,39.0,-8.9111328125,-19.47021484375,2.929687261581421,-0.403564453125,-0.06640625,0.203369140625
2.794,310,707,1098,314,-9.0,42.0,39.0,9.3994140625,-22.277830123901367,-8.48388671875,-0.513671875,0.167236328125,0.0787353515625
2.808,310,771,1228,312,-9.0,42.0,39.0,23.193357467651367,-21.301267623901367,-20.568845748901367,-0.7352294921875,0.5296630859375,-0.12646484375
2.816,310,809,1282,313,-9.0,42.0,39.0,18.1884765625,-17.88330078125,-28.686521530151367,-1.0699462890625,0.800537109375,-0.3109130859375
2.832,311,834,1312,313,-9.0,42.0,39.0,-6.896972179412842,-14.160155296325684,-29.052732467651367,-1.509033203125,0.931396484375,-0.4073486328125
2.838,310,861,1361,312,-9.0,42.0,39.0,-38.4521484375,-12.207030296325684,-23.254392623901367,-1.941162109375,0.932861328125,-0.374755859375
2.861,310,854,1323,314,-9.0,42.0,39.0,-60.485836029052734,-12.634276390075684,-14.831542015075684,-2.2020263671875,0.7786865234375,-0.1793212890625
2.861,310,846,1311,313,-9.0,42.0,39.0,-62.927242279052734,-11.779784202575684,-3.967284917831421,-2.086669921875,0.4769287109375,0.152099609375
2.868,310,816,1260,312,-9.0,42.0,39.0,-41.442867279052734,-2.929687261581421,7.873534679412842,-0.8504638671875,0.1202392578125,0.4462890625
2.876,310,813,1245,312,-9.0,42.0,39.0,4.5166015625,14.038084983825684,16.90673828125,-0.8504638671875,0.1202392578125,0.4462890625
2.884,311,806,1239,313,-9.0,40.0,42.0,49.987789154052734,27.099607467651367,18.4326171875,-0.8184814453125,0.7239990234375,-0.0670166015625
2.898,310,790,1204,311,-9.0,40.0,42.0,56.945796966552734,26.062009811401367,5.432128429412842,-1.635498046875,1.058837890625,-0.5892333984375
2.906,310,772,1162,314,-9.0,40.0,42.0,19.6533203125,13.244627952575684,-18.06640625,-1.635498046875,1.058837890625,-0.5892333984375
2.914,310,753,1123,312,-9.0,40.0,42.0,-29.235837936401367,-1.8920897245407104,-35.15625,-1.822265625,0.6663818359375,-0.304443359375
2.933,310,703,1025,312,-9.0,40.0,42.0,-53.771968841552734,-10.253905296325684,-36.07177734375,-1.6114501953125,0.423828125,0.1019287109375
2.936,310,664,971,313,-9.0,40.0,42.0,-47.546382904052734,-8.72802734375,-23.925779342651367,-1.6114501953125,0.423828125,0.1019287109375
2.971,312,631,917,314,-9.0,40.0,42.0,-27.343748092651367,-1.03759765625,-9.033203125,-1.42041015625,0.504150390625,0.0699462890625
2.974,310,582,819,311,-9.0,40.0,42.0,-7.263183116912842,7.446288585662842,0.4882812201976776,-0.881591796875,0.2919921875,0.0450439453125
2.974,287,524,771,310,-9.0,40.0,42.0,9.09423828125,14.343260765075684,5.493163585662842,-0.881591796875,0.2919921875,0.0450439453125
2.974,310,513,713,312,-9.0,40.0,42.0,20.935056686401367,18.310546875,8.60595703125,-0.5975341796875,0.140380859375,0.0814208984375
2.987,310,467,677,312,-9.0,41.0,39.0,31.799314498901367,18.5546875,9.3994140625,-0.3255615234375,0.088134765625,0.091552734375
2.996,310,438,647,311,-9.0,41.0,39.0,44.982906341552734,16.2353515625,6.835937023162842,-0.3255615234375,0.088134765625,0.091552734375
3.004,310,411,621,310,-9.0,41.0,39.0,56.396480560302734,14.343260765075684,1.0986328125,-0.3486328125,0.1807861328125,0.008544921875
3.018,308,382,594,310,-9.0,41.0,39.0,52.978511810302734,10.864256858825684,-16.357421875,-0.4833984375,0.0750732421875,0.025634765625
3.026,310,373,578,310,-9.0,41.0,39.0,52.978511810302734,10.864256858825684,-16.357421875,-0.5474853515625,0.059814453125,-0.0301513671875
3.037,310,379,574,310,-9.0,41.0,39.0,50.170894622802734,11.657713890075684,-21.118162155151367,-0.5474853515625,0.059814453125,-0.0301513671875
3.081,308,379,568,310,-9.0,41.0,39.0,45.654293060302734,13.366698265075684,-11.535643577575684,-0.679443359375,0.3843994140625,-0.217041015625
3.082,310,380,579,310,-9.0,41.0,39.0,45.654293060302734,13.366698265075684,-11.535643577575684,-0.7320556640625,0.486083984375,-0.2523193359375
3.082,310,382,579,311,-9.0,41.0,39.0,38.2080078125,8.60595703125,-4.21142578125,-0.7320556640625,0.486083984375,-0.2523193359375
3.082,310,387,578,311,-9.0,41.0,39.0,16.9677734375,0.2441406100988388,2.807616949081421,-0.7452392578125,0.314208984375,-0.1236572265625
3.086,310,391,578,311,-9.0,39.0,44.0,16.9677734375,0.2441406100988388,2.807616949081421,-0.7698974609375,0.2734375,-0.027587890625
3.094,310,393,582,311,-9.0,39.0,44.0,10.620116233825684,0.0610351525247097,5.554198741912842,-0.7698974609375,0.2734375,-0.027587890625
3.108,310,398,584,310,-9.0,39.0,44.0,10.253905296325684,0.1220703050494194,10.742186546325684,-0.8271484375,0.2991943359375,0.049560546875
3.119,310,400,580,312,-9.0,39.0,44.0,10.253905296325684,0.1220703050494194,10.742186546325684,-0.841796875,0.3212890625,0.0101318359375
3.124,310,407,578,312,-9.0,39.0,44.0,11.047362327575684,1.15966796875,13.183592796325684,-0.841796875,0.3212890625,0.0101318359375
3.138,310,413,578,310,-9.0,39.0,44.0,11.047362327575684,3.662109136581421,17.9443359375,-0.8310546875,0.3358154296875,-0.0635986328125
3.146,310,415,579,310,-9.0,39.0,44.0,11.047362327575684,3.662109136581421,17.9443359375,-0.82568359375,0.3436279296875,-0.09228515625
3.165,309,420,585,311,-9.0,39.0,44.0,9.27734375,4.69970703125,18.9208984375,-0.8321533203125,0.3662109375,-0.1324462890625
3.168,309,433,587,310,-9.0,39.0,44.0,7.751464366912842,5.798339366912842,19.22607421875,-0.855712890625,0.384033203125,-0.166748046875
3.186,309,434,586,311,-9.0,39.0,44.0,2.197265625,6.103515148162842,21.362302780151367,-0.8466796875,0.3780517578125,-0.157958984375
3.186,310,441,590,311,-9.0,39.0,46.0,2.197265625,6.103515148162842,21.362302780151367,-0.7813720703125,0.327392578125,-0.1138916015625
3.198,310,465,614,310,-9.0,39.0,46.0,-15.075682640075684,6.286620616912842,25.085447311401367,-0.6929931640625,0.2608642578125,-0.073486328125
3.206,310,473,622,311,-9.0,39.0,46.0,-14.282225608825684,4.45556640625,25.207517623901367,-0.5927734375,0.23974609375,-0.0521240234375
3.214,310,490,636,312,-9.0,39.0,46.0,-14.282225608825684,4.45556640625,25.207517623901367,-0.4644775390625,0.2603759765625,-0.0374755859375
3.228,310,533,736,310,-9.0,39.0,46.0,-2.807616949081421,-0.1831054538488388,23.071287155151367,-0.323974609375,0.2918701171875,0.007568359375
3.240,310,561,816,312,-9.0,39.0,46.0,-5.981444835662842,-1.6479490995407104,16.9677734375,-0.2330322265625,0.3115234375,0.0875244140625
3.244,310,587,891,311,-9.0,39.0,46.0,-5.981444835662842,-1.6479490995407104,16.9677734375,-0.218017578125,0.2933349609375,0.1138916015625
3.269,310,645,1042,312,-9.0,39.0,46.0,-12.939452171325684,-9.033203125,-16.9677734375,-0.3397216796875,0.2681884765625,-0.01513671875
3.269,312,660,1133,310,-9.0,39.0,46.0,-18.1884765625,-17.39501953125,-36.80419921875,-0.6390380859375,0.3377685546875,-0.24755859375
3.274,310,728,1204,313,-9.0,39.0,46.0,-18.1884765625,-17.39501953125,-36.80419921875,-1.0528564453125,0.46533203125,-0.401611328125
3.288,310,785,1284,312,-7.0,40.0,45.0,-49.133296966552734,-29.479978561401367,-49.194332122802734,-1.4923095703125,0.5382080078125,-0.371826171875
3.297,310,809,1320,314,-7.0,40.0,45.0,-71.47216796875,-29.174802780151367,-42.663570404052734,-1.83837890625,0.525146484375,-0.1885986328125
3.304,310,823,1342,312,-7.0,40.0,45.0,-85.87645721435547,-25.451658248901367,-29.968259811401367,-2.0302734375,0.53076171875,-0.0040283203125
3.318,310,818,1309,312,-7.0,40.0,45.0,-80.2001953125,-17.578125,-11.901854515075684,-2.097412109375,0.626220703125,0.0836181640625
3.326,311,806,1286,313,-7.0,40.0,45.0,-60.119625091552734,-5.737304210662842,6.835937023162842,-1.819580078125,0.5146484375,0.2196044921875
3.334,310,793,1254,313,-7.0,40.0,45.0,-30.578611373901367,10.131834983825684,19.287109375,-1.19140625,0.24755859375,0.3568115234375
3.348,310,780,1239,312,-7.0,40.0,45.0,12.817381858825684,24.230955123901367,23.498533248901367,-0.789306640625,0.445556640625,0.170166015625
3.372,311,770,1228,312,-7.0,40.0,45.0,48.706050872802734,26.855466842651367,16.4794921875,-0.93701171875,0.958740234375,-0.3037109375
3.373,310,763,1202,314,-7.0,40.0,45.0,45.654293060302734,17.2119140625,-4.08935546875,-1.337646484375,1.0965576171875,-0.6002197265625
3.378,312,730,1156,313,-7.0,40.0,45.0,9.94873046875,2.685546636581421,-26.672361373901367,-1.626220703125,0.814208984375,-0.515380859375
3.392,311,705,1096,313,-7.0,40.0,44.0,-23.925779342651367,-9.21630859375,-36.376953125,-1.7109375,0.517822265625,-0.2646484375
3.394,310,676,1050,312,-7.0,40.0,44.0,-36.7431640625,-14.038084983825684,-30.883787155151367,-1.6590576171875,0.4337158203125,-0.0948486328125
3.412,310,631,948,312,-7.0,40.0,44.0,-34.423828125,-11.413573265075684,-19.34814453125,-1.5462646484375,0.4688720703125,-0.0540771484375
3.416,310,601,878,312,-7.0,40.0,44.0,-26.000974655151367,-5.554198741912842,-10.009765625,-1.36865234375,0.4742431640625,-0.0341796875
3.424,311,574,814,312,-7.0,40.0,44.0,-15.441893577575684,-0.54931640625,-4.45556640625,-1.11865234375,0.3858642578125,0.0155029296875
3.446,310,517,726,311,-7.0,40.0,44.0,-5.798339366912842,3.540038824081421,-0.6103515625,-0.839599609375,0.2178955078125,0.081298828125
3.446,294,490,680,312,-7.0,40.0,44.0,3.112792730331421,7.141112804412842,2.44140625,-0.5926513671875,0.0506591796875,0.1431884765625
3.454,310,467,636,312,-7.0,40.0,44.0,15.563963890075684,9.70458984375,3.784179449081421,-0.411376953125,0.01513671875,0.1683349609375
3.479,310,417,601,310,-7.0,40.0,44.0,30.151365280151367,11.535643577575684,2.807616949081421,-0.337646484375,0.140625,0.1173095703125
3.480,310,380,583,311,-7.0,40.0,44.0,38.6962890625,13.122557640075684,-1.0986328125,-0.375,0.2725830078125,0.0234375
3.484,310,387,587,310,-7.0,39.0,44.0,36.19384765625,13.366698265075684,-8.36181640625,-0.4498291015625,0.256103515625,0.0106201171875
3.498,309,380,582,310,-7.0,39.0,44.0,27.099607467651367,10.681151390075684,-16.78466796875,-0.5093994140625,0.16162109375,0.069580078125
3.506,310,380,574,310,-7.0,39.0,44.0,19.95849609375,7.446288585662842,-21.606443405151367,-0.552001953125,0.145263671875,0.06103515625
3.514,310,372,566,310,-7.0,39.0,44.0,16.78466796875,6.591796398162842,-20.324705123901367,-0.6015625,0.2193603515625,-0.0330810546875
3.527,310,378,572,311,-7.0,39.0,44.0,14.831542015075684,7.202147960662842,-15.136717796325684,-0.6561279296875,0.305908203125,-0.1368408203125
3.536,310,382,574,310,-7.0,39.0,44.0,12.573241233825684,6.958007335662842,-10.009765625,-0.7032470703125,0.3428955078125,-0.1925048828125
3.549,308,384,574,311,-7.0,39.0,44.0,9.3994140625,4.8828125,-6.713866710662842,-0.748779296875,0.3458251953125,-0.1845703125
3.561,308,387,578,310,-7.0,39.0,44.0,5.859374523162842,1.3427733182907104,-4.45556640625,-0.790283203125,0.3519287109375,-0.1409912109375
3.574,310,390,575,311,-7.0,39.0,44.0,3.051757574081421,-2.3193359375,-2.50244140625,-0.8182373046875,0.3336181640625,-0.0906982421875
3.574,310,394,551,286,-7.0,39.0,44.0,1.15966796875,-4.39453125,-0.30517578125,-0.835693359375,0.2818603515625,-0.0538330078125
3.588,310,407,572,310,-8.0,39.0,41.0,-0.30517578125,-4.45556640625,3.234863042831421,-0.84765625,0.23583984375,-0.0360107421875
3.596,310,411,574,310,-8.0,39.0,41.0,-2.13623046875,-3.234863042831421,8.11767578125,-0.849609375,0.2176513671875,-0.0318603515625
3.604,309,414,567,312,-8.0,39.0,41.0,-3.173827886581421,-1.5869139432907104,13.305663108825684,-0.850341796875,0.2303466796875,-0.039306640625
3.618,310,428,579,311,-8.0,39.0,41.0,-1.3427733182907104,-0.8544921278953552,17.822265625,-0.8463134765625,0.27734375,-0.0474853515625
3.626,310,433,578,312,-8.0,39.0,41.0,3.479003667831421,-1.7700194120407104,21.057126998901367,-0.83251953125,0.3408203125,-0.0601806640625
3.634,310,442,590,311,-8.0,39.0,41.0,7.385253429412842,-3.479003667831421,22.705076217651367,-0.83251953125,0.386474609375,-0.0916748046875
3.649,310,465,606,310,-8.0,39.0,41.0,6.164550304412842,-4.638671875,23.742673873901367,-0.769287109375,0.3521728515625,-0.088623046875
3.656,312,478,614,311,-8.0,39.0,41.0,-1.4648436307907104,-4.5166015625,24.658201217651367,-0.769287109375,0.3521728515625,-0.088623046875
3.679,311,485,634,312,-8.0,39.0,41.0,-11.779784202575684,-3.479003667831421,24.841306686401367,-0.703369140625,0.283935546875,-0.0498046875
3.679,293,519,685,312,-9.0,40.0,49.0,-18.37158203125,-3.356933355331421,24.780271530151367,-0.66845703125,0.3231201171875,0.0098876953125
3.686,310,537,730,312,-9.0,40.0,49.0,-19.22607421875,-5.065917491912842,23.742673873901367,-0.66845703125,0.3231201171875,0.0098876953125
3.694,310,557,780,312,-9.0,40.0,49.0,-17.39501953125,-7.873534679412842,20.385740280151367,-0.6458740234375,0.3223876953125,0.04833984375
3.710,310,594,877,312,-9.0,40.0,49.0,-16.41845703125,-10.620116233825684,15.014647483825684,-0.4620361328125,0.0587158203125,0.1683349609375
3.718,311,622,939,312,-9.0,40.0,49.0,-14.099120140075684,-13.305663108825684,8.85009765625,-0.4620361328125,0.0587158203125,0.1683349609375
3.724,310,644,996,312,-9.0,40.0,49.0,-2.13623046875,-15.991209983825684,2.38037109375,-0.4293212890625,0.053955078125,0.1285400390625
3.738,310,700,1109,312,-9.0,40.0,49.0,17.27294921875,-17.9443359375,-4.08935546875,-0.75830078125,0.574462890625,-0.22314453125
3.754,310,726,1162,314,-9.0,40.0,49.0,27.465818405151367,-19.22607421875,-11.230467796325684,-0.75830078125,0.574462890625,-0.22314453125
3.756,310,757,1219,314,-9.0,40.0,49.0,16.05224609375,-19.775390625,-19.1650390625,-1.06982421875,0.6934814453125,-0.3585205078125
3.770,310,805,1285,312,-9.0,40.0,49.0,-10.986327171325684,-19.47021484375,-24.902341842651367,-1.667724609375,0.5318603515625,-0.2552490234375
3.783,310,820,1308,312,-5.0,41.0,43.0,-37.109375,-19.287109375,-25.024412155151367,-1.8253173828125,0.5750732421875,-0.112060546875
3.785,310,833,1310,313,-5.0,41.0,43.0,-50.415035247802734,-18.9208984375,-17.2119140625,-1.8253173828125,0.5750732421875,-0.112060546875
3.793,310,822,1284,313,-5.0,41.0,43.0,-49.743648529052734,-17.578125,-4.45556640625,-1.8544921875,0.6630859375,0.042236328125
3.807,310,794,1243,310,-5.0,41.0,43.0,-39.55078125,-14.221190452575684,6.164550304412842,-1.2022705078125,0.420654296875,0.271240234375
3.820,310,780,1225,314,-5.0,41.0,43.0,-16.845703125,-5.859374523162842,8.85009765625,-1.2022705078125,0.420654296875,0.271240234375
3.824,311,779,1211,313,-5.0,41.0,43.0,16.9677734375,5.493163585662842,3.723144292831421,-0.87255859375,0.458740234375,0.1102294921875
3.837,312,767,1162,313,-5.0,41.0,43.0,37.7197265625,10.803221702575684,-6.164550304412842,-1.4498291015625,0.8975830078125,-0.3388671875
3.845,311,753,1131,313,-5.0,41.0,43.0,24.597166061401367,6.652831554412842,-18.9208984375,-1.7532958984375,0.7310791015625,-0.261474609375
3.861,310,739,1092,312,-5.0,41.0,43.0,-11.718749046325684,-0.7934569716453552,-30.883787155151367,-1.7532958984375,0.7310791015625,-0.261474609375
3.886,310,685,989,314,-5.0,41.0,43.0,-49.926753997802734,-3.967284917831421,-26.428220748901367,-1.69189453125,0.4344482421875,-0.0350341796875
3.886,310,636,932,313,-7.0,39.0,45.0,-49.926753997802734,-3.967284917831421,-26.428220748901367,-1.5352783203125,0.4521484375,0.005126953125
3.886,294,621,858,296,-7.0,39.0,45.0,-41.442867279052734,-1.3427733182907104,-12.512206077575684,-1.5352783203125,0.4521484375,0.005126953125
3.897,310,568,796,312,-7.0,39.0,45.0,-10.742186546325684,9.1552734375,6.896972179412842,-1.07958984375,0.3048095703125,0.06982421875
3.905,310,537,740,313,-7.0,39.0,45.0,-10.742186546325684,9.1552734375,6.896972179412842,-0.791259765625,0.1510009765625,0.1094970703125
3.913,311,501,691,311,-7.0,39.0,45.0,2.807616949081421,14.343260765075684,12.695311546325684,-0.791259765625,0.1510009765625,0.1094970703125
3.927,310,444,594,312,-7.0,39.0,45.0,30.578611373901367,20.080564498901367,16.66259765625,-0.386962890625,0.033203125,0.162109375
3.936,311,419,564,312,-7.0,39.0,45.0,30.578611373901367,20.080564498901367,16.66259765625,-0.3590087890625,0.0758056640625,0.1151123046875
3.943,310,391,546,311,-7.0,39.0,45.0,47.729488372802734,22.155759811401367,12.207030296325684,-0.3590087890625,0.0758056640625,0.1151123046875
3.957,310,364,547,310,-7.0,39.0,45.0,65.673828125,18.1884765625,-8.60595703125,-0.441650390625,-0.037109375,0.128662109375
3.965,310,362,537,310,-7.0,39.0,45.0,65.673828125,18.1884765625,-8.60595703125,-0.4705810546875,0.0701904296875,-0.0377197265625
3.986,308,357,519,311,-7.0,39.0,45.0,67.32177734375,17.51708984375,-13.610838890075684,-0.4705810546875,0.0701904296875,-0.0377197265625
3.987,292,338,517,310,-9.0,40.0,44.0,49.621578216552734,20.751951217651367,-4.82177734375,-0.643798828125,0.4742431640625,-0.3529052734375
3.995,310,357,523,310,-9.0,40.0,44.0,31.860349655151367,13.977049827575684,2.0751953125,-0.7237548828125,0.5506591796875,-0.3387451171875
4.003,310,359,530,312,-9.0,40.0,44.0,31.860349655151367,13.977049827575684,2.0751953125,-0.7252197265625,0.4427490234375,-0.23193359375
4.017,310,363,533,310,-9.0,40.0,44.0,9.033203125,0.1220703050494194,6.286620616912842,-0.6934814453125,0.3221435546875,-0.1177978515625
4.027,310,362,535,312,-9.0,40.0,44.0,7.934569835662842,-0.1220703050494194,10.925292015075684,-0.6844482421875,0.28759765625,-0.01806640625
4.038,310,367,533,310,-9.0,40.0,44.0,7.934569835662842,-0.1220703050494194,10.925292015075684,-0.6956787109375,0.2828369140625,0.063232421875
4.047,310,373,519,312,-9.0,40.0,44.0,6.591796398162842,4.638671875,23.803709030151367,-0.7060546875,0.2672119140625,0.0975341796875
4.060,310,380,523,310,-9.0,40.0,44.0,3.662109136581421,9.27734375,29.052732467651367,-0.726806640625,0.2744140625,0.086181640625
4.063,308,386,523,312,-9.0,40.0,44.0,3.662109136581421,9.27734375,29.052732467651367,-0.7569580078125,0.3258056640625,0.0506591796875
4.089,310,394,531,310,-9.0,40.0,40.0,4.57763671875,13.305663108825684,31.982419967651367,-0.7965087890625,0.3909912109375,-0.0069580078125
4.090,310,402,532,311,-9.0,40.0,40.0,8.30078125,11.718749046325684,29.235837936401367,-0.841796875,0.452880859375,-0.064453125
4.093,311,419,522,310,-9.0,40.0,40.0,8.30078125,11.718749046325684,29.235837936401367,-0.864013671875,0.48681640625,-0.08642578125
4.107,310,424,543,310,-9.0,40.0,40.0,7.385253429412842,6.713866710662842,22.705076217651367,-0.88671875,0.482666015625,-0.1038818359375
4.115,310,435,537,310,-9.0,40.0,40.0,-0.4882812201976776,7.385253429412842,23.071287155151367,-0.9373779296875,0.453857421875,-0.1297607421875
4.123,310,441,535,310,-9.0,40.0,40.0,-0.4882812201976776,7.385253429412842,23.071287155151367,-0.9599609375,0.3740234375,-0.1053466796875
4.140,310,465,546,312,-9.0,40.0,40.0,-20.446775436401367,13.549803733825684,33.87451171875,-0.9200439453125,0.251953125,-0.0247802734375
4.145,311,473,554,310,-9.0,40.0,40.0,-18.798828125,16.7236328125,41.320796966552734,-0.8216552734375,0.176025390625,0.06689453125
4.153,310,479,574,311,-9.0,40.0,40.0,-6.713866710662842,16.41845703125,46.020503997802734,-0.67919921875,0.1817626953125,0.120361328125
4.167,310,509,600,310,-9.0,40.0,40.0,5.310058116912842,12.573241233825684,45.471187591552734,-0.521240234375,0.1962890625,0.12158203125
4.190,310,531,642,313,-9.0,39.0,37.0,8.7890625,7.446288585662842,39.55078125,-0.38134765625,0.207275390625,0.1197509765625
4.191,310,548,720,312,-9.0,39.0,37.0,8.4228515625,3.601073980331421,28.564451217651367,-0.3111572265625,0.28515625,0.1273193359375
4.198,311,601,827,312,-9.0,39.0,37.0,16.357421875,3.112792730331421,12.573241233825684,-0.3404541015625,0.461181640625,-0.0030517578125
4.205,310,632,907,312,-9.0,39.0,37.0,27.709959030151367,6.042479991912842,-5.981444835662842,-0.4586181640625,0.6212158203125,-0.400390625
4.213,310,664,942,313,-9.0,39.0,37.0,14.587401390075684,7.934569835662842,-21.972654342651367,-0.604248046875,0.559814453125,-0.8056640625
4.227,310,716,1071,311,-9.0,39.0,37.0,-27.465818405151367,3.234863042831421,-30.151365280151367,-0.6878662109375,0.3914794921875,-0.8255615234375
4.235,310,741,1147,312,-9.0,39.0,37.0,-66.34521484375,-7.751464366912842,-30.517576217651367,-0.7667236328125,0.3857421875,-0.50927734375
4.243,310,772,1204,313,-9.0,39.0,37.0,-81.72606658935547,-21.789548873901367,-28.991697311401367,-0.98095703125,0.567626953125,-0.1905517578125
4.265,310,814,1294,312,-9.0,39.0,37.0,-82.82469940185547,-34.5458984375,-29.052732467651367,-1.4132080078125,0.8701171875,-0.062744140625
4.266,310,826,1310,314,-9.0,39.0,37.0,-84.16747283935547,-42.358394622802734,-28.930662155151367,-1.98828125,1.095703125,-0.0836181640625
4.273,310,806,1260,312,-9.0,42.0,47.0,-89.35546112060547,-43.395992279052734,-24.291990280151367,-2.405517578125,0.95556640625,-0.0306396484375
4.292,310,793,1226,313,-9.0,42.0,47.0,-86.48680877685547,-35.58349609375,-12.878417015075684,-2.0885009765625,0.23779296875,0.350341796875
4.295,310,794,1215,312,-9.0,42.0,47.0,-49.743648529052734,-14.221190452575684,0.7934569716453552,-1.2015380859375,-0.4193115234375,0.710205078125
4.303,310,792,1211,312,-9.0,42.0,47.0,17.63916015625,13.732909202575684,15.930174827575684,-0.7762451171875,0.0045166015625,0.4466552734375
4.317,310,772,1201,314,-9.0,42.0,47.0,66.46728515625,28.137205123901367,24.841306686401367,-1.0789794921875,1.0460205078125,-0.25634765625
4.325,310,763,1178,312,-9.0,42.0,47.0,61.096187591552734,22.277830123901367,12.023924827575684,-1.5242919921875,1.4798583984375,-0.736328125
4.333,311,742,1149,313,-9.0,42.0,47.0,17.39501953125,5.493163585662842,-14.465331077575684,-1.66943359375,1.076416015625,-0.6605224609375
4.350,310,705,1081,312,-9.0,42.0,47.0,-22.949216842651367,-10.681151390075684,-31.005857467651367,-1.58056640625,0.4906005859375,-0.2789306640625
4.356,311,667,1037,312,-9.0,42.0,47.0,-34.60693359375,-18.98193359375,-27.893064498901367,-1.4698486328125,0.3017578125,0.004638671875
4.368,308,644,987,312,-9.0,42.0,47.0,-26.245115280151367,-17.51708984375,-12.634276390075684,-1.405029296875,0.47119140625,0.062744140625
4.377,310,592,873,312,-9.0,40.0,47.0,-16.11328125,-10.314940452575684,1.15966796875,-1.3118896484375,0.6053466796875,0.02734375
4.385,310,564,799,311,-9.0,40.0,47.0,-8.11767578125,-1.8920897245407104,7.202147960662842,-1.1275634765625,0.537841796875,0.0101318359375
4.399,310,527,740,312,-9.0,40.0,47.0,0.30517578125,6.347655773162842,9.033203125,-0.8682861328125,0.3343505859375,0.03076171875
4.407,310,480,673,312,-9.0,40.0,47.0,12.145995140075684,12.512206077575684,9.27734375,-0.594482421875,0.0887451171875,0.0675048828125
4.416,310,449,639,312,-9.0,40.0,47.0,32.04345703125,15.014647483825684,7.141112804412842,-0.38427734375,-0.0853271484375,0.0849609375
4.425,310,421,629,311,-9.0,40.0,47.0,57.373043060302734,14.221190452575684,2.685546636581421,-0.3056640625,-0.09716796875,0.0953369140625
4.438,309,391,594,311,-9.0,40.0,47.0,77.880859375,12.390135765075684,-4.33349609375,-0.3388671875,-0.0078125,0.0535888671875
4.445,310,381,564,312,-9.0,40.0,47.0,84.41161346435547,12.817381858825684,-13.244627952575684,-0.43798828125,0.0958251953125,-0.0655517578125
4.457,309,372,547,311,-9.0,40.0,47.0,73.79150390625,14.038084983825684,-17.63916015625,-0.5499267578125,0.250244140625,-0.1680908203125
4.469,309,370,523,311,-9.0,40.0,47.0,51.879878997802734,11.169432640075684,-14.648436546325684,-0.62548828125,0.486083984375,-0.1815185546875
4.475,311,364,510,311,-13.0,39.0,47.0,31.433103561401367,5.249022960662842,-8.9111328125,-0.62548828125,0.486083984375,-0.1815185546875
4.499,311,363,504,311,-13.0,39.0,47.0,21.911619186401367,1.03759765625,-3.723144292831421,-0.647705078125,0.4925537109375,-0.1571044921875
4.499,310,341,479,311,-13.0,39.0,47.0,20.874021530151367,-0.6103515625,0.6103515625,-0.6756591796875,0.4202880859375,-0.05126953125
4.505,310,363,502,310,-13.0,39.0,47.0,20.324705123901367,-0.7934569716453552,4.08935546875,-0.6756591796875,0.4202880859375,-0.05126953125
4.513,310,365,499,311,-13.0,39.0,47.0,17.333984375,0.3662109076976776,6.408690929412842,-0.686279296875,0.384033203125,0.008544921875
4.527,310,371,507,310,-13.0,39.0,47.0,13.122557640075684,2.13623046875,7.507323741912842,-0.7161865234375,0.3638916015625,0.0770263671875
4.536,308,372,513,311,-13.0,39.0,47.0,10.253905296325684,3.417968511581421,8.056640625,-0.7161865234375,0.3638916015625,0.0770263671875
4.543,310,377,521,312,-13.0,39.0,47.0,10.742186546325684,4.21142578125,9.1552734375,-0.735107421875,0.38525390625,0.0548095703125
4.574,310,391,530,311,-13.0,39.0,47.0,12.084959983825684,4.57763671875,11.108397483825684,-0.73388671875,0.4219970703125,-0.0570068359375
4.574,287,373,547,310,-13.0,39.0,47.0,9.521484375,4.21142578125,12.023924827575684,-0.73388671875,0.4219970703125,-0.0570068359375
4.574,311,382,525,314,-11.0,40.0,49.0,3.845214605331421,2.807616949081421,11.230467796325684,-0.7105712890625,0.3785400390625,-0.0888671875
4.599,309,411,578,312,-11.0,40.0,49.0,0.3662109076976776,0.1220703050494194,10.253905296325684,-0.6990966796875,0.3599853515625,-0.1015625
4.600,310,408,603,311,-11.0,40.0,49.0,2.44140625,-3.662109136581421,9.27734375,-0.6990966796875,0.3599853515625,-0.1015625
4.604,311,430,629,311,-11.0,40.0,49.0,6.591796398162842,-7.568358898162842,7.446288585662842,-0.7222900390625,0.3836669921875,-0.122314453125
4.617,310,465,678,312,-11.0,40.0,49.0,-4.45556640625,-11.718749046325684,3.906249761581421,-0.7156982421875,0.35546875,-0.1634521484375
4.625,312,483,705,312,-11.0,40.0,49.0,-4.45556640625,-11.718749046325684,3.906249761581421,-0.655517578125,0.3013916015625,-0.1357421875
4.633,310,493,740,312,-11.0,40.0,49.0,-16.2353515625,-11.169432640075684,4.150390625,-0.655517578125,0.3013916015625,-0.1357421875
4.651,310,539,832,311,-11.0,40.0,49.0,-27.954099655151367,-8.30078125,5.432128429412842,-0.4576416015625,0.2235107421875,0.0029296875
4.655,310,561,922,312,-11.0,40.0,49.0,-27.954099655151367,-8.30078125,5.432128429412842,-0.3482666015625,0.175537109375,0.058349609375
4.678,310,588,1013,312,-11.0,40.0,49.0,-32.958984375,-10.314940452575684,3.295898199081421,-0.3482666015625,0.175537109375,0.058349609375
4.679,310,644,1183,310,-10.0,39.0,49.0,-34.85107421875,-21.545408248901367,-15.991209983825684,-0.46533203125,0.33837890625,-0.0262451171875
4.698,310,684,1246,312,-10.0,39.0,49.0,-34.85107421875,-21.545408248901367,-15.991209983825684,-0.7716064453125,0.5218505859375,-0.1507568359375
4.698,310,712,1305,312,-10.0,39.0,49.0,-32.3486328125,-25.146482467651367,-27.709959030151367,-0.7716064453125,0.5218505859375,-0.1507568359375
4.707,310,778,1380,312,-10.0,39.0,49.0,-40.527339935302734,-23.193357467651367,-37.841796875,-1.3343505859375,0.3944091796875,-0.1700439453125
4.716,310,794,1428,313,-10.0,39.0,49.0,-40.527339935302734,-23.193357467651367,-37.841796875,-1.544677734375,0.4176025390625,-0.0784912109375
4.723,312,818,1458,314,-10.0,39.0,49.0,-46.691890716552734,-20.812986373901367,-31.860349655151367,-1.544677734375,0.4176025390625,-0.0784912109375
4.737,311,818,1469,312,-10.0,39.0,49.0,-50.048824310302734,-19.04296875,-5.126952648162842,-2.0914306640625,0.9268798828125,-0.1654052734375
4.746,311,806,1457,312,-10.0,39.0,49.0,-50.048824310302734,-19.04296875,-5.126952648162842,-2.0185546875,0.7471923828125,-0.022216796875
4.753,310,799,1432,314,-10.0,39.0,49.0,-50.048824310302734,-16.845703125,5.432128429412842,-2.0185546875,0.7471923828125,-0.022216796875
4.767,311,775,1404,313,-10.0,39.0,49.0,-0.1220703050494194,2.746581792831421,9.765625,-0.8443603515625,0.1016845703125,0.3634033203125
4.784,311,771,1409,314,-9.0,40.0,43.0,43.640132904052734,14.282225608825684,8.36181640625,-0.830810546875,0.6632080078125,-0.07177734375
4.784,312,770,1419,314,-9.0,40.0,43.0,43.640132904052734,14.282225608825684,8.36181640625,-1.2320556640625,1.1605224609375,-0.49658203125
4.808,312,742,1393,312,-9.0,40.0,43.0,23.376462936401367,1.7700194120407104,-23.193357467651367,-1.6259765625,1.082763671875,-0.51513671875
4.808,311,728,1371,313,-9.0,40.0,43.0,-21.301267623901367,-12.329100608825684,-39.1845703125,-1.762451171875,0.6468505859375,-0.2425537109375
4.813,310,705,1334,314,-9.0,40.0,43.0,-21.301267623901367,-12.329100608825684,-39.1845703125,-1.6822509765625,0.3643798828125,0.0260009765625
4.827,310,657,1231,312,-9.0,40.0,43.0,-40.161128997802734,-15.747069358825684,-25.756834030151367,-1.5604248046875,0.4111328125,0.1053466796875
4.835,310,628,1176,312,-9.0,40.0,43.0,-24.414060592651367,-6.896972179412842,-8.544921875,-1.4390869140625,0.5411376953125,0.054931640625
4.844,312,594,1101,314,-9.0,40.0,43.0,-24.414060592651367,-6.896972179412842,-8.544921875,-1.244873046875,0.516357421875,0.0311279296875
4.857,309,536,987,312,-9.0,40.0,43.0,0.1220703050494194,9.033203125,4.39453125,-0.9669189453125,0.33154296875,0.059814453125
4.865,308,509,933,312,-9.0,40.0,43.0,8.30078125,12.634276390075684,4.8828125,-0.6558837890625,0.107666015625,0.1146240234375
4.912,310,483,890,312,-9.0,39.0,46.0,8.30078125,12.634276390075684,4.8828125,-0.400146484375,0.00732421875,0.1690673828125
4.913,310,428,848,296,-9.0,39.0,46.0,35.5224609375,12.145995140075684,2.685546636581421,-0.2939453125,0.073486328125,0.1524658203125
4.913,309,384,806,312,-9.0,39.0,46.0,46.020503997802734,12.329100608825684,-5.187987804412842,-0.3262939453125,0.17333984375,0.06982421875
4.913,310,382,777,308,-9.0,39.0,46.0,46.020503997802734,12.329100608825684,-5.187987804412842,-0.405029296875,0.1656494140625,0.0323486328125
4.918,311,370,725,311,-9.0,39.0,46.0,39.24560546875,9.765625,-27.954099655151367,-0.4896240234375,0.1044921875,-0.015380859375
4.927,309,360,710,312,-9.0,39.0,46.0,30.639646530151367,9.8876953125,-30.944822311401367,-0.5706787109375,0.16015625,-0.152099609375
4.934,310,360,702,311,-9.0,39.0,46.0,21.423337936401367,10.986327171325684,-26.428220748901367,-0.6444091796875,0.302734375,-0.2591552734375
4.948,310,360,684,311,-9.0,39.0,46.0,8.9111328125,8.056640625,-19.10400390625,-0.716796875,0.411865234375,-0.26708984375
4.956,310,363,678,311,-9.0,39.0,46.0,-2.685546636581421,1.8920897245407104,-12.817381858825684,-0.757568359375,0.4364013671875,-0.2042236328125
4.964,310,364,676,311,-9.0,39.0,46.0,-9.8876953125,-3.356933355331421,-9.82666015625,-0.7528076171875,0.3555908203125,-0.1136474609375
5.012,310,364,680,311,-7.0,42.0,40.0,-13.427733421325684,-5.798339366912842,-8.6669921875,-0.7313232421875,0.2574462890625,-0.02978515625
5.012,310,365,685,310,-7.0,42.0,40.0,-14.282225608825684,-6.408690929412842,-5.554198741912842,-0.727294921875,0.2406005859375,0.038330078125
5.012,295,369,685,311,-7.0,42.0,40.0,-13.549803733825684,-6.469726085662842,0.1831054538488388,-0.744140625,0.2813720703125,0.0736083984375
5.013,296,372,668,313,-7.0,42.0,40.0,-12.573241233825684,-5.126952648162842,6.042479991912842,-0.7562255859375,0.3070068359375,0.0621337890625
5.016,311,379,698,312,-7.0,42.0,40.0,-13.122557640075684,-2.197265625,10.375975608825684,-0.755859375,0.30078125,0.0311279296875
5.024,310,382,703,311,-7.0,42.0,40.0,-15.808104515075684,0.0610351525247097,13.549803733825684,-0.751953125,0.296875,0.01416015625
5.038,310,394,715,311,-7.0,42.0,40.0,-18.37158203125,-0.1220703050494194,16.11328125,-0.7530517578125,0.312255859375,0.002685546875
5.046,308,398,737,311,-7.0,42.0,40.0,-17.578125,-2.13623046875,18.24951171875,-0.75048828125,0.3460693359375,-0.026611328125
5.054,309,408,747,312,-7.0,42.0,40.0,-12.939452171325684,-4.57763671875,19.47021484375,-0.728759765625,0.3726806640625,-0.066162109375
5.068,310,423,767,312,-7.0,40.0,41.0,-7.141112804412842,-6.774901866912842,19.83642578125,-0.7021484375,0.383544921875,-0.0968017578125
5.084,310,435,785,310,-7.0,40.0,41.0,-4.94384765625,-7.873534679412842,20.385740280151367,-0.6932373046875,0.4100341796875,-0.1038818359375
5.085,310,456,814,312,-7.0,40.0,41.0,-9.70458984375,-8.7890625,21.118162155151367,-0.6546630859375,0.443359375,-0.0621337890625
5.112,310,499,891,312,-7.0,40.0,41.0,-20.812986373901367,-10.620116233825684,20.01953125,-0.5679931640625,0.4302978515625,-0.0013427734375
5.112,310,509,948,311,-7.0,40.0,41.0,-33.14208984375,-13.183592796325684,16.78466796875,-0.5186767578125,0.3638916015625,0.0443115234375
5.114,309,533,1021,314,-7.0,40.0,41.0,-39.55078125,-17.4560546875,13.000487327575684,-0.5577392578125,0.2589111328125,0.106201171875
5.128,310,578,1162,312,-7.0,40.0,41.0,-35.82763671875,-23.925779342651367,8.056640625,-0.618408203125,0.1129150390625,0.1827392578125
5.136,310,594,1226,313,-7.0,40.0,41.0,-21.911619186401367,-29.052732467651367,1.5258787870407104,-0.6759033203125,-0.0245361328125,0.19189453125
5.144,310,621,1279,314,-7.0,40.0,41.0,-2.990722417831421,-28.686521530151367,-3.295898199081421,-0.7923583984375,0.0093994140625,0.0928955078125
5.158,310,661,1361,313,-7.0,40.0,41.0,11.047362327575684,-22.827146530151367,-2.563476324081421,-1.2410888671875,0.6468505859375,-0.1405029296875
5.166,310,689,1400,314,-9.0,37.0,42.0,8.60595703125,-15.380858421325684,1.0986328125,-1.2410888671875,0.6468505859375,-0.1405029296875
5.174,310,705,1428,314,-9.0,37.0,42.0,-12.329100608825684,-10.498045921325684,1.6479490995407104,-1.4521484375,0.73486328125,-0.0955810546875
5.188,311,728,1463,314,-9.0,37.0,42.0,-37.353515625,-7.507323741912842,0.9765624403953552,-1.578369140625,0.449951171875,0.14697265625
5.216,310,739,1472,314,-9.0,37.0,42.0,-49.926753997802734,-4.33349609375,5.310058116912842,-1.578369140625,0.449951171875,0.14697265625
5.219,311,740,1456,314,-9.0,37.0,42.0,-42.785640716552734,-0.54931640625,14.038084983825684,-1.4935302734375,0.42578125,0.2054443359375
5.219,311,714,1366,312,-9.0,37.0,42.0,-19.59228515625,4.08935546875,21.667478561401367,-1.25830078125,0.67236328125,-0.05224609375
5.226,310,697,1365,312,-9.0,37.0,42.0,4.57763671875,9.70458984375,23.803709030151367,-1.25830078125,0.67236328125,-0.05224609375
5.234,310,676,1338,312,-9.0,37.0,42.0,17.15087890625,14.709471702575684,16.66259765625,-1.0421142578125,0.6650390625,-0.1427001953125
5.248,310,666,1313,312,-9.0,37.0,42.0,17.578125,15.991209983825684,2.197265625,-1.071533203125,0.691162109375,-0.1319580078125
5.256,311,657,1299,313,-9.0,37.0,42.0,8.85009765625,12.817381858825684,-12.023924827575684,-1.071533203125,0.691162109375,-0.1319580078125
5.264,311,640,1264,314,-9.0,37.0,42.0,-6.225585460662842,7.446288585662842,-21.423337936401367,-1.3643798828125,0.8072509765625,-0.0914306640625
5.277,311,616,1185,312,-6.0,40.0,44.0,-23.315427780151367,2.868652105331421,-25.512693405151367,-1.6121826171875,0.594482421875,-0.00634765625
5.288,310,594,1123,312,-6.0,40.0,44.0,-35.400390625,1.8920897245407104,-25.695798873901367,-1.6121826171875,0.594482421875,-0.00634765625
5.294,311,575,1078,314,-6.0,40.0,44.0,-35.15625,4.150390625,-22.155759811401367,-1.4791259765625,0.3951416015625,0.029052734375
5.325,310,543,971,312,-6.0,40.0,44.0,-10.742186546325684,9.27734375,-6.835937023162842,-1.0689697265625,0.357421875,0.083251953125
5.325,296,529,902,295,-6.0,40.0,44.0,-10.742186546325684,9.27734375,-6.835937023162842,-0.8875732421875,0.3494873046875,0.0401611328125
5.325,309,499,861,312,-6.0,40.0,44.0,-3.723144292831421,12.634276390075684,-2.746581792831421,-0.8875732421875,0.3494873046875,0.0401611328125
5.333,310,479,822,312,-6.0,40.0,44.0,-2.990722417831421,16.41845703125,-4.08935546875,-0.7237548828125,0.3238525390625,-0.020263671875
5.347,310,454,741,312,-6.0,40.0,44.0,-5.310058116912842,18.6767578125,-8.85009765625,-0.5107421875,0.3271484375,-0.01318359375
5.355,310,442,705,311,-6.0,40.0,44.0,-10.742186546325684,16.90673828125,-16.2353515625,-0.5107421875,0.3271484375,-0.01318359375
5.363,310,427,648,311,-6.0,40.0,44.0,-16.6015625,12.634276390075684,-24.780271530151367,-0.4986572265625,0.2947998046875,0.011962890625
5.377,310,402,606,312,-4.0,38.0,42.0,-13.366698265075684,6.835937023162842,-33.69140625,-0.56884765625,0.154541015625,0.041259765625
5.391,310,393,593,311,-4.0,38.0,42.0,-13.366698265075684,6.835937023162842,-33.69140625,-0.6451416015625,0.0977783203125,0.0440673828125
5.393,309,386,587,311,-4.0,38.0,42.0,-12.390135765075684,2.807616949081421,-34.912109375,-0.6451416015625,0.0977783203125,0.0440673828125
5.421,309,393,562,311,-4.0,38.0,42.0,-9.6435546875,-2.624511480331421,-28.259275436401367,-0.7852783203125,0.2108154296875,-0.040771484375
5.422,308,391,551,310,-4.0,38.0,42.0,-9.6435546875,-2.624511480331421,-28.259275436401367,-0.804443359375,0.3092041015625,-0.0513916015625
5.423,293,371,551,310,-4.0,38.0,42.0,-7.263183116912842,-3.601073980331421,-21.911619186401367,-0.804443359375,0.3092041015625,-0.0513916015625
5.437,310,384,561,310,-4.0,38.0,42.0,-6.652831554412842,-5.0048828125,-11.840819358825684,-0.810791015625,0.3326416015625,0.0186767578125
5.445,310,383,564,310,-4.0,38.0,42.0,-6.652831554412842,-5.0048828125,-11.840819358825684,-0.7926025390625,0.2938232421875,0.04345703125
5.453,313,385,568,311,-4.0,38.0,42.0,-5.798339366912842,-4.57763671875,-8.30078125,-0.7926025390625,0.2938232421875,0.04345703125
5.467,309,391,585,310,-4.0,36.0,43.0,-8.23974609375,-3.479003667831421,-1.4038084745407104,-0.78662109375,0.2718505859375,0.060791015625
5.475,310,391,588,311,-4.0,36.0,43.0,-8.23974609375,-3.479003667831421,-1.4038084745407104,-0.8079833984375,0.2808837890625,0.0577392578125
5.483,312,393,590,310,-4.0,36.0,43.0,-8.1787109375,-3.845214605331421,3.479003667831421,-0.8079833984375,0.2808837890625,0.0577392578125
5.497,310,401,594,311,-4.0,36.0,43.0,-5.798339366912842,-4.21142578125,12.634276390075684,-0.844482421875,0.273681640625,0.02685546875
5.527,310,408,614,310,-4.0,36.0,43.0,-5.798339366912842,-4.21142578125,12.634276390075684,-0.8468017578125,0.284912109375,0.018310546875
5.528,308,413,600,289,-4.0,36.0,43.0,-6.774901866912842,-4.08935546875,16.2353515625,-0.8468017578125,0.284912109375,0.018310546875
5.528,293,424,633,309,-4.0,36.0,43.0,-7.080077648162842,-6.103515148162842,21.118162155151367,-0.7772216796875,0.293701171875,0.05908203125
5.535,311,433,656,312,-4.0,36.0,43.0,-6.652831554412842,-7.568358898162842,22.338865280151367,-0.6923828125,0.285888671875,0.0828857421875
5.550,310,446,704,312,-4.0,36.0,43.0,-6.652831554412842,-7.568358898162842,22.338865280151367,-0.6134033203125,0.294677734375,0.0787353515625
5.557,310,465,785,311,-4.0,36.0,43.0,-4.39453125,-10.192870140075684,20.996091842651367,-0.5643310546875,0.33056640625,0.0489501953125
5.567,311,479,822,312,-4.0,40.0,42.0,-2.25830078125,-11.901854515075684,19.04296875,-0.5546875,0.39208984375,0.020263671875
5.574,310,495,873,312,-4.0,40.0,42.0,-2.25830078125,-11.901854515075684,19.04296875,-0.559326171875,0.421142578125,0.0506591796875
5.587,310,530,960,312,-4.0,40.0,42.0,-7.873534679412842,-17.88330078125,12.451170921325684,-0.5482177734375,0.33447265625,0.129150390625
5.595,310,558,1021,311,-4.0,40.0,42.0,-8.30078125,-20.080564498901367,4.94384765625,-0.5364990234375,0.1624755859375,0.16064453125
5.603,310,579,1093,312,-4.0,40.0,42.0,-8.30078125,-20.080564498901367,4.94384765625,-0.5604248046875,0.0411376953125,0.126708984375
5.629,310,631,1231,314,-4.0,40.0,42.0,5.798339366912842,-19.71435546875,-11.596678733825684,-0.6685791015625,0.1090087890625,0.0726318359375
5.630,310,657,1292,312,-4.0,40.0,42.0,16.41845703125,-19.34814453125,-14.587401390075684,-0.906982421875,0.38525390625,0.0001220703125
5.633,310,689,1351,313,-4.0,40.0,42.0,16.41845703125,-19.34814453125,-14.587401390075684,-1.2330322265625,0.66455078125,-0.0599365234375
5.647,308,723,1403,313,-4.0,40.0,42.0,10.375975608825684,-14.343260765075684,-14.709471702575684,-1.538330078125,0.739990234375,-0.0595703125
5.655,310,745,1422,314,-4.0,40.0,42.0,-6.347655773162842,-10.803221702575684,-13.671874046325684,-1.7486572265625,0.633056640625,-0.013671875
5.664,310,756,1428,314,-2.0,39.0,43.0,-6.347655773162842,-10.803221702575684,-13.671874046325684,-1.8289794921875,0.482177734375,0.06884765625
5.678,312,742,1365,313,-2.0,39.0,43.0,-28.808591842651367,-5.676269054412842,6.103515148162842,-1.735595703125,0.3570556640625,0.161865234375
5.685,310,736,1325,314,-2.0,39.0,43.0,-21.423337936401367,-2.01416015625,17.51708984375,-1.40234375,0.2393798828125,0.2117919921875
5.699,312,715,1292,314,-2.0,39.0,43.0,1.6479490995407104,5.371093273162842,21.972654342651367,-1.010009765625,0.259033203125,0.1572265625
5.707,310,694,1267,314,-2.0,39.0,43.0,29.541013717651367,13.244627952575684,19.22607421875,-0.864990234375,0.527099609375,-0.005126953125
5.717,310,689,1271,314,-2.0,39.0,43.0,40.710445404052734,16.90673828125,9.33837890625,-0.993408203125,0.8160400390625,-0.15478515625
5.726,310,685,1260,314,-2.0,39.0,43.0,28.564451217651367,14.709471702575684,-7.019042491912842,-1.25927734375,0.927001953125,-0.18505859375
5.737,310,660,1204,312,-2.0,39.0,43.0,4.7607421875,8.30078125,-22.399900436401367,-1.481689453125,0.822265625,-0.1025390625
5.745,310,645,1157,314,-2.0,39.0,43.0,-15.624999046325684,3.173827886581421,-28.991697311401367,-1.5467529296875,0.5675048828125,0.0013427734375
5.753,310,617,1116,314,-2.0,39.0,43.0,-21.789548873901367,2.44140625,-25.451658248901367,-1.481689453125,0.34912109375,0.071533203125
5.769,310,586,1055,312,-5.0,39.0,40.0,-15.808104515075684,3.845214605331421,-15.563963890075684,-1.34521484375,0.2679443359375,0.12744140625
5.777,310,566,1020,313,-5.0,39.0,40.0,-6.469726085662842,4.82177734375,-4.57763671875,-1.182861328125,0.2879638671875,0.1636962890625
5.783,310,551,976,312,-5.0,39.0,40.0,0.6713866591453552,6.896972179412842,3.479003667831421,-1.0150146484375,0.30419921875,0.153076171875
5.799,310,509,891,310,-5.0,39.0,40.0,5.737304210662842,11.352538108825684,6.652831554412842,-0.8397216796875,0.274169921875,0.10888671875
5.805,310,497,858,312,-5.0,39.0,40.0,10.375975608825684,16.05224609375,6.347655773162842,-0.6796875,0.2509765625,0.0736083984375
5.832,310,483,826,312,-5.0,39.0,40.0,14.404295921325684,17.4560546875,4.7607421875,-0.5675048828125,0.2578125,0.0767822265625
5.832,310,452,763,312,-5.0,39.0,40.0,17.08984375,15.502928733825684,1.220703125,-0.53369140625,0.27392578125,0.0753173828125
5.844,311,447,764,312,-5.0,39.0,40.0,19.10400390625,13.671874046325684,-4.69970703125,-0.570068359375,0.2911376953125,0.0452880859375
5.844,311,438,718,298,-5.0,39.0,40.0,18.98193359375,12.878417015075684,-11.230467796325684,-0.628662109375,0.2777099609375,0.0286865234375
5.857,309,420,718,310,-5.0,39.0,40.0,15.747069358825684,11.596678733825684,-16.66259765625,-0.66015625,0.2135009765625,0.0252685546875
5.865,312,419,710,312,-6.0,38.0,49.0,12.817381858825684,10.070799827575684,-19.6533203125,-0.6707763671875,0.1429443359375,-0.0015869140625
5.873,310,419,703,312,-6.0,38.0,49.0,13.305663108825684,9.09423828125,-18.6767578125,-0.697265625,0.140625,-0.0533447265625
5.944,310,419,697,311,-6.0,38.0,49.0,16.05224609375,8.1787109375,-13.244627952575684,-0.7449951171875,0.2242431640625,-0.0902099609375
5.944,310,415,698,310,-6.0,38.0,49.0,16.4794921875,5.859374523162842,-6.347655773162842,-0.8048095703125,0.327880859375,-0.0943603515625
5.944,310,394,693,310,-6.0,38.0,49.0,12.512206077575684,2.50244140625,-0.6713866591453552,-0.840576171875,0.3863525390625,-0.0797119140625
5.944,310,415,694,311,-6.0,38.0,49.0,5.493163585662842,-0.4882812201976776,3.295898199081421,-0.8328857421875,0.3720703125,-0.05029296875
5.944,311,421,691,312,-6.0,38.0,49.0,-2.38037109375,-2.3193359375,6.713866710662842,-0.8028564453125,0.309326171875,-0.0054931640625
5.945,296,424,673,293,-6.0,38.0,49.0,-7.507323741912842,-2.990722417831421,10.925292015075684,-0.7647705078125,0.2474365234375,0.0404052734375
5.947,310,430,703,310,-6.0,38.0,49.0,-9.82666015625,-3.112792730331421,15.747069358825684,-0.729248046875,0.2152099609375,0.070556640625
5.958,310,437,713,312,-6.0,38.0,49.0,-9.94873046875,-2.929687261581421,19.95849609375,-0.718505859375,0.2373046875,0.0697021484375
5.963,311,444,724,312,-5.0,38.0,46.0,-6.713866710662842,-2.685546636581421,22.216794967651367,-0.7423095703125,0.3116455078125,0.0355224609375
5.977,310,457,751,312,-5.0,38.0,46.0,-2.25830078125,-2.990722417831421,21.972654342651367,-0.7730712890625,0.385498046875,-0.0087890625
5.985,310,469,790,312,-5.0,38.0,46.0,-0.54931640625,-4.39453125,19.83642578125,-0.7742919921875,0.411376953125,-0.0283203125
5.993,311,481,822,313,-5.0,38.0,46.0,-1.4038084745407104,-6.286620616912842,17.02880859375,-0.72314453125,0.3997802734375,-0.013671875
6.008,310,496,861,311,-5.0,38.0,46.0,-3.051757574081421,-8.056640625,13.916014671325684,-0.5147705078125,0.3638916015625,0.046875
6.033,310,508,905,312,-5.0,38.0,46.0,-4.33349609375,-10.253905296325684,10.559081077575684,-0.5147705078125,0.3638916015625,0.046875
6.033,308,509,959,312,-5.0,38.0,46.0,-4.94384765625,-13.183592796325684,7.385253429412842,-0.4783935546875,0.3238525390625,0.0650634765625
6.038,310,574,1095,312,-5.0,38.0,46.0,-6.774901866912842,-17.578125,3.112792730331421,-0.45166015625,0.1544189453125,0.165283203125
6.046,311,604,1170,312,-5.0,38.0,46.0,-9.1552734375,-22.338865280151367,-4.0283203125,-0.45166015625,0.1544189453125,0.165283203125
6.054,310,644,1260,312,-5.0,38.0,46.0,-6.713866710662842,-24.169919967651367,-12.573241233825684,-0.464599609375,0.1016845703125,0.2010498046875
6.068,311,698,1355,312,-6.0,38.0,43.0,19.775390625,-20.324705123901367,-21.606443405151367,-0.7421875,0.27783203125,0.1922607421875
6.076,312,728,1407,314,-6.0,38.0,43.0,19.775390625,-20.324705123901367,-21.606443405151367,-1.098388671875,0.425537109375,0.1319580078125
6.084,311,756,1452,314,-6.0,38.0,43.0,28.991697311401367,-17.63916015625,-19.287109375,-1.098388671875,0.425537109375,0.1319580078125
6.098,310,790,1483,312,-6.0,38.0,43.0,16.29638671875,-4.39453125,-11.413573265075684,-1.786865234375,0.6253662109375,-0.0657958984375
6.113,310,799,1498,312,-6.0,38.0,43.0,16.29638671875,-4.39453125,-11.413573265075684,-1.967041015625,0.69482421875,-0.1610107421875
6.114,310,795,1486,314,-6.0,38.0,43.0,2.624511480331421,4.45556640625,-8.30078125,-1.967041015625,0.69482421875,-0.1610107421875
6.140,311,778,1416,312,-6.0,38.0,43.0,-19.47021484375,7.019042491912842,2.746581792831421,-1.65576171875,0.4453125,0.0084228515625
6.141,310,766,1363,311,-6.0,38.0,43.0,-19.47021484375,7.019042491912842,2.746581792831421,-1.1014404296875,0.124267578125,0.1956787109375
6.144,310,745,1363,312,-6.0,38.0,43.0,-11.840819358825684,6.469726085662842,7.751464366912842,-1.1014404296875,0.124267578125,0.1956787109375
6.162,311,739,1352,312,-6.0,38.0,43.0,37.41455078125,12.329100608825684,11.901854515075684,-0.9178466796875,0.6575927734375,-0.0758056640625
6.166,310,726,1345,314,-6.0,38.0,44.0,37.41455078125,12.329100608825684,11.901854515075684,-1.260986328125,0.976318359375,-0.2340087890625
6.175,310,718,1319,314,-6.0,38.0,44.0,33.69140625,10.864256858825684,3.112792730331421,-1.260986328125,0.976318359375,-0.2340087890625
6.188,310,688,1260,313,-6.0,38.0,44.0,-23.498533248901367,-2.990722417831421,-26.916501998901367,-1.6119384765625,0.677001953125,-0.0628662109375
6.196,314,671,1211,312,-6.0,38.0,44.0,-23.498533248901367,-2.990722417831421,-26.916501998901367,-1.531494140625,0.3895263671875,0.05419921875
6.210,311,645,1145,314,-6.0,38.0,44.0,-37.353515625,-5.065917491912842,-30.639646530151367,-1.531494140625,0.3895263671875,0.05419921875
6.218,310,599,1067,314,-6.0,38.0,44.0,-19.775390625,-0.6713866591453552,-13.122557640075684,-1.27685546875,0.3028564453125,0.1104736328125
6.240,310,576,1011,313,-6.0,38.0,44.0,-9.82666015625,2.685546636581421,-2.3193359375,-1.1240234375,0.3271484375,0.1041259765625
6.241,310,537,964,312,-6.0,38.0,44.0,-9.82666015625,2.685546636581421,-2.3193359375,-0.9346923828125,0.2659912109375,0.0972900390625
6.248,310,517,886,312,-6.0,38.0,44.0,0.30517578125,10.498045921325684,5.676269054412842,-0.718994140625,0.1529541015625,0.10693359375
6.256,310,494,841,314,-6.0,38.0,44.0,7.507323741912842,12.145995140075684,5.065917491912842,-0.52001953125,0.1097412109375,0.12548828125
6.267,311,481,819,312,-6.0,37.0,44.0,7.507323741912842,12.145995140075684,5.065917491912842,-0.4144287109375,0.1953125,0.1151123046875
6.278,309,450,766,312,-6.0,37.0,44.0,20.690916061401367,11.108397483825684,-0.0610351525247097,-0.4317626953125,0.3431396484375,0.0491943359375
6.286,310,440,749,312,-6.0,37.0,44.0,18.9208984375,11.535643577575684,-6.713866710662842,-0.5050048828125,0.3931884765625,0.001953125
6.294,310,430,741,312,-6.0,37.0,44.0,18.9208984375,11.535643577575684,-6.713866710662842,-0.5711669921875,0.2845458984375,0.03662109375
6.314,310,419,713,311,-6.0,37.0,44.0,1.9531248807907104,9.09423828125,-23.559568405151367,-0.634765625,0.137939453125,0.0655517578125
6.316,308,411,714,311,-6.0,37.0,44.0,-1.4038084745407104,7.629394054412842,-25.146482467651367,-0.6905517578125,0.082763671875,0.0252685546875
6.341,310,415,712,312,-6.0,37.0,44.0,-1.4038084745407104,7.629394054412842,-25.146482467651367,-0.721435546875,0.135986328125,-0.0386962890625
6.341,310,420,716,311,-6.0,37.0,44.0,2.25830078125,4.0283203125,-13.610838890075684,-0.753173828125,0.232421875,-0.0775146484375
6.346,310,426,723,310,-6.0,37.0,44.0,3.356933355331421,0.3662109076976776,-5.981444835662842,-0.794189453125,0.31689453125,-0.0740966796875
6.355,310,420,725,312,-6.0,37.0,44.0,3.356933355331421,0.3662109076976776,-5.981444835662842,-0.8294677734375,0.3577880859375,-0.047607421875
6.375,310,423,732,310,-6.0,39.0,44.0,0.0610351525247097,-5.798339366912842,3.417968511581421,-0.845703125,0.3458251953125,-0.0166015625
6.377,310,426,737,312,-6.0,39.0,44.0,-4.45556640625,-6.042479991912842,5.615233898162842,-0.830810546875,0.2877197265625,0.0179443359375
6.384,310,438,739,311,-6.0,39.0,44.0,-9.1552734375,-4.57763671875,8.23974609375,-0.8013916015625,0.2198486328125,0.0474853515625
6.398,310,451,749,310,-6.0,39.0,44.0,-12.084959983825684,-2.807616949081421,11.962889671325684,-0.780029296875,0.208251953125,0.05810546875
6.414,310,456,756,311,-6.0,39.0,44.0,-11.840819358825684,-2.50244140625,15.991209983825684,-0.7744140625,0.2607421875,0.0452880859375
6.415,311,469,778,311,-6.0,39.0,44.0,-7.812499523162842,-4.150390625,18.798828125,-0.780517578125,0.3260498046875,0.0185546875
6.442,310,481,818,312,-6.0,39.0,44.0,-2.807616949081421,-7.141112804412842,19.71435546875,-0.789794921875,0.3648681640625,-0.005126953125
6.451,309,497,832,312,-6.0,39.0,44.0,-0.54931640625,-10.498045921325684,19.4091796875,-0.8104248046875,0.3690185546875,-0.00732421875
6.451,298,507,847,312,-6.0,39.0,44.0,-2.685546636581421,-13.549803733825684,18.798828125,-0.82275390625,0.3543701171875,0.0091552734375
6.458,310,522,873,310,-5.0,39.0,42.0,-8.7890625,-14.953612327575684,18.24951171875,-0.81103515625,0.338623046875,0.0252685546875
6.467,310,531,910,312,-5.0,39.0,42.0,-16.66259765625,-14.404295921325684,17.9443359375,-0.7864990234375,0.321533203125,0.0391845703125
6.483,310,552,946,312,-5.0,39.0,42.0,-22.460935592651367,-13.244627952575684,18.24951171875,-0.7176513671875,0.280029296875,0.0892333984375
6.488,310,579,1026,312,-5.0,39.0,42.0,-21.301267623901367,-13.549803733825684,18.4326171875,-0.5677490234375,0.1881103515625,0.184326171875
6.496,311,604,1082,312,-5.0,39.0,42.0,-10.192870140075684,-15.014647483825684,16.17431640625,-0.3792724609375,0.06787109375,0.2672119140625
6.505,311,632,1162,314,-5.0,39.0,42.0,8.85009765625,-15.747069358825684,10.314940452575684,-0.2557373046875,0.00537109375,0.2984619140625
6.523,309,674,1281,313,-5.0,39.0,42.0,28.503416061401367,-14.404295921325684,2.25830078125,-0.3013916015625,0.0911865234375,0.2550048828125
6.526,310,710,1339,312,-5.0,39.0,42.0,40.10009765625,-10.742186546325684,-5.0048828125,-0.5504150390625,0.3453369140625,0.1297607421875
6.540,310,740,1393,312,-5.0,39.0,42.0,39.48974609375,-6.713866710662842,-10.437010765075684,-0.9515380859375,0.60791015625,-0.0316162109375
6.550,310,780,1464,312,-5.0,39.0,42.0,27.832029342651367,-4.39453125,-14.221190452575684,-1.410888671875,0.71484375,-0.1712646484375
6.556,310,794,1484,313,-7.0,36.0,42.0,7.995604991912842,-3.845214605331421,-14.770506858825684,-1.7926025390625,0.7056884765625,-0.215087890625
6.564,310,799,1488,314,-7.0,36.0,42.0,-14.587401390075684,-4.45556640625,-10.070799827575684,-2.028564453125,0.672119140625,-0.1492919921875
6.578,310,781,1424,314,-7.0,36.0,42.0,-32.04345703125,-5.615233898162842,-1.6479490995407104,-2.073974609375,0.6201171875,-0.0255126953125
6.587,310,771,1400,314,-7.0,36.0,42.0,-36.31591796875,-5.615233898162842,6.103515148162842,-1.7125244140625,0.3961181640625,0.16748046875
6.594,311,754,1377,313,-7.0,36.0,42.0,-17.9443359375,-0.9155272841453552,8.60595703125,-1.091796875,0.145263671875,0.2960205078125
6.608,310,741,1365,312,-7.0,36.0,42.0,17.2119140625,7.629394054412842,7.324218273162842,-0.765625,0.2935791015625,0.1839599609375
6.620,310,730,1363,314,-7.0,36.0,42.0,38.26904296875,13.366698265075684,4.08935546875,-0.8935546875,0.70751953125,-0.0675048828125
6.624,311,723,1351,313,-7.0,36.0,42.0,27.343748092651367,12.329100608825684,-4.638671875,-1.2301025390625,0.96142578125,-0.2213134765625
6.648,310,710,1292,312,-7.0,36.0,42.0,-2.50244140625,5.737304210662842,-18.24951171875,-1.4918212890625,0.8880615234375,-0.1727294921875
6.648,311,662,1216,313,-7.0,36.0,42.0,-28.869626998901367,-0.7934569716453552,-28.747556686401367,-1.5584716796875,0.6024169921875,-0.0301513671875
6.654,309,671,1199,312,-7.0,36.0,42.0,-37.109375,-3.173827886581421,-30.273435592651367,-1.4979248046875,0.37060546875,0.0633544921875
6.668,310,632,1095,312,-5.0,37.0,43.0,-29.785154342651367,-2.563476324081421,-23.498533248901367,-1.3951416015625,0.3028564453125,0.095458984375
6.676,310,606,1065,314,-5.0,37.0,43.0,-19.4091796875,-1.3427733182907104,-13.366698265075684,-1.254150390625,0.312744140625,0.1220703125
6.684,310,593,1029,313,-5.0,37.0,43.0,-11.718749046325684,0.7934569716453552,-4.638671875,-1.0677490234375,0.2977294921875,0.1441650390625
6.700,310,551,959,311,-5.0,37.0,43.0,-5.126952648162842,3.845214605331421,0.1220703050494194,-0.6610107421875,0.1732177734375,0.1214599609375
6.707,310,535,932,312,-5.0,37.0,43.0,2.44140625,6.225585460662842,1.3427733182907104,-0.6610107421875,0.1732177734375,0.1214599609375
6.724,310,525,893,314,-5.0,37.0,43.0,10.620116233825684,7.141112804412842,1.0986328125,-0.5286865234375,0.1837158203125,0.0892333984375
6.728,309,497,849,312,-5.0,37.0,43.0,15.319823265075684,6.713866710662842,0.0,-0.5142822265625,0.315673828125,0.0364990234375
6.739,310,485,827,312,-5.0,37.0,43.0,13.854979515075684,5.981444835662842,-3.051757574081421,-0.5142822265625,0.315673828125,0.0364990234375
6.754,310,481,803,311,-5.0,37.0,43.0,8.11767578125,6.591796398162842,-8.23974609375,-0.5811767578125,0.3538818359375,-0.0089111328125
6.758,310,469,780,311,-5.0,36.0,41.0,0.0,7.446288585662842,-14.770506858825684,-0.669677734375,0.22216796875,0.0108642578125
6.766,310,469,770,312,-5.0,36.0,41.0,-7.080077648162842,6.774901866912842,-20.446775436401367,-0.669677734375,0.22216796875,0.0108642578125
6.774,310,467,769,312,-5.0,36.0,41.0,-9.46044921875,4.5166015625,-22.094724655151367,-0.7003173828125,0.1729736328125,0.025146484375
6.789,310,468,764,311,-5.0,36.0,41.0,-7.019042491912842,1.4038084745407104,-19.1650390625,-0.7723388671875,0.1864013671875,0.04736328125
6.803,311,467,765,312,-5.0,36.0,41.0,-2.3193359375,-2.197265625,-14.099120140075684,-0.7723388671875,0.1864013671875,0.04736328125
6.804,290,473,764,312,-5.0,36.0,41.0,1.6479490995407104,-5.0048828125,-8.85009765625,-0.8204345703125,0.2318115234375,0.0369873046875
6.826,309,477,766,312,-5.0,36.0,41.0,2.25830078125,-6.286620616912842,-3.784179449081421,-0.869384765625,0.344970703125,0.0306396484375
6.826,296,481,749,314,-5.0,36.0,41.0,-0.30517578125,-6.713866710662842,0.30517578125,-0.8858642578125,0.3165283203125,0.0538330078125
6.842,314,482,780,311,-5.0,36.0,41.0,-3.906249761581421,-6.469726085662842,3.356933355331421,-0.8858642578125,0.3165283203125,0.0538330078125
6.852,310,496,803,312,-5.0,36.0,41.0,-9.033203125,-5.432128429412842,9.46044921875,-0.782958984375,0.1890869140625,0.1324462890625
6.856,310,498,816,312,-9.0,38.0,46.0,-9.033203125,-5.432128429412842,9.46044921875,-0.71044921875,0.2230224609375,0.1370849609375
6.864,309,510,833,312,-9.0,38.0,46.0,-5.798339366912842,-6.042479991912842,12.329100608825684,-0.71044921875,0.2230224609375,0.1370849609375
6.878,311,522,858,312,-9.0,38.0,46.0,9.3994140625,-9.1552734375,13.244627952575684,-0.734375,0.3892822265625,0.0174560546875
6.886,310,529,874,311,-9.0,38.0,46.0,9.3994140625,-9.1552734375,13.244627952575684,-0.8165283203125,0.408935546875,-0.027587890625
6.894,310,546,873,312,-9.0,38.0,46.0,8.9111328125,-9.27734375,10.986327171325684,-0.8165283203125,0.408935546875,-0.027587890625
6.912,310,576,916,312,-9.0,38.0,46.0,-10.131834983825684,-6.713866710662842,7.629394054412842,-0.8812255859375,0.278564453125,0.02685546875
6.916,310,588,943,312,-9.0,38.0,46.0,-10.131834983825684,-6.713866710662842,7.629394054412842,-0.7701416015625,0.1591796875,0.11474609375
6.926,310,606,981,312,-9.0,38.0,46.0,-16.11328125,-7.446288585662842,8.36181640625,-0.7701416015625,0.1591796875,0.11474609375
6.942,310,631,1055,314,-9.0,38.0,46.0,2.929687261581421,-14.648436546325684,11.169432640075684,-0.4678955078125,0.070556640625,0.23193359375
6.959,310,646,1129,312,-9.0,38.0,46.0,2.929687261581421,-14.648436546325684,11.169432640075684,-0.3583984375,0.138427734375,0.2633056640625
6.959,310,673,1198,295,-5.0,37.0,44.0,23.986814498901367,-17.02880859375,8.544921875,-0.3583984375,0.138427734375,0.2633056640625
6.968,310,717,1318,311,-5.0,37.0,44.0,56.152339935302734,-9.033203125,-14.770506858825684,-0.4619140625,0.416015625,0.0850830078125
6.976,311,749,1369,314,-5.0,37.0,44.0,47.363277435302734,-3.540038824081421,-25.085447311401367,-0.6741943359375,0.5313720703125,-0.0513916015625
6.984,311,779,1409,312,-5.0,37.0,44.0,47.363277435302734,-3.540038824081421,-25.085447311401367,-0.989501953125,0.4954833984375,-0.106201171875
6.998,311,826,1484,312,-5.0,37.0,44.0,2.807616949081421,-7.019042491912842,-26.184080123901367,-1.339111328125,0.396484375,-0.07177734375
7.020,311,846,1514,314,-5.0,37.0,44.0,-7.751464366912842,-11.230467796325684,-20.202634811401367,-1.65576171875,0.4169921875,-0.0233154296875
7.021,310,858,1531,314,-5.0,37.0,44.0,-7.751464366912842,-11.230467796325684,-20.202634811401367,-1.9178466796875,0.5977783203125,-0.031494140625
7.029,310,849,1490,314,-5.0,37.0,44.0,-9.33837890625,-12.268065452575684,-10.498045921325684,-2.0489501953125,0.7647705078125,-0.0335693359375
7.036,310,832,1447,313,-5.0,37.0,44.0,-15.319823265075684,-10.620116233825684,-10.253905296325684,-1.8311767578125,0.614013671875,0.0618896484375
7.056,310,816,1416,313,-5.0,37.0,44.0,-15.319823265075684,-10.620116233825684,-10.253905296325684,-1.2611083984375,0.15869140625,0.22900390625
7.058,311,801,1392,313,-6.0,36.0,49.0,-2.807616949081421,4.0283203125,-9.3994140625,-0.817138671875,-0.010986328125,0.2965087890625
7.066,311,799,1388,314,-6.0,36.0,49.0,12.695311546325684,10.375975608825684,-2.807616949081421,-0.848388671875,0.3079833984375,0.1729736328125
7.074,310,794,1366,314,-6.0,36.0,49.0,12.695311546325684,10.375975608825684,-2.807616949081421,-1.2098388671875,0.7193603515625,-0.017333984375
7.088,310,778,1316,312,-6.0,36.0,49.0,-1.9531248807907104,9.033203125,-5.249022960662842,-1.5440673828125,0.8734130859375,-0.1014404296875
7.096,310,762,1268,314,-6.0,36.0,49.0,-18.6767578125,5.554198741912842,-15.991209983825684,-1.6376953125,0.69775390625,-0.040771484375
7.104,310,730,1211,313,-6.0,36.0,49.0,-18.6767578125,5.554198741912842,-15.991209983825684,-1.5458984375,0.4327392578125,0.05517578125
7.120,310,698,1111,312,-6.0,36.0,49.0,-27.526853561401367,1.8310545682907104,-21.484373092651367,-1.4085693359375,0.28564453125,0.114990234375
7.135,311,676,1056,314,-6.0,36.0,49.0,-19.8974609375,3.295898199081421,-12.573241233825684,-1.2725830078125,0.2589111328125,0.14404296875
7.136,310,648,1012,312,-6.0,36.0,49.0,-11.413573265075684,7.019042491912842,-2.0751953125,-1.1251220703125,0.2520751953125,0.1512451171875
7.157,312,604,933,311,-6.0,36.0,49.0,-5.798339366912842,12.084959983825684,6.469726085662842,-0.950927734375,0.2034912109375,0.1490478515625
7.160,310,576,901,312,-3.0,36.0,46.0,-2.746581792831421,16.54052734375,11.718749046325684,-0.7679443359375,0.1361083984375,0.1446533203125
7.164,311,554,845,312,-3.0,36.0,46.0,0.7324218153953552,19.04296875,13.793944358825684,-0.61962890625,0.11962890625,0.1336669921875
7.178,311,529,813,312,-3.0,36.0,46.0,5.371093273162842,19.04296875,13.366698265075684,-0.531005859375,0.1802978515625,0.1256103515625
7.186,310,506,782,311,-3.0,36.0,46.0,8.6669921875,17.88330078125,10.375975608825684,-0.513671875,0.28564453125,0.091796875
7.194,310,490,749,312,-3.0,36.0,46.0,9.6435546875,17.822265625,4.39453125,-0.546630859375,0.3629150390625,0.0198974609375
7.208,309,481,723,312,-3.0,36.0,46.0,6.896972179412842,18.4326171875,-3.967284917831421,-0.5885009765625,0.3106689453125,0.00390625
7.216,310,466,718,312,-3.0,36.0,46.0,1.15966796875,16.9677734375,-12.390135765075684,-0.624755859375,0.1512451171875,0.0494384765625
7.242,310,465,710,314,-3.0,36.0,46.0,-2.807616949081421,13.732909202575684,-16.17431640625,-0.6614990234375,0.0411376953125,0.0570068359375
7.242,310,452,710,311,-3.0,36.0,46.0,-2.3193359375,9.8876953125,-13.122557640075684,-0.6839599609375,0.066650390625,0.0157470703125
7.262,310,456,712,311,-3.0,36.0,46.0,1.4648436307907104,5.493163585662842,-6.103515148162842,-0.6983642578125,0.177978515625,-0.0323486328125
7.263,310,438,721,312,-9.0,37.0,48.0,5.493163585662842,1.5258787870407104,1.0986328125,-0.73095703125,0.2974853515625,-0.0689697265625
7.268,311,468,721,312,-9.0,37.0,48.0,6.347655773162842,-1.4648436307907104,6.042479991912842,-0.7796630859375,0.379150390625,-0.07763671875
7.276,310,472,725,310,-9.0,37.0,48.0,2.44140625,-3.540038824081421,7.934569835662842,-0.81396484375,0.4000244140625,-0.0540771484375
7.284,311,475,723,311,-9.0,37.0,48.0,-3.601073980331421,-4.69970703125,7.690429210662842,-0.8131103515625,0.34423828125,-0.01416015625
7.298,310,481,721,312,-9.0,37.0,48.0,-8.1787109375,-4.5166015625,7.385253429412842,-0.7982177734375,0.2496337890625,0.0323486328125
7.306,310,494,740,313,-9.0,37.0,48.0,-9.3994140625,-3.906249761581421,8.60595703125,-0.7947998046875,0.198974609375,0.0723876953125
7.314,310,502,749,312,-9.0,37.0,48.0,-6.958007335662842,-4.21142578125,11.291502952575684,-0.8084716796875,0.2254638671875,0.08935546875
7.340,310,509,765,311,-9.0,37.0,48.0,-2.929687261581421,-6.042479991912842,13.977049827575684,-0.8135986328125,0.2947998046875,0.084716796875
7.341,310,516,796,311,-9.0,37.0,48.0,-1.4648436307907104,-8.6669921875,15.502928733825684,-0.816650390625,0.3446044921875,0.066162109375
7.344,312,519,810,312,-9.0,37.0,48.0,-3.967284917831421,-10.681151390075684,16.7236328125,-0.8392333984375,0.3524169921875,0.052001953125
7.365,310,538,846,312,-3.0,36.0,42.0,-7.751464366912842,-11.474608421325684,18.4326171875,-0.853271484375,0.3123779296875,0.06689453125
7.366,310,536,860,298,-3.0,36.0,42.0,-10.864256858825684,-10.498045921325684,21.057126998901367,-0.84228515625,0.22314453125,0.097412109375
7.374,310,564,901,311,-3.0,36.0,42.0,-14.831542015075684,-8.4228515625,25.390623092651367,-0.8092041015625,0.1253662109375,0.1380615234375
7.388,310,603,955,310,-3.0,36.0,42.0,-16.78466796875,-7.080077648162842,31.127927780151367,-0.7318115234375,0.0592041015625,0.1851806640625
7.396,308,614,1000,312,-3.0,36.0,42.0,-9.1552734375,-5.554198741912842,36.9873046875,-0.5941162109375,0.054443359375,0.2178955078125
7.404,312,634,1069,312,-3.0,36.0,42.0,7.324218273162842,-2.3193359375,39.9169921875,-0.4224853515625,0.126708984375,0.2420654296875
7.418,310,671,1219,313,-3.0,36.0,42.0,26.611326217651367,0.6713866591453552,34.85107421875,-0.2843017578125,0.22998046875,0.25634765625
7.426,311,705,1308,312,-3.0,36.0,42.0,45.227046966552734,2.197265625,20.01953125,-0.2747802734375,0.3560791015625,0.1964111328125
7.448,311,739,1375,312,-3.0,36.0,42.0,57.067867279052734,3.356933355331421,0.6103515625,-0.42041015625,0.5352783203125,0.041015625
7.468,310,799,1477,300,-3.0,36.0,42.0,54.931636810302734,3.845214605331421,-16.9677734375,-1.014892578125,0.5147705078125,-0.244873046875
7.469,311,830,1527,299,-4.0,39.0,43.0,38.57421875,3.051757574081421,-28.137205123901367,-1.014892578125,0.5147705078125,-0.244873046875
7.469,311,859,1564,314,-4.0,39.0,43.0,16.29638671875,-0.4882812201976776,-28.991697311401367,-1.37744140625,0.3975830078125,-0.2412109375
7.478,311,889,1607,312,-4.0,39.0,43.0,-0.9155272841453552,-7.873534679412842,-21.240232467651367,-1.8812255859375,0.6573486328125,-0.11572265625
7.486,310,901,1622,314,-4.0,39.0,43.0,-7.690429210662842,-15.686034202575684,-11.962889671325684,-1.8812255859375,0.6573486328125,-0.11572265625
7.494,311,901,1611,314,-4.0,39.0,43.0,-10.742186546325684,-20.263669967651367,-6.652831554412842,-1.964111328125,0.8369140625,-0.0277099609375
7.508,310,877,1588,313,-4.0,39.0,43.0,-18.85986328125,-20.690916061401367,-6.103515148162842,-1.41650390625,0.2755126953125,0.3450927734375
7.516,310,864,1567,313,-4.0,39.0,43.0,-24.658201217651367,-16.2353515625,-7.568358898162842,-1.41650390625,0.2755126953125,0.3450927734375
7.524,312,848,1527,314,-4.0,39.0,43.0,-10.742186546325684,-5.920409679412842,-7.873534679412842,-0.9327392578125,0.07568359375,0.38623046875
7.548,310,835,1504,313,-4.0,39.0,43.0,14.770506858825684,4.39453125,-6.164550304412842,-1.009033203125,0.6307373046875,-0.0970458984375
7.549,312,830,1486,295,-4.0,39.0,43.0,25.878904342651367,8.72802734375,-8.7890625,-1.009033203125,0.6307373046875,-0.0970458984375
7.568,311,818,1450,314,-5.0,34.0,47.0,16.2353515625,7.873534679412842,-18.85986328125,-1.352783203125,0.7705078125,-0.2034912109375
7.570,310,793,1381,314,-5.0,34.0,47.0,-7.202147960662842,2.685546636581421,-29.418943405151367,-1.7239990234375,0.4842529296875,0.0821533203125
7.577,310,771,1345,313,-5.0,34.0,47.0,-30.273435592651367,-3.356933355331421,-33.8134765625,-1.7239990234375,0.4842529296875,0.0821533203125
7.584,311,741,1271,314,-5.0,34.0,47.0,-37.29248046875,-4.2724609375,-29.174802780151367,-1.6177978515625,0.3470458984375,0.20654296875
7.598,310,697,1149,312,-5.0,34.0,47.0,-19.10400390625,7.080077648162842,-3.051757574081421,-1.3626708984375,0.3807373046875,0.1787109375
7.606,310,662,1078,312,-5.0,34.0,47.0,-19.10400390625,7.080077648162842,-3.051757574081421,-1.1717529296875,0.29736328125,0.1588134765625
7.614,310,636,1027,314,-5.0,34.0,47.0,-12.023924827575684,14.465331077575684,5.920409679412842,-1.1717529296875,0.29736328125,0.1588134765625
7.628,310,586,939,312,-5.0,34.0,47.0,-4.8828125,25.207517623901367,13.854979515075684,-0.695068359375,0.1112060546875,0.1669921875
7.643,311,549,905,312,-5.0,34.0,47.0,-4.8828125,25.207517623901367,13.854979515075684,-0.5333251953125,0.15673828125,0.139404296875
7.652,310,523,854,312,-5.0,34.0,47.0,3.723144292831421,24.902341842651367,14.953612327575684,-0.5333251953125,0.15673828125,0.139404296875
7.670,310,485,813,312,-5.0,37.0,45.0,23.254392623901367,19.775390625,3.356933355331421,-0.4329833984375,0.3348388671875,0.0228271484375
7.673,311,465,771,311,-5.0,37.0,45.0,23.254392623901367,19.775390625,3.356933355331421,-0.4832763671875,0.2899169921875,-0.009521484375
7.674,310,440,737,311,-5.0,37.0,45.0,21.850584030151367,19.6533203125,-8.6669921875,-0.4832763671875,0.2899169921875,-0.009521484375
7.690,310,419,704,311,-5.0,37.0,45.0,5.0048828125,16.357421875,-27.343748092651367,-0.5780029296875,-0.0306396484375,0.004150390625
7.696,310,401,694,311,-5.0,37.0,45.0,5.0048828125,16.357421875,-27.343748092651367,-0.607666015625,0.0321044921875,-0.0904541015625
7.704,310,402,688,311,-5.0,37.0,45.0,4.2724609375,14.831542015075684,-26.000974655151367,-0.607666015625,0.0321044921875,-0.0904541015625
7.718,310,406,682,311,-5.0,37.0,45.0,5.249022960662842,7.629394054412842,-10.803221702575684,-0.75927734375,0.304443359375,-0.153076171875
7.726,310,401,685,311,-5.0,37.0,45.0,5.249022960662842,7.629394054412842,-10.803221702575684,-0.815185546875,0.3701171875,-0.1185302734375
7.734,308,402,685,312,-5.0,37.0,45.0,2.3193359375,1.3427733182907104,-3.601073980331421,-0.815185546875,0.3701171875,-0.1185302734375
7.748,310,414,684,310,-6.0,36.0,46.0,-6.591796398162842,-7.690429210662842,3.417968511581421,-0.7666015625,0.3082275390625,0.029052734375
7.778,310,417,685,311,-6.0,36.0,46.0,-9.3994140625,-8.85009765625,6.530761241912842,-0.7435302734375,0.2845458984375,0.0982666015625
7.778,296,402,669,312,-6.0,36.0,46.0,-9.3994140625,-8.85009765625,6.530761241912842,-0.7359619140625,0.2568359375,0.1412353515625
7.779,310,410,673,310,-6.0,36.0,46.0,-9.27734375,-7.873534679412842,10.253905296325684,-0.7359619140625,0.2568359375,0.1412353515625
7.788,309,439,697,311,-6.0,36.0,46.0,-7.019042491912842,-2.25830078125,15.258788108825684,-0.7703857421875,0.2637939453125,0.1085205078125
7.795,309,450,712,312,-6.0,36.0,46.0,-7.019042491912842,-2.25830078125,15.258788108825684,-0.7957763671875,0.341796875,0.072509765625
7.803,310,452,721,312,-6.0,36.0,46.0,-3.173827886581421,-1.3427733182907104,16.90673828125,-0.7957763671875,0.341796875,0.072509765625
7.818,310,477,739,312,-6.0,36.0,46.0,2.624511480331421,-3.845214605331421,18.4326171875,-0.84326171875,0.3414306640625,0.020751953125
7.825,310,488,756,311,-6.0,36.0,46.0,-1.6479490995407104,-3.540038824081421,21.850584030151367,-0.871826171875,0.288330078125,0.0009765625
7.833,312,493,771,312,-6.0,36.0,46.0,-1.6479490995407104,-3.540038824081421,21.850584030151367,-0.8270263671875,0.216796875,0.0323486328125
7.848,310,503,799,312,-5.0,36.0,45.0,-16.11328125,-4.638671875,32.470703125,-0.7308349609375,0.1517333984375,0.0894775390625
7.855,310,514,837,312,-5.0,36.0,45.0,-10.253905296325684,-6.774901866912842,37.41455078125,-0.640625,0.165771484375,0.12158203125
7.872,311,535,861,312,-5.0,36.0,45.0,-10.253905296325684,-6.774901866912842,37.41455078125,-0.5751953125,0.2457275390625,0.1126708984375
7.879,310,579,932,312,-5.0,36.0,45.0,15.197752952575684,-11.474608421325684,42.175289154052734,-0.52978515625,0.297119140625,0.107177734375
7.885,311,604,994,313,-5.0,36.0,45.0,18.9208984375,-12.329100608825684,37.17041015625,-0.4827880859375,0.259765625,0.1712646484375
7.893,310,629,1078,313,-5.0,36.0,45.0,18.9208984375,-12.329100608825684,37.17041015625,-0.3978271484375,0.15185546875,0.287109375
7.907,310,691,1253,314,-5.0,36.0,45.0,22.644041061401367,-8.36181640625,8.056640625,-0.315185546875,0.090576171875,0.3260498046875
7.915,311,740,1338,312,-5.0,36.0,45.0,43.823238372802734,-3.173827886581421,-7.751464366912842,-0.3414306640625,0.220458984375,0.1669921875
7.923,311,786,1395,314,-5.0,36.0,45.0,43.823238372802734,-3.173827886581421,-7.751464366912842,-0.5263671875,0.4481201171875,-0.1561279296875
7.937,311,861,1500,312,-5.0,36.0,45.0,72.021484375,-0.7934569716453552,-24.414060592651367,-0.8970947265625,0.5625,-0.44970703125
7.952,311,889,1546,314,-7.0,38.0,45.0,44.067378997802734,-5.798339366912842,-24.414060592651367,-1.376220703125,0.59619140625,-0.517333984375
7.953,296,921,1584,310,-7.0,38.0,45.0,44.067378997802734,-5.798339366912842,-24.414060592651367,-1.8155517578125,0.6773681640625,-0.3536376953125
7.986,310,959,1628,314,-7.0,38.0,45.0,-36.4990234375,-19.47021484375,-10.498045921325684,-2.0792236328125,0.7091064453125,-0.053466796875
7.986,310,966,1640,314,-7.0,38.0,45.0,-51.635738372802734,-24.963376998901367,-3.540038824081421,-2.0850830078125,0.5926513671875,0.2816162109375
7.986,311,939,1625,311,-7.0,38.0,45.0,-42.175289154052734,-24.475095748901367,3.112792730331421,-1.873291015625,0.4515380859375,0.47314453125
7.997,311,944,1596,312,-7.0,38.0,45.0,-14.953612327575684,-14.709471702575684,10.375975608825684,-1.43603515625,0.3463134765625,0.4310302734375
8.006,310,931,1577,314,-7.0,38.0,45.0,16.05224609375,1.8920897245407104,13.610838890075684,-0.9796142578125,0.3583984375,0.200439453125
8.013,310,912,1545,314,-7.0,38.0,45.0,32.5927734375,15.136717796325684,9.46044921875,-0.8421630859375,0.541748046875,-0.08349609375
8.030,310,879,1524,314,-7.0,38.0,45.0,23.254392623901367,17.08984375,-1.4648436307907104,-0.9544677734375,0.666748046875,-0.226318359375
8.036,310,877,1519,314,-7.0,38.0,45.0,1.15966796875,10.986327171325684,-17.15087890625,-1.110107421875,0.6123046875,-0.1705322265625
8.043,310,873,1499,314,-7.0,38.0,45.0,-15.747069358825684,3.540038824081421,-31.005857467651367,-1.374267578125,0.584228515625,-0.052978515625
8.057,310,849,1419,312,-5.0,37.0,43.0,-28.442380905151367,-3.356933355331421,-35.46142578125,-1.7088623046875,0.635009765625,0.0570068359375
8.081,310,830,1374,313,-5.0,37.0,43.0,-39.1845703125,-6.835937023162842,-31.433103561401367,-1.87158203125,0.58203125,0.1741943359375
8.082,312,809,1281,294,-5.0,37.0,43.0,-40.954586029052734,-3.479003667831421,-23.986814498901367,-1.803955078125,0.414794921875,0.2481689453125
8.087,311,742,1219,312,-5.0,37.0,43.0,-31.127927780151367,5.310058116912842,-13.244627952575684,-1.5980224609375,0.3323974609375,0.2548828125
8.095,310,711,1143,314,-5.0,37.0,43.0,-15.747069358825684,14.709471702575684,1.3427733182907104,-1.34375,0.3865966796875,0.217529296875
8.103,311,676,1063,312,-5.0,37.0,43.0,-3.906249761581421,21.728513717651367,13.244627952575684,-1.0703125,0.3836669921875,0.1754150390625
8.118,310,621,982,313,-5.0,37.0,43.0,4.0283203125,26.306150436401367,16.2353515625,-0.8038330078125,0.2900390625,0.1351318359375
8.125,311,585,927,314,-5.0,37.0,43.0,13.549803733825684,28.442380905151367,11.779784202575684,-0.5909423828125,0.2486572265625,0.0860595703125
8.133,312,548,875,313,-5.0,37.0,43.0,23.376462936401367,27.832029342651367,3.906249761581421,-0.4710693359375,0.2962646484375,0.0294189453125
8.147,310,499,809,310,-5.0,37.0,46.0,27.709959030151367,24.902341842651367,-5.615233898162842,-0.435302734375,0.3138427734375,-0.037353515625
8.156,310,476,756,311,-5.0,37.0,46.0,23.620603561401367,21.423337936401367,-16.78466796875,-0.4449462890625,0.2274169921875,-0.0615234375
8.163,310,452,713,310,-5.0,37.0,46.0,13.916014671325684,18.12744140625,-27.526853561401367,-0.495361328125,0.0758056640625,-0.0732421875
8.206,310,424,658,310,-5.0,37.0,46.0,5.126952648162842,16.845703125,-34.36279296875,-0.5352783203125,-0.0457763671875,-0.147216796875
8.206,310,413,631,297,-5.0,37.0,46.0,1.8310545682907104,17.51708984375,-35.5224609375,-0.5545654296875,-0.046875,-0.1917724609375
8.206,315,408,629,312,-5.0,37.0,46.0,0.4272460639476776,15.502928733825684,-29.968259811401367,-0.614013671875,0.0716552734375,-0.156494140625
8.212,308,395,620,311,-5.0,37.0,46.0,-2.50244140625,9.46044921875,-19.83642578125,-0.6885986328125,0.2406005859375,-0.1104736328125
8.218,310,395,619,311,-5.0,37.0,46.0,-7.507323741912842,2.44140625,-10.375975608825684,-0.7266845703125,0.3505859375,-0.071044921875
8.223,310,395,628,312,-5.0,37.0,46.0,-14.282225608825684,-3.051757574081421,-4.94384765625,-0.72314453125,0.3433837890625,-0.0169677734375
8.237,311,399,622,308,-5.0,37.0,46.0,-19.8974609375,-5.859374523162842,-2.563476324081421,-0.70703125,0.29248046875,0.0374755859375
8.245,310,402,631,312,-4.0,36.0,45.0,-21.057126998901367,-6.225585460662842,-0.1220703050494194,-0.70654296875,0.284912109375,0.0804443359375
8.260,310,411,631,311,-4.0,36.0,45.0,-18.61572265625,-5.554198741912842,3.906249761581421,-0.7244873046875,0.291015625,0.1181640625
8.267,310,423,629,312,-4.0,36.0,45.0,-16.78466796875,-4.08935546875,8.97216796875,-0.7470703125,0.2591552734375,0.1365966796875
8.292,308,436,629,311,-4.0,36.0,45.0,-17.578125,-1.03759765625,14.526366233825684,-0.761962890625,0.220947265625,0.1304931640625
8.292,310,454,643,312,-4.0,36.0,45.0,-15.136717796325684,1.3427733182907104,22.583005905151367,-0.7603759765625,0.26708984375,0.1297607421875
8.297,310,469,666,311,-4.0,36.0,45.0,-15.136717796325684,1.3427733182907104,22.583005905151367,-0.751220703125,0.304443359375,0.1134033203125
8.305,308,481,676,312,-4.0,36.0,45.0,-5.310058116912842,-1.8310545682907104,23.132322311401367,-0.751220703125,0.304443359375,0.1134033203125
8.313,312,493,689,311,-4.0,36.0,45.0,5.859374523162842,-5.859374523162842,22.094724655151367,-0.7257080078125,0.3193359375,0.072265625
8.327,308,509,726,311,-4.0,36.0,45.0,12.268065452575684,-8.056640625,21.484373092651367,-0.68310546875,0.342041015625,-0.0025634765625
8.336,310,531,749,311,-4.0,36.0,45.0,11.047362327575684,-7.568358898162842,22.460935592651367,-0.68310546875,0.342041015625,-0.0025634765625
8.344,310,551,778,312,-6.0,38.0,46.0,3.356933355331421,-7.019042491912842,23.986814498901367,-0.6622314453125,0.369384765625,-0.0037841796875
8.389,310,591,830,312,-6.0,38.0,46.0,-4.0283203125,-9.21630859375,23.681638717651367,-0.5281982421875,0.278564453125,0.05078125
8.389,311,614,902,313,-6.0,38.0,46.0,-4.08935546875,-13.000487327575684,20.446775436401367,-0.5281982421875,0.278564453125,0.05078125
8.389,310,650,974,313,-6.0,38.0,46.0,3.540038824081421,-16.11328125,15.014647483825684,-0.45166015625,0.226318359375,0.0640869140625
8.397,310,728,1160,297,-6.0,38.0,46.0,11.657713890075684,-18.49365234375,8.30078125,-0.51708984375,0.2314453125,0.0980224609375
8.399,311,771,1229,314,-6.0,38.0,46.0,15.136717796325684,-22.033689498901367,-0.7934569716453552,-0.51708984375,0.2314453125,0.0980224609375
8.403,310,809,1308,313,-6.0,38.0,46.0,18.310546875,-24.902341842651367,-12.207030296325684,-0.72607421875,0.2142333984375,0.080078125
8.417,310,868,1444,314,-6.0,38.0,46.0,25.146482467651367,-22.033689498901367,-21.545408248901367,-1.138427734375,0.3134765625,-0.097412109375
8.425,311,906,1499,314,-6.0,38.0,46.0,31.249998092651367,-15.747069358825684,-24.780271530151367,-1.2967529296875,0.4498291015625,-0.1707763671875
8.433,311,931,1540,312,-6.0,38.0,46.0,27.709959030151367,-13.061522483825684,-22.521970748901367,-1.2967529296875,0.4498291015625,-0.1707763671875
8.447,310,966,1591,313,-4.0,36.0,46.0,-9.3994140625,-18.61572265625,-9.58251953125,-1.7930908203125,0.890380859375,-0.16259765625
8.463,310,978,1607,314,-4.0,36.0,46.0,-9.3994140625,-18.61572265625,-9.58251953125,-2.00390625,0.8353271484375,0.0125732421875
8.464,311,966,1580,289,-4.0,36.0,46.0,-32.2265625,-21.850584030151367,-6.225585460662842,-2.00390625,0.8353271484375,0.0125732421875
8.491,311,951,1555,312,-4.0,36.0,46.0,-44.860836029052734,-14.892577171325684,-0.9155272841453552,-1.4029541015625,-0.04541015625,0.5908203125
8.491,310,935,1526,313,-4.0,36.0,46.0,-44.860836029052734,-14.892577171325684,-0.9155272841453552,-0.864990234375,-0.1004638671875,0.5269775390625
8.494,310,913,1486,314,-4.0,36.0,46.0,-16.2353515625,2.01416015625,5.432128429412842,-0.864990234375,-0.1004638671875,0.5269775390625
8.507,310,902,1474,312,-4.0,36.0,46.0,34.72900390625,28.259275436401367,7.568358898162842,-1.0186767578125,0.9053955078125,-0.267578125
8.515,310,888,1457,314,-4.0,36.0,46.0,34.72900390625,28.259275436401367,7.568358898162842,-1.3460693359375,0.9581298828125,-0.322998046875
8.523,312,876,1422,314,-4.0,36.0,46.0,16.4794921875,23.315427780151367,-12.817381858825684,-1.3460693359375,0.9581298828125,-0.322998046875
8.537,309,846,1344,314,-4.0,36.0,46.0,-47.302242279052734,-1.5869139432907104,-42.968746185302734,-1.729248046875,0.40771484375,0.0980224609375
8.545,310,826,1300,313,-5.0,37.0,42.0,-47.302242279052734,-1.5869139432907104,-42.968746185302734,-1.66845703125,0.230712890625,0.2249755859375
8.553,310,794,1241,314,-5.0,37.0,42.0,-55.664058685302734,-2.25830078125,-34.97314453125,-1.66845703125,0.230712890625,0.2249755859375
8.567,310,730,1122,313,-5.0,37.0,42.0,-27.160642623901367,13.916014671325684,2.929687261581421,-1.4053955078125,0.36279296875,0.1837158203125
8.600,309,700,1055,312,-5.0,37.0,42.0,-27.160642623901367,13.916014671325684,2.929687261581421,-1.22509765625,0.365478515625,0.14501953125
8.600,310,668,1011,313,-5.0,37.0,42.0,-17.578125,21.667478561401367,16.845703125,-0.9937744140625,0.268798828125,0.127685546875
8.600,310,600,891,312,-5.0,37.0,42.0,-10.620116233825684,31.188962936401367,21.606443405151367,-0.7691650390625,0.163818359375,0.114013671875
8.612,310,582,865,312,-5.0,37.0,42.0,0.54931640625,29.357908248901367,18.310546875,-0.6029052734375,0.1678466796875,0.0838623046875
8.613,311,532,840,312,-5.0,37.0,42.0,0.54931640625,29.357908248901367,18.310546875,-0.502197265625,0.283203125,0.0380859375
8.628,310,506,772,311,-5.0,37.0,42.0,26.916501998901367,20.385740280151367,3.906249761581421,-0.4647216796875,0.3607177734375,0.0018310546875
8.636,310,473,736,312,-5.0,37.0,42.0,25.207517623901367,18.00537109375,-7.934569835662842,-0.4820556640625,0.30126953125,-0.0211181640625
8.644,310,449,697,312,-5.0,37.0,45.0,25.207517623901367,18.00537109375,-7.934569835662842,-0.5191650390625,0.1119384765625,-0.0411376953125
8.658,312,424,673,311,-5.0,37.0,45.0,12.390135765075684,16.05224609375,-26.184080123901367,-0.5396728515625,-0.0804443359375,-0.078369140625
8.667,310,419,661,312,-5.0,37.0,45.0,12.817381858825684,14.526366233825684,-26.611326217651367,-0.5684814453125,-0.089599609375,-0.12109375
8.674,310,409,658,312,-5.0,37.0,45.0,15.380858421325684,10.681151390075684,-18.85986328125,-0.6409912109375,0.0926513671875,-0.1468505859375
8.706,310,407,647,310,-5.0,37.0,45.0,14.526366233825684,4.0283203125,-7.873534679412842,-0.7276611328125,0.3167724609375,-0.1497802734375
