time,compression0,compression1,compression2,compression3,magn_x,magn_y,magn_z,gyro_x,gyro_y,gyro_z,accel_x,accel_y,accel_z
0.015,310,308,394,310,-18.0,42.0,40.0,-2.01416015625,-0.1831054538488388,0.1831054538488388,-0.885009765625,0.3984375,-0.2164306640625
0.016,308,312,394,308,-18.0,42.0,40.0,-1.220703125,-0.0610351525247097,0.54931640625,-0.8841552734375,0.40185546875,-0.2230224609375
0.016,308,309,394,310,-18.0,42.0,40.0,-0.9155272841453552,0.0610351525247097,0.6713866591453552,-0.8843994140625,0.4049072265625,-0.225341796875
0.020,308,308,393,309,-15.0,39.0,44.0,-0.7934569716453552,0.1220703050494194,0.6103515625,-0.8834228515625,0.4091796875,-0.2254638671875
0.028,308,308,394,310,-15.0,39.0,44.0,-0.8544921278953552,0.1220703050494194,0.3662109076976776,-0.882080078125,0.4117431640625,-0.224365234375
0.042,308,309,394,308,-15.0,39.0,44.0,-1.0986328125,0.1220703050494194,-0.0610351525247097,-0.882080078125,0.4107666015625,-0.22314453125
0.051,309,310,393,308,-15.0,39.0,44.0,-1.4038084745407104,0.2441406100988388,-0.54931640625,-0.88330078125,0.4080810546875,-0.221923828125
0.058,307,310,391,308,-15.0,39.0,44.0,-1.4648436307907104,0.30517578125,-0.7934569716453552,-0.8843994140625,0.404541015625,-0.22021484375
0.072,309,308,393,310,-15.0,39.0,44.0,-1.03759765625,0.3662109076976776,-0.8544921278953552,-0.8837890625,0.401123046875,-0.2188720703125
0.087,308,308,393,308,-15.0,39.0,44.0,-0.30517578125,0.30517578125,-0.7324218153953552,-0.8826904296875,0.398681640625,-0.21826171875
0.099,308,308,393,310,-15.0,39.0,44.0,0.1831054538488388,0.1220703050494194,-0.4882812201976776,-0.8836669921875,0.39697265625,-0.2177734375
0.148,308,310,391,308,-15.0,39.0,44.0,0.4272460639476776,0.0,-0.1220703050494194,-0.885009765625,0.397216796875,-0.2177734375
0.148,309,310,391,308,-15.0,39.0,44.0,0.7324218153953552,-0.0610351525247097,0.1831054538488388,-0.8853759765625,0.400146484375,-0.2171630859375
0.148,308,308,391,309,-15.0,39.0,44.0,1.220703125,0.0,0.3662109076976776,-0.8843994140625,0.4046630859375,-0.2156982421875
0.149,308,310,391,308,-18.0,43.0,38.0,1.6479490995407104,0.1220703050494194,0.3662109076976776,-0.8822021484375,0.4075927734375,-0.21533203125
0.149,308,308,391,308,-18.0,43.0,38.0,1.8310545682907104,0.30517578125,0.1831054538488388,-0.87939453125,0.4072265625,-0.2169189453125
0.149,309,308,391,309,-18.0,43.0,38.0,1.5869139432907104,0.6103515625,-0.1220703050494194,-0.8778076171875,0.4044189453125,-0.218505859375
0.165,309,308,393,309,-18.0,43.0,38.0,1.2817381620407104,0.9765624403953552,-0.3662109076976776,-0.8775634765625,0.4017333984375,-0.2191162109375
0.170,310,309,390,309,-18.0,43.0,38.0,1.0986328125,1.2817381620407104,-0.54931640625,-0.878662109375,0.4017333984375,-0.2196044921875
0.178,308,309,391,308,-18.0,43.0,38.0,1.0986328125,1.4038084745407104,-0.7324218153953552,-0.8792724609375,0.403564453125,-0.220458984375
0.192,310,310,389,308,-18.0,43.0,38.0,1.220703125,1.4648436307907104,-0.9765624403953552,-0.876220703125,0.4080810546875,-0.2236328125
0.212,308,310,391,309,-18.0,43.0,38.0,1.4038084745407104,1.4648436307907104,-1.220703125,-0.876220703125,0.4080810546875,-0.2236328125
0.212,308,309,391,308,-18.0,43.0,38.0,1.2817381620407104,1.5258787870407104,-1.5258787870407104,-0.875,0.4073486328125,-0.2247314453125
0.222,308,310,391,308,-15.0,42.0,36.0,0.9765624403953552,1.5258787870407104,-1.8310545682907104,-0.8795166015625,0.4002685546875,-0.2286376953125
0.230,313,310,391,308,-15.0,42.0,36.0,0.6713866591453552,1.5258787870407104,-1.9531248807907104,-0.8795166015625,0.4002685546875,-0.2286376953125
0.239,308,310,391,308,-15.0,42.0,36.0,0.3662109076976776,1.4038084745407104,-1.8920897245407104,-0.8822021484375,0.3968505859375,-0.2305908203125
0.253,308,309,387,308,-15.0,42.0,36.0,0.1831054538488388,1.2817381620407104,-1.6479490995407104,-0.88623046875,0.3953857421875,-0.2296142578125
0.260,310,308,387,309,-15.0,42.0,36.0,-0.0610351525247097,1.15966796875,-1.220703125,-0.88623046875,0.3953857421875,-0.2296142578125
0.268,308,308,385,308,-15.0,42.0,36.0,-0.3662109076976776,0.9765624403953552,-0.54931640625,-0.8863525390625,0.392333984375,-0.2283935546875
0.282,308,309,386,308,-15.0,42.0,36.0,-0.6713866591453552,0.7934569716453552,0.30517578125,-0.88916015625,0.398193359375,-0.242431640625
0.291,308,308,383,310,-15.0,42.0,36.0,-0.7934569716453552,0.3662109076976776,1.0986328125,-0.88916015625,0.398193359375,-0.242431640625
0.315,308,310,384,308,-15.0,42.0,36.0,-0.8544921278953552,-0.1831054538488388,1.8310545682907104,-0.8919677734375,0.4044189453125,-0.2467041015625
0.319,308,296,381,308,-15.0,42.0,36.0,-1.220703125,-0.6103515625,2.44140625,-0.891357421875,0.4017333984375,-0.234375
0.321,309,310,382,309,-15.0,41.0,42.0,-2.13623046875,-0.6713866591453552,3.112792730331421,-0.88623046875,0.3870849609375,-0.232177734375
0.329,308,310,383,308,-15.0,41.0,42.0,-3.784179449081421,-0.3662109076976776,4.0283203125,-0.88623046875,0.3870849609375,-0.232177734375
0.343,308,310,384,308,-15.0,41.0,42.0,-7.507323741912842,0.1831054538488388,7.263183116912842,-0.8885498046875,0.3865966796875,-0.2454833984375
0.359,310,308,385,310,-15.0,41.0,42.0,-7.507323741912842,0.1831054538488388,7.263183116912842,-0.8907470703125,0.4029541015625,-0.24658203125
0.360,309,309,384,310,-15.0,41.0,42.0,-7.446288585662842,0.1831054538488388,9.765625,-0.8907470703125,0.4029541015625,-0.24658203125
0.373,308,310,382,308,-15.0,41.0,42.0,-6.164550304412842,0.0610351525247097,12.756346702575684,-0.874267578125,0.3956298828125,-0.2264404296875
0.381,310,308,382,308,-15.0,41.0,42.0,-6.164550304412842,0.0610351525247097,12.756346702575684,-0.86279296875,0.3809814453125,-0.2095947265625
0.423,310,309,384,308,-15.0,41.0,42.0,-8.30078125,-0.1831054538488388,13.305663108825684,-0.86279296875,0.3809814453125,-0.2095947265625
0.423,308,310,382,308,-15.0,41.0,42.0,-12.451170921325684,-0.30517578125,14.526366233825684,-0.8521728515625,0.3841552734375,-0.1923828125
0.424,308,309,384,308,-15.0,41.0,42.0,-13.122557640075684,-0.54931640625,14.953612327575684,-0.8529052734375,0.4046630859375,-0.190185546875
0.425,310,309,384,308,-16.0,42.0,44.0,-13.122557640075684,-0.54931640625,14.953612327575684,-0.85009765625,0.428466796875,-0.1920166015625
0.433,309,309,391,308,-16.0,42.0,44.0,-12.695311546325684,-2.197265625,14.465331077575684,-0.8448486328125,0.45068359375,-0.199462890625
0.441,308,308,387,308,-16.0,42.0,44.0,-12.145995140075684,-3.173827886581421,13.244627952575684,-0.84326171875,0.46533203125,-0.2076416015625
0.449,308,310,387,308,-16.0,42.0,44.0,-12.145995140075684,-3.173827886581421,13.244627952575684,-0.8465576171875,0.4605712890625,-0.20947265625
0.474,308,310,394,308,-16.0,42.0,44.0,-11.901854515075684,-3.906249761581421,9.27734375,-0.852783203125,0.4434814453125,-0.2042236328125
0.475,308,308,393,308,-16.0,42.0,44.0,-10.498045921325684,-3.234863042831421,6.896972179412842,-0.85693359375,0.4337158203125,-0.1968994140625
0.479,309,308,393,310,-16.0,42.0,44.0,-10.498045921325684,-3.234863042831421,6.896972179412842,-0.85888671875,0.4375,-0.189208984375
0.498,308,310,394,308,-16.0,42.0,44.0,-5.249022960662842,-2.624511480331421,3.845214605331421,-0.8623046875,0.4453125,-0.18359375
0.520,309,310,393,308,-16.0,42.0,44.0,-2.685546636581421,-2.990722417831421,2.563476324081421,-0.8641357421875,0.44873046875,-0.18310546875
0.520,307,293,394,308,-16.0,42.0,44.0,-2.685546636581421,-2.990722417831421,2.563476324081421,-0.8631591796875,0.4483642578125,-0.186279296875
0.524,308,308,388,310,-16.0,41.0,40.0,1.7700194120407104,-3.601073980331421,-0.3662109076976776,-0.86376953125,0.4481201171875,-0.1912841796875
0.547,308,308,391,310,-16.0,41.0,40.0,2.990722417831421,-3.540038824081421,-1.8310545682907104,-0.8660888671875,0.4488525390625,-0.196533203125
0.550,308,308,391,308,-16.0,41.0,40.0,2.990722417831421,-3.540038824081421,-1.8310545682907104,-0.8675537109375,0.44873046875,-0.1995849609375
0.554,295,296,387,294,-16.0,41.0,40.0,2.990722417831421,-2.990722417831421,-4.08935546875,-0.8680419921875,0.4476318359375,-0.19970703125
0.561,308,310,385,310,-16.0,41.0,40.0,2.624511480331421,-2.807616949081421,-5.0048828125,-0.8695068359375,0.4447021484375,-0.1978759765625
0.579,309,310,386,308,-16.0,41.0,40.0,2.563476324081421,-2.624511480331421,-5.737304210662842,-0.87158203125,0.438720703125,-0.1966552734375
0.583,308,308,382,309,-16.0,41.0,40.0,2.929687261581421,-2.50244140625,-6.103515148162842,-0.87158203125,0.431640625,-0.196533203125
0.598,309,309,384,310,-16.0,41.0,40.0,3.540038824081421,-2.38037109375,-6.225585460662842,-0.8707275390625,0.426513671875,-0.1983642578125
0.599,309,309,380,308,-16.0,41.0,40.0,4.08935546875,-2.38037109375,-6.225585460662842,-0.873291015625,0.4251708984375,-0.203369140625
0.617,308,310,381,309,-16.0,41.0,40.0,4.39453125,-2.563476324081421,-6.042479991912842,-0.8780517578125,0.427734375,-0.212158203125
0.621,309,308,382,309,-19.0,41.0,42.0,4.45556640625,-2.746581792831421,-5.798339366912842,-0.8814697265625,0.4320068359375,-0.222412109375
0.629,308,310,383,310,-19.0,41.0,42.0,4.33349609375,-3.112792730331421,-5.493163585662842,-0.8822021484375,0.4324951171875,-0.2296142578125
0.643,308,309,386,308,-19.0,41.0,42.0,3.906249761581421,-3.723144292831421,-5.187987804412842,-0.8818359375,0.4281005859375,-0.23095703125
0.651,310,309,384,310,-19.0,41.0,42.0,3.234863042831421,-4.57763671875,-4.8828125,-0.880615234375,0.421630859375,-0.2264404296875
0.659,309,309,384,310,-19.0,41.0,42.0,2.685546636581421,-5.493163585662842,-4.5166015625,-0.8780517578125,0.415771484375,-0.2176513671875
0.675,308,308,381,309,-19.0,41.0,42.0,2.38037109375,-6.408690929412842,-3.967284917831421,-0.87548828125,0.412109375,-0.2083740234375
0.681,308,308,382,310,-19.0,41.0,42.0,2.38037109375,-7.202147960662842,-3.417968511581421,-0.873779296875,0.4132080078125,-0.2034912109375
0.690,308,308,384,309,-19.0,41.0,42.0,2.563476324081421,-7.812499523162842,-2.868652105331421,-0.8729248046875,0.4189453125,-0.2034912109375
0.706,308,310,386,308,-19.0,41.0,42.0,2.563476324081421,-8.23974609375,-2.563476324081421,-0.8731689453125,0.4234619140625,-0.2044677734375
0.719,308,308,384,308,-19.0,41.0,42.0,2.44140625,-8.544921875,-2.38037109375,-0.8736572265625,0.4254150390625,-0.203125
0.719,308,310,383,308,-17.0,41.0,41.0,2.38037109375,-8.72802734375,-2.3193359375,-0.8734130859375,0.4281005859375,-0.1993408203125
0.733,310,310,386,310,-17.0,41.0,41.0,2.197265625,-8.72802734375,-2.3193359375,-0.8729248046875,0.4306640625,-0.1956787109375
0.741,308,308,384,308,-17.0,41.0,41.0,1.7089842557907104,-8.6669921875,-2.44140625,-0.8748779296875,0.4300537109375,-0.1929931640625
0.749,309,310,384,309,-17.0,41.0,41.0,1.03759765625,-8.6669921875,-2.807616949081421,-0.8773193359375,0.4268798828125,-0.1904296875
0.764,308,308,384,308,-17.0,41.0,41.0,0.54931640625,-8.7890625,-3.051757574081421,-0.8778076171875,0.4248046875,-0.1884765625
0.771,308,308,382,308,-17.0,41.0,41.0,-0.1220703050494194,-8.9111328125,-3.234863042831421,-0.870849609375,0.4300537109375,-0.195556640625
0.781,308,310,384,310,-17.0,41.0,41.0,-2.807616949081421,-8.60595703125,-3.601073980331421,-0.8668212890625,0.4420166015625,-0.218994140625
0.794,308,310,384,308,-17.0,41.0,41.0,-9.033203125,-7.507323741912842,-4.45556640625,-0.880615234375,0.4442138671875,-0.23583984375
0.831,308,310,386,308,-17.0,41.0,41.0,-15.991209983825684,-6.591796398162842,-5.126952648162842,-0.890869140625,0.4368896484375,-0.230224609375
0.831,308,310,385,308,-17.0,41.0,41.0,-19.95849609375,-6.469726085662842,-5.310058116912842,-0.8831787109375,0.4332275390625,-0.2144775390625
0.832,308,309,386,307,-15.0,38.0,40.0,-21.850584030151367,-7.202147960662842,-5.615233898162842,-0.874267578125,0.4207763671875,-0.1900634765625
0.832,309,308,386,307,-15.0,38.0,40.0,-22.460935592651367,-8.544921875,-6.164550304412842,-0.8760986328125,0.397216796875,-0.1644287109375
0.839,309,310,384,308,-15.0,38.0,40.0,-21.057126998901367,-9.82666015625,-5.859374523162842,-0.8804931640625,0.3829345703125,-0.1514892578125
0.853,310,310,386,310,-15.0,38.0,40.0,-18.1884765625,-10.498045921325684,-4.45556640625,-0.8780517578125,0.3851318359375,-0.149658203125
0.861,309,308,384,310,-15.0,38.0,40.0,-15.502928733825684,-10.620116233825684,-2.929687261581421,-0.869873046875,0.395263671875,-0.1505126953125
0.870,308,310,384,308,-15.0,38.0,40.0,-13.732909202575684,-10.620116233825684,-1.9531248807907104,-0.8626708984375,0.4022216796875,-0.152099609375
0.887,310,309,382,308,-15.0,38.0,40.0,-13.000487327575684,-10.559081077575684,-1.5869139432907104,-0.8604736328125,0.405029296875,-0.162109375
0.891,309,308,384,310,-15.0,38.0,40.0,-13.305663108825684,-10.314940452575684,-1.4648436307907104,-0.8604736328125,0.405029296875,-0.162109375
0.905,308,309,387,310,-15.0,38.0,40.0,-14.526366233825684,-9.8876953125,-1.2817381620407104,-0.8629150390625,0.4071044921875,-0.1639404296875
0.930,310,309,391,309,-15.0,38.0,40.0,-16.2353515625,-9.58251953125,-1.0986328125,-0.88330078125,0.41650390625,-0.159912109375
0.931,308,310,393,309,-16.0,40.0,44.0,-17.76123046875,-9.6435546875,-1.03759765625,-0.88330078125,0.41650390625,-0.159912109375
0.934,308,310,393,309,-16.0,40.0,44.0,-18.73779296875,-9.8876953125,-0.8544921278953552,-0.8917236328125,0.422119140625,-0.157470703125
0.943,308,311,396,308,-16.0,40.0,44.0,-19.47021484375,-10.131834983825684,-0.7324218153953552,-0.8946533203125,0.4373779296875,-0.1485595703125
0.951,309,310,402,310,-16.0,40.0,44.0,-20.568845748901367,-10.070799827575684,-0.8544921278953552,-0.8946533203125,0.4373779296875,-0.1485595703125
0.959,308,310,401,311,-16.0,40.0,44.0,-22.216794967651367,-9.6435546875,-1.03759765625,-0.888916015625,0.4344482421875,-0.13916015625
0.973,309,310,407,309,-16.0,40.0,44.0,-23.986814498901367,-8.7890625,-1.03759765625,-0.87939453125,0.3828125,-0.1090087890625
0.981,308,308,402,310,-16.0,40.0,44.0,-24.902341842651367,-8.056640625,-0.3662109076976776,-0.87939453125,0.3828125,-0.1090087890625
0.994,308,309,402,309,-16.0,40.0,44.0,-24.230955123901367,-7.568358898162842,1.2817381620407104,-0.8681640625,0.3629150390625,-0.0946044921875
1.010,310,308,402,308,-16.0,40.0,44.0,-22.399900436401367,-7.263183116912842,3.784179449081421,-0.8311767578125,0.378662109375,-0.0804443359375
1.012,307,310,407,309,-16.0,40.0,44.0,-20.690916061401367,-6.958007335662842,6.164550304412842,-0.8310546875,0.3984375,-0.0758056640625
1.030,310,310,405,310,-14.0,41.0,39.0,-19.83642578125,-6.347655773162842,7.812499523162842,-0.8310546875,0.3984375,-0.0758056640625
1.033,308,311,408,309,-14.0,41.0,39.0,-19.6533203125,-3.662109136581421,9.09423828125,-0.823486328125,0.4041748046875,-0.0787353515625
1.041,308,310,400,308,-14.0,41.0,39.0,-19.6533203125,-3.662109136581421,9.09423828125,-0.782470703125,0.359619140625,-0.0948486328125
1.049,312,483,406,310,-14.0,41.0,39.0,-20.324705123901367,-1.6479490995407104,9.94873046875,-0.782470703125,0.359619140625,-0.0948486328125
1.064,310,530,415,309,-14.0,41.0,39.0,-23.193357467651367,-0.3662109076976776,10.131834983825684,-0.468505859375,0.2197265625,-0.0811767578125
1.076,310,566,454,308,-14.0,41.0,39.0,-23.193357467651367,-0.3662109076976776,10.131834983825684,-0.241455078125,0.25244140625,-0.0531005859375
1.079,310,604,538,310,-14.0,41.0,39.0,-23.681638717651367,-4.33349609375,6.286620616912842,-0.241455078125,0.25244140625,-0.0531005859375
1.093,310,653,705,310,-14.0,41.0,39.0,-2.624511480331421,-32.1044921875,-24.963376998901367,0.0118408203125,0.6572265625,-0.063720703125
1.101,311,684,816,310,-14.0,41.0,39.0,-2.624511480331421,-32.1044921875,-24.963376998901367,0.18603515625,0.7359619140625,-0.059326171875
1.132,311,726,912,310,-14.0,41.0,39.0,2.13623046875,-48.339839935302734,-54.199214935302734,0.18603515625,0.7359619140625,-0.059326171875
1.140,310,822,1067,308,-11.0,39.0,45.0,-59.875484466552734,-49.194332122802734,-109.80223846435547,-0.49072265625,0.36279296875,-0.135986328125
1.140,310,877,1189,311,-11.0,39.0,45.0,-59.875484466552734,-49.194332122802734,-109.80223846435547,-1.3160400390625,0.3709716796875,-0.3253173828125
1.141,310,920,1251,310,-11.0,39.0,45.0,-57.861324310302734,-46.325679779052734,-113.52538299560547,-1.3160400390625,0.3709716796875,-0.3253173828125
1.153,308,310,1380,308,-11.0,39.0,45.0,65.00244140625,-78.06396484375,-73.3642578125,-1.9422607421875,1.238037109375,-0.14208984375
1.162,308,310,1443,307,-11.0,39.0,45.0,82.58055877685547,-83.12987518310547,-70.068359375,-2.07177734375,1.218505859375,-0.005615234375
1.169,309,310,1409,310,-11.0,39.0,45.0,82.58055877685547,-83.12987518310547,-70.068359375,-2.3328857421875,0.5799560546875,0.1905517578125
1.183,308,310,1371,310,-11.0,39.0,45.0,-2.685546636581421,-63.415523529052734,-118.04198455810547,-2.05615234375,-0.370849609375,0.2891845703125
1.191,310,310,1393,310,-11.0,39.0,45.0,-31.494138717651367,-41.320796966552734,-107.23876190185547,-1.332763671875,-0.9283447265625,0.189208984375
1.199,309,310,1416,310,-11.0,39.0,45.0,-31.494138717651367,-41.320796966552734,-107.23876190185547,-1.13232421875,-0.5435791015625,0.135009765625
1.221,308,310,1400,309,-7.0,37.0,45.0,-4.638671875,17.2119140625,-16.4794921875,-1.515869140625,0.2886962890625,0.1561279296875
1.236,310,310,1367,310,-7.0,37.0,45.0,19.59228515625,31.921384811401367,8.23974609375,-1.807373046875,0.7249755859375,0.191650390625
1.237,309,310,1274,306,-7.0,37.0,45.0,19.59228515625,31.921384811401367,8.23974609375,-1.7718505859375,0.6834716796875,0.2359619140625
1.243,308,310,1147,308,-7.0,37.0,45.0,10.192870140075684,36.4990234375,16.78466796875,-1.537109375,0.48779296875,0.175048828125
1.253,309,310,1035,309,-7.0,37.0,45.0,-3.112792730331421,46.447750091552734,20.385740280151367,-1.2967529296875,0.3482666015625,0.0045166015625
1.259,309,310,891,309,-7.0,37.0,45.0,-3.112792730331421,46.447750091552734,20.385740280151367,-1.1190185546875,0.2664794921875,-0.1192626953125
1.280,308,310,688,309,-7.0,37.0,45.0,-28.503416061401367,66.83349609375,35.15625,-0.9183349609375,0.1756591796875,-0.1409912109375
1.281,308,310,580,294,-7.0,37.0,45.0,-30.944822311401367,64.208984375,38.39111328125,-0.6588134765625,0.0738525390625,-0.1187744140625
1.289,309,309,552,310,-7.0,37.0,45.0,-30.944822311401367,64.208984375,38.39111328125,-0.4317626953125,-0.030517578125,-0.116943359375
1.303,307,309,488,308,-7.0,37.0,45.0,-10.131834983825684,44.677730560302734,1.0986328125,-0.29638671875,-0.1163330078125,-0.1663818359375
1.321,310,527,472,310,-10.0,40.0,46.0,10.192870140075684,39.48974609375,-24.353025436401367,-0.32275390625,-0.065185546875,-0.2335205078125
1.321,310,497,447,309,-10.0,40.0,46.0,27.648923873901367,35.82763671875,-36.62109375,-0.4832763671875,0.14111328125,-0.2420654296875
1.335,308,465,437,310,-10.0,40.0,46.0,32.71484375,30.273435592651367,-37.41455078125,-0.588623046875,0.3162841796875,-0.1951904296875
1.346,310,450,439,310,-10.0,40.0,46.0,26.794431686401367,26.184080123901367,-30.822751998901367,-0.5906982421875,0.4339599609375,-0.176513671875
1.349,310,437,438,310,-10.0,40.0,46.0,13.671874046325684,24.536130905151367,-19.1650390625,-0.5950927734375,0.570068359375,-0.1748046875
1.365,310,430,438,310,-10.0,40.0,46.0,-5.615233898162842,20.812986373901367,-9.58251953125,-0.635498046875,0.6380615234375,-0.099609375
1.371,310,434,441,310,-10.0,40.0,46.0,-25.207517623901367,13.671874046325684,-8.4228515625,-0.663818359375,0.5640869140625,0.048828125
1.382,310,435,447,310,-10.0,40.0,46.0,-33.69140625,7.690429210662842,-15.075682640075684,-0.703125,0.38525390625,0.1656494140625
1.393,308,447,447,308,-10.0,40.0,46.0,-24.841306686401367,7.263183116912842,-22.827146530151367,-0.809814453125,0.24072265625,0.1251220703125
1.401,310,447,447,310,-10.0,40.0,46.0,-7.934569835662842,12.878417015075684,-24.658201217651367,-0.944091796875,0.22705078125,-0.051025390625
1.409,310,449,451,310,-10.0,40.0,46.0,1.0986328125,18.49365234375,-20.874021530151367,-1.0372314453125,0.24560546875,-0.1904296875
1.430,308,441,452,309,-10.0,38.0,43.0,-1.3427733182907104,18.9208984375,-15.747069358825684,-1.0740966796875,0.2032470703125,-0.21630859375
1.440,309,440,454,310,-10.0,38.0,43.0,-6.103515148162842,15.930174827575684,-9.521484375,-1.06396484375,0.14111328125,-0.186767578125
1.448,309,439,452,308,-10.0,38.0,43.0,-6.225585460662842,13.366698265075684,-1.8310545682907104,-1.0311279296875,0.1070556640625,-0.155029296875
1.453,310,437,452,308,-10.0,38.0,43.0,-3.112792730331421,12.084959983825684,5.249022960662842,-1.0032958984375,0.11474609375,-0.1302490234375
1.461,310,433,452,310,-10.0,38.0,43.0,-0.0610351525247097,11.352538108825684,10.131834983825684,-0.988525390625,0.1590576171875,-0.1104736328125
1.469,312,410,437,307,-10.0,38.0,43.0,1.03759765625,10.864256858825684,12.756346702575684,-0.9798583984375,0.2147216796875,-0.0975341796875
1.485,309,415,444,310,-10.0,38.0,43.0,-0.2441406100988388,10.803221702575684,13.977049827575684,-0.968017578125,0.2623291015625,-0.0972900390625
1.491,310,407,439,308,-10.0,38.0,43.0,-2.929687261581421,11.291502952575684,14.526366233825684,-0.9541015625,0.2972412109375,-0.1131591796875
1.499,310,401,437,310,-10.0,38.0,43.0,-6.225585460662842,11.901854515075684,14.282225608825684,-0.94580078125,0.3199462890625,-0.1361083984375
1.545,308,393,432,310,-13.0,40.0,38.0,-9.09423828125,11.657713890075684,12.756346702575684,-0.947265625,0.3299560546875,-0.1558837890625
1.545,309,384,423,310,-13.0,40.0,38.0,-10.131834983825684,10.253905296325684,10.314940452575684,-0.955322265625,0.3304443359375,-0.1702880859375
1.548,310,381,418,310,-13.0,40.0,38.0,-8.60595703125,7.873534679412842,7.568358898162842,-0.9576416015625,0.3271484375,-0.178466796875
1.548,308,378,411,308,-13.0,40.0,38.0,-6.347655773162842,5.371093273162842,5.065917491912842,-0.951416015625,0.3232421875,-0.17919921875
1.551,308,373,407,309,-13.0,40.0,38.0,-5.249022960662842,3.173827886581421,3.234863042831421,-0.9454345703125,0.32421875,-0.1697998046875
1.559,309,372,399,309,-13.0,40.0,38.0,-5.737304210662842,1.5869139432907104,2.13623046875,-0.938232421875,0.3284912109375,-0.1566162109375
1.573,310,371,386,308,-13.0,40.0,38.0,-6.713866710662842,0.6713866591453552,1.4648436307907104,-0.926513671875,0.3258056640625,-0.1519775390625
1.593,309,367,387,309,-13.0,40.0,38.0,-7.934569835662842,-0.1220703050494194,1.15966796875,-0.9156494140625,0.3115234375,-0.155517578125
1.594,310,364,386,308,-13.0,40.0,38.0,-9.1552734375,-1.2817381620407104,1.3427733182907104,-0.909423828125,0.2908935546875,-0.158203125
1.603,307,364,384,309,-13.0,40.0,38.0,-10.314940452575684,-3.112792730331421,1.9531248807907104,-0.9063720703125,0.2705078125,-0.1552734375
1.611,309,364,385,310,-9.0,39.0,42.0,-10.925292015075684,-5.249022960662842,3.112792730331421,-0.9046630859375,0.25244140625,-0.145751953125
1.622,309,367,385,309,-9.0,39.0,42.0,-11.169432640075684,-7.202147960662842,4.8828125,-0.9029541015625,0.23583984375,-0.1312255859375
1.652,309,308,391,308,-9.0,39.0,42.0,-10.986327171325684,-8.544921875,7.507323741912842,-0.885986328125,0.193603515625,-0.09423828125
1.653,309,308,394,295,-9.0,39.0,42.0,-10.559081077575684,-9.27734375,11.352538108825684,-0.885986328125,0.193603515625,-0.09423828125
1.653,309,310,394,308,-9.0,39.0,42.0,-9.94873046875,-9.46044921875,16.6015625,-0.86181640625,0.156005859375,-0.080810546875
1.664,310,407,407,311,-9.0,39.0,42.0,-9.033203125,-9.6435546875,23.559568405151367,-0.72021484375,0.0523681640625,-0.10302734375
1.671,309,438,415,309,-9.0,39.0,42.0,-7.019042491912842,-10.742186546325684,32.28759765625,-0.72021484375,0.0523681640625,-0.10302734375
1.679,310,466,441,309,-9.0,39.0,42.0,-2.0751953125,-14.953612327575684,42.053218841552734,-0.5791015625,-0.018310546875,-0.138671875
1.693,310,537,634,309,-9.0,39.0,42.0,7.873534679412842,-24.047849655151367,51.452632904052734,-0.3404541015625,0.0860595703125,-0.2796630859375
1.703,310,577,846,310,-9.0,39.0,42.0,24.169919967651367,-38.330078125,57.922359466552734,-0.3404541015625,0.0860595703125,-0.2796630859375
1.709,310,601,1043,310,-13.0,40.0,46.0,46.081539154052734,-55.969234466552734,55.969234466552734,-0.1053466796875,0.2994384765625,-0.2501220703125
1.725,310,691,1236,310,-13.0,40.0,46.0,69.2138671875,-71.59423828125,41.870113372802734,0.4964599609375,0.64990234375,-0.1976318359375
1.731,309,745,1281,312,-13.0,40.0,46.0,78.91845703125,-80.81053924560547,23.498533248901367,0.4964599609375,0.64990234375,-0.1976318359375
1.739,310,809,1338,310,-13.0,40.0,46.0,62.133785247802734,-86.12059783935547,1.15966796875,0.19482421875,0.9644775390625,-0.04248046875
1.755,308,310,1483,311,-13.0,40.0,46.0,40.771480560302734,-86.85301971435547,-32.28759765625,-1.422119140625,1.0709228515625,0.4530029296875
1.761,308,308,1543,311,-13.0,40.0,46.0,43.701168060302734,-76.35498046875,-63.659664154052734,-1.422119140625,1.0709228515625,0.4530029296875
1.769,308,309,1566,310,-13.0,40.0,46.0,56.945796966552734,-60.424800872802734,-80.26123046875,-2.1282958984375,1.2001953125,0.4622802734375
1.783,308,310,1484,310,-13.0,40.0,46.0,34.7900390625,-58.044429779052734,-100.46385955810547,-2.792236328125,0.3521728515625,0.5174560546875
1.792,308,308,1432,309,-13.0,40.0,46.0,34.7900390625,-58.044429779052734,-100.46385955810547,-2.4154052734375,-0.551513671875,-0.1221923828125
1.799,309,308,1419,308,-13.0,40.0,46.0,6.774901866912842,-42.480464935302734,-81.17675018310547,-2.4154052734375,-0.551513671875,-0.1221923828125
1.816,308,310,1437,309,-10.0,37.0,45.0,-48.522945404052734,60.913082122802734,-29.418943405151367,-1.248779296875,-1.125732421875,-0.7874755859375
1.827,310,308,1457,310,-10.0,37.0,45.0,-48.522945404052734,60.913082122802734,-29.418943405151367,-1.3538818359375,-0.070556640625,0.0133056640625
1.829,309,309,1455,309,-10.0,37.0,45.0,-32.3486328125,65.185546875,2.13623046875,-1.3538818359375,-0.070556640625,0.0133056640625
1.860,310,310,1374,310,-10.0,37.0,45.0,74.462890625,14.587401390075684,49.194332122802734,-1.790771484375,1.427001953125,0.5281982421875
1.860,310,310,1273,310,-10.0,37.0,45.0,74.462890625,14.587401390075684,49.194332122802734,-1.5550537109375,1.0513916015625,0.1031494140625
1.862,308,308,1160,308,-10.0,37.0,45.0,69.82421875,19.287109375,41.687007904052734,-1.5550537109375,1.0513916015625,0.1031494140625
1.873,308,309,939,308,-10.0,37.0,45.0,-15.747069358825684,52.062984466552734,15.563963890075684,-1.1546630859375,0.1427001953125,-0.457275390625
1.881,308,309,810,309,-10.0,37.0,45.0,-15.747069358825684,52.062984466552734,15.563963890075684,-0.932373046875,0.154296875,-0.2845458984375
1.893,308,310,721,310,-10.0,37.0,45.0,-34.3017578125,49.194332122802734,15.686034202575684,-0.932373046875,0.154296875,-0.2845458984375
1.903,308,310,588,310,-10.0,37.0,45.0,-20.01953125,27.587888717651367,-2.624511480331421,-0.4364013671875,-0.121337890625,-0.011474609375
1.911,309,308,513,308,-10.0,39.0,45.0,-20.01953125,27.587888717651367,-2.624511480331421,-0.193115234375,-0.2218017578125,-0.148193359375
1.919,308,308,488,310,-10.0,39.0,45.0,-0.9155272841453552,27.526853561401367,-22.033689498901367,-0.152587890625,-0.0855712890625,-0.28076171875
1.935,310,519,456,310,-10.0,39.0,45.0,4.150390625,32.89794921875,-37.65869140625,-0.3157958984375,0.1368408203125,-0.24072265625
1.945,309,503,467,310,-10.0,39.0,45.0,-11.657713890075684,23.925779342651367,-31.311033248901367,-0.4757080078125,0.281494140625,-0.1417236328125
1.957,310,496,466,310,-10.0,39.0,45.0,-11.657713890075684,23.925779342651367,-31.311033248901367,-0.569091796875,0.3818359375,-0.124755859375
1.967,310,479,473,310,-10.0,39.0,45.0,-37.17041015625,13.916014671325684,-9.765625,-0.69287109375,0.5048828125,-0.11865234375
1.971,311,475,482,310,-10.0,39.0,45.0,-48.950191497802734,11.291502952575684,-1.220703125,-0.7965087890625,0.5567626953125,0.001953125
1.979,309,479,493,309,-10.0,39.0,45.0,-48.950191497802734,11.291502952575684,-1.220703125,-0.798583984375,0.453125,0.1531982421875
1.995,308,480,504,310,-10.0,39.0,45.0,-31.677244186401367,5.615233898162842,-3.356933355331421,-0.7894287109375,0.307861328125,0.1591796875
2.001,309,481,512,310,-10.0,39.0,45.0,-9.33837890625,8.544921875,-6.835937023162842,-0.8526611328125,0.2542724609375,0.00244140625
2.009,310,481,519,309,-11.0,41.0,45.0,-9.33837890625,8.544921875,-6.835937023162842,-0.94970703125,0.2740478515625,-0.184326171875
2.023,310,481,530,310,-11.0,41.0,45.0,2.01416015625,14.160155296325684,-5.981444835662842,-1.025146484375,0.2764892578125,-0.2757568359375
2.034,310,477,531,310,-11.0,41.0,45.0,-4.33349609375,11.352538108825684,-4.45556640625,-1.0606689453125,0.2471923828125,-0.26318359375
2.065,310,475,531,311,-11.0,41.0,45.0,-4.33349609375,11.352538108825684,-4.45556640625,-1.0579833984375,0.225830078125,-0.208740234375
2.065,294,310,532,309,-11.0,41.0,45.0,-8.23974609375,3.723144292831421,0.30517578125,-1.0255126953125,0.213134765625,-0.1514892578125
2.065,310,307,531,308,-11.0,41.0,45.0,-6.652831554412842,1.4648436307907104,1.5258787870407104,-0.98974609375,0.20361328125,-0.1046142578125
2.069,310,310,523,310,-11.0,41.0,45.0,-5.554198741912842,0.3662109076976776,1.9531248807907104,-0.97265625,0.2060546875,-0.0787353515625
2.099,308,311,504,309,-11.0,41.0,45.0,-5.249022960662842,0.6713866591453552,2.38037109375,-0.97119140625,0.2247314453125,-0.079833984375
2.181,309,310,493,310,-11.0,41.0,45.0,-5.493163585662842,2.13623046875,3.356933355331421,-0.97314453125,0.2525634765625,-0.09912109375
2.183,308,308,481,310,-11.0,41.0,45.0,-6.164550304412842,3.540038824081421,4.21142578125,-0.97265625,0.2745361328125,-0.115478515625
2.183,308,420,449,308,-9.0,38.0,48.0,-7.080077648162842,3.723144292831421,4.45556640625,-0.9693603515625,0.29052734375,-0.1185302734375
2.184,310,414,435,308,-9.0,38.0,48.0,-7.873534679412842,2.685546636581421,4.0283203125,-0.9656982421875,0.302734375,-0.1177978515625
2.185,310,408,433,310,-9.0,38.0,48.0,-8.11767578125,1.4648436307907104,2.929687261581421,-0.9625244140625,0.3060302734375,-0.1241455078125
2.186,309,401,415,310,-9.0,38.0,48.0,-8.60595703125,0.7324218153953552,1.3427733182907104,-0.9603271484375,0.2982177734375,-0.1361083984375
2.186,309,387,406,309,-9.0,38.0,48.0,-9.94873046875,0.3662109076976776,-0.2441406100988388,-0.9586181640625,0.2822265625,-0.14404296875
2.187,309,383,395,310,-9.0,38.0,48.0,-11.718749046325684,-0.30517578125,-1.2817381620407104,-0.951904296875,0.2666015625,-0.1429443359375
2.187,309,373,393,310,-9.0,38.0,48.0,-12.878417015075684,-1.4648436307907104,-1.2817381620407104,-0.93896484375,0.258056640625,-0.1383056640625
2.188,309,353,394,296,-9.0,38.0,48.0,-12.878417015075684,-2.929687261581421,-0.2441406100988388,-0.9298095703125,0.2562255859375,-0.13623046875
2.189,308,354,394,310,-9.0,38.0,48.0,-11.779784202575684,-4.69970703125,1.3427733182907104,-0.9300537109375,0.259033203125,-0.1368408203125
2.201,310,360,393,310,-9.0,38.0,48.0,-10.192870140075684,-6.408690929412842,3.112792730331421,-0.931884765625,0.2623291015625,-0.13818359375
2.212,308,360,396,310,-12.0,37.0,40.0,-8.97216796875,-7.812499523162842,4.94384765625,-0.9287109375,0.2574462890625,-0.137939453125
2.220,308,357,396,310,-12.0,37.0,40.0,-9.1552734375,-8.97216796875,7.019042491912842,-0.9276123046875,0.242431640625,-0.13525390625
2.228,310,357,394,309,-12.0,37.0,40.0,-10.437010765075684,-10.070799827575684,9.58251953125,-0.9373779296875,0.2259521484375,-0.1319580078125
2.274,310,352,399,310,-12.0,37.0,40.0,-11.901854515075684,-11.230467796325684,12.695311546325684,-0.9510498046875,0.2117919921875,-0.1314697265625
2.275,310,353,384,308,-12.0,37.0,40.0,-12.817381858825684,-12.573241233825684,16.54052734375,-0.9521484375,0.1983642578125,-0.136474609375
2.275,308,309,402,309,-12.0,37.0,40.0,-12.878417015075684,-14.221190452575684,21.179197311401367,-0.925048828125,0.1849365234375,-0.1431884765625
2.276,308,308,420,308,-12.0,37.0,40.0,-12.084959983825684,-16.54052734375,26.672361373901367,-0.8651123046875,0.163818359375,-0.1429443359375
2.280,308,308,439,309,-12.0,37.0,40.0,-10.009765625,-19.71435546875,33.02001953125,-0.7813720703125,0.1275634765625,-0.1302490234375
2.288,309,310,452,308,-12.0,37.0,40.0,-6.286620616912842,-23.864744186401367,41.320796966552734,-0.69970703125,0.0723876953125,-0.1143798828125
2.304,308,307,548,308,-12.0,37.0,40.0,-0.3662109076976776,-29.357908248901367,52.124019622802734,-0.6053466796875,-0.002685546875,-0.1365966796875
2.319,310,308,606,308,-9.0,38.0,45.0,6.469726085662842,-36.31591796875,63.110347747802734,-0.452392578125,-0.074951171875,-0.1962890625
2.319,307,296,739,308,-9.0,38.0,45.0,11.352538108825684,-43.640132904052734,70.73974609375,-0.226318359375,-0.0323486328125,-0.154052734375
2.364,308,310,928,309,-9.0,38.0,45.0,12.023924827575684,-48.889156341552734,72.998046875,0.0489501953125,0.2686767578125,0.0367431640625
2.367,309,308,1022,310,-9.0,38.0,45.0,9.3994140625,-46.203609466552734,65.91796875,0.2471923828125,0.6873779296875,0.1431884765625
2.367,310,310,1109,310,-9.0,38.0,45.0,11.962889671325684,-31.738279342651367,44.006343841552734,0.2935791015625,0.952880859375,0.0755615234375
2.369,308,308,1265,309,-9.0,38.0,45.0,15.808104515075684,-13.000487327575684,5.920409679412842,0.06494140625,1.0386962890625,0.015869140625
2.370,308,310,1369,310,-9.0,38.0,45.0,3.784179449081421,-1.8310545682907104,-40.527339935302734,-0.614501953125,1.01513671875,0.0892333984375
2.385,310,309,1458,310,-9.0,38.0,45.0,-11.901854515075684,-6.164550304412842,-76.72119140625,-1.44091796875,0.9434814453125,0.2496337890625
2.392,310,310,1541,310,-9.0,38.0,45.0,-7.812499523162842,-25.939939498901367,-88.98925018310547,-1.95458984375,0.872314453125,0.428466796875
2.401,309,310,1569,310,-9.0,38.0,45.0,9.33837890625,-50.354000091552734,-85.02196502685547,-2.106689453125,0.6748046875,0.6287841796875
2.408,308,308,1557,311,-7.0,37.0,45.0,23.193357467651367,-62.011714935302734,-77.0263671875,-2.2109375,0.2581787109375,0.5714111328125
2.422,308,308,1484,309,-7.0,37.0,45.0,21.606443405151367,-45.471187591552734,-58.105464935302734,-2.37060546875,-0.1893310546875,0.0107421875
2.431,309,309,1460,309,-7.0,37.0,45.0,3.295898199081421,-4.45556640625,-25.451658248901367,-2.0836181640625,-0.6558837890625,-0.6527099609375
2.442,308,308,1430,308,-7.0,37.0,45.0,-9.27734375,39.6728515625,-0.1220703050494194,-1.46875,-0.8768310546875,-0.8040771484375
2.469,309,309,1443,310,-7.0,37.0,45.0,-1.220703125,61.096187591552734,13.366698265075684,-1.1441650390625,-0.3994140625,-0.3817138671875
2.470,308,309,1443,289,-7.0,37.0,45.0,23.559568405151367,53.466793060302734,23.681638717651367,-1.26025390625,0.4852294921875,0.109375
2.470,310,296,1381,310,-7.0,37.0,45.0,51.391597747802734,34.7900390625,29.296873092651367,-1.5882568359375,1.177734375,0.2847900390625
2.494,308,310,1299,310,-7.0,37.0,45.0,59.509273529052734,21.118162155151367,29.724119186401367,-1.482666015625,0.899169921875,-0.149169921875
2.497,308,310,1191,310,-7.0,37.0,45.0,38.9404296875,19.775390625,23.193357467651367,-1.482666015625,0.899169921875,-0.149169921875
2.498,308,309,1082,309,-7.0,37.0,45.0,4.94384765625,29.052732467651367,12.451170921325684,-1.238037109375,0.439208984375,-0.325439453125
2.513,308,310,869,307,-12.0,39.0,48.0,-22.277830123901367,39.73388671875,5.493163585662842,-0.9583740234375,0.283447265625,-0.1961669921875
2.520,310,308,784,309,-12.0,39.0,48.0,-34.3017578125,43.334957122802734,3.906249761581421,-0.9583740234375,0.283447265625,-0.1961669921875
2.528,308,308,714,310,-12.0,39.0,48.0,-30.639646530151367,37.41455078125,0.2441406100988388,-0.79296875,0.2611083984375,-0.0533447265625
2.543,308,310,631,310,-12.0,39.0,48.0,-17.15087890625,27.465818405151367,-12.634276390075684,-0.423583984375,-0.1192626953125,-0.1268310546875
2.568,309,309,607,309,-12.0,39.0,48.0,-4.33349609375,22.644041061401367,-31.127927780151367,-0.423583984375,-0.1192626953125,-0.1268310546875
2.569,308,308,592,308,-12.0,39.0,48.0,-4.2724609375,23.864744186401367,-42.480464935302734,-0.294677734375,-0.1556396484375,-0.234619140625
2.574,309,309,585,310,-12.0,39.0,48.0,-18.85986328125,23.437498092651367,-39.1845703125,-0.4903564453125,0.0338134765625,-0.03759765625
2.582,309,310,587,310,-12.0,39.0,48.0,-29.846189498901367,18.798828125,-25.695798873901367,-0.6424560546875,0.14404296875,0.0274658203125
2.591,308,309,596,309,-12.0,39.0,48.0,-19.53125,14.404295921325684,-11.779784202575684,-0.6424560546875,0.14404296875,0.0274658203125
2.611,310,310,618,309,-10.0,38.0,40.0,20.690916061401367,10.437010765075684,3.601073980331421,-0.7601318359375,0.5030517578125,-0.0565185546875
2.611,309,310,629,310,-10.0,38.0,40.0,20.690916061401367,10.437010765075684,3.601073980331421,-0.762451171875,0.60205078125,-0.0584716796875
2.621,296,308,636,308,-10.0,38.0,40.0,17.08984375,7.446288585662842,6.774901866912842,-0.762451171875,0.60205078125,-0.0584716796875
2.633,310,310,646,310,-10.0,38.0,40.0,-8.4228515625,6.774901866912842,-1.0986328125,-0.8321533203125,0.4312744140625,-0.0234375
2.646,308,308,654,310,-10.0,38.0,40.0,-8.4228515625,6.774901866912842,-1.0986328125,-0.904296875,0.339111328125,-0.09228515625
2.649,308,310,658,310,-10.0,38.0,40.0,-9.27734375,10.986327171325684,-4.69970703125,-0.904296875,0.339111328125,-0.09228515625
2.669,308,308,662,310,-10.0,38.0,40.0,-9.033203125,15.380858421325684,-2.746581792831421,-1.00048828125,0.220458984375,-0.171142578125
2.675,310,308,664,310,-10.0,38.0,40.0,-9.033203125,15.380858421325684,-2.746581792831421,-1.023681640625,0.1796875,-0.147216796875
2.679,310,307,665,308,-10.0,38.0,40.0,-10.620116233825684,12.756346702575684,-0.54931640625,-1.0218505859375,0.1827392578125,-0.1185302734375
2.698,309,310,662,310,-10.0,38.0,40.0,-2.563476324081421,7.690429210662842,4.0283203125,-0.99755859375,0.2156982421875,-0.1024169921875
2.701,310,308,657,309,-9.0,40.0,40.0,1.8310545682907104,6.835937023162842,6.103515148162842,-0.9754638671875,0.2568359375,-0.105224609375
2.719,310,310,653,308,-9.0,40.0,40.0,1.8310545682907104,6.835937023162842,6.103515148162842,-0.962646484375,0.2890625,-0.1162109375
2.723,310,310,631,310,-9.0,40.0,40.0,1.9531248807907104,6.713866710662842,9.09423828125,-0.9566650390625,0.305419921875,-0.1300048828125
2.732,309,310,606,310,-9.0,40.0,40.0,1.4648436307907104,6.164550304412842,9.27734375,-0.9541015625,0.31298828125,-0.1505126953125
2.740,309,310,590,309,-9.0,40.0,40.0,1.4648436307907104,6.164550304412842,9.27734375,-0.94921875,0.3172607421875,-0.174072265625
2.753,310,310,558,309,-9.0,40.0,40.0,0.9155272841453552,3.295898199081421,7.263183116912842,-0.9405517578125,0.32373046875,-0.1898193359375
2.771,308,310,551,308,-9.0,40.0,40.0,0.6103515625,0.4272460639476776,5.371093273162842,-0.9296875,0.32666015625,-0.1937255859375
2.772,308,308,545,308,-9.0,40.0,40.0,0.6103515625,0.4272460639476776,5.371093273162842,-0.9189453125,0.3184814453125,-0.1920166015625
2.784,310,308,537,309,-9.0,40.0,40.0,-0.1831054538488388,-6.103515148162842,2.50244140625,-0.9190673828125,0.3067626953125,-0.1907958984375
2.791,309,308,540,308,-9.0,40.0,40.0,-0.7934569716453552,-8.9111328125,2.01416015625,-0.9300537109375,0.3001708984375,-0.18359375
2.805,308,310,547,309,-12.0,39.0,48.0,-0.7934569716453552,-8.9111328125,2.01416015625,-0.94189453125,0.298828125,-0.1651611328125
2.816,310,310,557,310,-12.0,39.0,48.0,-1.7700194120407104,-15.136717796325684,2.44140625,-0.95654296875,0.298095703125,-0.144287109375
2.821,308,308,572,310,-12.0,39.0,48.0,-1.15966796875,-18.49365234375,2.624511480331421,-0.9757080078125,0.2919921875,-0.1336669921875
2.830,308,309,585,309,-12.0,39.0,48.0,0.3662109076976776,-21.362302780151367,2.868652105331421,-0.9910888671875,0.2779541015625,-0.1376953125
2.843,308,310,616,309,-12.0,39.0,48.0,1.4038084745407104,-23.010251998901367,3.906249761581421,-0.9993896484375,0.2532958984375,-0.14794921875
2.851,310,308,632,310,-12.0,39.0,48.0,0.0,-23.254392623901367,6.164550304412842,-0.99951171875,0.2052001953125,-0.1480712890625
2.874,308,310,648,309,-12.0,39.0,48.0,-3.601073980331421,-22.705076217651367,10.620116233825684,-0.9805908203125,0.1395263671875,-0.1368408203125
2.874,309,309,740,309,-12.0,39.0,48.0,-7.202147960662842,-22.644041061401367,18.06640625,-0.9361572265625,0.0863037109375,-0.1253662109375
2.881,308,308,823,309,-12.0,39.0,48.0,-8.97216796875,-24.841306686401367,28.564451217651367,-0.87109375,0.0546875,-0.122314453125
2.889,309,310,912,308,-12.0,39.0,48.0,-6.896972179412842,-30.761716842651367,41.625972747802734,-0.72607421875,0.0081787109375,-0.124755859375
2.903,308,310,1131,312,-10.0,38.0,45.0,3.051757574081421,-41.259761810302734,55.358882904052734,-0.403564453125,-0.085693359375,-0.1142578125
2.911,309,308,1219,309,-10.0,38.0,45.0,18.6767578125,-54.992671966552734,65.61279296875,-0.00048828125,-0.1695556640625,-0.0888671875
2.919,308,309,1266,310,-10.0,38.0,45.0,33.8134765625,-67.9931640625,68.90869140625,0.2811279296875,-0.021240234375,-0.07763671875
2.933,308,311,1316,309,-10.0,38.0,45.0,53.161617279052734,-75.5615234375,66.162109375,0.4251708984375,0.4615478515625,-0.0390625
2.942,308,309,1357,310,-10.0,38.0,45.0,76.47705078125,-74.40185546875,54.504390716552734,0.467529296875,0.98486328125,0.12060546875
2.954,307,310,1392,310,-10.0,38.0,45.0,79.16259765625,-62.438961029052734,23.376462936401367,0.2608642578125,1.1556396484375,0.3636474609375
2.978,309,309,1460,308,-10.0,38.0,45.0,51.208492279052734,-44.006343841552734,-23.864744186401367,-0.337890625,0.955322265625,0.5345458984375
2.978,308,308,1502,310,-10.0,38.0,45.0,28.137205123901367,-31.494138717651367,-60.302730560302734,-1.072021484375,0.809326171875,0.5189208984375
2.981,293,310,1598,310,-10.0,38.0,45.0,32.8369140625,-31.066892623901367,-69.39697265625,-1.605224609375,0.8828125,0.390380859375
2.993,309,310,1665,310,-10.0,38.0,45.0,46.936031341552734,-35.5224609375,-69.7021484375,-2.0599365234375,0.6839599609375,0.2877197265625
3.001,310,309,1683,310,-12.0,36.0,45.0,66.46728515625,-33.0810546875,-78.79638671875,-2.506591796875,0.12109375,-0.001953125
3.009,310,309,1653,310,-12.0,36.0,45.0,82.21434783935547,-14.099120140075684,-71.2890625,-2.7884521484375,-0.146728515625,-0.5526123046875
3.024,308,309,1596,310,-12.0,36.0,45.0,52.307125091552734,15.563963890075684,-28.869626998901367,-2.574951171875,-0.1544189453125,-0.8270263671875
3.031,308,310,1588,309,-12.0,36.0,45.0,-13.916014671325684,38.63525390625,13.244627952575684,-1.7532958984375,-0.2286376953125,-0.5380859375
3.039,308,310,1598,310,-12.0,36.0,45.0,-52.001949310302734,44.982906341552734,25.085447311401367,-1.0377197265625,0.0443115234375,-0.0181884765625
3.078,308,310,1580,310,-12.0,36.0,45.0,-33.203125,37.353515625,15.502928733825684,-0.9945068359375,0.7432861328125,0.2674560546875
3.079,309,308,1541,310,-12.0,36.0,45.0,11.474608421325684,28.015134811401367,0.6103515625,-1.39404296875,1.249755859375,0.193115234375
3.079,309,310,1484,310,-12.0,36.0,45.0,35.70556640625,22.460935592651367,-12.512206077575684,-1.69873046875,1.1365966796875,-0.04248046875
3.085,308,310,1342,310,-12.0,36.0,45.0,28.991697311401367,21.179197311401367,-22.583005905151367,-1.6744384765625,0.6934814453125,-0.280517578125
3.091,309,310,1251,309,-12.0,36.0,45.0,9.82666015625,24.108884811401367,-28.198240280151367,-1.49462890625,0.4112548828125,-0.42138671875
3.099,308,310,1162,309,-11.0,39.0,43.0,-9.27734375,27.404783248901367,-29.296873092651367,-1.3499755859375,0.3731689453125,-0.3795166015625
3.113,308,310,992,310,-11.0,39.0,43.0,-23.376462936401367,26.550291061401367,-28.747556686401367,-1.256103515625,0.41357421875,-0.207763671875
3.131,308,310,878,310,-11.0,39.0,43.0,-27.648923873901367,21.850584030151367,-29.174802780151367,-1.1173095703125,0.3846435546875,-0.052978515625
3.132,310,309,772,308,-11.0,39.0,43.0,-24.414060592651367,17.27294921875,-32.1044921875,-0.875732421875,0.2364501953125,0.03564453125
3.143,308,310,629,309,-11.0,39.0,43.0,-20.690916061401367,14.953612327575684,-38.63525390625,-0.340087890625,-0.304443359375,0.0693359375
3.158,308,309,548,309,-11.0,39.0,43.0,-19.4091796875,16.05224609375,-48.034664154052734,-0.340087890625,-0.304443359375,0.0693359375
3.159,310,310,518,308,-11.0,39.0,43.0,-16.78466796875,22.155759811401367,-55.297847747802734,-0.1904296875,-0.444580078125,-0.0152587890625
3.184,308,310,483,310,-11.0,39.0,43.0,-10.803221702575684,28.808591842651367,-55.175777435302734,-0.447509765625,-0.0958251953125,-0.055908203125
3.187,308,308,465,295,-11.0,39.0,43.0,-5.981444835662842,27.709959030151367,-47.485347747802734,-0.447509765625,-0.0958251953125,-0.055908203125
3.189,309,308,485,309,-11.0,39.0,43.0,0.1220703050494194,20.690916061401367,-36.56005859375,-0.62255859375,0.1138916015625,-0.035888671875
3.203,310,432,482,309,-11.0,36.0,47.0,9.58251953125,16.29638671875,-23.925779342651367,-0.6029052734375,0.5584716796875,-0.18115234375
3.211,309,428,493,310,-11.0,36.0,47.0,9.21630859375,14.953612327575684,-9.46044921875,-0.6029052734375,0.5584716796875,-0.18115234375
3.221,309,431,495,310,-11.0,36.0,47.0,-10.864256858825684,11.108397483825684,0.6713866591453552,-0.6119384765625,0.639892578125,-0.1046142578125
3.233,308,449,504,308,-11.0,36.0,47.0,-35.7666015625,5.371093273162842,0.8544921278953552,-0.7349853515625,0.2294921875,0.1583251953125
3.241,309,339,512,310,-11.0,36.0,47.0,-39.85595703125,2.990722417831421,-5.065917491912842,-0.7349853515625,0.2294921875,0.1583251953125
3.249,308,310,518,309,-11.0,36.0,47.0,-21.362302780151367,5.981444835662842,-8.30078125,-0.8668212890625,0.146240234375,0.0343017578125
3.263,310,309,531,308,-11.0,36.0,47.0,-1.5258787870407104,10.253905296325684,-6.103515148162842,-1.03857421875,0.1923828125,-0.225830078125
3.281,310,310,543,308,-11.0,36.0,47.0,4.82177734375,10.192870140075684,-2.0751953125,-1.03857421875,0.1923828125,-0.225830078125
3.289,308,310,548,308,-11.0,36.0,47.0,1.8310545682907104,5.920409679412842,2.197265625,-1.0628662109375,0.1839599609375,-0.2174072265625
3.293,308,308,552,310,-11.0,36.0,47.0,-0.1220703050494194,-1.2817381620407104,7.934569835662842,-1.026611328125,0.197021484375,-0.1455078125
3.301,310,310,558,310,-9.0,37.0,40.0,-0.1220703050494194,-1.2817381620407104,7.934569835662842,-1.0096435546875,0.221923828125,-0.1204833984375
3.309,310,309,558,308,-9.0,37.0,40.0,0.6103515625,-3.051757574081421,7.568358898162842,-1.0096435546875,0.221923828125,-0.1204833984375
3.327,308,310,556,309,-9.0,37.0,40.0,-2.3193359375,-2.929687261581421,5.126952648162842,-0.9764404296875,0.25537109375,-0.096923828125
3.337,308,308,549,308,-9.0,37.0,40.0,-2.3193359375,-2.929687261581421,5.126952648162842,-0.9600830078125,0.2396240234375,-0.1075439453125
3.339,309,310,542,310,-9.0,37.0,40.0,-5.615233898162842,-1.7700194120407104,4.57763671875,-0.9600830078125,0.2396240234375,-0.1075439453125
3.353,308,310,525,310,-9.0,37.0,40.0,-8.9111328125,-1.9531248807907104,6.958007335662842,-0.95849609375,0.20947265625,-0.1376953125
3.363,309,310,513,308,-9.0,37.0,40.0,-8.9111328125,-1.9531248807907104,6.958007335662842,-0.95166015625,0.20849609375,-0.142333984375
3.386,308,308,507,309,-9.0,37.0,40.0,-8.72802734375,-4.0283203125,9.1552734375,-0.95166015625,0.20849609375,-0.142333984375
3.394,308,310,506,308,-9.0,37.0,40.0,-7.812499523162842,-10.375975608825684,12.207030296325684,-0.9366455078125,0.2408447265625,-0.1280517578125
3.394,309,309,507,308,-9.0,37.0,40.0,-7.812499523162842,-10.375975608825684,12.207030296325684,-0.9349365234375,0.2635498046875,-0.1182861328125
3.399,310,309,512,309,-10.0,38.0,45.0,-6.896972179412842,-13.122557640075684,12.634276390075684,-0.9349365234375,0.2635498046875,-0.1182861328125
3.413,309,310,519,308,-10.0,38.0,45.0,-5.798339366912842,-16.05224609375,12.878417015075684,-0.930419921875,0.26708984375,-0.1016845703125
3.421,309,310,527,310,-10.0,38.0,45.0,-5.798339366912842,-16.05224609375,12.878417015075684,-0.91748046875,0.2593994140625,-0.0906982421875
3.432,308,310,533,309,-10.0,38.0,45.0,-6.408690929412842,-16.845703125,13.671874046325684,-0.91748046875,0.2593994140625,-0.0906982421875
3.444,308,309,548,306,-10.0,38.0,45.0,-9.521484375,-17.7001953125,16.357421875,-0.9166259765625,0.2369384765625,-0.0711669921875
3.451,309,310,562,310,-10.0,38.0,45.0,-10.498045921325684,-17.88330078125,18.49365234375,-0.9149169921875,0.2310791015625,-0.0716552734375
3.465,310,310,582,309,-10.0,38.0,45.0,-10.498045921325684,-17.88330078125,18.49365234375,-0.9046630859375,0.228759765625,-0.0750732421875
3.482,308,310,620,310,-10.0,38.0,45.0,-9.82666015625,-18.49365234375,23.498533248901367,-0.883056640625,0.2293701171875,-0.0782470703125
3.494,308,309,649,310,-10.0,38.0,45.0,-10.009765625,-18.4326171875,26.184080123901367,-0.8497314453125,0.23876953125,-0.091796875
3.494,296,308,684,308,-10.0,38.0,45.0,-10.009765625,-18.4326171875,26.184080123901367,-0.809326171875,0.2459716796875,-0.1182861328125
3.506,309,310,796,308,-10.0,36.0,51.0,-17.27294921875,-18.06640625,33.14208984375,-0.742431640625,0.2109375,-0.1370849609375
3.511,308,308,861,310,-10.0,36.0,51.0,-21.240232467651367,-19.95849609375,37.841796875,-0.602294921875,0.1221923828125,-0.1197509765625
3.519,310,310,917,310,-10.0,36.0,51.0,-21.240232467651367,-19.95849609375,37.841796875,-0.358642578125,0.02001953125,-0.054931640625
3.535,308,308,1011,310,-10.0,36.0,51.0,-25.756834030151367,-26.916501998901367,48.400875091552734,-0.0723876953125,-0.0081787109375,0.0728759765625
3.541,308,310,1067,308,-10.0,36.0,51.0,-27.770994186401367,-26.977537155151367,50.354000091552734,0.1146240234375,0.112060546875,0.255859375
3.550,310,310,1138,310,-10.0,36.0,51.0,-27.770994186401367,-26.977537155151367,50.354000091552734,0.0625,0.41162109375,0.3876953125
3.569,309,310,1268,308,-10.0,36.0,51.0,-18.6767578125,-24.658201217651367,24.658201217651367,-0.2381591796875,0.733154296875,0.3511962890625
3.571,308,308,1339,310,-10.0,36.0,51.0,4.7607421875,-32.470703125,-4.57763671875,-0.66552734375,0.8443603515625,0.178955078125
3.592,308,309,1437,310,-10.0,36.0,51.0,4.7607421875,-32.470703125,-4.57763671875,-1.1209716796875,0.848876953125,0.0369873046875
3.593,296,310,1578,310,-10.0,36.0,51.0,53.771968841552734,-60.241695404052734,-39.55078125,-1.6241455078125,0.8033447265625,0.009033203125
3.601,309,310,1619,309,-10.0,36.0,45.0,63.049312591552734,-63.354488372802734,-39.55078125,-2.1624755859375,0.5177001953125,-0.04248046875
3.609,309,310,1637,309,-10.0,36.0,45.0,61.645503997802734,-48.583980560302734,-32.958984375,-2.483154296875,0.1380615234375,-0.253173828125
3.623,308,308,1572,310,-10.0,36.0,45.0,34.66796875,-24.414060592651367,-14.343260765075684,-2.43798828125,-0.0714111328125,-0.3883056640625
3.632,309,310,1529,310,-10.0,36.0,45.0,-14.770506858825684,-7.934569835662842,10.864256858825684,-1.942626953125,-0.164794921875,-0.2386474609375
3.639,310,310,1466,310,-10.0,36.0,45.0,-37.841796875,1.220703125,24.475095748901367,-1.2548828125,-0.01318359375,-0.019287109375
3.657,308,308,1460,310,-10.0,36.0,45.0,-16.6015625,10.314940452575684,18.85986328125,-0.886474609375,0.4659423828125,0.0931396484375
3.661,310,308,1445,310,-10.0,36.0,45.0,13.122557640075684,16.845703125,2.01416015625,-0.982421875,0.886474609375,0.151611328125
3.670,308,308,1428,310,-10.0,36.0,45.0,24.230955123901367,17.2119140625,-13.366698265075684,-1.4329833984375,0.988037109375,0.197265625
3.700,308,309,1338,309,-10.0,36.0,45.0,19.6533203125,12.512206077575684,-18.12744140625,-1.7598876953125,0.8009033203125,0.1553955078125
3.701,308,296,1241,309,-10.0,36.0,45.0,10.375975608825684,10.314940452575684,-14.587401390075684,-1.680908203125,0.4981689453125,-0.0128173828125
3.702,308,310,1133,309,-14.0,34.0,43.0,-0.3662109076976776,16.2353515625,-9.09423828125,-1.4459228515625,0.32958984375,-0.1884765625
3.708,308,309,1011,310,-14.0,34.0,43.0,-11.413573265075684,26.000974655151367,-4.2724609375,-1.276611328125,0.3619384765625,-0.235107421875
3.722,309,310,833,310,-14.0,34.0,43.0,-21.179197311401367,31.249998092651367,-0.7324218153953552,-1.1649169921875,0.441162109375,-0.1458740234375
3.738,309,309,731,310,-14.0,34.0,43.0,-27.282712936401367,29.479978561401367,-0.8544921278953552,-1.0272216796875,0.41796875,-0.0220947265625
3.738,308,296,633,310,-14.0,34.0,43.0,-27.709959030151367,23.681638717651367,-6.958007335662842,-0.826904296875,0.2506103515625,0.0760498046875
3.752,310,310,543,310,-14.0,34.0,43.0,-24.597166061401367,17.9443359375,-18.98193359375,-0.5863037109375,-0.0299072265625,0.08740234375
3.763,309,309,495,308,-14.0,34.0,43.0,-21.179197311401367,17.27294921875,-32.8369140625,-0.346923828125,-0.2713623046875,-0.0421142578125
3.774,308,308,479,310,-14.0,34.0,43.0,-17.02880859375,23.376462936401367,-42.541500091552734,-0.2503662109375,-0.30224609375,-0.1763916015625
3.797,310,309,456,308,-14.0,34.0,43.0,-12.878417015075684,27.404783248901367,-42.785640716552734,-0.36572265625,-0.13330078125,-0.1790771484375
3.798,308,310,473,308,-14.0,34.0,43.0,-7.812499523162842,22.399900436401367,-34.97314453125,-0.568359375,0.07373046875,-0.0986328125
3.801,309,310,437,295,-13.0,37.0,49.0,1.9531248807907104,13.305663108825684,-25.390623092651367,-0.6884765625,0.243408203125,-0.0626220703125
3.812,307,310,473,308,-13.0,37.0,49.0,10.803221702575684,7.446288585662842,-15.136717796325684,-0.671875,0.4566650390625,-0.09912109375
3.820,309,309,477,309,-13.0,37.0,49.0,5.554198741912842,4.150390625,-6.042479991912842,-0.6373291015625,0.6505126953125,-0.0777587890625
3.848,308,310,488,308,-13.0,37.0,49.0,-14.282225608825684,-1.0986328125,-4.45556640625,-0.62646484375,0.642822265625,0.0797119140625
3.849,308,310,499,309,-13.0,37.0,49.0,-30.395505905151367,-6.591796398162842,-11.108397483825684,-0.642333984375,0.452392578125,0.248046875
3.851,308,309,512,308,-13.0,37.0,49.0,-28.259275436401367,-7.873534679412842,-19.22607421875,-0.72802734375,0.27294921875,0.256591796875
3.858,310,310,525,308,-13.0,37.0,49.0,-12.878417015075684,-4.21142578125,-22.338865280151367,-0.8419189453125,0.2105712890625,0.1002197265625
3.878,309,310,548,309,-13.0,37.0,49.0,0.9155272841453552,0.1220703050494194,-20.446775436401367,-0.9305419921875,0.2030029296875,-0.0673828125
3.885,310,310,558,308,-13.0,37.0,49.0,5.432128429412842,0.54931640625,-16.2353515625,-0.9847412109375,0.1845703125,-0.1317138671875
3.897,308,308,568,308,-13.0,37.0,49.0,4.5166015625,-2.38037109375,-10.009765625,-0.994140625,0.1708984375,-0.1134033203125
3.903,310,310,601,308,-10.0,35.0,46.0,3.967284917831421,-5.432128429412842,-3.295898199081421,-0.9730224609375,0.166259765625,-0.059814453125
3.910,310,309,616,310,-10.0,35.0,46.0,4.57763671875,-7.690429210662842,1.7700194120407104,-0.9580078125,0.1656494140625,-0.0081787109375
3.918,308,309,633,308,-10.0,35.0,46.0,5.554198741912842,-9.1552734375,4.45556640625,-0.967041015625,0.19287109375,0.001953125
3.932,308,310,654,309,-10.0,35.0,46.0,6.408690929412842,-9.70458984375,5.126952648162842,-1.00732421875,0.2330322265625,-0.02197265625
3.942,309,308,657,310,-10.0,35.0,46.0,5.371093273162842,-9.765625,4.5166015625,-1.0596923828125,0.2552490234375,-0.0413818359375
3.948,308,310,658,310,-10.0,35.0,46.0,3.112792730331421,-9.33837890625,4.08935546875,-1.097412109375,0.2657470703125,-0.0489501953125
3.962,308,309,653,309,-10.0,35.0,46.0,1.4038084745407104,-8.60595703125,4.21142578125,-1.1080322265625,0.2669677734375,-0.053466796875
4.001,308,310,639,309,-10.0,35.0,46.0,1.0986328125,-8.23974609375,4.33349609375,-1.0770263671875,0.256591796875,-0.0606689453125
4.002,308,310,631,309,-10.0,35.0,46.0,1.4038084745407104,-8.48388671875,3.906249761581421,-1.0341796875,0.2503662109375,-0.068603515625
4.003,308,310,616,308,-9.0,37.0,47.0,0.9765624403953552,-9.70458984375,3.112792730331421,-0.9886474609375,0.2974853515625,-0.0653076171875
4.005,308,309,606,308,-9.0,37.0,47.0,0.3662109076976776,-11.474608421325684,2.13623046875,-0.9886474609375,0.2974853515625,-0.0653076171875
4.008,308,310,601,308,-9.0,37.0,47.0,0.6103515625,-13.183592796325684,0.9155272841453552,-0.9654541015625,0.320556640625,-0.056396484375
4.022,309,309,587,308,-9.0,37.0,47.0,0.6713866591453552,-14.709471702575684,-0.4882812201976776,-0.9180908203125,0.2896728515625,-0.0166015625
4.030,308,309,576,310,-9.0,37.0,47.0,-0.0610351525247097,-16.2353515625,-1.8310545682907104,-0.9180908203125,0.2896728515625,-0.0166015625
4.040,309,310,568,310,-9.0,37.0,47.0,-0.6713866591453552,-17.7001953125,-2.746581792831421,-0.902099609375,0.253662109375,0.0078125
4.052,309,311,557,308,-9.0,37.0,47.0,-0.9765624403953552,-19.04296875,-2.44140625,-0.9063720703125,0.2132568359375,0.0189208984375
4.060,309,310,552,310,-9.0,37.0,47.0,-1.4648436307907104,-19.95849609375,-0.7324218153953552,-0.9063720703125,0.2132568359375,0.0189208984375
4.069,308,308,548,308,-9.0,37.0,47.0,-2.13623046875,-20.629880905151367,2.0751953125,-0.9268798828125,0.19287109375,0.0084228515625
4.093,308,310,533,310,-9.0,37.0,47.0,-2.624511480331421,-21.240232467651367,5.859374523162842,-0.93212890625,0.14013671875,-0.0284423828125
4.093,309,310,530,308,-11.0,36.0,47.0,-3.295898199081421,-22.155759811401367,10.803221702575684,-0.93212890625,0.14013671875,-0.0284423828125
4.110,310,308,541,306,-11.0,36.0,47.0,-5.249022960662842,-24.047849655151367,16.6015625,-0.87353515625,0.124755859375,-0.0555419921875
4.112,308,308,588,309,-11.0,36.0,47.0,-7.324218273162842,-27.587888717651367,22.521970748901367,-0.593017578125,0.1556396484375,-0.1302490234375
4.120,309,308,657,309,-11.0,36.0,47.0,-8.544921875,-32.89794921875,27.343748092651367,-0.593017578125,0.1556396484375,-0.1302490234375
4.128,308,308,751,310,-11.0,36.0,47.0,-7.507323741912842,-39.1845703125,29.602048873901367,-0.381103515625,0.19873046875,-0.149658203125
4.146,308,309,929,310,-11.0,36.0,47.0,4.57763671875,-46.508785247802734,25.451658248901367,0.1798095703125,0.3599853515625,-0.2100830078125
4.150,309,308,1048,310,-11.0,36.0,47.0,4.57763671875,-46.508785247802734,25.451658248901367,0.3929443359375,0.46142578125,-0.147216796875
4.159,310,308,1157,310,-11.0,36.0,47.0,8.85009765625,-46.020503997802734,14.709471702575684,0.3929443359375,0.46142578125,-0.147216796875
4.172,308,309,1352,310,-11.0,36.0,47.0,11.047362327575684,-45.288082122802734,-25.817869186401367,-0.3822021484375,0.5867919921875,0.1934814453125
4.212,308,308,1449,310,-11.0,36.0,47.0,11.047362327575684,-45.288082122802734,-25.817869186401367,-1.2318115234375,0.694580078125,0.5665283203125
4.212,308,309,1523,310,-11.0,36.0,47.0,16.05224609375,-46.386714935302734,-36.43798828125,-1.2318115234375,0.694580078125,0.5665283203125
4.213,310,308,1595,310,-10.0,34.0,48.0,1.03759765625,-68.2373046875,-56.518550872802734,-2.1998291015625,-0.0135498046875,1.5185546875
4.213,310,309,1611,310,-10.0,34.0,48.0,1.03759765625,-68.2373046875,-56.518550872802734,-1.9210205078125,-0.4281005859375,0.8948974609375
4.218,309,309,1628,310,-10.0,34.0,48.0,13.122557640075684,-62.499996185302734,-55.786128997802734,-1.9210205078125,-0.4281005859375,0.8948974609375
4.232,310,308,1573,310,-10.0,34.0,48.0,50.598140716552734,6.347655773162842,-4.0283203125,-2.0548095703125,0.122802734375,-0.68603515625
4.240,309,308,1527,309,-10.0,34.0,48.0,50.598140716552734,6.347655773162842,-4.0283203125,-1.8529052734375,0.2679443359375,-0.5025634765625
4.249,309,308,1486,308,-10.0,34.0,48.0,38.57421875,21.545408248901367,20.568845748901367,-1.8529052734375,0.2679443359375,-0.5025634765625
4.262,308,309,1463,310,-10.0,34.0,48.0,6.286620616912842,32.3486328125,39.55078125,-0.86083984375,0.2518310546875,0.0955810546875
4.270,309,310,1468,310,-10.0,34.0,48.0,6.286620616912842,32.3486328125,39.55078125,-1.0345458984375,0.6165771484375,0.26123046875
4.286,310,309,1460,309,-10.0,34.0,48.0,-13.977049827575684,35.7666015625,35.21728515625,-1.4920654296875,0.9224853515625,0.334228515625
4.314,309,310,1413,310,-11.0,34.0,49.0,-4.8828125,26.550291061401367,8.60595703125,-1.73974609375,0.8873291015625,0.313720703125
4.315,308,309,1369,310,-11.0,34.0,49.0,1.9531248807907104,22.644041061401367,-2.990722417831421,-1.6373291015625,0.637451171875,0.149169921875
4.315,308,310,1312,310,-11.0,34.0,49.0,1.9531248807907104,22.644041061401367,-2.990722417831421,-1.4034423828125,0.391845703125,-0.04052734375
4.322,308,310,1204,310,-11.0,34.0,49.0,-13.610838890075684,27.832029342651367,-12.268065452575684,-1.239501953125,0.26171875,-0.092041015625
4.330,308,308,1116,310,-11.0,34.0,49.0,-16.54052734375,29.052732467651367,-10.620116233825684,-1.1492919921875,0.259033203125,-0.01220703125
4.338,308,310,1014,310,-11.0,34.0,49.0,-16.54052734375,29.052732467651367,-10.620116233825684,-1.053955078125,0.28564453125,0.084228515625
4.352,308,310,808,309,-11.0,34.0,49.0,-0.54931640625,27.282712936401367,-2.685546636581421,-0.90625,0.238525390625,0.1409912109375
4.361,308,309,694,308,-11.0,34.0,49.0,0.1831054538488388,27.099607467651367,-1.7089842557907104,-0.7100830078125,0.1341552734375,0.1549072265625
4.368,309,309,614,308,-11.0,34.0,49.0,0.1831054538488388,27.099607467651367,-1.7089842557907104,-0.514892578125,0.0006103515625,0.1168212890625
4.387,308,310,526,308,-11.0,34.0,49.0,-7.507323741912842,30.395505905151367,-9.521484375,-0.372802734375,-0.1484375,0.0086669921875
4.390,310,308,503,309,-9.0,37.0,48.0,-8.11767578125,34.3017578125,-17.76123046875,-0.3302001953125,-0.204345703125,-0.13525390625
4.416,310,309,495,310,-9.0,37.0,48.0,-8.11767578125,34.3017578125,-17.76123046875,-0.4053955078125,-0.0811767578125,-0.2054443359375
4.417,306,310,495,309,-9.0,37.0,48.0,-6.652831554412842,33.87451171875,-10.253905296325684,-0.5693359375,0.1494140625,-0.1571044921875
4.421,308,309,503,310,-9.0,37.0,48.0,-2.868652105331421,26.855466842651367,0.6103515625,-0.7269287109375,0.3475341796875,-0.0701904296875
4.428,308,308,508,308,-9.0,37.0,48.0,-3.173827886581421,20.446775436401367,4.8828125,-0.791015625,0.4290771484375,-0.0159912109375
4.442,308,310,537,310,-9.0,37.0,48.0,-9.82666015625,17.27294921875,2.929687261581421,-0.7926025390625,0.4158935546875,0.0087890625
4.455,310,308,558,308,-9.0,37.0,48.0,-17.02880859375,15.380858421325684,-0.6713866591453552,-0.7889404296875,0.3857421875,0.0185546875
4.458,312,648,576,310,-9.0,37.0,48.0,-19.22607421875,12.573241233825684,-3.540038824081421,-0.789794921875,0.3529052734375,0.0498046875
4.472,308,310,607,311,-9.0,37.0,48.0,-15.014647483825684,8.1787109375,-5.126952648162842,-0.79052734375,0.32177734375,0.0701904296875
4.480,308,308,620,309,-9.0,37.0,48.0,-9.21630859375,4.69970703125,-5.0048828125,-0.810546875,0.3255615234375,0.034912109375
4.491,309,310,629,310,-9.0,37.0,49.0,-7.263183116912842,3.234863042831421,-4.2724609375,-0.863525390625,0.302734375,0.0107421875
4.521,308,309,653,310,-9.0,37.0,49.0,-6.103515148162842,1.9531248807907104,-4.33349609375,-0.938232421875,0.2161865234375,0.0316162109375
4.523,308,309,660,307,-9.0,37.0,49.0,0.2441406100988388,0.30517578125,-3.723144292831421,-1.0140380859375,0.1829833984375,0.0238037109375
4.526,310,309,667,309,-9.0,37.0,49.0,8.9111328125,-1.7089842557907104,-1.5258787870407104,-1.05126953125,0.2298583984375,-0.00732421875
4.532,308,310,677,310,-9.0,37.0,49.0,13.610838890075684,-4.94384765625,0.1831054538488388,-1.0458984375,0.26318359375,0.0025634765625
4.540,308,308,682,310,-9.0,37.0,49.0,14.404295921325684,-8.60595703125,0.4882812201976776,-1.0205078125,0.2723388671875,0.0355224609375
4.548,308,309,684,310,-9.0,37.0,49.0,13.793944358825684,-10.620116233825684,0.3662109076976776,-0.990234375,0.278076171875,0.0572509765625
4.562,308,310,685,310,-9.0,37.0,49.0,11.718749046325684,-9.521484375,0.1831054538488388,-0.9793701171875,0.2808837890625,0.0325927734375
4.570,310,308,683,309,-9.0,37.0,49.0,6.225585460662842,-5.920409679412842,-0.6713866591453552,-0.9959716796875,0.260009765625,-0.0126953125
4.578,308,309,673,308,-9.0,37.0,49.0,-0.6103515625,-2.746581792831421,-1.5258787870407104,-1.0223388671875,0.2215576171875,-0.0400390625
4.592,308,310,654,310,-9.0,37.0,45.0,-4.8828125,-2.13623046875,-1.2817381620407104,-1.031982421875,0.1998291015625,-0.0501708984375
4.621,308,310,646,309,-9.0,37.0,45.0,-5.676269054412842,-3.540038824081421,0.54931640625,-1.01220703125,0.20068359375,-0.056396484375
4.622,309,310,642,308,-9.0,37.0,45.0,-5.249022960662842,-5.187987804412842,3.051757574081421,-0.98583984375,0.2218017578125,-0.0584716796875
4.622,308,308,616,294,-9.0,37.0,45.0,-6.591796398162842,-6.835937023162842,5.432128429412842,-0.9658203125,0.2568359375,-0.0435791015625
4.632,310,309,631,308,-9.0,37.0,45.0,-9.33837890625,-8.23974609375,7.080077648162842,-0.9425048828125,0.2921142578125,-0.0198974609375
4.638,308,308,632,310,-9.0,37.0,45.0,-11.535643577575684,-8.7890625,7.507323741912842,-0.9222412109375,0.31005859375,0.010009765625
4.652,308,309,631,310,-9.0,37.0,45.0,-12.573241233825684,-8.4228515625,7.202147960662842,-0.9176025390625,0.3092041015625,0.0438232421875
4.660,308,310,629,310,-9.0,37.0,45.0,-12.573241233825684,-7.080077648162842,6.896972179412842,-0.9139404296875,0.290283203125,0.0712890625
4.668,308,310,629,309,-9.0,37.0,45.0,-11.901854515075684,-5.126952648162842,6.774901866912842,-0.910888671875,0.2548828125,0.085693359375
4.682,309,310,633,308,-9.0,37.0,45.0,-10.925292015075684,-3.051757574081421,7.080077648162842,-0.927490234375,0.224365234375,0.0855712890625
4.694,310,310,644,310,-9.0,36.0,49.0,-9.94873046875,-1.5869139432907104,8.1787109375,-0.9561767578125,0.2161865234375,0.075927734375
4.698,308,310,653,308,-9.0,36.0,49.0,-8.1787109375,-1.0986328125,9.94873046875,-0.97705078125,0.22802734375,0.0640869140625
4.713,309,310,666,310,-9.0,36.0,49.0,-5.126952648162842,-1.7700194120407104,11.657713890075684,-0.9825439453125,0.2440185546875,0.0526123046875
4.724,310,307,678,310,-9.0,36.0,49.0,-2.01416015625,-3.051757574081421,12.878417015075684,-0.982421875,0.2542724609375,0.043212890625
4.761,308,310,685,310,-9.0,36.0,49.0,0.1831054538488388,-3.723144292831421,13.916014671325684,-0.9876708984375,0.2589111328125,0.040283203125
4.764,308,308,685,308,-9.0,36.0,49.0,1.4648436307907104,-3.295898199081421,15.075682640075684,-0.9593505859375,0.2611083984375,0.012939453125
4.841,309,295,721,310,-9.0,36.0,49.0,1.4648436307907104,-2.0751953125,16.05224609375,-0.9593505859375,0.2611083984375,0.012939453125
4.841,310,310,737,308,-9.0,36.0,49.0,0.6103515625,-1.5258787870407104,16.4794921875,-0.8880615234375,0.272216796875,-0.017822265625
4.864,308,310,784,308,-9.0,36.0,49.0,-0.4272460639476776,-2.50244140625,17.02880859375,-0.49169921875,0.2786865234375,-0.0225830078125
4.868,309,309,818,310,-9.0,36.0,49.0,-2.44140625,-4.57763671875,17.76123046875,-0.49169921875,0.2786865234375,-0.0225830078125
4.877,308,308,871,312,-10.0,34.0,45.0,-5.798339366912842,-8.544921875,17.333984375,-0.263427734375,0.2225341796875,-0.0115966796875
4.878,308,310,1029,308,-10.0,34.0,45.0,-7.629394054412842,-17.63916015625,15.197752952575684,0.087646484375,0.3189697265625,-0.0455322265625
4.878,296,308,1132,308,-10.0,34.0,45.0,-2.929687261581421,-34.1796875,9.33837890625,0.087646484375,0.3189697265625,-0.0455322265625
4.878,309,310,1219,310,-10.0,34.0,45.0,8.23974609375,-53.894039154052734,-5.0048828125,0.051025390625,0.462158203125,-0.0870361328125
4.879,308,309,1380,310,-10.0,34.0,45.0,19.6533203125,-65.61279296875,-26.489255905151367,-0.744140625,0.5185546875,-0.3284912109375
4.879,308,308,1460,309,-10.0,34.0,45.0,23.315427780151367,-63.781734466552734,-45.471187591552734,-0.744140625,0.5185546875,-0.3284912109375
4.881,309,310,1535,310,-10.0,34.0,45.0,18.6767578125,-56.335445404052734,-55.908199310302734,-1.26123046875,0.4449462890625,-0.3375244140625
4.882,308,310,1623,310,-10.0,34.0,45.0,12.145995140075684,-54.382320404052734,-60.180660247802734,-1.8670654296875,0.1683349609375,0.364501953125
4.882,308,308,1656,310,-10.0,34.0,45.0,5.310058116912842,-59.143062591552734,-62.316890716552734,-1.8670654296875,0.1683349609375,0.364501953125
4.883,308,309,1682,308,-10.0,34.0,45.0,-2.990722417831421,-62.499996185302734,-61.767574310302734,-2.0091552734375,0.1217041015625,0.748779296875
4.899,310,307,1611,310,-12.0,31.0,45.0,-7.873534679412842,-37.78076171875,-40.954586029052734,-1.94189453125,0.3192138671875,0.6865234375
4.900,309,310,1582,309,-12.0,31.0,45.0,-7.873534679412842,-37.78076171875,-40.954586029052734,-1.3631591796875,0.1558837890625,0.2069091796875
4.936,310,309,1538,310,-12.0,31.0,45.0,0.54931640625,-7.568358898162842,-29.479978561401367,-1.3631591796875,0.1558837890625,0.2069091796875
4.937,309,308,1503,310,-12.0,31.0,45.0,-7.934569835662842,42.541500091552734,-16.357421875,-0.9739990234375,-0.011474609375,0.0931396484375
4.938,294,308,1516,289,-12.0,31.0,45.0,-7.934569835662842,42.541500091552734,-16.357421875,-1.37646484375,0.12939453125,0.4481201171875
4.939,309,314,1492,310,-12.0,31.0,45.0,-10.070799827575684,43.640132904052734,-4.2724609375,-1.37646484375,0.12939453125,0.4481201171875
4.953,308,310,1449,308,-12.0,31.0,45.0,1.5869139432907104,38.75732421875,32.16552734375,-1.7235107421875,0.243896484375,0.5079345703125
4.973,308,310,1406,310,-12.0,31.0,45.0,1.03759765625,46.691890716552734,46.447750091552734,-1.5218505859375,0.24462890625,0.207275390625
4.974,310,310,1357,306,-12.0,31.0,45.0,1.03759765625,46.691890716552734,46.447750091552734,-1.31689453125,0.29248046875,-0.021240234375
4.983,308,309,1253,310,-8.0,34.0,45.0,-5.126952648162842,62.744136810302734,56.396480560302734,-1.1988525390625,0.36767578125,-0.101806640625
4.991,309,310,1183,310,-8.0,34.0,45.0,-3.662109136581421,64.8193359375,52.856441497802734,-1.11376953125,0.475341796875,-0.1103515625
5.002,310,309,1093,310,-8.0,34.0,45.0,-3.662109136581421,64.8193359375,52.856441497802734,-0.987548828125,0.58154296875,-0.109375
5.015,308,310,931,308,-8.0,34.0,45.0,3.112792730331421,54.260250091552734,29.418943405151367,-0.81591796875,0.5718994140625,-0.103271484375
5.022,308,310,847,310,-8.0,34.0,45.0,-3.784179449081421,46.997066497802734,9.27734375,-0.6666259765625,0.4205322265625,-0.09814453125
5.030,309,309,767,309,-8.0,34.0,45.0,-3.784179449081421,46.997066497802734,9.27734375,-0.5748291015625,0.19384765625,-0.1058349609375
5.043,308,309,676,308,-8.0,34.0,45.0,-17.39501953125,41.870113372802734,-25.390623092651367,-0.5098876953125,-0.0252685546875,-0.123779296875
5.051,309,309,643,309,-8.0,34.0,45.0,-15.441893577575684,42.419429779052734,-33.14208984375,-0.4730224609375,-0.115478515625,-0.124755859375
5.059,308,308,614,309,-8.0,34.0,45.0,-15.441893577575684,42.419429779052734,-33.14208984375,-0.495361328125,-0.0562744140625,-0.0989990234375
5.073,309,616,594,308,-8.0,34.0,45.0,-7.263183116912842,38.14697265625,-29.357908248901367,-0.576904296875,0.07958984375,-0.06494140625
5.082,310,604,585,310,-8.0,34.0,45.0,-8.11767578125,33.14208984375,-23.803709030151367,-0.6861572265625,0.2100830078125,-0.02734375
5.090,310,591,584,310,-6.0,37.0,45.0,-8.11767578125,33.14208984375,-23.803709030151367,-0.7559814453125,0.2745361328125,0.0076904296875
5.104,310,584,576,310,-6.0,37.0,45.0,-16.11328125,25.878904342651367,-13.244627952575684,-0.76904296875,0.3017578125,0.0283203125
5.123,310,579,564,310,-6.0,37.0,45.0,-18.00537109375,25.634763717651367,-6.408690929412842,-0.76904296875,0.3087158203125,0.05419921875
5.129,310,574,561,310,-6.0,37.0,45.0,-18.6767578125,25.573728561401367,-0.0610351525247097,-0.7703857421875,0.2745361328125,0.0938720703125
5.133,308,585,572,309,-6.0,37.0,45.0,-17.15087890625,24.414060592651367,4.33349609375,-0.7847900390625,0.232666015625,0.1258544921875
5.147,310,590,577,310,-6.0,37.0,45.0,-12.268065452575684,22.399900436401367,7.385253429412842,-0.8240966796875,0.2169189453125,0.128173828125
5.149,308,594,587,310,-6.0,37.0,45.0,-4.5166015625,20.568845748901367,10.070799827575684,-0.8756103515625,0.2247314453125,0.0833740234375
5.163,310,606,601,310,-6.0,37.0,45.0,3.417968511581421,19.53125,12.329100608825684,-0.9066162109375,0.2296142578125,0.007568359375
5.171,310,309,608,309,-6.0,37.0,45.0,8.60595703125,18.73779296875,13.427733421325684,-0.9097900390625,0.2203369140625,-0.0653076171875
5.179,308,308,621,310,-6.0,37.0,45.0,10.253905296325684,17.27294921875,13.549803733825684,-0.9117431640625,0.225830078125,-0.115966796875
5.196,309,309,644,309,-9.0,39.0,47.0,9.82666015625,14.465331077575684,12.817381858825684,-0.927490234375,0.265380859375,-0.138427734375
5.207,308,310,653,309,-9.0,39.0,47.0,9.33837890625,10.437010765075684,10.681151390075684,-0.956787109375,0.3297119140625,-0.13720703125
5.209,308,310,658,310,-9.0,39.0,47.0,9.46044921875,6.286620616912842,7.019042491912842,-0.9910888671875,0.382568359375,-0.1253662109375
5.223,308,308,673,309,-9.0,39.0,47.0,8.30078125,3.356933355331421,2.563476324081421,-1.022705078125,0.3848876953125,-0.108642578125
5.231,308,308,674,308,-9.0,39.0,47.0,4.2724609375,2.13623046875,-1.4038084745407104,-1.0518798828125,0.339599609375,-0.0836181640625
5.239,308,308,673,310,-9.0,39.0,47.0,-0.7934569716453552,2.563476324081421,-3.723144292831421,-1.072021484375,0.275390625,-0.05859375
5.253,308,310,671,309,-9.0,39.0,47.0,-4.39453125,4.21142578125,-4.150390625,-1.0704345703125,0.2139892578125,-0.0465087890625
5.261,308,310,666,310,-9.0,39.0,47.0,-5.981444835662842,6.164550304412842,-3.051757574081421,-1.0567626953125,0.1707763671875,-0.0458984375
5.272,309,309,661,307,-9.0,39.0,47.0,-5.981444835662842,7.141112804412842,-0.9765624403953552,-1.052001953125,0.164306640625,-0.0455322265625
5.283,310,308,646,310,-10.0,38.0,47.0,-4.7607421875,6.896972179412842,1.8920897245407104,-1.0445556640625,0.1939697265625,-0.0450439453125
5.291,308,308,634,308,-10.0,38.0,47.0,-3.295898199081421,6.286620616912842,5.0048828125,-1.0186767578125,0.2320556640625,-0.0457763671875
5.299,309,309,618,309,-10.0,38.0,47.0,-2.929687261581421,5.920409679412842,7.751464366912842,-0.9820556640625,0.2554931640625,-0.0404052734375
5.371,308,310,590,309,-10.0,38.0,47.0,-3.662109136581421,6.042479991912842,9.94873046875,-0.9505615234375,0.25927734375,-0.0367431640625
5.372,308,309,562,306,-10.0,38.0,47.0,-4.08935546875,6.835937023162842,11.901854515075684,-0.9288330078125,0.24853515625,-0.0469970703125
5.372,310,308,543,308,-10.0,38.0,47.0,-4.21142578125,7.995604991912842,13.671874046325684,-0.9163818359375,0.2337646484375,-0.0665283203125
5.372,308,310,522,310,-10.0,38.0,47.0,-4.57763671875,8.72802734375,15.502928733825684,-0.91748046875,0.224609375,-0.0838623046875
5.372,310,310,509,309,-10.0,38.0,47.0,-5.371093273162842,8.4228515625,17.7001953125,-0.9241943359375,0.2181396484375,-0.092041015625
5.372,309,310,496,308,-10.0,38.0,47.0,-6.835937023162842,7.324218273162842,21.057126998901367,-0.933349609375,0.2100830078125,-0.088623046875
5.374,308,309,467,308,-10.0,38.0,47.0,-9.3994140625,5.737304210662842,26.062009811401367,-0.9324951171875,0.1978759765625,-0.0673828125
5.386,308,310,455,309,-9.0,37.0,45.0,-11.962889671325684,3.723144292831421,32.2265625,-0.91455078125,0.193359375,-0.040283203125
5.389,309,310,450,310,-9.0,37.0,45.0,-13.305663108825684,1.5869139432907104,37.841796875,-0.8934326171875,0.2242431640625,-0.03173828125
5.403,308,308,452,308,-9.0,37.0,45.0,-11.718749046325684,-0.4882812201976776,41.137691497802734,-0.876708984375,0.285888671875,-0.047119140625
5.411,308,309,472,310,-9.0,37.0,45.0,-8.48388671875,-1.9531248807907104,42.541500091552734,-0.842529296875,0.2884521484375,-0.0628662109375
5.434,308,309,535,310,-9.0,37.0,45.0,-7.446288585662842,-2.563476324081421,46.447750091552734,-0.70703125,0.14453125,-0.066650390625
5.435,308,308,707,294,-9.0,37.0,45.0,-6.896972179412842,-3.662109136581421,56.823726654052734,0.086181640625,-0.1646728515625,-0.096435546875
5.441,308,310,835,308,-9.0,37.0,45.0,-0.9155272841453552,-9.1552734375,69.76318359375,0.086181640625,-0.1646728515625,-0.096435546875
5.451,308,308,935,310,-9.0,37.0,45.0,11.840819358825684,-22.216794967651367,74.70703125,0.543701171875,-0.0126953125,-0.1204833984375
5.467,308,310,1115,308,-9.0,37.0,45.0,26.916501998901367,-41.625972747802734,63.232418060302734,0.441650390625,0.8839111328125,0.173095703125
5.473,308,310,1215,310,-9.0,37.0,45.0,37.59765625,-61.950679779052734,32.04345703125,0.441650390625,0.8839111328125,0.173095703125
5.480,308,310,1309,310,-9.0,35.0,42.0,36.9873046875,-70.98388671875,-13.305663108825684,-0.2047119140625,1.01025390625,0.31591796875
5.493,308,310,1504,309,-9.0,35.0,42.0,28.991697311401367,-63.354488372802734,-53.771968841552734,-2.0068359375,0.8685302734375,-0.1668701171875
5.501,308,310,1573,311,-9.0,35.0,42.0,28.381345748901367,-50.354000091552734,-72.6318359375,-2.0068359375,0.8685302734375,-0.1668701171875
5.515,310,308,1607,309,-9.0,35.0,42.0,35.82763671875,-43.945308685302734,-73.18115234375,-2.50341796875,0.6048583984375,-0.5223388671875
5.535,308,309,1595,310,-9.0,35.0,42.0,37.841796875,-46.386714935302734,-67.32177734375,-2.4970703125,-0.0335693359375,-0.06005859375
5.536,308,308,1500,308,-9.0,35.0,42.0,25.390623092651367,-54.138179779052734,-54.443355560302734,-2.4970703125,-0.0335693359375,-0.06005859375
5.542,308,309,1457,310,-9.0,35.0,42.0,7.751464366912842,-56.945796966552734,-29.968259811401367,-2.27880859375,-0.012939453125,0.3646240234375
5.555,308,309,1492,309,-9.0,35.0,42.0,3.906249761581421,-37.29248046875,-5.981444835662842,-0.9569091796875,0.2410888671875,0.3145751953125
5.561,308,308,1499,310,-9.0,35.0,42.0,8.4228515625,5.0048828125,3.112792730331421,-0.9569091796875,0.2410888671875,0.3145751953125
5.575,308,310,1474,309,-9.0,35.0,42.0,10.742186546325684,41.137691497802734,1.7089842557907104,-1.247802734375,0.7186279296875,0.259521484375
5.583,308,309,1390,308,-11.0,34.0,49.0,17.333984375,41.564937591552734,-3.356933355331421,-1.8408203125,0.80029296875,0.2216796875
5.591,308,310,1308,310,-11.0,34.0,49.0,17.333984375,41.564937591552734,-3.356933355331421,-1.5673828125,0.4613037109375,0.0247802734375
5.600,309,308,1215,310,-11.0,34.0,49.0,18.06640625,34.36279296875,-5.676269054412842,-1.5673828125,0.4613037109375,0.0247802734375
5.616,308,310,1053,310,-11.0,34.0,49.0,5.249022960662842,45.104976654052734,-3.967284917831421,-1.03125,0.3314208984375,-0.3470458984375
5.646,309,310,951,308,-11.0,34.0,49.0,5.249022960662842,45.104976654052734,-3.967284917831421,-0.88818359375,0.394287109375,-0.27490234375
5.647,308,308,830,308,-11.0,34.0,49.0,-3.295898199081421,47.973628997802734,-2.624511480331421,-0.88818359375,0.394287109375,-0.27490234375
5.647,307,309,668,309,-11.0,34.0,49.0,-9.46044921875,38.87939453125,-8.85009765625,-0.574951171875,0.2183837890625,-0.00732421875
5.651,308,310,594,308,-11.0,34.0,49.0,-9.46044921875,38.87939453125,-8.85009765625,-0.44970703125,0.0128173828125,-0.0023193359375
5.659,308,308,531,308,-11.0,34.0,49.0,-7.934569835662842,33.203125,-17.2119140625,-0.44970703125,0.0128173828125,-0.0023193359375
5.680,310,310,488,310,-11.0,34.0,49.0,-12.145995140075684,30.639646530151367,-33.99658203125,-0.3494873046875,-0.2257080078125,-0.1376953125
5.686,308,308,481,308,-10.0,40.0,45.0,-12.145995140075684,30.639646530151367,-33.99658203125,-0.3968505859375,-0.1551513671875,-0.051513671875
5.689,310,309,483,310,-10.0,40.0,45.0,-12.756346702575684,28.686521530151367,-33.26416015625,-0.3968505859375,-0.1551513671875,-0.051513671875
5.703,309,697,499,308,-10.0,40.0,45.0,0.7934569716453552,20.812986373901367,-10.986327171325684,-0.661865234375,0.19921875,0.0548095703125
5.718,308,698,521,310,-10.0,40.0,45.0,0.7934569716453552,20.812986373901367,-10.986327171325684,-0.731689453125,0.34033203125,0.003173828125
5.719,309,700,535,310,-10.0,40.0,45.0,9.3994140625,20.385740280151367,2.44140625,-0.731689453125,0.34033203125,0.003173828125
5.742,308,308,572,309,-10.0,40.0,45.0,6.164550304412842,19.287109375,17.15087890625,-0.7562255859375,0.451416015625,-0.049560546875
5.742,309,310,582,309,-10.0,40.0,45.0,-0.4882812201976776,17.9443359375,16.7236328125,-0.7900390625,0.438720703125,-0.0540771484375
5.749,308,308,601,308,-10.0,40.0,45.0,-0.4882812201976776,17.9443359375,16.7236328125,-0.839111328125,0.369873046875,-0.0751953125
5.763,306,309,616,308,-10.0,40.0,45.0,-10.864256858825684,15.747069358825684,8.85009765625,-0.92431640625,0.3045654296875,-0.113525390625
5.771,310,310,627,309,-10.0,40.0,45.0,-14.770506858825684,14.709471702575684,6.958007335662842,-1.0135498046875,0.2633056640625,-0.1356201171875
5.786,308,309,642,309,-8.0,40.0,42.0,-14.770506858825684,14.709471702575684,6.958007335662842,-1.0697021484375,0.2332763671875,-0.1290283203125
5.793,309,308,662,309,-8.0,40.0,42.0,-13.305663108825684,12.695311546325684,9.521484375,-1.088623046875,0.2274169921875,-0.1129150390625
5.802,308,310,673,309,-8.0,40.0,42.0,-7.873534679412842,11.962889671325684,12.023924827575684,-1.0699462890625,0.2459716796875,-0.0927734375
5.810,313,310,674,310,-8.0,40.0,42.0,-7.873534679412842,11.962889671325684,12.023924827575684,-1.0167236328125,0.2650146484375,-0.0689697265625
5.823,308,308,685,308,-8.0,40.0,42.0,0.9155272841453552,12.329100608825684,14.038084983825684,-0.971923828125,0.2901611328125,-0.064697265625
5.851,309,308,687,308,-8.0,40.0,42.0,1.8310545682907104,14.221190452575684,13.122557640075684,-0.968994140625,0.3341064453125,-0.093505859375
5.851,308,308,688,308,-8.0,40.0,42.0,1.8310545682907104,14.221190452575684,13.122557640075684,-0.98779296875,0.3687744140625,-0.1363525390625
5.854,308,308,683,310,-8.0,40.0,42.0,1.9531248807907104,16.05224609375,8.544921875,-0.9981689453125,0.3681640625,-0.165771484375
5.861,309,309,675,309,-8.0,40.0,42.0,1.5258787870407104,14.770506858825684,5.920409679412842,-0.991455078125,0.342529296875,-0.1722412109375
5.871,309,308,668,310,-8.0,40.0,42.0,1.5258787870407104,14.770506858825684,5.920409679412842,-0.9774169921875,0.3160400390625,-0.166015625
5.895,309,310,646,309,-11.0,39.0,41.0,-0.1220703050494194,10.681151390075684,3.845214605331421,-0.9588623046875,0.304443359375,-0.1573486328125
5.896,310,310,632,308,-11.0,39.0,41.0,-0.7934569716453552,9.09423828125,4.150390625,-0.9351806640625,0.303466796875,-0.146728515625
5.899,308,308,620,310,-11.0,39.0,41.0,-1.7089842557907104,7.995604991912842,4.39453125,-0.9190673828125,0.302490234375,-0.1357421875
5.913,308,310,607,308,-11.0,39.0,41.0,-2.746581792831421,7.080077648162842,4.33349609375,-0.911376953125,0.2933349609375,-0.1287841796875
5.924,309,308,607,308,-11.0,39.0,41.0,-3.295898199081421,6.042479991912842,4.150390625,-0.9041748046875,0.2779541015625,-0.1290283203125
5.946,308,309,606,309,-11.0,39.0,41.0,-2.868652105331421,4.69970703125,4.57763671875,-0.8984375,0.2698974609375,-0.13525390625
5.946,309,309,585,297,-11.0,39.0,41.0,-1.2817381620407104,2.807616949081421,5.798339366912842,-0.89453125,0.2763671875,-0.143798828125
5.952,310,308,601,310,-11.0,39.0,41.0,0.2441406100988388,0.6713866591453552,7.507323741912842,-0.898681640625,0.2943115234375,-0.1478271484375
5.988,308,310,601,308,-11.0,39.0,41.0,0.30517578125,-1.4648436307907104,9.21630859375,-0.9134521484375,0.3131103515625,-0.1461181640625
5.991,308,310,601,308,-11.0,39.0,41.0,-0.8544921278953552,-2.929687261581421,10.742186546325684,-0.9324951171875,0.322509765625,-0.1484375
6.068,309,310,599,308,-11.0,40.0,42.0,-2.685546636581421,-3.906249761581421,12.145995140075684,-0.94873046875,0.3175048828125,-0.15185546875
6.069,308,308,594,308,-11.0,40.0,42.0,-5.126952648162842,-4.94384765625,13.671874046325684,-0.9598388671875,0.307373046875,-0.1500244140625
6.069,308,308,594,308,-11.0,40.0,42.0,-7.507323741912842,-5.920409679412842,15.563963890075684,-0.964111328125,0.2979736328125,-0.1473388671875
6.070,308,310,586,310,-11.0,40.0,42.0,-9.94873046875,-6.652831554412842,18.310546875,-0.955322265625,0.2772216796875,-0.14697265625
6.070,309,308,564,307,-11.0,40.0,42.0,-12.817381858825684,-7.202147960662842,22.216794967651367,-0.935302734375,0.232177734375,-0.151123046875
6.071,308,308,574,310,-11.0,40.0,42.0,-16.7236328125,-7.934569835662842,28.625486373901367,-0.9041748046875,0.1571044921875,-0.1612548828125
6.074,295,310,563,309,-11.0,40.0,42.0,-21.423337936401367,-9.27734375,39.12353515625,-0.836669921875,0.052001953125,-0.1619873046875
6.075,308,310,564,308,-11.0,40.0,42.0,-25.695798873901367,-11.779784202575684,53.588863372802734,-0.7152099609375,-0.03759765625,-0.1602783203125
6.076,309,308,583,310,-11.0,40.0,42.0,-29.418943405151367,-16.9677734375,68.7255859375,-0.5228271484375,-0.0555419921875,-0.1630859375
6.076,299,306,695,307,-11.0,40.0,42.0,-27.893064498901367,-26.550291061401367,78.125,-0.2218017578125,0.0301513671875,-0.176025390625
6.083,310,310,856,310,-15.0,37.0,44.0,-13.427733421325684,-41.564937591552734,75.1953125,0.1849365234375,0.238037109375,-0.180419921875
6.092,308,310,981,308,-15.0,37.0,44.0,15.258788108825684,-62.194820404052734,58.349605560302734,0.679931640625,0.428466796875,-0.113037109375
6.108,308,310,1143,310,-15.0,37.0,44.0,46.630855560302734,-83.55712127685547,31.738279342651367,0.9664306640625,0.5975341796875,0.052490234375
6.111,308,309,1246,311,-15.0,37.0,44.0,57.739253997802734,-98.08348846435547,-1.5258787870407104,0.60693359375,0.9222412109375,0.3160400390625
6.119,308,310,1392,310,-15.0,37.0,44.0,45.227046966552734,-94.84862518310547,-37.841796875,-0.351806640625,1.27734375,0.4481201171875
6.141,308,310,1529,310,-15.0,37.0,44.0,28.991697311401367,-69.03076171875,-67.5048828125,-1.4912109375,1.41259765625,0.3074951171875
6.150,308,309,1561,310,-15.0,37.0,44.0,20.935056686401367,-44.189449310302734,-84.96092987060547,-2.3944091796875,1.1551513671875,0.16357421875
6.150,310,310,1585,310,-15.0,37.0,44.0,9.033203125,-45.166011810302734,-88.92821502685547,-2.78564453125,0.497802734375,0.0869140625
6.163,308,310,1508,309,-15.0,37.0,44.0,-15.991209983825684,-64.39208984375,-73.91357421875,-2.8671875,-0.1705322265625,-0.040771484375
6.171,309,308,1478,310,-15.0,37.0,44.0,-25.085447311401367,-73.974609375,-42.480464935302734,-2.7305908203125,-0.4061279296875,-0.135009765625
6.179,309,310,1462,310,-12.0,36.0,46.0,9.033203125,-54.626461029052734,-19.71435546875,-1.9810791015625,-0.27734375,-0.152099609375
6.193,308,310,1474,310,-12.0,36.0,46.0,50.415035247802734,-11.474608421325684,-28.869626998901367,-0.8828125,0.440185546875,0.1600341796875
6.201,308,310,1488,310,-12.0,36.0,46.0,55.969234466552734,30.761716842651367,-55.419918060302734,-0.8828125,0.440185546875,0.1600341796875
6.216,309,310,1486,308,-12.0,36.0,46.0,42.846675872802734,52.734371185302734,-70.4345703125,-1.1458740234375,0.9202880859375,0.22607421875
6.234,308,308,1411,310,-12.0,36.0,46.0,35.46142578125,50.048824310302734,-63.049312591552734,-1.8975830078125,1.0107421875,-0.0115966796875
6.235,310,310,1351,309,-12.0,36.0,46.0,30.395505905151367,31.311033248901367,-46.508785247802734,-1.8975830078125,1.0107421875,-0.0115966796875
6.256,308,310,1258,308,-12.0,36.0,46.0,20.080564498901367,16.4794921875,-40.771480560302734,-1.666748046875,0.59619140625,-0.1983642578125
6.256,308,310,1092,309,-12.0,36.0,46.0,3.356933355331421,15.563963890075684,-46.874996185302734,-1.2056884765625,0.169921875,-0.3201904296875
6.261,297,310,989,309,-12.0,36.0,46.0,-12.817381858825684,22.766111373901367,-54.382320404052734,-1.2056884765625,0.169921875,-0.3201904296875
6.269,310,309,853,310,-12.0,36.0,46.0,-19.775390625,27.221677780151367,-54.931636810302734,-1.135986328125,0.19873046875,-0.1846923828125
6.283,308,311,662,309,-8.0,34.0,45.0,-16.7236328125,24.902341842651367,-51.025386810302734,-0.619140625,0.0111083984375,0.0728759765625
6.293,308,310,588,308,-8.0,34.0,45.0,-12.939452171325684,20.446775436401367,-52.001949310302734,-0.619140625,0.0111083984375,0.0728759765625
6.299,309,309,505,310,-8.0,34.0,45.0,-15.930174827575684,21.972654342651367,-60.668941497802734,-0.3099365234375,-0.3087158203125,0.0367431640625
6.334,308,312,447,308,-8.0,34.0,45.0,-21.484373092651367,33.26416015625,-68.115234375,-0.091552734375,-0.448486328125,-0.163330078125
6.336,309,607,425,310,-8.0,34.0,45.0,-24.230955123901367,44.921871185302734,-63.903804779052734,-0.091552734375,-0.448486328125,-0.163330078125
6.336,309,579,414,310,-8.0,34.0,45.0,-23.986814498901367,42.419429779052734,-47.912593841552734,-0.3204345703125,-0.24462890625,-0.0157470703125
6.356,309,548,437,310,-8.0,34.0,45.0,-0.7324218153953552,17.822265625,-4.94384765625,-0.54736328125,0.255126953125,0.10107421875
6.357,310,552,447,310,-8.0,34.0,45.0,-0.7324218153953552,17.822265625,-4.94384765625,-0.615234375,0.5166015625,0.024658203125
6.362,308,547,467,309,-8.0,34.0,45.0,2.746581792831421,16.2353515625,14.587401390075684,-0.615234375,0.5166015625,0.024658203125
6.373,310,558,495,308,-10.0,39.0,42.0,-18.4326171875,15.747069358825684,27.160642623901367,-0.8255615234375,0.5267333984375,0.104248046875
6.382,310,572,506,310,-10.0,39.0,42.0,-18.4326171875,15.747069358825684,27.160642623901367,-0.857421875,0.350341796875,0.071533203125
6.390,308,585,519,310,-10.0,39.0,42.0,-16.05224609375,16.4794921875,20.996091842651367,-0.857421875,0.350341796875,0.071533203125
6.403,309,592,540,309,-10.0,39.0,42.0,-0.9155272841453552,19.71435546875,11.535643577575684,-0.9649658203125,0.2039794921875,-0.240478515625
6.412,309,601,555,310,-10.0,39.0,42.0,-0.9155272841453552,19.71435546875,11.535643577575684,-1.022705078125,0.1986083984375,-0.2855224609375
6.457,310,613,576,310,-10.0,39.0,42.0,-2.0751953125,15.991209983825684,11.413573265075684,-1.022705078125,0.1986083984375,-0.2855224609375
6.459,310,607,594,311,-10.0,39.0,42.0,-1.7089842557907104,2.746581792831421,12.268065452575684,-1.0531005859375,0.199951171875,-0.19677734375
6.459,310,618,601,311,-10.0,39.0,42.0,-1.7089842557907104,2.746581792831421,12.268065452575684,-1.02685546875,0.2330322265625,-0.1671142578125
6.460,308,325,606,294,-10.0,39.0,42.0,2.624511480331421,-0.54931640625,11.596678733825684,-1.02685546875,0.2330322265625,-0.1671142578125
6.463,308,308,614,309,-10.0,39.0,42.0,1.6479490995407104,-4.69970703125,5.737304210662842,-0.982666015625,0.257568359375,-0.1126708984375
6.471,307,310,619,310,-10.0,39.0,42.0,1.6479490995407104,-4.69970703125,5.737304210662842,-0.9755859375,0.255615234375,-0.09033203125
6.479,310,310,618,310,-7.0,37.0,45.0,-1.6479490995407104,-6.530761241912842,3.784179449081421,-0.9755859375,0.255615234375,-0.09033203125
6.493,309,310,628,308,-7.0,37.0,45.0,-3.479003667831421,-9.27734375,2.01416015625,-0.965576171875,0.2440185546875,-0.0780029296875
6.503,308,308,628,309,-7.0,37.0,45.0,-2.685546636581421,-10.009765625,0.7934569716453552,-0.96923828125,0.232421875,-0.07080078125
6.510,309,308,629,310,-7.0,37.0,45.0,-2.685546636581421,-10.009765625,0.7934569716453552,-0.978271484375,0.2191162109375,-0.0623779296875
6.524,308,310,635,308,-7.0,37.0,45.0,-1.8310545682907104,-9.521484375,-0.1220703050494194,-0.9862060546875,0.205078125,-0.0574951171875
6.540,310,310,639,308,-7.0,37.0,45.0,-2.25830078125,-8.4228515625,0.7324218153953552,-0.9942626953125,0.1884765625,-0.0594482421875
6.559,308,310,644,308,-7.0,37.0,45.0,-2.25830078125,-8.4228515625,0.7324218153953552,-1.0003662109375,0.17626953125,-0.0648193359375
6.559,308,310,648,311,-7.0,37.0,45.0,-2.50244140625,-6.530761241912842,4.57763671875,-0.996826171875,0.1751708984375,-0.069091796875
6.573,308,308,651,309,-7.0,37.0,45.0,-0.9155272841453552,-6.774901866912842,7.019042491912842,-0.985595703125,0.186767578125,-0.0751953125
6.574,308,309,654,290,-7.0,37.0,45.0,-0.9155272841453552,-6.774901866912842,7.019042491912842,-0.97265625,0.210205078125,-0.0797119140625
6.584,308,309,654,310,-10.0,37.0,47.0,0.8544921278953552,-8.48388671875,11.108397483825684,-0.9639892578125,0.2349853515625,-0.0787353515625
6.592,308,310,654,309,-10.0,37.0,47.0,0.3662109076976776,-8.9111328125,12.207030296325684,-0.96337890625,0.251220703125,-0.0765380859375
6.605,309,310,660,310,-10.0,37.0,47.0,0.3662109076976776,-8.9111328125,12.207030296325684,-0.962890625,0.2518310546875,-0.0772705078125
6.613,308,310,662,308,-10.0,37.0,47.0,-2.868652105331421,-9.27734375,13.488768577575684,-0.9564208984375,0.2327880859375,-0.0841064453125
6.621,308,309,662,308,-10.0,37.0,47.0,-5.554198741912842,-9.70458984375,14.709471702575684,-0.952880859375,0.205810546875,-0.098388671875
6.629,308,309,665,310,-10.0,37.0,47.0,-5.554198741912842,-9.70458984375,14.709471702575684,-0.9642333984375,0.1920166015625,-0.1090087890625
6.648,309,310,662,309,-10.0,37.0,47.0,-13.244627952575684,-10.559081077575684,19.6533203125,-0.989013671875,0.1966552734375,-0.107666015625
6.670,310,310,659,309,-10.0,37.0,47.0,-17.4560546875,-10.070799827575684,22.827146530151367,-1.013916015625,0.209228515625,-0.1044921875
6.671,308,310,646,308,-10.0,37.0,47.0,-22.521970748901367,-8.7890625,26.245115280151367,-1.0308837890625,0.21826171875,-0.107666015625
6.673,308,309,604,310,-10.0,38.0,47.0,-28.198240280151367,-7.446288585662842,30.273435592651367,-1.031982421875,0.2015380859375,-0.0992431640625
6.682,309,308,576,308,-10.0,38.0,47.0,-33.26416015625,-6.713866710662842,35.70556640625,-0.9967041015625,0.12353515625,-0.05322265625
6.689,310,308,549,310,-10.0,38.0,47.0,-35.33935546875,-7.019042491912842,44.006343841552734,-0.8648681640625,-0.0235595703125,0.0224609375
6.705,308,308,587,308,-10.0,38.0,47.0,-31.982419967651367,-10.131834983825684,55.603023529052734,-0.6082763671875,-0.15087890625,0.0625
6.711,309,308,660,309,-10.0,38.0,47.0,-17.08984375,-20.141599655151367,66.5283203125,-0.2606201171875,-0.1263427734375,0.0050048828125
6.719,308,310,780,310,-10.0,38.0,47.0,17.39501953125,-41.809078216552734,68.90869140625,0.08837890625,0.1689453125,-0.1572265625
6.734,310,456,996,310,-10.0,38.0,47.0,62.622066497802734,-72.93701171875,54.931636810302734,0.4405517578125,0.6201171875,-0.2386474609375
6.773,310,364,1098,311,-10.0,38.0,47.0,89.11132049560547,-98.69384002685547,24.353025436401367,0.7689208984375,0.8953857421875,-0.1531982421875
6.773,308,309,1216,309,-10.0,38.0,47.0,64.94140625,-99.79247283935547,-12.695311546325684,0.6337890625,0.9696044921875,-0.1112060546875
6.774,308,310,1379,310,-10.0,38.0,47.0,5.065917491912842,-79.7119140625,-48.400875091552734,-0.2310791015625,0.974853515625,-0.101318359375
6.774,310,310,1486,311,-7.0,35.0,51.0,-19.10400390625,-62.805171966552734,-76.904296875,-1.275390625,0.9993896484375,-0.0311279296875
6.779,308,310,1577,310,-7.0,35.0,51.0,13.244627952575684,-61.584468841552734,-91.18651580810547,-2.015380859375,1.1492919921875,0.1102294921875
6.793,308,310,1646,310,-7.0,35.0,51.0,46.447750091552734,-70.73974609375,-101.44042205810547,-2.447021484375,0.978759765625,0.496337890625
6.802,308,310,1646,312,-7.0,35.0,51.0,47.180171966552734,-82.09227752685547,-125.54930877685547,-2.532470703125,0.165283203125,0.880126953125
6.809,308,309,1572,310,-7.0,35.0,51.0,21.423337936401367,-80.50536346435547,-144.71435546875,-2.54052734375,-0.591552734375,0.72705078125
6.828,308,310,1512,310,-7.0,35.0,51.0,-2.929687261581421,-50.048824310302734,-128.11279296875,-2.1824951171875,-0.7412109375,0.01953125
6.831,308,308,1531,310,-7.0,35.0,51.0,5.187987804412842,1.7089842557907104,-89.17235565185547,-1.353271484375,-0.4696044921875,-0.568115234375
6.894,308,310,1458,308,-7.0,35.0,51.0,15.441893577575684,39.306640625,-42.968746185302734,-1.5155029296875,0.3349609375,0.344482421875
6.894,309,310,1404,308,-7.0,35.0,51.0,10.009765625,13.854979515075684,-24.963376998901367,-1.822265625,0.4913330078125,0.7735595703125
6.895,308,310,1355,310,-7.0,34.0,48.0,5.981444835662842,3.295898199081421,-8.4228515625,-1.7294921875,0.3712158203125,0.6317138671875
6.896,308,310,1255,310,-7.0,34.0,48.0,-11.169432640075684,20.996091842651367,-0.9155272841453552,-1.50244140625,0.087158203125,0.189453125
6.897,309,310,1178,309,-7.0,34.0,48.0,-31.982419967651367,48.950191497802734,3.234863042831421,-1.37060546875,-0.082763671875,-0.1527099609375
6.899,296,310,1082,310,-7.0,34.0,48.0,-41.320796966552734,66.46728515625,11.962889671325684,-1.326171875,-0.0206298828125,-0.23681640625
6.913,308,309,862,310,-7.0,34.0,48.0,-33.75244140625,67.32177734375,23.254392623901367,-1.200439453125,0.1787109375,-0.1617431640625
6.921,309,308,754,310,-7.0,34.0,48.0,-19.83642578125,57.983394622802734,27.893064498901367,-0.92626953125,0.2955322265625,-0.0557861328125
6.929,308,309,669,310,-7.0,34.0,48.0,-17.15087890625,47.912593841552734,19.6533203125,-0.584716796875,0.171875,0.04541015625
6.948,310,337,564,310,-7.0,34.0,48.0,-27.465818405151367,43.640132904052734,0.9155272841453552,-0.2283935546875,-0.1375732421875,0.0533447265625
6.976,308,363,536,310,-7.0,34.0,48.0,-36.43798828125,48.889156341552734,-17.02880859375,-0.0107421875,-0.329833984375,-0.083984375
6.977,310,628,509,310,-7.0,34.0,48.0,-36.0107421875,56.213375091552734,-23.193357467651367,-0.1064453125,-0.253662109375,-0.1688232421875
6.977,310,604,497,310,-6.0,37.0,45.0,-27.709959030151367,51.818843841552734,-17.9443359375,-0.6304931640625,0.0921630859375,-0.0345458984375
6.981,309,594,506,310,-6.0,37.0,45.0,-12.207030296325684,37.109375,-7.385253429412842,-0.6304931640625,0.0921630859375,-0.0345458984375
6.989,310,591,509,310,-6.0,37.0,45.0,4.82177734375,24.353025436401367,6.286620616912842,-0.7080078125,0.35400390625,-0.05224609375
7.005,310,588,518,309,-6.0,37.0,45.0,9.27734375,17.76123046875,19.775390625,-0.7381591796875,0.57958984375,0.0799560546875
7.014,310,599,523,310,-6.0,37.0,45.0,-0.6713866591453552,14.404295921325684,26.306150436401367,-0.7381591796875,0.57958984375,0.0799560546875
7.020,310,606,537,311,-6.0,37.0,45.0,-10.925292015075684,12.207030296325684,23.376462936401367,-0.7696533203125,0.437255859375,0.187255859375
7.033,308,629,579,309,-6.0,37.0,45.0,-11.474608421325684,11.962889671325684,14.709471702575684,-0.9349365234375,0.2208251953125,-0.0096435546875
7.041,310,630,601,310,-6.0,37.0,45.0,-5.493163585662842,13.854979515075684,5.981444835662842,-0.9349365234375,0.2208251953125,-0.0096435546875
7.053,310,639,604,310,-6.0,37.0,45.0,-1.3427733182907104,14.709471702575684,0.30517578125,-1.0087890625,0.236572265625,-0.1923828125
7.082,310,644,618,310,-6.0,37.0,45.0,-7.385253429412842,11.840819358825684,-2.13623046875,-1.1209716796875,0.173828125,-0.1195068359375
7.082,310,644,622,310,-8.0,35.0,49.0,-13.732909202575684,6.530761241912842,-1.4648436307907104,-1.1209716796875,0.173828125,-0.1195068359375
7.083,309,648,623,309,-8.0,35.0,49.0,-2.746581792831421,2.624511480331421,0.4882812201976776,-1.0726318359375,0.1361083984375,-0.0570068359375
7.088,310,649,630,310,-8.0,35.0,49.0,12.329100608825684,1.5258787870407104,0.7934569716453552,-1.02392578125,0.1341552734375,-0.0791015625
7.102,309,654,633,310,-8.0,35.0,49.0,13.122557640075684,1.5869139432907104,0.0,-0.994873046875,0.0770263671875,-0.0740966796875
7.113,310,654,634,310,-8.0,35.0,49.0,5.187987804412842,1.03759765625,0.7934569716453552,-0.994873046875,0.0770263671875,-0.0740966796875
7.118,310,653,634,310,-8.0,35.0,49.0,-0.4882812201976776,-0.30517578125,3.906249761581421,-0.996826171875,0.09619140625,-0.0687255859375
7.132,308,654,636,308,-8.0,35.0,49.0,-0.6103515625,-1.8920897245407104,7.019042491912842,-0.987060546875,0.1820068359375,-0.0662841796875
7.140,310,656,632,310,-8.0,35.0,49.0,1.220703125,-3.356933355331421,8.9111328125,-0.987060546875,0.1820068359375,-0.0662841796875
7.153,310,656,631,310,-8.0,35.0,49.0,1.5258787870407104,-4.39453125,10.070799827575684,-0.988525390625,0.198486328125,-0.03857421875
7.182,310,654,616,310,-8.0,35.0,49.0,-0.2441406100988388,-4.33349609375,11.352538108825684,-0.998291015625,0.1981201171875,0.0006103515625
7.182,310,654,609,310,-9.0,37.0,41.0,-3.784179449081421,-2.563476324081421,12.878417015075684,-1.003173828125,0.1837158203125,-0.00048828125
7.182,308,653,604,311,-9.0,37.0,41.0,-7.873534679412842,0.1831054538488388,14.221190452575684,-1.003173828125,0.1837158203125,-0.00048828125
7.192,309,644,594,310,-9.0,37.0,41.0,-11.474608421325684,4.82177734375,17.63916015625,-1.00341796875,0.1732177734375,-0.0194091796875
7.200,310,636,582,310,-9.0,37.0,41.0,-11.474608421325684,4.82177734375,17.63916015625,-1.0009765625,0.17919921875,-0.03076171875
7.208,310,584,572,310,-9.0,37.0,41.0,-10.803221702575684,6.286620616912842,20.202634811401367,-1.0009765625,0.17919921875,-0.03076171875
7.232,310,310,556,310,-9.0,37.0,41.0,-7.812499523162842,7.995604991912842,24.353025436401367,-0.9971923828125,0.1925048828125,-0.04443359375
7.233,306,312,547,310,-9.0,37.0,41.0,-7.812499523162842,7.995604991912842,24.353025436401367,-1.0037841796875,0.2047119140625,-0.0523681640625
7.238,308,310,546,310,-9.0,37.0,41.0,-5.859374523162842,8.1787109375,25.390623092651367,-1.0037841796875,0.2047119140625,-0.0523681640625
7.255,310,312,530,310,-9.0,37.0,41.0,-4.82177734375,7.629394054412842,26.245115280151367,-1.034423828125,0.2156982421875,-0.076416015625
7.290,310,310,517,308,-9.0,37.0,41.0,-4.82177734375,7.629394054412842,26.245115280151367,-1.0491943359375,0.2264404296875,-0.1019287109375
7.290,309,310,490,294,-10.0,39.0,49.0,-5.859374523162842,6.896972179412842,26.611326217651367,-1.0491943359375,0.2264404296875,-0.1019287109375
7.291,310,312,439,310,-10.0,39.0,49.0,-14.587401390075684,6.225585460662842,28.198240280151367,-0.940673828125,0.2374267578125,-0.1832275390625
7.291,310,328,414,294,-10.0,39.0,49.0,-14.587401390075684,6.225585460662842,28.198240280151367,-0.83984375,0.2320556640625,-0.2017822265625
7.298,309,329,402,310,-10.0,39.0,49.0,-24.414060592651367,5.310058116912842,28.442380905151367,-0.83984375,0.2320556640625,-0.2017822265625
7.312,308,310,396,309,-10.0,39.0,49.0,-36.4990234375,-4.45556640625,27.526853561401367,-0.575439453125,0.2459716796875,-0.1041259765625
7.322,309,310,407,309,-10.0,39.0,49.0,-29.296873092651367,-14.648436546325684,27.893064498901367,-0.3782958984375,0.225830078125,-0.1087646484375
7.328,308,308,414,310,-10.0,39.0,49.0,-29.296873092651367,-14.648436546325684,27.893064498901367,-0.1055908203125,0.2288818359375,-0.1458740234375
7.342,308,310,557,310,-10.0,39.0,49.0,-12.817381858825684,-39.73388671875,34.24072265625,0.271728515625,0.3109130859375,-0.0517578125
7.358,309,310,688,310,-10.0,39.0,49.0,-12.145995140075684,-52.185054779052734,28.381345748901367,0.576416015625,0.5029296875,0.1248779296875
7.358,308,309,861,310,-10.0,39.0,49.0,-12.145995140075684,-52.185054779052734,28.381345748901367,0.706787109375,0.6402587890625,0.182373046875
7.385,308,308,1143,309,-8.0,36.0,45.0,-31.372068405151367,-66.650390625,-22.094724655151367,0.4967041015625,0.606689453125,0.1591796875
7.388,308,307,1297,310,-8.0,36.0,45.0,-46.691890716552734,-64.27001953125,-52.917476654052734,-0.27490234375,0.5145263671875,0.2413330078125
7.388,309,310,1488,310,-8.0,36.0,45.0,-46.691890716552734,-64.27001953125,-52.917476654052734,-1.5098876953125,0.483154296875,0.3663330078125
7.402,308,308,1647,309,-8.0,36.0,45.0,-3.051757574081421,-55.541988372802734,-82.33641815185547,-2.4794921875,0.24365234375,0.4879150390625
7.410,309,308,1691,311,-8.0,36.0,45.0,34.24072265625,-65.24658203125,-87.95165252685547,-2.66552734375,-0.3702392578125,0.4935302734375
7.419,309,308,1721,308,-8.0,36.0,45.0,34.24072265625,-65.24658203125,-87.95165252685547,-2.706787109375,-0.6507568359375,0.234130859375
7.432,309,309,1642,310,-8.0,36.0,45.0,62.927242279052734,-53.710933685302734,-41.931148529052734,-2.8602294921875,-0.1298828125,-0.1416015625
7.440,308,308,1578,310,-8.0,36.0,45.0,64.697265625,-18.5546875,-1.5258787870407104,-2.314697265625,0.3331298828125,-0.42333984375
7.448,309,310,1568,311,-8.0,36.0,45.0,64.697265625,-18.5546875,-1.5258787870407104,-1.2823486328125,0.2008056640625,-0.3990478515625
7.462,308,308,1568,308,-8.0,36.0,45.0,7.446288585662842,53.771968841552734,10.620116233825684,-1.0516357421875,0.18115234375,-0.01953125
7.491,308,310,1536,309,-7.0,35.0,44.0,-32.40966796875,59.448238372802734,10.742186546325684,-1.611083984375,0.544677734375,0.4410400390625
7.492,308,310,1477,310,-7.0,35.0,44.0,-31.799314498901367,39.1845703125,15.197752952575684,-1.942626953125,0.855224609375,0.5908203125
7.492,308,290,1355,296,-7.0,35.0,44.0,-10.437010765075684,23.010251998901367,12.207030296325684,-1.7584228515625,0.8211669921875,0.3165283203125
7.500,310,308,1266,309,-7.0,35.0,44.0,-5.676269054412842,29.113767623901367,-1.0986328125,-1.477294921875,0.5501708984375,-0.110595703125
7.508,308,308,1173,312,-7.0,35.0,44.0,-16.78466796875,44.372554779052734,-15.563963890075684,-1.3216552734375,0.2755126953125,-0.36962890625
7.522,309,310,966,310,-7.0,35.0,44.0,-23.864744186401367,50.842281341552734,-22.766111373901367,-1.23583984375,0.1634521484375,-0.3922119140625
7.530,308,308,859,309,-7.0,35.0,44.0,-20.507810592651367,44.128414154052734,-21.728513717651367,-1.07373046875,0.228271484375,-0.2674560546875
7.538,310,310,741,310,-7.0,35.0,44.0,-16.29638671875,30.700681686401367,-19.6533203125,-0.8087158203125,0.279541015625,-0.09619140625
7.553,308,314,606,310,-7.0,35.0,44.0,-21.423337936401367,19.53125,-24.475095748901367,-0.5264892578125,0.1158447265625,0.0472412109375
7.585,309,689,537,309,-7.0,35.0,44.0,-31.738279342651367,16.845703125,-36.92626953125,-0.296875,-0.2569580078125,0.046630859375
7.586,310,639,498,310,-8.0,36.0,44.0,-32.8369140625,24.536130905151367,-47.119136810302734,-0.195068359375,-0.5135498046875,-0.140380859375
7.586,309,338,465,309,-8.0,36.0,44.0,-22.949216842651367,33.63037109375,-43.701168060302734,-0.2574462890625,-0.4442138671875,-0.2569580078125
7.598,310,578,454,310,-8.0,36.0,44.0,-16.05224609375,30.090330123901367,-28.686521530151367,-0.4359130859375,-0.218994140625,-0.1097412109375
7.599,309,545,454,294,-8.0,36.0,44.0,-14.099120140075684,16.7236328125,-12.756346702575684,-0.5928955078125,0.0089111328125,0.1160888671875
7.612,310,540,452,309,-8.0,36.0,44.0,-8.60595703125,8.7890625,-0.0610351525247097,-0.624755859375,0.253662109375,0.1865234375
7.620,310,543,452,310,-8.0,36.0,44.0,-5.249022960662842,11.291502952575684,11.230467796325684,-0.6103515625,0.4755859375,0.1524658203125
7.629,308,551,454,309,-8.0,36.0,44.0,-12.817381858825684,16.90673828125,19.8974609375,-0.6419677734375,0.5570068359375,0.1817626953125
7.642,312,574,467,310,-8.0,36.0,44.0,-23.315427780151367,19.10400390625,23.132322311401367,-0.6929931640625,0.451416015625,0.28466796875
7.650,310,588,481,310,-8.0,36.0,44.0,-23.254392623901367,17.9443359375,20.996091842651367,-0.76123046875,0.2640380859375,0.3157958984375
7.665,310,384,498,310,-8.0,36.0,44.0,-8.85009765625,17.02880859375,17.63916015625,-0.865966796875,0.168212890625,0.1761474609375
7.685,308,620,523,310,-8.0,38.0,46.0,10.742186546325684,17.51708984375,15.869139671325684,-0.9700927734375,0.189208984375,-0.0384521484375
7.687,310,631,542,310,-8.0,38.0,46.0,22.827146530151367,16.66259765625,15.136717796325684,-1.034912109375,0.2320556640625,-0.170654296875
7.688,311,642,558,309,-8.0,38.0,46.0,24.536130905151367,13.305663108825684,15.197752952575684,-1.0577392578125,0.2515869140625,-0.1873779296875
7.704,310,654,578,310,-8.0,38.0,46.0,22.155759811401367,9.09423828125,15.624999046325684,-1.046142578125,0.260498046875,-0.1552734375
7.711,310,324,590,310,-8.0,38.0,46.0,19.22607421875,5.371093273162842,14.770506858825684,-1.0155029296875,0.2568359375,-0.125732421875
7.719,309,316,594,308,-8.0,38.0,46.0,14.831542015075684,2.624511480331421,11.352538108825684,-0.999755859375,0.224853515625,-0.118896484375
7.732,312,673,604,308,-8.0,38.0,46.0,9.033203125,1.3427733182907104,6.835937023162842,-1.0223388671875,0.185546875,-0.1414794921875
7.740,310,314,606,309,-8.0,38.0,46.0,3.112792730331421,1.15966796875,3.784179449081421,-1.063232421875,0.1650390625,-0.1683349609375
7.748,309,310,607,308,-8.0,38.0,46.0,-1.8310545682907104,0.30517578125,3.479003667831421,-1.087646484375,0.153564453125,-0.163330078125
7.766,308,310,607,308,-8.0,37.0,44.0,-4.638671875,-2.01416015625,5.310058116912842,-1.078369140625,0.1473388671875,-0.1259765625
7.770,310,308,607,308,-8.0,37.0,44.0,-5.249022960662842,-4.69970703125,7.995604991912842,-1.0462646484375,0.1591796875,-0.08203125
7.791,308,309,607,308,-8.0,37.0,44.0,-4.5166015625,-6.408690929412842,9.8876953125,-1.0137939453125,0.1846923828125,-0.0440673828125
7.795,294,308,608,310,-8.0,37.0,44.0,-3.479003667831421,-6.774901866912842,10.009765625,-0.9747314453125,0.222900390625,-0.0008544921875
7.801,308,309,608,309,-8.0,37.0,44.0,-2.3193359375,-6.591796398162842,9.09423828125,-0.9747314453125,0.222900390625,-0.0008544921875
7.810,310,311,607,310,-8.0,37.0,44.0,-0.9155272841453552,-6.774901866912842,8.11767578125,-0.957275390625,0.2489013671875,-0.005126953125
7.822,308,311,606,310,-8.0,37.0,44.0,1.03759765625,-7.873534679412842,6.835937023162842,-0.9248046875,0.2728271484375,-0.0328369140625
7.833,309,309,604,309,-8.0,37.0,44.0,2.807616949081421,-9.6435546875,4.8828125,-0.9248046875,0.2728271484375,-0.0328369140625
7.838,308,309,600,310,-8.0,37.0,44.0,3.601073980331421,-11.413573265075684,2.807616949081421,-0.9227294921875,0.2479248046875,-0.0419921875
7.860,308,309,594,309,-8.0,37.0,44.0,2.624511480331421,-12.268065452575684,1.5869139432907104,-0.9635009765625,0.211181640625,-0.066162109375
7.860,308,309,591,309,-8.0,37.0,44.0,-1.03759765625,-11.840819358825684,1.7089842557907104,-0.9635009765625,0.211181640625,-0.066162109375
7.869,308,308,587,308,-6.0,36.0,46.0,-6.469726085662842,-10.803221702575684,2.807616949081421,-0.983154296875,0.1951904296875,-0.076904296875
7.890,308,309,582,308,-6.0,36.0,46.0,-11.413573265075684,-10.498045921325684,4.2724609375,-1.0203857421875,0.1873779296875,-0.0732421875
7.891,308,308,579,308,-6.0,36.0,46.0,-14.343260765075684,-11.779784202575684,5.676269054412842,-1.0203857421875,0.1873779296875,-0.0732421875
7.899,310,309,579,308,-6.0,36.0,46.0,-14.892577171325684,-13.854979515075684,7.080077648162842,-1.02783203125,0.18701171875,-0.05517578125
7.916,310,310,573,308,-6.0,36.0,46.0,-13.671874046325684,-15.258788108825684,8.9111328125,-0.9932861328125,0.1895751953125,-0.030517578125
7.920,310,310,568,311,-6.0,36.0,46.0,-12.084959983825684,-15.624999046325684,11.291502952575684,-0.9932861328125,0.1895751953125,-0.030517578125
7.928,308,309,568,310,-6.0,36.0,46.0,-10.925292015075684,-15.441893577575684,14.282225608825684,-0.9625244140625,0.1834716796875,-0.013427734375
7.942,308,310,578,310,-6.0,36.0,46.0,-11.108397483825684,-14.160155296325684,22.460935592651367,-0.919677734375,0.1541748046875,0.0244140625
7.950,308,310,585,309,-6.0,36.0,46.0,-11.108397483825684,-14.160155296325684,22.460935592651367,-0.8702392578125,0.115234375,0.020751953125
7.962,309,308,594,308,-6.0,36.0,46.0,-12.145995140075684,-13.671874046325684,28.015134811401367,-0.8702392578125,0.115234375,0.020751953125
7.972,309,310,623,308,-5.0,36.0,48.0,-14.648436546325684,-18.4326171875,41.564937591552734,-0.6044921875,0.1448974609375,-0.00634765625
8.043,308,310,698,308,-5.0,36.0,48.0,-14.648436546325684,-18.4326171875,41.564937591552734,-0.4716796875,0.22607421875,0.0062255859375
8.043,308,295,756,310,-5.0,36.0,48.0,-17.88330078125,-22.155759811401367,44.616695404052734,-0.4716796875,0.22607421875,0.0062255859375
8.043,308,310,1008,310,-5.0,36.0,48.0,10.742186546325684,-24.291990280151367,40.344234466552734,0.28369140625,0.0728759765625,0.00048828125
8.043,308,308,1133,310,-5.0,36.0,48.0,10.742186546325684,-24.291990280151367,40.344234466552734,0.70068359375,0.0604248046875,-0.08447265625
8.043,309,308,1234,310,-5.0,36.0,48.0,39.61181640625,-28.381345748901367,39.97802734375,0.70068359375,0.0604248046875,-0.08447265625
8.043,308,309,1377,308,-5.0,36.0,48.0,56.213375091552734,-65.3076171875,17.51708984375,-0.1060791015625,0.6944580078125,0.043701171875
8.043,309,310,1462,308,-5.0,36.0,48.0,56.213375091552734,-65.3076171875,17.51708984375,-0.9716796875,1.0001220703125,0.3131103515625
8.048,309,310,1577,310,-5.0,36.0,48.0,56.091304779052734,-85.02196502685547,-10.375975608825684,-0.9716796875,1.0001220703125,0.3131103515625
8.063,308,308,1691,310,-6.0,34.0,50.0,68.05419921875,-71.83837890625,-56.823726654052734,-2.18310546875,1.1343994140625,0.5511474609375
8.075,308,310,1723,308,-6.0,34.0,50.0,68.05419921875,-71.83837890625,-56.823726654052734,-2.32568359375,0.4730224609375,0.5382080078125
8.078,308,309,1742,313,-6.0,34.0,50.0,57.312007904052734,-55.908199310302734,-84.41161346435547,-2.32568359375,0.4730224609375,0.5382080078125
8.095,308,308,1686,311,-6.0,34.0,50.0,-7.385253429412842,-19.775390625,-86.42577362060547,-2.4910888671875,-0.56201171875,-0.1805419921875
8.102,309,310,1627,310,-6.0,34.0,50.0,-17.63916015625,3.417968511581421,-46.508785247802734,-2.0567626953125,-0.3321533203125,-0.526611328125
8.108,308,310,1565,310,-6.0,34.0,50.0,-17.63916015625,3.417968511581421,-46.508785247802734,-1.2578125,-0.04345703125,-0.5185546875
8.132,310,308,1559,310,-6.0,34.0,50.0,26.062009811401367,26.672361373901367,-5.859374523162842,-0.9639892578125,0.2999267578125,-0.052978515625
8.132,309,308,1540,309,-6.0,34.0,50.0,10.437010765075684,24.169919967651367,-5.432128429412842,-1.384765625,0.6676025390625,0.48681640625
8.138,309,309,1506,310,-6.0,34.0,50.0,10.437010765075684,24.169919967651367,-5.432128429412842,-1.8812255859375,0.75634765625,0.7470703125
8.152,309,310,1432,310,-6.0,34.0,50.0,-7.019042491912842,15.258788108825684,-8.6669921875,-1.87744140625,0.529541015625,0.6226806640625
8.160,308,308,1361,310,-8.0,34.0,49.0,-9.94873046875,28.076169967651367,-6.774901866912842,-1.6129150390625,0.2799072265625,0.2259521484375
8.168,310,310,1264,310,-8.0,34.0,49.0,-9.94873046875,28.076169967651367,-6.774901866912842,-1.404541015625,0.14404296875,-0.125
8.199,310,309,1078,309,-8.0,34.0,49.0,-23.925779342651367,61.279293060302734,8.6669921875,-1.3231201171875,0.11376953125,-0.21484375
8.199,308,309,957,308,-8.0,34.0,49.0,-15.441893577575684,59.814449310302734,16.11328125,-1.216064453125,0.2314453125,-0.124755859375
8.200,310,309,848,310,-8.0,34.0,49.0,-15.441893577575684,59.814449310302734,16.11328125,-0.9669189453125,0.3702392578125,-0.023681640625
8.212,309,310,676,310,-8.0,34.0,49.0,8.056640625,40.344234466552734,9.765625,-0.668701171875,0.3289794921875,0.020263671875
8.220,310,410,593,310,-8.0,34.0,49.0,2.624511480331421,37.109375,-8.97216796875,-0.4417724609375,0.062744140625,-0.0162353515625
8.229,309,693,523,309,-8.0,34.0,49.0,2.624511480331421,37.109375,-8.97216796875,-0.316162109375,-0.2515869140625,-0.1712646484375
8.245,309,599,465,310,-8.0,34.0,49.0,-7.568358898162842,50.903316497802734,-49.926753997802734,-0.2767333984375,-0.3411865234375,-0.368408203125
8.250,309,479,424,310,-8.0,34.0,49.0,-4.57763671875,52.062984466552734,-52.490230560302734,-0.375244140625,-0.2041015625,-0.4012451171875
8.258,310,503,400,310,-7.0,37.0,47.0,-7.629394054412842,36.7431640625,-45.410152435302734,-0.580810546875,-0.020751953125,-0.2489013671875
8.278,309,428,399,309,-7.0,37.0,47.0,-15.075682640075684,15.380858421325684,-34.3017578125,-0.6558837890625,0.2080078125,-0.127685546875
8.281,310,417,386,310,-7.0,37.0,47.0,-21.911619186401367,3.540038824081421,-21.850584030151367,-0.5732421875,0.46923828125,-0.0777587890625
8.303,308,395,383,308,-7.0,37.0,47.0,-35.5224609375,0.0610351525247097,-11.962889671325684,-0.558349609375,0.600830078125,0.0556640625
8.304,311,401,387,310,-7.0,37.0,47.0,-52.795406341552734,-2.13623046875,-5.981444835662842,-0.64208984375,0.5457763671875,0.2752685546875
8.311,308,398,394,309,-7.0,37.0,47.0,-56.396480560302734,-2.685546636581421,-3.967284917831421,-0.7060546875,0.3297119140625,0.45703125
8.318,310,413,402,310,-7.0,37.0,47.0,-39.85595703125,0.2441406100988388,-5.737304210662842,-0.7506103515625,0.0560302734375,0.48193359375
8.332,308,426,447,309,-7.0,37.0,47.0,-11.962889671325684,6.835937023162842,-6.164550304412842,-0.8248291015625,-0.0838623046875,0.3145751953125
8.345,309,438,465,310,-7.0,37.0,47.0,14.892577171325684,13.488768577575684,-1.5258787870407104,-0.90380859375,-0.044677734375,0.07275390625
8.356,310,447,496,308,-7.0,37.0,47.0,32.40966796875,15.136717796325684,5.981444835662842,-0.9635009765625,0.0594482421875,-0.1063232421875
8.362,310,465,537,308,-7.0,37.0,46.0,39.306640625,11.840819358825684,13.854979515075684,-1.001708984375,0.14599609375,-0.189697265625
8.370,310,475,557,308,-7.0,37.0,46.0,40.10009765625,7.324218273162842,20.507810592651367,-1.011962890625,0.2017822265625,-0.2088623046875
8.381,309,480,585,311,-7.0,37.0,46.0,36.4990234375,3.417968511581421,23.559568405151367,-0.996826171875,0.2303466796875,-0.1817626953125
8.410,308,340,619,309,-7.0,37.0,46.0,28.137205123901367,-0.30517578125,22.460935592651367,-0.9881591796875,0.2398681640625,-0.11865234375
8.411,309,496,639,310,-7.0,37.0,46.0,17.7001953125,-3.051757574081421,19.22607421875,-1.0106201171875,0.2459716796875,-0.057861328125
8.411,310,497,646,310,-7.0,37.0,46.0,9.27734375,-3.295898199081421,15.563963890075684,-1.0555419921875,0.2589111328125,-0.0396728515625
8.422,310,506,656,310,-7.0,37.0,46.0,3.723144292831421,-1.2817381620407104,12.023924827575684,-1.095947265625,0.2752685546875,-0.0595703125
8.430,309,509,657,310,-7.0,37.0,46.0,-0.4272460639476776,0.9155272841453552,8.60595703125,-1.1104736328125,0.272705078125,-0.0799560546875
8.438,310,508,653,310,-7.0,37.0,46.0,-3.906249761581421,1.5869139432907104,5.432128429412842,-1.0916748046875,0.233154296875,-0.077392578125
8.463,310,510,639,310,-7.0,37.0,46.0,-5.981444835662842,0.9765624403953552,3.234863042831421,-1.05615234375,0.1805419921875,-0.0614013671875
8.463,310,508,631,310,-7.0,37.0,43.0,-6.347655773162842,0.2441406100988388,2.990722417831421,-1.0244140625,0.1583251953125,-0.0496826171875
8.469,310,504,622,310,-7.0,37.0,43.0,-5.615233898162842,-0.3662109076976776,4.45556640625,-0.9993896484375,0.1766357421875,-0.043701171875
8.483,310,502,616,310,-7.0,37.0,43.0,-4.82177734375,-0.9765624403953552,6.103515148162842,-0.979248046875,0.2076416015625,-0.0386962890625
8.525,309,502,613,311,-7.0,37.0,43.0,-4.08935546875,-1.7089842557907104,6.835937023162842,-0.961669921875,0.2254638671875,-0.03759765625
8.544,310,498,608,310,-7.0,37.0,43.0,-3.356933355331421,-2.50244140625,6.713866710662842,-0.947998046875,0.227783203125,-0.0411376953125
8.545,308,495,606,310,-7.0,37.0,43.0,-2.624511480331421,-3.784179449081421,5.920409679412842,-0.940673828125,0.2183837890625,-0.04541015625
8.548,309,488,604,310,-7.0,37.0,43.0,-1.8920897245407104,-5.249022960662842,5.249022960662842,-0.937744140625,0.208984375,-0.0516357421875
8.588,309,488,606,310,-7.0,37.0,43.0,-1.7089842557907104,-6.530761241912842,5.371093273162842,-0.9404296875,0.212158203125,-0.058837890625
8.623,310,481,604,310,-7.0,37.0,43.0,-2.685546636581421,-7.629394054412842,6.103515148162842,-0.9521484375,0.222412109375,-0.0579833984375
8.623,310,457,601,309,-7.0,37.0,43.0,-4.0283203125,-8.7890625,6.774901866912842,-0.96826171875,0.2310791015625,-0.0469970703125
8.641,310,472,601,310,-9.0,37.0,43.0,-5.0048828125,-10.009765625,7.202147960662842,-0.983642578125,0.2325439453125,-0.033935546875
8.642,310,370,594,310,-9.0,37.0,43.0,-5.371093273162842,-11.169432640075684,7.141112804412842,-0.9908447265625,0.212158203125,-0.0201416015625
8.642,309,466,586,310,-9.0,37.0,43.0,-5.187987804412842,-12.207030296325684,6.958007335662842,-0.9908447265625,0.212158203125,-0.0201416015625
8.643,308,387,574,310,-9.0,37.0,43.0,-4.5166015625,-12.939452171325684,7.080077648162842,-0.9844970703125,0.197998046875,-0.020751953125
8.643,308,452,552,310,-9.0,37.0,43.0,-4.0283203125,-13.427733421325684,7.934569835662842,-1.019775390625,0.171142578125,-0.0264892578125
8.643,309,442,533,310,-9.0,37.0,43.0,-4.08935546875,-13.916014671325684,9.82666015625,-1.019775390625,0.171142578125,-0.0264892578125
8.643,310,438,512,309,-9.0,37.0,43.0,-4.57763671875,-14.526366233825684,12.939452171325684,-1.0546875,0.150390625,-0.0274658203125
8.644,310,438,467,308,-9.0,37.0,43.0,-4.33349609375,-15.502928733825684,24.902341842651367,-1.0025634765625,0.093994140625,-0.06103515625
8.645,309,439,439,310,-9.0,37.0,43.0,-4.33349609375,-15.502928733825684,24.902341842651367,-0.8873291015625,0.0640869140625,-0.094482421875
