time,compression0,compression1,compression2,compression3,magn_x,magn_y,magn_z,gyro_x,gyro_y,gyro_z,accel_x,accel_y,accel_z
0.016,310,753,648,308,-20.0,41.0,35.0,4.2724609375,1.0986328125,-3.601073980331421,-0.9029541015625,0.269775390625,-0.35205078125
0.020,310,751,644,309,-20.0,41.0,35.0,4.2724609375,1.0986328125,-3.601073980331421,-0.8988037109375,0.2655029296875,-0.357177734375
0.026,309,749,644,309,-20.0,41.0,35.0,4.33349609375,1.7700194120407104,-3.967284917831421,-0.8988037109375,0.2655029296875,-0.357177734375
0.039,310,747,642,309,-20.0,41.0,35.0,3.967284917831421,2.13623046875,-4.150390625,-0.8773193359375,0.2569580078125,-0.3499755859375
0.048,310,749,632,310,-18.0,45.0,41.0,3.967284917831421,2.13623046875,-4.150390625,-0.8621826171875,0.252685546875,-0.3370361328125
0.057,310,751,631,310,-18.0,45.0,41.0,3.234863042831421,2.197265625,-3.845214605331421,-0.8621826171875,0.252685546875,-0.3370361328125
0.081,310,766,631,310,-18.0,45.0,41.0,2.44140625,2.50244140625,-3.051757574081421,-0.8515625,0.25,-0.322021484375
0.081,309,771,631,310,-18.0,45.0,41.0,2.44140625,2.50244140625,-3.051757574081421,-0.86572265625,0.2503662109375,-0.33544921875
0.087,310,777,630,310,-18.0,45.0,41.0,3.295898199081421,2.44140625,-2.929687261581421,-0.86572265625,0.2503662109375,-0.33544921875
0.099,308,784,628,310,-18.0,45.0,41.0,5.676269054412842,1.3427733182907104,-2.990722417831421,-0.8800048828125,0.252197265625,-0.3699951171875
0.108,310,790,622,308,-18.0,45.0,41.0,5.676269054412842,1.3427733182907104,-2.990722417831421,-0.88427734375,0.2569580078125,-0.3675537109375
0.118,310,796,621,308,-18.0,45.0,41.0,5.310058116912842,0.6713866591453552,-2.929687261581421,-0.88427734375,0.2569580078125,-0.3675537109375
0.130,310,803,618,310,-18.0,45.0,41.0,2.624511480331421,0.1831054538488388,-3.051757574081421,-0.9090576171875,0.2576904296875,-0.367431640625
0.138,310,805,618,310,-18.0,45.0,41.0,2.624511480331421,0.1831054538488388,-3.051757574081421,-0.9197998046875,0.2503662109375,-0.372802734375
0.146,310,803,614,309,-18.0,45.0,41.0,1.8310545682907104,0.54931640625,-2.929687261581421,-0.9197998046875,0.2503662109375,-0.372802734375
0.181,310,805,604,310,-17.0,41.0,35.0,-0.6103515625,1.0986328125,-0.7324218153953552,-0.9111328125,0.2554931640625,-0.37158203125
0.182,309,805,601,310,-17.0,41.0,35.0,-0.6103515625,1.0986328125,-0.7324218153953552,-0.900390625,0.256103515625,-0.3675537109375
0.190,310,805,594,310,-17.0,41.0,35.0,-3.173827886581421,1.7089842557907104,0.2441406100988388,-0.8955078125,0.260009765625,-0.3623046875
0.198,310,805,594,310,-17.0,41.0,35.0,-4.0283203125,2.01416015625,0.3662109076976776,-0.895263671875,0.26806640625,-0.357421875
0.206,311,805,590,310,-17.0,41.0,35.0,-4.0283203125,2.01416015625,0.3662109076976776,-0.890869140625,0.2733154296875,-0.3543701171875
0.224,310,803,587,310,-17.0,41.0,35.0,-2.990722417831421,3.051757574081421,-1.03759765625,-0.8817138671875,0.270751953125,-0.351318359375
0.228,310,799,582,309,-17.0,41.0,35.0,-2.13623046875,3.540038824081421,-2.13623046875,-0.879638671875,0.2635498046875,-0.347412109375
0.242,310,797,582,310,-17.0,41.0,35.0,-2.13623046875,3.540038824081421,-2.13623046875,-0.8896484375,0.2591552734375,-0.3466796875
0.249,309,785,582,308,-19.0,43.0,37.0,-1.5869139432907104,4.21142578125,-3.173827886581421,-0.9013671875,0.2601318359375,-0.348388671875
0.262,309,782,579,308,-19.0,43.0,37.0,-1.2817381620407104,4.638671875,-3.479003667831421,-0.90576171875,0.26220703125,-0.350341796875
0.284,310,780,576,310,-19.0,43.0,37.0,-1.2817381620407104,4.638671875,-3.479003667831421,-0.90380859375,0.2591552734375,-0.3521728515625
0.285,310,775,576,310,-19.0,43.0,37.0,-0.30517578125,5.981444835662842,-4.0283203125,-0.8994140625,0.2513427734375,-0.353759765625
0.288,309,770,574,309,-19.0,43.0,37.0,0.2441406100988388,6.408690929412842,-3.784179449081421,-0.89697265625,0.24267578125,-0.3587646484375
0.296,310,766,566,310,-19.0,43.0,37.0,0.2441406100988388,6.408690929412842,-3.784179449081421,-0.8953857421875,0.238037109375,-0.3673095703125
0.310,310,758,554,310,-19.0,43.0,37.0,2.13623046875,5.249022960662842,-2.01416015625,-0.892822265625,0.2421875,-0.374755859375
0.318,308,751,551,310,-19.0,43.0,37.0,2.868652105331421,4.39453125,-1.3427733182907104,-0.8922119140625,0.252685546875,-0.3797607421875
0.332,310,744,547,310,-19.0,43.0,37.0,3.173827886581421,4.0283203125,-1.220703125,-0.8951416015625,0.262939453125,-0.38134765625
0.340,310,739,543,308,-19.0,43.0,37.0,2.990722417831421,4.08935546875,-1.6479490995407104,-0.898193359375,0.265625,-0.3780517578125
0.355,310,725,540,310,-18.0,42.0,36.0,2.746581792831421,4.33349609375,-2.197265625,-0.8984375,0.260009765625,-0.3719482421875
0.356,310,718,533,309,-18.0,42.0,36.0,2.44140625,4.57763671875,-2.50244140625,-0.8970947265625,0.252685546875,-0.3660888671875
0.387,308,705,530,310,-18.0,42.0,36.0,2.13623046875,4.7607421875,-2.50244140625,-0.8966064453125,0.248779296875,-0.3612060546875
0.388,310,697,527,310,-18.0,42.0,36.0,2.0751953125,4.94384765625,-2.38037109375,-0.8951416015625,0.24853515625,-0.35791015625
0.388,308,691,522,308,-18.0,42.0,36.0,2.685546636581421,5.126952648162842,-2.25830078125,-0.8905029296875,0.2476806640625,-0.35693359375
0.400,308,674,513,310,-18.0,42.0,36.0,3.601073980331421,5.371093273162842,-2.197265625,-0.8843994140625,0.2454833984375,-0.3582763671875
0.408,310,668,509,309,-18.0,42.0,36.0,4.57763671875,5.676269054412842,-2.13623046875,-0.881591796875,0.2451171875,-0.36181640625
0.416,310,657,508,309,-18.0,42.0,36.0,5.371093273162842,5.920409679412842,-2.13623046875,-0.88525390625,0.24609375,-0.3690185546875
0.439,309,644,499,310,-18.0,42.0,36.0,5.920409679412842,5.981444835662842,-2.197265625,-0.8900146484375,0.2442626953125,-0.3773193359375
0.439,308,639,495,310,-18.0,42.0,36.0,6.042479991912842,5.859374523162842,-2.25830078125,-0.8870849609375,0.240234375,-0.3797607421875
0.446,310,636,493,310,-17.0,42.0,37.0,5.798339366912842,5.676269054412842,-2.3193359375,-0.875,0.2371826171875,-0.3779296875
0.481,310,639,488,310,-17.0,42.0,37.0,5.371093273162842,5.493163585662842,-2.197265625,-0.860595703125,0.23388671875,-0.3779296875
0.489,308,636,488,310,-17.0,42.0,37.0,4.69970703125,5.0048828125,-1.8920897245407104,-0.853271484375,0.2294921875,-0.3797607421875
0.489,310,642,490,309,-17.0,42.0,37.0,4.08935546875,4.0283203125,-1.4648436307907104,-0.8587646484375,0.2291259765625,-0.3836669921875
0.490,298,644,488,310,-17.0,42.0,37.0,3.723144292831421,2.746581792831421,-0.9765624403953552,-0.8753662109375,0.234375,-0.390869140625
0.498,310,644,488,309,-17.0,42.0,37.0,3.417968511581421,1.4038084745407104,-0.7324218153953552,-0.8916015625,0.24072265625,-0.3956298828125
0.506,310,644,488,310,-17.0,42.0,37.0,2.990722417831421,0.4882812201976776,-0.6713866591453552,-0.8973388671875,0.2451171875,-0.392822265625
0.520,310,653,490,311,-17.0,42.0,37.0,2.38037109375,0.1220703050494194,-0.7934569716453552,-0.8905029296875,0.2471923828125,-0.3843994140625
0.528,310,657,491,309,-17.0,42.0,37.0,1.7089842557907104,0.2441406100988388,-1.03759765625,-0.8748779296875,0.2486572265625,-0.373779296875
0.543,310,663,493,309,-17.0,42.0,37.0,1.220703125,0.6713866591453552,-1.4648436307907104,-0.861083984375,0.24951171875,-0.365966796875
0.550,308,674,497,310,-18.0,41.0,36.0,1.4038084745407104,1.03759765625,-2.0751953125,-0.8603515625,0.2467041015625,-0.3680419921875
0.558,310,678,498,309,-18.0,41.0,36.0,1.8310545682907104,1.0986328125,-2.624511480331421,-0.8726806640625,0.2391357421875,-0.37939453125
0.569,310,685,499,310,-18.0,41.0,36.0,2.25830078125,0.6103515625,-2.807616949081421,-0.88720703125,0.23291015625,-0.3914794921875
0.589,307,691,506,310,-18.0,41.0,36.0,2.624511480331421,-0.30517578125,-2.563476324081421,-0.892578125,0.2342529296875,-0.39794921875
0.589,310,695,512,310,-18.0,41.0,36.0,2.807616949081421,-1.3427733182907104,-2.0751953125,-0.8873291015625,0.239013671875,-0.39697265625
0.596,310,698,512,308,-18.0,41.0,36.0,2.563476324081421,-2.25830078125,-1.8310545682907104,-0.8790283203125,0.242919921875,-0.3890380859375
0.610,310,711,522,310,-18.0,41.0,36.0,2.25830078125,-2.929687261581421,-1.8310545682907104,-0.8758544921875,0.2469482421875,-0.38134765625
0.618,310,714,526,310,-18.0,41.0,36.0,2.0751953125,-3.173827886581421,-2.3193359375,-0.87841796875,0.24853515625,-0.37841796875
0.626,310,718,529,310,-18.0,41.0,36.0,1.9531248807907104,-3.173827886581421,-3.173827886581421,-0.8829345703125,0.2464599609375,-0.3768310546875
0.640,308,728,533,310,-18.0,41.0,36.0,1.8920897245407104,-3.173827886581421,-3.967284917831421,-0.8935546875,0.2423095703125,-0.38427734375
0.649,310,728,535,310,-20.0,41.0,39.0,2.13623046875,-3.479003667831421,-4.5166015625,-0.8935546875,0.2423095703125,-0.38427734375
0.656,308,731,538,308,-20.0,41.0,39.0,2.868652105331421,-4.0283203125,-4.82177734375,-0.8974609375,0.24267578125,-0.392578125
0.672,308,738,542,308,-20.0,41.0,39.0,3.417968511581421,-4.69970703125,-4.8828125,-0.9058837890625,0.24560546875,-0.3973388671875
0.693,310,739,547,310,-20.0,41.0,39.0,3.601073980331421,-5.126952648162842,-4.8828125,-0.9058837890625,0.24560546875,-0.3973388671875
0.695,310,741,551,310,-20.0,41.0,39.0,3.845214605331421,-5.554198741912842,-5.065917491912842,-0.9112548828125,0.247314453125,-0.3917236328125
0.701,310,741,556,310,-20.0,41.0,39.0,4.8828125,-6.103515148162842,-5.493163585662842,-0.925537109375,0.2506103515625,-0.37890625
0.708,310,740,557,310,-20.0,41.0,39.0,6.286620616912842,-6.530761241912842,-6.164550304412842,-0.925537109375,0.2506103515625,-0.37890625
0.716,310,733,557,309,-20.0,41.0,39.0,7.446288585662842,-6.347655773162842,-7.080077648162842,-0.9326171875,0.2474365234375,-0.38330078125
0.755,310,726,562,309,-20.0,41.0,39.0,8.11767578125,-5.249022960662842,-7.995604991912842,-0.928466796875,0.2274169921875,-0.4119873046875
0.755,310,714,561,310,-20.0,41.0,39.0,7.202147960662842,-3.479003667831421,-8.6669921875,-0.928466796875,0.2274169921875,-0.4119873046875
0.760,310,710,564,310,-20.0,43.0,37.0,4.7607421875,-2.0751953125,-9.033203125,-0.917236328125,0.2174072265625,-0.4195556640625
0.764,310,691,566,310,-20.0,43.0,37.0,1.8920897245407104,-1.5869139432907104,-8.9111328125,-0.9039306640625,0.2216796875,-0.4144287109375
0.788,310,678,568,309,-20.0,43.0,37.0,-1.220703125,-1.7700194120407104,-8.36181640625,-0.90576171875,0.2222900390625,-0.397216796875
0.789,309,659,574,310,-20.0,43.0,37.0,-4.39453125,-2.25830078125,-7.934569835662842,-0.90576171875,0.2222900390625,-0.397216796875
0.795,308,628,579,309,-20.0,43.0,37.0,-8.9111328125,-3.356933355331421,-7.385253429412842,-0.9039306640625,0.227783203125,-0.3575439453125
0.798,310,607,585,309,-20.0,43.0,37.0,-8.9111328125,-3.356933355331421,-7.385253429412842,-0.9071044921875,0.2205810546875,-0.3358154296875
0.806,309,584,587,309,-20.0,43.0,37.0,-8.6669921875,-3.845214605331421,-7.202147960662842,-0.9071044921875,0.2205810546875,-0.3358154296875
0.820,309,552,594,310,-20.0,43.0,37.0,-6.408690929412842,-2.38037109375,-6.164550304412842,-0.88916015625,0.2076416015625,-0.3629150390625
0.828,310,525,601,310,-20.0,43.0,37.0,-6.408690929412842,-2.38037109375,-6.164550304412842,-0.8856201171875,0.225341796875,-0.3807373046875
0.836,310,510,603,309,-20.0,43.0,37.0,-7.873534679412842,-2.01416015625,-5.798339366912842,-0.8856201171875,0.225341796875,-0.3807373046875
0.849,309,495,600,310,-16.0,43.0,33.0,-7.019042491912842,-4.21142578125,-7.141112804412842,-0.9051513671875,0.2301025390625,-0.379638671875
0.863,308,482,598,310,-16.0,43.0,33.0,-7.019042491912842,-4.21142578125,-7.141112804412842,-0.9193115234375,0.223388671875,-0.37646484375
0.866,308,477,594,310,-16.0,43.0,33.0,-5.249022960662842,-6.042479991912842,-7.812499523162842,-0.9193115234375,0.223388671875,-0.37646484375
0.893,308,454,592,310,-16.0,43.0,33.0,-4.7607421875,-8.85009765625,-8.30078125,-0.945068359375,0.2115478515625,-0.3751220703125
0.899,310,449,594,308,-16.0,43.0,33.0,-4.7607421875,-8.85009765625,-8.30078125,-0.94677734375,0.207275390625,-0.3714599609375
0.899,308,424,576,310,-16.0,43.0,33.0,-5.737304210662842,-9.58251953125,-7.812499523162842,-0.94677734375,0.207275390625,-0.3714599609375
0.910,309,423,558,310,-16.0,43.0,33.0,-8.4228515625,-10.009765625,-5.493163585662842,-0.9388427734375,0.217529296875,-0.3668212890625
0.918,310,418,551,310,-16.0,43.0,33.0,-9.82666015625,-10.314940452575684,-4.5166015625,-0.931640625,0.22509765625,-0.3592529296875
0.926,308,411,538,310,-16.0,43.0,33.0,-9.82666015625,-10.314940452575684,-4.5166015625,-0.924560546875,0.236572265625,-0.35107421875
0.939,308,414,527,308,-16.0,43.0,33.0,-13.732909202575684,-11.779784202575684,-4.08935546875,-0.913818359375,0.239990234375,-0.348876953125
0.948,310,411,519,310,-15.0,41.0,34.0,-15.258788108825684,-13.183592796325684,-4.638671875,-0.8974609375,0.2269287109375,-0.3499755859375
0.956,309,414,513,310,-15.0,41.0,34.0,-15.258788108825684,-13.183592796325684,-4.638671875,-0.8875732421875,0.207275390625,-0.3466796875
0.969,310,414,506,310,-15.0,41.0,34.0,-13.305663108825684,-16.90673828125,-5.249022960662842,-0.8956298828125,0.197265625,-0.3363037109375
0.978,310,415,504,310,-15.0,41.0,34.0,-12.084959983825684,-18.798828125,-4.69970703125,-0.9083251953125,0.2017822265625,-0.3165283203125
1.001,309,414,504,309,-15.0,41.0,34.0,-12.084959983825684,-18.798828125,-4.69970703125,-0.9013671875,0.20458984375,-0.291015625
1.002,310,414,504,309,-15.0,41.0,34.0,-10.986327171325684,-21.850584030151367,-3.967284917831421,-0.8663330078125,0.19775390625,-0.270751953125
1.008,309,411,506,310,-15.0,41.0,34.0,-9.70458984375,-22.705076217651367,-4.0283203125,-0.81494140625,0.1817626953125,-0.26416015625
1.016,310,410,508,310,-15.0,41.0,34.0,-9.70458984375,-22.705076217651367,-4.0283203125,-0.76953125,0.152587890625,-0.275146484375
1.030,310,410,509,310,-15.0,41.0,34.0,-3.784179449081421,-23.071287155151367,-4.0283203125,-0.7445068359375,0.11328125,-0.298828125
1.038,309,398,517,309,-15.0,41.0,34.0,1.7700194120407104,-23.315427780151367,-2.929687261581421,-0.74072265625,0.0838623046875,-0.319091796875
1.046,310,401,545,310,-16.0,41.0,41.0,1.7700194120407104,-23.315427780151367,-2.929687261581421,-0.7388916015625,0.088623046875,-0.3114013671875
1.059,309,481,620,309,-16.0,41.0,41.0,15.319823265075684,-29.724119186401367,3.662109136581421,-0.7158203125,0.1116943359375,-0.271728515625
1.082,310,579,673,309,-16.0,41.0,41.0,20.263669967651367,-35.70556640625,7.324218273162842,-0.697265625,0.1265869140625,-0.234619140625
1.082,296,657,723,308,-16.0,41.0,41.0,26.062009811401367,-41.259761810302734,10.620116233825684,-0.6998291015625,0.151123046875,-0.2310791015625
1.104,310,785,782,310,-16.0,41.0,41.0,33.3251953125,-46.508785247802734,13.488768577575684,-0.7125244140625,0.1949462890625,-0.25927734375
1.104,310,849,837,289,-16.0,41.0,41.0,38.4521484375,-52.551265716552734,15.319823265075684,-0.73681640625,0.232666015625,-0.304443359375
1.107,310,938,877,309,-16.0,41.0,41.0,38.02490234375,-59.509273529052734,16.11328125,-0.7515869140625,0.257568359375,-0.357421875
1.121,310,1081,973,310,-16.0,41.0,41.0,32.2265625,-65.7958984375,16.90673828125,-0.7379150390625,0.2747802734375,-0.3929443359375
1.129,310,1153,1011,310,-16.0,41.0,41.0,22.399900436401367,-71.59423828125,17.333984375,-0.7303466796875,0.26416015625,-0.36962890625
1.143,310,1211,1092,310,-16.0,41.0,41.0,10.314940452575684,-80.01708984375,15.624999046325684,-0.7337646484375,0.218505859375,-0.3028564453125
1.151,310,1316,1231,310,-16.0,38.0,41.0,-2.868652105331421,-89.35546112060547,12.207030296325684,-0.6851806640625,0.1365966796875,-0.27587890625
1.159,310,1352,1300,310,-16.0,38.0,41.0,-22.827146530151367,-88.31786346435547,7.873534679412842,-0.6343994140625,0.0430908203125,-0.30859375
1.167,308,1407,1390,310,-16.0,38.0,41.0,-53.161617279052734,-72.3876953125,5.0048828125,-0.684814453125,0.028564453125,-0.316650390625
1.204,309,1485,1509,311,-16.0,38.0,41.0,-84.89989471435547,-52.307125091552734,6.164550304412842,-0.8175048828125,0.1478271484375,-0.251708984375
1.204,311,1535,1572,310,-16.0,38.0,41.0,-108.21532440185547,-40.344234466552734,8.1787109375,-0.9677734375,0.3248291015625,-0.1588134765625
1.204,298,1562,1622,310,-16.0,38.0,41.0,-122.13134002685547,-37.78076171875,5.859374523162842,-1.119384765625,0.4228515625,-0.06396484375
1.211,310,1611,1704,310,-16.0,38.0,41.0,-129.08935546875,-37.109375,0.4882812201976776,-1.2545166015625,0.390869140625,0.045654296875
1.219,310,1640,1742,310,-16.0,38.0,41.0,-127.13622283935547,-32.28759765625,-2.685546636581421,-1.3551025390625,0.29248046875,0.109375
1.227,310,1662,1761,311,-16.0,38.0,41.0,-110.83983612060547,-21.240232467651367,-1.2817381620407104,-1.4202880859375,0.244384765625,0.11669921875
1.241,311,1682,1803,310,-12.0,38.0,51.0,-81.66503143310547,-9.033203125,2.807616949081421,-1.448486328125,0.32275390625,0.09521484375
1.256,310,1683,1806,311,-12.0,38.0,51.0,-50.415035247802734,-0.4882812201976776,5.981444835662842,-1.471435546875,0.4876708984375,0.002685546875
1.257,310,1665,1795,310,-12.0,38.0,51.0,-28.442380905151367,5.981444835662842,5.249022960662842,-1.49072265625,0.59375,-0.103515625
1.270,310,1652,1781,311,-12.0,38.0,51.0,-17.15087890625,12.268065452575684,-1.03759765625,-1.369140625,0.5111083984375,-0.1241455078125
1.295,311,1642,1775,312,-12.0,38.0,51.0,-7.751464366912842,20.01953125,-11.047362327575684,-1.0897216796875,0.3753662109375,-0.0723876953125
1.308,310,1640,1763,310,-12.0,38.0,51.0,1.03759765625,27.832029342651367,-20.446775436401367,-0.9893798828125,0.402099609375,-0.050537109375
1.309,310,1602,1730,312,-12.0,38.0,51.0,3.234863042831421,33.3251953125,-27.832029342651367,-1.6658935546875,0.4056396484375,-0.34033203125
1.309,311,1569,1694,310,-12.0,38.0,51.0,-0.7324218153953552,37.9638671875,-32.40966796875,-1.6658935546875,0.4056396484375,-0.34033203125
1.317,310,1531,1646,311,-12.0,38.0,51.0,-6.225585460662842,40.283199310302734,-32.28759765625,-1.8004150390625,0.1925048828125,-0.4107666015625
1.331,312,1428,1529,310,-12.0,38.0,51.0,-10.009765625,38.26904296875,-27.404783248901367,-1.489013671875,0.1575927734375,-0.1778564453125
1.339,310,1336,1432,310,-11.0,40.0,42.0,-9.21630859375,36.2548828125,-20.629880905151367,-1.489013671875,0.1575927734375,-0.1778564453125
1.349,310,1216,1338,312,-11.0,40.0,42.0,-4.08935546875,39.1845703125,-15.808104515075684,-1.310791015625,0.266845703125,-0.080322265625
1.360,309,989,1129,310,-11.0,40.0,42.0,2.38037109375,46.508785247802734,-15.197752952575684,-0.9713134765625,0.2177734375,0.008056640625
1.369,310,823,1017,310,-11.0,40.0,42.0,10.253905296325684,53.283687591552734,-18.49365234375,-0.9713134765625,0.2177734375,0.008056640625
1.377,308,688,913,310,-11.0,40.0,42.0,19.8974609375,54.138179779052734,-23.071287155151367,-0.757568359375,0.0703125,0.145263671875
1.411,310,464,772,309,-11.0,40.0,42.0,31.860349655151367,50.964351654052734,-26.062009811401367,-0.4495849609375,-0.1849365234375,0.1749267578125
1.412,308,382,673,310,-11.0,40.0,42.0,48.095699310302734,51.086421966552734,-27.282712936401367,-0.4495849609375,-0.1849365234375,0.1749267578125
1.412,310,365,601,298,-11.0,40.0,42.0,67.81005859375,55.725093841552734,-26.000974655151367,-0.4827880859375,-0.13330078125,0.000244140625
1.421,310,367,533,310,-11.0,40.0,42.0,81.05467987060547,59.020992279052734,-16.7236328125,-0.6651611328125,0.414794921875,-0.450927734375
1.429,308,364,495,308,-11.0,40.0,42.0,75.5615234375,55.541988372802734,0.4882812201976776,-0.6651611328125,0.414794921875,-0.450927734375
1.437,310,369,456,308,-13.0,42.0,42.0,49.804683685302734,44.311519622802734,16.41845703125,-0.8084716796875,0.66796875,-0.546875
1.451,310,369,430,310,-13.0,42.0,42.0,-44.372554779052734,1.7700194120407104,22.094724655151367,-0.78271484375,0.51513671875,-0.200927734375
1.459,310,371,420,312,-13.0,42.0,42.0,-44.372554779052734,1.7700194120407104,22.094724655151367,-0.72216796875,0.2093505859375,-0.0816650390625
1.467,310,368,411,309,-13.0,42.0,42.0,-73.2421875,-9.70458984375,7.385253429412842,-0.72216796875,0.2093505859375,-0.0816650390625
1.481,308,371,428,309,-13.0,42.0,42.0,-50.964351654052734,-10.437010765075684,-9.1552734375,-0.67333984375,-0.0068359375,-0.2052001953125
1.492,308,371,437,309,-13.0,42.0,42.0,-50.964351654052734,-10.437010765075684,-9.1552734375,-0.6129150390625,-0.0341796875,-0.2947998046875
1.512,308,372,447,309,-13.0,42.0,42.0,-29.785154342651367,-12.023924827575684,-4.82177734375,-0.6129150390625,-0.0341796875,-0.2947998046875
1.512,308,363,490,309,-13.0,42.0,42.0,5.249022960662842,-11.535643577575684,4.82177734375,-0.5960693359375,-0.1851806640625,-0.4647216796875
1.521,308,379,509,309,-13.0,42.0,42.0,5.249022960662842,-11.535643577575684,4.82177734375,-0.67138671875,-0.185791015625,-0.5068359375
1.527,310,386,548,310,-13.0,42.0,42.0,20.751951217651367,-8.11767578125,10.253905296325684,-0.67138671875,-0.185791015625,-0.5068359375
1.541,309,389,600,309,-14.0,40.0,38.0,30.578611373901367,-11.718749046325684,20.629880905151367,-0.8284912109375,0.1107177734375,-0.37060546875
1.551,310,385,636,310,-14.0,40.0,38.0,30.578611373901367,-11.718749046325684,20.629880905151367,-0.8436279296875,0.246337890625,-0.2275390625
1.557,310,423,673,312,-14.0,40.0,38.0,13.488768577575684,-20.507810592651367,23.742673873901367,-0.8436279296875,0.246337890625,-0.2275390625
1.571,309,523,724,308,-14.0,40.0,38.0,-13.305663108825684,-26.428220748901367,22.705076217651367,-0.8048095703125,0.275146484375,-0.122314453125
1.579,309,616,726,310,-14.0,40.0,38.0,-13.305663108825684,-26.428220748901367,22.705076217651367,-0.782470703125,0.28759765625,-0.1470947265625
1.619,310,696,750,310,-14.0,40.0,38.0,-7.995604991912842,-25.024412155151367,20.874021530151367,-0.782470703125,0.28759765625,-0.1470947265625
1.619,310,856,780,310,-14.0,40.0,38.0,10.803221702575684,-32.3486328125,12.573241233825684,-0.7706298828125,0.3216552734375,-0.260986328125
1.619,310,943,832,310,-14.0,40.0,38.0,10.131834983825684,-42.724605560302734,6.958007335662842,-0.74462890625,0.2698974609375,-0.3006591796875
1.620,310,1022,893,310,-14.0,40.0,38.0,10.131834983825684,-42.724605560302734,6.958007335662842,-0.6817626953125,0.227783203125,-0.3309326171875
1.631,309,1157,1026,308,-14.0,40.0,38.0,-11.413573265075684,-60.119625091552734,6.530761241912842,-0.5728759765625,0.2034912109375,-0.32421875
1.639,310,1236,1137,309,-13.0,39.0,41.0,-35.09521484375,-64.51416015625,9.21630859375,-0.438720703125,0.1490478515625,-0.21630859375
1.647,310,1323,1255,310,-13.0,39.0,41.0,-35.09521484375,-64.51416015625,9.21630859375,-0.3616943359375,0.0633544921875,-0.0528564453125
1.661,310,1462,1434,310,-13.0,39.0,41.0,-82.64159393310547,-64.51416015625,-1.6479490995407104,-0.4295654296875,-0.04931640625,-0.0013427734375
1.669,310,1518,1516,310,-13.0,39.0,41.0,-88.31786346435547,-55.969234466552734,-8.4228515625,-0.625,-0.1033935546875,-0.053955078125
1.677,310,1566,1567,310,-13.0,39.0,41.0,-88.31786346435547,-55.969234466552734,-8.4228515625,-0.88720703125,0.058837890625,-0.042724609375
1.697,308,1632,1653,310,-13.0,39.0,41.0,-79.77294921875,-39.85595703125,4.94384765625,-1.1407470703125,0.3533935546875,0.0660400390625
1.713,310,1665,1697,310,-13.0,39.0,41.0,-72.021484375,-39.00146484375,13.122557640075684,-1.3385009765625,0.5458984375,0.2093505859375
1.719,310,1682,1730,314,-13.0,39.0,41.0,-72.021484375,-39.00146484375,13.122557640075684,-1.5302734375,0.6251220703125,0.25390625
1.721,298,1718,1761,310,-13.0,39.0,41.0,-34.36279296875,-30.517576217651367,16.7236328125,-1.716552734375,0.69677734375,0.1820068359375
1.729,311,1723,1781,310,-13.0,39.0,41.0,-7.324218273162842,-26.367185592651367,16.6015625,-1.8397216796875,0.724853515625,0.1214599609375
1.738,310,1724,1778,310,-11.0,37.0,45.0,15.930174827575684,-23.376462936401367,12.573241233825684,-1.8670654296875,0.664306640625,0.0322265625
1.746,309,1725,1785,310,-11.0,37.0,45.0,15.930174827575684,-23.376462936401367,12.573241233825684,-1.706787109375,0.528076171875,-0.1282958984375
1.762,308,1723,1783,310,-11.0,37.0,45.0,55.786128997802734,-2.0751953125,-4.69970703125,-1.4691162109375,0.4559326171875,-0.2882080078125
1.768,310,1704,1778,310,-11.0,37.0,45.0,59.875484466552734,11.535643577575684,-17.02880859375,-1.472900390625,0.427734375,-0.37158203125
1.776,310,1689,1770,311,-11.0,37.0,45.0,59.875484466552734,11.535643577575684,-17.02880859375,-1.6507568359375,0.2840576171875,-0.3966064453125
1.790,310,1636,1725,312,-11.0,37.0,45.0,29.907224655151367,26.184080123901367,-37.29248046875,-1.7120361328125,0.16259765625,-0.3695068359375
1.798,310,1592,1681,311,-11.0,37.0,45.0,13.183592796325684,31.188962936401367,-35.2783203125,-1.6202392578125,0.1795654296875,-0.2747802734375
1.830,310,1536,1625,312,-11.0,37.0,45.0,13.183592796325684,31.188962936401367,-35.2783203125,-1.49365234375,0.21826171875,-0.190673828125
1.830,310,1400,1503,297,-11.0,37.0,45.0,-0.6103515625,42.358394622802734,-25.939939498901367,-1.38330078125,0.2037353515625,-0.15869140625
1.830,310,1282,1411,311,-11.0,37.0,45.0,2.990722417831421,46.997066497802734,-23.620603561401367,-1.2403564453125,0.1815185546875,-0.165771484375
1.836,310,1166,1306,310,-15.0,39.0,49.0,8.7890625,49.194332122802734,-20.690916061401367,-1.0384521484375,0.183837890625,-0.1884765625
1.850,310,917,1078,310,-15.0,39.0,49.0,12.207030296325684,50.598140716552734,-17.578125,-0.793212890625,0.1624755859375,-0.194091796875
1.858,310,751,944,310,-15.0,39.0,49.0,10.986327171325684,54.077144622802734,-17.88330078125,-0.5511474609375,0.0462646484375,-0.2110595703125
1.866,309,601,824,310,-15.0,39.0,49.0,12.512206077575684,62.683101654052734,-22.399900436401367,-0.4471435546875,-0.03271484375,-0.300537109375
1.879,308,407,698,308,-15.0,39.0,49.0,20.141599655151367,68.90869140625,-23.864744186401367,-0.4429931640625,0.09033203125,-0.3154296875
1.888,309,371,600,310,-15.0,39.0,49.0,21.911619186401367,62.988277435302734,-19.22607421875,-0.4412841796875,0.2491455078125,-0.14892578125
1.903,308,372,524,309,-15.0,39.0,49.0,12.573241233825684,49.133296966552734,-13.366698265075684,-0.5023193359375,0.28759765625,0.0179443359375
1.937,310,371,490,309,-15.0,39.0,49.0,2.44140625,34.0576171875,-9.033203125,-0.600341796875,0.2811279296875,0.0428466796875
1.937,310,356,467,310,-15.0,39.0,49.0,-1.5869139432907104,22.033689498901367,-5.310058116912842,-0.659912109375,0.26171875,-0.0191650390625
1.938,309,372,469,310,-15.0,39.0,49.0,-1.4038084745407104,15.136717796325684,-2.868652105331421,-0.6796875,0.217529296875,-0.09765625
1.940,310,379,473,310,-13.0,41.0,41.0,2.685546636581421,11.108397483825684,-2.197265625,-0.6856689453125,0.1617431640625,-0.181396484375
1.948,309,372,482,309,-13.0,41.0,41.0,10.620116233825684,7.629394054412842,-2.563476324081421,-0.68994140625,0.093994140625,-0.230712890625
1.956,310,372,493,309,-13.0,41.0,41.0,19.22607421875,2.38037109375,-3.601073980331421,-0.7027587890625,0.03369140625,-0.2142333984375
1.969,309,372,509,309,-13.0,41.0,41.0,23.010251998901367,-4.7607421875,-2.990722417831421,-0.71240234375,0.021728515625,-0.1639404296875
1.978,308,373,523,310,-13.0,41.0,41.0,20.629880905151367,-10.498045921325684,0.6103515625,-0.709716796875,0.04248046875,-0.1224365234375
1.986,309,377,538,310,-13.0,41.0,41.0,15.930174827575684,-13.122557640075684,5.249022960662842,-0.70166015625,0.060791015625,-0.0982666015625
2.003,308,385,578,310,-13.0,41.0,41.0,11.718749046325684,-14.038084983825684,8.85009765625,-0.698974609375,0.0748291015625,-0.0858154296875
2.023,310,387,608,310,-13.0,41.0,41.0,8.544921875,-14.892577171325684,11.291502952575684,-0.70263671875,0.096923828125,-0.0855712890625
2.024,309,410,666,310,-13.0,41.0,41.0,6.591796398162842,-16.66259765625,13.061522483825684,-0.709228515625,0.1270751953125,-0.0975341796875
2.036,310,562,745,310,-13.0,41.0,41.0,6.286620616912842,-19.71435546875,14.282225608825684,-0.7166748046875,0.158447265625,-0.1268310546875
2.044,310,678,777,310,-13.0,39.0,44.0,6.286620616912842,-23.071287155151367,15.319823265075684,-0.728271484375,0.186767578125,-0.1708984375
2.046,308,777,818,308,-13.0,39.0,44.0,4.57763671875,-26.306150436401367,16.11328125,-0.7861328125,0.2276611328125,-0.2193603515625
2.060,309,935,902,310,-13.0,39.0,44.0,1.7089842557907104,-31.616209030151367,16.29638671875,-0.859375,0.27197265625,-0.282958984375
2.068,310,1018,960,310,-13.0,39.0,44.0,-1.6479490995407104,-39.97802734375,15.808104515075684,-0.8822021484375,0.2877197265625,-0.367919921875
2.076,310,1104,1025,310,-13.0,39.0,44.0,-8.4228515625,-49.682613372802734,15.441893577575684,-0.826171875,0.2841796875,-0.4058837890625
2.090,310,1273,1151,311,-13.0,39.0,44.0,-23.437498092651367,-58.654781341552734,15.502928733825684,-0.70068359375,0.232421875,-0.3232421875
2.098,310,1353,1243,310,-13.0,39.0,44.0,-42.785640716552734,-64.3310546875,14.038084983825684,-0.57275390625,0.1146240234375,-0.165771484375
2.106,308,1424,1338,310,-13.0,39.0,44.0,-53.588863372802734,-64.88037109375,10.131834983825684,-0.5072021484375,-0.0030517578125,-0.0548095703125
2.132,309,1536,1463,310,-13.0,39.0,44.0,-47.607418060302734,-61.767574310302734,5.737304210662842,-0.5457763671875,-0.0390625,-0.0655517578125
2.139,310,1579,1546,311,-13.0,39.0,44.0,-34.48486328125,-59.692378997802734,6.591796398162842,-0.649169921875,0.069091796875,-0.1153564453125
2.139,310,1619,1611,310,-10.0,36.0,46.0,-29.602048873901367,-61.767574310302734,13.366698265075684,-0.77197265625,0.265380859375,-0.098388671875
2.157,310,1691,1700,311,-10.0,36.0,46.0,-35.15625,-64.8193359375,19.34814453125,-1.044921875,0.4564208984375,0.23779296875
2.158,310,1711,1746,314,-10.0,36.0,46.0,-42.602535247802734,-64.02587890625,20.385740280151367,-1.044921875,0.4564208984375,0.23779296875
2.169,310,1730,1785,311,-10.0,36.0,46.0,-43.701168060302734,-57.922359466552734,17.333984375,-1.29150390625,0.55615234375,0.329833984375
2.180,310,1755,1828,312,-10.0,36.0,46.0,-37.109375,-48.645015716552734,13.610838890075684,-1.7296142578125,0.680908203125,0.168701171875
2.188,310,1763,1844,312,-10.0,36.0,46.0,-26.000974655151367,-39.24560546875,9.6435546875,-1.7296142578125,0.680908203125,0.168701171875
2.196,311,1778,1852,311,-10.0,36.0,46.0,-13.793944358825684,-29.235837936401367,4.0283203125,-1.7891845703125,0.6058349609375,0.083251953125
2.209,310,1782,1844,311,-10.0,36.0,46.0,0.4882812201976776,-15.747069358825684,-1.4648436307907104,-1.6651611328125,0.318115234375,-0.1741943359375
2.231,312,1774,1842,311,-10.0,36.0,46.0,16.11328125,0.9155272841453552,-7.385253429412842,-1.6651611328125,0.318115234375,-0.1741943359375
2.231,311,1774,1838,312,-10.0,36.0,46.0,26.550291061401367,18.4326171875,-15.380858421325684,-1.5596923828125,0.1798095703125,-0.295654296875
2.248,310,1759,1817,310,-14.0,36.0,48.0,22.766111373901367,29.541013717651367,-22.949216842651367,-1.6649169921875,0.081787109375,-0.0875244140625
2.248,310,1695,1759,311,-14.0,36.0,48.0,7.507323741912842,31.066892623901367,-26.062009811401367,-1.6649169921875,0.081787109375,-0.0875244140625
2.256,310,1708,1761,310,-14.0,36.0,48.0,-3.784179449081421,31.982419967651367,-23.620603561401367,-1.61376953125,0.072509765625,0.0443115234375
2.271,311,1650,1665,310,-14.0,36.0,48.0,-5.615233898162842,39.24560546875,-18.00537109375,-1.3878173828125,0.2464599609375,-0.0029296875
2.280,310,1598,1592,311,-14.0,36.0,48.0,-2.44140625,50.903316497802734,-12.451170921325684,-1.3360595703125,0.298583984375,-0.0772705078125
2.286,309,1528,1504,311,-14.0,36.0,48.0,1.6479490995407104,62.622066497802734,-9.58251953125,-1.3360595703125,0.298583984375,-0.0772705078125
2.300,310,1355,1315,310,-14.0,36.0,48.0,11.230467796325684,74.64599609375,-12.145995140075684,-1.195556640625,0.3150634765625,-0.2352294921875
2.312,310,1219,1189,310,-14.0,36.0,48.0,11.230467796325684,74.64599609375,-12.145995140075684,-1.0618896484375,0.3072509765625,-0.2669677734375
2.333,309,1035,1054,311,-14.0,36.0,48.0,13.061522483825684,73.73046875,-14.343260765075684,-1.0618896484375,0.3072509765625,-0.2669677734375
2.333,310,688,830,311,-11.0,39.0,43.0,12.878417015075684,69.7021484375,-23.254392623901367,-0.710693359375,0.1829833984375,-0.2586669921875
2.341,309,545,710,310,-11.0,39.0,43.0,12.878417015075684,69.7021484375,-23.254392623901367,-0.524169921875,0.1346435546875,-0.2591552734375
2.354,309,420,603,310,-11.0,39.0,43.0,14.709471702575684,69.51904296875,-26.245115280151367,-0.524169921875,0.1346435546875,-0.2591552734375
2.360,310,372,452,310,-11.0,39.0,43.0,20.263669967651367,64.0869140625,-19.1650390625,-0.44580078125,0.0855712890625,-0.0833740234375
2.368,309,371,411,310,-11.0,39.0,43.0,20.263669967651367,64.0869140625,-19.1650390625,-0.5501708984375,0.1663818359375,-0.0399169921875
2.382,310,372,391,310,-11.0,39.0,43.0,21.362302780151367,55.053707122802734,-14.892577171325684,-0.5501708984375,0.1663818359375,-0.0399169921875
2.390,310,372,391,308,-11.0,39.0,43.0,33.203125,31.921384811401367,-13.854979515075684,-0.7342529296875,0.28271484375,-0.0537109375
2.398,310,372,385,310,-11.0,39.0,43.0,33.203125,31.921384811401367,-13.854979515075684,-0.685791015625,0.240966796875,-0.0025634765625
2.412,308,372,382,309,-11.0,39.0,43.0,30.578611373901367,15.808104515075684,-15.869139671325684,-0.685791015625,0.240966796875,-0.0025634765625
2.439,310,372,380,310,-11.0,39.0,43.0,13.427733421325684,6.835937023162842,-8.30078125,-0.561767578125,0.1116943359375,-0.0115966796875
2.439,309,371,382,311,-11.0,39.0,43.0,13.427733421325684,6.835937023162842,-8.30078125,-0.5572509765625,0.0478515625,-0.0643310546875
2.439,296,373,384,308,-11.0,40.0,37.0,17.63916015625,7.507323741912842,-5.249022960662842,-0.551513671875,0.052734375,-0.129638671875
2.450,310,372,400,309,-11.0,40.0,37.0,25.512693405151367,-0.1220703050494194,3.479003667831421,-0.5452880859375,0.075927734375,-0.2025146484375
2.458,310,371,411,308,-11.0,40.0,37.0,21.972654342651367,-4.08935546875,6.469726085662842,-0.558349609375,0.062744140625,-0.2840576171875
2.466,309,371,478,310,-11.0,40.0,37.0,21.972654342651367,-4.08935546875,6.469726085662842,-0.5958251953125,0.0130615234375,-0.345458984375
2.480,309,373,582,308,-11.0,40.0,37.0,15.930174827575684,-6.896972179412842,5.249022960662842,-0.6229248046875,-0.0234375,-0.33935546875
2.494,310,386,644,310,-11.0,40.0,37.0,14.404295921325684,-11.047362327575684,5.798339366912842,-0.596435546875,0.0052490234375,-0.266845703125
2.496,308,434,711,310,-11.0,40.0,37.0,14.404295921325684,-11.047362327575684,5.798339366912842,-0.522216796875,0.0869140625,-0.1895751953125
2.516,310,730,756,309,-11.0,40.0,37.0,-11.535643577575684,-25.878904342651367,14.709471702575684,-0.4637451171875,0.1602783203125,-0.1494140625
2.523,310,917,796,310,-11.0,40.0,37.0,-27.221677780151367,-34.36279296875,17.9443359375,-0.5509033203125,0.2169189453125,-0.1673583984375
2.535,309,1037,826,310,-11.0,40.0,37.0,-27.221677780151367,-34.36279296875,17.9443359375,-0.7869873046875,0.3021240234375,-0.2464599609375
2.540,310,1191,959,309,-13.0,41.0,36.0,-35.64453125,-54.260250091552734,21.606443405151367,-0.9202880859375,0.3702392578125,-0.3165283203125
2.548,310,1305,1062,310,-13.0,41.0,36.0,-35.58349609375,-62.377925872802734,25.939939498901367,-0.7559814453125,0.294677734375,-0.2855224609375
2.556,310,1391,1146,310,-13.0,41.0,36.0,-35.58349609375,-62.377925872802734,25.939939498901367,-0.4833984375,0.0819091796875,-0.1368408203125
2.570,309,1500,1308,310,-13.0,41.0,36.0,-77.7587890625,-60.974117279052734,17.76123046875,-0.453125,-0.1253662109375,0.0224609375
2.578,310,1545,1387,310,-13.0,41.0,36.0,-90.08788299560547,-48.095699310302734,7.568358898162842,-0.6842041015625,-0.21044921875,0.10693359375
2.586,310,1588,1468,311,-13.0,41.0,36.0,-68.4814453125,-36.376953125,6.408690929412842,-0.96875,-0.053466796875,0.1280517578125
2.600,310,1669,1564,310,-13.0,41.0,36.0,-32.3486328125,-34.72900390625,16.357421875,-1.212158203125,0.3260498046875,0.1497802734375
2.608,311,1700,1611,311,-13.0,41.0,36.0,-12.451170921325684,-41.931148529052734,27.404783248901367,-1.43310546875,0.6842041015625,0.185791015625
2.618,310,1732,1646,311,-13.0,41.0,36.0,-12.145995140075684,-46.447750091552734,31.616209030151367,-1.64599609375,0.8564453125,0.1434326171875
2.638,310,1774,1662,311,-13.0,37.0,44.0,-10.375975608825684,-40.0390625,29.357908248901367,-1.804443359375,0.82373046875,0.04150390625
2.638,296,1788,1619,298,-13.0,37.0,44.0,4.7607421875,-26.672361373901367,22.583005905151367,-1.867919921875,0.661376953125,-0.0716552734375
2.663,310,1783,1595,311,-13.0,37.0,44.0,27.404783248901367,-11.535643577575684,14.038084983825684,-1.8497314453125,0.466552734375,-0.207763671875
2.664,310,1788,1577,311,-13.0,37.0,44.0,49.194332122802734,4.0283203125,4.57763671875,-1.71875,0.2550048828125,-0.377685546875
2.674,310,1787,1578,310,-13.0,37.0,44.0,63.354488372802734,20.202634811401367,-7.202147960662842,-1.5250244140625,0.17724609375,-0.5643310546875
2.678,310,1778,1573,311,-13.0,37.0,44.0,54.870601654052734,30.151365280151367,-17.822265625,-1.5194091796875,0.284912109375,-0.5692138671875
2.690,310,1738,1531,311,-13.0,37.0,44.0,18.98193359375,28.381345748901367,-24.658201217651367,-1.6658935546875,0.3072509765625,-0.310791015625
2.699,310,1701,1511,312,-13.0,37.0,44.0,-15.014647483825684,27.160642623901367,-27.587888717651367,-1.6995849609375,0.1944580078125,-0.0748291015625
2.707,310,1662,1460,311,-13.0,37.0,44.0,-23.864744186401367,34.1796875,-25.268552780151367,-1.5911865234375,0.146484375,-0.050048828125
2.742,310,1565,1351,311,-13.0,37.0,44.0,-17.9443359375,43.762203216552734,-19.22607421875,-1.441650390625,0.208984375,-0.10205078125
2.742,309,1484,1226,295,-11.0,40.0,45.0,-12.573241233825684,51.635738372802734,-14.465331077575684,-1.3260498046875,0.2823486328125,-0.1123046875
2.742,309,1395,1157,310,-11.0,40.0,45.0,-7.812499523162842,57.983394622802734,-14.160155296325684,-1.2369384765625,0.298583984375,-0.1278076171875
2.751,310,1155,999,310,-11.0,40.0,45.0,-0.1220703050494194,63.049312591552734,-16.7236328125,-1.1275634765625,0.2841796875,-0.2039794921875
2.759,310,968,895,310,-11.0,40.0,45.0,8.056640625,65.673828125,-19.22607421875,-0.9552001953125,0.2537841796875,-0.2906494140625
2.767,310,803,796,310,-11.0,40.0,45.0,13.183592796325684,66.650390625,-22.460935592651367,-0.7188720703125,0.142333984375,-0.3492431640625
2.781,309,533,653,310,-11.0,40.0,45.0,19.8974609375,71.10595703125,-28.564451217651367,-0.508056640625,-0.0125732421875,-0.419189453125
2.789,310,437,614,310,-11.0,40.0,45.0,31.799314498901367,77.45361328125,-33.26416015625,-0.406982421875,-0.0345458984375,-0.406005859375
2.798,309,373,562,310,-11.0,40.0,45.0,37.4755859375,73.3642578125,-30.212400436401367,-0.3966064453125,0.099609375,-0.2176513671875
2.811,310,369,465,308,-11.0,40.0,45.0,25.085447311401367,55.175777435302734,-20.751951217651367,-0.44873046875,0.2108154296875,0.012939453125
2.824,310,367,446,310,-11.0,40.0,45.0,3.967284917831421,33.50830078125,-13.122557640075684,-0.5546875,0.2413330078125,0.1156005859375
2.844,308,367,411,310,-14.0,41.0,43.0,-7.629394054412842,19.53125,-8.056640625,-0.6666259765625,0.2733154296875,0.0328369140625
2.844,308,371,399,309,-14.0,41.0,43.0,-8.056640625,15.930174827575684,-0.54931640625,-0.6981201171875,0.233154296875,-0.1903076171875
2.853,310,371,396,309,-14.0,41.0,43.0,-3.784179449081421,16.2353515625,4.94384765625,-0.6981201171875,0.233154296875,-0.1903076171875
2.857,309,370,396,309,-14.0,41.0,43.0,2.624511480331421,14.648436546325684,4.2724609375,-0.6759033203125,0.1162109375,-0.2012939453125
2.871,308,371,406,310,-14.0,41.0,43.0,10.437010765075684,11.474608421325684,0.9765624403953552,-0.6820068359375,0.015869140625,-0.206787109375
2.886,309,371,409,308,-14.0,41.0,43.0,17.578125,6.408690929412842,-0.9155272841453552,-0.6820068359375,0.015869140625,-0.206787109375
2.887,310,369,424,296,-14.0,41.0,43.0,21.423337936401367,-0.54931640625,0.1831054538488388,-0.6768798828125,0.033935546875,-0.1890869140625
2.901,308,369,481,310,-14.0,41.0,43.0,20.385740280151367,-6.469726085662842,3.906249761581421,-0.6663818359375,0.1051025390625,-0.19677734375
2.909,308,368,519,308,-14.0,41.0,43.0,15.686034202575684,-9.765625,7.568358898162842,-0.6663818359375,0.1051025390625,-0.19677734375
2.928,309,369,548,310,-14.0,41.0,43.0,9.521484375,-11.779784202575684,8.72802734375,-0.67724609375,0.0955810546875,-0.181396484375
2.950,308,381,623,308,-12.0,40.0,45.0,4.21142578125,-13.732909202575684,8.23974609375,-0.6915283203125,0.0985107421875,-0.1278076171875
2.950,310,430,654,309,-12.0,40.0,45.0,-0.0610351525247097,-16.29638671875,8.7890625,-0.6915283203125,0.0985107421875,-0.1278076171875
2.951,310,504,658,310,-12.0,40.0,45.0,-4.82177734375,-19.775390625,10.864256858825684,-0.69384765625,0.1522216796875,-0.1318359375
2.961,310,703,730,310,-12.0,40.0,45.0,-9.8876953125,-23.620603561401367,12.878417015075684,-0.7763671875,0.2127685546875,-0.2215576171875
2.969,310,819,754,310,-12.0,40.0,45.0,-12.939452171325684,-27.099607467651367,13.366698265075684,-0.85595703125,0.2042236328125,-0.3349609375
2.979,310,931,780,310,-12.0,40.0,45.0,-12.451170921325684,-30.334470748901367,13.305663108825684,-0.85595703125,0.2042236328125,-0.3349609375
2.998,310,1091,846,311,-12.0,40.0,45.0,-16.05224609375,-44.616695404052734,21.545408248901367,-0.836181640625,0.2401123046875,-0.5032958984375
2.999,310,1198,887,309,-12.0,40.0,45.0,-16.05224609375,-44.616695404052734,21.545408248901367,-0.64013671875,0.22705078125,-0.3765869140625
3.007,310,1295,980,310,-12.0,40.0,45.0,-33.63037109375,-56.762691497802734,26.733396530151367,-0.64013671875,0.22705078125,-0.3765869140625
3.029,308,1433,1148,309,-12.0,40.0,45.0,-65.3076171875,-65.12451171875,16.41845703125,-0.42529296875,0.005615234375,0.013671875
3.029,310,1501,1239,297,-12.0,42.0,49.0,-65.3076171875,-65.12451171875,16.41845703125,-0.5543212890625,-0.012939453125,0.0115966796875
3.048,310,1559,1305,310,-12.0,42.0,49.0,-57.556148529052734,-56.701656341552734,9.27734375,-0.5543212890625,-0.012939453125,0.0115966796875
3.059,310,1632,1445,310,-12.0,42.0,49.0,-30.273435592651367,-48.034664154052734,14.892577171325684,-0.910400390625,0.328125,0.088134765625
3.059,311,1674,1528,296,-12.0,42.0,49.0,-30.273435592651367,-48.034664154052734,14.892577171325684,-1.061279296875,0.4495849609375,0.2440185546875
3.067,310,1700,1598,312,-12.0,42.0,49.0,-31.494138717651367,-51.147457122802734,18.5546875,-1.061279296875,0.4495849609375,0.2440185546875
3.081,310,1732,1695,310,-12.0,42.0,49.0,-23.803709030151367,-48.706050872802734,17.333984375,-1.4581298828125,0.65576171875,0.2886962890625
3.104,310,1757,1718,312,-12.0,42.0,49.0,-23.803709030151367,-48.706050872802734,17.333984375,-1.6484375,0.701171875,0.177490234375
3.104,310,1781,1724,312,-12.0,42.0,49.0,-9.09423828125,-45.715328216552734,19.22607421875,-1.6484375,0.701171875,0.177490234375
3.111,310,1789,1642,311,-12.0,42.0,49.0,36.43798828125,-32.40966796875,3.967284917831421,-1.8277587890625,0.3800048828125,-0.2327880859375
3.119,310,1791,1608,312,-12.0,42.0,49.0,65.73486328125,-14.953612327575684,-2.746581792831421,-1.797607421875,0.26123046875,-0.5379638671875
3.156,309,1800,1607,311,-13.0,38.0,46.0,65.73486328125,-14.953612327575684,-2.746581792831421,-1.56884765625,0.1671142578125,-0.6832275390625
3.156,310,1788,1618,310,-13.0,38.0,46.0,81.42089080810547,13.793944358825684,-18.12744140625,-1.39501953125,0.281494140625,-0.64306640625
3.156,310,1748,1623,310,-13.0,38.0,46.0,46.691890716552734,13.977049827575684,-23.925779342651367,-1.4952392578125,0.4403076171875,-0.393798828125
3.160,309,1754,1622,312,-13.0,38.0,46.0,46.691890716552734,13.977049827575684,-23.925779342651367,-1.628662109375,0.381591796875,-0.117919921875
3.172,309,1698,1598,310,-13.0,38.0,46.0,-25.268552780151367,18.24951171875,-35.7666015625,-1.601318359375,0.228515625,-0.0242919921875
3.179,310,1653,1565,312,-13.0,38.0,46.0,-26.489255905151367,30.700681686401367,-38.02490234375,-1.506103515625,0.16455078125,-0.0654296875
3.191,312,1602,1516,312,-13.0,38.0,46.0,-26.489255905151367,30.700681686401367,-38.02490234375,-1.423828125,0.1956787109375,-0.106689453125
3.205,310,1486,1395,310,-13.0,38.0,46.0,-7.080077648162842,42.907711029052734,-33.50830078125,-1.36328125,0.233154296875,-0.1556396484375
3.211,310,1380,1292,311,-13.0,38.0,46.0,0.8544921278953552,46.020503997802734,-29.174802780151367,-1.269287109375,0.236572265625,-0.2503662109375
3.218,310,1260,1173,310,-13.0,38.0,46.0,0.8544921278953552,46.020503997802734,-29.174802780151367,-1.1124267578125,0.2320556640625,-0.3443603515625
3.233,310,971,974,310,-10.0,40.0,42.0,4.21142578125,51.391597747802734,-19.6533203125,-0.9166259765625,0.2021484375,-0.37158203125
3.256,309,779,865,310,-10.0,40.0,42.0,-3.479003667831421,53.588863372802734,-18.49365234375,-0.72900390625,0.0731201171875,-0.3421630859375
3.256,290,577,748,311,-10.0,40.0,42.0,-3.479003667831421,53.588863372802734,-18.49365234375,-0.5946044921875,-0.09619140625,-0.3134765625
3.262,310,414,614,310,-10.0,40.0,42.0,1.4648436307907104,63.049312591552734,-27.587888717651367,-0.5211181640625,-0.157470703125,-0.2235107421875
3.269,308,371,551,308,-10.0,40.0,42.0,8.4228515625,57.556148529052734,-25.512693405151367,-0.515625,-0.10400390625,-0.0125732421875
3.283,309,364,479,310,-10.0,40.0,42.0,6.530761241912842,42.480464935302734,-18.06640625,-0.56689453125,-0.0164794921875,0.1639404296875
3.292,310,359,420,308,-10.0,40.0,42.0,5.981444835662842,30.029294967651367,-8.97216796875,-0.6529541015625,0.1134033203125,0.1282958984375
3.300,310,357,414,310,-10.0,40.0,42.0,15.624999046325684,26.184080123901367,1.5258787870407104,-0.6845703125,0.2855224609375,-0.055908203125
3.312,310,356,410,308,-10.0,40.0,42.0,27.832029342651367,25.207517623901367,8.23974609375,-0.6405029296875,0.392578125,-0.1646728515625
3.321,308,363,407,310,-10.0,40.0,42.0,33.87451171875,21.240232467651367,5.554198741912842,-0.5880126953125,0.3790283203125,-0.1365966796875
3.336,308,364,408,308,-11.0,40.0,41.0,31.921384811401367,14.160155296325684,-0.9155272841453552,-0.5360107421875,0.2962646484375,-0.0823974609375
3.337,295,367,410,308,-11.0,40.0,41.0,25.817869186401367,8.36181640625,-5.0048828125,-0.5198974609375,0.181396484375,-0.0731201171875
3.357,309,368,411,310,-11.0,40.0,41.0,20.202634811401367,5.126952648162842,-6.286620616912842,-0.5484619140625,0.06884765625,-0.09130859375
3.359,310,369,419,310,-11.0,40.0,41.0,16.4794921875,2.0751953125,-4.45556640625,-0.5885009765625,0.0230712890625,-0.1087646484375
3.367,310,367,423,310,-11.0,40.0,41.0,13.549803733825684,-2.13623046875,0.1220703050494194,-0.619384765625,0.0455322265625,-0.13623046875
3.381,310,368,495,310,-11.0,40.0,41.0,11.230467796325684,-6.774901866912842,5.554198741912842,-0.637451171875,0.0697021484375,-0.1600341796875
3.396,310,371,530,310,-11.0,40.0,41.0,11.413573265075684,-10.498045921325684,8.36181640625,-0.6517333984375,0.0565185546875,-0.162353515625
3.399,309,371,594,310,-11.0,40.0,41.0,14.282225608825684,-13.305663108825684,8.36181640625,-0.6558837890625,0.0335693359375,-0.1541748046875
3.419,308,463,668,310,-11.0,40.0,41.0,15.075682640075684,-16.66259765625,8.97216796875,-0.6363525390625,0.0498046875,-0.1461181640625
3.419,308,561,728,296,-11.0,40.0,41.0,9.94873046875,-22.583005905151367,12.145995140075684,-0.6009521484375,0.103759765625,-0.14892578125
3.427,310,707,819,310,-15.0,41.0,44.0,0.3662109076976776,-31.311033248901367,16.2353515625,-0.60595703125,0.1348876953125,-0.191162109375
3.460,311,925,918,310,-15.0,41.0,44.0,-7.812499523162842,-39.306640625,19.1650390625,-0.7081298828125,0.148681640625,-0.3037109375
3.460,296,1021,1018,310,-15.0,41.0,44.0,-11.474608421325684,-45.471187591552734,22.033689498901367,-0.82373046875,0.227294921875,-0.45458984375
3.460,299,1122,1108,308,-15.0,41.0,44.0,-19.22607421875,-52.001949310302734,26.123044967651367,-0.75732421875,0.32958984375,-0.5321044921875
3.467,310,1229,1236,310,-15.0,41.0,44.0,-43.029781341552734,-58.105464935302734,26.916501998901367,-0.5079345703125,0.2901611328125,-0.42578125
3.480,310,1392,1386,311,-15.0,41.0,44.0,-74.89013671875,-58.776851654052734,19.10400390625,-0.37548828125,0.12158203125,-0.1949462890625
3.488,310,1478,1456,311,-15.0,41.0,44.0,-87.52440643310547,-51.635738372802734,7.202147960662842,-0.5372314453125,0.0009765625,-0.0284423828125
3.497,310,1538,1514,311,-15.0,41.0,44.0,-69.2138671875,-42.724605560302734,1.220703125,-0.8701171875,0.0654296875,0.0272216796875
3.510,310,1610,1624,310,-15.0,41.0,44.0,-44.311519622802734,-41.320796966552734,5.065917491912842,-1.175537109375,0.3184814453125,0.0908203125
3.525,310,1655,1694,312,-15.0,41.0,44.0,-39.12353515625,-47.119136810302734,12.390135765075684,-1.3348388671875,0.5025634765625,0.2657470703125
3.526,312,1681,1735,299,-8.0,41.0,39.0,-42.358394622802734,-49.865718841552734,13.610838890075684,-1.392822265625,0.4736328125,0.4378662109375
3.540,311,1718,1786,310,-8.0,41.0,39.0,-32.28759765625,-42.846675872802734,11.108397483825684,-1.500732421875,0.4541015625,0.392333984375
3.554,310,1738,1792,312,-8.0,41.0,39.0,-11.413573265075684,-30.639646530151367,11.413573265075684,-1.6759033203125,0.46435546875,0.2554931640625
3.565,310,1752,1761,310,-8.0,41.0,39.0,8.48388671875,-22.094724655151367,9.3994140625,-1.8094482421875,0.3673095703125,0.1617431640625
3.570,309,1759,1689,310,-8.0,41.0,39.0,28.381345748901367,-15.014647483825684,3.723144292831421,-1.817138671875,0.2430419921875,-0.0325927734375
3.578,310,1759,1676,311,-8.0,41.0,39.0,53.161617279052734,-2.685546636581421,-1.0986328125,-1.626953125,0.1536865234375,-0.3609619140625
3.586,310,1763,1665,311,-8.0,41.0,39.0,74.76806640625,14.831542015075684,-5.371093273162842,-1.4024658203125,0.1768798828125,-0.6917724609375
3.601,310,1756,1649,311,-8.0,41.0,39.0,71.22802734375,27.404783248901367,-10.070799827575684,-1.4727783203125,0.32666015625,-0.77490234375
3.608,310,1727,1628,312,-8.0,41.0,39.0,35.58349609375,27.404783248901367,-15.991209983825684,-1.710693359375,0.388427734375,-0.532470703125
3.621,310,1700,1596,310,-8.0,41.0,39.0,-4.5166015625,25.451658248901367,-21.972654342651367,-1.76708984375,0.291259765625,-0.2279052734375
3.631,311,1646,1487,312,-10.0,39.0,40.0,-23.620603561401367,30.517576217651367,-25.024412155151367,-1.640869140625,0.1962890625,-0.077880859375
3.642,308,1592,1411,311,-10.0,39.0,40.0,-24.658201217651367,40.222164154052734,-24.475095748901367,-1.4617919921875,0.1688232421875,-0.0504150390625
3.663,310,1516,1320,312,-10.0,39.0,40.0,-17.63916015625,51.269527435302734,-22.644041061401367,-1.316162109375,0.1644287109375,-0.0938720703125
3.664,298,1357,1129,310,-10.0,39.0,40.0,-5.432128429412842,61.645503997802734,-21.728513717651367,-1.1187744140625,0.1998291015625,-0.310546875
3.668,310,1239,1029,310,-10.0,39.0,40.0,7.507323741912842,67.2607421875,-21.057126998901367,-1.1187744140625,0.1998291015625,-0.310546875
3.676,308,1105,939,309,-10.0,39.0,40.0,13.122557640075684,65.97900390625,-19.95849609375,-0.9515380859375,0.1922607421875,-0.30859375
3.690,309,805,777,310,-10.0,39.0,40.0,10.009765625,61.584468841552734,-18.9208984375,-0.5457763671875,0.08642578125,-0.1630859375
3.698,309,656,684,310,-10.0,39.0,40.0,6.042479991912842,59.387203216552734,-18.6767578125,-0.5457763671875,0.08642578125,-0.1630859375
3.706,310,551,629,310,-10.0,39.0,40.0,9.3994140625,60.974117279052734,-19.59228515625,-0.396728515625,0.04248046875,-0.144775390625
3.720,310,441,558,310,-10.0,42.0,39.0,18.24951171875,61.706539154052734,-19.34814453125,-0.357666015625,0.1248779296875,0.04736328125
3.767,309,401,533,309,-10.0,42.0,39.0,20.629880905151367,55.358882904052734,-16.2353515625,-0.357666015625,0.1248779296875,0.04736328125
3.769,310,373,478,294,-10.0,42.0,39.0,14.465331077575684,43.823238372802734,-13.671874046325684,-0.46142578125,0.1458740234375,0.1346435546875
3.769,309,377,469,309,-10.0,42.0,39.0,12.634276390075684,34.1796875,-12.756346702575684,-0.6600341796875,0.2540283203125,-0.076416015625
3.769,311,379,464,310,-10.0,42.0,39.0,18.85986328125,29.785154342651367,-9.21630859375,-0.6600341796875,0.2540283203125,-0.076416015625
3.769,308,372,467,308,-10.0,42.0,39.0,26.489255905151367,28.686521530151367,-2.929687261581421,-0.6746826171875,0.2978515625,-0.2303466796875
3.780,310,378,504,309,-10.0,42.0,39.0,30.578611373901367,25.939939498901367,0.6103515625,-0.7174072265625,0.0948486328125,-0.3172607421875
3.788,310,378,522,308,-10.0,42.0,39.0,31.311033248901367,20.324705123901367,-2.197265625,-0.7174072265625,0.0948486328125,-0.3172607421875
3.796,309,381,535,311,-10.0,42.0,39.0,32.16552734375,13.732909202575684,-6.713866710662842,-0.776123046875,-0.0218505859375,-0.3228759765625
3.810,308,406,551,310,-10.0,42.0,39.0,29.602048873901367,-2.929687261581421,-0.30517578125,-0.832275390625,0.0059814453125,-0.3199462890625
3.818,310,424,566,310,-10.0,42.0,39.0,29.602048873901367,-2.929687261581421,-0.30517578125,-0.8389892578125,0.0770263671875,-0.3116455078125
3.826,309,439,586,308,-11.0,41.0,37.0,19.83642578125,-10.620116233825684,7.019042491912842,-0.8389892578125,0.0770263671875,-0.3116455078125
3.859,310,504,613,308,-11.0,41.0,37.0,-0.7934569716453552,-17.578125,11.352538108825684,-0.8802490234375,0.157470703125,-0.2894287109375
3.860,310,540,646,310,-11.0,41.0,37.0,-0.7934569716453552,-17.578125,11.352538108825684,-0.8900146484375,0.1732177734375,-0.2799072265625
3.860,310,584,648,298,-11.0,41.0,37.0,-4.638671875,-18.85986328125,9.70458984375,-0.8900146484375,0.1732177734375,-0.2799072265625
3.878,310,689,714,311,-11.0,41.0,37.0,-4.82177734375,-24.230955123901367,7.873534679412842,-0.7958984375,0.1649169921875,-0.3121337890625
3.878,310,771,742,296,-11.0,41.0,37.0,-4.82177734375,-24.230955123901367,7.873534679412842,-0.7364501953125,0.153564453125,-0.333251953125
3.887,309,859,764,311,-11.0,41.0,37.0,-8.30078125,-27.832029342651367,7.690429210662842,-0.7364501953125,0.153564453125,-0.333251953125
3.900,308,1034,823,310,-11.0,41.0,37.0,-29.907224655151367,-36.4990234375,10.681151390075684,-0.636962890625,0.182373046875,-0.357421875
3.909,310,1143,884,311,-11.0,41.0,37.0,-29.907224655151367,-36.4990234375,10.681151390075684,-0.5484619140625,0.1796875,-0.3392333984375
3.916,308,1232,933,311,-11.0,41.0,37.0,-43.518062591552734,-41.076656341552734,13.244627952575684,-0.5484619140625,0.1796875,-0.3392333984375
3.930,310,1369,1069,310,-10.0,43.0,43.0,-68.54248046875,-45.349117279052734,10.131834983825684,-0.438232421875,0.0533447265625,-0.236328125
3.938,309,1463,1162,310,-10.0,43.0,43.0,-68.54248046875,-45.349117279052734,10.131834983825684,-0.509521484375,0.0084228515625,-0.2288818359375
3.970,310,1528,1253,312,-10.0,43.0,43.0,-74.52392578125,-42.419429779052734,5.676269054412842,-0.509521484375,0.0084228515625,-0.2288818359375
3.970,310,1607,1400,311,-10.0,43.0,43.0,-67.7490234375,-39.306640625,6.042479991912842,-0.8834228515625,0.2550048828125,0.0518798828125
3.970,310,1634,1472,311,-10.0,43.0,43.0,-70.4345703125,-43.518062591552734,10.437010765075684,-1.101806640625,0.426025390625,0.31201171875
3.978,310,1662,1538,311,-10.0,43.0,43.0,-70.4345703125,-43.518062591552734,10.437010765075684,-1.243408203125,0.40966796875,0.451171875
3.990,310,1708,1621,310,-10.0,43.0,43.0,-56.823726654052734,-34.66796875,7.751464366912842,-1.3193359375,0.2640380859375,0.3861083984375
3.998,310,1727,1647,311,-10.0,43.0,43.0,-28.564451217651367,-20.874021530151367,4.08935546875,-1.4293212890625,0.186279296875,0.1622314453125
4.007,310,1746,1669,311,-10.0,43.0,43.0,-28.564451217651367,-20.874021530151367,4.08935546875,-1.611083984375,0.2308349609375,-0.0574951171875
4.020,310,1772,1669,311,-10.0,38.0,37.0,10.681151390075684,-1.2817381620407104,2.685546636581421,-1.766845703125,0.2926025390625,-0.148193359375
4.028,310,1770,1611,311,-10.0,38.0,37.0,14.404295921325684,1.2817381620407104,2.0751953125,-1.7939453125,0.28857421875,-0.1650390625
4.036,310,1774,1596,310,-10.0,38.0,37.0,14.404295921325684,1.2817381620407104,2.0751953125,-1.58642578125,0.2230224609375,-0.2454833984375
4.076,310,1775,1569,310,-10.0,38.0,37.0,27.099607467651367,17.822265625,0.7934569716453552,-1.307373046875,0.227783203125,-0.3973388671875
4.076,297,1732,1559,310,-10.0,38.0,37.0,29.174802780151367,29.541013717651367,-0.6103515625,-1.3397216796875,0.3221435546875,-0.453125
4.077,310,1756,1519,296,-10.0,38.0,37.0,29.174802780151367,29.541013717651367,-0.6103515625,-1.56201171875,0.330078125,-0.3748779296875
4.081,310,1711,1462,311,-10.0,38.0,37.0,1.220703125,35.70556640625,-9.033203125,-1.6429443359375,0.22607421875,-0.299560546875
4.088,310,1676,1387,310,-10.0,38.0,37.0,-0.6713866591453552,38.39111328125,-10.803221702575684,-1.5728759765625,0.163330078125,-0.299560546875
4.096,310,1634,1302,312,-10.0,38.0,37.0,-0.6713866591453552,38.39111328125,-10.803221702575684,-1.4403076171875,0.202880859375,-0.3348388671875
4.111,308,1518,1151,310,-10.0,38.0,37.0,10.925292015075684,45.593257904052734,-7.324218273162842,-1.3076171875,0.2564697265625,-0.3404541015625
4.118,310,1416,1063,310,-11.0,40.0,42.0,12.573241233825684,50.598140716552734,-7.873534679412842,-1.2015380859375,0.2674560546875,-0.3216552734375
4.126,309,1299,981,311,-11.0,40.0,42.0,12.573241233825684,54.687496185302734,-10.131834983825684,-1.09130859375,0.232177734375,-0.2882080078125
4.140,310,1014,816,309,-11.0,40.0,42.0,12.451170921325684,55.786128997802734,-13.549803733825684,-0.9580078125,0.16455078125,-0.236083984375
4.188,310,834,716,310,-11.0,40.0,42.0,12.878417015075684,55.053707122802734,-17.333984375,-0.8175048828125,0.0958251953125,-0.1573486328125
4.189,310,669,621,298,-11.0,40.0,42.0,13.732909202575684,53.222652435302734,-19.71435546875,-0.6707763671875,0.039794921875,-0.02978515625
4.189,310,493,531,310,-11.0,40.0,42.0,15.197752952575684,50.598140716552734,-19.95849609375,-0.54345703125,-0.018310546875,0.0849609375
4.190,310,414,461,294,-11.0,40.0,42.0,21.545408248901367,50.170894622802734,-18.1884765625,-0.5123291015625,-0.0491943359375,0.0772705078125
4.190,296,362,408,310,-11.0,40.0,42.0,34.36279296875,50.537105560302734,-13.061522483825684,-0.5765380859375,-0.008056640625,-0.0364990234375
4.200,309,371,387,308,-11.0,40.0,42.0,45.349117279052734,46.813961029052734,-3.845214605331421,-0.6884765625,0.1075439453125,-0.169677734375
4.208,310,371,393,309,-11.0,40.0,42.0,46.752925872802734,39.00146484375,8.6669921875,-0.824951171875,0.3056640625,-0.296142578125
4.216,309,371,387,308,-10.0,43.0,36.0,37.7197265625,28.137205123901367,20.385740280151367,-0.924072265625,0.497314453125,-0.3873291015625
4.229,309,379,388,308,-10.0,43.0,36.0,19.10400390625,13.366698265075684,21.545408248901367,-0.9227294921875,0.5181884765625,-0.3843994140625
4.238,308,382,394,309,-10.0,43.0,36.0,-2.197265625,-1.220703125,9.765625,-0.8609619140625,0.3580322265625,-0.3199462890625
4.246,309,380,395,309,-10.0,43.0,36.0,-13.183592796325684,-8.9111328125,-3.906249761581421,-0.8101806640625,0.1629638671875,-0.295166015625
4.280,308,379,399,308,-10.0,43.0,36.0,-8.544921875,-10.375975608825684,-10.314940452575684,-0.7742919921875,0.0419921875,-0.3221435546875
4.280,296,371,399,310,-10.0,43.0,36.0,2.50244140625,-11.169432640075684,-8.9111328125,-0.7301025390625,0.0107421875,-0.35107421875
4.280,308,371,396,308,-10.0,43.0,36.0,9.27734375,-12.695311546325684,-3.173827886581421,-0.668212890625,0.045166015625,-0.3643798828125
4.297,310,367,394,310,-10.0,43.0,36.0,11.901854515075684,-13.000487327575684,1.9531248807907104,-0.610595703125,0.100341796875,-0.3585205078125
4.298,309,364,399,308,-10.0,43.0,36.0,14.709471702575684,-11.901854515075684,3.967284917831421,-0.5819091796875,0.137939453125,-0.3360595703125
4.306,310,363,394,310,-10.0,43.0,36.0,17.4560546875,-10.925292015075684,3.784179449081421,-0.5867919921875,0.138916015625,-0.3121337890625
4.320,310,364,386,309,-12.0,41.0,37.0,17.15087890625,-12.084959983825684,2.868652105331421,-0.6085205078125,0.10302734375,-0.28271484375
4.328,310,369,394,309,-12.0,41.0,37.0,13.671874046325684,-15.686034202575684,1.6479490995407104,-0.61962890625,0.04248046875,-0.24365234375
4.387,310,371,401,310,-12.0,41.0,37.0,9.46044921875,-20.080564498901367,0.7934569716453552,-0.601318359375,-0.0198974609375,-0.209716796875
4.388,308,372,486,310,-12.0,41.0,37.0,7.141112804412842,-23.742673873901367,1.6479490995407104,-0.5443115234375,-0.0670166015625,-0.1822509765625
4.388,310,370,580,310,-12.0,41.0,37.0,6.958007335662842,-26.306150436401367,4.57763671875,-0.4561767578125,-0.0926513671875,-0.145263671875
4.388,310,391,660,309,-12.0,41.0,37.0,7.629394054412842,-28.381345748901367,9.27734375,-0.38623046875,-0.0648193359375,-0.0762939453125
4.389,309,678,833,310,-12.0,41.0,37.0,3.906249761581421,-33.5693359375,14.831542015075684,-0.3323974609375,0.0203857421875,0.0377197265625
4.393,309,935,860,308,-12.0,41.0,37.0,-11.474608421325684,-42.419429779052734,19.59228515625,-0.3350830078125,0.1102294921875,0.088623046875
4.398,310,1064,891,310,-12.0,41.0,37.0,-33.447265625,-49.560543060302734,22.094724655151367,-0.5533447265625,0.2003173828125,-0.05224609375
4.410,310,1199,1063,310,-12.0,41.0,37.0,-44.860836029052734,-53.771968841552734,23.071287155151367,-0.9422607421875,0.314697265625,-0.359130859375
4.418,310,1300,1209,310,-10.0,41.0,47.0,-42.297359466552734,-58.471675872802734,25.939939498901367,-1.10400390625,0.34375,-0.6240234375
4.426,309,1379,1348,310,-10.0,41.0,47.0,-51.879878997802734,-65.0634765625,30.517576217651367,-0.7900390625,0.191650390625,-0.529541015625
4.440,310,1477,1502,311,-10.0,41.0,47.0,-85.20507049560547,-69.64111328125,30.700681686401367,-0.552001953125,-0.13623046875,0.1396484375
4.448,310,1513,1598,312,-10.0,41.0,47.0,-100.40282440185547,-65.91796875,23.437498092651367,-0.552001953125,-0.13623046875,0.1396484375
4.462,312,1543,1675,311,-10.0,41.0,47.0,-72.20458984375,-56.396480560302734,16.9677734375,-1.0841064453125,0.1112060546875,0.0777587890625
4.484,310,1600,1775,312,-10.0,41.0,47.0,-39.85595703125,-51.452632904052734,19.34814453125,-1.6090087890625,0.853271484375,0.05517578125
4.484,310,1621,1829,312,-10.0,41.0,47.0,-33.8134765625,-53.588863372802734,23.071287155151367,-1.6090087890625,0.853271484375,0.05517578125
4.486,309,1627,1864,312,-10.0,41.0,47.0,-34.72900390625,-53.771968841552734,18.98193359375,-1.654296875,0.864501953125,0.0269775390625
4.500,310,1646,1900,311,-10.0,41.0,47.0,-21.911619186401367,-48.889156341552734,10.375975608825684,-1.7540283203125,0.624755859375,0.0689697265625
4.508,310,1643,1894,312,-10.0,41.0,47.0,-5.676269054412842,-45.349117279052734,2.624511480331421,-1.7540283203125,0.624755859375,0.0689697265625
4.522,310,1640,1867,311,-8.0,37.0,43.0,5.981444835662842,-41.198726654052734,-6.958007335662842,-1.657470703125,0.362060546875,0.2073974609375
4.530,310,1642,1858,311,-8.0,37.0,43.0,25.817869186401367,-28.564451217651367,-20.507810592651367,-1.3675537109375,0.13525390625,-0.43994140625
4.538,310,1642,1860,312,-8.0,37.0,43.0,55.664058685302734,-8.6669921875,-27.709959030151367,-1.3675537109375,0.13525390625,-0.43994140625
4.547,311,1636,1864,311,-8.0,37.0,43.0,69.82421875,5.554198741912842,-24.597166061401367,-1.2467041015625,0.2489013671875,-0.6363525390625
4.564,308,1615,1853,310,-8.0,37.0,43.0,47.180171966552734,5.615233898162842,-22.216794967651367,-1.524658203125,0.024169921875,-0.192626953125
4.595,310,1591,1845,310,-8.0,37.0,43.0,8.11767578125,2.624511480331421,-23.315427780151367,-1.513916015625,-0.0845947265625,-0.10205078125
4.595,310,1564,1828,311,-8.0,37.0,43.0,-14.831542015075684,6.835937023162842,-20.01953125,-1.513916015625,-0.0845947265625,-0.10205078125
4.595,311,1511,1755,310,-8.0,37.0,43.0,-14.343260765075684,24.108884811401367,-1.03759765625,-1.2501220703125,0.1123046875,-0.109375
4.598,310,1466,1691,311,-8.0,37.0,43.0,-14.343260765075684,24.108884811401367,-1.03759765625,-1.1783447265625,0.217529296875,-0.1424560546875
4.606,310,1422,1634,311,-8.0,37.0,43.0,-8.72802734375,32.16552734375,3.967284917831421,-1.1783447265625,0.217529296875,-0.1424560546875
4.620,310,1338,1531,310,-10.0,38.0,41.0,1.15966796875,43.701168060302734,1.8310545682907104,-1.08544921875,0.3187255859375,-0.2803955078125
4.635,310,1264,1456,310,-10.0,38.0,41.0,1.15966796875,43.701168060302734,1.8310545682907104,-1.0390625,0.303466796875,-0.2803955078125
4.636,310,1189,1380,312,-10.0,38.0,41.0,-0.7934569716453552,45.043941497802734,-1.5869139432907104,-1.0390625,0.303466796875,-0.2803955078125
4.650,310,1029,1213,311,-10.0,38.0,41.0,-11.230467796325684,44.372554779052734,-8.36181640625,-0.9306640625,0.2161865234375,-0.2679443359375
4.665,310,884,1116,311,-10.0,38.0,41.0,-11.230467796325684,44.372554779052734,-8.36181640625,-0.858642578125,0.186767578125,-0.254638671875
4.666,310,710,1000,310,-10.0,38.0,41.0,-12.573241233825684,45.043941497802734,-10.070799827575684,-0.858642578125,0.186767578125,-0.254638671875
4.687,310,513,816,309,-10.0,38.0,41.0,-14.648436546325684,38.14697265625,-12.390135765075684,-0.6910400390625,0.0948486328125,0.04345703125
4.697,296,437,689,307,-10.0,38.0,41.0,-14.648436546325684,38.14697265625,-12.390135765075684,-0.677734375,0.024169921875,0.1439208984375
4.697,310,391,601,310,-10.0,38.0,41.0,-15.075682640075684,34.0576171875,-13.977049827575684,-0.677734375,0.024169921875,0.1439208984375
4.710,308,379,476,310,-10.0,38.0,41.0,7.690429210662842,32.3486328125,-13.916014671325684,-0.8564453125,0.0279541015625,0.05029296875
4.718,310,371,425,310,-12.0,41.0,41.0,24.047849655151367,31.799314498901367,-6.652831554412842,-0.91357421875,0.1253662109375,-0.0928955078125
4.726,308,371,408,308,-12.0,41.0,41.0,24.047849655151367,31.799314498901367,-6.652831554412842,-0.8992919921875,0.2127685546875,-0.230712890625
4.740,310,361,398,310,-12.0,41.0,41.0,44.189449310302734,27.038572311401367,5.065917491912842,-0.8548583984375,0.2540283203125,-0.2999267578125
4.748,309,354,400,310,-12.0,41.0,41.0,44.311519622802734,19.95849609375,4.5166015625,-0.82080078125,0.2686767578125,-0.2978515625
4.756,308,349,398,310,-12.0,41.0,41.0,44.311519622802734,19.95849609375,4.5166015625,-0.7679443359375,0.254150390625,-0.2586669921875
4.770,308,353,408,310,-12.0,41.0,41.0,34.11865234375,5.126952648162842,1.2817381620407104,-0.71875,0.22607421875,-0.25
4.778,310,353,401,310,-12.0,41.0,41.0,34.1796875,4.45556640625,-1.0986328125,-0.697265625,0.228759765625,-0.281005859375
4.792,308,356,408,308,-12.0,41.0,41.0,34.1796875,4.45556640625,-1.0986328125,-0.683837890625,0.270751953125,-0.282958984375
4.803,310,354,410,309,-12.0,41.0,41.0,26.733396530151367,0.4882812201976776,0.4272460639476776,-0.67138671875,0.3056640625,-0.2412109375
4.808,310,356,411,308,-12.0,41.0,41.0,14.160155296325684,-5.0048828125,0.9155272841453552,-0.64990234375,0.275634765625,-0.172607421875
4.816,308,357,413,310,-10.0,42.0,42.0,14.160155296325684,-5.0048828125,0.9155272841453552,-0.6209716796875,0.1796875,-0.10498046875
4.830,308,360,414,310,-10.0,42.0,42.0,-2.0751953125,-12.145995140075684,-3.662109136581421,-0.5887451171875,0.0880126953125,-0.0784912109375
4.838,308,363,417,309,-10.0,42.0,42.0,0.4882812201976776,-12.451170921325684,-2.685546636581421,-0.546875,0.033935546875,-0.0877685546875
4.846,309,365,426,308,-10.0,42.0,42.0,0.4882812201976776,-12.451170921325684,-2.685546636581421,-0.4871826171875,-0.01904296875,-0.091552734375
4.862,309,367,526,310,-10.0,42.0,42.0,9.09423828125,-17.2119140625,5.065917491912842,-0.4234619140625,-0.0830078125,-0.0709228515625
4.871,310,367,547,308,-10.0,42.0,42.0,11.108397483825684,-21.423337936401367,8.23974609375,-0.38232421875,-0.11474609375,-0.0247802734375
4.892,309,407,642,308,-10.0,42.0,42.0,10.925292015075684,-27.160642623901367,11.657713890075684,-0.3499755859375,-0.0992431640625,0.0411376953125
4.892,296,767,864,310,-10.0,42.0,42.0,4.69970703125,-32.5927734375,17.4560546875,-0.279296875,-0.037353515625,0.041015625
4.900,310,938,873,310,-10.0,42.0,42.0,-6.713866710662842,-36.92626953125,24.658201217651367,-0.365478515625,0.0640869140625,-0.1190185546875
4.907,310,1022,992,310,-10.0,42.0,42.0,-17.51708984375,-46.325679779052734,28.869626998901367,-0.7822265625,0.2481689453125,-0.3988037109375
4.920,309,1162,1241,310,-10.0,38.0,40.0,-26.794431686401367,-62.805171966552734,30.883787155151367,-1.16455078125,0.4373779296875,-0.619384765625
4.928,310,1260,1353,311,-10.0,38.0,40.0,-41.931148529052734,-75.74462890625,32.8369140625,-0.990234375,0.3812255859375,-0.5648193359375
4.936,308,1353,1434,312,-10.0,38.0,40.0,-68.54248046875,-74.76806640625,31.860349655151367,-0.519775390625,0.171875,-0.2149658203125
4.950,310,1464,1588,311,-10.0,38.0,40.0,-85.08300018310547,-62.438961029052734,23.315427780151367,-0.5576171875,0.0924072265625,0.1051025390625
4.958,310,1504,1665,310,-10.0,38.0,40.0,-67.0166015625,-47.973628997802734,11.474608421325684,-1.1173095703125,0.2464599609375,0.1158447265625
4.997,310,1541,1730,311,-10.0,38.0,40.0,-39.0625,-39.85595703125,7.568358898162842,-1.555419921875,0.5126953125,0.0545654296875
4.998,310,1583,1815,310,-10.0,38.0,40.0,-33.8134765625,-39.73388671875,10.559081077575684,-1.603271484375,0.631103515625,0.17333984375
4.998,310,1602,1844,311,-10.0,38.0,40.0,-37.109375,-38.02490234375,9.58251953125,-1.55517578125,0.577880859375,0.264404296875
4.998,308,1623,1869,299,-10.0,38.0,40.0,-25.756834030151367,-28.869626998901367,4.5166015625,-1.66162109375,0.5238037109375,0.1866455078125
5.016,309,1624,1852,312,-10.0,38.0,40.0,-7.568358898162842,-18.61572265625,1.3427733182907104,-1.8162841796875,0.4991455078125,0.1063232421875
5.018,308,1625,1831,310,-10.0,37.0,43.0,3.479003667831421,-11.535643577575684,-0.0610351525247097,-1.853759765625,0.4130859375,0.09375
5.026,310,1624,1815,310,-10.0,37.0,43.0,13.671874046325684,-2.807616949081421,-2.38037109375,-1.64306640625,0.2581787109375,-0.003173828125
5.040,310,1621,1788,311,-10.0,37.0,43.0,30.456541061401367,13.061522483825684,-5.798339366912842,-1.377685546875,0.20849609375,-0.2203369140625
5.048,309,1610,1774,312,-10.0,37.0,43.0,40.771480560302734,25.817869186401367,-10.986327171325684,-1.430908203125,0.2578125,-0.3310546875
5.056,311,1596,1742,311,-10.0,37.0,43.0,34.0576171875,27.221677780151367,-17.76123046875,-1.6346435546875,0.2113037109375,-0.2802734375
5.077,310,1557,1667,312,-10.0,37.0,43.0,21.301267623901367,27.648923873901367,-20.324705123901367,-1.662353515625,0.1134033203125,-0.2415771484375
5.078,298,1513,1602,310,-10.0,37.0,43.0,13.183592796325684,33.3251953125,-16.7236328125,-1.5469970703125,0.1002197265625,-0.2730712890625
5.100,310,1462,1529,311,-10.0,37.0,43.0,9.94873046875,40.710445404052734,-11.962889671325684,-1.4166259765625,0.1671142578125,-0.305419921875
5.101,310,1340,1369,296,-10.0,37.0,43.0,8.11767578125,47.241207122802734,-9.82666015625,-1.3292236328125,0.2349853515625,-0.30078125
5.108,308,1243,1260,310,-10.0,37.0,43.0,6.835937023162842,53.222652435302734,-10.742186546325684,-1.276123046875,0.2672119140625,-0.30224609375
5.121,310,1129,1141,311,-10.0,39.0,47.0,7.324218273162842,58.227535247802734,-13.000487327575684,-1.1961669921875,0.26953125,-0.31494140625
5.130,308,859,922,310,-10.0,39.0,47.0,6.835937023162842,60.913082122802734,-14.587401390075684,-1.0506591796875,0.2496337890625,-0.2930908203125
5.139,310,685,794,310,-10.0,39.0,47.0,2.563476324081421,62.438961029052734,-15.136717796325684,-0.8531494140625,0.197509765625,-0.2325439453125
5.146,309,547,700,309,-10.0,39.0,47.0,-0.7934569716453552,64.63623046875,-16.41845703125,-0.64013671875,0.1068115234375,-0.1566162109375
5.160,310,407,554,310,-10.0,39.0,47.0,2.3193359375,66.22314453125,-17.7001953125,-0.4683837890625,0.0238037109375,-0.0484619140625
5.168,309,371,473,310,-10.0,39.0,47.0,7.751464366912842,63.354488372802734,-15.624999046325684,-0.4052734375,-0.0079345703125,0.0926513671875
5.177,310,371,398,310,-10.0,39.0,47.0,11.169432640075684,54.870601654052734,-10.314940452575684,-0.4810791015625,0.0162353515625,0.1689453125
5.200,308,365,395,309,-10.0,39.0,47.0,17.08984375,45.349117279052734,-2.746581792831421,-0.73583984375,0.2880859375,-0.109375
5.201,310,357,393,310,-10.0,39.0,47.0,24.658201217651367,39.24560546875,7.995604991912842,-0.73583984375,0.2880859375,-0.109375
5.208,309,362,394,308,-10.0,39.0,47.0,26.000974655151367,34.3017578125,15.502928733825684,-0.714599609375,0.37255859375,-0.2200927734375
5.220,309,362,400,308,-10.0,41.0,42.0,19.83642578125,26.916501998901367,14.282225608825684,-0.56982421875,0.220947265625,-0.2330322265625
5.228,310,360,401,309,-10.0,41.0,42.0,11.657713890075684,19.47021484375,9.33837890625,-0.56982421875,0.220947265625,-0.2330322265625
5.236,309,359,408,309,-10.0,41.0,42.0,7.995604991912842,13.488768577575684,4.82177734375,-0.5579833984375,0.1329345703125,-0.2303466796875
5.250,310,363,408,309,-10.0,41.0,42.0,11.108397483825684,8.23974609375,2.38037109375,-0.58984375,0.0882568359375,-0.247802734375
5.258,310,363,409,308,-10.0,41.0,42.0,17.02880859375,4.638671875,2.929687261581421,-0.58984375,0.0882568359375,-0.247802734375
5.266,308,362,410,309,-10.0,41.0,42.0,20.263669967651367,1.15966796875,5.126952648162842,-0.617431640625,0.134033203125,-0.248291015625
5.280,310,367,414,310,-10.0,41.0,42.0,17.76123046875,-3.662109136581421,6.835937023162842,-0.6307373046875,0.1180419921875,-0.2042236328125
5.314,310,363,479,310,-10.0,41.0,42.0,12.878417015075684,-7.873534679412842,6.591796398162842,-0.6307373046875,0.1180419921875,-0.2042236328125
5.314,299,371,535,310,-10.0,41.0,42.0,12.084959983825684,-10.498045921325684,4.7607421875,-0.6324462890625,0.069580078125,-0.1746826171875
5.314,310,439,644,310,-15.0,41.0,38.0,13.793944358825684,-13.732909202575684,4.08935546875,-0.5711669921875,0.0716552734375,-0.1097412109375
5.318,310,555,695,310,-15.0,41.0,38.0,9.6435546875,-19.287109375,6.591796398162842,-0.5615234375,0.119384765625,-0.1204833984375
5.326,309,682,718,312,-15.0,41.0,38.0,-3.234863042831421,-25.939939498901367,10.925292015075684,-0.5615234375,0.119384765625,-0.1204833984375
5.340,310,868,803,310,-15.0,41.0,38.0,-25.024412155151367,-36.43798828125,14.709471702575684,-0.84912109375,0.242919921875,-0.392822265625
5.348,310,966,858,310,-15.0,41.0,38.0,-25.024412155151367,-36.43798828125,14.709471702575684,-0.9561767578125,0.2740478515625,-0.582763671875
5.356,310,1050,960,310,-15.0,41.0,38.0,-24.230955123901367,-43.029781341552734,15.319823265075684,-0.9561767578125,0.2740478515625,-0.582763671875
5.370,309,1226,1204,310,-15.0,41.0,38.0,-59.265132904052734,-62.927242279052734,22.460935592651367,-0.5020751953125,0.138916015625,-0.4638671875
5.383,310,1336,1325,310,-15.0,41.0,38.0,-59.265132904052734,-62.927242279052734,22.460935592651367,-0.31494140625,0.00048828125,-0.1258544921875
5.386,311,1411,1411,311,-15.0,41.0,38.0,-94.36034393310547,-66.46728515625,19.53125,-0.31494140625,0.00048828125,-0.1258544921875
5.405,310,1502,1557,312,-15.0,41.0,38.0,-62.866207122802734,-49.133296966552734,5.737304210662842,-0.8060302734375,0.1947021484375,0.0196533203125
5.408,310,1538,1675,310,-10.0,37.0,49.0,-62.866207122802734,-49.133296966552734,5.737304210662842,-1.1019287109375,0.5689697265625,0.0760498046875
5.416,311,1578,1735,312,-10.0,37.0,49.0,-34.0576171875,-49.560543060302734,10.437010765075684,-1.1019287109375,0.5689697265625,0.0760498046875
5.430,310,1636,1815,311,-10.0,37.0,49.0,-47.058101654052734,-58.715816497802734,4.45556640625,-1.315185546875,0.6068115234375,0.4654541015625
5.441,310,1662,1840,308,-10.0,37.0,49.0,-47.058101654052734,-58.715816497802734,4.45556640625,-1.5111083984375,0.4842529296875,0.2965087890625
5.450,310,1647,1874,299,-10.0,37.0,49.0,-33.38623046875,-45.593257904052734,-8.7890625,-1.5111083984375,0.4842529296875,0.2965087890625
5.461,310,1681,1886,311,-10.0,37.0,49.0,14.953612327575684,-21.423337936401367,-19.71435546875,-1.9267578125,0.5745849609375,0.0101318359375
5.469,312,1669,1853,312,-10.0,37.0,49.0,22.277830123901367,-18.4326171875,-21.850584030151367,-1.9205322265625,0.550048828125,0.0860595703125
5.477,310,1669,1853,311,-10.0,37.0,49.0,22.277830123901367,-18.4326171875,-21.850584030151367,-1.63134765625,0.354736328125,-0.0025634765625
5.506,310,1667,1833,311,-10.0,37.0,49.0,44.067378997802734,16.78466796875,-35.94970703125,-1.333740234375,0.185546875,-0.30126953125
5.506,297,1662,1818,310,-10.0,37.0,49.0,49.499507904052734,37.4755859375,-40.588375091552734,-1.415771484375,0.0810546875,-0.4862060546875
5.507,298,1621,1788,314,-10.0,38.0,39.0,49.499507904052734,37.4755859375,-40.588375091552734,-1.651123046875,-0.104736328125,-0.4136962890625
5.521,310,1613,1744,312,-10.0,38.0,39.0,15.747069358825684,31.127927780151367,-26.550291061401367,-1.6697998046875,-0.2510986328125,-0.2449951171875
5.536,310,1579,1698,308,-10.0,38.0,39.0,2.868652105331421,28.869626998901367,-8.36181640625,-1.552001953125,-0.1766357421875,-0.1414794921875
5.537,310,1536,1621,312,-10.0,38.0,39.0,2.868652105331421,28.869626998901367,-8.36181640625,-1.4493408203125,0.0550537109375,-0.1376953125
5.551,310,1422,1477,310,-10.0,38.0,39.0,4.45556640625,43.457027435302734,10.131834983825684,-1.3636474609375,0.2508544921875,-0.171142578125
5.559,312,1323,1377,311,-10.0,38.0,39.0,13.305663108825684,51.635738372802734,6.774901866912842,-1.29345703125,0.31787109375,-0.22900390625
5.567,309,1225,1264,311,-10.0,38.0,39.0,25.939939498901367,56.823726654052734,0.30517578125,-1.2298583984375,0.3177490234375,-0.32177734375
5.608,309,1018,1039,310,-10.0,38.0,39.0,34.11865234375,58.959957122802734,-3.662109136581421,-1.1297607421875,0.32763671875,-0.394287109375
5.609,310,835,910,310,-10.0,38.0,39.0,30.273435592651367,58.532711029052734,-3.479003667831421,-0.9747314453125,0.3406982421875,-0.384765625
5.609,310,698,805,310,-10.0,38.0,39.0,18.06640625,56.640621185302734,-2.807616949081421,-0.759033203125,0.3033447265625,-0.30078125
5.611,310,465,599,310,-11.0,41.0,39.0,8.72802734375,57.006832122802734,-5.126952648162842,-0.5625,0.230224609375,-0.2366943359375
5.619,309,401,530,310,-11.0,41.0,39.0,8.85009765625,59.936519622802734,-7.507323741912842,-0.4698486328125,0.1986083984375,-0.1998291015625
5.627,310,381,451,310,-11.0,41.0,39.0,12.756346702575684,58.471675872802734,-6.225585460662842,-0.4564208984375,0.203125,-0.1058349609375
5.641,308,373,391,310,-11.0,41.0,39.0,12.512206077575684,50.537105560302734,-3.112792730331421,-0.5841064453125,0.2608642578125,-0.002197265625
5.657,310,367,391,310,-11.0,41.0,39.0,6.469726085662842,33.8134765625,-2.44140625,-0.74072265625,0.37548828125,0.0557861328125
5.658,309,372,393,308,-11.0,41.0,39.0,-5.432128429412842,8.544921875,-6.530761241912842,-0.72607421875,0.4154052734375,0.10986328125
5.671,308,372,377,309,-11.0,41.0,39.0,-18.310546875,-9.521484375,-12.023924827575684,-0.64111328125,0.3228759765625,0.10302734375
5.679,308,373,379,308,-11.0,41.0,39.0,-21.850584030151367,-10.803221702575684,-13.061522483825684,-0.614013671875,0.1922607421875,-0.011474609375
5.691,310,377,382,309,-11.0,41.0,39.0,-13.366698265075684,-6.225585460662842,-8.85009765625,-0.6221923828125,0.088134765625,-0.1436767578125
5.711,310,380,386,309,-11.0,41.0,39.0,-2.01416015625,-7.507323741912842,-2.868652105331421,-0.6123046875,0.00537109375,-0.2242431640625
5.711,310,379,386,309,-11.0,41.0,37.0,5.371093273162842,-13.916014671325684,2.25830078125,-0.5767822265625,-0.0469970703125,-0.252685546875
5.720,308,379,384,310,-11.0,41.0,37.0,11.718749046325684,-20.01953125,5.126952648162842,-0.5347900390625,-0.0650634765625,-0.262451171875
5.731,308,381,396,309,-11.0,41.0,37.0,20.080564498901367,-21.972654342651367,5.065917491912842,-0.5267333984375,-0.0460205078125,-0.279541015625
5.739,309,381,411,310,-11.0,41.0,37.0,27.221677780151367,-20.385740280151367,3.662109136581421,-0.5599365234375,0.008544921875,-0.3062744140625
5.747,310,379,486,309,-11.0,41.0,37.0,30.090330123901367,-18.49365234375,2.990722417831421,-0.6070556640625,0.0689697265625,-0.3328857421875
5.767,309,391,613,310,-11.0,41.0,37.0,28.930662155151367,-19.04296875,3.112792730331421,-0.635986328125,0.1026611328125,-0.3480224609375
5.771,308,402,685,310,-11.0,41.0,37.0,22.033689498901367,-23.132322311401367,3.356933355331421,-0.6162109375,0.120361328125,-0.32763671875
5.777,310,439,751,309,-11.0,41.0,37.0,4.94384765625,-30.700681686401367,2.990722417831421,-0.5484619140625,0.119873046875,-0.2720947265625
5.792,310,642,805,309,-11.0,41.0,37.0,-20.874021530151367,-38.87939453125,2.868652105331421,-0.4869384765625,0.08837890625,-0.2066650390625
5.809,309,784,816,310,-11.0,41.0,37.0,-42.114253997802734,-45.410152435302734,5.371093273162842,-0.520751953125,0.0653076171875,-0.159912109375
5.809,309,913,853,310,-11.0,38.0,43.0,-46.325679779052734,-52.246089935302734,10.498045921325684,-0.6949462890625,0.14404296875,-0.1651611328125
5.822,310,1048,1078,310,-11.0,38.0,43.0,-35.0341796875,-61.523433685302734,15.930174827575684,-0.932373046875,0.3087158203125,-0.2041015625
5.829,310,1133,1239,310,-11.0,38.0,43.0,-21.789548873901367,-71.71630859375,21.057126998901367,-0.9991455078125,0.387451171875,-0.227783203125
5.837,310,1206,1400,311,-11.0,38.0,43.0,-23.193357467651367,-80.13916015625,25.085447311401367,-0.7308349609375,0.281494140625,-0.189453125
5.851,310,1334,1627,310,-11.0,38.0,43.0,-48.217769622802734,-83.86229705810547,23.559568405151367,-0.358154296875,0.01806640625,-0.05859375
5.859,310,1380,1723,310,-11.0,38.0,43.0,-83.55712127685547,-79.833984375,13.122557640075684,-0.281005859375,-0.2750244140625,0.1597900390625
5.873,310,1443,1800,310,-11.0,38.0,43.0,-93.07860565185547,-70.86181640625,1.7089842557907104,-0.561279296875,-0.3341064453125,0.338134765625
5.881,310,1514,1910,310,-11.0,38.0,43.0,-54.016109466552734,-65.61279296875,4.150390625,-1.394287109375,0.63671875,0.15576171875
5.897,310,1543,1953,310,-11.0,38.0,43.0,1.8310545682907104,-69.9462890625,20.874021530151367,-1.394287109375,0.63671875,0.15576171875
5.897,310,1588,1982,312,-11.0,38.0,43.0,27.648923873901367,-80.01708984375,35.09521484375,-1.611572265625,1.03125,0.0186767578125
5.918,310,1651,2010,310,-9.0,36.0,45.0,26.123044967651367,-82.82469940185547,34.11865234375,-1.7559814453125,0.67724609375,-0.0784912109375
5.919,310,1682,2010,309,-9.0,36.0,45.0,24.414060592651367,-70.73974609375,21.606443405151367,-1.7559814453125,0.67724609375,-0.0784912109375
5.927,310,1694,2014,312,-9.0,36.0,45.0,31.433103561401367,-49.072261810302734,8.056640625,-1.8486328125,0.40283203125,-0.09521484375
5.941,310,1694,1978,312,-9.0,36.0,45.0,41.076656341552734,-29.235837936401367,-2.990722417831421,-1.6861572265625,0.13037109375,-0.0574951171875
5.949,310,1689,1966,312,-9.0,36.0,45.0,49.255367279052734,-15.930174827575684,-13.061522483825684,-1.6861572265625,0.13037109375,-0.0574951171875
5.957,309,1675,1955,312,-9.0,36.0,45.0,54.809566497802734,-2.990722417831421,-20.080564498901367,-1.3404541015625,0.09619140625,-0.1990966796875
5.975,310,1662,1959,311,-9.0,36.0,45.0,48.522945404052734,11.901854515075684,-21.545408248901367,-1.1123046875,0.263916015625,-0.4197998046875
5.979,311,1649,1966,310,-9.0,36.0,45.0,20.568845748901367,21.789548873901367,-20.507810592651367,-1.1123046875,0.263916015625,-0.4197998046875
5.987,310,1640,1966,311,-9.0,36.0,45.0,-20.141599655151367,24.414060592651367,-19.71435546875,-1.25439453125,0.2725830078125,-0.17626953125
6.019,310,1600,1948,310,-9.0,36.0,45.0,-51.452632904052734,22.888181686401367,-18.798828125,-1.549072265625,0.1492919921875,0.3455810546875
6.021,310,1565,1911,311,-9.0,37.0,46.0,-58.166500091552734,20.996091842651367,-17.822265625,-1.4927978515625,0.0821533203125,0.27783203125
6.021,310,1524,1870,310,-9.0,37.0,46.0,-38.6962890625,24.108884811401367,-16.17431640625,-1.4927978515625,0.0821533203125,0.27783203125
6.031,310,1449,1803,312,-9.0,37.0,46.0,18.00537109375,40.893550872802734,-6.958007335662842,-1.3076171875,0.317138671875,-0.2022705078125
6.039,310,1398,1752,312,-9.0,37.0,46.0,18.00537109375,40.893550872802734,-6.958007335662842,-1.2938232421875,0.4263916015625,-0.2374267578125
6.047,310,1344,1695,311,-9.0,37.0,46.0,19.287109375,43.884273529052734,-4.638671875,-1.2938232421875,0.4263916015625,-0.2374267578125
6.061,310,1215,1572,311,-9.0,37.0,46.0,-0.1831054538488388,43.212886810302734,-13.000487327575684,-1.23388671875,0.30712890625,-0.13525390625
6.069,310,1140,1490,312,-9.0,37.0,46.0,-0.1831054538488388,43.212886810302734,-13.000487327575684,-1.1219482421875,0.2373046875,-0.1578369140625
6.083,309,1054,1407,313,-9.0,37.0,46.0,2.13623046875,45.593257904052734,-17.63916015625,-1.1219482421875,0.2373046875,-0.1578369140625
6.091,310,835,1219,311,-9.0,37.0,46.0,12.451170921325684,51.696773529052734,-21.545408248901367,-0.847412109375,0.1558837890625,-0.2718505859375
6.132,310,688,1120,310,-9.0,37.0,46.0,12.451170921325684,51.696773529052734,-21.545408248901367,-0.7353515625,0.0760498046875,-0.3515625
6.132,310,527,964,310,-9.0,40.0,44.0,14.404295921325684,54.687496185302734,-25.817869186401367,-0.7353515625,0.0760498046875,-0.3515625
6.132,309,384,764,296,-9.0,40.0,44.0,13.610838890075684,54.626461029052734,-25.756834030151367,-0.6650390625,0.155517578125,-0.34375
6.132,310,377,616,309,-9.0,40.0,44.0,13.610838890075684,54.626461029052734,-25.756834030151367,-0.6446533203125,0.1640625,-0.11865234375
6.137,310,367,519,310,-9.0,40.0,44.0,0.0,43.457027435302734,-21.179197311401367,-0.6446533203125,0.1640625,-0.11865234375
6.151,310,361,449,310,-9.0,40.0,44.0,-7.263183116912842,27.038572311401367,-24.719236373901367,-0.770751953125,0.0235595703125,0.0599365234375
6.159,309,357,424,308,-9.0,40.0,44.0,24.780271530151367,27.160642623901367,-25.146482467651367,-0.8533935546875,0.084228515625,-0.0859375
6.167,309,354,411,310,-9.0,40.0,44.0,24.780271530151367,27.160642623901367,-25.146482467651367,-0.8084716796875,0.15478515625,-0.19970703125
6.188,308,353,408,310,-9.0,40.0,44.0,82.39745330810547,19.47021484375,-9.1552734375,-0.6873779296875,0.1514892578125,-0.266357421875
6.189,308,354,406,307,-9.0,40.0,44.0,88.62303924560547,19.1650390625,-6.347655773162842,-0.5654296875,0.085205078125,-0.3087158203125
6.222,311,354,410,310,-9.0,40.0,44.0,88.62303924560547,19.1650390625,-6.347655773162842,-0.5020751953125,0.003662109375,-0.3673095703125
6.222,310,353,409,309,-10.0,40.0,39.0,107.48290252685547,33.38623046875,-11.901854515075684,-0.4951171875,0.0025634765625,-0.438232421875
6.223,310,354,411,310,-10.0,40.0,39.0,117.67577362060547,38.2080078125,-9.1552734375,-0.5086669921875,0.1053466796875,-0.45947265625
6.228,310,352,411,310,-10.0,40.0,39.0,117.67577362060547,38.2080078125,-9.1552734375,-0.523193359375,0.2266845703125,-0.41650390625
6.241,309,354,411,310,-10.0,40.0,39.0,113.09813690185547,31.616209030151367,5.065917491912842,-0.5472412109375,0.3070068359375,-0.337890625
6.249,310,353,414,310,-10.0,40.0,39.0,100.64696502685547,25.451658248901367,9.09423828125,-0.5859375,0.364501953125,-0.2353515625
6.257,310,357,415,308,-10.0,40.0,39.0,100.64696502685547,25.451658248901367,9.09423828125,-0.616943359375,0.416015625,-0.1136474609375
6.271,310,360,423,307,-10.0,40.0,39.0,57.250972747802734,9.765625,10.803221702575684,-0.61865234375,0.4285888671875,0.018798828125
6.279,309,362,426,310,-10.0,40.0,39.0,22.460935592651367,0.0610351525247097,9.46044921875,-0.586181640625,0.356689453125,0.15673828125
6.292,308,368,556,309,-10.0,40.0,39.0,22.460935592651367,0.0610351525247097,9.46044921875,-0.533203125,0.16357421875,0.3045654296875
6.305,310,383,572,308,-10.0,40.0,48.0,-49.865718841552734,-22.644041061401367,0.1831054538488388,-0.42724609375,-0.149658203125,0.549560546875
6.326,310,473,619,310,-10.0,40.0,48.0,-67.3828125,-34.11865234375,-9.09423828125,-0.238525390625,-0.4639892578125,0.7607421875
6.326,310,725,723,296,-10.0,40.0,48.0,-65.185546875,-34.97314453125,-9.521484375,-0.1331787109375,-0.61328125,0.5662841796875
6.333,309,947,853,310,-10.0,40.0,48.0,-36.07177734375,-29.113767623901367,8.60595703125,-0.507568359375,-0.4356689453125,-0.0213623046875
6.339,308,1050,987,310,-10.0,40.0,48.0,7.385253429412842,-42.236324310302734,36.68212890625,-1.18212890625,0.0355224609375,-0.6314697265625
6.347,310,1189,1125,310,-10.0,40.0,48.0,29.968259811401367,-75.50048828125,59.936519622802734,-1.317138671875,0.4052734375,-0.835205078125
6.361,310,1393,1386,312,-10.0,40.0,48.0,4.57763671875,-100.09764862060547,67.138671875,-0.8056640625,0.432861328125,-0.5350341796875
6.369,310,1462,1483,310,-10.0,40.0,48.0,-61.218257904052734,-99.24315643310547,52.246089935302734,-0.509033203125,0.2037353515625,-0.061767578125
6.377,311,1533,1561,310,-10.0,40.0,48.0,-104.79735565185547,-76.35498046875,23.437498092651367,-0.8509521484375,-0.0867919921875,0.1240234375
6.391,309,1632,1666,310,-10.0,40.0,48.0,-80.62743377685547,-47.058101654052734,6.530761241912842,-1.37451171875,-0.0050048828125,-0.0543212890625
6.407,310,1666,1709,312,-10.0,40.0,48.0,-31.860349655151367,-31.494138717651367,13.610838890075684,-1.715087890625,0.589599609375,-0.2899169921875
6.408,310,1684,1752,310,-12.0,37.0,45.0,-17.822265625,-33.935546875,26.794431686401367,-1.8388671875,1.1376953125,-0.3756103515625
6.428,310,1730,1803,310,-12.0,37.0,45.0,-37.4755859375,-40.10009765625,22.949216842651367,-1.8145751953125,1.152587890625,-0.2623291015625
6.429,310,1735,1831,298,-12.0,37.0,45.0,-55.969234466552734,-37.78076171875,1.3427733182907104,-1.789794921875,0.8310546875,-0.0728759765625
6.437,311,1735,1834,310,-12.0,37.0,45.0,-54.809566497802734,-27.282712936401367,-19.04296875,-1.7952880859375,0.551513671875,0.123046875
6.451,309,1724,1838,310,-12.0,37.0,45.0,-38.26904296875,-15.258788108825684,-30.090330123901367,-1.714111328125,0.311279296875,0.2786865234375
6.459,310,1725,1842,311,-12.0,37.0,45.0,-15.563963890075684,-2.563476324081421,-37.353515625,-1.4481201171875,0.0069580078125,0.294677734375
6.468,310,1727,1845,310,-12.0,37.0,45.0,6.713866710662842,12.145995140075684,-42.053218841552734,-1.2850341796875,-0.2066650390625,0.1441650390625
6.481,310,1709,1811,311,-12.0,37.0,45.0,18.98193359375,22.216794967651367,-39.48974609375,-1.4775390625,-0.2244873046875,-0.0352783203125
6.489,308,1689,1785,311,-12.0,37.0,45.0,19.59228515625,23.803709030151367,-27.893064498901367,-1.7001953125,-0.1661376953125,-0.107177734375
6.497,310,1665,1739,312,-12.0,37.0,45.0,15.136717796325684,22.888181686401367,-11.596678733825684,-1.695068359375,-0.081787109375,-0.12890625
6.530,310,1593,1634,310,-13.0,38.0,45.0,11.779784202575684,25.390623092651367,1.9531248807907104,-1.537353515625,0.0238037109375,-0.1578369140625
6.531,310,1528,1536,312,-13.0,38.0,45.0,12.023924827575684,31.860349655151367,8.72802734375,-1.3687744140625,0.1414794921875,-0.1787109375
6.531,309,1450,1419,295,-13.0,38.0,45.0,14.282225608825684,40.10009765625,9.09423828125,-1.260498046875,0.252685546875,-0.1953125
6.541,310,1258,1202,310,-13.0,38.0,45.0,17.63916015625,47.302242279052734,4.150390625,-1.1824951171875,0.3101806640625,-0.2218017578125
6.550,311,1136,1067,311,-13.0,38.0,45.0,20.874021530151367,51.879878997802734,-4.7607421875,-1.084716796875,0.311767578125,-0.2491455078125
6.557,310,986,944,310,-13.0,38.0,45.0,21.362302780151367,53.894039154052734,-14.282225608825684,-0.95166015625,0.2852783203125,-0.2330322265625
6.573,309,678,739,310,-13.0,38.0,45.0,18.4326171875,54.321285247802734,-21.057126998901367,-0.8001708984375,0.2349853515625,-0.152099609375
6.579,309,585,622,311,-13.0,38.0,45.0,15.014647483825684,54.443355560302734,-24.597166061401367,-0.6253662109375,0.156494140625,-0.0272216796875
6.587,309,497,558,308,-13.0,38.0,45.0,14.099120140075684,55.541988372802734,-25.573728561401367,-0.43701171875,0.05517578125,0.0885009765625
6.601,308,394,497,310,-11.0,41.0,44.0,17.27294921875,57.678218841552734,-24.047849655151367,-0.3594970703125,-0.02783203125,0.1107177734375
6.649,309,386,479,308,-11.0,41.0,44.0,24.841306686401367,55.969234466552734,-21.850584030151367,-0.4415283203125,-0.0189208984375,0.0596923828125
6.682,308,384,465,308,-11.0,41.0,44.0,29.846189498901367,46.569820404052734,-17.08984375,-0.5799560546875,0.09912109375,0.00244140625
6.682,296,382,467,306,-11.0,41.0,44.0,23.986814498901367,34.11865234375,-5.065917491912842,-0.679443359375,0.3526611328125,-0.1822509765625
6.682,308,380,485,308,-11.0,41.0,44.0,11.474608421325684,23.864744186401367,10.070799827575684,-0.679443359375,0.3526611328125,-0.1822509765625
6.682,308,384,483,308,-11.0,41.0,44.0,4.0283203125,16.11328125,17.76123046875,-0.6319580078125,0.2691650390625,-0.25341796875
6.682,310,386,508,309,-11.0,41.0,44.0,5.615233898162842,10.375975608825684,14.831542015075684,-0.5745849609375,-0.0291748046875,-0.3817138671875
6.682,309,387,510,309,-11.0,41.0,44.0,11.657713890075684,7.202147960662842,7.934569835662842,-0.5745849609375,-0.0291748046875,-0.3817138671875
6.683,310,393,516,310,-11.0,41.0,44.0,16.2353515625,5.920409679412842,3.295898199081421,-0.6322021484375,-0.0601806640625,-0.4451904296875
6.694,311,407,536,309,-11.0,41.0,44.0,15.747069358825684,3.540038824081421,1.7089842557907104,-0.7943115234375,0.062255859375,-0.318603515625
6.699,310,408,540,308,-13.0,40.0,42.0,9.765625,-2.50244140625,2.197265625,-0.7943115234375,0.062255859375,-0.318603515625
6.736,309,420,547,310,-13.0,40.0,42.0,0.8544921278953552,-9.3994140625,3.662109136581421,-0.83349609375,0.1109619140625,-0.2076416015625
6.737,310,488,572,310,-13.0,40.0,42.0,-6.103515148162842,-12.512206077575684,4.39453125,-0.896728515625,0.119873046875,-0.1806640625
6.737,296,513,573,310,-13.0,40.0,42.0,-8.60595703125,-12.390135765075684,4.150390625,-0.896728515625,0.119873046875,-0.1806640625
6.737,295,568,601,298,-13.0,40.0,42.0,-9.3994140625,-11.901854515075684,4.39453125,-0.912353515625,0.124267578125,-0.188232421875
6.751,309,673,636,308,-13.0,40.0,42.0,-10.498045921325684,-13.000487327575684,5.615233898162842,-0.8792724609375,0.081298828125,-0.22802734375
6.759,310,750,653,311,-13.0,40.0,42.0,-11.779784202575684,-16.29638671875,7.690429210662842,-0.8792724609375,0.081298828125,-0.22802734375
6.767,310,861,700,310,-13.0,40.0,42.0,-13.305663108825684,-20.996091842651367,11.169432640075684,-0.787353515625,0.0472412109375,-0.281005859375
6.781,310,1029,830,310,-13.0,40.0,42.0,-23.376462936401367,-31.494138717651367,19.8974609375,-0.544189453125,0.046875,-0.405029296875
6.789,310,1131,931,310,-13.0,40.0,42.0,-23.376462936401367,-31.494138717651367,19.8974609375,-0.4666748046875,0.0994873046875,-0.376953125
6.797,310,1237,1020,310,-11.0,39.0,44.0,-38.02490234375,-39.794921875,22.583005905151367,-0.4666748046875,0.0994873046875,-0.376953125
6.817,310,1387,1204,312,-11.0,39.0,44.0,-77.94189453125,-52.856441497802734,20.751951217651367,-0.318359375,0.1376953125,-0.203369140625
6.837,308,1503,1309,310,-11.0,39.0,44.0,-77.94189453125,-52.856441497802734,20.751951217651367,-0.3759765625,0.115478515625,-0.160400390625
6.837,311,1568,1445,311,-11.0,39.0,44.0,-81.42089080810547,-48.461910247802734,13.061522483825684,-0.3759765625,0.115478515625,-0.160400390625
6.841,310,1648,1640,309,-11.0,39.0,44.0,-64.51416015625,-39.9169921875,4.39453125,-1.01318359375,0.5213623046875,0.071533203125
6.849,310,1686,1725,312,-11.0,39.0,44.0,-64.51416015625,-39.9169921875,4.39453125,-1.3135986328125,0.6612548828125,0.3485107421875
6.857,310,1725,1790,312,-11.0,39.0,44.0,-70.1904296875,-45.166011810302734,3.356933355331421,-1.3135986328125,0.6612548828125,0.3485107421875
6.871,310,1774,1867,312,-11.0,39.0,44.0,-55.969234466552734,-40.527339935302734,-9.82666015625,-1.5045166015625,0.3380126953125,0.3302001953125
6.880,310,1803,1894,310,-11.0,39.0,44.0,-55.969234466552734,-40.527339935302734,-9.82666015625,-1.7176513671875,0.2957763671875,-0.0081787109375
6.888,310,1817,1900,310,-11.0,39.0,44.0,-26.550291061401367,-25.024412155151367,-13.671874046325684,-1.7176513671875,0.2957763671875,-0.0081787109375
6.901,310,1806,1846,311,-10.0,35.0,40.0,7.812499523162842,-7.141112804412842,-8.7890625,-2.0533447265625,0.2286376953125,-0.2059326171875
6.909,308,1805,1838,311,-10.0,35.0,40.0,7.812499523162842,-7.141112804412842,-8.7890625,-1.7884521484375,0.0126953125,-0.1192626953125
6.919,310,1803,1837,311,-10.0,35.0,40.0,10.192870140075684,-5.981444835662842,-11.901854515075684,-1.2811279296875,-0.1070556640625,-0.1309814453125
6.942,312,1803,1824,310,-10.0,35.0,40.0,17.63916015625,19.4091796875,-17.02880859375,-1.1279296875,0.017333984375,-0.1622314453125
6.943,310,1792,1805,310,-10.0,35.0,40.0,12.268065452575684,27.709959030151367,-13.610838890075684,-1.43701171875,0.14892578125,-0.1380615234375
6.948,310,1774,1773,311,-10.0,35.0,40.0,12.268065452575684,27.709959030151367,-13.610838890075684,-1.710205078125,0.14501953125,-0.15771484375
6.956,309,1742,1708,311,-10.0,35.0,40.0,5.493163585662842,31.311033248901367,-9.8876953125,-1.710205078125,0.14501953125,-0.15771484375
6.970,308,1656,1543,310,-10.0,35.0,40.0,8.23974609375,43.029781341552734,2.0751953125,-1.6158447265625,0.2333984375,-0.236083984375
6.978,310,1592,1422,311,-10.0,35.0,40.0,8.23974609375,43.029781341552734,2.0751953125,-1.4652099609375,0.261474609375,-0.1514892578125
6.986,310,1518,1268,310,-10.0,35.0,40.0,8.85009765625,48.034664154052734,5.126952648162842,-1.4652099609375,0.261474609375,-0.1514892578125
7.000,310,1289,1011,310,-8.0,40.0,42.0,19.22607421875,59.204097747802734,0.0610351525247097,-1.251953125,0.2161865234375,-0.06640625
7.008,310,1117,873,311,-8.0,40.0,42.0,29.541013717651367,60.485836029052734,-5.187987804412842,-1.08154296875,0.1588134765625,-0.04833984375
7.022,310,948,747,310,-8.0,40.0,42.0,29.541013717651367,60.485836029052734,-5.187987804412842,-0.8411865234375,0.0872802734375,0.0355224609375
7.051,308,653,633,310,-8.0,40.0,42.0,44.189449310302734,54.626461029052734,-15.747069358825684,-0.611328125,0.025146484375,0.154052734375
7.051,308,523,533,310,-8.0,40.0,42.0,46.691890716552734,50.842281341552734,-19.83642578125,-0.4461669921875,-0.025390625,0.1917724609375
7.051,289,434,496,294,-8.0,40.0,42.0,46.691890716552734,50.842281341552734,-19.83642578125,-0.3697509765625,-0.0789794921875,0.095703125
7.059,308,386,473,309,-8.0,40.0,42.0,67.7490234375,51.879878997802734,-26.062009811401367,-0.4332275390625,-0.03564453125,-0.09130859375
7.067,308,382,455,309,-8.0,40.0,42.0,67.7490234375,51.879878997802734,-26.062009811401367,-0.603271484375,0.21240234375,-0.3099365234375
7.081,310,379,414,308,-8.0,40.0,42.0,62.866207122802734,45.471187591552734,2.44140625,-0.8092041015625,0.5419921875,-0.5040283203125
7.089,308,381,407,310,-8.0,40.0,42.0,31.372068405151367,30.273435592651367,19.287109375,-0.9326171875,0.6488037109375,-0.5430908203125
7.097,310,379,394,310,-11.0,40.0,40.0,-9.8876953125,6.530761241912842,18.06640625,-0.8819580078125,0.417724609375,-0.3935546875
7.113,310,371,396,308,-11.0,40.0,40.0,-41.687007904052734,-11.779784202575684,2.868652105331421,-0.7747802734375,0.067626953125,-0.24365234375
7.124,310,367,395,310,-11.0,40.0,40.0,-46.020503997802734,-16.845703125,-11.230467796325684,-0.722412109375,-0.1444091796875,-0.220458984375
7.127,308,364,394,310,-11.0,40.0,40.0,-23.315427780151367,-14.465331077575684,-14.770506858825684,-0.70654296875,-0.1490478515625,-0.2657470703125
7.150,310,364,402,308,-11.0,40.0,40.0,10.864256858825684,-10.253905296325684,-8.23974609375,-0.679443359375,-0.008544921875,-0.3189697265625
7.153,309,365,402,308,-11.0,40.0,40.0,38.57421875,-6.652831554412842,0.9155272841453552,-0.633056640625,0.16259765625,-0.3662109375
7.157,309,364,407,310,-11.0,40.0,40.0,48.156734466552734,-4.638671875,5.493163585662842,-0.612060546875,0.2613525390625,-0.3758544921875
7.171,308,368,414,308,-11.0,40.0,40.0,40.10009765625,-4.21142578125,4.2724609375,-0.631591796875,0.252685546875,-0.326904296875
7.180,308,371,420,310,-11.0,40.0,40.0,22.888181686401367,-4.8828125,0.9765624403953552,-0.6536865234375,0.1610107421875,-0.2431640625
7.187,310,372,425,308,-11.0,40.0,40.0,5.249022960662842,-6.591796398162842,-1.03759765625,-0.6522216796875,0.03125,-0.1566162109375
7.201,310,380,490,310,-12.0,41.0,41.0,-7.385253429412842,-9.33837890625,-0.9155272841453552,-0.6322021484375,-0.0965576171875,-0.090576171875
7.209,308,386,523,310,-12.0,41.0,41.0,-13.000487327575684,-12.695311546325684,0.7934569716453552,-0.5987548828125,-0.1868896484375,-0.068115234375
7.217,310,387,525,310,-12.0,41.0,41.0,-12.695311546325684,-16.17431640625,4.82177734375,-0.5496826171875,-0.208984375,-0.0733642578125
7.256,310,408,594,310,-12.0,41.0,41.0,-10.864256858825684,-20.690916061401367,11.474608421325684,-0.4779052734375,-0.1685791015625,-0.070068359375
7.256,309,519,654,308,-12.0,41.0,41.0,-10.742186546325684,-25.451658248901367,19.8974609375,-0.4183349609375,-0.0755615234375,-0.0625
7.256,310,713,705,309,-12.0,41.0,41.0,-11.413573265075684,-29.785154342651367,29.052732467651367,-0.4019775390625,0.059814453125,-0.0694580078125
7.261,308,938,811,310,-12.0,41.0,41.0,-14.343260765075684,-36.376953125,36.92626953125,-0.5205078125,0.2259521484375,-0.1439208984375
7.269,310,1035,916,311,-12.0,41.0,41.0,-18.9208984375,-45.349117279052734,39.55078125,-0.8497314453125,0.399169921875,-0.3428955078125
7.278,310,1139,1025,310,-12.0,41.0,41.0,-17.578125,-54.016109466552734,37.53662109375,-1.0888671875,0.43505859375,-0.559814453125
7.291,310,1311,1300,310,-12.0,41.0,41.0,-17.2119140625,-60.180660247802734,37.04833984375,-0.829833984375,0.3056640625,-0.6014404296875
7.300,310,1411,1422,311,-11.0,37.0,46.0,-44.860836029052734,-61.401363372802734,36.43798828125,-0.3369140625,0.18994140625,-0.403076171875
7.307,310,1474,1531,310,-11.0,37.0,46.0,-94.05516815185547,-55.297847747802734,24.414060592651367,-0.2669677734375,0.07177734375,-0.096435546875
7.329,309,1557,1730,311,-11.0,37.0,46.0,-114.86815643310547,-43.273921966552734,3.173827886581421,-0.7303466796875,-0.0008544921875,0.07275390625
7.330,310,1564,1778,312,-11.0,37.0,46.0,-92.10204315185547,-33.99658203125,-5.249022960662842,-1.30126953125,0.2353515625,0.12890625
7.347,310,1640,1882,311,-11.0,37.0,46.0,-62.988277435302734,-37.353515625,5.798339366912842,-1.5994873046875,0.6151123046875,0.2745361328125
7.362,311,1691,1954,312,-11.0,37.0,46.0,-51.025386810302734,-46.325679779052734,17.27294921875,-1.63818359375,0.7740478515625,0.3619384765625
7.362,309,1708,1982,310,-11.0,37.0,46.0,-41.381832122802734,-43.151851654052734,16.78466796875,-1.6932373046875,0.7213134765625,0.19091796875
7.367,310,1727,1997,312,-11.0,37.0,46.0,-21.118162155151367,-28.503416061401367,10.009765625,-1.86279296875,0.5810546875,-0.029541015625
7.381,310,1732,1951,314,-11.0,37.0,46.0,0.54931640625,-16.7236328125,2.3193359375,-1.9962158203125,0.3927001953125,-0.0555419921875
7.389,311,1744,1939,312,-11.0,37.0,46.0,14.770506858825684,-11.535643577575684,-8.056640625,-1.892822265625,0.1416015625,0.007080078125
7.397,310,1742,1929,312,-10.0,36.0,47.0,27.587888717651367,-3.112792730331421,-19.47021484375,-1.4925537109375,-0.09619140625,-0.076904296875
7.411,310,1743,1922,312,-10.0,36.0,47.0,39.9169921875,11.657713890075684,-25.207517623901367,-1.451416015625,0.111328125,-0.370361328125
7.419,310,1734,1905,311,-10.0,36.0,47.0,38.87939453125,20.202634811401367,-22.949216842651367,-1.451416015625,0.111328125,-0.370361328125
7.432,310,1711,1873,310,-10.0,36.0,47.0,23.254392623901367,18.73779296875,-15.991209983825684,-1.6988525390625,0.2064208984375,-0.347412109375
7.452,310,1665,1783,310,-10.0,36.0,47.0,7.385253429412842,17.4560546875,-8.056640625,-1.502197265625,0.172119140625,-0.2899169921875
7.452,310,1625,1711,311,-10.0,36.0,47.0,0.7934569716453552,20.141599655151367,-1.8310545682907104,-1.502197265625,0.172119140625,-0.2899169921875
7.464,310,1580,1617,312,-10.0,36.0,47.0,1.7700194120407104,24.658201217651367,1.4648436307907104,-1.354736328125,0.2276611328125,-0.2288818359375
7.471,310,1468,1411,311,-10.0,36.0,47.0,4.5166015625,29.968259811401367,1.6479490995407104,-1.18310546875,0.3419189453125,-0.145751953125
7.479,310,1373,1260,312,-10.0,36.0,47.0,8.544921875,34.97314453125,-1.0986328125,-1.18310546875,0.3419189453125,-0.145751953125
7.487,310,1258,1129,311,-10.0,36.0,47.0,15.075682640075684,38.51318359375,-7.202147960662842,-1.042724609375,0.266357421875,-0.17724609375
7.501,309,1054,928,310,-10.0,38.0,45.0,21.362302780151367,40.283199310302734,-14.587401390075684,-0.6788330078125,-0.037841796875,-0.06884765625
7.509,310,919,832,311,-10.0,38.0,45.0,23.193357467651367,39.4287109375,-18.310546875,-0.6788330078125,-0.037841796875,-0.06884765625
7.517,310,826,771,309,-10.0,38.0,45.0,21.301267623901367,36.19384765625,-16.11328125,-0.5299072265625,-0.1181640625,0.1025390625
7.534,310,718,673,310,-10.0,38.0,45.0,20.935056686401367,32.89794921875,-10.498045921325684,-0.329833984375,-0.121337890625,0.198974609375
7.556,310,674,653,310,-10.0,38.0,45.0,25.146482467651367,30.639646530151367,-5.493163585662842,-0.344970703125,-0.0859375,0.0716552734375
7.556,298,656,645,310,-10.0,38.0,45.0,32.8369140625,29.479978561401367,-3.234863042831421,-0.344970703125,-0.0859375,0.0716552734375
7.564,310,660,644,310,-10.0,38.0,45.0,38.75732421875,20.324705123901367,8.72802734375,-0.55615234375,0.3436279296875,-0.218505859375
7.572,309,677,646,308,-10.0,38.0,45.0,38.75732421875,20.324705123901367,8.72802734375,-0.6236572265625,0.50927734375,-0.2669677734375
7.577,310,698,666,310,-10.0,38.0,45.0,30.151365280151367,9.82666015625,18.37158203125,-0.6236572265625,0.50927734375,-0.2669677734375
7.591,310,751,695,310,-10.0,38.0,45.0,13.366698265075684,-8.056640625,16.2353515625,-0.7462158203125,0.3316650390625,-0.291259765625
7.599,309,778,710,310,-10.0,40.0,43.0,13.366698265075684,-8.056640625,16.2353515625,-0.79541015625,0.1702880859375,-0.300048828125
7.607,310,814,721,310,-10.0,40.0,43.0,10.620116233825684,-12.573241233825684,9.21630859375,-0.79541015625,0.1702880859375,-0.300048828125
7.621,310,873,754,310,-10.0,40.0,43.0,4.69970703125,-18.37158203125,3.906249761581421,-0.8231201171875,0.0518798828125,-0.3145751953125
7.637,309,922,780,310,-10.0,40.0,43.0,4.69970703125,-18.37158203125,3.906249761581421,-0.8221435546875,0.0751953125,-0.304931640625
7.638,297,982,806,310,-10.0,40.0,43.0,-2.807616949081421,-20.263669967651367,5.371093273162842,-0.8221435546875,0.0751953125,-0.304931640625
7.656,310,1076,873,310,-10.0,40.0,43.0,-19.775390625,-27.648923873901367,10.620116233825684,-0.83251953125,0.0933837890625,-0.19873046875
7.659,310,1129,912,310,-10.0,40.0,43.0,-19.775390625,-27.648923873901367,10.620116233825684,-0.80517578125,0.05859375,-0.18603515625
7.668,311,1188,959,310,-10.0,40.0,43.0,-26.123044967651367,-31.127927780151367,13.000487327575684,-0.80517578125,0.05859375,-0.18603515625
7.683,310,1283,1050,310,-10.0,40.0,43.0,-40.893550872802734,-36.31591796875,17.578125,-0.7259521484375,0.0858154296875,-0.1878662109375
7.689,310,1346,1157,311,-10.0,40.0,43.0,-47.241207122802734,-40.283199310302734,18.37158203125,-0.690185546875,0.1072998046875,-0.1778564453125
7.697,310,1400,1255,310,-12.0,39.0,44.0,-47.241207122802734,-40.283199310302734,18.37158203125,-0.6446533203125,0.1285400390625,-0.16455078125
7.711,310,1490,1422,310,-12.0,39.0,44.0,-39.6728515625,-47.241207122802734,17.27294921875,-0.615478515625,0.21728515625,-0.1268310546875
7.719,310,1533,1531,312,-12.0,39.0,44.0,-33.75244140625,-51.208492279052734,18.00537109375,-0.6221923828125,0.3614501953125,-0.077880859375
7.727,310,1591,1632,312,-12.0,39.0,44.0,-33.75244140625,-51.208492279052734,18.00537109375,-0.640869140625,0.4764404296875,-0.0311279296875
7.741,310,1666,1783,311,-12.0,39.0,44.0,-39.12353515625,-58.898921966552734,13.061522483825684,-0.6875,0.52490234375,0.031005859375
7.755,310,1695,1843,310,-12.0,39.0,44.0,-43.823238372802734,-59.265132904052734,5.920409679412842,-0.8280029296875,0.5167236328125,0.07373046875
7.758,312,1725,1895,312,-12.0,39.0,44.0,-43.823238372802734,-59.265132904052734,5.920409679412842,-1.056640625,0.458984375,0.0736083984375
7.771,311,1759,1980,311,-12.0,39.0,44.0,-41.931148529052734,-50.964351654052734,-10.864256858825684,-1.2991943359375,0.4068603515625,0.0631103515625
7.790,311,1772,2028,311,-12.0,39.0,44.0,-39.794921875,-46.691890716552734,-15.747069358825684,-1.489990234375,0.3934326171875,0.074951171875
7.790,310,1778,2055,311,-12.0,39.0,44.0,-39.794921875,-46.691890716552734,-15.747069358825684,-1.622802734375,0.371826171875,0.1248779296875
7.803,310,1788,2080,311,-9.0,37.0,44.0,-31.555173873901367,-36.376953125,-18.24951171875,-1.7322998046875,0.2703857421875,0.20458984375
7.809,310,1786,2069,312,-9.0,37.0,44.0,-22.888181686401367,-27.343748092651367,-19.775390625,-1.7640380859375,0.06982421875,0.2611083984375
7.817,311,1782,2055,311,-9.0,37.0,44.0,-22.888181686401367,-27.343748092651367,-19.775390625,-1.5789794921875,-0.1202392578125,0.173095703125
7.831,310,1791,2053,312,-9.0,37.0,44.0,9.82666015625,8.056640625,-18.61572265625,-1.2034912109375,-0.123046875,-0.0531005859375
7.841,311,1800,2054,312,-9.0,37.0,44.0,21.972654342651367,27.587888717651367,-10.681151390075684,-1.0521240234375,0.0533447265625,-0.1922607421875
7.858,309,1796,2037,312,-9.0,37.0,44.0,16.845703125,33.203125,-3.662109136581421,-1.3099365234375,0.201904296875,-0.1358642578125
7.861,311,1788,2005,311,-9.0,37.0,44.0,4.08935546875,29.052732467651367,0.2441406100988388,-1.585205078125,0.2431640625,-0.0513916015625
7.870,310,1770,1974,310,-9.0,37.0,44.0,-0.6103515625,27.099607467651367,2.807616949081421,-1.6182861328125,0.27978515625,-0.061279296875
7.883,308,1747,1937,312,-9.0,37.0,44.0,2.13623046875,31.127927780151367,4.2724609375,-1.4949951171875,0.3416748046875,-0.0782470703125
7.891,310,1686,1817,312,-11.0,40.0,45.0,5.615233898162842,38.4521484375,2.38037109375,-1.355712890625,0.358642578125,-0.0408935546875
7.904,311,1638,1719,312,-11.0,40.0,45.0,9.46044921875,46.386714935302734,-3.417968511581421,-1.264892578125,0.33642578125,-0.0120849609375
7.909,310,1580,1621,310,-11.0,40.0,45.0,15.197752952575684,53.527828216552734,-9.94873046875,-1.2210693359375,0.3067626953125,-0.0269775390625
7.921,310,1434,1380,311,-11.0,40.0,45.0,20.629880905151367,58.349605560302734,-15.747069358825684,-1.201904296875,0.2393798828125,-0.0506591796875
7.929,308,1300,1220,310,-11.0,40.0,45.0,23.315427780151367,60.668941497802734,-20.507810592651367,-1.166259765625,0.123046875,-0.0595703125
7.943,310,1173,1092,311,-11.0,40.0,45.0,24.841306686401367,61.584468841552734,-21.850584030151367,-1.0709228515625,0.0194091796875,-0.05419921875
7.964,311,910,846,310,-11.0,40.0,45.0,27.832029342651367,61.157222747802734,-18.49365234375,-0.9014892578125,-0.0343017578125,-0.001708984375
7.964,310,750,751,310,-11.0,40.0,45.0,30.700681686401367,58.410640716552734,-13.549803733825684,-0.7154541015625,-0.0430908203125,0.088134765625
7.968,310,613,660,310,-11.0,40.0,45.0,31.311033248901367,54.077144622802734,-12.023924827575684,-0.5751953125,-0.0286865234375,0.1181640625
7.981,310,438,547,310,-11.0,40.0,45.0,34.48486328125,50.964351654052734,-15.563963890075684,-0.508544921875,-0.031494140625,0.0238037109375
7.989,310,398,504,310,-10.0,40.0,47.0,45.898433685302734,50.354000091552734,-19.83642578125,-0.5406494140625,0.0296630859375,-0.1383056640625
7.998,309,400,457,310,-10.0,40.0,47.0,55.236812591552734,47.241207122802734,-15.258788108825684,-0.61962890625,0.2421875,-0.2645263671875
8.014,309,386,452,310,-10.0,40.0,47.0,50.659175872802734,38.818359375,-0.54931640625,-0.6788330078125,0.489501953125,-0.339111328125
8.019,310,387,464,310,-10.0,40.0,47.0,39.55078125,29.541013717651367,11.535643577575684,-0.7010498046875,0.5897216796875,-0.3857421875
8.027,309,387,440,309,-10.0,40.0,47.0,34.1796875,23.254392623901367,8.36181640625,-0.7073974609375,0.517822265625,-0.4007568359375
8.069,310,384,427,310,-10.0,40.0,47.0,32.5927734375,17.88330078125,-6.103515148162842,-0.722900390625,0.365234375,-0.384033203125
8.070,297,385,426,309,-10.0,40.0,47.0,25.024412155151367,11.962889671325684,-18.24951171875,-0.73486328125,0.1988525390625,-0.332275390625
8.071,308,369,441,308,-10.0,40.0,47.0,13.366698265075684,7.080077648162842,-23.315427780151367,-0.7373046875,0.0587158203125,-0.2552490234375
8.072,310,369,439,310,-10.0,40.0,47.0,6.347655773162842,3.295898199081421,-22.094724655151367,-0.7265625,-0.005859375,-0.1741943359375
8.079,309,382,480,309,-10.0,40.0,47.0,3.173827886581421,-0.4882812201976776,-15.380858421325684,-0.70849609375,0.0009765625,-0.100830078125
8.087,310,386,496,308,-10.0,40.0,47.0,-0.7324218153953552,-3.723144292831421,-6.958007335662842,-0.7042236328125,0.01318359375,-0.0528564453125
8.105,310,394,509,310,-10.0,40.0,45.0,-3.479003667831421,-5.432128429412842,-1.03759765625,-0.7130126953125,-0.0052490234375,-0.04052734375
8.109,310,401,513,308,-10.0,40.0,45.0,-1.9531248807907104,-6.103515148162842,1.0986328125,-0.719970703125,-0.0404052734375,-0.0565185546875
8.117,310,401,522,309,-10.0,40.0,45.0,1.9531248807907104,-6.896972179412842,1.15966796875,-0.7086181640625,-0.0614013671875,-0.0882568359375
8.131,309,407,547,310,-10.0,40.0,45.0,5.0048828125,-8.85009765625,2.3193359375,-0.67236328125,-0.0506591796875,-0.124267578125
8.139,310,456,616,310,-10.0,40.0,45.0,6.103515148162842,-12.084959983825684,6.652831554412842,-0.609130859375,-0.0133056640625,-0.1513671875
8.147,310,590,683,310,-10.0,40.0,45.0,6.164550304412842,-17.08984375,13.183592796325684,-0.5291748046875,0.0341796875,-0.16943359375
8.170,310,877,767,310,-10.0,40.0,45.0,4.0283203125,-25.329587936401367,19.22607421875,-0.505126953125,0.1318359375,-0.296142578125
8.170,310,1008,827,294,-10.0,40.0,45.0,-1.5258787870407104,-35.70556640625,23.925779342651367,-0.505126953125,0.1318359375,-0.296142578125
8.177,310,1101,934,311,-10.0,40.0,45.0,-7.995604991912842,-45.898433685302734,27.587888717651367,-0.6488037109375,0.225830078125,-0.4649658203125
8.191,310,1251,1192,311,-11.0,38.0,46.0,-15.991209983825684,-57.006832122802734,30.212400436401367,-0.466064453125,0.3590087890625,-0.4608154296875
8.199,310,1344,1390,310,-11.0,38.0,46.0,-33.935546875,-70.556640625,29.968259811401367,-0.466064453125,0.3590087890625,-0.4608154296875
8.211,310,1434,1527,311,-11.0,38.0,46.0,-65.36865234375,-80.078125,23.986814498901367,-0.224609375,0.2969970703125,-0.200927734375
8.221,310,1569,1745,311,-11.0,38.0,46.0,-91.49169158935547,-75.25634765625,10.925292015075684,-0.7147216796875,0.177001953125,0.0958251953125
8.229,310,1621,1847,312,-11.0,38.0,46.0,-90.57616424560547,-57.983394622802734,-3.173827886581421,-0.7147216796875,0.177001953125,0.0958251953125
8.239,310,1669,1948,310,-11.0,38.0,46.0,-74.89013671875,-42.297359466552734,-7.385253429412842,-1.2213134765625,0.3953857421875,0.130126953125
8.251,310,1718,2055,312,-11.0,38.0,46.0,-72.265625,-40.161128997802734,-2.197265625,-1.716796875,0.549072265625,0.5986328125
8.272,311,1734,2089,312,-11.0,38.0,46.0,-78.2470703125,-46.142574310302734,0.1220703050494194,-1.716796875,0.549072265625,0.5986328125
8.273,298,1762,2116,311,-11.0,38.0,46.0,-65.5517578125,-43.945308685302734,-4.45556640625,-1.8621826171875,0.3037109375,0.6158447265625
8.281,310,1775,2057,312,-11.0,38.0,46.0,-30.456541061401367,-31.188962936401367,-9.8876953125,-2.2249755859375,-0.128662109375,0.1304931640625
8.289,310,1785,2026,311,-8.0,36.0,48.0,5.798339366912842,-16.7236328125,-15.075682640075684,-2.040771484375,-0.0726318359375,-0.3072509765625
8.297,310,1785,2016,312,-8.0,36.0,48.0,31.982419967651367,-0.6713866591453552,-15.991209983825684,-2.040771484375,-0.0726318359375,-0.3072509765625
8.315,312,1787,1999,312,-8.0,36.0,48.0,48.095699310302734,30.517576217651367,-0.0610351525247097,-1.1715087890625,0.29833984375,-0.471435546875
8.320,309,1782,1991,311,-8.0,36.0,48.0,48.095699310302734,30.517576217651367,-0.0610351525247097,-1.43798828125,0.290283203125,-0.1485595703125
8.328,310,1761,1965,310,-8.0,36.0,48.0,22.583005905151367,30.639646530151367,-1.15966796875,-1.43798828125,0.290283203125,-0.1485595703125
8.341,310,1723,1886,311,-8.0,36.0,48.0,-8.72802734375,36.07177734375,-3.662109136581421,-1.7899169921875,0.2611083984375,-0.0440673828125
8.375,310,1677,1801,312,-8.0,36.0,48.0,-8.72802734375,36.07177734375,-3.662109136581421,-1.6790771484375,0.2939453125,-0.15185546875
8.375,310,1627,1709,312,-8.0,36.0,48.0,-2.01416015625,44.067378997802734,-1.7089842557907104,-1.6790771484375,0.2939453125,-0.15185546875
8.375,310,1450,1469,314,-8.0,36.0,48.0,18.85986328125,56.884761810302734,-7.690429210662842,-1.3499755859375,0.275146484375,-0.1806640625
8.382,309,1355,1353,312,-8.0,36.0,48.0,18.85986328125,56.884761810302734,-7.690429210662842,-1.1846923828125,0.2122802734375,-0.1275634765625
8.388,310,1204,1206,310,-8.0,39.0,40.0,22.521970748901367,58.288570404052734,-11.352538108825684,-1.1846923828125,0.2122802734375,-0.1275634765625
8.401,310,955,973,310,-8.0,39.0,40.0,27.526853561401367,59.936519622802734,-21.301267623901367,-0.7550048828125,-0.067138671875,-0.0714111328125
8.409,310,778,840,310,-8.0,39.0,40.0,27.526853561401367,59.936519622802734,-21.301267623901367,-0.5113525390625,-0.1595458984375,0.0155029296875
8.424,309,653,749,310,-8.0,39.0,40.0,29.541013717651367,61.096187591552734,-23.559568405151367,-0.5113525390625,-0.1595458984375,0.0155029296875
8.431,310,476,593,308,-8.0,39.0,40.0,25.268552780151367,57.312007904052734,-14.465331077575684,-0.287109375,-0.1910400390625,0.118408203125
8.439,309,420,545,308,-8.0,39.0,40.0,32.89794921875,55.908199310302734,-10.070799827575684,-0.369140625,-0.1536865234375,0.021240234375
8.454,308,396,508,308,-8.0,39.0,40.0,32.89794921875,55.908199310302734,-10.070799827575684,-0.5089111328125,0.03466796875,-0.135986328125
8.478,308,387,454,308,-8.0,39.0,40.0,42.907711029052734,49.621578216552734,8.11767578125,-0.6336669921875,0.3349609375,-0.2923583984375
8.478,295,386,454,309,-8.0,39.0,40.0,29.541013717651367,42.175289154052734,24.902341842651367,-0.6986083984375,0.552978515625,-0.363525390625
8.479,310,383,454,310,-8.0,39.0,40.0,29.541013717651367,42.175289154052734,24.902341842651367,-0.6904296875,0.5462646484375,-0.3262939453125
8.491,310,386,455,309,-9.0,40.0,40.0,9.6435546875,15.991209983825684,24.719236373901367,-0.6707763671875,0.3916015625,-0.2491455078125
8.499,307,393,457,310,-9.0,40.0,40.0,11.169432640075684,5.554198741912842,7.324218273162842,-0.700927734375,0.2578125,-0.21337890625
8.507,308,394,467,308,-9.0,40.0,40.0,11.169432640075684,5.554198741912842,7.324218273162842,-0.7618408203125,0.197509765625,-0.2432861328125
8.522,310,393,479,308,-9.0,40.0,40.0,23.864744186401367,2.3193359375,-11.047362327575684,-0.804931640625,0.1708984375,-0.2777099609375
8.529,309,395,481,310,-9.0,40.0,40.0,26.062009811401367,0.4882812201976776,-11.535643577575684,-0.8153076171875,0.150146484375,-0.2733154296875
8.538,310,398,481,310,-9.0,40.0,40.0,26.062009811401367,0.4882812201976776,-11.535643577575684,-0.823486328125,0.1270751953125,-0.2637939453125
8.558,308,407,495,308,-9.0,40.0,40.0,12.939452171325684,-6.286620616912842,-6.713866710662842,-0.8419189453125,0.07470703125,-0.25439453125
8.559,297,407,496,309,-9.0,40.0,40.0,7.019042491912842,-8.60595703125,-4.21142578125,-0.8477783203125,-0.008056640625,-0.2193603515625
8.588,308,408,519,310,-9.0,40.0,40.0,7.019042491912842,-8.60595703125,-4.21142578125,-0.829345703125,-0.0643310546875,-0.174072265625
8.589,308,430,548,295,-9.0,40.0,40.0,6.713866710662842,-14.709471702575684,1.9531248807907104,-0.796875,-0.0491943359375,-0.15283203125
8.589,312,456,601,298,-15.0,39.0,45.0,5.432128429412842,-18.06640625,7.995604991912842,-0.771240234375,0.0191650390625,-0.1661376953125
8.597,310,519,622,310,-15.0,39.0,45.0,1.220703125,-21.545408248901367,14.526366233825684,-0.7593994140625,0.0938720703125,-0.203369140625
8.611,309,631,648,310,-15.0,39.0,45.0,-3.234863042831421,-25.268552780151367,18.85986328125,-0.768798828125,0.1417236328125,-0.25048828125
8.619,310,717,685,309,-15.0,39.0,45.0,-6.042479991912842,-30.151365280151367,20.202634811401367,-0.80224609375,0.1551513671875,-0.303466796875
