time,compression0,compression1,compression2,compression3,magn_x,magn_y,magn_z,gyro_x,gyro_y,gyro_z,accel_x,accel_y,accel_z
0.017,310,496,517,310,-3.0,42.0,37.0,1.2817381620407104,-0.2441406100988388,0.6103515625,-0.95068359375,0.2357177734375,-0.1754150390625
0.026,308,493,516,310,-3.0,42.0,37.0,1.0986328125,-0.30517578125,0.8544921278953552,-0.95068359375,0.2357177734375,-0.1754150390625
0.026,310,490,516,310,-3.0,42.0,37.0,0.7934569716453552,-0.30517578125,1.03759765625,-0.954345703125,0.2386474609375,-0.1788330078125
0.034,309,485,513,309,-3.0,42.0,37.0,0.30517578125,-0.3662109076976776,1.0986328125,-0.9573974609375,0.2371826171875,-0.17919921875
0.042,310,481,513,311,-3.0,42.0,37.0,0.30517578125,-0.3662109076976776,1.0986328125,-0.9566650390625,0.2354736328125,-0.1756591796875
0.051,309,478,510,311,-3.0,42.0,37.0,0.30517578125,-0.4272460639476776,1.2817381620407104,-0.9566650390625,0.2354736328125,-0.1756591796875
0.068,309,475,504,311,-3.0,42.0,37.0,0.6103515625,-0.4272460639476776,1.7089842557907104,-0.9517822265625,0.2373046875,-0.1689453125
0.073,310,473,503,310,-3.0,42.0,37.0,0.6103515625,-0.4272460639476776,1.7089842557907104,-0.950439453125,0.2381591796875,-0.169677734375
0.080,310,465,503,310,-3.0,42.0,37.0,1.03759765625,-0.3662109076976776,1.8920897245407104,-0.950439453125,0.2381591796875,-0.169677734375
0.094,308,467,497,310,-2.0,40.0,41.0,1.7700194120407104,0.0610351525247097,2.25830078125,-0.947509765625,0.24169921875,-0.169677734375
0.106,310,467,499,310,-2.0,40.0,41.0,1.7700194120407104,0.0610351525247097,2.25830078125,-0.94580078125,0.2427978515625,-0.168212890625
0.124,311,464,496,308,-2.0,40.0,41.0,2.01416015625,0.3662109076976776,2.197265625,-0.94580078125,0.2427978515625,-0.168212890625
0.124,296,463,481,310,-2.0,40.0,41.0,2.38037109375,0.6713866591453552,1.6479490995407104,-0.9434814453125,0.24072265625,-0.1661376953125
0.137,309,456,495,310,-2.0,40.0,41.0,2.38037109375,0.6713866591453552,1.6479490995407104,-0.943359375,0.2401123046875,-0.1666259765625
0.140,310,456,495,310,-2.0,40.0,41.0,2.50244140625,0.7934569716453552,1.4038084745407104,-0.943359375,0.2401123046875,-0.1666259765625
0.154,309,456,490,308,-2.0,40.0,41.0,2.563476324081421,1.15966796875,1.220703125,-0.9449462890625,0.240966796875,-0.1680908203125
0.162,309,456,488,309,-2.0,40.0,41.0,2.563476324081421,1.15966796875,1.220703125,-0.9464111328125,0.2406005859375,-0.1695556640625
0.178,310,454,490,310,-2.0,40.0,41.0,2.807616949081421,1.5258787870407104,1.15966796875,-0.9464111328125,0.2406005859375,-0.1695556640625
0.184,310,451,480,310,-2.0,40.0,41.0,3.173827886581421,2.44140625,1.2817381620407104,-0.9482421875,0.24365234375,-0.173583984375
0.192,309,451,478,308,-3.0,44.0,41.0,3.295898199081421,2.685546636581421,1.2817381620407104,-0.94873046875,0.241943359375,-0.17578125
0.200,310,451,477,310,-3.0,44.0,41.0,3.295898199081421,2.685546636581421,1.2817381620407104,-0.949951171875,0.2413330078125,-0.177001953125
0.229,312,447,475,310,-3.0,44.0,41.0,3.723144292831421,2.685546636581421,1.3427733182907104,-0.9515380859375,0.2430419921875,-0.1776123046875
0.230,310,444,467,310,-3.0,44.0,41.0,4.08935546875,2.624511480331421,1.3427733182907104,-0.95263671875,0.2467041015625,-0.17822265625
0.231,309,447,467,310,-3.0,44.0,41.0,4.08935546875,2.624511480331421,1.3427733182907104,-0.9520263671875,0.2496337890625,-0.178466796875
0.245,308,444,465,310,-3.0,44.0,41.0,4.7607421875,2.685546636581421,0.9765624403953552,-0.9500732421875,0.24853515625,-0.17822265625
0.252,308,439,465,310,-3.0,44.0,41.0,4.94384765625,2.807616949081421,0.6713866591453552,-0.9486083984375,0.2442626953125,-0.178466796875
0.260,310,437,457,310,-3.0,44.0,41.0,4.94384765625,2.807616949081421,0.6713866591453552,-0.9483642578125,0.2403564453125,-0.1793212890625
0.275,310,434,452,308,-3.0,44.0,41.0,5.310058116912842,3.173827886581421,0.4882812201976776,-0.948486328125,0.23876953125,-0.1807861328125
0.284,310,433,451,310,-3.0,44.0,41.0,5.737304210662842,3.295898199081421,0.7324218153953552,-0.947998046875,0.2386474609375,-0.18212890625
0.348,309,430,447,310,-5.0,43.0,40.0,5.737304210662842,3.295898199081421,0.7324218153953552,-0.9476318359375,0.23828125,-0.18408203125
0.349,308,428,446,311,-5.0,43.0,40.0,6.530761241912842,3.356933355331421,1.3427733182907104,-0.9476318359375,0.2388916015625,-0.1865234375
0.349,310,426,445,310,-5.0,43.0,40.0,6.530761241912842,3.356933355331421,1.6479490995407104,-0.947265625,0.2413330078125,-0.1888427734375
0.349,310,424,441,310,-5.0,43.0,40.0,6.530761241912842,3.356933355331421,1.6479490995407104,-0.947021484375,0.242919921875,-0.1900634765625
0.349,308,420,439,309,-5.0,43.0,40.0,5.920409679412842,2.990722417831421,2.01416015625,-0.9459228515625,0.2425537109375,-0.1900634765625
0.349,308,415,438,310,-5.0,43.0,40.0,5.554198741912842,2.685546636581421,1.9531248807907104,-0.9427490234375,0.2418212890625,-0.189208984375
0.352,310,415,438,308,-5.0,43.0,40.0,5.432128429412842,2.25830078125,1.8920897245407104,-0.9398193359375,0.24072265625,-0.1868896484375
0.364,310,413,439,309,-5.0,43.0,40.0,5.310058116912842,1.7089842557907104,1.8310545682907104,-0.9403076171875,0.240234375,-0.1856689453125
0.375,310,411,435,310,-5.0,43.0,40.0,5.310058116912842,1.3427733182907104,1.8310545682907104,-0.94384765625,0.242431640625,-0.1878662109375
0.381,310,408,435,310,-5.0,43.0,40.0,5.310058116912842,1.0986328125,1.8920897245407104,-0.9483642578125,0.24560546875,-0.1927490234375
0.394,309,407,433,310,-4.0,43.0,41.0,5.126952648162842,1.0986328125,1.8310545682907104,-0.9527587890625,0.24560546875,-0.197998046875
0.403,310,400,433,310,-4.0,43.0,41.0,4.69970703125,1.03759765625,1.7089842557907104,-0.9598388671875,0.242431640625,-0.2015380859375
0.413,310,396,432,310,-4.0,43.0,41.0,4.2724609375,0.9765624403953552,1.7089842557907104,-0.9688720703125,0.239501953125,-0.2022705078125
0.438,308,399,424,310,-4.0,43.0,41.0,4.0283203125,0.7934569716453552,1.8920897245407104,-0.97265625,0.2386474609375,-0.199951171875
0.439,309,396,420,309,-4.0,43.0,41.0,3.845214605331421,0.6713866591453552,2.3193359375,-0.9674072265625,0.2393798828125,-0.1944580078125
0.442,310,394,419,310,-4.0,43.0,41.0,3.845214605331421,0.7934569716453552,2.868652105331421,-0.9561767578125,0.2396240234375,-0.184814453125
0.455,314,394,411,310,-4.0,43.0,41.0,3.906249761581421,1.4038084745407104,3.295898199081421,-0.9456787109375,0.2393798828125,-0.174560546875
0.463,310,393,411,310,-4.0,43.0,41.0,4.2724609375,2.3193359375,3.479003667831421,-0.9410400390625,0.240478515625,-0.1690673828125
0.470,310,391,411,310,-4.0,43.0,41.0,4.7607421875,3.479003667831421,3.601073980331421,-0.958984375,0.232421875,-0.1649169921875
0.484,310,385,410,310,-4.0,43.0,41.0,6.225585460662842,5.126952648162842,4.45556640625,-0.9720458984375,0.2154541015625,-0.1617431640625
0.492,309,382,408,310,-6.0,42.0,42.0,10.864256858825684,7.568358898162842,6.591796398162842,-0.939208984375,0.2403564453125,-0.175537109375
0.502,309,379,402,310,-6.0,42.0,42.0,15.380858421325684,9.27734375,7.629394054412842,-0.90576171875,0.29736328125,-0.2017822265625
0.536,310,373,396,310,-6.0,42.0,42.0,13.488768577575684,8.7890625,5.371093273162842,-0.91259765625,0.304931640625,-0.213623046875
0.537,310,373,394,308,-6.0,42.0,42.0,7.873534679412842,7.446288585662842,2.01416015625,-0.93212890625,0.274169921875,-0.2156982421875
0.546,308,372,393,310,-6.0,42.0,42.0,4.82177734375,6.896972179412842,0.0,-0.93896484375,0.2572021484375,-0.220458984375
0.546,309,372,387,310,-6.0,42.0,42.0,4.33349609375,6.652831554412842,-0.6713866591453552,-0.93994140625,0.2509765625,-0.2230224609375
0.553,310,372,387,308,-6.0,42.0,42.0,4.39453125,5.981444835662842,-0.9765624403953552,-0.9427490234375,0.244140625,-0.2205810546875
0.561,310,371,390,309,-6.0,42.0,42.0,4.82177734375,5.065917491912842,-1.03759765625,-0.9454345703125,0.242919921875,-0.2177734375
0.575,310,369,386,309,-6.0,42.0,42.0,5.615233898162842,4.150390625,-0.9765624403953552,-0.945556640625,0.2486572265625,-0.2169189453125
0.586,310,367,387,308,-6.0,42.0,42.0,6.164550304412842,3.295898199081421,-0.9765624403953552,-0.945068359375,0.2503662109375,-0.2152099609375
0.590,309,363,387,309,-6.0,41.0,43.0,6.408690929412842,2.563476324081421,-0.9765624403953552,-0.943359375,0.2486572265625,-0.2154541015625
0.604,309,356,386,310,-6.0,41.0,43.0,6.286620616912842,2.01416015625,-0.9155272841453552,-0.94140625,0.24609375,-0.2181396484375
0.618,311,346,387,310,-6.0,41.0,43.0,5.737304210662842,1.7089842557907104,-0.7324218153953552,-0.9407958984375,0.238525390625,-0.2176513671875
0.620,310,352,393,310,-6.0,41.0,43.0,5.065917491912842,1.8920897245407104,-0.3662109076976776,-0.9354248046875,0.2335205078125,-0.214599609375
0.637,308,353,393,310,-6.0,41.0,43.0,4.45556640625,2.13623046875,0.3662109076976776,-0.9259033203125,0.23486328125,-0.211669921875
0.642,310,353,390,310,-6.0,41.0,43.0,3.540038824081421,2.0751953125,1.0986328125,-0.920654296875,0.23388671875,-0.2076416015625
0.651,308,354,391,310,-6.0,41.0,43.0,2.25830078125,1.8920897245407104,1.6479490995407104,-0.9202880859375,0.226806640625,-0.2022705078125
0.666,310,354,393,310,-6.0,41.0,43.0,1.3427733182907104,1.8920897245407104,2.197265625,-0.9185791015625,0.2230224609375,-0.1875
0.676,310,356,390,310,-6.0,41.0,43.0,1.3427733182907104,1.9531248807907104,2.929687261581421,-0.9185791015625,0.2230224609375,-0.1875
0.684,310,356,391,310,-6.0,41.0,43.0,1.8310545682907104,1.8310545682907104,3.662109136581421,-0.9195556640625,0.2296142578125,-0.1824951171875
0.695,310,360,391,310,-7.0,42.0,44.0,2.50244140625,1.6479490995407104,4.150390625,-0.9271240234375,0.2449951171875,-0.192626953125
0.702,310,357,393,310,-7.0,42.0,44.0,3.356933355331421,1.5869139432907104,4.39453125,-0.9271240234375,0.2449951171875,-0.192626953125
0.711,310,359,391,310,-7.0,42.0,44.0,4.0283203125,1.7700194120407104,4.39453125,-0.93212890625,0.252197265625,-0.202880859375
0.724,310,361,393,309,-7.0,42.0,44.0,4.150390625,2.13623046875,4.150390625,-0.93603515625,0.2559814453125,-0.2169189453125
0.742,311,363,391,308,-7.0,42.0,44.0,3.906249761581421,2.50244140625,3.784179449081421,-0.93603515625,0.2559814453125,-0.2169189453125
0.743,310,363,391,310,-7.0,42.0,44.0,3.540038824081421,2.746581792831421,3.234863042831421,-0.9344482421875,0.254150390625,-0.2186279296875
0.758,310,364,391,310,-7.0,42.0,44.0,3.356933355331421,2.746581792831421,2.746581792831421,-0.9322509765625,0.2496337890625,-0.214599609375
0.763,309,364,391,310,-7.0,42.0,44.0,3.540038824081421,2.50244140625,2.44140625,-0.9322509765625,0.2496337890625,-0.214599609375
0.770,310,364,391,310,-7.0,42.0,44.0,4.2724609375,2.0751953125,2.38037109375,-0.9302978515625,0.2470703125,-0.2125244140625
0.787,309,364,391,310,-7.0,42.0,44.0,5.0048828125,1.8310545682907104,2.38037109375,-0.9263916015625,0.253662109375,-0.2154541015625
0.793,310,363,391,310,-6.0,43.0,42.0,4.94384765625,1.7089842557907104,2.25830078125,-0.927490234375,0.2562255859375,-0.2161865234375
0.800,310,364,391,310,-6.0,43.0,42.0,4.45556640625,1.6479490995407104,2.01416015625,-0.927490234375,0.2562255859375,-0.2161865234375
0.814,310,367,391,310,-6.0,43.0,42.0,3.845214605331421,1.5869139432907104,1.5869139432907104,-0.9376220703125,0.2596435546875,-0.22998046875
0.823,310,367,393,310,-6.0,43.0,42.0,3.845214605331421,1.5869139432907104,1.5869139432907104,-0.9381103515625,0.261474609375,-0.2347412109375
0.845,309,369,393,310,-6.0,43.0,42.0,2.929687261581421,1.7089842557907104,1.2817381620407104,-0.9381103515625,0.261474609375,-0.2347412109375
0.846,310,371,391,309,-6.0,43.0,42.0,0.4882812201976776,1.8310545682907104,0.9765624403953552,-0.9364013671875,0.25146484375,-0.22314453125
0.853,310,369,391,309,-6.0,43.0,42.0,0.4882812201976776,1.8310545682907104,0.9765624403953552,-0.9395751953125,0.25048828125,-0.220947265625
0.865,310,369,394,310,-6.0,43.0,42.0,0.6713866591453552,1.5869139432907104,0.9765624403953552,-0.9395751953125,0.25048828125,-0.220947265625
0.875,310,372,394,308,-6.0,43.0,42.0,1.220703125,0.3662109076976776,0.9765624403953552,-0.937744140625,0.2542724609375,-0.2176513671875
0.887,310,370,394,309,-6.0,43.0,42.0,1.220703125,0.3662109076976776,0.9765624403953552,-0.9351806640625,0.251953125,-0.213623046875
0.891,308,371,394,310,-5.0,43.0,40.0,1.0986328125,-0.0610351525247097,0.9155272841453552,-0.9351806640625,0.251953125,-0.213623046875
0.904,310,371,394,310,-5.0,43.0,40.0,1.5258787870407104,0.4882812201976776,0.9155272841453552,-0.935546875,0.2515869140625,-0.2149658203125
0.912,310,372,394,309,-5.0,43.0,40.0,1.5258787870407104,0.4882812201976776,0.9155272841453552,-0.9354248046875,0.2532958984375,-0.2158203125
0.925,308,372,394,310,-5.0,43.0,40.0,1.5258787870407104,1.03759765625,0.9765624403953552,-0.9354248046875,0.2532958984375,-0.2158203125
0.947,310,372,394,309,-5.0,43.0,40.0,1.220703125,2.01416015625,1.03759765625,-0.9349365234375,0.2574462890625,-0.2176513671875
0.948,310,371,395,308,-5.0,43.0,40.0,1.15966796875,2.3193359375,0.9155272841453552,-0.9364013671875,0.2593994140625,-0.221435546875
0.950,308,372,395,310,-5.0,43.0,40.0,1.15966796875,2.3193359375,0.9155272841453552,-0.938720703125,0.2607421875,-0.225341796875
0.974,308,373,396,309,-5.0,43.0,40.0,1.03759765625,2.25830078125,0.4272460639476776,-0.9404296875,0.2593994140625,-0.2271728515625
0.975,310,372,396,309,-5.0,43.0,40.0,1.220703125,1.8310545682907104,0.1220703050494194,-0.9423828125,0.2586669921875,-0.2286376953125
0.980,309,371,396,310,-5.0,43.0,40.0,1.220703125,1.8310545682907104,0.1220703050494194,-0.944580078125,0.26171875,-0.229736328125
0.994,310,372,394,309,-7.0,40.0,38.0,2.13623046875,0.8544921278953552,-0.3662109076976776,-0.945068359375,0.26416015625,-0.2301025390625
1.002,308,371,391,310,-7.0,40.0,38.0,2.50244140625,0.54931640625,-0.7324218153953552,-0.94384765625,0.26318359375,-0.2310791015625
1.010,310,371,394,309,-7.0,40.0,38.0,2.50244140625,0.54931640625,-0.7324218153953552,-0.9404296875,0.2587890625,-0.2314453125
1.028,309,371,393,309,-7.0,40.0,38.0,2.746581792831421,0.4272460639476776,-1.3427733182907104,-0.9356689453125,0.253173828125,-0.2294921875
1.051,312,369,394,310,-7.0,40.0,38.0,2.868652105331421,0.30517578125,-1.4038084745407104,-0.9307861328125,0.2489013671875,-0.2265625
1.051,310,371,394,310,-7.0,40.0,38.0,2.868652105331421,0.30517578125,-1.4038084745407104,-0.92626953125,0.2484130859375,-0.2257080078125
1.057,310,372,394,310,-7.0,40.0,38.0,3.417968511581421,-0.7324218153953552,-1.4038084745407104,-0.9244384765625,0.2503662109375,-0.226806640625
1.062,310,371,394,310,-7.0,40.0,38.0,3.723144292831421,-1.5258787870407104,-1.4648436307907104,-0.92529296875,0.2518310546875,-0.228759765625
1.085,308,371,394,310,-7.0,40.0,38.0,3.723144292831421,-1.5258787870407104,-1.4648436307907104,-0.928466796875,0.2525634765625,-0.2310791015625
1.085,310,372,395,309,-8.0,40.0,42.0,3.845214605331421,-3.295898199081421,-1.7089842557907104,-0.9329833984375,0.251953125,-0.2318115234375
1.094,309,372,395,310,-8.0,40.0,42.0,3.540038824081421,-4.0283203125,-1.7700194120407104,-0.9376220703125,0.2506103515625,-0.22998046875
1.100,309,372,395,309,-8.0,40.0,42.0,2.990722417831421,-4.45556640625,-1.7700194120407104,-0.940185546875,0.247802734375,-0.2269287109375
1.114,310,372,395,310,-8.0,40.0,42.0,2.44140625,-4.638671875,-1.6479490995407104,-0.9412841796875,0.24365234375,-0.223388671875
1.122,310,371,394,309,-8.0,40.0,42.0,2.0751953125,-4.638671875,-1.2817381620407104,-0.94140625,0.24169921875,-0.2205810546875
1.130,310,371,394,310,-8.0,40.0,42.0,1.8310545682907104,-4.57763671875,-0.9765624403953552,-0.939453125,0.241943359375,-0.220458984375
1.160,310,372,396,310,-8.0,40.0,42.0,1.9531248807907104,-4.638671875,-0.8544921278953552,-0.9361572265625,0.242919921875,-0.221923828125
1.161,310,372,396,310,-8.0,40.0,42.0,2.44140625,-5.065917491912842,-0.8544921278953552,-0.93359375,0.24560546875,-0.2232666015625
1.161,310,373,395,308,-8.0,40.0,42.0,3.479003667831421,-6.042479991912842,-0.9155272841453552,-0.9329833984375,0.2496337890625,-0.2227783203125
1.174,308,379,396,310,-8.0,40.0,42.0,4.94384765625,-7.324218273162842,-0.9765624403953552,-0.933837890625,0.252685546875,-0.2191162109375
1.184,310,374,394,310,-7.0,43.0,38.0,6.408690929412842,-8.85009765625,-1.15966796875,-0.9349365234375,0.2548828125,-0.216796875
1.192,309,377,396,309,-7.0,43.0,38.0,7.202147960662842,-10.192870140075684,-1.4648436307907104,-0.93408203125,0.2557373046875,-0.219482421875
1.204,310,380,394,308,-7.0,43.0,38.0,7.202147960662842,-11.169432640075684,-1.9531248807907104,-0.9326171875,0.2530517578125,-0.2261962890625
1.212,310,379,395,309,-7.0,43.0,38.0,6.347655773162842,-11.840819358825684,-2.563476324081421,-0.93310546875,0.248291015625,-0.2322998046875
1.220,309,378,394,309,-7.0,43.0,38.0,5.126952648162842,-12.329100608825684,-3.112792730331421,-0.93310546875,0.2462158203125,-0.232666015625
1.234,310,380,395,310,-7.0,43.0,38.0,3.967284917831421,-12.878417015075684,-3.479003667831421,-0.9290771484375,0.2459716796875,-0.2276611328125
1.255,308,379,396,310,-7.0,43.0,38.0,3.295898199081421,-13.793944358825684,-3.845214605331421,-0.9222412109375,0.2421875,-0.218994140625
1.256,310,383,394,310,-7.0,43.0,38.0,3.356933355331421,-15.197752952575684,-4.0283203125,-0.913818359375,0.232666015625,-0.20556640625
1.264,309,383,398,308,-7.0,43.0,38.0,3.967284917831421,-16.90673828125,-3.967284917831421,-0.9034423828125,0.22021484375,-0.18701171875
1.272,310,387,399,310,-7.0,43.0,38.0,5.249022960662842,-18.9208984375,-3.540038824081421,-0.8922119140625,0.2095947265625,-0.1712646484375
1.280,308,391,402,310,-7.0,43.0,38.0,6.713866710662842,-20.996091842651367,-2.868652105331421,-0.8804931640625,0.2073974609375,-0.16552734375
1.305,309,394,405,310,-8.0,41.0,37.0,6.530761241912842,-22.949216842651367,-2.01416015625,-0.8704833984375,0.216552734375,-0.1712646484375
1.305,310,400,410,309,-8.0,41.0,37.0,3.845214605331421,-24.475095748901367,-1.2817381620407104,-0.873046875,0.230712890625,-0.185791015625
1.311,308,414,410,310,-8.0,41.0,37.0,0.1220703050494194,-25.451658248901367,-0.9155272841453552,-0.8929443359375,0.2435302734375,-0.19873046875
1.324,310,427,415,308,-8.0,41.0,37.0,-2.929687261581421,-25.817869186401367,-0.7934569716453552,-0.9178466796875,0.2530517578125,-0.2064208984375
1.335,310,435,420,310,-8.0,41.0,37.0,-4.82177734375,-25.451658248901367,-0.7324218153953552,-0.9268798828125,0.2559814453125,-0.2071533203125
1.358,310,447,430,310,-8.0,41.0,37.0,-6.042479991912842,-25.085447311401367,-1.15966796875,-0.9093017578125,0.2481689453125,-0.1968994140625
1.358,310,478,447,309,-8.0,41.0,37.0,-7.507323741912842,-25.573728561401367,-2.3193359375,-0.8712158203125,0.234130859375,-0.1787109375
1.365,310,493,467,310,-8.0,41.0,37.0,-10.375975608825684,-27.526853561401367,-3.479003667831421,-0.8248291015625,0.2225341796875,-0.160888671875
1.371,310,513,481,310,-8.0,41.0,37.0,-14.648436546325684,-30.883787155151367,-3.479003667831421,-0.7940673828125,0.224365234375,-0.146728515625
1.385,310,554,519,308,-5.0,37.0,38.0,-18.73779296875,-34.72900390625,-2.44140625,-0.7913818359375,0.2498779296875,-0.1304931640625
1.398,310,574,551,310,-5.0,37.0,38.0,-22.155759811401367,-38.0859375,-1.8920897245407104,-0.8028564453125,0.2764892578125,-0.10888671875
1.402,310,600,616,311,-5.0,37.0,38.0,-25.146482467651367,-39.97802734375,-3.662109136581421,-0.82568359375,0.275634765625,-0.088623046875
1.416,309,666,711,310,-5.0,37.0,38.0,-25.634763717651367,-39.9169921875,-8.72802734375,-0.8603515625,0.2847900390625,-0.10400390625
1.422,310,716,756,311,-5.0,37.0,38.0,-23.010251998901367,-38.4521484375,-16.4794921875,-0.8603515625,0.2847900390625,-0.10400390625
1.438,309,757,808,309,-5.0,37.0,38.0,-21.667478561401367,-37.78076171875,-24.414060592651367,-0.791015625,0.2926025390625,-0.1324462890625
1.454,309,858,913,310,-5.0,37.0,38.0,-24.414060592651367,-39.9169921875,-29.785154342651367,-0.51611328125,0.142333984375,-0.04638671875
1.457,310,918,971,297,-5.0,37.0,38.0,-27.648923873901367,-43.457027435302734,-29.602048873901367,-0.51611328125,0.142333984375,-0.04638671875
1.461,310,984,1017,306,-5.0,37.0,38.0,-29.724119186401367,-46.142574310302734,-21.972654342651367,-0.4178466796875,0.096923828125,0.0159912109375
1.475,311,1105,1137,309,-5.0,37.0,38.0,-33.87451171875,-47.790523529052734,-8.544921875,-0.4820556640625,0.153076171875,-0.056884765625
1.483,311,1175,1209,310,-4.0,38.0,44.0,-39.55078125,-48.156734466552734,5.371093273162842,-0.4820556640625,0.153076171875,-0.056884765625
1.491,309,1243,1268,311,-4.0,38.0,44.0,-46.142574310302734,-46.691890716552734,14.343260765075684,-0.7073974609375,0.3656005859375,-0.1689453125
1.507,309,1338,1381,310,-4.0,38.0,44.0,-58.288570404052734,-45.043941497802734,15.258788108825684,-1.2315673828125,0.71240234375,-0.2366943359375
1.512,310,1369,1470,310,-4.0,38.0,44.0,-79.04052734375,-42.907711029052734,6.103515148162842,-1.2315673828125,0.71240234375,-0.2366943359375
1.522,310,1391,1555,311,-4.0,38.0,44.0,-98.75487518310547,-38.87939453125,-11.291502952575684,-1.5235595703125,0.3697509765625,-0.1497802734375
1.539,310,1434,1642,306,-4.0,38.0,44.0,-101.56249237060547,-35.21728515625,-28.869626998901367,-1.7689208984375,-0.3990478515625,0.155029296875
1.542,311,1457,1669,311,-4.0,38.0,44.0,-78.06396484375,-31.982419967651367,-32.5927734375,-1.7689208984375,-0.3990478515625,0.155029296875
1.562,310,1473,1689,311,-4.0,38.0,44.0,-38.87939453125,-29.785154342651367,-15.624999046325684,-1.645263671875,-0.1617431640625,0.28271484375
1.564,310,1492,1691,310,-4.0,38.0,44.0,3.051757574081421,-13.183592796325684,22.338865280151367,-1.4056396484375,0.491455078125,0.223876953125
1.573,310,1500,1683,312,-4.0,38.0,44.0,3.051757574081421,-13.183592796325684,22.338865280151367,-1.1968994140625,0.4371337890625,0.0997314453125
1.581,310,1500,1681,311,-2.0,36.0,45.0,-5.310058116912842,5.676269054412842,17.15087890625,-1.1968994140625,0.4371337890625,0.0997314453125
1.594,310,1484,1664,311,-2.0,36.0,45.0,2.624511480331421,22.277830123901367,-16.4794921875,-0.9681396484375,0.4119873046875,-0.1451416015625
1.614,310,1458,1650,311,-2.0,36.0,45.0,2.624511480331421,22.277830123901367,-16.4794921875,-0.9805908203125,0.487060546875,-0.15185546875
1.614,310,1430,1634,312,-2.0,36.0,45.0,10.742186546325684,18.61572265625,-31.677244186401367,-0.9805908203125,0.487060546875,-0.15185546875
1.627,310,1379,1598,310,-2.0,36.0,45.0,-3.417968511581421,21.118162155151367,-59.753414154052734,-0.97412109375,0.2838134765625,0.0704345703125
1.632,310,1365,1610,311,-2.0,36.0,45.0,-3.417968511581421,21.118162155151367,-59.753414154052734,-1.0201416015625,0.16650390625,0.135498046875
1.654,311,1351,1613,311,-2.0,36.0,45.0,-8.544921875,27.282712936401367,-65.97900390625,-1.0201416015625,0.16650390625,0.135498046875
1.663,310,1325,1588,311,-2.0,36.0,45.0,-19.34814453125,35.33935546875,-56.518550872802734,-1.4774169921875,0.2215576171875,0.0279541015625
1.664,312,1316,1553,311,-2.0,36.0,45.0,-19.34814453125,35.33935546875,-56.518550872802734,-1.56005859375,0.105712890625,-0.0216064453125
1.671,308,1284,1508,310,-2.0,36.0,45.0,-34.72900390625,34.1796875,-45.227046966552734,-1.56005859375,0.105712890625,-0.0216064453125
1.685,310,1232,1404,312,0.0,40.0,44.0,-33.87451171875,28.503416061401367,-18.73779296875,-1.3546142578125,-0.0145263671875,-0.0877685546875
1.692,310,1196,1336,312,0.0,40.0,44.0,-33.87451171875,28.503416061401367,-18.73779296875,-1.2733154296875,0.0904541015625,-0.1229248046875
1.701,310,1140,1258,311,0.0,40.0,44.0,-19.6533203125,25.329587936401367,-5.493163585662842,-1.240234375,0.2392578125,-0.1751708984375
1.716,310,1035,1151,311,0.0,40.0,44.0,-6.286620616912842,22.766111373901367,6.591796398162842,-1.2352294921875,0.3641357421875,-0.2147216796875
1.723,310,932,1067,311,0.0,40.0,44.0,-8.7890625,23.681638717651367,4.08935546875,-1.2286376953125,0.397216796875,-0.2181396484375
1.730,310,826,984,311,0.0,40.0,44.0,-8.7890625,23.681638717651367,4.08935546875,-1.138427734375,0.2677001953125,-0.1448974609375
1.744,310,677,871,310,0.0,40.0,44.0,-5.493163585662842,30.517576217651367,-11.230467796325684,-0.9736328125,0.0380859375,-0.033935546875
1.760,310,585,813,310,0.0,40.0,44.0,18.06640625,37.41455078125,-20.385740280151367,-0.8350830078125,-0.1964111328125,0.0870361328125
1.767,310,509,741,310,0.0,40.0,44.0,18.06640625,37.41455078125,-20.385740280151367,-0.773193359375,-0.40185546875,0.2181396484375
1.774,309,445,588,310,0.0,40.0,44.0,88.25682830810547,50.292964935302734,-35.2783203125,-0.73876953125,-0.4859619140625,0.2618408203125
1.783,310,426,512,310,0.0,40.0,39.0,114.62401580810547,57.006832122802734,-33.38623046875,-0.6732177734375,-0.3990478515625,0.1483154296875
1.790,310,427,452,310,0.0,40.0,39.0,114.62401580810547,57.006832122802734,-33.38623046875,-0.5958251953125,-0.177734375,-0.068115234375
1.810,310,423,386,309,0.0,40.0,39.0,133.85009765625,65.5517578125,-7.690429210662842,-0.509033203125,0.0855712890625,-0.253173828125
1.823,310,411,377,310,0.0,40.0,39.0,125.61034393310547,58.532711029052734,10.375975608825684,-0.4578857421875,0.2703857421875,-0.324951171875
1.823,308,417,382,310,0.0,40.0,39.0,125.61034393310547,58.532711029052734,10.375975608825684,-0.4688720703125,0.3514404296875,-0.316650390625
1.834,308,410,379,309,0.0,40.0,39.0,86.79198455810547,31.677244186401367,40.771480560302734,-0.5118408203125,0.4095458984375,-0.305419921875
1.847,308,414,386,310,0.0,40.0,39.0,56.030269622802734,20.690916061401367,44.616695404052734,-0.578369140625,0.4521484375,-0.3094482421875
1.878,308,414,387,310,0.0,40.0,39.0,17.51708984375,12.756346702575684,37.41455078125,-0.6922607421875,0.3953857421875,-0.2421875
1.878,310,414,393,309,0.0,40.0,39.0,-11.230467796325684,5.981444835662842,23.010251998901367,-0.79345703125,0.31005859375,-0.086669921875
1.878,308,410,383,309,0.0,40.0,39.0,-11.291502952575684,-1.7089842557907104,7.202147960662842,-0.82421875,0.297119140625,-0.005615234375
1.884,310,441,406,310,-6.0,40.0,41.0,6.713866710662842,-8.4228515625,-6.835937023162842,-0.8538818359375,0.2991943359375,-0.058349609375
1.894,309,476,410,310,-6.0,40.0,41.0,17.15087890625,-10.986327171325684,-16.54052734375,-0.9017333984375,0.2615966796875,-0.123291015625
1.903,312,481,409,308,-6.0,40.0,41.0,17.333984375,-10.437010765075684,-20.446775436401367,-0.947509765625,0.1827392578125,-0.152099609375
1.913,310,479,417,310,-6.0,40.0,41.0,20.202634811401367,-8.9111328125,-19.34814453125,-0.970703125,0.092529296875,-0.19873046875
1.931,310,494,430,310,-6.0,40.0,41.0,26.855466842651367,-8.056640625,-14.953612327575684,-0.9700927734375,0.0286865234375,-0.2694091796875
1.933,310,499,446,310,-6.0,40.0,41.0,26.428220748901367,-10.070799827575684,-8.60595703125,-0.967041015625,-0.001953125,-0.2989501953125
1.941,310,518,454,310,-6.0,40.0,41.0,15.197752952575684,-15.624999046325684,-1.4038084745407104,-0.961669921875,-0.01123046875,-0.2535400390625
1.981,308,558,479,310,-6.0,40.0,41.0,0.9155272841453552,-21.667478561401367,5.981444835662842,-0.93359375,0.002197265625,-0.16748046875
1.981,296,580,481,310,-6.0,40.0,41.0,-8.60595703125,-25.268552780151367,12.207030296325684,-0.880615234375,0.02978515625,-0.082275390625
1.981,310,607,488,310,-6.0,40.0,41.0,-12.329100608825684,-26.855466842651367,15.258788108825684,-0.8455810546875,0.05224609375,-0.0347900390625
1.987,310,666,516,296,-8.0,38.0,44.0,-11.352538108825684,-29.174802780151367,15.014647483825684,-0.8355712890625,0.0894775390625,-0.058837890625
1.997,310,695,564,311,-8.0,38.0,44.0,-11.901854515075684,-32.8369140625,13.366698265075684,-0.7957763671875,0.1507568359375,-0.1292724609375
2.003,308,721,601,310,-8.0,38.0,44.0,-23.864744186401367,-36.07177734375,10.986327171325684,-0.731201171875,0.2109375,-0.1820068359375
2.017,310,797,639,310,-8.0,38.0,44.0,-47.668453216552734,-38.14697265625,7.812499523162842,-0.719482421875,0.25390625,-0.185546875
2.026,310,886,756,311,-8.0,38.0,44.0,-76.23291015625,-39.85595703125,4.638671875,-0.7486572265625,0.2586669921875,-0.14111328125
2.037,310,948,858,310,-8.0,38.0,44.0,-101.98973846435547,-41.320796966552734,2.929687261581421,-0.730712890625,0.2261962890625,-0.1082763671875
2.041,311,996,939,311,-8.0,38.0,44.0,-119.62889862060547,-42.053218841552734,2.807616949081421,-0.6693115234375,0.18115234375,-0.1248779296875
2.055,310,1092,1078,310,-8.0,38.0,44.0,-130.06591796875,-43.579097747802734,3.845214605331421,-0.618408203125,0.1173095703125,-0.1456298828125
2.075,308,1160,1162,310,-8.0,38.0,44.0,-133.23974609375,-45.776363372802734,6.225585460662842,-0.5875244140625,0.0565185546875,-0.13623046875
2.075,311,1215,1245,311,-8.0,38.0,44.0,-125.97655487060547,-46.447750091552734,10.375975608825684,-0.5987548828125,0.08203125,-0.107177734375
2.085,310,1357,1443,310,0.0,37.0,42.0,-112.60985565185547,-45.715328216552734,14.892577171325684,-0.71923828125,0.20849609375,-0.077392578125
2.093,310,1402,1555,310,0.0,37.0,42.0,-102.78319549560547,-45.166011810302734,16.6015625,-1.0069580078125,0.3250732421875,-0.041259765625
2.101,310,1432,1627,312,0.0,37.0,42.0,-100.34178924560547,-44.921871185302734,13.488768577575684,-1.3857421875,0.2113037109375,0.034912109375
2.118,310,1485,1718,310,0.0,37.0,42.0,-94.72655487060547,-42.297359466552734,5.249022960662842,-1.591064453125,-0.118896484375,0.156494140625
2.124,310,1503,1761,310,0.0,37.0,42.0,-64.94140625,-34.48486328125,-1.8310545682907104,-1.5594482421875,-0.1929931640625,0.2012939453125
2.132,310,1523,1803,311,0.0,37.0,42.0,-19.34814453125,-25.634763717651367,2.929687261581421,-1.498291015625,0.095703125,0.13623046875
2.144,312,1546,1840,312,0.0,37.0,42.0,8.48388671875,-21.057126998901367,15.991209983825684,-1.50927734375,0.37060546875,0.0699462890625
2.155,310,1553,1840,311,0.0,37.0,42.0,10.742186546325684,-16.90673828125,24.108884811401367,-1.568359375,0.481201171875,0.0167236328125
2.161,310,1543,1831,312,0.0,37.0,42.0,-1.03759765625,-10.009765625,22.277830123901367,-1.5489501953125,0.3824462890625,-0.0299072265625
2.175,310,1528,1811,311,0.0,37.0,42.0,-12.573241233825684,-4.0283203125,12.878417015075684,-1.017578125,0.0540771484375,0.074951171875
2.184,310,1498,1792,310,1.0,37.0,45.0,-4.69970703125,-0.7324218153953552,1.3427733182907104,-1.017578125,0.0540771484375,0.074951171875
2.191,310,1478,1791,312,1.0,37.0,45.0,19.04296875,2.25830078125,-8.23974609375,-0.9337158203125,0.259765625,0.0751953125
2.205,311,1466,1813,311,1.0,37.0,45.0,34.85107421875,8.1787109375,-18.9208984375,-1.13818359375,0.4560546875,-0.021484375
2.213,310,1450,1810,312,1.0,37.0,45.0,32.71484375,16.7236328125,-31.616209030151367,-1.13818359375,0.4560546875,-0.021484375
2.221,310,1437,1805,312,1.0,37.0,45.0,15.502928733825684,22.766111373901367,-39.24560546875,-1.3858642578125,0.378662109375,-0.0291748046875
2.235,309,1406,1770,310,1.0,37.0,45.0,-8.11767578125,23.864744186401367,-37.9638671875,-1.4716796875,0.04736328125,-0.0255126953125
2.257,310,1377,1746,310,1.0,37.0,45.0,-25.573728561401367,21.850584030151367,-29.907224655151367,-1.4716796875,0.04736328125,-0.0255126953125
2.257,310,1349,1711,310,1.0,37.0,45.0,-30.517576217651367,17.822265625,-17.578125,-1.372314453125,-0.0120849609375,-0.044677734375
2.278,310,1284,1640,311,1.0,37.0,45.0,-27.587888717651367,13.122557640075684,-3.723144292831421,-1.250244140625,0.08447265625,-0.080078125
2.279,310,1232,1567,310,1.0,37.0,45.0,-24.597166061401367,9.94873046875,7.873534679412842,-1.250244140625,0.08447265625,-0.080078125
2.281,310,1175,1483,310,0.0,38.0,42.0,-24.047849655151367,9.82666015625,14.587401390075684,-1.244384765625,0.200439453125,-0.0621337890625
2.294,309,1034,1309,310,0.0,38.0,42.0,-22.277830123901367,13.183592796325684,15.319823265075684,-1.2744140625,0.3463134765625,0.015380859375
2.302,310,927,1188,311,0.0,38.0,42.0,-16.29638671875,19.47021484375,11.047362327575684,-1.2744140625,0.3463134765625,0.015380859375
2.318,310,809,1064,310,0.0,38.0,42.0,-6.164550304412842,27.343748092651367,3.723144292831421,-1.2283935546875,0.245849609375,0.0745849609375
2.325,309,603,920,311,0.0,38.0,42.0,46.997066497802734,45.776363372802734,-13.122557640075684,-1.0322265625,-0.322509765625,0.220947265625
2.333,310,519,830,311,0.0,38.0,42.0,46.997066497802734,45.776363372802734,-13.122557640075684,-0.9449462890625,-0.5338134765625,0.2459716796875
2.341,310,456,749,311,0.0,38.0,42.0,95.45897674560547,57.495113372802734,-20.01953125,-0.9449462890625,-0.5338134765625,0.2459716796875
2.362,310,390,564,310,0.0,38.0,42.0,176.14744567871094,76.72119140625,-18.49365234375,-0.60498046875,-0.3016357421875,0.0302734375
2.363,309,372,465,308,0.0,38.0,42.0,176.14744567871094,76.72119140625,-18.49365234375,-0.4661865234375,0.0103759765625,-0.1932373046875
2.381,310,360,393,310,0.0,38.0,42.0,181.15232849121094,77.5146484375,-7.690429210662842,-0.4661865234375,0.0103759765625,-0.1932373046875
2.384,310,349,367,309,-1.0,39.0,40.0,117.30956268310547,55.297847747802734,18.798828125,-0.330810546875,0.3521728515625,-0.4630126953125
2.394,310,349,357,310,-1.0,39.0,40.0,117.30956268310547,55.297847747802734,18.798828125,-0.485595703125,0.221923828125,-0.405517578125
2.401,309,349,372,310,-1.0,39.0,40.0,77.2705078125,39.85595703125,31.066892623901367,-0.485595703125,0.221923828125,-0.405517578125
2.414,310,342,384,309,-1.0,39.0,40.0,77.880859375,29.052732467651367,11.169432640075684,-0.5751953125,-0.3175048828125,-0.341064453125
2.432,310,343,386,308,-1.0,39.0,40.0,77.880859375,29.052732467651367,11.169432640075684,-0.485595703125,0.0374755859375,-0.3341064453125
2.432,310,345,399,310,-1.0,39.0,40.0,119.32372283935547,29.296873092651367,-0.4882812201976776,-0.485595703125,0.0374755859375,-0.3341064453125
2.448,308,380,394,310,-1.0,39.0,40.0,107.97118377685547,-3.540038824081421,5.249022960662842,-0.718994140625,0.6893310546875,-0.134033203125
2.453,309,398,401,308,-1.0,39.0,40.0,107.97118377685547,-3.540038824081421,5.249022960662842,-0.8297119140625,0.728515625,0.08935546875
2.486,310,402,407,309,-1.0,39.0,40.0,60.668941497802734,-18.1884765625,12.268065452575684,-0.818115234375,0.619873046875,0.2618408203125
2.487,309,439,437,309,-8.0,39.0,43.0,14.526366233825684,-18.37158203125,16.7236328125,-0.7574462890625,0.4072265625,0.2232666015625
2.487,308,475,454,309,-8.0,39.0,43.0,30.212400436401367,-9.27734375,6.347655773162842,-0.7252197265625,0.24658203125,0.0389404296875
2.491,310,488,477,309,-8.0,39.0,43.0,30.212400436401367,-9.27734375,6.347655773162842,-0.71484375,0.1968994140625,-0.1328125
2.505,310,551,486,310,-8.0,39.0,43.0,42.724605560302734,-3.356933355331421,-10.986327171325684,-0.695556640625,0.197509765625,-0.27392578125
2.513,309,590,536,310,-8.0,39.0,43.0,30.639646530151367,-8.6669921875,-11.108397483825684,-0.6571044921875,0.2147216796875,-0.4088134765625
2.527,310,653,606,310,-8.0,39.0,43.0,30.639646530151367,-8.6669921875,-11.108397483825684,-0.614990234375,0.21533203125,-0.468505859375
2.535,310,766,710,310,-8.0,39.0,43.0,-36.2548828125,-29.785154342651367,-4.94384765625,-0.608642578125,0.16650390625,-0.3887939453125
2.543,310,835,813,312,-8.0,39.0,43.0,-89.29442596435547,-41.442867279052734,-3.479003667831421,-0.65625,0.12548828125,-0.2728271484375
2.551,310,927,910,311,-8.0,39.0,43.0,-89.29442596435547,-41.442867279052734,-3.479003667831421,-0.68798828125,0.09130859375,-0.2381591796875
2.587,310,1067,1108,310,-8.0,39.0,43.0,-202.63670349121094,-51.940914154052734,-3.173827886581421,-0.6375732421875,-0.118896484375,-0.221435546875
2.587,310,1139,1185,310,-4.0,39.0,41.0,-232.66600036621094,-49.560543060302734,-2.25830078125,-0.6202392578125,-0.3929443359375,-0.135986328125
2.587,310,1215,1243,310,-4.0,39.0,41.0,-232.66600036621094,-49.560543060302734,-2.25830078125,-0.732666015625,-0.33984375,-0.0570068359375
2.601,308,1338,1486,310,-4.0,39.0,41.0,-132.568359375,-24.475095748901367,19.4091796875,-0.93212890625,0.0526123046875,-0.0584716796875
2.604,310,1403,1636,311,-4.0,39.0,41.0,-84.41161346435547,-17.2119140625,26.794431686401367,-1.222900390625,0.4578857421875,-0.0352783203125
2.612,311,1452,1721,311,-4.0,39.0,41.0,-87.03612518310547,-23.498533248901367,27.404783248901367,-1.5125732421875,0.5135498046875,0.1693115234375
2.630,310,1514,1803,310,-4.0,39.0,41.0,-110.59569549560547,-36.19384765625,24.719236373901367,-1.6129150390625,0.24658203125,0.3895263671875
2.636,299,1541,1801,297,-4.0,39.0,41.0,-101.01317596435547,-35.2783203125,23.254392623901367,-1.59765625,0.11328125,0.344970703125
2.643,310,1562,1864,310,-4.0,39.0,41.0,-52.124019622802734,-18.1884765625,24.597166061401367,-1.619384765625,0.283447265625,0.1326904296875
2.656,314,1565,1874,312,-4.0,39.0,41.0,-6.958007335662842,-2.50244140625,24.291990280151367,-1.67529296875,0.5068359375,-0.038818359375
2.699,310,1547,1801,310,-4.0,39.0,41.0,9.8876953125,4.94384765625,17.578125,-1.68115234375,0.501708984375,-0.1029052734375
2.704,310,1531,1770,311,-2.0,39.0,43.0,10.314940452575684,9.21630859375,3.173827886581421,-1.44921875,0.24169921875,-0.0999755859375
2.705,308,1518,1741,311,-2.0,39.0,43.0,17.7001953125,14.038084983825684,-14.892577171325684,-1.1146240234375,0.0589599609375,-0.1234130859375
2.710,312,1506,1763,311,-2.0,39.0,43.0,36.56005859375,16.7236328125,-27.465818405151367,-1.027587890625,0.1480712890625,-0.191162109375
2.710,310,1492,1774,310,-2.0,39.0,43.0,46.813961029052734,16.2353515625,-31.494138717651367,-1.256591796875,0.327880859375,-0.264404296875
2.711,297,1447,1757,312,-2.0,39.0,43.0,32.5927734375,16.54052734375,-31.066892623901367,-1.5694580078125,0.352294921875,-0.310791015625
2.724,310,1444,1725,310,-2.0,39.0,43.0,0.9155272841453552,18.98193359375,-28.442380905151367,-1.68359375,0.1790771484375,-0.296630859375
2.733,310,1409,1698,312,-2.0,39.0,43.0,-26.550291061401367,19.53125,-21.850584030151367,-1.6021728515625,0.027587890625,-0.2283935546875
2.741,310,1369,1652,311,-2.0,39.0,43.0,-38.9404296875,15.441893577575684,-9.1552734375,-1.4571533203125,0.0272216796875,-0.127685546875
2.755,310,1292,1536,308,-2.0,39.0,43.0,-40.344234466552734,10.375975608825684,5.371093273162842,-1.3212890625,0.0904541015625,-0.0338134765625
2.792,310,1236,1452,311,-2.0,39.0,43.0,-36.0107421875,10.742186546325684,15.258788108825684,-1.20556640625,0.13671875,0.0087890625
2.793,295,1170,1342,312,0.0,39.0,38.0,-27.038572311401367,17.76123046875,18.61572265625,-1.1004638671875,0.1680908203125,0.017333984375
2.793,310,996,1184,309,0.0,39.0,38.0,-13.061522483825684,26.245115280151367,17.02880859375,-1.0015869140625,0.1961669921875,0.034423828125
2.793,295,902,1111,310,0.0,39.0,38.0,6.286620616912842,31.860349655151367,12.329100608825684,-0.9195556640625,0.2039794921875,0.0816650390625
2.801,310,818,1038,311,0.0,39.0,38.0,29.479978561401367,34.72900390625,4.69970703125,-0.8785400390625,0.1265869140625,0.1600341796875
2.815,310,657,865,309,0.0,39.0,38.0,54.626461029052734,37.841796875,-5.615233898162842,-0.8916015625,-0.04248046875,0.22607421875
2.823,310,566,771,311,0.0,39.0,38.0,83.06884002685547,44.494625091552734,-15.808104515075684,-0.9298095703125,-0.216552734375,0.2503662109375
2.835,308,513,678,310,0.0,39.0,38.0,116.08885955810547,54.260250091552734,-20.629880905151367,-0.909912109375,-0.309814453125,0.2000732421875
2.845,310,447,538,310,0.0,39.0,38.0,151.79443359375,64.51416015625,-16.6015625,-0.7655029296875,-0.2760009765625,0.0147705078125
2.854,311,411,449,310,0.0,39.0,38.0,182.92234802246094,72.81494140625,-5.249022960662842,-0.6165771484375,-0.102783203125,-0.224853515625
2.863,299,413,407,296,0.0,39.0,38.0,195.06834411621094,72.32666015625,9.1552734375,-0.537841796875,0.134033203125,-0.3843994140625
2.945,309,391,402,309,-5.0,41.0,43.0,176.81883239746094,59.997554779052734,20.751951217651367,-0.421630859375,0.3525390625,-0.516845703125
2.954,309,380,401,308,-5.0,41.0,43.0,137.02392578125,44.189449310302734,26.306150436401367,-0.421630859375,0.3525390625,-0.516845703125
2.955,309,370,386,296,-5.0,41.0,43.0,94.17723846435547,31.616209030151367,29.479978561401367,-0.5076904296875,0.3656005859375,-0.4991455078125
2.965,310,372,414,310,-5.0,41.0,43.0,61.645503997802734,20.812986373901367,32.71484375,-0.69873046875,0.4849853515625,-0.3245849609375
3.006,310,372,402,308,-5.0,41.0,43.0,43.273921966552734,8.48388671875,31.616209030151367,-0.69873046875,0.4849853515625,-0.3245849609375
3.014,310,379,426,310,-5.0,41.0,43.0,30.151365280151367,-5.371093273162842,21.057126998901367,-0.7720947265625,0.4609375,-0.2586669921875
3.023,311,372,427,309,-5.0,41.0,43.0,15.563963890075684,-14.587401390075684,3.723144292831421,-0.79345703125,0.1146240234375,-0.091796875
3.038,310,396,453,310,-5.0,41.0,43.0,5.859374523162842,-14.282225608825684,-11.108397483825684,-0.79345703125,0.1146240234375,-0.091796875
3.040,310,407,453,310,-5.0,41.0,43.0,3.173827886581421,-8.85009765625,-17.88330078125,-0.81201171875,0.0811767578125,-0.032958984375
3.041,308,423,478,310,-5.0,41.0,43.0,3.051757574081421,-4.638671875,-17.9443359375,-0.8216552734375,0.1112060546875,-0.01171875
3.045,310,428,490,310,-4.0,40.0,38.0,6.652831554412842,-2.01416015625,-14.770506858825684,-0.7762451171875,0.123291015625,-0.0933837890625
3.048,310,437,467,308,-4.0,40.0,38.0,15.258788108825684,0.9155272841453552,-10.864256858825684,-0.7762451171875,0.123291015625,-0.0933837890625
3.048,310,447,495,310,-4.0,40.0,38.0,23.254392623901367,3.479003667831421,-7.751464366912842,-0.7479248046875,0.141845703125,-0.22802734375
3.049,309,481,516,310,-4.0,40.0,38.0,23.376462936401367,3.417968511581421,-4.82177734375,-0.7698974609375,0.0745849609375,-0.404052734375
3.051,310,509,529,308,-4.0,40.0,38.0,14.648436546325684,-0.3662109076976776,0.6713866591453552,-0.7698974609375,0.0745849609375,-0.404052734375
3.054,310,542,537,310,-4.0,40.0,38.0,1.15966796875,-7.202147960662842,10.131834983825684,-0.7564697265625,0.0672607421875,-0.378662109375
3.057,310,653,606,310,-4.0,40.0,38.0,-15.380858421325684,-15.502928733825684,20.874021530151367,-0.5931396484375,0.2242431640625,-0.1837158203125
3.058,308,728,657,310,-4.0,40.0,38.0,-37.65869140625,-22.460935592651367,26.794431686401367,-0.5931396484375,0.2242431640625,-0.1837158203125
3.058,308,820,790,297,-4.0,40.0,38.0,-70.4345703125,-25.085447311401367,23.193357467651367,-0.541015625,0.3153076171875,-0.1864013671875
3.061,310,919,931,311,-4.0,40.0,38.0,-121.88719940185547,-24.780271530151367,9.46044921875,-0.455322265625,0.3153076171875,-0.28955078125
3.078,310,1076,1055,311,-1.0,40.0,43.0,-193.05418395996094,-26.794431686401367,-8.544921875,-0.31201171875,-0.2552490234375,-0.3902587890625
3.109,310,1162,1081,311,-1.0,40.0,43.0,-257.87353515625,-33.3251953125,-20.202634811401367,-0.5030517578125,-0.4285888671875,-0.2332763671875
3.111,309,1242,1251,310,-1.0,40.0,43.0,-263.97705078125,-37.4755859375,-15.380858421325684,-0.5030517578125,-0.4285888671875,-0.2332763671875
3.111,310,1352,1640,310,-1.0,40.0,43.0,-107.91014862060547,-22.033689498901367,28.198240280151367,-1.322998046875,0.583251953125,-0.0787353515625
3.113,310,1393,1754,310,-1.0,40.0,43.0,-107.91014862060547,-22.033689498901367,28.198240280151367,-1.8399658203125,0.686279296875,0.2186279296875
3.121,312,1434,1783,312,-1.0,40.0,43.0,-93.99413299560547,-30.578611373901367,41.442867279052734,-1.8399658203125,0.686279296875,0.2186279296875
3.136,310,1483,1791,310,-1.0,40.0,43.0,-133.48388671875,-55.541988372802734,31.799314498901367,-1.788818359375,-0.30419921875,0.527099609375
3.147,310,1483,1788,312,-1.0,40.0,43.0,-133.48388671875,-55.541988372802734,31.799314498901367,-1.66455078125,0.0096435546875,0.195556640625
3.151,310,1492,1732,311,-1.0,40.0,43.0,-48.583980560302734,-28.808591842651367,31.249998092651367,-1.66455078125,0.0096435546875,0.195556640625
3.166,310,1478,1543,310,-1.0,40.0,43.0,57.678218841552734,6.652831554412842,34.1796875,-1.541259765625,0.696044921875,-0.368408203125
3.182,310,1458,1499,310,-3.0,39.0,40.0,57.678218841552734,6.652831554412842,34.1796875,-1.24169921875,0.5076904296875,-0.3917236328125
3.189,310,1452,1523,310,-3.0,39.0,40.0,51.757808685302734,7.873534679412842,18.37158203125,-1.24169921875,0.5076904296875,-0.3917236328125
3.195,310,1428,1578,311,-3.0,39.0,40.0,49.316402435302734,4.5166015625,-24.536130905151367,-1.2186279296875,0.5184326171875,-0.2506103515625
3.220,310,1407,1573,311,-3.0,39.0,40.0,49.316402435302734,4.5166015625,-24.536130905151367,-1.55712890625,0.5572509765625,-0.2911376953125
3.220,310,1369,1568,311,-3.0,39.0,40.0,35.58349609375,7.934569835662842,-33.935546875,-1.55712890625,0.5572509765625,-0.2911376953125
3.224,310,1297,1527,311,-3.0,39.0,40.0,-19.4091796875,28.808591842651367,-37.4755859375,-1.6002197265625,0.1136474609375,-0.2686767578125
3.233,310,1253,1486,311,-3.0,39.0,40.0,-25.085447311401367,28.259275436401367,-31.005857467651367,-1.423828125,0.0484619140625,-0.1669921875
3.245,309,1186,1432,311,-3.0,39.0,40.0,-25.085447311401367,28.259275436401367,-31.005857467651367,-1.287841796875,0.164794921875,-0.12939453125
3.255,310,1067,1309,310,-3.0,39.0,40.0,-5.371093273162842,17.88330078125,-10.009765625,-1.19921875,0.2755126953125,-0.1402587890625
3.264,310,994,1236,310,-3.0,39.0,40.0,-3.601073980331421,19.34814453125,-5.920409679412842,-1.1138916015625,0.236572265625,-0.109619140625
3.271,310,907,1131,310,-1.0,40.0,42.0,-3.601073980331421,19.34814453125,-5.920409679412842,-1.017822265625,0.067626953125,-0.006591796875
3.285,310,740,992,310,-1.0,40.0,42.0,6.652831554412842,22.949216842651367,-5.859374523162842,-0.9412841796875,-0.13037109375,0.1114501953125
3.301,310,659,886,310,-1.0,40.0,42.0,34.48486328125,24.902341842651367,-6.042479991912842,-0.927001953125,-0.310302734375,0.211181640625
3.302,309,587,790,310,-1.0,40.0,42.0,34.48486328125,24.902341842651367,-6.042479991912842,-0.8758544921875,-0.41552734375,0.290771484375
3.314,309,504,657,310,-1.0,40.0,42.0,134.33837890625,43.823238372802734,-10.742186546325684,-0.647216796875,-0.3341064453125,0.2685546875
3.323,308,481,561,310,-1.0,40.0,42.0,180.90818786621094,56.579586029052734,-12.695311546325684,-0.3585205078125,-0.083984375,0.0706787109375
3.331,310,465,513,310,-1.0,40.0,42.0,180.90818786621094,56.579586029052734,-12.695311546325684,-0.2650146484375,0.2218017578125,-0.2269287109375
3.347,308,463,479,309,-1.0,40.0,42.0,189.69725036621094,57.617183685302734,-6.408690929412842,-0.3663330078125,0.455078125,-0.4447021484375
3.353,309,455,466,310,-1.0,40.0,42.0,149.71923828125,38.6962890625,1.15966796875,-0.4462890625,0.52978515625,-0.50048828125
3.361,309,457,451,310,-1.0,40.0,42.0,149.71923828125,38.6962890625,1.15966796875,-0.477294921875,0.5093994140625,-0.453125
3.374,308,472,473,310,-3.0,41.0,37.0,52.062984466552734,3.662109136581421,11.352538108825684,-0.5654296875,0.4619140625,-0.3876953125
3.383,310,479,479,310,-3.0,41.0,37.0,16.66259765625,-1.03759765625,9.3994140625,-0.7327880859375,0.313720703125,-0.3377685546875
3.401,309,481,485,310,-3.0,41.0,37.0,-0.4272460639476776,2.990722417831421,3.845214605331421,-0.888427734375,0.0797119140625,-0.300048828125
3.404,310,490,495,310,-3.0,41.0,37.0,3.479003667831421,9.46044921875,2.13623046875,-0.9315185546875,-0.039306640625,-0.2591552734375
3.420,310,494,500,310,-3.0,41.0,37.0,19.287109375,8.85009765625,6.591796398162842,-0.9188232421875,0.0350341796875,-0.2279052734375
3.421,310,499,509,311,-3.0,41.0,37.0,32.65380859375,-0.9765624403953552,11.230467796325684,-0.9287109375,0.1865234375,-0.212890625
3.435,310,507,512,310,-3.0,41.0,37.0,36.56005859375,-12.756346702575684,11.291502952575684,-0.950927734375,0.30859375,-0.213134765625
3.448,310,509,518,310,-3.0,41.0,37.0,31.127927780151367,-19.71435546875,6.286620616912842,-0.9678955078125,0.3375244140625,-0.230224609375
3.452,310,519,530,310,-3.0,41.0,37.0,18.85986328125,-20.324705123901367,-1.4648436307907104,-0.96826171875,0.258544921875,-0.2359619140625
3.465,310,522,537,310,-3.0,41.0,37.0,6.713866710662842,-16.66259765625,-7.690429210662842,-0.9493408203125,0.141845703125,-0.2257080078125
3.474,310,527,548,309,-4.0,42.0,38.0,0.6103515625,-12.084959983825684,-8.9111328125,-0.9217529296875,0.0765380859375,-0.21923828125
3.486,310,537,558,310,-4.0,42.0,38.0,-0.3662109076976776,-8.97216796875,-5.310058116912842,-0.8857421875,0.0794677734375,-0.21435546875
3.508,310,551,575,310,-4.0,42.0,38.0,0.54931640625,-8.11767578125,0.2441406100988388,-0.841552734375,0.1109619140625,-0.21044921875
3.516,310,538,582,310,-4.0,42.0,38.0,0.6713866591453552,-9.33837890625,5.126952648162842,-0.799560546875,0.1298828125,-0.21728515625
3.517,310,574,575,310,-4.0,42.0,38.0,-1.0986328125,-11.840819358825684,8.72802734375,-0.7618408203125,0.1290283203125,-0.226318359375
3.527,309,631,599,310,-4.0,42.0,38.0,-4.150390625,-15.258788108825684,11.840819358825684,-0.7222900390625,0.1314697265625,-0.2210693359375
3.533,310,674,605,310,-4.0,42.0,38.0,-9.033203125,-19.4091796875,13.977049827575684,-0.6778564453125,0.15673828125,-0.1932373046875
3.541,310,728,628,310,-4.0,42.0,38.0,-20.141599655151367,-24.780271530151367,12.451170921325684,-0.58544921875,0.1981201171875,-0.181640625
3.558,310,830,730,310,-4.0,42.0,38.0,-46.997066497802734,-30.639646530151367,4.33349609375,-0.4505615234375,0.2659912109375,-0.269287109375
3.563,311,901,837,310,-4.0,42.0,38.0,-105.28563690185547,-36.31591796875,-9.21630859375,-0.3712158203125,0.3167724609375,-0.373779296875
3.571,310,966,902,311,-1.0,39.0,40.0,-190.55174255371094,-45.166011810302734,-20.263669967651367,-0.3759765625,0.2030029296875,-0.3753662109375
3.590,310,1089,1013,311,-1.0,39.0,40.0,-258.60595703125,-54.443355560302734,-21.118162155151367,-0.4681396484375,-0.0399169921875,-0.313232421875
3.593,311,1175,1202,310,-1.0,39.0,40.0,-263.24462890625,-54.382320404052734,-9.765625,-0.6455078125,-0.140625,-0.2593994140625
3.603,311,1260,1413,311,-1.0,39.0,40.0,-206.97019958496094,-44.494625091552734,9.6435546875,-0.9019775390625,0.0584716796875,-0.1937255859375
3.617,309,1369,1681,311,-1.0,39.0,40.0,-141.17431640625,-37.109375,28.930662155151367,-1.3223876953125,0.304443359375,-0.001220703125
3.623,310,1403,1746,311,-1.0,39.0,40.0,-116.45507049560547,-44.677730560302734,38.2080078125,-1.7247314453125,0.22607421875,0.26123046875
3.634,310,1437,1778,312,-1.0,39.0,40.0,-121.82616424560547,-58.532711029052734,33.50830078125,-1.774658203125,-0.052490234375,0.40625
3.645,310,1471,1806,312,-1.0,39.0,40.0,-97.83934783935547,-56.457515716552734,23.864744186401367,-1.580078125,-0.08837890625,0.3394775390625
3.654,310,1478,1815,311,-1.0,39.0,40.0,-36.68212890625,-37.29248046875,19.59228515625,-1.454833984375,0.2333984375,0.088134765625
3.662,311,1468,1773,311,-1.0,39.0,40.0,10.620116233825684,-18.5546875,20.690916061401367,-1.5084228515625,0.6124267578125,-0.194091796875
3.675,308,1428,1711,310,0.0,38.0,41.0,20.01953125,-9.33837890625,21.240232467651367,-1.55712890625,0.6728515625,-0.3369140625
3.683,310,1393,1691,310,0.0,38.0,41.0,10.375975608825684,-7.995604991912842,12.939452171325684,-1.3399658203125,0.4051513671875,-0.25
3.692,310,1367,1704,310,0.0,38.0,41.0,9.33837890625,-10.437010765075684,-4.5166015625,-1.0654296875,0.218505859375,-0.0284423828125
3.710,309,1338,1708,310,0.0,38.0,41.0,20.751951217651367,-11.169432640075684,-19.83642578125,-1.5028076171875,0.52734375,0.00830078125
3.713,310,1289,1683,311,0.0,38.0,41.0,23.437498092651367,-2.929687261581421,-25.939939498901367,-1.5028076171875,0.52734375,0.00830078125
3.721,311,1239,1641,312,0.0,38.0,41.0,5.432128429412842,14.526366233825684,-26.306150436401367,-1.775634765625,0.4385986328125,-0.1524658203125
3.740,310,1120,1529,312,0.0,38.0,41.0,-15.991209983825684,30.700681686401367,-24.719236373901367,-1.66796875,0.1160888671875,-0.1978759765625
3.744,310,1039,1443,312,0.0,38.0,41.0,-19.34814453125,35.70556640625,-19.22607421875,-1.66796875,0.1160888671875,-0.1978759765625
3.756,310,946,1338,310,0.0,38.0,41.0,-8.72802734375,31.738279342651367,-8.7890625,-1.5257568359375,0.1787109375,-0.1234130859375
3.766,310,725,1129,310,1.0,41.0,37.0,15.563963890075684,32.77587890625,7.019042491912842,-1.317626953125,-0.0162353515625,0.0921630859375
3.773,310,650,982,310,1.0,41.0,37.0,15.563963890075684,32.77587890625,7.019042491912842,-1.1947021484375,-0.375732421875,0.2154541015625
3.782,310,551,885,310,1.0,41.0,37.0,45.593257904052734,42.724605560302734,9.1552734375,-1.1947021484375,-0.375732421875,0.2154541015625
3.796,310,446,654,310,1.0,41.0,37.0,172.11912536621094,70.98388671875,7.812499523162842,-0.6514892578125,-0.714599609375,0.27880859375
3.813,309,430,561,308,1.0,41.0,37.0,172.11912536621094,70.98388671875,7.812499523162842,-0.2618408203125,-0.4219970703125,0.175537109375
3.814,308,394,490,309,1.0,41.0,37.0,235.35154724121094,80.56639862060547,5.249022960662842,-0.2618408203125,-0.4219970703125,0.175537109375
3.825,310,372,423,310,1.0,41.0,37.0,260.498046875,70.80078125,11.962889671325684,0.048095703125,0.6444091796875,-0.4215087890625
3.834,308,372,410,310,1.0,41.0,37.0,260.498046875,70.80078125,11.962889671325684,-0.0565185546875,0.9117431640625,-0.582763671875
3.846,309,360,408,310,1.0,41.0,37.0,193.11521911621094,46.630855560302734,19.71435546875,-0.0565185546875,0.9117431640625,-0.582763671875
3.857,308,384,428,310,1.0,41.0,37.0,15.197752952575684,6.103515148162842,-2.563476324081421,-0.5345458984375,0.1689453125,-0.4482421875
3.864,308,377,452,310,-4.0,42.0,41.0,15.197752952575684,6.103515148162842,-2.563476324081421,-0.647216796875,0.0211181640625,-0.4422607421875
3.872,309,380,479,310,-4.0,42.0,41.0,6.042479991912842,4.8828125,-24.353025436401367,-0.647216796875,0.0211181640625,-0.4422607421875
3.886,310,408,543,310,-4.0,42.0,41.0,36.4990234375,-4.5166015625,2.990722417831421,-0.7989501953125,0.514404296875,-0.314208984375
3.919,310,428,578,310,-4.0,42.0,41.0,36.4990234375,-4.5166015625,2.990722417831421,-0.7855224609375,0.37646484375,-0.1632080078125
3.919,310,456,592,310,-4.0,42.0,41.0,20.202634811401367,-14.099120140075684,6.042479991912842,-0.7855224609375,0.37646484375,-0.1632080078125
3.920,309,488,631,309,-4.0,42.0,41.0,-9.6435546875,-13.549803733825684,-8.48388671875,-0.8863525390625,0.3223876953125,-0.0789794921875
3.924,310,496,645,310,-4.0,42.0,41.0,-14.587401390075684,-11.291502952575684,-14.648436546325684,-0.9947509765625,0.2740478515625,-0.08984375
3.932,310,506,650,310,-4.0,42.0,41.0,-14.587401390075684,-11.291502952575684,-14.648436546325684,-1.042236328125,0.227294921875,-0.106689453125
3.954,310,522,666,310,-4.0,42.0,41.0,5.432128429412842,-2.38037109375,-19.95849609375,-1.02734375,0.18701171875,-0.158935546875
3.957,310,524,666,309,-4.0,42.0,41.0,12.573241233825684,1.0986328125,-20.263669967651367,-0.990234375,0.1275634765625,-0.19775390625
3.962,310,540,673,310,-3.0,41.0,42.0,12.573241233825684,1.0986328125,-20.263669967651367,-0.973388671875,0.0758056640625,-0.1893310546875
3.976,309,558,685,309,-3.0,41.0,42.0,-1.15966796875,-0.1220703050494194,-11.840819358825684,-0.987060546875,0.0616455078125,-0.167724609375
3.984,310,563,688,310,-3.0,41.0,42.0,-4.57763671875,-1.7700194120407104,-5.798339366912842,-0.9993896484375,0.069091796875,-0.1707763671875
3.997,310,574,689,311,-3.0,41.0,42.0,-4.57763671875,-1.7700194120407104,-5.798339366912842,-0.985595703125,0.0677490234375,-0.1953125
4.020,310,576,684,310,-3.0,41.0,42.0,7.934569835662842,-4.150390625,2.868652105331421,-0.961181640625,0.0745849609375,-0.224609375
4.021,310,590,684,309,-3.0,41.0,42.0,13.549803733825684,-6.958007335662842,5.981444835662842,-0.94580078125,0.1220703125,-0.2431640625
4.022,310,599,685,304,-3.0,41.0,42.0,13.549803733825684,-6.958007335662842,5.981444835662842,-0.933837890625,0.1807861328125,-0.2310791015625
4.035,310,614,688,310,-3.0,41.0,42.0,11.840819358825684,-15.197752952575684,7.263183116912842,-0.896728515625,0.2142333984375,-0.195068359375
4.044,310,642,689,310,-3.0,41.0,42.0,0.1220703050494194,-18.00537109375,4.33349609375,-0.816162109375,0.2210693359375,-0.1614990234375
4.061,309,669,710,310,-3.0,41.0,42.0,0.1220703050494194,-18.00537109375,4.33349609375,-0.7205810546875,0.2313232421875,-0.1710205078125
4.067,310,729,803,310,-2.0,43.0,38.0,-63.964839935302734,-22.460935592651367,-10.803221702575684,-0.6640625,0.2303466796875,-0.2335205078125
4.074,308,780,865,311,-2.0,43.0,38.0,-118.04198455810547,-26.550291061401367,-17.4560546875,-0.6348876953125,0.15625,-0.2957763671875
4.082,310,822,966,309,-2.0,43.0,38.0,-162.17039489746094,-30.090330123901367,-16.41845703125,-0.5157470703125,0.084716796875,-0.365234375
4.100,310,955,1105,310,-2.0,43.0,38.0,-181.27439880371094,-31.616209030151367,-10.681151390075684,-0.3292236328125,0.0985107421875,-0.48583984375
4.104,310,1029,1188,310,-2.0,43.0,38.0,-191.34519958496094,-35.46142578125,-6.652831554412842,-0.2613525390625,0.0699462890625,-0.5234375
4.126,310,1104,1294,310,-2.0,43.0,38.0,-199.46287536621094,-43.334957122802734,-2.0751953125,-0.33447265625,-0.0048828125,-0.4031982421875
4.132,310,1236,1610,310,-2.0,43.0,38.0,-183.16648864746094,-43.334957122802734,8.6669921875,-0.521484375,0.1102294921875,-0.2642822265625
4.134,310,1294,1787,310,-2.0,43.0,38.0,-147.705078125,-32.77587890625,23.742673873901367,-0.9666748046875,0.4412841796875,-0.0704345703125
4.141,310,1383,1882,312,-2.0,43.0,38.0,-136.8408203125,-32.470703125,34.423828125,-1.564208984375,0.4957275390625,0.289306640625
4.155,310,1445,1937,311,-2.0,43.0,38.0,-155.21240234375,-47.058101654052734,32.28759765625,-1.8568115234375,0.0147705078125,0.6539306640625
4.178,310,1474,1961,312,1.0,39.0,39.0,-137.14599609375,-48.828121185302734,18.85986328125,-1.7701416015625,-0.4007568359375,0.69580078125
4.179,312,1500,1954,310,1.0,39.0,39.0,-54.443355560302734,-27.221677780151367,6.958007335662842,-1.6239013671875,-0.2601318359375,0.334716796875
4.187,310,1516,1867,310,1.0,39.0,39.0,31.066892623901367,-3.601073980331421,5.432128429412842,-1.5966796875,0.2613525390625,-0.155029296875
4.194,310,1503,1785,311,1.0,39.0,39.0,65.36865234375,7.324218273162842,11.535643577575684,-1.642578125,0.6971435546875,-0.468017578125
4.203,311,1486,1735,311,1.0,39.0,39.0,53.222652435302734,7.812499523162842,15.197752952575684,-1.48193359375,0.63427734375,-0.447509765625
4.225,310,1457,1723,311,1.0,39.0,39.0,30.822751998901367,3.112792730331421,7.568358898162842,-1.12060546875,0.314697265625,-0.1768798828125
4.233,311,1452,1734,310,1.0,39.0,39.0,25.695798873901367,-1.3427733182907104,-6.042479991912842,-0.969482421875,0.2567138671875,0.065185546875
4.234,310,1443,1742,310,1.0,39.0,39.0,29.968259811401367,2.197265625,-16.05224609375,-1.202392578125,0.429443359375,0.0413818359375
4.249,310,1391,1715,311,1.0,39.0,39.0,22.644041061401367,16.41845703125,-21.118162155151367,-1.5552978515625,0.4852294921875,-0.1932373046875
4.254,310,1345,1683,312,1.0,39.0,39.0,3.662109136581421,31.555173873901367,-22.705076217651367,-1.6971435546875,0.3138427734375,-0.3846435546875
4.277,310,1294,1643,310,0.0,42.0,40.0,-10.498045921325684,35.0341796875,-20.385740280151367,-1.6241455078125,0.1485595703125,-0.397216796875
4.277,309,1178,1555,310,0.0,42.0,40.0,-11.779784202575684,26.611326217651367,-13.732909202575684,-1.5025634765625,0.17138671875,-0.2900390625
4.284,310,1096,1484,312,0.0,42.0,40.0,-7.934569835662842,17.822265625,-6.042479991912842,-1.4259033203125,0.284423828125,-0.1798095703125
4.292,311,989,1416,310,0.0,42.0,40.0,-6.713866710662842,17.27294921875,-0.7934569716453552,-1.3795166015625,0.2890625,-0.09423828125
4.307,311,793,1243,310,0.0,42.0,40.0,-4.57763671875,22.583005905151367,1.6479490995407104,-1.3031005859375,0.1138916015625,0.006103515625
4.326,310,691,1105,310,0.0,42.0,40.0,6.408690929412842,27.526853561401367,1.8920897245407104,-1.181640625,-0.1710205078125,0.098388671875
4.326,311,576,966,311,0.0,42.0,40.0,32.470703125,31.188962936401367,0.7934569716453552,-1.1248779296875,-0.4910888671875,0.1795654296875
4.336,309,452,728,310,0.0,42.0,40.0,80.62743377685547,36.19384765625,1.4038084745407104,-1.090087890625,-0.7366943359375,0.2899169921875
4.345,310,407,590,310,0.0,42.0,40.0,155.2734375,45.104976654052734,6.652831554412842,-0.8262939453125,-0.745849609375,0.3348388671875
4.352,310,380,522,310,0.0,42.0,40.0,242.55369567871094,60.424800872802734,14.160155296325684,-0.3433837890625,-0.384765625,0.154296875
4.368,310,357,435,310,-4.0,38.0,40.0,301.94091796875,76.5380859375,20.874021530151367,0.0228271484375,0.305419921875,-0.2127685546875
4.378,309,355,433,310,-4.0,38.0,40.0,288.02490234375,75.86669921875,26.489255905151367,0.0860595703125,0.91796875,-0.5096435546875
4.382,310,340,437,310,-4.0,38.0,40.0,196.41111755371094,50.231929779052734,27.954099655151367,-0.0675048828125,1.0860595703125,-0.577392578125
4.395,310,340,437,308,-4.0,38.0,40.0,75.62255859375,17.333984375,24.108884811401367,-0.737548828125,0.54541015625,-0.394287109375
4.409,310,340,447,310,-4.0,38.0,40.0,-15.197752952575684,-4.45556640625,16.54052734375,-0.737548828125,0.54541015625,-0.394287109375
4.430,309,340,457,309,-4.0,38.0,40.0,-48.645015716552734,-12.268065452575684,5.310058116912842,-0.78564453125,0.1678466796875,-0.3216552734375
4.431,310,354,473,308,-4.0,38.0,40.0,-34.912109375,-9.1552734375,-3.967284917831421,-0.6549072265625,-0.05126953125,-0.3367919921875
4.437,308,353,509,310,-4.0,38.0,40.0,-4.57763671875,-4.5166015625,-7.995604991912842,-0.6549072265625,-0.05126953125,-0.3367919921875
4.441,308,369,543,310,-4.0,38.0,40.0,15.441893577575684,-7.385253429412842,-9.521484375,-0.7203369140625,0.083251953125,-0.2469482421875
4.458,308,387,572,310,-4.0,38.0,40.0,17.02880859375,-15.502928733825684,-8.60595703125,-0.8614501953125,0.3690185546875,-0.0439453125
4.464,310,408,590,310,-4.0,42.0,38.0,7.751464366912842,-20.751951217651367,-7.324218273162842,-0.8614501953125,0.3690185546875,-0.0439453125
4.473,310,426,596,309,-4.0,42.0,38.0,-0.30517578125,-18.73779296875,-8.4228515625,-0.8944091796875,0.336181640625,-0.019287109375
4.487,308,426,606,308,-4.0,42.0,38.0,0.3662109076976776,-12.512206077575684,-10.925292015075684,-0.9100341796875,0.0753173828125,-0.1143798828125
4.494,310,439,616,310,-4.0,42.0,38.0,9.58251953125,-7.873534679412842,-10.986327171325684,-0.9100341796875,0.0753173828125,-0.1143798828125
4.502,310,449,619,310,-4.0,42.0,38.0,20.141599655151367,-6.774901866912842,-6.042479991912842,-0.92529296875,0.029541015625,-0.21484375
4.522,310,469,629,310,-4.0,42.0,38.0,23.681638717651367,-8.056640625,2.0751953125,-0.969482421875,0.172607421875,-0.2960205078125
4.534,311,482,629,310,-4.0,42.0,38.0,18.1884765625,-10.986327171325684,9.46044921875,-0.963623046875,0.2169189453125,-0.2520751953125
4.534,310,498,632,310,-4.0,42.0,38.0,9.3994140625,-15.441893577575684,13.610838890075684,-0.963623046875,0.2169189453125,-0.2520751953125
4.546,308,543,650,310,-4.0,42.0,38.0,0.0,-23.254392623901367,15.258788108825684,-0.8763427734375,0.174560546875,-0.2191162109375
4.555,310,568,700,310,-4.0,42.0,38.0,0.0,-23.254392623901367,15.258788108825684,-0.7635498046875,0.1475830078125,-0.2315673828125
4.563,310,607,756,310,-4.0,42.0,45.0,-4.2724609375,-26.306150436401367,13.793944358825684,-0.7635498046875,0.1475830078125,-0.2315673828125
4.579,310,710,959,310,-4.0,42.0,45.0,-50.231929779052734,-29.907224655151367,-4.638671875,-0.3157958984375,0.288818359375,-0.4827880859375
4.584,310,782,1094,310,-4.0,42.0,45.0,-50.231929779052734,-29.907224655151367,-4.638671875,-0.2393798828125,0.2857666015625,-0.60693359375
4.597,310,861,1209,311,-4.0,42.0,45.0,-127.38036346435547,-33.50830078125,-24.780271530151367,-0.2393798828125,0.2857666015625,-0.60693359375
4.624,311,992,1380,310,-4.0,42.0,45.0,-294.00634765625,-59.509273529052734,-40.161128997802734,-0.442626953125,-0.425048828125,-0.3040771484375
4.624,310,1103,1574,311,-4.0,42.0,45.0,-294.00634765625,-59.509273529052734,-40.161128997802734,-0.5892333984375,-0.2034912109375,-0.27978515625
4.625,310,1188,1773,311,-4.0,42.0,45.0,-249.02342224121094,-53.222652435302734,-19.83642578125,-0.5892333984375,-0.2034912109375,-0.27978515625
4.636,311,1300,1968,311,-4.0,42.0,45.0,-116.76024627685547,-42.541500091552734,35.82763671875,-1.5867919921875,0.90771484375,0.0616455078125
4.644,310,1340,2019,311,-4.0,42.0,45.0,-116.76024627685547,-42.541500091552734,35.82763671875,-1.8277587890625,0.55224609375,0.59521484375
4.651,310,1373,2055,311,-4.0,42.0,45.0,-159.72900390625,-74.64599609375,47.912593841552734,-1.8277587890625,0.55224609375,0.59521484375
4.665,310,1417,2070,311,0.0,39.0,46.0,-126.52587127685547,-73.79150390625,30.822751998901367,-1.5704345703125,-0.239990234375,0.803955078125
4.685,310,1434,2054,311,0.0,39.0,46.0,-30.090330123901367,-35.7666015625,18.06640625,-1.5135498046875,-0.0029296875,0.373046875
4.687,310,1445,2018,311,0.0,39.0,46.0,-30.090330123901367,-35.7666015625,18.06640625,-1.4600830078125,0.30322265625,-0.0360107421875
4.699,311,1431,1913,310,0.0,39.0,46.0,55.297847747802734,3.601073980331421,0.4272460639476776,-1.426513671875,0.4969482421875,-0.32666015625
4.717,310,1411,1892,310,0.0,39.0,46.0,53.527828216552734,9.58251953125,-5.249022960662842,-1.2911376953125,0.4462890625,-0.425048828125
4.717,310,1380,1864,312,0.0,39.0,46.0,53.527828216552734,9.58251953125,-5.249022960662842,-1.0928955078125,0.2569580078125,-0.312255859375
4.740,310,1365,1894,310,0.0,39.0,46.0,30.761716842651367,6.958007335662842,-25.451658248901367,-1.045654296875,0.161376953125,-0.13427734375
4.743,310,1348,1899,311,0.0,39.0,46.0,25.756834030151367,7.019042491912842,-30.273435592651367,-1.217041015625,0.2222900390625,-0.0506591796875
4.744,296,1326,1898,311,0.0,39.0,46.0,25.756834030151367,7.019042491912842,-30.273435592651367,-1.4893798828125,0.3360595703125,-0.0885009765625
4.755,311,1268,1860,312,0.0,39.0,43.0,5.065917491912842,21.972654342651367,-21.667478561401367,-1.6162109375,0.334716796875,-0.14453125
4.764,310,1215,1813,311,0.0,39.0,43.0,-8.6669921875,23.864744186401367,-13.549803733825684,-1.541259765625,0.240234375,-0.1396484375
4.772,310,1159,1741,311,0.0,39.0,43.0,-8.6669921875,23.864744186401367,-13.549803733825684,-1.4090576171875,0.2042236328125,-0.093017578125
4.786,310,1034,1608,310,0.0,39.0,43.0,-13.000487327575684,14.282225608825684,5.249022960662842,-1.322021484375,0.2481689453125,-0.044921875
4.796,310,944,1516,312,0.0,39.0,43.0,-9.58251953125,15.380858421325684,11.718749046325684,-1.2657470703125,0.2684326171875,0.0096435546875
4.805,310,865,1417,310,0.0,39.0,43.0,-9.58251953125,15.380858421325684,11.718749046325684,-1.18798828125,0.18408203125,0.103515625
4.819,310,710,1239,312,0.0,39.0,43.0,9.1552734375,28.015134811401367,9.21630859375,-1.10595703125,-0.0430908203125,0.2259521484375
4.840,310,621,1096,310,0.0,39.0,43.0,37.41455078125,36.4990234375,2.868652105331421,-1.0159912109375,-0.2930908203125,0.2811279296875
4.841,309,558,981,310,0.0,39.0,43.0,81.17675018310547,49.011226654052734,-3.112792730331421,-0.908935546875,-0.391845703125,0.2371826171875
4.846,310,473,764,310,0.0,39.0,43.0,131.28662109375,62.377925872802734,-5.310058116912842,-0.765869140625,-0.33447265625,0.14697265625
4.855,310,440,632,309,-1.0,38.0,40.0,177.36814880371094,71.77734375,-3.051757574081421,-0.5909423828125,-0.18115234375,0.0262451171875
4.863,310,423,540,311,-1.0,38.0,40.0,209.10643005371094,74.40185546875,0.6713866591453552,-0.4351806640625,0.06787109375,-0.1290283203125
4.871,309,414,504,309,-1.0,38.0,40.0,209.10643005371094,74.40185546875,0.6713866591453552,-0.3548583984375,0.386474609375,-0.2972412109375
4.885,310,405,452,310,-1.0,38.0,40.0,191.77244567871094,57.067867279052734,13.366698265075684,-0.3426513671875,0.617431640625,-0.40380859375
4.893,308,385,464,308,-1.0,38.0,40.0,141.05224609375,39.24560546875,17.333984375,-0.3787841796875,0.6981201171875,-0.4385986328125
4.901,310,378,452,309,-1.0,38.0,40.0,75.1953125,21.911619186401367,14.770506858825684,-0.497802734375,0.665283203125,-0.403076171875
4.923,310,382,456,308,-1.0,38.0,40.0,12.023924827575684,9.46044921875,6.896972179412842,-0.647705078125,0.48974609375,-0.313232421875
4.937,310,391,467,308,-1.0,38.0,40.0,-24.414060592651367,4.33349609375,-2.990722417831421,-0.7618408203125,0.2269287109375,-0.2498779296875
4.937,308,394,473,310,-1.0,38.0,40.0,-22.155759811401367,6.164550304412842,-11.047362327575684,-0.8270263671875,0.039794921875,-0.2373046875
4.945,310,408,485,309,-1.0,38.0,40.0,2.868652105331421,9.09423828125,-14.831542015075684,-0.8739013671875,0.037841796875,-0.2357177734375
4.953,309,411,497,311,-1.0,38.0,40.0,22.766111373901367,7.324218273162842,-14.404295921325684,-0.91259765625,0.1641845703125,-0.2039794921875
4.961,310,426,509,310,-3.0,40.0,39.0,25.451658248901367,1.8310545682907104,-12.207030296325684,-0.9254150390625,0.270751953125,-0.1495361328125
4.975,310,437,516,309,-3.0,40.0,39.0,19.10400390625,-1.6479490995407104,-10.986327171325684,-0.9150390625,0.288330078125,-0.1151123046875
4.983,310,435,529,309,-3.0,40.0,39.0,14.465331077575684,-0.30517578125,-11.718749046325684,-0.90576171875,0.2315673828125,-0.11767578125
4.991,310,433,531,311,-3.0,40.0,39.0,13.854979515075684,3.173827886581421,-13.244627952575684,-0.90771484375,0.1390380859375,-0.1435546875
5.005,308,439,547,310,-3.0,40.0,39.0,15.686034202575684,5.0048828125,-12.695311546325684,-0.90966796875,0.0528564453125,-0.18212890625
5.025,310,451,552,310,-3.0,40.0,39.0,17.88330078125,4.5166015625,-8.48388671875,-0.8980712890625,0.0166015625,-0.2178955078125
5.025,310,465,561,310,-3.0,40.0,39.0,18.12744140625,2.746581792831421,-1.5869139432907104,-0.880126953125,0.04833984375,-0.2298583984375
5.037,310,493,574,310,-3.0,40.0,39.0,15.075682640075684,-0.30517578125,5.676269054412842,-0.8712158203125,0.1090087890625,-0.211669921875
5.045,310,508,588,310,-3.0,40.0,39.0,9.765625,-4.45556640625,11.474608421325684,-0.8675537109375,0.146728515625,-0.1842041015625
5.051,308,525,608,309,-3.0,40.0,39.0,6.103515148162842,-8.4228515625,15.808104515075684,-0.854248046875,0.160400390625,-0.18115234375
5.065,310,561,695,308,-4.0,40.0,45.0,5.249022960662842,-11.291502952575684,19.22607421875,-0.8228759765625,0.166748046875,-0.2159423828125
5.073,310,594,763,310,-4.0,40.0,45.0,3.417968511581421,-14.221190452575684,21.179197311401367,-0.7454833984375,0.182373046875,-0.2662353515625
5.084,310,654,868,310,-4.0,40.0,45.0,-3.234863042831421,-18.6767578125,19.4091796875,-0.5687255859375,0.260986328125,-0.3326416015625
5.094,310,763,1027,310,-4.0,40.0,45.0,-23.315427780151367,-23.437498092651367,9.27734375,-0.402587890625,0.3980712890625,-0.4586181640625
5.103,310,816,1125,310,-4.0,40.0,45.0,-74.70703125,-26.550291061401367,-9.46044921875,-0.4451904296875,0.4080810546875,-0.5401611328125
5.111,310,873,1192,310,-4.0,40.0,45.0,-153.13720703125,-30.761716842651367,-25.878904342651367,-0.568359375,0.1484375,-0.42236328125
5.155,310,994,1351,311,-4.0,40.0,45.0,-207.21434020996094,-34.1796875,-28.320310592651367,-0.5950927734375,-0.14306640625,-0.2568359375
5.155,310,1089,1557,312,-4.0,40.0,45.0,-195.00730895996094,-29.479978561401367,-17.578125,-0.6646728515625,-0.0780029296875,-0.252197265625
5.156,310,1176,1711,314,-4.0,40.0,45.0,-152.03857421875,-24.047849655151367,-1.5869139432907104,-0.89599609375,0.301513671875,-0.2579345703125
5.156,310,1286,1895,311,0.0,39.0,40.0,-142.88330078125,-32.958984375,14.038084983825684,-1.2420654296875,0.5379638671875,-0.043701171875
5.163,309,1344,1943,311,0.0,39.0,40.0,-175.23191833496094,-54.687496185302734,24.902341842651367,-1.4869384765625,0.349609375,0.294921875
5.171,311,1371,1974,312,0.0,39.0,40.0,-193.29832458496094,-67.7490234375,27.465818405151367,-1.51708984375,-0.0360107421875,0.517578125
5.188,310,1422,1993,311,0.0,39.0,40.0,-147.8271484375,-54.199214935302734,25.146482467651367,-1.510009765625,-0.205322265625,0.50146484375
5.193,310,1434,1973,311,0.0,39.0,40.0,-63.476558685302734,-25.146482467651367,22.033689498901367,-1.5325927734375,-0.0760498046875,0.307373046875
5.201,310,1443,1936,311,0.0,39.0,40.0,1.7700194120407104,-4.21142578125,17.27294921875,-1.4971923828125,0.1866455078125,0.0897216796875
5.224,309,1430,1805,310,0.0,39.0,40.0,32.40966796875,3.662109136581421,11.108397483825684,-1.3104248046875,0.555419921875,-0.28759765625
5.267,310,1404,1748,312,0.0,39.0,40.0,42.480464935302734,6.774901866912842,3.906249761581421,-1.3104248046875,0.555419921875,-0.28759765625
5.267,311,1383,1719,310,0.0,39.0,40.0,40.832515716552734,8.36181640625,-5.737304210662842,-1.147705078125,0.4337158203125,-0.3465576171875
5.267,310,1365,1739,312,0.0,39.0,40.0,37.41455078125,7.812499523162842,-16.66259765625,-1.189208984375,0.2764892578125,-0.20068359375
5.268,310,1345,1735,299,2.0,39.0,37.0,37.4755859375,7.141112804412842,-23.803709030151367,-1.189208984375,0.2764892578125,-0.20068359375
5.268,310,1320,1709,311,2.0,39.0,37.0,31.799314498901367,10.375975608825684,-24.169919967651367,-1.4951171875,0.37939453125,-0.2325439453125
5.340,310,1239,1637,310,2.0,39.0,37.0,15.075682640075684,17.822265625,-19.775390625,-1.6922607421875,0.2679443359375,-0.3206787109375
5.340,310,1175,1582,312,2.0,39.0,37.0,-3.234863042831421,23.437498092651367,-13.305663108825684,-1.6922607421875,0.2679443359375,-0.3206787109375
5.340,311,1092,1514,311,2.0,39.0,37.0,-13.732909202575684,20.996091842651367,-5.065917491912842,-1.523193359375,0.2000732421875,-0.246826171875
5.340,310,944,1386,311,2.0,39.0,37.0,-16.4794921875,12.878417015075684,4.21142578125,-1.1561279296875,0.0972900390625,0.0169677734375
5.341,310,848,1284,310,2.0,39.0,37.0,-12.695311546325684,7.446288585662842,11.657713890075684,-1.1561279296875,0.0972900390625,0.0169677734375
5.341,310,749,1148,311,2.0,39.0,37.0,-0.1831054538488388,9.09423828125,14.404295921325684,-1.027587890625,-0.05712890625,0.1431884765625
5.359,309,617,943,310,2.0,39.0,37.0,24.353025436401367,17.39501953125,12.023924827575684,-0.99609375,-0.457275390625,0.244873046875
5.359,310,558,824,310,2.0,39.0,37.0,64.3310546875,30.395505905151367,7.568358898162842,-0.99609375,-0.457275390625,0.244873046875
5.360,310,504,728,310,-4.0,42.0,39.0,119.56786346435547,44.799800872802734,5.493163585662842,-0.8099365234375,-0.36572265625,0.20166015625
5.365,310,451,566,310,-4.0,42.0,39.0,201.35496520996094,58.959957122802734,5.0048828125,-0.3577880859375,0.2359619140625,-0.142822265625
5.373,310,423,509,308,-4.0,42.0,39.0,201.35496520996094,58.959957122802734,5.0048828125,-0.326171875,0.4703369140625,-0.323486328125
5.380,309,414,473,310,-4.0,42.0,39.0,196.10594177246094,53.039546966552734,5.493163585662842,-0.326171875,0.4703369140625,-0.323486328125
5.395,309,410,447,308,-4.0,42.0,39.0,118.65233612060547,25.512693405151367,12.817381858825684,-0.4403076171875,0.6593017578125,-0.3511962890625
5.403,310,402,441,310,-4.0,42.0,39.0,118.65233612060547,25.512693405151367,12.817381858825684,-0.5693359375,0.5906982421875,-0.294677734375
5.411,310,400,444,308,-4.0,42.0,39.0,67.5048828125,9.09423828125,12.939452171325684,-0.5693359375,0.5906982421875,-0.294677734375
5.432,309,410,465,310,-4.0,42.0,39.0,3.662109136581421,-3.234863042831421,0.3662109076976776,-0.763916015625,0.2615966796875,-0.3480224609375
5.432,310,420,473,309,-4.0,42.0,39.0,3.662109136581421,-3.234863042831421,0.3662109076976776,-0.840087890625,0.118408203125,-0.3800048828125
5.454,308,430,481,310,-4.0,42.0,39.0,1.9531248807907104,-1.15966796875,-9.3994140625,-0.840087890625,0.118408203125,-0.3800048828125
5.455,309,436,496,310,-5.0,39.0,46.0,13.122557640075684,-5.798339366912842,-16.4794921875,-0.963623046875,0.193115234375,-0.236572265625
5.463,308,439,498,310,-5.0,39.0,46.0,13.122557640075684,-5.798339366912842,-16.4794921875,-0.9710693359375,0.2706298828125,-0.144287109375
5.472,309,438,502,310,-5.0,39.0,46.0,7.812499523162842,-11.718749046325684,-14.465331077575684,-0.9710693359375,0.2706298828125,-0.144287109375
5.484,309,444,513,308,-5.0,39.0,46.0,-3.417968511581421,-10.620116233825684,-14.953612327575684,-0.899169921875,0.1951904296875,-0.1007080078125
5.495,309,447,524,307,-5.0,39.0,46.0,-3.417968511581421,-10.620116233825684,-14.953612327575684,-0.8670654296875,0.114501953125,-0.11083984375
5.501,310,451,535,310,-5.0,39.0,46.0,-1.5258787870407104,-5.310058116912842,-16.357421875,-0.8670654296875,0.114501953125,-0.11083984375
5.514,310,473,547,310,-5.0,39.0,46.0,6.896972179412842,-1.4648436307907104,-11.413573265075684,-0.8272705078125,0.047119140625,-0.1419677734375
5.522,310,488,562,310,-5.0,39.0,46.0,9.765625,-4.33349609375,-4.69970703125,-0.84130859375,0.063232421875,-0.1737060546875
5.533,308,504,572,310,-5.0,39.0,46.0,9.765625,-4.33349609375,-4.69970703125,-0.86669921875,0.0908203125,-0.2054443359375
5.621,308,537,606,310,-5.0,39.0,46.0,5.798339366912842,-14.404295921325684,11.657713890075684,-0.8717041015625,0.106201171875,-0.223876953125
5.621,308,553,661,310,-6.0,42.0,37.0,1.4038084745407104,-19.287109375,17.7001953125,-0.8330078125,0.119384765625,-0.231201171875
5.621,311,582,744,312,-6.0,42.0,37.0,1.4038084745407104,-19.287109375,17.7001953125,-0.705322265625,0.17236328125,-0.247314453125
5.621,310,685,922,310,-6.0,42.0,37.0,-3.906249761581421,-24.169919967651367,19.53125,-0.451416015625,0.2978515625,-0.309326171875
5.622,309,766,1039,310,-6.0,42.0,37.0,-26.306150436401367,-24.169919967651367,7.995604991912842,-0.237548828125,0.442626953125,-0.4267578125
5.622,310,834,1160,310,-6.0,42.0,37.0,-26.306150436401367,-24.169919967651367,7.995604991912842,-0.255859375,0.439697265625,-0.489501953125
5.622,310,966,1338,310,-6.0,42.0,37.0,-169.43357849121094,-27.038572311401367,-31.005857467651367,-0.369140625,0.2015380859375,-0.4222412109375
5.622,310,1056,1483,312,-6.0,42.0,37.0,-221.37449645996094,-31.005857467651367,-35.400390625,-0.4666748046875,-0.0272216796875,-0.3326416015625
5.622,309,1170,1662,311,-6.0,42.0,37.0,-221.37449645996094,-31.005857467651367,-35.400390625,-0.684814453125,0.123779296875,-0.244873046875
5.637,310,1311,1951,310,-6.0,42.0,37.0,-183.89891052246094,-38.51318359375,-4.7607421875,-1.06494140625,0.4437255859375,-0.00439453125
5.658,310,1365,2014,311,-6.0,42.0,37.0,-188.35447692871094,-54.565425872802734,16.845703125,-1.400146484375,0.451904296875,0.3443603515625
5.659,311,1397,2048,311,1.0,38.0,42.0,-188.35447692871094,-54.565425872802734,16.845703125,-1.5150146484375,0.1348876953125,0.5875244140625
5.672,310,1437,2083,311,1.0,38.0,42.0,-195.80076599121094,-66.22314453125,34.11865234375,-1.5438232421875,-0.220458984375,0.6002197265625
5.673,297,1457,2089,296,1.0,38.0,42.0,-114.80712127685547,-41.381832122802734,32.04345703125,-1.624755859375,-0.3074951171875,0.385986328125
5.681,310,1470,2062,310,1.0,38.0,42.0,-25.634763717651367,-16.54052734375,25.024412155151367,-1.657470703125,-0.08447265625,0.1124267578125
5.705,310,1488,1994,310,1.0,38.0,42.0,25.268552780151367,-5.432128429412842,16.845703125,-1.591796875,0.255859375,-0.109130859375
5.709,309,1483,1925,311,1.0,38.0,42.0,41.992183685302734,-1.220703125,11.291502952575684,-1.5174560546875,0.5516357421875,-0.3079833984375
5.713,311,1474,1900,310,1.0,38.0,42.0,39.306640625,4.0283203125,6.774901866912842,-1.364990234375,0.5859375,-0.4259033203125
5.725,310,1428,1869,310,1.0,38.0,42.0,27.526853561401367,8.1787109375,-2.807616949081421,-1.1298828125,0.3583984375,-0.35888671875
5.767,310,1406,1881,311,1.0,38.0,42.0,20.629880905151367,8.48388671875,-15.747069358825684,-1.0189208984375,0.1763916015625,-0.1837158203125
5.768,308,1393,1899,312,1.0,38.0,42.0,21.911619186401367,9.033203125,-25.512693405151367,-1.0750732421875,0.1636962890625,-0.0426025390625
5.768,310,1361,1906,312,2.0,38.0,36.0,24.414060592651367,15.563963890075684,-30.151365280151367,-1.2957763671875,0.2899169921875,-0.021728515625
5.769,310,1295,1882,311,2.0,38.0,36.0,20.507810592651367,26.306150436401367,-27.587888717651367,-1.5765380859375,0.427490234375,-0.11474609375
5.771,311,1275,1847,310,2.0,38.0,36.0,6.408690929412842,33.8134765625,-19.95849609375,-1.669677734375,0.4024658203125,-0.1982421875
5.784,310,1178,1733,311,2.0,38.0,36.0,-9.09423828125,33.14208984375,-11.474608421325684,-1.5587158203125,0.28759765625,-0.20166015625
5.792,310,1096,1641,310,2.0,38.0,36.0,-14.648436546325684,26.672361373901367,-2.197265625,-1.406494140625,0.241943359375,-0.1446533203125
5.802,310,1024,1537,310,2.0,38.0,36.0,-10.498045921325684,21.057126998901367,6.713866710662842,-1.3017578125,0.238525390625,-0.0457763671875
5.814,310,877,1357,310,2.0,38.0,36.0,-1.4038084745407104,20.324705123901367,12.329100608825684,-1.244140625,0.1376953125,0.1090087890625
5.822,310,775,1228,311,2.0,38.0,36.0,18.06640625,25.146482467651367,13.610838890075684,-1.17578125,-0.0775146484375,0.248779296875
5.832,310,685,1074,311,2.0,38.0,36.0,54.565425872802734,35.82763671875,10.986327171325684,-1.0806884765625,-0.3104248046875,0.260498046875
5.844,310,543,854,310,2.0,38.0,36.0,103.57665252685547,50.415035247802734,6.225585460662842,-0.93359375,-0.4176025390625,0.157958984375
5.860,310,485,723,310,-3.0,40.0,37.0,154.84619140625,64.0869140625,2.25830078125,-0.6905517578125,-0.2996826171875,0.032958984375
5.873,310,449,631,310,-3.0,40.0,37.0,193.48143005371094,70.6787109375,-0.54931640625,-0.493896484375,-0.0830078125,-0.044189453125
5.874,310,386,447,308,-3.0,40.0,37.0,209.04539489746094,66.71142578125,-3.173827886581421,-0.4412841796875,0.0906982421875,-0.1043701171875
5.882,310,393,433,310,-3.0,40.0,37.0,204.16258239746094,56.091304779052734,-3.967284917831421,-0.45751953125,0.2603759765625,-0.2161865234375
5.891,309,373,424,309,-3.0,40.0,37.0,183.59373474121094,45.471187591552734,0.1831054538488388,-0.4620361328125,0.4482421875,-0.3447265625
5.904,310,372,407,310,-3.0,40.0,37.0,146.1181640625,35.5224609375,7.568358898162842,-0.4473876953125,0.5675048828125,-0.4053955078125
5.913,310,361,407,308,-3.0,40.0,37.0,93.26171112060547,24.169919967651367,12.390135765075684,-0.479736328125,0.5875244140625,-0.38330078125
5.924,309,357,410,310,-3.0,40.0,37.0,38.63525390625,13.488768577575684,12.145995140075684,-0.5970458984375,0.5330810546875,-0.3541259765625
5.935,309,363,411,310,-3.0,40.0,37.0,0.4272460639476776,7.202147960662842,7.568358898162842,-0.740966796875,0.4130859375,-0.38720703125
5.943,308,363,415,309,-3.0,40.0,37.0,-12.878417015075684,5.676269054412842,-0.2441406100988388,-0.826904296875,0.249267578125,-0.436279296875
5.966,308,364,420,309,-5.0,43.0,38.0,-6.835937023162842,5.920409679412842,-8.97216796875,-0.8389892578125,0.1212158203125,-0.399169921875
5.975,296,373,433,309,-5.0,43.0,38.0,6.347655773162842,3.601073980331421,-14.709471702575684,-0.834716796875,0.1121826171875,-0.2802734375
5.976,310,379,437,310,-5.0,43.0,38.0,15.136717796325684,-2.929687261581421,-16.357421875,-0.867919921875,0.19140625,-0.171630859375
5.982,309,379,437,310,-5.0,43.0,38.0,16.7236328125,-9.94873046875,-16.357421875,-0.9322509765625,0.2431640625,-0.1015625
5.995,309,381,438,309,-5.0,43.0,38.0,18.6767578125,-13.061522483825684,-16.357421875,-0.975341796875,0.1329345703125,-0.0751953125
6.006,308,379,439,310,-5.0,43.0,38.0,28.259275436401367,-11.657713890075684,-15.808104515075684,-0.975341796875,0.1329345703125,-0.0751953125
6.012,309,382,442,307,-5.0,43.0,38.0,42.358394622802734,-7.873534679412842,-14.099120140075684,-0.9324951171875,0.076171875,-0.1287841796875
6.027,309,391,449,310,-5.0,43.0,38.0,49.682613372802734,-4.57763671875,-11.108397483825684,-0.8209228515625,0.0594482421875,-0.2216796875
6.035,310,394,464,310,-5.0,43.0,38.0,44.982906341552734,-3.845214605331421,-7.202147960662842,-0.7830810546875,0.0841064453125,-0.2587890625
6.046,310,410,473,310,-5.0,43.0,38.0,32.40966796875,-6.774901866912842,-3.295898199081421,-0.7830810546875,0.0841064453125,-0.2587890625
6.059,310,436,496,310,-6.0,41.0,37.0,-0.8544921278953552,-20.996091842651367,2.13623046875,-0.7596435546875,0.110595703125,-0.3262939453125
6.066,308,451,509,310,-6.0,41.0,37.0,-0.8544921278953552,-20.996091842651367,2.13623046875,-0.7559814453125,0.130615234375,-0.3052978515625
6.074,310,485,536,310,-6.0,41.0,37.0,-17.578125,-27.954099655151367,6.469726085662842,-0.7559814453125,0.130615234375,-0.3052978515625
6.087,310,540,576,310,-6.0,41.0,37.0,-31.433103561401367,-40.161128997802734,15.441893577575684,-0.6646728515625,0.31591796875,-0.280517578125
6.094,310,582,632,310,-6.0,41.0,37.0,-31.433103561401367,-40.161128997802734,15.441893577575684,-0.580322265625,0.3946533203125,-0.3328857421875
6.102,310,639,723,312,-6.0,41.0,37.0,-47.668453216552734,-44.921871185302734,13.305663108825684,-0.580322265625,0.3946533203125,-0.3328857421875
6.115,310,785,931,310,-6.0,41.0,37.0,-156.982421875,-50.659175872802734,-6.774901866912842,-0.4151611328125,0.4541015625,-0.4482421875
6.124,310,871,1078,307,-6.0,41.0,37.0,-156.982421875,-50.659175872802734,-6.774901866912842,-0.3486328125,0.237060546875,-0.5025634765625
6.133,310,966,1183,312,-6.0,41.0,37.0,-236.32810974121094,-54.260250091552734,-18.798828125,-0.3486328125,0.237060546875,-0.5025634765625
6.171,310,1160,1519,310,2.0,40.0,38.0,-312.255859375,-57.189937591552734,-14.953612327575684,-0.468505859375,-0.428955078125,-0.27734375
6.172,310,1254,1752,311,2.0,40.0,38.0,-312.255859375,-57.189937591552734,-14.953612327575684,-0.850830078125,-0.1551513671875,-0.0164794921875
6.172,310,1336,1922,310,2.0,40.0,38.0,-246.94822692871094,-47.180171966552734,8.48388671875,-0.850830078125,-0.1551513671875,-0.0164794921875
6.177,310,1437,2024,310,2.0,40.0,38.0,-153.564453125,-55.419918060302734,53.039546966552734,-1.7489013671875,-0.0469970703125,0.59375
6.192,310,1476,2057,311,2.0,40.0,38.0,-153.564453125,-55.419918060302734,53.039546966552734,-1.661376953125,-0.2703857421875,0.6939697265625
6.192,310,1508,2070,312,2.0,40.0,38.0,-142.27294921875,-66.5283203125,51.269527435302734,-1.544677734375,-0.1519775390625,0.46142578125
6.207,310,1561,2082,312,2.0,40.0,38.0,-0.6713866591453552,-34.48486328125,41.625972747802734,-1.522216796875,0.2559814453125,0.0931396484375
6.214,311,1577,2069,311,2.0,40.0,38.0,46.752925872802734,-22.277830123901367,40.527339935302734,-1.56884765625,0.689453125,-0.2044677734375
6.222,310,1578,2055,311,2.0,40.0,38.0,46.752925872802734,-22.277830123901367,40.527339935302734,-1.6341552734375,0.8780517578125,-0.3131103515625
6.236,310,1568,2005,312,2.0,40.0,38.0,38.26904296875,-18.6767578125,32.5927734375,-1.5130615234375,0.669921875,-0.2093505859375
6.251,311,1553,1978,311,2.0,40.0,38.0,17.08984375,-19.53125,17.88330078125,-1.1766357421875,0.3177490234375,0.0291748046875
6.252,294,1528,1951,297,0.0,41.0,39.0,17.08984375,-19.53125,17.88330078125,-0.9429931640625,0.244873046875,0.217041015625
6.272,309,1516,1959,310,0.0,41.0,39.0,26.611326217651367,-4.8828125,-17.4560546875,-0.9647216796875,0.4044189453125,0.2135009765625
6.274,311,1504,1961,311,0.0,41.0,39.0,31.799314498901367,14.587401390075684,-31.494138717651367,-1.2281494140625,0.5721435546875,0.029541015625
6.282,311,1478,1952,311,0.0,41.0,39.0,31.799314498901367,14.587401390075684,-31.494138717651367,-1.58251953125,0.6148681640625,-0.2059326171875
6.296,310,1400,1913,311,0.0,41.0,39.0,-2.44140625,38.02490234375,-38.9404296875,-1.7364501953125,0.4581298828125,-0.305419921875
6.304,310,1345,1869,312,0.0,41.0,39.0,-18.61572265625,31.127927780151367,-32.89794921875,-1.6351318359375,0.241943359375,-0.21875
6.315,310,1282,1792,311,0.0,41.0,39.0,-18.61572265625,31.127927780151367,-32.89794921875,-1.440185546875,0.145751953125,-0.0718994140625
6.326,310,1129,1585,310,0.0,41.0,39.0,-5.493163585662842,16.66259765625,-14.587401390075684,-1.31005859375,0.1793212890625,0.00537109375
6.334,311,1029,1481,311,0.0,41.0,39.0,4.45556640625,19.34814453125,-3.112792730331421,-1.2528076171875,0.220947265625,0.0360107421875
6.342,310,927,1383,312,0.0,41.0,39.0,4.45556640625,19.34814453125,-3.112792730331421,-1.1865234375,0.1500244140625,0.0965576171875
6.356,310,741,1185,311,0.0,41.0,43.0,23.437498092651367,30.944822311401367,11.474608421325684,-1.0706787109375,-0.0548095703125,0.18798828125
6.374,310,639,1054,310,0.0,41.0,43.0,46.325679779052734,36.0107421875,8.11767578125,-0.924560546875,-0.2991943359375,0.245849609375
6.375,311,547,944,311,0.0,41.0,43.0,82.51952362060547,43.518062591552734,-1.5869139432907104,-0.8037109375,-0.4228515625,0.212646484375
6.386,308,437,725,310,0.0,41.0,43.0,125.24413299560547,53.527828216552734,-12.634276390075684,-0.7880859375,-0.4598388671875,0.167724609375
6.394,310,411,607,310,0.0,41.0,43.0,170.53221130371094,63.232418060302734,-17.822265625,-0.7667236328125,-0.429931640625,0.1165771484375
6.402,309,391,519,310,0.0,41.0,43.0,222.71726989746094,73.73046875,-11.291502952575684,-0.6058349609375,-0.1922607421875,-0.04052734375
6.417,309,384,430,310,0.0,41.0,43.0,270.751953125,83.06884002685547,6.713866710662842,-0.361083984375,0.251708984375,-0.302978515625
6.424,310,377,423,309,0.0,41.0,43.0,280.517578125,81.29882049560547,27.099607467651367,-0.1544189453125,0.739501953125,-0.54541015625
6.432,309,369,420,310,0.0,41.0,43.0,228.08836364746094,60.424800872802734,36.80419921875,-0.15966796875,1.0164794921875,-0.6396484375
6.446,309,367,423,309,-4.0,43.0,39.0,127.92967987060547,28.137205123901367,30.639646530151367,-0.3909912109375,0.91064453125,-0.604736328125
6.455,310,368,428,310,-4.0,43.0,39.0,25.268552780151367,3.784179449081421,14.587401390075684,-0.677490234375,0.495361328125,-0.494140625
6.486,308,371,437,310,-4.0,43.0,39.0,-32.89794921875,-2.25830078125,0.0610351525247097,-0.843017578125,0.0755615234375,-0.34423828125
6.486,310,372,452,309,-4.0,43.0,39.0,-34.11865234375,2.746581792831421,-5.615233898162842,-0.852783203125,-0.07666015625,-0.2000732421875
6.491,309,368,456,310,-4.0,43.0,39.0,-8.11767578125,4.57763671875,-4.638671875,-0.8197021484375,0.053466796875,-0.104248046875
6.492,310,378,464,310,-4.0,43.0,39.0,8.85009765625,-2.25830078125,-3.417968511581421,-0.8282470703125,0.2442626953125,-0.067626953125
6.512,310,387,475,308,-4.0,43.0,39.0,8.4228515625,-10.192870140075684,-4.57763671875,-0.8592529296875,0.3271484375,-0.06787109375
6.514,310,391,481,310,-4.0,43.0,39.0,3.784179449081421,-12.023924827575684,-6.958007335662842,-0.8763427734375,0.29931640625,-0.0933837890625
6.522,308,405,496,310,-4.0,43.0,39.0,4.39453125,-9.6435546875,-9.6435546875,-0.8690185546875,0.2081298828125,-0.1361083984375
6.536,310,426,522,309,-4.0,43.0,39.0,8.36181640625,-7.812499523162842,-11.596678733825684,-0.8487548828125,0.114990234375,-0.172119140625
6.544,310,434,535,311,-6.0,41.0,38.0,11.169432640075684,-8.72802734375,-11.047362327575684,-0.8370361328125,0.076904296875,-0.1900634765625
6.557,310,438,552,310,-6.0,41.0,38.0,11.535643577575684,-11.291502952575684,-7.263183116912842,-0.8402099609375,0.1031494140625,-0.1976318359375
6.582,310,473,589,309,-6.0,41.0,38.0,10.070799827575684,-14.160155296325684,-1.8310545682907104,-0.8416748046875,0.14892578125,-0.1944580078125
6.582,309,488,644,310,-6.0,41.0,38.0,7.507323741912842,-18.1884765625,2.807616949081421,-0.804443359375,0.1812744140625,-0.191162109375
6.582,310,512,711,309,-6.0,41.0,38.0,2.44140625,-24.780271530151367,4.0283203125,-0.7098388671875,0.2156982421875,-0.239501953125
6.599,310,572,848,309,-6.0,41.0,38.0,-14.343260765075684,-31.799314498901367,-0.4272460639476776,-0.578857421875,0.2919921875,-0.364990234375
6.604,310,639,966,311,-6.0,41.0,38.0,-57.617183685302734,-36.19384765625,-10.803221702575684,-0.5008544921875,0.37646484375,-0.492431640625
6.614,309,715,1069,309,-6.0,41.0,38.0,-128.90625,-39.794921875,-22.827146530151367,-0.5284423828125,0.378662109375,-0.5025634765625
6.626,310,864,1236,311,-6.0,41.0,38.0,-202.75877380371094,-44.799800872802734,-29.113767623901367,-0.5867919921875,0.2796630859375,-0.4298095703125
6.634,310,943,1377,312,-6.0,41.0,38.0,-246.70408630371094,-47.302242279052734,-27.343748092651367,-0.59521484375,0.09326171875,-0.3902587890625
6.642,309,1043,1551,310,2.0,39.0,39.0,-247.61961364746094,-43.701168060302734,-19.95849609375,-0.5736083984375,-0.0518798828125,-0.38037109375
6.661,310,1209,1884,310,2.0,39.0,39.0,-212.64646911621094,-37.2314453125,-7.568358898162842,-0.69482421875,0.113525390625,-0.294677734375
6.664,310,1281,1975,311,2.0,39.0,39.0,-176.33055114746094,-39.00146484375,10.681151390075684,-1.0927734375,0.423828125,-0.056884765625
6.681,310,1336,2043,312,2.0,39.0,39.0,-182.92234802246094,-56.457515716552734,28.015134811401367,-1.428955078125,0.3603515625,0.283203125
6.689,297,1401,2131,297,2.0,39.0,39.0,-212.76853942871094,-74.8291015625,33.935546875,-1.3282470703125,-0.317626953125,0.61962890625
6.696,311,1416,2161,310,2.0,39.0,39.0,-193.35935974121094,-70.80078125,31.005857467651367,-1.3282470703125,-0.317626953125,0.61962890625
6.703,310,1445,2190,312,2.0,39.0,39.0,-112.73192596435547,-45.776363372802734,27.526853561401367,-1.41748046875,-0.255859375,0.4071044921875
6.722,310,1471,2213,310,2.0,39.0,39.0,-31.249998092651367,-22.766111373901367,23.986814498901367,-1.4921875,0.260498046875,0.0169677734375
6.731,310,1478,2215,311,2.0,39.0,39.0,12.390135765075684,-13.854979515075684,19.95849609375,-1.4921875,0.260498046875,0.0169677734375
6.738,310,1485,2160,309,2.0,39.0,39.0,27.099607467651367,-10.742186546325684,17.333984375,-1.48095703125,0.5177001953125,-0.123779296875
6.745,311,1450,2171,310,-1.0,39.0,40.0,24.536130905151367,-5.554198741912842,15.258788108825684,-1.231689453125,0.4349365234375,-0.12841796875
6.754,310,1416,2135,311,-1.0,39.0,40.0,12.695311546325684,-0.4882812201976776,8.72802734375,-1.231689453125,0.4349365234375,-0.12841796875
6.762,310,1387,2098,312,-1.0,39.0,40.0,10.070799827575684,2.25830078125,-3.295898199081421,-1.0220947265625,0.2645263671875,0.0185546875
6.792,310,1352,2087,312,-1.0,39.0,40.0,20.812986373901367,5.371093273162842,-15.380858421325684,-1.0716552734375,0.3704833984375,0.1666259765625
6.792,310,1334,2076,310,-1.0,39.0,40.0,31.433103561401367,13.793944358825684,-25.207517623901367,-1.0716552734375,0.3704833984375,0.1666259765625
6.793,310,1295,2053,311,-1.0,39.0,40.0,32.958984375,27.893064498901367,-31.677244186401367,-1.3682861328125,0.4998779296875,0.05078125
6.805,310,1198,1975,311,-1.0,39.0,40.0,5.798339366912842,45.227046966552734,-30.761716842651367,-1.700439453125,0.40576171875,-0.230712890625
6.814,310,1137,1910,310,-1.0,39.0,40.0,5.798339366912842,45.227046966552734,-30.761716842651367,-1.5838623046875,0.29833984375,-0.1864013671875
6.832,310,1056,1828,312,-1.0,39.0,40.0,0.2441406100988388,39.97802734375,-24.963376998901367,-1.5838623046875,0.29833984375,-0.1864013671875
6.836,310,884,1625,311,-1.0,39.0,40.0,19.47021484375,27.465818405151367,-7.019042491912842,-1.2542724609375,0.162109375,0.04248046875
6.844,310,799,1499,310,1.0,40.0,39.0,19.47021484375,27.465818405151367,-7.019042491912842,-1.1209716796875,-0.004638671875,0.136962890625
6.852,310,703,1363,310,1.0,40.0,39.0,31.616209030151367,29.907224655151367,-0.8544921278953552,-1.1209716796875,-0.004638671875,0.136962890625
6.865,310,562,1133,310,1.0,40.0,39.0,81.84813690185547,39.61181640625,4.0283203125,-0.9774169921875,-0.579345703125,0.2589111328125
6.894,310,505,960,310,1.0,40.0,39.0,81.84813690185547,39.61181640625,4.0283203125,-0.8828125,-0.597900390625,0.1253662109375
6.895,310,433,810,310,1.0,40.0,39.0,137.6953125,49.804683685302734,5.615233898162842,-0.8828125,-0.597900390625,0.1253662109375
6.896,310,380,594,310,1.0,40.0,39.0,245.42234802246094,65.85693359375,7.873534679412842,-0.609130859375,-0.2001953125,-0.0924072265625
6.904,310,393,500,310,1.0,40.0,39.0,245.42234802246094,65.85693359375,7.873534679412842,-0.41943359375,0.21240234375,-0.2646484375
6.912,310,396,439,310,1.0,40.0,39.0,276.123046875,68.17626953125,15.563963890075684,-0.41943359375,0.21240234375,-0.2646484375
6.927,310,379,415,310,1.0,40.0,39.0,216.97996520996094,51.391597747802734,32.3486328125,-0.2310791015625,0.8760986328125,-0.4925537109375
6.941,310,372,418,308,1.0,40.0,39.0,216.97996520996094,51.391597747802734,32.3486328125,-0.3760986328125,0.8983154296875,-0.4659423828125
6.943,310,374,419,308,-4.0,40.0,36.0,130.92041015625,30.639646530151367,30.273435592651367,-0.3760986328125,0.8983154296875,-0.4659423828125
6.956,308,367,415,310,-4.0,40.0,36.0,-13.427733421325684,2.50244140625,6.591796398162842,-0.7947998046875,0.3492431640625,-0.383056640625
6.967,310,365,421,308,-4.0,40.0,36.0,-27.282712936401367,3.234863042831421,-4.82177734375,-0.8280029296875,0.072021484375,-0.36181640625
6.992,310,371,431,310,-4.0,40.0,36.0,-27.282712936401367,3.234863042831421,-4.82177734375,-0.80078125,-0.0166015625,-0.3114013671875
6.993,309,378,435,308,-4.0,40.0,36.0,9.1552734375,5.981444835662842,-10.192870140075684,-0.807861328125,0.07177734375,-0.2271728515625
6.997,308,377,439,309,-4.0,40.0,36.0,15.380858421325684,-1.5258787870407104,-7.080077648162842,-0.8548583984375,0.2041015625,-0.1334228515625
7.002,308,385,441,311,-4.0,40.0,36.0,15.380858421325684,-1.5258787870407104,-7.080077648162842,-0.8958740234375,0.275634765625,-0.0723876953125
7.015,308,399,449,309,-4.0,40.0,36.0,8.056640625,-10.681151390075684,-5.0048828125,-0.9068603515625,0.266357421875,-0.073974609375
7.024,309,408,452,309,-4.0,40.0,36.0,7.812499523162842,-8.72802734375,-7.385253429412842,-0.902587890625,0.204345703125,-0.120849609375
7.040,309,419,453,308,-4.0,40.0,36.0,7.812499523162842,-8.72802734375,-7.385253429412842,-0.9013671875,0.1336669921875,-0.1722412109375
7.050,310,434,475,310,-5.0,40.0,42.0,8.85009765625,-7.751464366912842,-9.46044921875,-0.910888671875,0.1026611328125,-0.215087890625
7.054,310,437,481,310,-5.0,40.0,42.0,9.3994140625,-10.192870140075684,-5.981444835662842,-0.922607421875,0.12744140625,-0.2545166015625
7.070,310,451,496,310,-5.0,40.0,42.0,9.3994140625,-10.192870140075684,-5.981444835662842,-0.9228515625,0.166259765625,-0.28125
7.076,310,477,529,310,-5.0,40.0,42.0,2.44140625,-15.380858421325684,2.0751953125,-0.8978271484375,0.17138671875,-0.281494140625
7.084,309,486,552,310,-5.0,40.0,42.0,-3.173827886581421,-18.5546875,4.2724609375,-0.85693359375,0.15283203125,-0.25634765625
7.102,310,504,584,309,-5.0,40.0,42.0,-3.173827886581421,-18.5546875,4.2724609375,-0.8128662109375,0.148193359375,-0.226806640625
7.106,310,551,698,310,-5.0,40.0,42.0,-4.57763671875,-26.123044967651367,9.033203125,-0.730224609375,0.1717529296875,-0.2120361328125
7.114,310,594,803,310,-5.0,40.0,42.0,-7.080077648162842,-29.357908248901367,8.9111328125,-0.5430908203125,0.2291259765625,-0.23681640625
7.123,310,644,959,310,-5.0,40.0,42.0,-24.902341842651367,-32.40966796875,0.6713866591453552,-0.2764892578125,0.3243408203125,-0.3651123046875
7.136,308,785,1231,309,-5.0,40.0,42.0,-78.61328125,-35.82763671875,-17.9443359375,-0.19921875,0.3253173828125,-0.548583984375
7.147,310,884,1366,308,0.0,42.0,40.0,-169.37254333496094,-42.419429779052734,-35.888671875,-0.3450927734375,0.1474609375,-0.54248046875
7.152,311,986,1538,310,0.0,42.0,40.0,-241.21092224121094,-49.865718841552734,-37.04833984375,-0.4619140625,-0.019287109375,-0.3475341796875
7.172,310,1153,1831,310,0.0,42.0,40.0,-238.40330505371094,-49.926753997802734,-23.132322311401367,-0.6646728515625,0.1063232421875,-0.196533203125
7.176,311,1253,1929,311,0.0,42.0,40.0,-192.87107849121094,-47.790523529052734,-5.798339366912842,-1.0787353515625,0.4454345703125,-0.0252685546875
7.189,310,1323,2057,311,0.0,42.0,40.0,-177.06297302246094,-57.800289154052734,8.544921875,-1.45263671875,0.4849853515625,0.3040771484375
7.202,310,1413,2122,310,0.0,42.0,40.0,-194.39695739746094,-75.13427734375,15.258788108825684,-1.5225830078125,0.1470947265625,0.6273193359375
7.204,310,1445,2159,311,0.0,42.0,40.0,-180.11473083496094,-78.2470703125,15.747069358825684,-1.3800048828125,-0.1192626953125,0.7027587890625
7.212,310,1468,2180,312,0.0,42.0,40.0,-107.11669158935547,-59.448238372802734,15.258788108825684,-1.3277587890625,-0.115478515625,0.49267578125
7.226,310,1498,2184,311,0.0,42.0,40.0,-23.498533248901367,-34.11865234375,12.817381858825684,-1.435546875,0.072998046875,0.1639404296875
7.238,310,1508,2175,311,0.0,42.0,40.0,23.559568405151367,-18.24951171875,7.873534679412842,-1.56591796875,0.304443359375,-0.0916748046875
7.243,310,1500,2129,310,3.0,38.0,40.0,35.888671875,-12.573241233825684,3.723144292831421,-1.630615234375,0.4306640625,-0.2232666015625
7.256,309,1483,2068,310,3.0,38.0,40.0,33.50830078125,-10.986327171325684,0.1220703050494194,-1.544189453125,0.3892822265625,-0.2515869140625
7.264,308,1462,2045,311,3.0,38.0,40.0,27.587888717651367,-10.498045921325684,-7.141112804412842,-1.25830078125,0.2142333984375,-0.15869140625
7.300,310,1437,2020,311,3.0,38.0,40.0,27.648923873901367,-9.1552734375,-17.7001953125,-1.0029296875,0.1048583984375,-0.0206298828125
7.300,310,1416,2034,312,3.0,38.0,40.0,35.400390625,-4.21142578125,-25.573728561401367,-0.9599609375,0.16748046875,0.0399169921875
7.300,310,1400,2045,312,3.0,38.0,40.0,39.9169921875,6.164550304412842,-28.930662155151367,-1.1080322265625,0.2886962890625,-0.001708984375
7.305,310,1380,2043,310,3.0,38.0,40.0,33.63037109375,19.34814453125,-29.113767623901367,-1.3829345703125,0.36767578125,-0.1160888671875
7.316,310,1323,2005,311,3.0,38.0,40.0,18.06640625,29.052732467651367,-26.184080123901367,-1.5848388671875,0.3323974609375,-0.212646484375
7.324,310,1279,1968,310,3.0,38.0,40.0,2.746581792831421,30.517576217651367,-21.850584030151367,-1.596923828125,0.219970703125,-0.219482421875
7.333,310,1226,1913,311,3.0,38.0,40.0,-5.065917491912842,24.108884811401367,-15.869139671325684,-1.5015869140625,0.1795654296875,-0.1495361328125
7.346,312,1105,1789,312,1.0,37.0,38.0,-7.568358898162842,15.930174827575684,-7.324218273162842,-1.40185546875,0.2322998046875,-0.053955078125
7.360,308,1009,1683,310,1.0,37.0,38.0,-8.1787109375,12.695311546325684,0.54931640625,-1.3240966796875,0.264404296875,0.0234375
7.363,298,912,1569,311,1.0,37.0,38.0,-6.225585460662842,16.357421875,4.5166015625,-1.2337646484375,0.2080078125,0.087158203125
7.377,310,749,1348,311,1.0,37.0,38.0,2.01416015625,23.132322311401367,4.0283203125,-1.11865234375,0.01953125,0.16845703125
7.400,310,657,1236,310,1.0,37.0,38.0,22.338865280151367,29.724119186401367,0.1220703050494194,-1.023193359375,-0.283203125,0.244384765625
7.401,308,585,1097,310,1.0,37.0,38.0,61.523433685302734,38.26904296875,-3.784179449081421,-0.9271240234375,-0.4656982421875,0.21826171875
7.406,310,484,846,310,1.0,37.0,38.0,114.68505096435547,50.048824310302734,-4.7607421875,-0.7828369140625,-0.411865234375,0.104736328125
7.414,310,439,725,311,1.0,37.0,38.0,162.96385192871094,58.959957122802734,-3.906249761581421,-0.6328125,-0.2554931640625,0.003662109375
7.423,310,420,622,309,1.0,37.0,38.0,193.48143005371094,59.936519622802734,-2.3193359375,-0.5194091796875,-0.02978515625,-0.085205078125
7.437,308,408,473,308,-4.0,39.0,39.0,201.53807067871094,53.222652435302734,2.13623046875,-0.379638671875,0.524658203125,-0.2607421875
7.444,310,411,440,310,-4.0,39.0,39.0,184.93650817871094,41.259761810302734,9.70458984375,-0.379638671875,0.524658203125,-0.2607421875
7.452,310,408,431,309,-4.0,39.0,39.0,146.05712890625,27.221677780151367,16.7236328125,-0.3712158203125,0.6370849609375,-0.2730712890625
7.467,308,402,433,310,-4.0,39.0,39.0,96.25243377685547,14.770506858825684,20.01953125,-0.58935546875,0.55908203125,-0.280517578125
7.479,310,409,438,309,-4.0,39.0,39.0,49.865718841552734,6.347655773162842,17.76123046875,-0.58935546875,0.55908203125,-0.280517578125
7.489,310,426,451,312,-4.0,39.0,39.0,17.27294921875,2.0751953125,9.09423828125,-0.712158203125,0.341552734375,-0.2950439453125
7.500,310,439,465,309,-4.0,39.0,39.0,5.0048828125,1.7700194120407104,-2.807616949081421,-0.8668212890625,0.029296875,-0.2471923828125
7.504,310,455,467,309,-4.0,39.0,39.0,10.986327171325684,2.3193359375,-11.840819358825684,-0.8668212890625,0.029296875,-0.2471923828125
7.522,309,465,479,310,-4.0,39.0,39.0,21.789548873901367,-0.3662109076976776,-15.014647483825684,-0.915771484375,0.116455078125,-0.1934814453125
7.578,310,473,493,310,-4.0,39.0,39.0,25.268552780151367,-5.737304210662842,-14.343260765075684,-0.947265625,0.285888671875,-0.1378173828125
7.578,310,477,504,309,-4.0,39.0,39.0,20.507810592651367,-9.58251953125,-12.878417015075684,-0.947265625,0.285888671875,-0.1378173828125
7.578,309,488,519,308,-3.0,39.0,42.0,14.038084983825684,-10.131834983825684,-12.634276390075684,-0.9354248046875,0.2366943359375,-0.1302490234375
7.578,310,495,548,310,-3.0,39.0,42.0,11.230467796325684,-9.1552734375,-13.427733421325684,-0.8778076171875,0.01806640625,-0.1240234375
7.578,310,508,566,309,-3.0,39.0,42.0,12.634276390075684,-8.6669921875,-12.695311546325684,-0.8536376953125,-0.018310546875,-0.1307373046875
7.579,309,519,580,310,-3.0,39.0,42.0,14.282225608825684,-9.46044921875,-8.1787109375,-0.8536376953125,-0.018310546875,-0.1307373046875
7.586,310,545,628,310,-3.0,39.0,42.0,8.60595703125,-14.099120140075684,8.056640625,-0.8526611328125,0.065185546875,-0.1119384765625
7.619,309,568,698,310,-3.0,39.0,42.0,8.60595703125,-14.099120140075684,8.056640625,-0.8248291015625,0.0955810546875,-0.09375
7.620,309,594,790,310,-3.0,39.0,42.0,4.39453125,-17.02880859375,15.197752952575684,-0.8248291015625,0.0955810546875,-0.09375
7.620,310,688,966,311,-3.0,39.0,42.0,-2.50244140625,-20.812986373901367,19.22607421875,-0.4931640625,0.235595703125,-0.30517578125
7.624,309,778,1120,310,-3.0,39.0,42.0,-2.50244140625,-20.812986373901367,19.22607421875,-0.349853515625,0.3065185546875,-0.4947509765625
7.632,309,840,1258,310,-3.0,39.0,42.0,-33.69140625,-21.179197311401367,8.97216796875,-0.349853515625,0.3065185546875,-0.4947509765625
7.649,310,964,1445,310,0.0,39.0,42.0,-177.91746520996094,-26.550291061401367,-18.24951171875,-0.51416015625,0.001953125,-0.46728515625
7.655,312,1048,1592,310,0.0,39.0,42.0,-177.91746520996094,-26.550291061401367,-18.24951171875,-0.5850830078125,0.0262451171875,-0.39697265625
7.662,310,1143,1789,310,0.0,39.0,42.0,-201.23289489746094,-26.184080123901367,-15.747069358825684,-0.5850830078125,0.0262451171875,-0.39697265625
7.699,308,1292,2057,310,0.0,39.0,42.0,-171.32566833496094,-33.8134765625,2.868652105331421,-1.2325439453125,0.83349609375,-0.1173095703125
7.713,308,1349,2148,311,0.0,39.0,42.0,-171.32566833496094,-33.8134765625,2.868652105331421,-1.4822998046875,0.650634765625,0.2767333984375
7.713,310,1383,2205,310,0.0,39.0,42.0,-223.87693786621094,-56.579586029052734,8.6669921875,-1.4822998046875,0.650634765625,0.2767333984375
7.714,310,1416,2261,310,0.0,39.0,42.0,-258.7890625,-64.0869140625,11.901854515075684,-1.462890625,-0.2235107421875,0.5318603515625
7.714,311,1422,2273,311,0.0,39.0,42.0,-168.15184020996094,-39.4287109375,15.686034202575684,-1.5701904296875,-0.34326171875,0.34033203125
7.724,310,1430,2281,312,0.0,39.0,42.0,-168.15184020996094,-39.4287109375,15.686034202575684,-1.6357421875,-0.2816162109375,0.1893310546875
7.737,309,1443,2255,310,4.0,40.0,39.0,-24.597166061401367,-18.24951171875,17.02880859375,-1.5382080078125,-0.11572265625,0.1380615234375
7.750,310,1437,2226,311,4.0,40.0,39.0,3.601073980331421,-17.4560546875,17.63916015625,-1.3424072265625,0.0843505859375,0.0738525390625
7.753,312,1429,2194,312,4.0,40.0,39.0,3.601073980331421,-17.4560546875,17.63916015625,-1.11376953125,0.2384033203125,-0.00244140625
7.767,310,1398,2138,311,4.0,40.0,39.0,22.644041061401367,-0.54931640625,9.94873046875,-0.9627685546875,0.3406982421875,-0.056884765625
7.774,310,1367,2116,310,4.0,40.0,39.0,24.475095748901367,9.1552734375,1.5869139432907104,-0.9510498046875,0.4073486328125,-0.114013671875
7.801,310,1336,2082,312,4.0,40.0,39.0,24.475095748901367,9.1552734375,1.5869139432907104,-1.004150390625,0.3902587890625,-0.13720703125
7.809,310,1294,2083,310,4.0,40.0,39.0,21.606443405151367,21.667478561401367,-14.953612327575684,-1.0853271484375,0.304443359375,-0.0941162109375
7.810,310,1271,2076,312,4.0,40.0,39.0,20.812986373901367,26.000974655151367,-21.911619186401367,-1.243896484375,0.268310546875,-0.0382080078125
7.812,310,1253,2070,312,4.0,40.0,39.0,20.812986373901367,26.000974655151367,-21.911619186401367,-1.4405517578125,0.301513671875,-0.02734375
7.827,310,1199,2016,310,4.0,40.0,39.0,13.671874046325684,34.3017578125,-21.972654342651367,-1.5413818359375,0.310302734375,-0.0478515625
7.838,309,1153,1948,310,3.0,38.0,37.0,5.310058116912842,35.94970703125,-16.54052734375,-1.5274658203125,0.288818359375,-0.0584716796875
7.842,308,1105,1869,311,3.0,38.0,37.0,5.310058116912842,35.94970703125,-16.54052734375,-1.460693359375,0.255126953125,-0.034912109375
7.856,310,987,1704,311,3.0,38.0,37.0,0.6103515625,30.029294967651367,-1.220703125,-1.3951416015625,0.18017578125,0.0140380859375
7.864,310,913,1595,311,3.0,38.0,37.0,8.6669921875,28.930662155151367,6.469726085662842,-1.3521728515625,-0.001708984375,0.0902099609375
7.872,310,823,1450,310,3.0,38.0,37.0,30.944822311401367,32.5927734375,13.732909202575684,-1.27880859375,-0.2452392578125,0.15283203125
7.913,308,674,1199,310,3.0,38.0,37.0,71.1669921875,40.832515716552734,19.47021484375,-1.1500244140625,-0.4093017578125,0.1273193359375
7.913,310,594,1081,310,3.0,38.0,37.0,118.65233612060547,50.292964935302734,20.629880905151367,-0.9793701171875,-0.41845703125,0.0443115234375
7.914,310,533,928,310,3.0,38.0,37.0,160.70555114746094,57.678218841552734,17.08984375,-0.78515625,-0.286865234375,-0.03759765625
7.918,311,432,676,310,3.0,38.0,37.0,189.57518005371094,61.462398529052734,11.535643577575684,-0.6361083984375,-0.1278076171875,-0.0814208984375
7.924,308,420,554,310,3.0,38.0,37.0,202.63670349121094,60.241695404052734,6.286620616912842,-0.5467529296875,0.017333984375,-0.11474609375
7.932,310,411,479,308,-3.0,40.0,42.0,203.00291442871094,54.748531341552734,4.69970703125,-0.4716796875,0.22216796875,-0.1864013671875
7.952,309,391,411,309,-3.0,40.0,42.0,190.91795349121094,46.569820404052734,9.46044921875,-0.3826904296875,0.48388671875,-0.279541015625
7.954,308,377,418,309,-3.0,40.0,42.0,158.203125,36.4990234375,18.98193359375,-0.3267822265625,0.7005615234375,-0.3480224609375
7.962,309,370,411,308,-3.0,40.0,42.0,102.72216033935547,24.780271530151367,25.878904342651367,-0.4296875,0.785400390625,-0.3504638671875
7.976,309,363,413,310,-3.0,40.0,42.0,42.053218841552734,13.549803733825684,22.521970748901367,-0.6610107421875,0.631591796875,-0.3338623046875
7.984,310,356,414,310,-3.0,40.0,42.0,5.065917491912842,8.72802734375,6.774901866912842,-0.84033203125,0.304443359375,-0.3980712890625
8.008,309,354,414,310,-3.0,40.0,42.0,5.920409679412842,12.573241233825684,-10.253905296325684,-0.8778076171875,0.1033935546875,-0.435302734375
8.015,308,354,419,310,-3.0,40.0,42.0,24.597166061401367,15.319823265075684,-15.930174827575684,-0.83056640625,0.1163330078125,-0.318603515625
8.015,308,353,419,310,-3.0,40.0,42.0,36.0107421875,8.7890625,-14.282225608825684,-0.8216552734375,0.181396484375,-0.1497802734375
8.022,309,354,420,310,-3.0,40.0,42.0,39.00146484375,-2.01416015625,-12.145995140075684,-0.867431640625,0.22216796875,-0.02978515625
8.036,309,362,427,309,-5.0,38.0,42.0,39.73388671875,-8.72802734375,-10.253905296325684,-0.889404296875,0.2598876953125,0.0052490234375
8.044,308,367,424,308,-5.0,38.0,42.0,37.78076171875,-8.7890625,-10.620116233825684,-0.887939453125,0.2457275390625,-0.022216796875
8.053,308,371,426,308,-5.0,38.0,42.0,32.89794921875,-6.103515148162842,-14.160155296325684,-0.8895263671875,0.1302490234375,-0.05810546875
8.072,309,372,424,309,-5.0,38.0,42.0,30.334470748901367,-4.39453125,-16.17431640625,-0.8792724609375,-0.0050048828125,-0.091064453125
8.074,310,380,437,310,-5.0,38.0,42.0,34.3017578125,-3.356933355331421,-12.268065452575684,-0.862060546875,-0.0528564453125,-0.149658203125
8.082,310,382,440,308,-5.0,38.0,42.0,38.818359375,-2.624511480331421,-3.845214605331421,-0.86328125,-0.0057373046875,-0.2484130859375
8.098,310,409,463,310,-5.0,38.0,42.0,32.2265625,-2.685546636581421,4.8828125,-0.8941650390625,0.0726318359375,-0.3453369140625
8.119,309,428,469,310,-5.0,38.0,42.0,11.596678733825684,-4.33349609375,11.779784202575684,-0.9248046875,0.1180419921875,-0.3746337890625
8.120,310,435,484,310,-5.0,38.0,42.0,-10.192870140075684,-7.812499523162842,17.02880859375,-0.9210205078125,0.1185302734375,-0.3236083984375
8.127,310,454,513,310,-5.0,38.0,42.0,-18.6767578125,-11.596678733825684,21.423337936401367,-0.890625,0.125,-0.25537109375
8.134,310,477,541,310,-4.0,40.0,38.0,-13.732909202575684,-14.282225608825684,24.597166061401367,-0.84619140625,0.18017578125,-0.2205810546875
8.142,310,508,572,310,-4.0,40.0,38.0,-7.812499523162842,-16.845703125,24.658201217651367,-0.77783203125,0.25537109375,-0.2120361328125
8.157,310,564,695,310,-4.0,40.0,38.0,-13.610838890075684,-20.935056686401367,19.95849609375,-0.6864013671875,0.2939453125,-0.2164306640625
8.164,308,644,772,310,-4.0,40.0,38.0,-35.21728515625,-25.268552780151367,11.352538108825684,-0.57568359375,0.2916259765625,-0.2274169921875
8.175,310,718,891,310,-4.0,40.0,38.0,-69.76318359375,-27.221677780151367,1.15966796875,-0.462646484375,0.2840576171875,-0.25927734375
8.189,310,835,1093,310,-4.0,40.0,38.0,-116.39403533935547,-26.733396530151367,-9.27734375,-0.4735107421875,0.177001953125,-0.3514404296875
8.198,310,912,1189,311,-4.0,40.0,38.0,-172.54637145996094,-29.418943405151367,-17.76123046875,-0.4735107421875,0.177001953125,-0.3514404296875
8.226,310,992,1300,310,-4.0,40.0,38.0,-216.43064880371094,-37.7197265625,-20.996091842651367,-0.4840087890625,-0.02587890625,-0.2967529296875
8.228,310,1145,1572,310,-4.0,40.0,38.0,-214.84373474121094,-42.053218841552734,-16.90673828125,-0.9407958984375,0.22021484375,-0.1221923828125
8.229,312,1254,1730,311,-4.0,40.0,38.0,-171.81394958496094,-40.0390625,-4.69970703125,-0.9407958984375,0.22021484375,-0.1221923828125
8.233,310,1338,1823,311,-4.0,39.0,38.0,-139.5263671875,-43.029781341552734,11.291502952575684,-1.3116455078125,0.461669921875,0.0992431640625
8.247,311,1413,1908,310,-4.0,39.0,38.0,-147.216796875,-54.626461029052734,20.446775436401367,-1.36572265625,0.039794921875,0.53564453125
8.254,311,1455,1946,310,-4.0,39.0,38.0,-153.1982421875,-60.363765716552734,19.10400390625,-1.36572265625,0.039794921875,0.53564453125
8.262,310,1478,1966,311,-4.0,39.0,38.0,-110.16844940185547,-47.607418060302734,13.977049827575684,-1.31396484375,-0.0919189453125,0.5220947265625
8.276,311,1523,1965,310,-4.0,39.0,38.0,-35.70556640625,-24.047849655151367,7.812499523162842,-1.50048828125,0.318603515625,0.03369140625
8.302,310,1540,1961,310,-4.0,39.0,38.0,21.789548873901367,-4.69970703125,0.6713866591453552,-1.50048828125,0.318603515625,0.03369140625
8.302,310,1546,1941,310,-4.0,39.0,38.0,43.029781341552734,6.286620616912842,-4.638671875,-1.58056640625,0.509521484375,-0.2572021484375
8.322,310,1531,1882,312,-4.0,39.0,38.0,37.78076171875,10.925292015075684,-6.958007335662842,-1.458251953125,0.2698974609375,-0.3924560546875
8.324,294,1506,1845,310,-4.0,39.0,38.0,21.240232467651367,8.60595703125,-8.85009765625,-1.458251953125,0.2698974609375,-0.3924560546875
8.329,310,1460,1842,297,-4.0,39.0,38.0,13.122557640075684,0.9155272841453552,-14.221190452575684,-1.1776123046875,-0.01025390625,-0.2047119140625
8.336,308,1478,1860,311,0.0,38.0,38.0,34.912109375,-3.234863042831421,-23.620603561401367,-1.22412109375,0.2884521484375,-0.075439453125
8.345,310,1455,1852,311,0.0,38.0,38.0,34.912109375,-3.234863042831421,-23.620603561401367,-1.5013427734375,0.5076904296875,-0.1505126953125
8.352,311,1422,1837,310,0.0,38.0,38.0,29.113767623901367,7.263183116912842,-24.658201217651367,-1.5013427734375,0.5076904296875,-0.1505126953125
8.367,310,1349,1772,310,0.0,38.0,38.0,-11.413573265075684,25.146482467651367,-26.428220748901367,-1.548095703125,0.2584228515625,-0.1138916015625
8.375,309,1292,1702,311,0.0,38.0,38.0,-11.413573265075684,25.146482467651367,-26.428220748901367,-1.427490234375,0.1734619140625,-0.0614013671875
8.382,310,1219,1625,310,0.0,38.0,38.0,-12.634276390075684,21.972654342651367,-23.559568405151367,-1.427490234375,0.1734619140625,-0.0614013671875
8.431,310,1076,1472,312,0.0,38.0,38.0,4.8828125,18.9208984375,-9.765625,-1.2879638671875,0.2872314453125,-0.032958984375
8.431,302,959,1381,309,0.0,38.0,38.0,4.8828125,18.9208984375,-9.765625,-1.1971435546875,0.2186279296875,0.0340576171875
8.432,289,853,1300,310,0.0,38.0,38.0,7.629394054412842,23.620603561401367,-6.530761241912842,-1.1971435546875,0.2186279296875,0.0340576171875
8.432,310,654,1120,310,0.0,38.0,38.0,34.48486328125,26.611326217651367,-14.160155296325684,-0.9879150390625,-0.33154296875,0.2369384765625
8.434,310,559,1014,310,0.0,40.0,42.0,34.48486328125,26.611326217651367,-14.160155296325684,-0.8685302734375,-0.4302978515625,0.189208984375
8.442,310,506,868,311,0.0,40.0,42.0,77.1484375,30.639646530151367,-22.277830123901367,-0.8685302734375,-0.4302978515625,0.189208984375
8.456,309,419,660,310,0.0,40.0,42.0,169.86082458496094,49.255367279052734,-32.16552734375,-0.5968017578125,-0.19970703125,-0.0146484375
8.467,310,386,561,310,0.0,40.0,42.0,169.86082458496094,49.255367279052734,-32.16552734375,-0.5089111328125,0.0316162109375,-0.1138916015625
8.473,310,364,465,310,0.0,40.0,42.0,188.53758239746094,51.757808685302734,-30.029294967651367,-0.5089111328125,0.0316162109375,-0.1138916015625
8.486,308,342,415,310,0.0,40.0,42.0,160.76658630371094,40.222164154052734,-6.713866710662842,-0.457763671875,0.6102294921875,-0.30615234375
8.494,308,349,415,310,0.0,40.0,42.0,108.82567596435547,27.465818405151367,5.126952648162842,-0.5211181640625,0.6759033203125,-0.3551025390625
8.503,310,338,413,308,0.0,40.0,42.0,108.82567596435547,27.465818405151367,5.126952648162842,-0.6510009765625,0.5374755859375,-0.3568115234375
8.535,310,340,420,308,0.0,40.0,42.0,-1.4038084745407104,5.737304210662842,10.192870140075684,-0.74072265625,0.2794189453125,-0.3175048828125
8.535,310,341,420,310,0.0,40.0,42.0,-18.24951171875,1.9531248807907104,7.080077648162842,-0.7193603515625,0.0762939453125,-0.3011474609375
8.536,309,343,424,309,-1.0,41.0,44.0,-18.24951171875,1.9531248807907104,7.080077648162842,-0.663330078125,0.006591796875,-0.26416015625
8.546,308,345,428,310,-1.0,41.0,44.0,-9.3994140625,1.5258787870407104,-1.15966796875,-0.669677734375,0.0010986328125,-0.16064453125
8.554,308,354,433,310,-1.0,41.0,44.0,-5.371093273162842,-4.82177734375,-7.019042491912842,-0.7459716796875,-0.0096435546875,-0.0789794921875
8.562,310,349,444,308,-1.0,41.0,44.0,-5.371093273162842,-4.82177734375,-7.019042491912842,-0.8282470703125,-0.01171875,-0.06298828125
8.576,309,356,456,309,-1.0,41.0,44.0,18.49365234375,-12.084959983825684,-9.46044921875,-0.8704833984375,0.013427734375,-0.0830078125
8.584,310,371,467,310,-1.0,41.0,44.0,31.555173873901367,-11.291502952575684,-5.554198741912842,-0.87890625,0.029296875,-0.1065673828125
8.592,309,373,481,310,-1.0,41.0,44.0,31.555173873901367,-11.291502952575684,-5.554198741912842,-0.87255859375,0.0391845703125,-0.12646484375
8.606,310,408,503,310,-1.0,41.0,44.0,39.55078125,-11.779784202575684,0.4272460639476776,-0.8665771484375,0.07666015625,-0.1593017578125
8.628,309,420,525,310,-1.0,41.0,44.0,31.433103561401367,-14.099120140075684,3.417968511581421,-0.8719482421875,0.12158203125,-0.1973876953125
8.628,310,433,547,310,-1.0,41.0,44.0,31.433103561401367,-14.099120140075684,3.417968511581421,-0.8912353515625,0.1416015625,-0.2093505859375
8.639,310,465,589,308,-2.0,40.0,37.0,2.563476324081421,-23.620603561401367,10.864256858825684,-0.90283203125,0.1348876953125,-0.1956787109375
8.644,309,493,640,310,-2.0,40.0,37.0,-5.432128429412842,-30.334470748901367,13.610838890075684,-0.886474609375,0.125732421875,-0.19775390625
8.652,310,512,712,309,-2.0,40.0,37.0,-9.46044921875,-36.865234375,14.282225608825684,-0.8326416015625,0.137939453125,-0.222900390625
8.669,310,587,840,311,-2.0,40.0,37.0,-18.12744140625,-41.015621185302734,13.183592796325684,-0.706787109375,0.1925048828125,-0.259521484375
8.674,310,646,953,310,-2.0,40.0,37.0,-40.466304779052734,-41.564937591552734,8.544921875,-0.5513916015625,0.28662109375,-0.3271484375
