time,compression0,compression1,compression2,compression3,magn_x,magn_y,magn_z,gyro_x,gyro_y,gyro_z,accel_x,accel_y,accel_z
0.002,310,396,371,309,-3.0,40.0,41.0,1.220703125,8.97216796875,3.845214605331421,-0.90771484375,0.388671875,0.0260009765625
0.004,308,395,371,308,-3.0,40.0,41.0,3.540038824081421,8.544921875,3.112792730331421,-0.90771484375,0.404541015625,0.0198974609375
0.023,308,393,371,310,-1.0,41.0,41.0,4.8828125,8.30078125,2.01416015625,-0.91552734375,0.4202880859375,0.0155029296875
0.045,309,391,371,310,-1.0,41.0,41.0,5.187987804412842,8.23974609375,0.3662109076976776,-0.9259033203125,0.425537109375,0.014892578125
0.155,310,390,371,310,-1.0,41.0,41.0,4.7607421875,8.48388671875,-1.5869139432907104,-0.9320068359375,0.4166259765625,0.01513671875
0.155,310,386,371,310,-1.0,41.0,41.0,4.5166015625,8.72802734375,-3.417968511581421,-0.930908203125,0.39990234375,0.0142822265625
0.156,308,384,371,310,-1.0,41.0,41.0,4.7607421875,8.6669921875,-4.94384765625,-0.9251708984375,0.3828125,0.01416015625
0.156,306,383,372,310,-1.0,41.0,41.0,5.798339366912842,8.23974609375,-5.920409679412842,-0.9183349609375,0.36865234375,0.013427734375
0.157,310,382,371,310,-1.0,41.0,41.0,7.141112804412842,7.751464366912842,-6.286620616912842,-0.911865234375,0.359130859375,0.0074462890625
0.157,310,382,372,310,-1.0,41.0,41.0,8.23974609375,7.141112804412842,-6.347655773162842,-0.9080810546875,0.3548583984375,-0.0057373046875
0.158,309,381,371,308,-1.0,41.0,41.0,8.48388671875,6.469726085662842,-6.286620616912842,-0.9071044921875,0.354736328125,-0.018798828125
0.159,310,381,371,308,-2.0,41.0,42.0,7.751464366912842,5.920409679412842,-6.286620616912842,-0.9063720703125,0.3585205078125,-0.026123046875
0.161,310,380,371,310,-2.0,41.0,42.0,6.103515148162842,5.371093273162842,-6.286620616912842,-0.905029296875,0.3631591796875,-0.027587890625
0.161,310,381,371,310,-2.0,41.0,42.0,4.0283203125,4.5166015625,-6.286620616912842,-0.903076171875,0.3624267578125,-0.0263671875
0.162,310,382,371,309,-2.0,41.0,42.0,2.3193359375,3.234863042831421,-6.591796398162842,-0.8929443359375,0.3502197265625,-0.031982421875
0.163,310,384,371,310,-2.0,41.0,42.0,1.2817381620407104,1.6479490995407104,-7.080077648162842,-0.8929443359375,0.3502197265625,-0.031982421875
0.163,310,383,367,310,-2.0,41.0,42.0,0.4272460639476776,0.1220703050494194,-7.324218273162842,-0.890380859375,0.3426513671875,-0.0340576171875
0.168,310,386,368,309,-2.0,41.0,42.0,-0.6103515625,-1.15966796875,-6.958007335662842,-0.9058837890625,0.3314208984375,-0.029296875
0.176,309,387,369,310,-2.0,41.0,42.0,-2.01416015625,-2.197265625,-5.859374523162842,-0.9058837890625,0.3314208984375,-0.029296875
0.193,310,388,369,310,-2.0,41.0,42.0,-3.356933355331421,-3.295898199081421,-4.2724609375,-0.9200439453125,0.3299560546875,-0.0220947265625
0.198,310,391,370,310,-2.0,41.0,42.0,-4.2724609375,-4.33349609375,-2.50244140625,-0.9324951171875,0.337646484375,0.002685546875
0.206,310,394,369,310,-2.0,40.0,42.0,-4.57763671875,-5.249022960662842,-0.9155272841453552,-0.9324951171875,0.337646484375,0.002685546875
0.250,309,394,370,310,-2.0,40.0,42.0,-4.39453125,-5.981444835662842,0.4272460639476776,-0.931396484375,0.341796875,0.015380859375
0.253,310,396,371,308,-2.0,40.0,42.0,-3.784179449081421,-6.408690929412842,1.220703125,-0.946044921875,0.37255859375,0.02685546875
0.258,308,395,369,310,-2.0,40.0,42.0,-2.990722417831421,-6.225585460662842,1.5869139432907104,-0.946044921875,0.37255859375,0.02685546875
0.259,310,395,371,310,-2.0,40.0,42.0,-2.197265625,-5.554198741912842,1.4038084745407104,-0.9532470703125,0.389404296875,0.027587890625
0.261,308,380,371,290,-2.0,40.0,42.0,-1.5869139432907104,-4.5166015625,0.6713866591453552,-0.942138671875,0.3896484375,0.0242919921875
0.266,309,393,371,309,-2.0,40.0,42.0,-1.220703125,-3.295898199081421,-0.30517578125,-0.9310302734375,0.381103515625,0.0216064453125
0.274,310,393,371,308,-2.0,40.0,42.0,-0.6713866591453552,-2.3193359375,-1.15966796875,-0.9310302734375,0.381103515625,0.0216064453125
0.294,310,393,372,308,-2.0,40.0,42.0,1.2817381620407104,-1.4038084745407104,-1.7700194120407104,-0.918701171875,0.3695068359375,0.008056640625
0.296,294,391,371,310,-2.0,40.0,42.0,1.2817381620407104,-1.4038084745407104,-1.7700194120407104,-0.9161376953125,0.3653564453125,-0.001708984375
0.304,310,393,370,310,-2.0,40.0,42.0,1.9531248807907104,-1.6479490995407104,-1.7700194120407104,-0.9161376953125,0.3653564453125,-0.001708984375
0.324,308,391,371,310,-2.0,40.0,43.0,1.6479490995407104,-3.051757574081421,-1.6479490995407104,-0.915771484375,0.3599853515625,-0.013916015625
0.326,310,393,371,310,-2.0,40.0,43.0,1.6479490995407104,-3.051757574081421,-1.6479490995407104,-0.9166259765625,0.355712890625,-0.0126953125
0.347,310,393,371,310,-2.0,40.0,43.0,0.6713866591453552,-3.662109136581421,-1.4648436307907104,-0.9166259765625,0.355712890625,-0.0126953125
0.354,309,391,370,310,-2.0,40.0,43.0,-1.4648436307907104,-4.7607421875,-0.9155272841453552,-0.91796875,0.3447265625,0.0048828125
0.357,310,394,368,310,-2.0,40.0,43.0,-1.4648436307907104,-4.7607421875,-0.9155272841453552,-0.9189453125,0.3438720703125,0.0135498046875
0.367,310,394,369,310,-2.0,40.0,43.0,-1.7700194120407104,-5.493163585662842,-0.6103515625,-0.9189453125,0.3438720703125,0.0135498046875
0.377,310,394,369,309,-2.0,40.0,43.0,-1.220703125,-6.713866710662842,0.0610351525247097,-0.9241943359375,0.3529052734375,0.0247802734375
0.387,309,394,369,308,-2.0,40.0,43.0,-1.220703125,-6.713866710662842,0.0610351525247097,-0.9287109375,0.3558349609375,0.0247802734375
0.397,310,395,369,308,-2.0,40.0,43.0,-0.6713866591453552,-6.835937023162842,0.3662109076976776,-0.9287109375,0.3558349609375,0.0247802734375
0.408,310,395,370,308,-1.0,40.0,43.0,-0.1220703050494194,-6.530761241912842,1.03759765625,-0.9334716796875,0.35595703125,0.0264892578125
0.416,310,396,369,311,-1.0,40.0,43.0,-0.1220703050494194,-6.530761241912842,1.03759765625,-0.93212890625,0.3563232421875,0.030029296875
0.426,310,394,369,310,-1.0,40.0,43.0,-0.1831054538488388,-6.469726085662842,1.3427733182907104,-0.929931640625,0.3604736328125,0.03125
0.455,308,394,370,309,-1.0,40.0,43.0,0.1831054538488388,-6.469726085662842,1.5258787870407104,-0.927978515625,0.36962890625,0.03076171875
0.455,310,393,371,310,-1.0,40.0,43.0,0.6103515625,-6.469726085662842,1.3427733182907104,-0.927001953125,0.378662109375,0.03125
0.455,310,391,349,308,-1.0,40.0,43.0,0.6103515625,-6.469726085662842,1.3427733182907104,-0.92919921875,0.3814697265625,0.0308837890625
0.468,308,387,371,310,-1.0,40.0,43.0,1.15966796875,-5.798339366912842,0.6103515625,-0.9368896484375,0.3792724609375,0.026611328125
0.476,309,387,371,310,-1.0,40.0,43.0,1.15966796875,-5.493163585662842,0.4272460639476776,-0.9461669921875,0.375732421875,0.0228271484375
0.484,310,386,371,310,-1.0,40.0,43.0,1.15966796875,-5.493163585662842,0.4272460639476776,-0.9495849609375,0.3692626953125,0.0205078125
0.499,310,379,371,310,-1.0,40.0,43.0,1.4038084745407104,-5.310058116912842,0.9155272841453552,-0.9466552734375,0.361328125,0.017333984375
0.507,309,377,371,310,-4.0,39.0,43.0,1.4038084745407104,-5.493163585662842,1.5258787870407104,-0.937744140625,0.3560791015625,0.0181884765625
0.515,308,372,372,309,-4.0,39.0,43.0,1.4038084745407104,-5.493163585662842,1.5258787870407104,-0.92529296875,0.3529052734375,0.0230712890625
0.527,308,369,371,310,-4.0,39.0,43.0,1.2817381620407104,-6.042479991912842,2.685546636581421,-0.9188232421875,0.3526611328125,0.0267333984375
0.536,309,368,372,310,-4.0,39.0,43.0,1.03759765625,-6.286620616912842,2.929687261581421,-0.9176025390625,0.3564453125,0.031494140625
0.566,308,367,371,310,-4.0,39.0,43.0,1.03759765625,-6.286620616912842,2.929687261581421,-0.9154052734375,0.3599853515625,0.03564453125
0.566,308,349,373,308,-4.0,39.0,43.0,1.3427733182907104,-7.263183116912842,2.868652105331421,-0.9140625,0.3653564453125,0.0380859375
0.568,309,363,372,310,-4.0,39.0,43.0,2.44140625,-8.11767578125,2.44140625,-0.9144287109375,0.3734130859375,0.04248046875
0.574,310,363,372,310,-4.0,39.0,43.0,4.0283203125,-8.9111328125,1.5869139432907104,-0.9149169921875,0.3797607421875,0.0438232421875
0.588,310,361,372,309,-4.0,39.0,43.0,5.249022960662842,-8.9111328125,0.4882812201976776,-0.916748046875,0.384521484375,0.0399169921875
0.601,309,360,378,310,-4.0,39.0,43.0,5.126952648162842,-8.1787109375,-0.4882812201976776,-0.9166259765625,0.3839111328125,0.037109375
0.604,310,357,379,310,-3.0,38.0,46.0,4.150390625,-7.141112804412842,-1.15966796875,-0.9107666015625,0.373046875,0.0340576171875
0.617,310,360,378,309,-3.0,38.0,46.0,2.990722417831421,-6.408690929412842,-1.3427733182907104,-0.9066162109375,0.361328125,0.026123046875
0.631,308,359,377,310,-3.0,38.0,46.0,1.6479490995407104,-6.408690929412842,-1.15966796875,-0.906005859375,0.35498046875,0.021728515625
0.634,309,357,378,310,-3.0,38.0,46.0,0.1831054538488388,-6.958007335662842,-0.8544921278953552,-0.9051513671875,0.350341796875,0.0194091796875
0.658,310,360,379,309,-3.0,38.0,46.0,-1.0986328125,-7.629394054412842,-0.54931640625,-0.90673828125,0.3509521484375,0.014404296875
0.659,310,360,378,308,-3.0,38.0,46.0,-2.0751953125,-8.4228515625,-0.30517578125,-0.9119873046875,0.359619140625,0.0147705078125
0.664,310,360,373,310,-3.0,38.0,46.0,-2.746581792831421,-9.3994140625,-0.3662109076976776,-0.918701171875,0.3701171875,0.0233154296875
0.694,310,359,373,308,-3.0,38.0,46.0,-3.112792730331421,-10.070799827575684,-0.54931640625,-0.9232177734375,0.3770751953125,0.0367431640625
0.703,310,360,377,310,-3.0,38.0,46.0,-3.417968511581421,-10.314940452575684,-0.6713866591453552,-0.92236328125,0.37353515625,0.056396484375
0.707,309,360,378,310,-3.0,38.0,46.0,-3.173827886581421,-10.559081077575684,-0.6713866591453552,-0.915771484375,0.358154296875,0.072509765625
0.773,310,360,379,310,-1.0,38.0,43.0,-1.8920897245407104,-11.169432640075684,-0.4272460639476776,-0.9053955078125,0.3427734375,0.0736083984375
0.775,310,359,373,296,-1.0,38.0,43.0,-0.4882812201976776,-11.718749046325684,0.1831054538488388,-0.8951416015625,0.3377685546875,0.0665283203125
0.775,309,343,360,309,-1.0,38.0,43.0,-0.4272460639476776,-11.779784202575684,1.2817381620407104,-0.8914794921875,0.34130859375,0.0582275390625
0.775,308,363,372,308,-1.0,38.0,43.0,-2.01416015625,-11.352538108825684,2.624511480331421,-0.8948974609375,0.3486328125,0.0479736328125
0.775,308,363,372,309,-1.0,38.0,43.0,-4.638671875,-10.742186546325684,4.08935546875,-0.902099609375,0.3570556640625,0.0391845703125
0.775,297,363,372,310,-1.0,38.0,43.0,-8.1787109375,-10.437010765075684,5.432128429412842,-0.9124755859375,0.3609619140625,0.0360107421875
0.776,309,364,372,310,-1.0,38.0,43.0,-12.390135765075684,-10.253905296325684,6.713866710662842,-0.924560546875,0.355712890625,0.035888671875
0.872,308,363,372,310,-1.0,38.0,43.0,-16.41845703125,-10.131834983825684,8.4228515625,-0.93798828125,0.3487548828125,0.0345458984375
0.875,307,345,355,310,-1.0,38.0,43.0,-19.8974609375,-10.192870140075684,10.925292015075684,-0.9444580078125,0.3499755859375,0.0360107421875
0.875,309,363,371,309,-1.0,38.0,43.0,-22.949216842651367,-10.559081077575684,14.099120140075684,-0.93017578125,0.355224609375,0.047607421875
0.875,310,354,371,310,-1.0,37.0,40.0,-26.000974655151367,-10.803221702575684,17.4560546875,-0.8961181640625,0.3505859375,0.0660400390625
0.875,296,371,371,310,-1.0,37.0,40.0,-29.113767623901367,-10.925292015075684,20.812986373901367,-0.853271484375,0.32470703125,0.0811767578125
0.875,296,377,369,310,-1.0,37.0,40.0,-31.372068405151367,-11.413573265075684,24.353025436401367,-0.7926025390625,0.272216796875,0.0772705078125
0.875,310,391,360,309,-1.0,37.0,40.0,-31.494138717651367,-13.488768577575684,28.503416061401367,-0.6746826171875,0.1927490234375,0.0552978515625
0.876,310,411,354,309,-1.0,37.0,40.0,-28.015134811401367,-19.59228515625,31.982419967651367,-0.4852294921875,0.0908203125,0.0491943359375
0.876,308,438,342,310,-1.0,37.0,40.0,-17.7001953125,-32.71484375,32.2265625,-0.19384765625,-0.0301513671875,0.055908203125
0.876,297,495,345,308,-1.0,37.0,40.0,4.39453125,-55.053707122802734,26.245115280151367,0.301513671875,-0.1385498046875,0.0672607421875
0.878,310,530,343,310,-1.0,37.0,40.0,42.907711029052734,-86.97509002685547,7.812499523162842,0.800537109375,-0.171630859375,0.0780029296875
0.884,309,579,417,311,-1.0,37.0,40.0,93.87206268310547,-120.97167205810547,-27.648923873901367,0.959228515625,-0.0228271484375,-0.06103515625
0.914,309,662,473,310,-1.0,37.0,40.0,125.73241424560547,-135.1318359375,-71.22802734375,0.554443359375,0.432373046875,-0.135498046875
0.915,310,725,502,297,-1.0,34.0,45.0,98.51073455810547,-105.59081268310547,-107.17772674560547,-0.443359375,0.848876953125,-0.088134765625
0.915,296,766,604,310,-1.0,34.0,45.0,19.04296875,-39.55078125,-119.56786346435547,-1.767333984375,1.12109375,-0.2677001953125
0.981,310,819,805,310,-1.0,34.0,45.0,-83.61815643310547,14.282225608825684,-95.88622283935547,-2.8016357421875,1.57568359375,-0.3642578125
0.983,310,830,890,298,-1.0,34.0,45.0,-196.77732849121094,11.291502952575684,-52.124019622802734,-2.9112548828125,1.5205078125,0.180908203125
0.983,311,840,922,299,-1.0,34.0,45.0,-268.12744140625,-32.89794921875,-28.381345748901367,-2.4635009765625,0.4261474609375,1.0784912109375
0.983,310,809,865,312,-1.0,34.0,45.0,-226.62351989746094,-64.27001953125,-30.395505905151367,-1.8182373046875,-0.6763916015625,1.286865234375
0.983,310,810,875,311,-1.0,34.0,45.0,-90.94237518310547,-57.434078216552734,-27.099607467651367,-1.8182373046875,-0.6763916015625,1.286865234375
0.983,310,805,861,310,-1.0,34.0,45.0,51.391597747802734,-25.329587936401367,-13.793944358825684,-1.4996337890625,-0.01416015625,0.708251953125
0.993,308,771,796,310,-1.0,34.0,45.0,121.52098846435547,7.873534679412842,-2.197265625,-2.1416015625,1.0595703125,-0.012939453125
0.995,310,754,741,311,-1.0,34.0,45.0,95.09276580810547,25.695798873901367,7.507323741912842,-2.1416015625,1.0595703125,-0.012939453125
1.017,310,732,683,311,1.0,36.0,40.0,29.174802780151367,26.550291061401367,16.7236328125,-2.103515625,0.6112060546875,-0.0198974609375
1.018,311,676,594,310,1.0,36.0,40.0,-10.986327171325684,20.01953125,29.296873092651367,-1.530517578125,0.2532958984375,0.082763671875
1.025,309,633,545,310,1.0,36.0,40.0,-15.869139671325684,16.6015625,46.020503997802734,-1.530517578125,0.2532958984375,0.082763671875
1.041,310,585,507,311,1.0,36.0,40.0,-4.7607421875,17.08984375,60.791011810302734,-1.1304931640625,0.2100830078125,0.16259765625
1.047,310,523,430,310,1.0,36.0,40.0,4.2724609375,18.61572265625,70.556640625,-0.3836669921875,0.075439453125,0.311767578125
1.071,310,481,407,310,1.0,36.0,40.0,5.310058116912842,20.568845748901367,77.7587890625,-0.3836669921875,0.075439453125,0.311767578125
1.071,310,452,386,310,1.0,36.0,40.0,3.234863042831421,22.155759811401367,78.67431640625,-0.1168212890625,-0.0103759765625,0.334716796875
1.084,310,430,384,308,1.0,36.0,40.0,7.141112804412842,24.169919967651367,63.110347747802734,0.091552734375,-0.0294189453125,0.3162841796875
1.085,296,415,383,310,1.0,36.0,40.0,21.850584030151367,27.343748092651367,32.77587890625,0.091552734375,-0.0294189453125,0.3162841796875
1.093,310,402,382,310,1.0,36.0,40.0,41.625972747802734,31.494138717651367,2.746581792831421,-0.099853515625,0.2589111328125,0.1153564453125
1.114,308,395,380,310,-2.0,37.0,43.0,58.532711029052734,34.85107421875,-16.54052734375,-0.4796142578125,0.731689453125,-0.158203125
1.115,310,393,379,296,-2.0,37.0,43.0,64.51416015625,33.8134765625,-23.742673873901367,-0.5701904296875,0.7537841796875,-0.1380615234375
1.128,310,396,379,310,-2.0,37.0,43.0,50.231929779052734,26.489255905151367,-22.583005905151367,-0.5701904296875,0.7537841796875,-0.1380615234375
1.156,310,401,377,308,-2.0,37.0,43.0,-9.765625,7.934569835662842,-18.37158203125,-0.7344970703125,0.3751220703125,0.053466796875
1.156,307,406,379,310,-2.0,37.0,43.0,-9.765625,7.934569835662842,-18.37158203125,-0.84326171875,0.2120361328125,0.103271484375
1.175,310,408,382,310,-2.0,37.0,43.0,-24.353025436401367,4.8828125,-18.798828125,-0.84326171875,0.2120361328125,0.103271484375
1.175,309,408,382,310,-2.0,37.0,43.0,-17.822265625,4.0283203125,-15.563963890075684,-0.9569091796875,0.21630859375,0.136474609375
1.176,310,411,369,299,-2.0,37.0,43.0,-17.822265625,4.0283203125,-15.563963890075684,-0.9945068359375,0.3028564453125,0.16748046875
1.190,310,409,382,310,-2.0,37.0,43.0,-11.718749046325684,2.13623046875,-12.878417015075684,-0.9945068359375,0.3028564453125,0.16748046875
1.197,310,408,382,310,-2.0,37.0,43.0,-8.48388671875,-2.563476324081421,-10.070799827575684,-0.9796142578125,0.327392578125,0.1966552734375
1.206,310,408,382,310,-1.0,35.0,46.0,-8.48388671875,-2.563476324081421,-10.070799827575684,-0.9437255859375,0.2943115234375,0.2000732421875
1.217,310,406,384,310,-1.0,35.0,46.0,-5.432128429412842,-3.234863042831421,-8.11767578125,-0.9437255859375,0.2943115234375,0.2000732421875
1.227,309,402,381,310,-1.0,35.0,46.0,7.263183116912842,-1.7700194120407104,-4.150390625,-0.914306640625,0.3280029296875,0.1781005859375
1.249,308,400,380,310,-1.0,35.0,46.0,7.263183116912842,-1.7700194120407104,-4.150390625,-0.930908203125,0.3736572265625,0.1463623046875
1.249,308,382,368,309,-1.0,35.0,46.0,10.742186546325684,-1.03759765625,-3.173827886581421,-0.930908203125,0.3736572265625,0.1463623046875
1.257,309,396,380,310,-1.0,35.0,46.0,7.446288585662842,-0.6713866591453552,-3.234863042831421,-0.9439697265625,0.4063720703125,0.1083984375
1.275,309,393,380,310,-1.0,35.0,46.0,4.150390625,-1.2817381620407104,-4.7607421875,-0.9296875,0.39990234375,0.1005859375
1.275,310,386,383,310,-1.0,35.0,46.0,4.150390625,-1.2817381620407104,-4.7607421875,-0.903076171875,0.3831787109375,0.0936279296875
1.287,310,382,382,308,-1.0,35.0,46.0,-0.9155272841453552,-4.45556640625,-7.812499523162842,-0.8712158203125,0.354248046875,0.07958984375
1.296,310,382,381,309,-1.0,35.0,46.0,-4.2724609375,-6.225585460662842,-6.469726085662842,-0.842041015625,0.3087158203125,0.064208984375
1.303,310,382,380,310,-2.0,36.0,46.0,-4.2724609375,-6.225585460662842,-6.469726085662842,-0.8128662109375,0.2401123046875,0.048583984375
1.319,308,391,378,309,-2.0,36.0,46.0,-15.197752952575684,-11.230467796325684,6.530761241912842,-0.7445068359375,0.15234375,0.0172119140625
1.329,310,398,379,310,-2.0,36.0,46.0,-21.362302780151367,-16.05224609375,19.04296875,-0.5870361328125,0.054443359375,-0.03271484375
1.336,296,408,393,309,-2.0,36.0,46.0,-21.362302780151367,-16.05224609375,19.04296875,-0.3143310546875,-0.025390625,-0.086669921875
1.423,308,456,380,297,-2.0,36.0,46.0,-23.864744186401367,-40.0390625,44.372554779052734,0.092529296875,-0.0606689453125,-0.1160888671875
1.439,310,493,402,310,-2.0,36.0,46.0,-18.85986328125,-63.049312591552734,44.677730560302734,0.5989990234375,-0.0985107421875,-0.091796875
1.458,294,521,431,310,-2.0,36.0,46.0,-18.85986328125,-63.049312591552734,44.677730560302734,0.9727783203125,-0.2076416015625,-0.0194091796875
1.487,312,579,586,299,-2.0,36.0,46.0,19.71435546875,-97.83934783935547,-5.981444835662842,0.8388671875,-0.1754150390625,0.0963134765625
1.498,310,646,698,311,-2.0,36.0,46.0,42.114253997802734,-94.05516815185547,-47.729488372802734,0.179443359375,0.2060546875,0.314697265625
1.510,310,703,779,311,-2.0,36.0,46.0,42.114253997802734,-94.05516815185547,-47.729488372802734,-0.7752685546875,0.6259765625,0.415771484375
1.523,296,771,966,308,-2.0,33.0,51.0,-36.4990234375,-16.90673828125,-92.22411346435547,-1.879150390625,1.0633544921875,0.232177734375
1.532,310,799,1054,311,-2.0,33.0,51.0,-96.98485565185547,2.746581792831421,-67.138671875,-2.5498046875,1.48193359375,0.18212890625
1.536,310,819,1125,313,-2.0,33.0,51.0,-140.625,-19.83642578125,-31.127927780151367,-2.6170654296875,1.188720703125,0.6226806640625
1.542,310,806,1120,310,-2.0,33.0,51.0,-140.0146484375,-47.363277435302734,-20.751951217651367,-2.680419921875,0.4052734375,1.2066650390625
1.555,310,811,1055,312,-2.0,33.0,51.0,-83.31298065185547,-48.156734466552734,-25.756834030151367,-2.6220703125,-0.1553955078125,1.397705078125
1.557,310,816,1063,310,-2.0,33.0,51.0,4.94384765625,-25.756834030151367,-19.59228515625,-1.819580078125,-0.3255615234375,1.03369140625
1.559,310,813,1054,311,-2.0,33.0,51.0,89.84374237060547,4.638671875,-7.934569835662842,-1.1903076171875,0.2471923828125,0.462158203125
1.561,310,799,1037,310,-2.0,33.0,51.0,114.01366424560547,26.184080123901367,-0.2441406100988388,-1.55712890625,1.1240234375,0.192138671875
1.581,310,780,1014,312,-2.0,33.0,51.0,61.889644622802734,35.21728515625,2.929687261581421,-2.06591796875,1.2049560546875,0.2325439453125
1.582,308,740,943,310,0.0,35.0,46.0,-0.54931640625,36.0107421875,2.25830078125,-2.1610107421875,0.6300048828125,0.35107421875
1.583,309,714,868,310,0.0,35.0,46.0,-23.620603561401367,30.639646530151367,5.187987804412842,-1.9964599609375,0.19140625,0.38037109375
1.583,310,683,763,310,0.0,35.0,46.0,-10.375975608825684,26.367185592651367,15.930174827575684,-1.826416015625,0.1575927734375,0.2762451171875
1.583,310,606,616,310,0.0,35.0,46.0,15.136717796325684,27.221677780151367,33.5693359375,-1.6322021484375,0.328857421875,0.14990234375
1.584,310,548,548,299,0.0,35.0,46.0,32.1044921875,29.846189498901367,54.748531341552734,-1.2286376953125,0.331298828125,0.158203125
1.584,310,513,440,310,0.0,35.0,46.0,36.56005859375,30.151365280151367,72.3876953125,-0.634033203125,0.097412109375,0.2879638671875
1.585,298,465,394,309,0.0,35.0,46.0,33.5693359375,29.418943405151367,80.81053924560547,-0.0728759765625,-0.12353515625,0.3712158203125
1.585,310,433,394,310,0.0,35.0,46.0,28.381345748901367,29.724119186401367,75.13427734375,0.3258056640625,-0.261474609375,0.385986328125
1.586,310,415,386,310,0.0,35.0,46.0,31.311033248901367,31.372068405151367,48.889156341552734,0.453369140625,-0.21923828125,0.360595703125
1.588,295,408,391,309,0.0,35.0,46.0,47.546382904052734,36.4990234375,7.934569835662842,0.2537841796875,0.114501953125,0.2073974609375
1.595,310,400,385,309,0.0,35.0,46.0,67.19970703125,46.569820404052734,-28.015134811401367,-0.130615234375,0.51318359375,-0.0467529296875
1.603,310,394,379,308,0.0,37.0,43.0,77.1484375,53.833003997802734,-45.043941497802734,-0.4442138671875,0.754150390625,-0.2271728515625
1.624,310,393,373,308,0.0,37.0,43.0,70.61767578125,49.377437591552734,-45.959468841552734,-0.60107421875,0.840087890625,-0.2647705078125
1.626,310,394,379,296,0.0,37.0,43.0,48.889156341552734,34.7900390625,-43.029781341552734,-0.682861328125,0.787109375,-0.1600341796875
1.634,310,394,385,310,0.0,37.0,43.0,18.1884765625,16.845703125,-44.067378997802734,-0.714111328125,0.56787109375,-0.0020751953125
1.655,310,394,401,310,0.0,37.0,43.0,-10.375975608825684,4.638671875,-48.461910247802734,-0.809814453125,0.1412353515625,0.09033203125
1.656,310,394,401,298,0.0,37.0,43.0,-23.742673873901367,1.4038084745407104,-51.208492279052734,-0.809814453125,0.1412353515625,0.09033203125
1.664,310,395,407,308,0.0,37.0,43.0,-20.385740280151367,2.44140625,-49.133296966552734,-0.8853759765625,0.11572265625,0.0877685546875
1.693,310,393,408,309,0.0,37.0,43.0,-10.803221702575684,3.051757574081421,-42.724605560302734,-0.9991455078125,0.209228515625,0.1116943359375
1.695,310,394,409,310,0.0,37.0,43.0,-4.39453125,1.15966796875,-34.5458984375,-0.9991455078125,0.209228515625,0.1116943359375
1.695,309,395,391,310,0.0,37.0,43.0,-5.126952648162842,-2.3193359375,-27.099607467651367,-1.0211181640625,0.2288818359375,0.1485595703125
1.708,309,395,409,310,0.0,38.0,49.0,-10.925292015075684,-5.126952648162842,-20.446775436401367,-0.9759521484375,0.10400390625,0.19580078125
1.727,309,401,410,310,0.0,38.0,49.0,-15.136717796325684,-6.042479991912842,-14.343260765075684,-0.9759521484375,0.10400390625,0.19580078125
1.728,310,402,411,310,0.0,38.0,49.0,-11.291502952575684,-6.469726085662842,-8.7890625,-0.9271240234375,0.07177734375,0.2093505859375
1.738,310,408,410,310,0.0,38.0,49.0,-1.5869139432907104,-8.11767578125,-3.479003667831421,-0.91552734375,0.2413330078125,0.1630859375
1.746,309,408,401,310,0.0,38.0,49.0,5.187987804412842,-10.192870140075684,1.6479490995407104,-0.91552734375,0.2413330078125,0.1630859375
1.757,310,410,400,309,0.0,38.0,49.0,3.417968511581421,-10.803221702575684,6.164550304412842,-0.935546875,0.318359375,0.125
1.786,310,409,399,310,0.0,38.0,49.0,-5.126952648162842,-9.033203125,10.009765625,-0.9249267578125,0.3323974609375,0.08642578125
1.788,309,410,396,309,0.0,38.0,49.0,-15.869139671325684,-5.615233898162842,13.305663108825684,-0.9249267578125,0.3323974609375,0.08642578125
1.789,309,410,398,310,0.0,38.0,49.0,-25.024412155151367,-3.112792730331421,16.17431640625,-0.8873291015625,0.2940673828125,0.0909423828125
1.804,310,410,395,310,0.0,35.0,43.0,-32.53173828125,-5.859374523162842,22.644041061401367,-0.7772216796875,0.2386474609375,0.071533203125
1.806,310,409,411,310,0.0,35.0,43.0,-32.53173828125,-5.859374523162842,22.644041061401367,-0.6922607421875,0.209716796875,0.0404052734375
1.814,308,421,423,309,0.0,35.0,43.0,-34.85107421875,-8.72802734375,27.648923873901367,-0.6922607421875,0.209716796875,0.0404052734375
1.837,310,447,435,309,0.0,35.0,43.0,-39.55078125,-17.02880859375,38.63525390625,-0.3367919921875,0.0810546875,-0.0311279296875
1.838,309,473,441,309,0.0,35.0,43.0,-39.55078125,-17.02880859375,38.63525390625,-0.110107421875,-0.0013427734375,-0.0726318359375
1.844,310,496,477,309,0.0,35.0,43.0,-44.311519622802734,-25.878904342651367,41.076656341552734,-0.110107421875,-0.0013427734375,-0.0726318359375
1.859,308,538,551,310,0.0,35.0,43.0,-43.701168060302734,-47.058101654052734,32.04345703125,0.3125,-0.071533203125,0.0325927734375
1.868,310,572,640,310,0.0,35.0,43.0,-43.701168060302734,-47.058101654052734,32.04345703125,0.280517578125,-0.010986328125,0.2152099609375
1.894,310,607,717,311,0.0,35.0,43.0,-26.428220748901367,-59.326168060302734,12.756346702575684,0.280517578125,-0.010986328125,0.2152099609375
1.903,310,698,859,312,0.0,35.0,43.0,11.352538108825684,-69.580078125,-51.086421966552734,-0.5072021484375,0.4249267578125,0.4991455078125
1.919,308,749,917,312,1.0,32.0,48.0,11.352538108825684,-69.580078125,-51.086421966552734,-1.3187255859375,0.8939208984375,0.42431640625
1.941,312,767,996,308,1.0,32.0,48.0,9.46044921875,-50.598140716552734,-69.03076171875,-2.020751953125,1.4398193359375,0.3182373046875
1.952,311,806,1065,312,1.0,32.0,48.0,-16.845703125,-30.761716842651367,-61.279293060302734,-2.020751953125,1.4398193359375,0.3182373046875
1.967,310,832,1147,310,1.0,32.0,48.0,-82.76366424560547,-38.87939453125,-38.63525390625,-1.99755859375,0.6201171875,0.9256591796875
1.993,309,846,1162,314,1.0,32.0,48.0,-82.76366424560547,-38.87939453125,-38.63525390625,-2.13916015625,0.1044921875,1.0009765625
2.007,310,827,1127,310,1.0,32.0,48.0,-62.805171966552734,-38.26904296875,-48.522945404052734,-2.2119140625,-0.0703125,0.8084716796875
2.015,310,822,1131,312,1.0,32.0,48.0,31.188962936401367,-9.46044921875,-39.794921875,-1.7208251953125,-0.01953125,0.4781494140625
2.033,310,818,1131,311,1.0,32.0,48.0,64.14794921875,6.347655773162842,-28.320310592651367,-1.3206787109375,0.3275146484375,0.2476806640625
2.048,310,809,1117,310,1.0,32.0,48.0,64.14794921875,6.347655773162842,-28.320310592651367,-1.59326171875,0.73876953125,0.27001953125
2.051,309,785,1079,312,1.0,32.0,48.0,5.0048828125,27.770994186401367,-14.465331077575684,-1.9488525390625,0.707275390625,0.397705078125
2.055,311,766,1035,312,3.0,32.0,46.0,-35.888671875,33.69140625,-7.690429210662842,-1.998779296875,0.3341064453125,0.46875
2.064,310,745,973,311,3.0,32.0,46.0,-35.888671875,33.69140625,-7.690429210662842,-1.8355712890625,0.0855712890625,0.445068359375
2.068,309,683,819,310,3.0,32.0,46.0,-26.916501998901367,31.005857467651367,17.02880859375,-1.6463623046875,0.1124267578125,0.3477783203125
2.073,310,644,723,310,3.0,32.0,46.0,-4.33349609375,33.87451171875,33.63037109375,-1.45263671875,0.2608642578125,0.274169921875
2.095,310,604,634,298,3.0,32.0,46.0,-4.33349609375,33.87451171875,33.63037109375,-1.1927490234375,0.303955078125,0.295166015625
2.096,308,540,476,308,3.0,32.0,46.0,7.202147960662842,40.588375091552734,64.88037109375,-0.8629150390625,0.1888427734375,0.3546142578125
2.096,309,504,414,295,3.0,32.0,46.0,5.920409679412842,40.893550872802734,75.5615234375,-0.5054931640625,0.0367431640625,0.348876953125
2.097,308,454,401,310,3.0,32.0,46.0,11.047362327575684,39.4287109375,77.57568359375,-0.16162109375,-0.08203125,0.3114013671875
2.098,310,437,386,308,3.0,32.0,46.0,11.047362327575684,39.4287109375,77.57568359375,0.1041259765625,-0.183349609375,0.31201171875
2.098,310,408,377,310,3.0,32.0,46.0,54.321285247802734,33.38623046875,36.2548828125,0.1903076171875,-0.14453125,0.2813720703125
2.099,310,374,372,296,-2.0,34.0,42.0,79.2236328125,36.0107421875,3.784179449081421,0.025390625,0.0960693359375,0.1011962890625
2.105,312,394,382,310,-2.0,34.0,42.0,92.89550018310547,41.931148529052734,-20.202634811401367,-0.280517578125,0.4058837890625,-0.1124267578125
2.118,310,380,381,309,-2.0,34.0,42.0,90.82030487060547,41.687007904052734,-28.991697311401367,-0.5198974609375,0.703125,-0.1995849609375
2.126,310,378,379,310,-2.0,34.0,42.0,69.4580078125,31.311033248901367,-26.733396530151367,-0.65185546875,0.8787841796875,-0.176025390625
2.151,310,377,378,309,-2.0,34.0,42.0,34.912109375,17.08984375,-23.071287155151367,-0.699951171875,0.81103515625,-0.0831298828125
2.151,310,379,379,295,-2.0,34.0,42.0,-0.30517578125,7.751464366912842,-23.864744186401367,-0.708740234375,0.5406494140625,-0.002197265625
2.156,308,377,379,308,-2.0,34.0,42.0,-23.559568405151367,6.958007335662842,-27.404783248901367,-0.76171875,0.26806640625,0.035400390625
2.167,310,372,394,310,-2.0,34.0,42.0,-31.311033248901367,8.4228515625,-28.503416061401367,-0.8284912109375,0.099609375,0.06787109375
2.197,308,377,398,310,-2.0,34.0,42.0,-30.822751998901367,6.408690929412842,-23.986814498901367,-0.8602294921875,0.0177001953125,0.0989990234375
2.197,310,377,401,309,-2.0,34.0,42.0,-28.198240280151367,2.25830078125,-14.831542015075684,-0.884765625,0.0260009765625,0.13232421875
2.198,310,380,402,308,1.0,34.0,44.0,-26.062009811401367,-2.44140625,-3.784179449081421,-0.9105224609375,0.07861328125,0.1761474609375
2.203,310,383,411,310,1.0,34.0,44.0,-25.085447311401367,-6.225585460662842,6.652831554412842,-0.92724609375,0.093505859375,0.1949462890625
2.217,309,386,414,310,1.0,34.0,44.0,-24.536130905151367,-7.568358898162842,16.845703125,-0.931884765625,0.0748291015625,0.1922607421875
2.225,309,396,419,310,1.0,34.0,44.0,-24.291990280151367,-6.835937023162842,28.137205123901367,-0.922607421875,0.060546875,0.2152099609375
2.240,309,399,428,310,1.0,34.0,44.0,-22.949216842651367,-5.737304210662842,40.0390625,-0.914306640625,0.0709228515625,0.254150390625
2.270,309,406,444,311,1.0,34.0,44.0,-19.83642578125,-5.065917491912842,52.185054779052734,-0.8983154296875,0.1068115234375,0.268798828125
2.272,310,410,456,309,1.0,34.0,44.0,-16.4794921875,-4.8828125,63.720699310302734,-0.8486328125,0.148193359375,0.2469482421875
2.275,310,419,456,298,1.0,34.0,44.0,-14.831542015075684,-5.310058116912842,73.30322265625,-0.7645263671875,0.1778564453125,0.20947265625
2.299,310,449,475,310,1.0,34.0,44.0,-15.014647483825684,-5.981444835662842,80.078125,-0.5994873046875,0.1552734375,0.1502685546875
2.302,309,473,473,309,1.0,34.0,44.0,-11.901854515075684,-7.446288585662842,81.42089080810547,-0.300048828125,0.05322265625,0.0665283203125
2.304,310,495,473,308,-1.0,38.0,42.0,1.4648436307907104,-12.756346702575684,74.5849609375,0.113037109375,-0.1025390625,0.0552978515625
2.310,310,551,538,310,-1.0,38.0,42.0,27.160642623901367,-22.460935592651367,58.288570404052734,0.5567626953125,-0.248779296875,0.1231689453125
2.320,310,578,636,310,-1.0,38.0,42.0,59.753414154052734,-35.70556640625,29.174802780151367,0.7642822265625,-0.211669921875,0.1165771484375
2.328,311,622,684,310,-1.0,38.0,42.0,85.26610565185547,-48.645015716552734,-9.8876953125,0.481201171875,0.1424560546875,0.023681640625
2.345,310,717,756,310,-1.0,38.0,42.0,83.80126190185547,-51.208492279052734,-44.128414154052734,-0.2542724609375,0.729248046875,-0.088623046875
2.349,310,733,784,310,-1.0,38.0,42.0,48.278804779052734,-36.9873046875,-52.917476654052734,-1.259521484375,1.5845947265625,-0.33203125
2.379,310,796,854,311,-1.0,38.0,42.0,-8.30078125,-11.230467796325684,-31.372068405151367,-2.0189208984375,2.2847900390625,-0.50439453125
2.399,310,840,1132,311,-1.0,38.0,42.0,-75.62255859375,2.868652105331421,-11.169432640075684,-2.204345703125,1.9083251953125,-0.1004638671875
2.402,308,861,1191,310,-1.0,38.0,42.0,-137.39013671875,-8.97216796875,-13.061522483825684,-2.337646484375,0.743408203125,0.8468017578125
2.404,311,846,1087,310,-1.0,38.0,42.0,-160.94969177246094,-32.5927734375,-16.54052734375,-2.599365234375,-0.3577880859375,1.6270751953125
2.407,309,858,1064,312,0.0,34.0,44.0,-115.66161346435547,-41.137691497802734,-7.446288585662842,-2.3819580078125,-0.8988037109375,1.5399169921875
2.411,297,835,1063,298,0.0,34.0,44.0,-0.1831054538488388,-19.775390625,6.286620616912842,-1.697021484375,-0.4237060546875,0.764892578125
2.419,310,840,1021,311,0.0,34.0,44.0,106.14012908935547,12.207030296325684,17.9443359375,-1.472412109375,0.8868408203125,0.1124267578125
2.425,309,822,982,310,0.0,34.0,44.0,105.10253143310547,31.188962936401367,26.733396530151367,-1.7333984375,1.625,-0.0416259765625
2.444,310,771,933,311,0.0,34.0,44.0,28.198240280151367,36.92626953125,27.221677780151367,-1.8248291015625,1.16943359375,0.0986328125
2.447,310,741,865,312,0.0,34.0,44.0,-28.137205123901367,34.66796875,23.071287155151367,-1.7100830078125,0.519775390625,0.2587890625
2.455,310,711,827,311,0.0,34.0,44.0,-36.92626953125,28.076169967651367,23.315427780151367,-1.5589599609375,0.1767578125,0.331298828125
2.482,309,653,691,310,0.0,34.0,44.0,-16.66259765625,23.498533248901367,27.160642623901367,-1.43798828125,0.0985107421875,0.321533203125
2.483,310,607,621,310,0.0,34.0,44.0,12.878417015075684,22.766111373901367,34.97314453125,-1.2921142578125,0.251953125,0.273193359375
2.501,309,554,538,309,0.0,34.0,44.0,34.7900390625,22.094724655151367,46.691890716552734,-1.0413818359375,0.430908203125,0.26904296875
2.503,309,521,438,308,-1.0,33.0,42.0,40.832515716552734,20.507810592651367,54.809566497802734,-0.2679443359375,0.357177734375,0.293212890625
2.506,308,483,417,310,-1.0,33.0,42.0,38.14697265625,21.423337936401367,51.391597747802734,-0.2679443359375,0.357177734375,0.293212890625
2.517,310,456,411,310,-1.0,33.0,42.0,38.57421875,23.498533248901367,32.53173828125,0.0384521484375,0.2042236328125,0.2398681640625
2.528,309,433,399,310,-1.0,33.0,42.0,46.386714935302734,24.963376998901367,1.7700194120407104,0.11572265625,0.23388671875,-0.0186767578125
2.537,311,423,384,310,-1.0,33.0,42.0,57.312007904052734,27.465818405151367,-27.099607467651367,0.11572265625,0.23388671875,-0.0186767578125
2.550,310,411,391,308,-1.0,33.0,42.0,64.14794921875,28.808591842651367,-42.541500091552734,-0.1436767578125,0.3948974609375,-0.0531005859375
2.558,310,402,379,310,-1.0,33.0,42.0,48.889156341552734,26.367185592651367,-42.053218841552734,-0.6239013671875,0.5615234375,-0.106689453125
2.582,310,402,371,310,-1.0,33.0,42.0,48.889156341552734,26.367185592651367,-42.053218841552734,-0.712890625,0.58056640625,-0.1160888671875
2.582,310,402,371,309,-1.0,33.0,42.0,38.39111328125,24.047849655151367,-39.12353515625,-0.712890625,0.58056640625,-0.1160888671875
2.602,310,400,372,310,-1.0,33.0,42.0,10.559081077575684,7.263183116912842,-43.212886810302734,-0.8284912109375,0.3958740234375,0.056640625
2.603,310,399,380,310,-1.0,38.0,42.0,10.559081077575684,7.263183116912842,-43.212886810302734,-0.8460693359375,0.29296875,0.126220703125
2.604,310,395,382,309,-1.0,38.0,42.0,0.2441406100988388,1.03759765625,-45.532222747802734,-0.8460693359375,0.29296875,0.126220703125
2.619,310,394,386,310,-1.0,38.0,42.0,-2.0751953125,-2.197265625,-42.907711029052734,-0.89794921875,0.265380859375,0.1414794921875
2.626,310,393,391,310,-1.0,38.0,42.0,-2.0751953125,-2.197265625,-42.907711029052734,-0.89990234375,0.2279052734375,0.138916015625
2.634,310,394,394,308,-1.0,38.0,42.0,-2.25830078125,-2.0751953125,-41.442867279052734,-0.89990234375,0.2279052734375,0.138916015625
2.650,310,393,395,310,-1.0,38.0,42.0,-7.995604991912842,-3.051757574081421,-33.02001953125,-0.93017578125,0.20849609375,0.14990234375
2.656,310,391,394,310,-1.0,38.0,42.0,-7.995604991912842,-3.051757574081421,-33.02001953125,-0.934326171875,0.21142578125,0.1395263671875
2.664,310,393,391,310,-1.0,38.0,42.0,-9.46044921875,-3.356933355331421,-25.268552780151367,-0.934326171875,0.21142578125,0.1395263671875
2.687,310,393,393,310,-1.0,38.0,42.0,-6.530761241912842,-2.0751953125,-9.70458984375,-0.9053955078125,0.2152099609375,0.1116943359375
2.693,310,396,391,308,-1.0,38.0,42.0,-6.530761241912842,-2.0751953125,-9.70458984375,-0.8931884765625,0.24072265625,0.1094970703125
2.706,310,400,393,310,-1.0,34.0,43.0,-5.920409679412842,-2.25830078125,-2.38037109375,-0.8931884765625,0.24072265625,0.1094970703125
2.708,310,407,393,310,-1.0,34.0,43.0,-13.732909202575684,-4.94384765625,9.3994140625,-0.8468017578125,0.27001953125,0.0833740234375
2.716,310,411,395,309,-1.0,34.0,43.0,-20.385740280151367,-7.202147960662842,14.587401390075684,-0.781494140625,0.25341796875,0.0404052734375
2.724,311,419,402,310,-1.0,34.0,43.0,-20.385740280151367,-7.202147960662842,14.587401390075684,-0.679443359375,0.225830078125,-0.034912109375
2.738,310,435,423,310,-1.0,34.0,43.0,-29.907224655151367,-17.08984375,26.245115280151367,-0.5279541015625,0.2059326171875,-0.09130859375
2.752,310,456,435,310,-1.0,34.0,43.0,-33.50830078125,-25.512693405151367,30.151365280151367,-0.3016357421875,0.16259765625,-0.1436767578125
2.757,310,481,437,310,-1.0,34.0,43.0,-33.50830078125,-25.512693405151367,30.151365280151367,-0.0360107421875,0.0980224609375,-0.205078125
2.770,310,533,465,311,-1.0,34.0,43.0,-38.6962890625,-40.344234466552734,30.395505905151367,0.2373046875,0.040771484375,-0.189697265625
2.801,310,572,540,312,-1.0,34.0,43.0,-41.748043060302734,-45.349117279052734,24.108884811401367,0.436279296875,0.0279541015625,-0.075439453125
2.811,310,601,652,310,-1.0,34.0,43.0,-41.748043060302734,-45.349117279052734,24.108884811401367,0.386962890625,0.1622314453125,0.1334228515625
2.821,312,664,865,312,-1.0,35.0,42.0,-37.53662109375,-55.236812591552734,-28.076169967651367,0.025390625,0.405517578125,0.4539794921875
2.831,310,716,1000,311,-1.0,35.0,42.0,-47.912593841552734,-53.283687591552734,-67.19970703125,-0.521728515625,0.549072265625,0.69677734375
2.841,310,756,1101,312,-1.0,35.0,42.0,-47.912593841552734,-53.283687591552734,-67.19970703125,-1.2186279296875,0.7186279296875,0.622314453125
2.846,294,806,1251,312,-1.0,35.0,42.0,-82.82469940185547,-17.9443359375,-84.28954315185547,-1.911865234375,1.0654296875,0.4122314453125
2.854,309,823,1338,310,-1.0,35.0,42.0,-98.20555877685547,-18.310546875,-61.279293060302734,-2.3323974609375,1.030029296875,0.486572265625
2.857,310,865,1374,298,-1.0,35.0,42.0,-98.20555877685547,-18.310546875,-61.279293060302734,-2.5648193359375,0.376708984375,0.7039794921875
2.860,314,830,1348,311,-1.0,35.0,42.0,-89.41649627685547,-33.63037109375,-44.494625091552734,-2.718994140625,-0.1142578125,0.6746826171875
2.868,309,840,1349,312,-1.0,35.0,42.0,-31.799314498901367,-27.404783248901367,-33.63037109375,-2.306396484375,-0.1201171875,0.48095703125
2.874,310,827,1333,312,-1.0,35.0,42.0,30.639646530151367,-21.362302780151367,-18.6767578125,-1.2918701171875,0.0933837890625,0.36767578125
2.912,310,794,1264,311,3.0,34.0,44.0,63.110347747802734,-11.657713890075684,-15.258788108825684,-0.6011962890625,0.4942626953125,0.419677734375
2.922,310,785,1271,311,3.0,34.0,44.0,42.358394622802734,6.958007335662842,-20.01953125,-0.5797119140625,0.6710205078125,0.4703369140625
2.933,310,784,1266,311,3.0,34.0,44.0,-4.82177734375,29.541013717651367,-26.245115280151367,-0.9659423828125,0.480712890625,0.439208984375
2.938,310,779,1226,312,3.0,34.0,44.0,-34.85107421875,42.541500091552734,-28.686521530151367,-1.49169921875,0.31494140625,0.3905029296875
2.942,310,764,1184,311,3.0,34.0,44.0,-41.381832122802734,40.588375091552734,-23.071287155151367,-1.793212890625,0.219970703125,0.300537109375
2.947,299,730,1109,310,3.0,34.0,44.0,-29.907224655151367,29.907224655151367,-12.573241233825684,-1.69384765625,0.1336669921875,0.223876953125
2.958,308,723,1078,310,3.0,34.0,44.0,-9.21630859375,16.845703125,-1.0986328125,-1.3592529296875,0.071044921875,0.23583984375
2.960,310,715,989,296,3.0,34.0,44.0,10.192870140075684,7.141112804412842,10.192870140075684,-1.04541015625,0.0726318359375,0.2901611328125
2.966,310,705,939,312,3.0,34.0,44.0,23.315427780151367,4.57763671875,19.775390625,-0.872802734375,0.1771240234375,0.3179931640625
2.974,310,691,882,312,3.0,34.0,44.0,28.808591842651367,7.934569835662842,24.963376998901367,-0.798095703125,0.3436279296875,0.3167724609375
2.988,309,675,795,310,3.0,32.0,44.0,26.000974655151367,13.244627952575684,24.169919967651367,-0.735107421875,0.425048828125,0.2811279296875
3.020,310,666,756,310,3.0,32.0,44.0,18.5546875,18.12744140625,18.310546875,-0.665771484375,0.37158203125,0.18994140625
3.020,310,654,716,310,3.0,32.0,44.0,13.244627952575684,20.01953125,10.314940452575684,-0.623779296875,0.29052734375,0.082275390625
3.021,310,635,673,310,3.0,32.0,44.0,11.169432640075684,17.9443359375,3.540038824081421,-0.6170654296875,0.2586669921875,0.01611328125
3.027,309,620,657,310,3.0,32.0,44.0,8.544921875,13.854979515075684,-0.54931640625,-0.63330078125,0.257568359375,0.0194091796875
3.034,310,614,644,308,3.0,32.0,44.0,4.94384765625,9.21630859375,-2.563476324081421,-0.6685791015625,0.2401123046875,0.1024169921875
3.050,309,593,618,310,3.0,32.0,44.0,2.01416015625,5.493163585662842,-3.784179449081421,-0.7354736328125,0.209716796875,0.22705078125
3.058,310,582,604,310,3.0,32.0,44.0,1.03759765625,4.57763671875,-4.08935546875,-0.848876953125,0.1961669921875,0.321044921875
3.065,310,583,585,312,3.0,32.0,44.0,1.03759765625,6.530761241912842,-1.8310545682907104,-0.9903564453125,0.1903076171875,0.3599853515625
3.078,310,568,546,311,3.0,32.0,44.0,1.4648436307907104,9.94873046875,3.723144292831421,-1.1209716796875,0.1806640625,0.3590087890625
3.094,309,558,523,311,1.0,37.0,47.0,2.38037109375,13.488768577575684,11.840819358825684,-1.201904296875,0.183837890625,0.3343505859375
3.121,310,543,493,310,1.0,37.0,47.0,4.45556640625,16.357421875,20.507810592651367,-1.2174072265625,0.2012939453125,0.29833984375
3.121,310,518,451,310,1.0,37.0,47.0,8.30078125,18.00537109375,27.954099655151367,-1.171875,0.203369140625,0.260009765625
3.121,309,509,423,296,1.0,37.0,47.0,15.014647483825684,17.4560546875,32.89794921875,-1.0782470703125,0.160888671875,0.2392578125
3.124,309,495,419,310,1.0,37.0,47.0,25.634763717651367,15.136717796325684,33.87451171875,-0.9698486328125,0.0958251953125,0.2435302734375
3.138,310,475,410,310,1.0,37.0,47.0,39.61181640625,13.854979515075684,31.127927780151367,-0.88525390625,0.0718994140625,0.2510986328125
3.146,310,465,402,310,1.0,37.0,47.0,52.734371185302734,15.441893577575684,26.306150436401367,-0.83251953125,0.1082763671875,0.2376708984375
3.166,310,446,393,310,1.0,37.0,47.0,60.485836029052734,18.98193359375,21.545408248901367,-0.8057861328125,0.194580078125,0.2041015625
3.168,296,424,393,310,1.0,37.0,47.0,61.950679779052734,22.705076217651367,18.37158203125,-0.708251953125,0.4178466796875,0.064208984375
3.176,309,423,393,310,1.0,37.0,47.0,59.570308685302734,24.902341842651367,16.4794921875,-0.708251953125,0.4178466796875,0.064208984375
3.190,310,407,393,310,1.0,37.0,47.0,55.358882904052734,24.963376998901367,14.221190452575684,-0.661865234375,0.502685546875,-0.0030517578125
3.198,309,396,391,310,0.0,37.0,48.0,47.729488372802734,21.789548873901367,10.925292015075684,-0.6351318359375,0.56787109375,0.018798828125
3.224,310,393,391,310,0.0,37.0,48.0,34.5458984375,16.11328125,6.958007335662842,-0.6351318359375,0.56787109375,0.018798828125
3.225,310,395,394,310,0.0,37.0,48.0,18.49365234375,10.437010765075684,2.868652105331421,-0.64794921875,0.564453125,0.02783203125
3.228,310,393,396,310,0.0,37.0,48.0,4.21142578125,5.310058116912842,-1.15966796875,-0.74072265625,0.4459228515625,0.03466796875
3.236,308,394,402,310,0.0,37.0,48.0,-6.530761241912842,1.0986328125,-5.493163585662842,-0.74072265625,0.4459228515625,0.03466796875
3.244,309,396,405,308,0.0,37.0,48.0,-13.366698265075684,-1.4648436307907104,-9.58251953125,-0.782958984375,0.3350830078125,0.023193359375
3.272,310,408,407,310,0.0,37.0,48.0,-16.78466796875,-3.601073980331421,-11.169432640075684,-0.751953125,0.193603515625,-0.0189208984375
3.274,310,414,402,310,0.0,37.0,48.0,-18.49365234375,-7.324218273162842,-9.1552734375,-0.751953125,0.193603515625,-0.0189208984375
3.278,310,423,414,310,0.0,37.0,48.0,-20.080564498901367,-12.878417015075684,-4.39453125,-0.6859130859375,0.1473388671875,-0.015380859375
3.298,310,434,430,310,0.0,34.0,40.0,-23.864744186401367,-19.22607421875,2.44140625,-0.645263671875,0.19873046875,0.0103759765625
3.299,309,437,465,310,0.0,34.0,40.0,-32.5927734375,-25.268552780151367,11.901854515075684,-0.645263671875,0.19873046875,0.0103759765625
3.322,310,447,497,310,0.0,34.0,40.0,-47.424312591552734,-31.005857467651367,24.536130905151367,-0.6165771484375,0.1934814453125,0.0159912109375
3.323,309,485,548,310,0.0,34.0,40.0,-66.650390625,-45.776363372802734,45.471187591552734,-0.167236328125,-0.111572265625,-0.0162353515625
3.326,310,513,578,309,0.0,34.0,40.0,-66.650390625,-45.776363372802734,45.471187591552734,0.17626953125,-0.28955078125,0.1365966796875
3.334,310,549,604,310,0.0,34.0,40.0,-49.072261810302734,-57.678218841552734,46.081539154052734,0.17626953125,-0.28955078125,0.1365966796875
3.348,311,606,695,314,0.0,34.0,40.0,19.775390625,-77.81982421875,11.352538108825684,0.52001953125,-0.3914794921875,0.5911865234375
3.356,311,654,773,312,0.0,34.0,40.0,19.775390625,-77.81982421875,11.352538108825684,0.15234375,-0.0845947265625,0.677490234375
3.434,310,705,818,311,0.0,34.0,40.0,48.034664154052734,-79.1015625,-24.108884811401367,0.15234375,-0.0845947265625,0.677490234375
3.437,310,785,942,311,0.0,34.0,40.0,38.63525390625,-32.71484375,-59.631343841552734,-1.688232421875,1.44970703125,0.069091796875
3.437,296,827,1038,308,1.0,31.0,44.0,38.63525390625,-32.71484375,-59.631343841552734,-2.346923828125,1.9747314453125,-0.080078125
3.437,310,859,1173,312,1.0,31.0,44.0,-9.033203125,-10.620116233825684,-38.26904296875,-2.346923828125,1.9747314453125,-0.080078125
3.437,309,869,1219,299,1.0,31.0,44.0,-104.91942596435547,-22.521970748901367,-27.038572311401367,-2.7506103515625,0.6077880859375,0.9063720703125
3.437,310,862,1178,310,1.0,31.0,44.0,-104.91942596435547,-22.521970748901367,-27.038572311401367,-2.602783203125,-0.3018798828125,1.1566162109375
3.437,310,861,1122,300,1.0,31.0,44.0,-81.90917205810547,-31.066892623901367,-38.63525390625,-2.602783203125,-0.3018798828125,1.1566162109375
3.441,310,859,1163,312,1.0,31.0,44.0,75.86669921875,-25.512693405151367,-23.559568405151367,-0.9498291015625,0.111572265625,0.3541259765625
3.449,310,849,1173,312,1.0,31.0,44.0,75.86669921875,-25.512693405151367,-23.559568405151367,-1.2232666015625,1.1219482421875,0.217529296875
3.454,310,835,1175,312,1.0,31.0,44.0,104.61425018310547,-12.878417015075684,-13.488768577575684,-1.2232666015625,1.1219482421875,0.217529296875
3.468,310,813,1143,312,1.0,31.0,44.0,-15.014647483825684,29.418943405151367,-20.996091842651367,-2.026611328125,0.7259521484375,0.42822265625
3.480,311,790,1104,310,1.0,31.0,44.0,-46.142574310302734,32.71484375,-27.648923873901367,-1.8709716796875,0.18310546875,0.4652099609375
3.484,311,763,1037,312,-2.0,32.0,47.0,-46.142574310302734,32.71484375,-27.648923873901367,-1.65478515625,0.0753173828125,0.421630859375
3.503,312,707,918,311,-2.0,32.0,47.0,-6.835937023162842,21.667478561401367,-7.934569835662842,-1.506591796875,0.2161865234375,0.359375
3.506,308,656,816,311,-2.0,32.0,47.0,14.221190452575684,23.925779342651367,4.7607421875,-1.36474609375,0.381103515625,0.30615234375
3.535,310,613,730,310,-2.0,32.0,47.0,14.221190452575684,23.925779342651367,4.7607421875,-1.1246337890625,0.42578125,0.2896728515625
3.535,309,530,605,298,-2.0,32.0,47.0,17.15087890625,32.2265625,26.184080123901367,-0.7703857421875,0.27099609375,0.2919921875
3.536,308,502,533,310,-2.0,32.0,47.0,9.82666015625,32.04345703125,34.60693359375,-0.368896484375,0.022705078125,0.24658203125
3.544,310,473,477,311,-2.0,32.0,47.0,9.82666015625,32.04345703125,34.60693359375,-0.0008544921875,-0.2015380859375,0.21533203125
3.559,310,449,423,309,-2.0,32.0,47.0,17.4560546875,23.498533248901367,27.893064498901367,0.213623046875,-0.303955078125,0.2762451171875
3.571,310,424,428,310,-2.0,32.0,47.0,38.2080078125,17.4560546875,2.25830078125,0.1470947265625,-0.173095703125,0.3065185546875
3.575,310,414,428,309,-2.0,32.0,47.0,38.2080078125,17.4560546875,2.25830078125,-0.146728515625,0.1231689453125,0.142333984375
3.588,310,402,420,309,0.0,34.0,47.0,64.208984375,34.85107421875,-43.457027435302734,-0.4610595703125,0.40869140625,-0.10693359375
3.606,310,399,415,310,0.0,34.0,47.0,60.852046966552734,44.189449310302734,-41.381832122802734,-0.6351318359375,0.6114501953125,-0.2044677734375
3.608,310,394,417,309,0.0,34.0,47.0,60.852046966552734,44.189449310302734,-41.381832122802734,-0.6715087890625,0.68359375,-0.13037109375
3.628,308,396,425,309,0.0,34.0,47.0,13.244627952575684,22.460935592651367,-20.690916061401367,-0.6810302734375,0.5765380859375,-0.0113525390625
3.629,296,383,437,310,0.0,34.0,47.0,-15.808104515075684,10.681151390075684,-18.6767578125,-0.7275390625,0.3575439453125,0.0777587890625
3.643,310,400,435,308,0.0,34.0,47.0,-32.53173828125,5.737304210662842,-20.263669967651367,-0.8106689453125,0.1690673828125,0.1226806640625
3.649,308,401,437,308,0.0,34.0,47.0,-32.53173828125,4.2724609375,-20.202634811401367,-0.8765869140625,0.0777587890625,0.1358642578125
3.656,310,399,440,309,0.0,34.0,47.0,-21.240232467651367,2.624511480331421,-16.54052734375,-0.9146728515625,0.0797119140625,0.142333984375
3.664,310,401,447,310,0.0,34.0,47.0,-9.765625,-0.9155272841453552,-10.620116233825684,-0.9459228515625,0.138671875,0.177490234375
3.680,310,399,451,310,0.0,34.0,47.0,-6.713866710662842,-5.798339366912842,-4.5166015625,-0.9635009765625,0.1707763671875,0.2335205078125
3.686,310,399,454,310,1.0,33.0,47.0,-11.047362327575684,-9.6435546875,1.2817381620407104,-0.9630126953125,0.1474609375,0.2752685546875
3.711,309,401,457,310,1.0,33.0,47.0,-15.258788108825684,-11.657713890075684,8.36181640625,-0.9366455078125,0.1046142578125,0.28857421875
3.712,310,401,456,310,1.0,33.0,47.0,-13.732909202575684,-12.145995140075684,17.7001953125,-0.898193359375,0.07177734375,0.26513671875
3.738,310,402,467,310,1.0,33.0,47.0,-8.30078125,-11.535643577575684,28.991697311401367,-0.8680419921875,0.0848388671875,0.2158203125
3.750,308,402,488,309,1.0,33.0,47.0,-6.591796398162842,-10.314940452575684,40.893550872802734,-0.833984375,0.13525390625,0.1571044921875
3.751,296,421,517,308,1.0,33.0,47.0,-12.512206077575684,-9.8876953125,51.452632904052734,-0.7080078125,0.1392822265625,0.081787109375
3.751,310,441,531,308,1.0,33.0,47.0,-19.53125,-13.061522483825684,58.044429779052734,-0.43115234375,0.0648193359375,0.02197265625
3.755,309,469,535,311,1.0,33.0,47.0,-18.310546875,-21.972654342651367,58.837886810302734,-0.017578125,-0.03173828125,-0.0321044921875
3.775,310,527,561,309,1.0,33.0,47.0,-5.0048828125,-34.97314453125,51.635738372802734,0.4957275390625,-0.0938720703125,-0.068359375
3.777,311,543,657,310,1.0,33.0,47.0,22.033689498901367,-50.048824310302734,30.212400436401367,0.9364013671875,-0.080810546875,-0.0335693359375
3.784,310,616,767,310,1.0,34.0,47.0,54.016109466552734,-62.377925872802734,-8.4228515625,0.906494140625,0.125244140625,-0.0374755859375
3.805,310,718,952,311,1.0,34.0,47.0,59.997554779052734,-65.00244140625,-52.185054779052734,0.27490234375,0.4361572265625,0.0074462890625
3.806,309,782,1063,299,1.0,34.0,47.0,22.766111373901367,-54.138179779052734,-82.15331268310547,-0.72216796875,0.75146484375,0.1680908203125
3.833,310,835,1176,311,1.0,34.0,47.0,-31.127927780151367,-32.470703125,-84.28954315185547,-1.841796875,1.299072265625,0.2015380859375
3.838,310,902,1318,314,1.0,34.0,47.0,-81.72606658935547,-19.10400390625,-64.8193359375,-2.413330078125,1.644287109375,0.3304443359375
3.854,308,905,1380,308,1.0,34.0,47.0,-125.67137908935547,-28.625486373901367,-55.114742279052734,-2.3424072265625,1.006591796875,0.8353271484375
3.855,297,935,1369,300,1.0,34.0,47.0,-132.01904296875,-42.358394622802734,-67.44384765625,-2.38623046875,-0.0538330078125,1.2730712890625
3.855,310,912,1326,312,1.0,34.0,47.0,-77.81982421875,-40.222164154052734,-74.64599609375,-2.63671875,-0.547119140625,1.225830078125
3.868,308,902,1325,311,1.0,34.0,47.0,10.681151390075684,-28.808591842651367,-55.908199310302734,-2.2200927734375,-0.3995361328125,0.7740478515625
3.879,310,893,1335,312,1.0,34.0,47.0,88.98925018310547,-15.258788108825684,-29.968259811401367,-1.2904052734375,0.1270751953125,0.2705078125
3.886,310,888,1323,312,2.0,32.0,48.0,110.22948455810547,0.30517578125,-18.98193359375,-1.11279296875,0.7362060546875,0.1246337890625
3.897,310,871,1300,312,2.0,32.0,48.0,55.297847747802734,16.78466796875,-17.7001953125,-1.626220703125,0.8857421875,0.3126220703125
3.907,308,854,1279,312,2.0,32.0,48.0,-19.6533203125,29.724119186401367,-16.05224609375,-1.9854736328125,0.478271484375,0.518310546875
3.913,310,818,1228,312,2.0,32.0,48.0,-52.673336029052734,33.50830078125,-9.765625,-1.9713134765625,0.079345703125,0.587890625
3.934,310,762,1129,312,2.0,32.0,48.0,-44.433589935302734,32.04345703125,3.723144292831421,-1.8197021484375,0.019287109375,0.5020751953125
3.935,310,717,1039,311,2.0,32.0,48.0,-22.583005905151367,32.28759765625,21.179197311401367,-1.6883544921875,0.1527099609375,0.374755859375
3.944,310,673,960,314,2.0,32.0,48.0,-5.920409679412842,35.2783203125,38.26904296875,-1.544921875,0.2998046875,0.3072509765625
3.959,310,600,739,310,2.0,32.0,48.0,-0.2441406100988388,40.10009765625,55.603023529052734,-1.30908203125,0.3448486328125,0.328857421875
3.965,310,551,623,310,2.0,32.0,48.0,-3.662109136581421,43.823238372802734,72.20458984375,-0.93505859375,0.1815185546875,0.377685546875
3.978,310,517,552,309,2.0,32.0,48.0,-5.859374523162842,43.457027435302734,82.03124237060547,-0.4346923828125,-0.044921875,0.3291015625
3.987,310,469,454,310,1.0,33.0,45.0,5.920409679412842,38.26904296875,76.96533203125,0.052734375,-0.1951904296875,0.246337890625
3.997,310,447,435,311,1.0,33.0,45.0,31.311033248901367,31.066892623901367,53.161617279052734,0.32861328125,-0.253173828125,0.2354736328125
4.009,310,428,424,310,1.0,33.0,45.0,57.067867279052734,29.235837936401367,16.9677734375,0.2750244140625,-0.1307373046875,0.2139892578125
4.017,310,402,407,310,1.0,33.0,45.0,72.3876953125,37.109375,-16.41845703125,-0.4163818359375,0.4676513671875,-0.1383056640625
4.033,310,399,399,310,1.0,33.0,45.0,76.72119140625,49.987789154052734,-34.3017578125,-0.4163818359375,0.4676513671875,-0.1383056640625
4.042,310,396,400,310,1.0,33.0,45.0,69.51904296875,55.114742279052734,-34.7900390625,-0.6419677734375,0.703369140625,-0.2012939453125
4.047,310,394,413,310,1.0,33.0,45.0,46.142574310302734,45.837398529052734,-25.939939498901367,-0.7435302734375,0.6314697265625,0.018310546875
4.071,308,394,411,310,1.0,33.0,45.0,11.108397483825684,30.456541061401367,-18.61572265625,-0.7435302734375,0.6314697265625,0.018310546875
4.072,314,394,419,310,1.0,33.0,45.0,-21.728513717651367,19.8974609375,-17.4560546875,-0.756103515625,0.36181640625,0.1181640625
4.081,308,398,419,310,1.0,33.0,45.0,-39.9169921875,15.991209983825684,-19.6533203125,-0.8345947265625,-0.0133056640625,0.1998291015625
4.085,310,396,426,308,1.0,31.0,44.0,-37.29248046875,14.038084983825684,-20.507810592651367,-0.8345947265625,-0.0133056640625,0.1998291015625
4.095,310,395,425,310,1.0,31.0,44.0,-19.1650390625,10.986327171325684,-17.2119140625,-0.912109375,0.0174560546875,0.192138671875
4.112,308,391,427,310,1.0,31.0,44.0,-0.7324218153953552,7.080077648162842,-10.192870140075684,-0.995849609375,0.2071533203125,0.1575927734375
4.115,310,386,419,311,1.0,31.0,44.0,6.469726085662842,3.051757574081421,-2.50244140625,-0.995849609375,0.2071533203125,0.1575927734375
4.139,309,387,423,310,1.0,31.0,44.0,3.051757574081421,-0.0610351525247097,3.967284917831421,-0.99755859375,0.207275390625,0.1568603515625
4.142,310,386,414,310,1.0,31.0,44.0,-3.173827886581421,-1.4648436307907104,9.09423828125,-0.9459228515625,0.136474609375,0.1865234375
4.147,310,387,417,309,1.0,31.0,44.0,-5.798339366912842,-1.7700194120407104,14.282225608825684,-0.9208984375,0.1612548828125,0.16796875
4.154,310,387,420,310,1.0,31.0,44.0,-5.432128429412842,-2.0751953125,20.507810592651367,-0.9208984375,0.1612548828125,0.16796875
4.177,310,388,424,310,1.0,31.0,44.0,-7.263183116912842,-5.554198741912842,30.944822311401367,-0.9093017578125,0.218994140625,0.1119384765625
4.187,310,391,428,310,1.0,31.0,44.0,-7.263183116912842,-5.554198741912842,30.944822311401367,-0.9061279296875,0.2423095703125,0.0928955078125
4.188,310,394,431,310,0.0,35.0,38.0,-10.314940452575684,-7.446288585662842,34.5458984375,-0.9061279296875,0.2423095703125,0.0928955078125
4.198,310,399,455,309,0.0,35.0,38.0,-21.728513717651367,-9.1552734375,43.090816497802734,-0.7764892578125,0.244873046875,0.0576171875
4.206,310,408,467,308,0.0,35.0,38.0,-21.728513717651367,-9.1552734375,43.090816497802734,-0.6256103515625,0.1751708984375,0.00439453125
4.215,310,423,488,310,0.0,35.0,38.0,-30.517576217651367,-9.94873046875,48.034664154052734,-0.6256103515625,0.1751708984375,0.00439453125
4.246,309,454,531,306,0.0,35.0,38.0,-35.400390625,-24.230955123901367,57.128902435302734,-0.0440673828125,0.01171875,-0.0736083984375
4.247,308,488,554,310,0.0,35.0,38.0,-27.343748092651367,-38.39111328125,56.213375091552734,0.3466796875,-0.0640869140625,-0.0458984375
4.247,310,517,594,310,0.0,35.0,38.0,-27.343748092651367,-38.39111328125,56.213375091552734,0.62548828125,-0.14697265625,0.035400390625
4.258,310,607,764,311,0.0,35.0,38.0,6.958007335662842,-57.983394622802734,25.024412155151367,0.5859375,-0.0433349609375,0.1644287109375
4.266,308,648,887,312,0.0,35.0,38.0,24.230955123901367,-62.255855560302734,-5.126952648162842,0.227783203125,0.2320556640625,0.3118896484375
4.294,309,698,964,311,0.0,35.0,38.0,24.230955123901367,-62.255855560302734,-5.126952648162842,-0.41064453125,0.46826171875,0.4356689453125
4.300,310,803,1105,310,0.0,33.0,44.0,-4.638671875,-44.250484466552734,-64.14794921875,-1.3187255859375,0.8685302734375,0.365966796875
4.317,310,830,1182,310,0.0,33.0,44.0,-30.273435592651367,-28.076169967651367,-57.434078216552734,-2.0830078125,1.3446044921875,0.2564697265625
4.319,310,877,1253,311,0.0,33.0,44.0,-62.011714935302734,-28.808591842651367,-36.376953125,-2.3211669921875,1.249267578125,0.4610595703125
4.347,311,910,1355,311,0.0,33.0,44.0,-62.011714935302734,-28.808591842651367,-36.376953125,-2.4000244140625,0.6641845703125,0.87646484375
4.348,310,893,1325,312,0.0,33.0,44.0,-70.6787109375,-43.029781341552734,-29.541013717651367,-2.6435546875,0.1024169921875,1.1171875
4.356,310,887,1295,312,0.0,33.0,44.0,-25.024412155151367,-34.1796875,-20.996091842651367,-2.3809814453125,-0.2767333984375,0.97509765625
4.359,309,887,1294,312,0.0,33.0,44.0,-25.024412155151367,-34.1796875,-20.996091842651367,-1.4649658203125,-0.253173828125,0.527099609375
4.359,308,884,1281,312,0.0,33.0,44.0,90.45409393310547,-1.7089842557907104,6.591796398162842,-1.1346435546875,0.4661865234375,0.1873779296875
4.367,311,867,1268,312,0.0,33.0,44.0,80.81053924560547,8.60595703125,12.817381858825684,-1.595458984375,1.1871337890625,0.216796875
4.375,310,847,1251,312,0.0,33.0,44.0,20.751951217651367,15.930174827575684,11.779784202575684,-1.9664306640625,1.0667724609375,0.388427734375
4.398,310,824,1219,312,2.0,31.0,43.0,20.751951217651367,15.930174827575684,11.779784202575684,-1.9749755859375,0.541015625,0.5052490234375
4.399,311,779,1109,311,2.0,31.0,43.0,-34.423828125,20.01953125,-0.6713866591453552,-1.8369140625,0.2220458984375,0.509765625
4.405,310,732,1043,311,2.0,31.0,43.0,-13.366698265075684,17.88330078125,4.5166015625,-1.7125244140625,0.1798095703125,0.4110107421875
4.419,310,688,966,310,2.0,31.0,43.0,-13.366698265075684,17.88330078125,4.5166015625,-1.54345703125,0.31689453125,0.2882080078125
4.427,310,603,784,310,2.0,31.0,43.0,35.94970703125,20.690916061401367,25.756834030151367,-1.2188720703125,0.433837890625,0.238525390625
4.447,310,553,705,311,2.0,31.0,43.0,38.63525390625,21.728513717651367,34.60693359375,-0.7559814453125,0.3663330078125,0.28076171875
4.448,310,517,642,310,2.0,31.0,43.0,38.63525390625,21.728513717651367,34.60693359375,-0.3155517578125,0.190673828125,0.29052734375
4.457,309,452,480,309,2.0,31.0,43.0,14.404295921325684,25.939939498901367,40.0390625,-0.006103515625,0.0025634765625,0.243408203125
4.465,309,426,437,311,2.0,31.0,43.0,7.873534679412842,30.212400436401367,32.16552734375,0.1817626953125,-0.1622314453125,0.2490234375
4.473,310,419,420,310,2.0,31.0,43.0,16.54052734375,31.982419967651367,13.061522483825684,0.1915283203125,-0.1407470703125,0.28076171875
4.500,310,391,402,310,0.0,34.0,45.0,37.65869140625,34.423828125,-12.634276390075684,-0.02392578125,0.103515625,0.17431640625
4.508,308,386,393,310,0.0,34.0,45.0,59.326168060302734,41.442867279052734,-35.0341796875,-0.3116455078125,0.3572998046875,-0.033935546875
4.509,308,388,393,310,0.0,34.0,45.0,69.15283203125,44.921871185302734,-44.799800872802734,-0.5037841796875,0.5277099609375,-0.15283203125
4.521,310,386,394,310,0.0,34.0,45.0,61.096187591552734,35.58349609375,-40.893550872802734,-0.597900390625,0.6363525390625,-0.113037109375
4.525,310,387,394,310,0.0,34.0,45.0,39.4287109375,18.06640625,-33.5693359375,-0.64794921875,0.6099853515625,0.02197265625
4.552,310,387,395,310,0.0,34.0,45.0,12.878417015075684,4.94384765625,-31.555173873901367,-0.7144775390625,0.431640625,0.1212158203125
4.553,308,393,407,310,0.0,34.0,45.0,-9.21630859375,2.50244140625,-33.38623046875,-0.7978515625,0.2393798828125,0.1376953125
4.555,309,391,401,308,0.0,34.0,45.0,-19.04296875,5.798339366912842,-32.958984375,-0.838134765625,0.1124267578125,0.1090087890625
4.564,310,393,408,310,0.0,34.0,45.0,-15.747069358825684,7.507323741912842,-28.015134811401367,-0.8704833984375,0.0706787109375,0.0916748046875
4.577,309,395,419,309,-3.0,34.0,46.0,-7.202147960662842,3.662109136581421,-20.324705123901367,-0.9202880859375,0.119384765625,0.1251220703125
4.586,308,396,428,309,-3.0,34.0,46.0,-3.540038824081421,-4.0283203125,-12.451170921325684,-0.9598388671875,0.17626953125,0.1715087890625
4.602,310,395,424,309,-3.0,34.0,46.0,-7.934569835662842,-9.765625,-5.859374523162842,-0.98876953125,0.1778564453125,0.1895751953125
4.607,310,396,430,310,-3.0,34.0,46.0,-14.892577171325684,-10.803221702575684,0.30517578125,-1.00341796875,0.14990234375,0.1951904296875
4.628,308,399,433,310,-3.0,34.0,46.0,-19.04296875,-8.7890625,7.568358898162842,-1.0030517578125,0.1385498046875,0.216064453125
4.629,312,402,437,309,-3.0,34.0,46.0,-20.324705123901367,-7.141112804412842,15.624999046325684,-0.9844970703125,0.15380859375,0.2506103515625
4.639,308,402,438,310,-3.0,34.0,46.0,-20.935056686401367,-7.202147960662842,23.193357467651367,-0.9532470703125,0.18115234375,0.2652587890625
4.655,309,402,439,310,-3.0,34.0,46.0,-21.667478561401367,-7.690429210662842,30.029294967651367,-0.9324951171875,0.2080078125,0.2529296875
4.656,310,408,449,310,-3.0,34.0,46.0,-21.728513717651367,-7.324218273162842,37.17041015625,-0.92236328125,0.21875,0.2301025390625
4.667,309,407,456,309,-3.0,34.0,46.0,-21.972654342651367,-5.859374523162842,46.142574310302734,-0.9024658203125,0.22265625,0.2060546875
4.679,310,408,479,310,-1.0,33.0,50.0,-24.902341842651367,-4.08935546875,56.701656341552734,-0.8272705078125,0.2218017578125,0.1712646484375
4.704,311,415,499,296,-1.0,33.0,50.0,-30.151365280151367,-4.08935546875,66.22314453125,-0.620361328125,0.173828125,0.099365234375
4.707,310,452,533,310,-1.0,33.0,50.0,-32.8369140625,-8.60595703125,71.59423828125,-0.24609375,0.0582275390625,0.010009765625
4.707,310,481,543,325,-1.0,33.0,50.0,-27.465818405151367,-18.73779296875,70.068359375,0.2679443359375,-0.0921630859375,-0.0819091796875
4.714,310,530,599,310,-1.0,33.0,50.0,-12.023924827575684,-32.40966796875,57.495113372802734,0.7686767578125,-0.2398681640625,-0.0963134765625
4.846,310,606,784,311,-1.0,33.0,50.0,18.798828125,-48.522945404052734,28.564451217651367,0.9847412109375,-0.2509765625,-0.0330810546875
4.869,309,673,891,310,-1.0,33.0,50.0,58.349605560302734,-63.537593841552734,-15.686034202575684,0.7529296875,0.0738525390625,0.0164794921875
4.900,310,739,996,310,-1.0,33.0,50.0,68.66455078125,-65.73486328125,-62.561031341552734,0.075439453125,0.5072021484375,0.1029052734375
4.922,310,826,1170,310,-1.0,33.0,50.0,27.465818405151367,-48.339839935302734,-89.90477752685547,-1.0576171875,1.0545654296875,0.1495361328125
4.923,310,871,1260,312,-1.0,33.0,50.0,-39.24560546875,-23.681638717651367,-78.0029296875,-2.1634521484375,1.676513671875,0.1878662109375
4.923,310,905,1355,310,2.0,33.0,45.0,-103.63768768310547,-17.15087890625,-46.508785247802734,-2.5574951171875,1.611572265625,0.537353515625
4.940,310,922,1381,297,2.0,33.0,45.0,-143.06640625,-30.273435592651367,-34.1796875,-2.691650390625,-0.2218017578125,1.48046875
4.964,310,901,1309,310,2.0,33.0,45.0,-125.18309783935547,-39.73388671875,-38.87939453125,-2.691650390625,-0.2218017578125,1.48046875
4.971,310,893,1289,312,2.0,33.0,45.0,-46.020503997802734,-35.70556640625,-32.77587890625,-2.479248046875,-0.60791015625,1.2340087890625
4.973,309,904,1292,310,2.0,33.0,45.0,60.363765716552734,-20.507810592651367,-12.939452171325684,-1.12109375,0.6422119140625,0.0611572265625
4.975,310,889,1266,312,2.0,33.0,45.0,133.85009765625,-0.1831054538488388,0.6103515625,-1.12109375,0.6422119140625,0.0611572265625
4.975,311,873,1239,311,2.0,33.0,45.0,112.79296112060547,17.822265625,2.929687261581421,-1.5736083984375,1.3719482421875,0.061279296875
4.976,310,840,1157,310,2.0,33.0,45.0,24.353025436401367,30.273435592651367,-1.7089842557907104,-2.117919921875,0.5072021484375,0.4952392578125
4.977,310,809,1101,298,2.0,33.0,45.0,-43.151851654052734,33.203125,-7.080077648162842,-2.117919921875,0.5072021484375,0.4952392578125
4.979,310,780,1025,311,2.0,33.0,45.0,-55.541988372802734,26.611326217651367,-4.08935546875,-2.0093994140625,0.1949462890625,0.5391845703125
4.980,310,694,875,312,2.0,32.0,45.0,-30.212400436401367,19.10400390625,6.896972179412842,-1.536865234375,0.2781982421875,0.3504638671875
4.981,310,646,778,310,2.0,32.0,45.0,7.080077648162842,16.6015625,19.83642578125,-1.536865234375,0.2781982421875,0.3504638671875
4.981,310,588,695,310,2.0,32.0,45.0,36.56005859375,18.00537109375,31.249998092651367,-1.1099853515625,0.2901611328125,0.28076171875
4.981,310,513,563,309,2.0,32.0,45.0,48.706050872802734,20.080564498901367,39.1845703125,-0.1832275390625,0.0799560546875,0.299072265625
4.982,310,477,495,310,2.0,32.0,45.0,44.372554779052734,23.071287155151367,42.480464935302734,0.0615234375,0.037841796875,0.216796875
4.983,310,463,433,311,2.0,32.0,45.0,31.188962936401367,28.442380905151367,40.405269622802734,0.0615234375,0.037841796875,0.216796875
4.983,309,428,414,310,2.0,32.0,45.0,17.9443359375,39.24560546875,7.080077648162842,0.1534423828125,0.002685546875,0.102783203125
4.986,310,415,410,308,2.0,32.0,45.0,17.9443359375,39.24560546875,7.080077648162842,-0.0350341796875,0.21142578125,0.006103515625
4.986,296,402,394,310,2.0,32.0,45.0,26.489255905151367,42.846675872802734,-19.71435546875,-0.0350341796875,0.21142578125,0.006103515625
4.987,311,393,402,310,2.0,32.0,45.0,50.231929779052734,42.358394622802734,-53.100582122802734,-0.523681640625,0.6258544921875,-0.127197265625
4.988,310,393,415,294,0.0,33.0,44.0,50.231929779052734,42.358394622802734,-53.100582122802734,-0.6322021484375,0.6578369140625,-0.017822265625
4.989,310,387,419,308,0.0,33.0,44.0,42.846675872802734,29.663084030151367,-53.527828216552734,-0.686279296875,0.525390625,0.1466064453125
4.993,308,391,428,310,0.0,33.0,44.0,21.850584030151367,14.099120140075684,-50.964351654052734,-0.686279296875,0.525390625,0.1466064453125
5.008,310,394,435,310,0.0,33.0,44.0,-20.446775436401367,3.479003667831421,-52.062984466552734,-0.8056640625,0.100830078125,0.2027587890625
5.015,308,395,435,310,0.0,33.0,44.0,-20.446775436401367,3.479003667831421,-52.062984466552734,-0.8675537109375,-0.0235595703125,0.1376953125
5.024,310,396,437,308,0.0,33.0,44.0,-27.160642623901367,5.249022960662842,-48.645015716552734,-0.8675537109375,-0.0235595703125,0.1376953125
5.037,308,399,440,309,0.0,33.0,44.0,-11.962889671325684,2.685546636581421,-24.169919967651367,-0.9591064453125,0.0472412109375,0.1116943359375
5.081,310,400,439,308,0.0,33.0,44.0,-11.962889671325684,2.685546636581421,-24.169919967651367,-0.9959716796875,0.1365966796875,0.1656494140625
5.085,310,400,444,310,0.0,33.0,44.0,-4.638671875,-2.197265625,-10.253905296325684,-0.9959716796875,0.1365966796875,0.1656494140625
5.086,310,406,451,310,0.0,33.0,44.0,-10.803221702575684,-4.57763671875,7.080077648162842,-1.001953125,0.1524658203125,0.2335205078125
5.088,298,406,447,310,1.0,35.0,46.0,-15.930174827575684,-3.417968511581421,14.587401390075684,-0.97900390625,0.16357421875,0.2841796875
5.093,298,406,439,309,1.0,35.0,46.0,-15.930174827575684,-3.417968511581421,14.587401390075684,-0.94921875,0.1885986328125,0.3167724609375
5.098,310,408,467,310,1.0,35.0,46.0,-21.057126998901367,-1.7700194120407104,29.357908248901367,-0.9246826171875,0.2088623046875,0.30615234375
5.115,309,408,466,310,1.0,35.0,46.0,-19.775390625,-0.1831054538488388,34.60693359375,-0.9012451171875,0.2301025390625,0.2515869140625
5.118,308,408,467,310,1.0,35.0,46.0,-19.775390625,-0.1831054538488388,34.60693359375,-0.8818359375,0.2564697265625,0.1729736328125
5.142,310,410,481,310,1.0,35.0,46.0,-14.343260765075684,0.1220703050494194,40.588375091552734,-0.866455078125,0.2696533203125,0.1131591796875
5.164,308,411,486,309,1.0,35.0,46.0,-17.4560546875,-2.746581792831421,44.067378997802734,-0.817626953125,0.2554931640625,0.0797119140625
5.165,310,414,479,310,1.0,35.0,46.0,-24.414060592651367,-5.859374523162842,49.560543060302734,-0.7244873046875,0.210693359375,0.0262451171875
5.165,309,428,549,309,1.0,35.0,46.0,-31.494138717651367,-10.192870140075684,57.067867279052734,-0.6004638671875,0.15966796875,-0.055419921875
5.170,310,447,578,308,1.0,35.0,46.0,-35.15625,-18.5546875,65.673828125,-0.3819580078125,0.1287841796875,-0.1258544921875
5.176,310,481,645,310,-1.0,34.0,44.0,-31.677244186401367,-30.944822311401367,69.7021484375,-0.0118408203125,0.1314697265625,-0.176025390625
5.183,310,518,694,310,-1.0,34.0,44.0,-31.677244186401367,-30.944822311401367,69.7021484375,0.422119140625,0.1278076171875,-0.1265869140625
5.197,309,594,847,310,-1.0,34.0,44.0,-4.150390625,-58.227535247802734,30.639646530151367,0.693359375,0.00830078125,0.0828857421875
5.212,310,644,1011,312,-1.0,34.0,44.0,14.953612327575684,-66.22314453125,-13.793944358825684,0.61328125,-0.0634765625,0.3597412109375
5.214,295,703,1151,310,-1.0,34.0,44.0,29.296873092651367,-63.964839935302734,-58.898921966552734,0.1546630859375,0.090087890625,0.5531005859375
5.246,310,802,1273,311,-1.0,34.0,44.0,18.98193359375,-47.546382904052734,-84.65575408935547,-0.626708984375,0.441650390625,0.5299072265625
5.266,311,846,1340,312,-1.0,34.0,44.0,-15.441893577575684,-25.756834030151367,-76.72119140625,-1.624755859375,1.1151123046875,0.3238525390625
5.271,310,882,1411,312,-1.0,34.0,44.0,-55.236812591552734,-18.310546875,-44.799800872802734,-2.32177734375,1.522216796875,0.3658447265625
5.276,310,918,1485,310,-1.0,34.0,44.0,-85.02196502685547,-29.235837936401367,-24.658201217651367,-2.5504150390625,1.015625,0.7755126953125
5.279,310,922,1462,312,-1.0,34.0,44.0,-84.41161346435547,-40.283199310302734,-26.794431686401367,-2.70751953125,0.097900390625,1.10009765625
5.286,312,899,1415,312,0.0,32.0,52.0,-39.4287109375,-39.73388671875,-23.071287155151367,-2.586181640625,-0.466064453125,1.0697021484375
5.288,310,904,1391,312,0.0,32.0,52.0,37.04833984375,-28.625486373901367,-0.8544921278953552,-1.7054443359375,-0.4188232421875,0.7130126953125
5.297,310,907,1387,312,0.0,32.0,52.0,105.59081268310547,-7.568358898162842,19.6533203125,-0.874755859375,0.32373046875,0.33447265625
5.304,310,894,1377,312,0.0,32.0,52.0,109.19188690185547,16.90673828125,23.071287155151367,-1.0491943359375,1.1971435546875,0.1640625
5.318,310,873,1351,310,0.0,32.0,52.0,42.480464935302734,34.5458984375,14.404295921325684,-1.6650390625,1.26416015625,0.2330322265625
5.327,310,855,1323,311,0.0,32.0,52.0,-27.893064498901367,39.12353515625,5.493163585662842,-2.0098876953125,0.7119140625,0.4376220703125
5.348,311,826,1292,310,0.0,32.0,52.0,-52.368160247802734,32.2265625,5.249022960662842,-2.04443359375,0.3006591796875,0.556396484375
5.349,310,756,1213,311,0.0,32.0,52.0,-35.888671875,23.010251998901367,12.023924827575684,-1.9691162109375,0.26220703125,0.512939453125
5.374,310,703,1137,310,0.0,32.0,52.0,-5.798339366912842,18.24951171875,21.545408248901367,-1.849609375,0.40869140625,0.37548828125
5.375,310,639,1056,312,0.0,32.0,52.0,17.7001953125,17.578125,34.48486328125,-1.6160888671875,0.5516357421875,0.2576904296875
5.378,310,557,861,310,1.0,33.0,44.0,26.611326217651367,18.4326171875,51.208492279052734,-1.1851806640625,0.495361328125,0.2462158203125
5.386,310,512,763,310,1.0,33.0,44.0,22.216794967651367,19.22607421875,64.88037109375,-0.550537109375,0.205322265625,0.292724609375
5.394,310,483,703,310,1.0,33.0,44.0,15.319823265075684,20.01953125,65.24658203125,0.1376953125,-0.1966552734375,0.302978515625
5.425,310,452,666,311,1.0,33.0,44.0,20.202634811401367,20.690916061401367,44.982906341552734,0.595458984375,-0.4404296875,0.2840576171875
5.429,310,435,644,310,1.0,33.0,44.0,40.10009765625,20.446775436401367,7.385253429412842,0.5682373046875,-0.2596435546875,0.2288818359375
5.432,309,420,629,293,1.0,33.0,44.0,58.471675872802734,22.521970748901367,-32.3486328125,0.119140625,0.183349609375,0.067138671875
5.438,309,419,607,311,1.0,33.0,44.0,61.584468841552734,29.602048873901367,-55.603023529052734,-0.379150390625,0.57373046875,-0.121826171875
5.476,309,410,601,310,1.0,33.0,44.0,52.124019622802734,35.82763671875,-57.495113372802734,-0.678466796875,0.8236083984375,-0.17724609375
5.476,310,402,583,309,1.0,33.0,44.0,32.53173828125,34.912109375,-49.072261810302734,-0.775146484375,0.8896484375,-0.0943603515625
5.488,310,402,564,310,-3.0,36.0,50.0,2.38037109375,28.076169967651367,-42.602535247802734,-0.7552490234375,0.3214111328125,0.14208984375
5.489,310,402,552,295,-3.0,36.0,50.0,-28.747556686401367,20.507810592651367,-42.907711029052734,-0.7552490234375,0.3214111328125,0.14208984375
5.489,310,401,563,310,-3.0,36.0,50.0,-45.288082122802734,15.502928733825684,-46.508785247802734,-0.79443359375,-0.0010986328125,0.1781005859375
5.498,296,383,552,307,-3.0,36.0,50.0,-39.97802734375,11.718749046325684,-47.241207122802734,-0.9466552734375,-0.028564453125,0.2459716796875
5.508,294,399,564,310,-3.0,36.0,50.0,-19.8974609375,6.103515148162842,-42.419429779052734,-0.9466552734375,-0.028564453125,0.2459716796875
5.523,310,396,562,310,-3.0,36.0,50.0,0.3662109076976776,-0.6713866591453552,-33.63037109375,-0.9639892578125,0.1214599609375,0.2822265625
5.529,309,394,546,310,-3.0,36.0,50.0,8.7890625,-5.737304210662842,-23.010251998901367,-0.9031982421875,0.225341796875,0.289306640625
5.536,310,393,532,310,-3.0,36.0,50.0,6.286620616912842,-6.958007335662842,-12.817381858825684,-0.9031982421875,0.225341796875,0.289306640625
5.549,310,394,531,310,-3.0,36.0,50.0,1.5869139432907104,-3.845214605331421,-3.967284917831421,-0.8934326171875,0.157958984375,0.2587890625
5.586,309,394,529,308,-3.0,36.0,50.0,-0.4882812201976776,0.30517578125,4.638671875,-0.927490234375,0.1885986328125,0.2015380859375
5.586,310,393,530,310,-3.0,36.0,50.0,-0.30517578125,2.3193359375,12.939452171325684,-0.927490234375,0.1885986328125,0.2015380859375
5.586,311,394,526,309,1.0,34.0,47.0,-0.9155272841453552,2.197265625,19.04296875,-0.923095703125,0.2667236328125,0.1953125
5.588,309,394,535,310,1.0,34.0,47.0,-4.7607421875,1.5258787870407104,21.423337936401367,-0.883544921875,0.289794921875,0.170166015625
5.596,309,399,549,310,1.0,34.0,47.0,-11.413573265075684,1.15966796875,21.545408248901367,-0.8504638671875,0.2457275390625,0.12744140625
5.604,310,402,548,312,1.0,34.0,47.0,-18.4326171875,0.9765624403953552,22.338865280151367,-0.8504638671875,0.2457275390625,0.12744140625
5.623,308,417,591,310,1.0,34.0,47.0,-32.3486328125,-3.234863042831421,32.958984375,-0.6597900390625,0.093994140625,-0.0311279296875
5.635,308,432,616,310,1.0,34.0,47.0,-32.3486328125,-3.234863042831421,32.958984375,-0.3543701171875,-0.0240478515625,-0.13916015625
5.638,309,465,649,310,1.0,34.0,47.0,-36.865234375,-10.314940452575684,42.358394622802734,-0.3543701171875,-0.0240478515625,-0.13916015625
5.650,309,527,693,310,1.0,34.0,47.0,-26.245115280151367,-41.137691497802734,45.654293060302734,0.6346435546875,-0.0499267578125,-0.105224609375
5.668,309,585,773,310,1.0,34.0,47.0,-26.245115280151367,-41.137691497802734,45.654293060302734,0.8990478515625,0.0177001953125,0.09326171875
5.671,310,634,931,311,1.0,34.0,47.0,-6.042479991912842,-56.640621185302734,22.888181686401367,0.8990478515625,0.0177001953125,0.09326171875
5.686,309,721,1153,312,0.0,32.0,43.0,30.273435592651367,-58.288570404052734,-65.7958984375,0.0218505859375,0.4166259765625,0.4195556640625
5.714,310,766,1202,298,0.0,32.0,43.0,30.273435592651367,-58.288570404052734,-65.7958984375,-0.8580322265625,0.54736328125,0.4920654296875
5.717,296,838,1305,308,0.0,32.0,43.0,5.798339366912842,-41.198726654052734,-94.72655487060547,-0.8580322265625,0.54736328125,0.4920654296875
5.717,310,905,1403,309,0.0,32.0,43.0,-60.302730560302734,-14.648436546325684,-68.2373046875,-2.4007568359375,1.324951171875,0.393310546875
5.735,312,916,1454,312,0.0,32.0,43.0,-60.302730560302734,-14.648436546325684,-68.2373046875,-2.46923828125,0.851318359375,0.7635498046875
5.737,311,947,1502,297,0.0,32.0,43.0,-80.99364471435547,-29.724119186401367,-51.574703216552734,-2.46923828125,0.851318359375,0.7635498046875
5.738,310,916,1419,312,0.0,32.0,43.0,-23.925779342651367,-43.701168060302734,-57.861324310302734,-2.5677490234375,-0.3758544921875,1.03857421875
5.755,310,913,1393,312,0.0,32.0,43.0,47.302242279052734,-34.48486328125,-37.59765625,-1.8089599609375,-0.227783203125,0.6749267578125
5.755,309,913,1393,311,0.0,32.0,43.0,47.302242279052734,-34.48486328125,-37.59765625,-0.9742431640625,0.2918701171875,0.3212890625
5.785,309,904,1379,310,2.0,31.0,47.0,97.35106658935547,4.94384765625,-10.864256858825684,-1.1051025390625,0.8341064453125,0.23681640625
5.785,310,884,1353,311,2.0,31.0,47.0,32.8369140625,26.611326217651367,-12.023924827575684,-1.72998046875,0.840576171875,0.381591796875
5.786,311,865,1325,312,2.0,31.0,47.0,32.8369140625,26.611326217651367,-12.023924827575684,-2.0909423828125,0.4390869140625,0.561767578125
5.798,310,814,1253,312,2.0,31.0,47.0,-48.339839935302734,34.5458984375,-1.5869139432907104,-2.08642578125,0.1231689453125,0.6102294921875
5.807,310,785,1192,310,2.0,31.0,47.0,-33.5693359375,30.151365280151367,13.122557640075684,-1.9451904296875,0.065673828125,0.5208740234375
5.814,310,739,1122,312,2.0,31.0,47.0,-33.5693359375,30.151365280151367,13.122557640075684,-1.7841796875,0.1771240234375,0.4012451171875
5.829,310,647,982,310,2.0,31.0,47.0,11.840819358825684,31.494138717651367,47.363277435302734,-1.5501708984375,0.29345703125,0.3365478515625
5.836,310,579,853,311,2.0,31.0,47.0,22.399900436401367,33.26416015625,66.5283203125,-1.1402587890625,0.2415771484375,0.32421875
5.844,310,526,766,310,2.0,31.0,47.0,22.399900436401367,33.26416015625,66.5283203125,-0.61474609375,0.0633544921875,0.268310546875
5.860,311,452,579,310,2.0,31.0,47.0,17.88330078125,35.21728515625,91.91893768310547,-0.1185302734375,-0.1268310546875,0.1763916015625
5.887,310,428,502,310,2.0,34.0,43.0,11.596678733825684,36.2548828125,88.98925018310547,0.27734375,-0.300048828125,0.159423828125
5.888,310,419,467,310,2.0,34.0,43.0,11.596678733825684,36.2548828125,88.98925018310547,0.409423828125,-0.2896728515625,0.19677734375
5.896,310,386,424,296,2.0,34.0,43.0,20.996091842651367,37.17041015625,42.175289154052734,0.2264404296875,0.007080078125,0.1326904296875
5.903,310,380,425,308,2.0,34.0,43.0,38.818359375,43.334957122802734,10.009765625,-0.126708984375,0.4639892578125,-0.037109375
5.910,308,373,444,310,2.0,34.0,43.0,52.490230560302734,49.743648529052734,-15.991209983825684,-0.4573974609375,0.8785400390625,-0.1324462890625
5.927,310,373,449,310,2.0,34.0,43.0,47.546382904052734,44.982906341552734,-30.456541061401367,-0.636962890625,1.050537109375,-0.109375
5.931,310,372,465,310,2.0,34.0,43.0,23.193357467651367,31.494138717651367,-38.14697265625,-0.708984375,0.9151611328125,-0.0445556640625
5.935,310,373,456,308,2.0,34.0,43.0,-8.48388671875,18.85986328125,-44.372554779052734,-0.75732421875,0.5745849609375,0.010986328125
5.955,310,374,465,309,2.0,34.0,43.0,-31.433103561401367,12.023924827575684,-48.278804779052734,-0.8154296875,0.2166748046875,0.0543212890625
5.956,310,379,480,310,2.0,34.0,43.0,-36.07177734375,8.72802734375,-47.363277435302734,-0.8604736328125,-0.0091552734375,0.1005859375
5.964,310,379,475,308,2.0,34.0,43.0,-24.536130905151367,5.554198741912842,-41.809078216552734,-0.9039306640625,-0.0615234375,0.1593017578125
5.989,309,380,483,310,1.0,34.0,49.0,-7.751464366912842,0.2441406100988388,-34.0576171875,-0.948486328125,0.006591796875,0.2435302734375
5.990,310,382,481,309,1.0,34.0,49.0,2.0751953125,-7.141112804412842,-25.634763717651367,-0.966796875,0.0904541015625,0.3282470703125
5.994,309,382,481,309,1.0,34.0,49.0,1.8310545682907104,-12.756346702575684,-16.6015625,-0.9664306640625,0.109619140625,0.3681640625
6.008,310,384,483,310,1.0,34.0,49.0,-0.4272460639476776,-13.488768577575684,-6.408690929412842,-0.9573974609375,0.081298828125,0.3533935546875
6.016,310,386,481,310,1.0,34.0,49.0,1.4038084745407104,-10.742186546325684,5.432128429412842,-0.936767578125,0.0804443359375,0.3057861328125
6.029,310,389,477,310,1.0,34.0,49.0,5.065917491912842,-7.995604991912842,17.822265625,-0.9031982421875,0.1278076171875,0.2357177734375
6.038,310,393,479,310,1.0,34.0,49.0,6.469726085662842,-7.080077648162842,28.320310592651367,-0.8551025390625,0.1776123046875,0.146728515625
6.047,310,396,479,296,1.0,34.0,49.0,3.906249761581421,-8.23974609375,36.07177734375,-0.796142578125,0.19091796875,0.0577392578125
6.061,310,399,491,310,1.0,34.0,49.0,-2.01416015625,-11.596678733825684,42.907711029052734,-0.7244873046875,0.185546875,0.004150390625
6.068,310,415,516,310,2.0,34.0,46.0,-10.498045921325684,-16.9677734375,50.415035247802734,-0.59765625,0.1885986328125,-0.0137939453125
6.095,309,439,557,310,2.0,34.0,46.0,-19.8974609375,-23.254392623901367,56.701656341552734,-0.362548828125,0.1805419921875,-0.03466796875
6.095,310,473,596,310,2.0,34.0,46.0,-27.282712936401367,-31.249998092651367,57.189937591552734,0.0009765625,0.1295166015625,-0.080078125
6.098,310,538,671,310,2.0,34.0,46.0,-27.465818405151367,-42.785640716552734,46.569820404052734,0.427490234375,0.0504150390625,-0.06982421875
6.106,309,587,806,312,2.0,34.0,46.0,-13.732909202575684,-55.114742279052734,22.338865280151367,0.693359375,-0.02685546875,0.0628662109375
6.114,310,640,960,311,2.0,34.0,46.0,11.474608421325684,-60.546871185302734,-12.817381858825684,0.5640869140625,0.0399169921875,0.2088623046875
6.134,311,738,1173,311,2.0,34.0,46.0,26.245115280151367,-55.541988372802734,-48.828121185302734,0.041015625,0.2379150390625,0.34375
6.141,311,799,1239,310,2.0,34.0,46.0,11.901854515075684,-41.442867279052734,-73.30322265625,-0.6844482421875,0.3743896484375,0.4923095703125
6.147,311,849,1334,312,2.0,34.0,46.0,-16.7236328125,-20.324705123901367,-78.4912109375,-1.53564453125,0.72314453125,0.498046875
6.165,310,921,1437,312,2.0,34.0,46.0,-42.663570404052734,-3.601073980331421,-63.964839935302734,-2.198486328125,1.1795654296875,0.427734375
6.194,310,943,1488,312,3.0,30.0,44.0,-68.90869140625,-6.286620616912842,-46.142574310302734,-2.436767578125,0.995361328125,0.5557861328125
6.203,298,959,1500,312,3.0,30.0,44.0,-77.5146484375,-20.263669967651367,-42.907711029052734,-2.5531005859375,0.384521484375,0.8101806640625
6.203,310,933,1399,313,3.0,30.0,44.0,-43.395992279052734,-28.930662155151367,-43.823238372802734,-2.649658203125,0.01806640625,0.9312744140625
6.204,310,932,1383,312,3.0,30.0,44.0,17.02880859375,-30.578611373901367,-32.2265625,-2.0643310546875,-0.0865478515625,0.81005859375
6.206,310,931,1386,309,3.0,30.0,44.0,74.5849609375,-23.437498092651367,-19.10400390625,-1.11083984375,0.119873046875,0.510986328125
6.213,310,927,1380,312,3.0,30.0,44.0,96.61864471435547,-6.042479991912842,-16.4794921875,-1.00439453125,0.6719970703125,0.3033447265625
6.234,310,902,1351,312,3.0,30.0,44.0,59.082027435302734,16.2353515625,-18.00537109375,-1.5523681640625,0.9256591796875,0.3275146484375
6.236,296,875,1297,298,3.0,30.0,44.0,-0.9765624403953552,32.958984375,-17.9443359375,-1.958984375,0.6036376953125,0.4415283203125
6.244,310,853,1285,312,3.0,30.0,44.0,-32.89794921875,36.1328125,-13.488768577575684,-2.012939453125,0.218994140625,0.48876953125
6.263,310,794,1173,310,3.0,30.0,44.0,-31.188962936401367,31.433103561401367,-3.295898199081421,-1.897216796875,0.0927734375,0.415771484375
6.265,310,754,1105,311,3.0,33.0,44.0,-14.343260765075684,28.320310592651367,10.498045921325684,-1.7535400390625,0.1964111328125,0.3045654296875
6.293,310,698,1029,310,3.0,33.0,44.0,1.8920897245407104,28.320310592651367,25.390623092651367,-1.5501708984375,0.3621826171875,0.236572265625
6.293,309,601,832,310,3.0,33.0,44.0,10.681151390075684,30.029294967651367,40.161128997802734,-0.789794921875,0.2412109375,0.325439453125
6.301,308,547,780,310,3.0,33.0,44.0,9.033203125,31.555173873901367,52.307125091552734,-0.789794921875,0.2412109375,0.325439453125
6.310,310,502,705,310,3.0,33.0,44.0,-0.54931640625,32.89794921875,60.607906341552734,-0.377685546875,-0.0087890625,0.3184814453125
6.317,310,452,547,310,3.0,33.0,44.0,-8.6669921875,34.85107421875,64.8193359375,0.13330078125,-0.380126953125,0.283935546875
6.325,310,426,516,309,3.0,33.0,44.0,-5.371093273162842,34.912109375,62.194820404052734,0.13330078125,-0.380126953125,0.283935546875
6.336,310,418,481,310,3.0,33.0,44.0,11.840819358825684,32.65380859375,49.011226654052734,0.1162109375,-0.2353515625,0.3099365234375
6.348,309,406,451,310,3.0,33.0,44.0,36.9873046875,34.48486328125,25.756834030151367,-0.3394775390625,0.4180908203125,-0.0439453125
6.356,310,406,444,310,3.0,33.0,44.0,61.279293060302734,45.776363372802734,-1.5258787870407104,-0.3394775390625,0.4180908203125,-0.0439453125
6.372,310,400,441,310,-1.0,33.0,46.0,72.57080078125,55.603023529052734,-20.324705123901367,-0.5433349609375,0.69384765625,-0.1497802734375
6.397,307,384,438,308,-1.0,33.0,46.0,60.607906341552734,51.879878997802734,-23.925779342651367,-0.675537109375,0.70068359375,0.008544921875
6.397,310,401,440,309,-1.0,33.0,46.0,30.578611373901367,39.36767578125,-20.141599655151367,-0.675537109375,0.70068359375,0.008544921875
6.398,310,402,438,309,-1.0,33.0,46.0,-1.8310545682907104,27.832029342651367,-18.6767578125,-0.7279052734375,0.472412109375,0.11083984375
6.410,309,406,436,309,-1.0,33.0,46.0,-21.789548873901367,21.179197311401367,-21.240232467651367,-0.9049072265625,0.0765380859375,0.111328125
6.415,309,406,426,309,-1.0,33.0,46.0,-24.475095748901367,17.02880859375,-22.949216842651367,-0.9049072265625,0.0765380859375,0.111328125
6.423,309,407,430,310,-1.0,33.0,46.0,-14.709471702575684,12.451170921325684,-20.01953125,-0.968017578125,0.0556640625,0.0831298828125
6.438,310,402,432,310,-1.0,33.0,46.0,-1.5869139432907104,6.591796398162842,-13.366698265075684,-1.009765625,0.22509765625,0.1351318359375
6.445,310,402,427,311,-1.0,33.0,46.0,7.080077648162842,0.1220703050494194,-6.530761241912842,-0.9737548828125,0.2445068359375,0.176513671875
6.454,310,401,424,310,-1.0,33.0,46.0,7.812499523162842,-4.82177734375,-1.8310545682907104,-0.9737548828125,0.2445068359375,0.176513671875
6.467,309,395,420,308,0.0,36.0,47.0,0.9765624403953552,-7.019042491912842,4.94384765625,-0.91748046875,0.219482421875,0.2235107421875
6.475,308,399,423,310,0.0,36.0,47.0,0.9765624403953552,-7.019042491912842,4.94384765625,-0.913818359375,0.24169921875,0.2210693359375
6.495,308,396,415,311,0.0,36.0,47.0,0.9155272841453552,-6.774901866912842,9.6435546875,-0.913818359375,0.24169921875,0.2210693359375
6.497,310,395,420,310,0.0,36.0,47.0,-3.234863042831421,-6.103515148162842,17.76123046875,-0.9158935546875,0.2567138671875,0.190673828125
6.505,308,399,419,310,0.0,36.0,47.0,-3.234863042831421,-6.103515148162842,17.76123046875,-0.9093017578125,0.24169921875,0.1610107421875
6.515,310,399,420,308,0.0,36.0,47.0,-7.629394054412842,-5.615233898162842,20.385740280151367,-0.9093017578125,0.24169921875,0.1610107421875
6.527,310,408,426,308,0.0,36.0,47.0,-15.319823265075684,-8.056640625,28.686521530151367,-0.8326416015625,0.19140625,0.0673828125
6.543,310,408,441,310,0.0,36.0,47.0,-15.319823265075684,-8.056640625,28.686521530151367,-0.73876953125,0.1488037109375,-0.0035400390625
6.543,310,394,447,310,0.0,36.0,47.0,-20.629880905151367,-11.779784202575684,36.92626953125,-0.73876953125,0.1488037109375,-0.0035400390625
6.558,310,446,506,309,0.0,36.0,47.0,-35.33935546875,-23.071287155151367,58.654781341552734,-0.40185546875,0.106201171875,-0.0675048828125
6.570,309,473,562,310,0.0,34.0,44.0,-40.588375091552734,-33.0810546875,63.781734466552734,0.07275390625,0.073974609375,-0.0718994140625
6.574,309,509,586,310,0.0,34.0,44.0,-40.588375091552734,-33.0810546875,63.781734466552734,0.6324462890625,-0.11083984375,-0.0411376953125
6.601,311,592,712,310,0.0,34.0,44.0,-17.15087890625,-69.15283203125,21.057126998901367,0.8753662109375,-0.383056640625,0.1064453125
6.601,309,653,871,311,0.0,34.0,44.0,34.72900390625,-83.25194549560547,-18.12744140625,0.672607421875,-0.2437744140625,0.26611328125
6.604,310,705,1000,312,0.0,34.0,44.0,34.72900390625,-83.25194549560547,-18.12744140625,0.0780029296875,0.3289794921875,0.3197021484375
6.629,310,830,1175,312,0.0,34.0,44.0,61.096187591552734,-49.072261810302734,-76.416015625,-0.7357177734375,0.8399658203125,0.322021484375
6.640,310,884,1265,310,0.0,34.0,44.0,-23.010251998901367,-6.347655773162842,-79.89501953125,-1.7650146484375,1.328857421875,0.2159423828125
6.652,310,890,1325,312,0.0,34.0,44.0,-23.010251998901367,-6.347655773162842,-79.89501953125,-2.4783935546875,1.65576171875,0.2259521484375
6.662,310,959,1458,312,0.0,34.0,44.0,-132.26318359375,-4.57763671875,-34.60693359375,-2.489501953125,1.1649169921875,0.7218017578125
6.673,310,962,1445,296,0.0,34.0,44.0,-118.46923065185547,-37.59765625,-36.56005859375,-2.485107421875,0.146484375,1.2677001953125
6.677,310,939,1353,312,0.0,31.0,41.0,-58.044429779052734,-48.217769622802734,-43.029781341552734,-2.5599365234375,-0.5201416015625,1.2947998046875
6.680,310,933,1335,312,0.0,31.0,41.0,-58.044429779052734,-48.217769622802734,-43.029781341552734,-1.9208984375,-0.5616455078125,0.835205078125
6.701,310,935,1334,310,0.0,31.0,41.0,116.14989471435547,-15.747069358825684,-7.629394054412842,-1.175537109375,0.112548828125,0.279052734375
6.701,310,928,1319,312,0.0,31.0,41.0,134.33837890625,7.812499523162842,6.042479991912842,-1.3885498046875,1.044189453125,0.083984375
6.703,310,912,1297,312,0.0,31.0,41.0,134.33837890625,7.812499523162842,6.042479991912842,-1.941650390625,1.20556640625,0.2379150390625
6.717,311,873,1260,311,0.0,31.0,41.0,-17.76123046875,39.97802734375,8.4228515625,-2.1260986328125,0.649658203125,0.437255859375
6.728,310,840,1213,312,0.0,31.0,41.0,-48.095699310302734,36.68212890625,10.925292015075684,-2.008544921875,0.218505859375,0.5042724609375
6.733,310,803,1157,312,0.0,31.0,41.0,-48.095699310302734,36.68212890625,10.925292015075684,-1.8365478515625,0.1806640625,0.4014892578125
6.748,310,716,1034,311,0.0,31.0,41.0,-3.967284917831421,23.986814498901367,30.334470748901367,-1.649169921875,0.352294921875,0.2135009765625
6.762,310,654,935,311,0.0,31.0,41.0,19.47021484375,23.559568405151367,42.297359466552734,-1.341552734375,0.469970703125,0.109619140625
6.775,310,564,745,311,0.0,36.0,44.0,26.062009811401367,22.338865280151367,54.504390716552734,-0.87548828125,0.3970947265625,0.183349609375
6.777,310,516,676,310,0.0,36.0,44.0,18.85986328125,20.568845748901367,61.706539154052734,-0.3409423828125,0.2237548828125,0.2867431640625
6.802,310,475,601,310,0.0,36.0,44.0,8.97216796875,21.484373092651367,56.457515716552734,0.1005859375,0.027587890625,0.314697265625
6.802,308,445,551,310,0.0,36.0,44.0,6.408690929412842,23.437498092651367,34.5458984375,0.3214111328125,-0.1591796875,0.3399658203125
6.807,310,415,529,310,0.0,36.0,44.0,14.221190452575684,23.498533248901367,2.25830078125,0.250244140625,-0.1640625,0.344970703125
6.869,310,399,502,310,0.0,36.0,44.0,28.686521530151367,25.268552780151367,-26.550291061401367,-0.0596923828125,0.0556640625,0.1961669921875
6.869,310,386,484,308,0.0,36.0,44.0,47.119136810302734,33.69140625,-42.785640716552734,-0.4132080078125,0.333251953125,-0.03515625
6.869,309,372,454,310,0.0,36.0,44.0,62.561031341552734,41.687007904052734,-46.081539154052734,-0.6297607421875,0.5704345703125,-0.145263671875
6.869,310,369,463,310,0.0,36.0,44.0,60.119625091552734,39.0625,-42.053218841552734,-0.6876220703125,0.698486328125,-0.103515625
6.869,310,369,456,309,0.0,36.0,44.0,36.4990234375,27.832029342651367,-38.87939453125,-0.6949462890625,0.62744140625,0.0079345703125
6.882,308,368,467,310,1.0,35.0,42.0,5.737304210662842,17.02880859375,-41.015621185302734,-0.722412109375,0.3956298828125,0.10107421875
6.906,310,371,473,309,1.0,35.0,42.0,-15.258788108825684,11.413573265075684,-44.921871185302734,-0.771484375,0.15771484375,0.12939453125
6.916,310,372,478,309,1.0,35.0,42.0,-18.49365234375,8.60595703125,-44.860836029052734,-0.841552734375,0.0224609375,0.1072998046875
6.931,309,372,480,308,1.0,35.0,42.0,-8.544921875,4.82177734375,-38.87939453125,-0.91796875,0.01904296875,0.0953369140625
6.932,310,372,481,295,1.0,35.0,42.0,1.8920897245407104,-0.54931640625,-28.442380905151367,-0.9559326171875,0.09619140625,0.12060546875
6.932,310,372,481,309,1.0,35.0,42.0,4.638671875,-5.859374523162842,-16.9677734375,-0.9613037109375,0.1729736328125,0.15625
6.953,310,372,481,310,1.0,35.0,42.0,0.6103515625,-9.3994140625,-7.507323741912842,-0.959228515625,0.1986083984375,0.193359375
6.956,310,373,481,308,1.0,35.0,42.0,-5.310058116912842,-10.253905296325684,-0.9155272841453552,-0.9522705078125,0.1756591796875,0.218994140625
6.965,308,378,481,310,1.0,35.0,42.0,-9.33837890625,-8.9111328125,4.2724609375,-0.94287109375,0.1552734375,0.2135009765625
6.992,308,380,476,308,0.0,34.0,46.0,-10.925292015075684,-7.446288585662842,9.70458984375,-0.9224853515625,0.1610107421875,0.184814453125
7.010,296,386,467,308,0.0,34.0,46.0,-12.145995140075684,-7.202147960662842,15.869139671325684,-0.8751220703125,0.170654296875,0.1392822265625
7.010,309,379,481,310,0.0,34.0,46.0,-14.587401390075684,-8.1787109375,22.521970748901367,-0.804443359375,0.173583984375,0.077392578125
7.011,310,399,488,309,0.0,34.0,46.0,-18.12744140625,-10.437010765075684,30.029294967651367,-0.7255859375,0.1695556640625,0.018310546875
7.012,310,414,525,310,0.0,34.0,46.0,-23.132322311401367,-14.404295921325684,39.00146484375,-0.6275634765625,0.1575927734375,-0.0467529296875
7.015,309,430,573,310,0.0,34.0,46.0,-31.677244186401367,-20.690916061401367,49.255367279052734,-0.477294921875,0.1500244140625,-0.11669921875
7.016,310,449,614,309,0.0,34.0,46.0,-43.151851654052734,-31.555173873901367,58.715816497802734,-0.1719970703125,0.14306640625,-0.1304931640625
7.048,310,537,642,311,0.0,34.0,46.0,-51.574703216552734,-48.278804779052734,60.241695404052734,0.2794189453125,0.068359375,-0.0665283203125
7.054,308,588,716,311,0.0,34.0,46.0,-46.325679779052734,-64.8193359375,46.813961029052734,0.6156005859375,-0.156494140625,0.09912109375
7.055,310,631,835,312,0.0,34.0,46.0,-15.808104515075684,-73.79150390625,21.362302780151367,0.6737060546875,-0.31787109375,0.2987060546875
7.058,310,740,1008,310,0.0,33.0,49.0,28.991697311401367,-73.91357421875,-11.840819358825684,-0.2314453125,0.2906494140625,0.5098876953125
7.065,309,802,1043,310,0.0,33.0,49.0,42.663570404052734,-61.645503997802734,-48.828121185302734,-0.2314453125,0.2906494140625,0.5098876953125
7.073,311,846,1091,310,0.0,33.0,49.0,3.051757574081421,-32.8369140625,-74.52392578125,-1.0633544921875,0.749267578125,0.3568115234375
7.089,310,917,1255,311,0.0,33.0,49.0,-55.969234466552734,-1.220703125,-69.88525390625,-2.592041015625,1.7047119140625,0.177490234375
7.112,310,944,1357,312,0.0,33.0,49.0,-103.51561737060547,1.3427733182907104,-42.785640716552734,-2.592041015625,1.7047119140625,0.177490234375
7.113,310,958,1387,312,0.0,33.0,49.0,-122.92479705810547,-26.672361373901367,-29.418943405151367,-2.6507568359375,1.2186279296875,0.8062744140625
7.117,310,935,1305,312,0.0,33.0,49.0,-101.50145721435547,-52.856441497802734,-43.518062591552734,-2.297119140625,-0.676025390625,1.325927734375
7.125,310,927,1258,312,0.0,33.0,49.0,-43.212886810302734,-56.579586029052734,-57.800289154052734,-2.297119140625,-0.676025390625,1.325927734375
7.133,310,922,1234,312,0.0,33.0,49.0,41.625972747802734,-37.9638671875,-52.307125091552734,-1.358154296875,-0.52099609375,0.7120361328125
7.153,310,927,1204,311,0.0,33.0,49.0,108.52050018310547,-10.253905296325684,-39.36767578125,-1.24951171875,1.0753173828125,0.2325439453125
7.162,310,919,1188,299,0.0,33.0,49.0,94.29930877685547,15.258788108825684,-33.87451171875,-1.24951171875,1.0753173828125,0.2325439453125
7.163,310,907,1162,298,3.0,31.0,47.0,17.578125,33.69140625,-36.4990234375,-1.9442138671875,0.8944091796875,0.443603515625
7.184,310,861,1095,311,3.0,31.0,47.0,-42.358394622802734,38.87939453125,-38.57421875,-2.1484375,-0.0638427734375,0.5601806640625
7.185,310,819,1031,312,3.0,31.0,47.0,-49.926753997802734,31.616209030151367,-32.28759765625,-2.1484375,-0.0638427734375,0.5601806640625
7.193,310,780,955,311,3.0,31.0,47.0,-23.986814498901367,23.437498092651367,-16.357421875,-1.89599609375,-0.040771484375,0.450439453125
7.218,310,697,802,310,3.0,31.0,47.0,24.291990280151367,24.780271530151367,21.728513717651367,-1.307861328125,0.290771484375,0.3792724609375
7.218,310,642,695,310,3.0,31.0,47.0,24.291990280151367,24.780271530151367,21.728513717651367,-0.980224609375,0.4150390625,0.3502197265625
7.223,310,576,618,311,3.0,31.0,47.0,28.442380905151367,30.517576217651367,35.888671875,-0.980224609375,0.4150390625,0.3502197265625
7.237,308,490,488,310,3.0,31.0,47.0,4.150390625,44.311519622802734,47.851558685302734,-0.25,0.1025390625,0.28369140625
7.245,308,442,438,309,3.0,31.0,47.0,4.150390625,44.311519622802734,47.851558685302734,0.0672607421875,-0.21435546875,0.2774658203125
7.261,310,424,452,310,3.0,31.0,47.0,-0.8544921278953552,48.095699310302734,43.762203216552734,0.0672607421875,-0.21435546875,0.2774658203125
7.269,310,387,424,310,1.0,32.0,48.0,40.893550872802734,48.217769622802734,8.23974609375,0.113037109375,-0.250732421875,0.2823486328125
7.275,309,371,420,310,1.0,32.0,48.0,40.893550872802734,48.217769622802734,8.23974609375,-0.162109375,0.0289306640625,0.0718994140625
7.287,310,364,407,310,1.0,32.0,48.0,67.9931640625,52.978511810302734,-14.099120140075684,-0.162109375,0.0289306640625,0.0718994140625
7.306,308,357,401,310,1.0,32.0,48.0,77.0263671875,51.147457122802734,-23.315427780151367,-0.55029296875,0.552734375,-0.0977783203125
7.310,310,357,401,310,1.0,32.0,48.0,77.0263671875,51.147457122802734,-23.315427780151367,-0.607421875,0.619873046875,-0.0465087890625
7.316,310,360,408,309,1.0,32.0,48.0,53.771968841552734,35.33935546875,-13.732909202575684,-0.607421875,0.619873046875,-0.0465087890625
7.328,308,364,419,310,1.0,32.0,48.0,-2.50244140625,16.9677734375,-4.5166015625,-0.6962890625,0.315185546875,0.1190185546875
7.335,310,361,420,310,1.0,32.0,48.0,-2.50244140625,16.9677734375,-4.5166015625,-0.802490234375,0.154296875,0.134033203125
7.343,310,363,424,310,1.0,32.0,48.0,-11.901854515075684,17.39501953125,-5.981444835662842,-0.8936767578125,0.1124267578125,0.097900390625
7.368,310,363,431,310,0.0,33.0,42.0,3.234863042831421,15.441893577575684,-8.23974609375,-0.94091796875,0.1495361328125,0.0499267578125
7.371,310,364,428,309,0.0,33.0,42.0,5.249022960662842,8.544921875,-7.263183116912842,-0.97412109375,0.2100830078125,0.0447998046875
7.373,308,364,430,308,0.0,33.0,42.0,5.249022960662842,8.544921875,-7.263183116912842,-0.997314453125,0.222900390625,0.0892333984375
7.390,310,369,432,309,0.0,33.0,42.0,-6.042479991912842,-4.8828125,-1.4038084745407104,-1.0140380859375,0.181640625,0.1177978515625
7.398,308,368,435,310,0.0,33.0,42.0,-8.9111328125,-5.432128429412842,3.601073980331421,-1.0128173828125,0.1380615234375,0.1243896484375
7.421,308,372,433,310,0.0,33.0,42.0,-8.9111328125,-5.432128429412842,3.601073980331421,-0.9935302734375,0.1119384765625,0.1456298828125
7.421,308,379,436,310,0.0,33.0,42.0,-8.97216796875,-5.310058116912842,17.578125,-0.97998046875,0.1265869140625,0.168701171875
7.425,310,380,428,310,0.0,33.0,42.0,-9.1552734375,-6.042479991912842,24.536130905151367,-0.971435546875,0.1722412109375,0.1761474609375
7.442,310,380,430,310,0.0,33.0,42.0,-9.1552734375,-6.042479991912842,24.536130905151367,-0.9644775390625,0.21142578125,0.1783447265625
7.447,308,381,426,296,0.0,33.0,42.0,-14.587401390075684,-7.141112804412842,36.43798828125,-0.9510498046875,0.2337646484375,0.1895751953125
7.461,310,380,428,310,0.0,34.0,41.0,-17.88330078125,-8.23974609375,42.846675872802734,-0.92724609375,0.23974609375,0.2081298828125
7.463,309,384,433,310,0.0,34.0,41.0,-17.88330078125,-8.23974609375,42.846675872802734,-0.883056640625,0.2232666015625,0.2178955078125
7.481,309,391,439,309,0.0,34.0,41.0,-22.888181686401367,-13.122557640075684,58.105464935302734,-0.802978515625,0.179443359375,0.1807861328125
7.495,295,401,430,310,0.0,34.0,41.0,-23.864744186401367,-17.578125,66.162109375,-0.692138671875,0.12109375,0.1016845703125
7.495,309,411,453,296,0.0,34.0,41.0,-23.010251998901367,-24.169919967651367,75.37841796875,-0.5146484375,0.073486328125,0.027099609375
7.507,306,441,499,310,0.0,34.0,41.0,-20.507810592651367,-32.71484375,83.31298065185547,-0.21728515625,0.071533203125,-0.017578125
7.524,309,480,531,310,0.0,34.0,41.0,-16.17431640625,-42.968746185302734,82.39745330810547,0.247802734375,0.082763671875,-0.0316162109375
7.524,311,522,557,310,0.0,34.0,41.0,-7.629394054412842,-53.222652435302734,62.866207122802734,0.6767578125,-0.003173828125,-0.0052490234375
7.537,310,594,739,311,0.0,34.0,41.0,14.709471702575684,-64.88037109375,22.888181686401367,0.7657470703125,-0.091796875,0.09375
7.549,310,660,902,312,0.0,34.0,41.0,55.786128997802734,-78.4912109375,-27.465818405151367,0.5057373046875,0.14501953125,0.174072265625
7.556,310,732,1054,311,0.0,33.0,48.0,77.81982421875,-75.62255859375,-73.18115234375,-0.04150390625,0.548095703125,0.1092529296875
7.567,309,835,1257,310,0.0,33.0,48.0,31.799314498901367,-46.264644622802734,-97.53417205810547,-0.915771484375,0.8974609375,0.0252685546875
7.581,310,888,1353,311,0.0,33.0,48.0,-54.077144622802734,-15.563963890075684,-87.46337127685547,-2.0001220703125,1.4197998046875,0.0941162109375
7.585,295,918,1456,311,0.0,33.0,48.0,-119.81200408935547,-13.916014671325684,-54.382320404052734,-2.589599609375,1.568115234375,0.512451171875
7.597,309,953,1504,312,0.0,33.0,48.0,-148.01025390625,-40.10009765625,-35.70556640625,-2.5845947265625,0.6187744140625,1.1939697265625
7.627,310,942,1445,311,0.0,33.0,48.0,-125.85448455810547,-59.692378997802734,-42.602535247802734,-2.595458984375,-0.5650634765625,1.5174560546875
7.627,308,928,1400,312,0.0,33.0,48.0,-40.771480560302734,-53.771968841552734,-39.9169921875,-2.4022216796875,-0.80859375,1.2572021484375
7.628,310,923,1361,298,0.0,33.0,48.0,70.80078125,-34.48486328125,-10.864256858825684,-1.5238037109375,-0.2725830078125,0.676513671875
7.636,311,922,1361,312,0.0,33.0,48.0,141.05224609375,-8.23974609375,12.756346702575684,-0.8380126953125,0.5802001953125,0.18408203125
7.643,311,920,1352,315,0.0,33.0,48.0,118.53026580810547,20.324705123901367,13.122557640075684,-1.1446533203125,1.17626953125,0.0594482421875
7.670,310,902,1323,312,2.0,30.0,47.0,29.785154342651367,39.24560546875,3.845214605331421,-1.76904296875,1.03515625,0.22314453125
7.672,312,874,1295,310,2.0,30.0,47.0,-40.832515716552734,42.236324310302734,-0.6103515625,-2.062255859375,0.5357666015625,0.4500732421875
7.674,310,844,1220,299,2.0,30.0,47.0,-56.884761810302734,32.89794921875,4.150390625,-2.014892578125,0.224853515625,0.54638671875
7.687,310,780,1151,311,2.0,30.0,47.0,-38.26904296875,22.766111373901367,13.671874046325684,-1.854248046875,0.2088623046875,0.4962158203125
7.699,310,728,1088,311,2.0,30.0,47.0,-11.169432640075684,19.22607421875,23.925779342651367,-1.6700439453125,0.296142578125,0.384765625
7.703,310,678,986,310,2.0,30.0,47.0,12.207030296325684,20.568845748901367,35.09521484375,-1.4222412109375,0.393310546875,0.29931640625
7.722,310,593,822,310,2.0,30.0,47.0,25.390623092651367,22.644041061401367,49.072261810302734,-1.0792236328125,0.4046630859375,0.2982177734375
7.728,310,548,718,310,2.0,30.0,47.0,24.597166061401367,23.864744186401367,62.255855560302734,-0.674560546875,0.26318359375,0.3406982421875
7.734,309,506,634,310,2.0,30.0,47.0,15.380858421325684,26.489255905151367,68.29833984375,-0.246826171875,0.05810546875,0.316650390625
7.747,309,465,557,311,2.0,30.0,47.0,10.009765625,30.029294967651367,60.729976654052734,0.1278076171875,-0.1107177734375,0.2684326171875
7.755,310,440,538,310,0.0,34.0,49.0,16.2353515625,30.212400436401367,35.70556640625,0.285888671875,-0.148681640625,0.2794189453125
7.776,310,430,523,310,0.0,34.0,49.0,30.273435592651367,29.174802780151367,-1.03759765625,0.1275634765625,-0.0050048828125,0.2384033203125
7.777,310,408,484,308,0.0,34.0,49.0,41.442867279052734,34.3017578125,-33.0810546875,-0.2197265625,0.2373046875,0.0535888671875
7.803,310,399,498,308,0.0,34.0,49.0,49.133296966552734,45.104976654052734,-46.203609466552734,-0.5196533203125,0.47509765625,-0.1258544921875
7.804,309,393,487,297,0.0,34.0,49.0,53.222652435302734,50.781246185302734,-42.175289154052734,-0.6671142578125,0.670166015625,-0.1446533203125
7.807,308,386,513,310,0.0,34.0,49.0,41.809078216552734,44.860836029052734,-33.50830078125,-0.7249755859375,0.5601806640625,0.1297607421875
7.831,308,386,502,296,0.0,34.0,49.0,12.634276390075684,33.203125,-30.273435592651367,-0.7249755859375,0.5601806640625,0.1297607421875
7.831,310,386,519,310,0.0,34.0,49.0,-18.5546875,24.719236373901367,-32.8369140625,-0.7569580078125,0.2840576171875,0.2042236328125
7.840,310,391,527,310,0.0,34.0,49.0,-34.0576171875,21.301267623901367,-34.7900390625,-0.874755859375,0.0089111328125,0.1593017578125
7.845,310,387,519,310,0.0,34.0,49.0,-28.076169967651367,18.73779296875,-31.494138717651367,-0.874755859375,0.0089111328125,0.1593017578125
7.853,308,390,512,310,1.0,35.0,46.0,-9.3994140625,14.282225608825684,-23.193357467651367,-0.94140625,0.083984375,0.1568603515625
7.874,309,387,499,310,1.0,35.0,46.0,6.774901866912842,8.9111328125,-13.183592796325684,-0.9832763671875,0.2354736328125,0.1961669921875
7.876,310,372,491,308,1.0,35.0,46.0,11.474608421325684,4.7607421875,-4.69970703125,-0.9832763671875,0.2354736328125,0.1961669921875
7.887,311,384,481,308,1.0,35.0,46.0,8.056640625,3.173827886581421,2.01416015625,-0.9674072265625,0.220703125,0.216796875
7.932,308,381,467,310,1.0,35.0,46.0,4.150390625,5.249022960662842,14.831542015075684,-0.9339599609375,0.2193603515625,0.2381591796875
7.936,296,382,467,310,1.0,35.0,46.0,4.150390625,5.249022960662842,14.831542015075684,-0.914794921875,0.25,0.22509765625
7.936,294,369,466,296,1.0,35.0,46.0,4.69970703125,6.591796398162842,20.507810592651367,-0.914794921875,0.25,0.22509765625
7.936,308,379,465,310,1.0,35.0,46.0,-0.4882812201976776,8.4228515625,26.184080123901367,-0.9083251953125,0.2735595703125,0.1724853515625
7.939,297,378,463,290,1.0,35.0,46.0,-0.4882812201976776,8.4228515625,26.184080123901367,-0.9169921875,0.285888671875,0.1519775390625
7.946,294,378,441,300,1.0,35.0,46.0,-3.417968511581421,7.629394054412842,27.526853561401367,-0.9169921875,0.285888671875,0.1519775390625
7.958,309,378,465,308,0.0,35.0,48.0,-5.0048828125,5.737304210662842,28.564451217651367,-0.896728515625,0.3114013671875,0.12255859375
7.974,309,379,457,310,0.0,35.0,48.0,-6.469726085662842,3.417968511581421,29.968259811401367,-0.8609619140625,0.296875,0.103759765625
7.976,296,382,465,310,0.0,35.0,48.0,-8.544921875,1.15966796875,32.28759765625,-0.8609619140625,0.296875,0.103759765625
7.987,310,394,452,308,0.0,35.0,48.0,-15.197752952575684,-5.0048828125,43.029781341552734,-0.75244140625,0.2080078125,0.0362548828125
8.008,308,409,452,309,0.0,35.0,48.0,-15.197752952575684,-5.0048828125,43.029781341552734,-0.576904296875,0.13720703125,0.0203857421875
8.008,296,423,485,310,0.0,35.0,48.0,-18.85986328125,-11.962889671325684,51.940914154052734,-0.576904296875,0.13720703125,0.0203857421875
8.017,308,481,543,309,0.0,35.0,48.0,-9.09423828125,-39.794921875,52.856441497802734,0.3297119140625,-0.0335693359375,0.005615234375
8.030,310,512,607,310,0.0,35.0,48.0,-9.09423828125,-39.794921875,52.856441497802734,0.7821044921875,-0.0439453125,0.02001953125
8.038,310,566,711,310,0.0,35.0,48.0,4.2724609375,-62.011714935302734,29.785154342651367,0.7821044921875,-0.0439453125,0.02001953125
8.047,310,660,996,310,0.0,35.0,48.0,48.217769622802734,-74.0966796875,-53.161617279052734,0.669921875,0.4488525390625,-0.1669921875
8.055,310,715,1153,312,1.0,34.0,45.0,48.217769622802734,-74.0966796875,-53.161617279052734,-0.1448974609375,0.8336181640625,-0.1182861328125
8.063,310,782,1255,313,1.0,34.0,45.0,28.686521530151367,-43.762203216552734,-87.89061737060547,-0.1448974609375,0.8336181640625,-0.1182861328125
8.077,310,855,1398,312,1.0,34.0,45.0,-129.57763671875,5.432128429412842,-71.8994140625,-2.3341064453125,0.9337158203125,0.4232177734375
8.086,311,904,1477,312,1.0,34.0,45.0,-129.57763671875,5.432128429412842,-71.8994140625,-2.7471923828125,0.6055908203125,0.8358154296875
8.097,297,929,1514,312,1.0,34.0,45.0,-160.94969177246094,-22.949216842651367,-31.860349655151367,-2.7471923828125,0.6055908203125,0.8358154296875
8.139,310,910,1447,310,1.0,34.0,45.0,-92.59032440185547,-59.387203216552734,-2.0751953125,-2.572509765625,-0.6072998046875,1.3353271484375
8.139,310,902,1411,312,1.0,34.0,45.0,16.05224609375,-39.97802734375,23.986814498901367,-2.063232421875,-0.185546875,1.06787109375
8.139,311,891,1395,309,1.0,34.0,45.0,16.05224609375,-39.97802734375,23.986814498901367,-1.110595703125,0.4090576171875,0.6055908203125
8.139,310,888,1392,312,1.0,34.0,45.0,131.591796875,20.080564498901367,53.344722747802734,-0.883544921875,1.0750732421875,0.2357177734375
8.147,311,878,1381,311,1.0,34.0,45.0,86.12059783935547,39.00146484375,35.33935546875,-1.468017578125,1.3819580078125,0.11962890625
8.153,310,864,1367,312,0.0,35.0,45.0,86.12059783935547,39.00146484375,35.33935546875,-2.0074462890625,1.043212890625,0.1763916015625
8.170,310,813,1323,312,0.0,35.0,45.0,-34.1796875,32.1044921875,20.568845748901367,-2.1168212890625,0.570556640625,0.302978515625
8.180,308,780,1292,312,0.0,35.0,45.0,-35.64453125,18.61572265625,28.320310592651367,-1.992919921875,0.3646240234375,0.3671875
8.184,310,729,1236,312,0.0,35.0,45.0,-35.64453125,18.61572265625,28.320310592651367,-1.813720703125,0.437744140625,0.3333740234375
8.197,310,658,1074,312,0.0,35.0,45.0,8.7890625,6.896972179412842,47.790523529052734,-1.5325927734375,0.5296630859375,0.285888671875
8.209,310,608,982,311,0.0,35.0,45.0,24.963376998901367,6.896972179412842,60.485836029052734,-1.0501708984375,0.3975830078125,0.293212890625
8.236,310,579,887,310,0.0,35.0,45.0,24.963376998901367,6.896972179412842,60.485836029052734,-0.4593505859375,0.1485595703125,0.3192138671875
8.236,310,495,750,312,0.0,35.0,45.0,44.738765716552734,10.375975608825684,53.344722747802734,-0.014892578125,-0.023193359375,0.292724609375
8.236,309,469,711,310,0.0,35.0,45.0,58.593746185302734,13.305663108825684,23.559568405151367,0.170654296875,-0.077392578125,0.2083740234375
8.243,310,441,654,310,0.0,35.0,45.0,58.593746185302734,13.305663108825684,23.559568405151367,0.1024169921875,-0.0015869140625,0.1434326171875
8.258,310,419,614,310,0.0,36.0,44.0,65.5517578125,24.230955123901367,-35.15625,-0.1572265625,0.18359375,0.0972900390625
8.265,308,414,604,309,0.0,36.0,44.0,56.152339935302734,28.808591842651367,-44.006343841552734,-0.4381103515625,0.3995361328125,0.000732421875
8.273,310,408,587,310,0.0,36.0,44.0,48.889156341552734,33.75244140625,-43.457027435302734,-0.618896484375,0.5946044921875,-0.1112060546875
8.287,308,384,568,310,0.0,36.0,44.0,40.344234466552734,35.94970703125,-39.306640625,-0.684326171875,0.71826171875,-0.1422119140625
8.297,310,369,548,310,0.0,36.0,44.0,22.460935592651367,30.761716842651367,-34.48486328125,-0.659912109375,0.6666259765625,-0.0322265625
8.314,298,373,548,296,0.0,36.0,44.0,-2.868652105331421,20.01953125,-33.203125,-0.6334228515625,0.4403076171875,0.131591796875
8.350,308,373,558,310,0.0,36.0,44.0,-23.986814498901367,10.375975608825684,-35.0341796875,-0.657958984375,0.1949462890625,0.2254638671875
8.352,310,373,566,310,0.0,36.0,44.0,-29.235837936401367,4.69970703125,-35.5224609375,-0.7081298828125,0.055908203125,0.226806640625
8.353,310,377,572,309,0.0,36.0,44.0,-18.85986328125,1.5258787870407104,-32.77587890625,-0.77490234375,0.0751953125,0.1961669921875
8.354,310,380,571,309,0.0,35.0,44.0,-3.540038824081421,-2.01416015625,-28.869626998901367,-0.8541259765625,0.2147216796875,0.185791015625
8.355,310,380,564,310,0.0,35.0,44.0,6.408690929412842,-6.103515148162842,-25.451658248901367,-0.9171142578125,0.355224609375,0.1824951171875
8.363,310,381,571,310,0.0,35.0,44.0,7.019042491912842,-9.1552734375,-22.338865280151367,-0.93310546875,0.392822265625,0.1854248046875
8.382,308,382,574,310,0.0,35.0,44.0,1.7700194120407104,-9.765625,-19.6533203125,-0.9124755859375,0.33349609375,0.20263671875
8.385,309,384,580,310,0.0,35.0,44.0,-3.784179449081421,-7.873534679412842,-16.845703125,-0.8929443359375,0.250244140625,0.2247314453125
8.395,312,386,588,310,0.0,35.0,44.0,-6.225585460662842,-5.187987804412842,-12.695311546325684,-0.8968505859375,0.1904296875,0.2354736328125
8.414,309,385,594,310,0.0,35.0,44.0,-5.737304210662842,-3.784179449081421,-6.286620616912842,-0.9202880859375,0.1639404296875,0.2247314453125
8.415,310,367,594,298,0.0,35.0,44.0,-5.126952648162842,-4.33349609375,2.13623046875,-0.947509765625,0.16943359375,0.2060546875
8.423,310,382,594,310,0.0,35.0,44.0,-6.530761241912842,-6.225585460662842,11.169432640075684,-0.9591064453125,0.1998291015625,0.1942138671875
8.437,310,381,594,310,0.0,35.0,44.0,-9.46044921875,-8.36181640625,19.47021484375,-0.94091796875,0.23681640625,0.1845703125
8.451,309,386,594,310,0.0,35.0,44.0,-12.634276390075684,-9.82666015625,26.306150436401367,-0.9012451171875,0.2674560546875,0.176025390625
8.455,308,394,603,310,-2.0,35.0,44.0,-15.197752952575684,-10.681151390075684,31.982419967651367,-0.852783203125,0.29248046875,0.15478515625
8.467,309,402,608,310,-2.0,35.0,44.0,-16.90673828125,-11.840819358825684,37.04833984375,-0.7899169921875,0.3045654296875,0.1068115234375
8.475,310,407,628,310,-2.0,35.0,44.0,-18.00537109375,-14.160155296325684,42.175289154052734,-0.712890625,0.279052734375,0.0623779296875
8.487,310,413,673,310,-2.0,35.0,44.0,-19.71435546875,-18.1884765625,47.668453216552734,-0.5830078125,0.2054443359375,0.052490234375
8.499,309,465,742,310,-2.0,35.0,44.0,-20.080564498901367,-27.587888717651367,51.269527435302734,-0.290771484375,0.1246337890625,0.0634765625
8.505,308,499,823,310,-2.0,35.0,44.0,-15.747069358825684,-44.555660247802734,46.264644622802734,0.0968017578125,0.0892333984375,0.0360107421875
8.516,309,535,910,311,-2.0,35.0,44.0,-7.934569835662842,-60.485836029052734,28.259275436401367,0.382080078125,0.1285400390625,-0.00390625
8.546,310,607,1120,311,-2.0,35.0,44.0,4.0283203125,-66.83349609375,-2.746581792831421,0.550537109375,0.210693359375,-0.00390625
8.549,310,660,1216,310,-2.0,35.0,44.0,15.686034202575684,-60.485836029052734,-45.898433685302734,0.5418701171875,0.3470458984375,0.0087890625
8.551,310,721,1323,312,-2.0,35.0,44.0,-0.0610351525247097,-42.907711029052734,-86.91405487060547,0.170654296875,0.4876708984375,0.029541015625
8.568,309,810,1502,312,0.0,33.0,47.0,-50.720211029052734,-22.460935592651367,-103.82079315185547,-0.61328125,0.5076904296875,0.108642578125
8.577,310,858,1557,311,0.0,33.0,47.0,-98.02245330810547,-14.892577171325684,-90.51512908935547,-1.5909423828125,0.714111328125,0.294189453125
8.580,310,873,1577,312,0.0,33.0,47.0,-122.92479705810547,-29.113767623901367,-59.509273529052734,-2.2413330078125,0.9942626953125,0.6632080078125
8.591,311,931,1653,313,0.0,33.0,47.0,-136.1083984375,-51.757808685302734,-36.376953125,-2.392578125,-0.47705078125,1.4110107421875
8.600,311,921,1642,312,0.0,33.0,47.0,-112.67089080810547,-59.020992279052734,-30.517576217651367,-2.392578125,-0.47705078125,1.4110107421875
8.606,311,913,1621,312,0.0,33.0,47.0,-30.639646530151367,-43.823238372802734,-16.66259765625,-2.45263671875,-0.4796142578125,1.1639404296875
8.620,310,882,1574,313,0.0,33.0,47.0,61.157222747802734,-19.8974609375,16.9677734375,-1.068603515625,0.523193359375,0.2979736328125
8.651,310,878,1566,312,0.0,33.0,47.0,110.22948455810547,5.065917491912842,40.954586029052734,-1.068603515625,0.523193359375,0.2979736328125
8.652,311,877,1573,312,0.0,33.0,47.0,102.72216033935547,24.597166061401367,37.41455078125,-0.798828125,0.93896484375,0.1629638671875
8.652,310,837,1555,312,0.0,32.0,44.0,-3.051757574081421,30.639646530151367,0.0610351525247097,-1.8016357421875,0.938720703125,0.31298828125
8.660,311,833,1540,314,0.0,32.0,44.0,-3.051757574081421,30.639646530151367,0.0610351525247097,-2.0537109375,0.604736328125,0.4720458984375
8.665,310,814,1511,312,0.0,32.0,44.0,-33.99658203125,19.95849609375,-6.713866710662842,-2.0537109375,0.604736328125,0.4720458984375
8.678,310,764,1443,312,0.0,32.0,44.0,-12.695311546325684,2.0751953125,1.0986328125,-1.772705078125,0.3182373046875,0.5181884765625
8.692,310,713,1367,312,0.0,32.0,44.0,-12.695311546325684,2.0751953125,1.0986328125,-1.52880859375,0.3533935546875,0.435546875
8.698,310,666,1305,312,0.0,32.0,44.0,12.939452171325684,0.8544921278953552,8.85009765625,-1.52880859375,0.3533935546875,0.435546875
8.708,310,600,1176,311,0.0,32.0,44.0,40.771480560302734,5.0048828125,35.7666015625,-0.8671875,0.2889404296875,0.3702392578125
8.721,310,543,1088,312,0.0,32.0,44.0,40.771480560302734,5.0048828125,35.7666015625,-0.5103759765625,0.1246337890625,0.34765625
8.724,309,522,1031,312,0.0,32.0,44.0,38.02490234375,8.4228515625,46.447750091552734,-0.5103759765625,0.1246337890625,0.34765625
8.751,310,475,928,311,0.0,32.0,44.0,26.794431686401367,21.057126998901367,41.381832122802734,0.063720703125,-0.075439453125,0.1627197265625
8.752,309,430,895,314,-1.0,34.0,51.0,26.794431686401367,21.057126998901367,41.381832122802734,0.10546875,-0.013671875,0.1199951171875
8.754,310,441,865,312,-1.0,34.0,51.0,29.052732467651367,24.291990280151367,22.399900436401367,0.10546875,-0.013671875,0.1199951171875
8.768,310,423,826,310,-1.0,34.0,51.0,31.982419967651367,29.602048873901367,-24.047849655151367,-0.4256591796875,0.396240234375,-0.0548095703125
