time,compression0,compression1,compression2,compression3,magn_x,magn_y,magn_z,gyro_x,gyro_y,gyro_z,accel_x,accel_y,accel_z
0.007,308,438,391,310,-3.0,39.0,45.0,-1.8310545682907104,-1.8920897245407104,1.8310545682907104,-0.9442138671875,0.2735595703125,-0.149658203125
0.025,311,439,393,310,-3.0,39.0,45.0,-2.0751953125,-1.8920897245407104,1.5869139432907104,-0.9442138671875,0.2735595703125,-0.149658203125
0.025,310,439,391,312,-3.0,39.0,45.0,-2.38037109375,-1.7700194120407104,1.6479490995407104,-0.9420166015625,0.2728271484375,-0.145263671875
0.050,310,439,387,308,-3.0,39.0,45.0,-2.624511480331421,-1.5258787870407104,1.7700194120407104,-0.94091796875,0.27880859375,-0.143310546875
0.050,310,439,393,310,-3.0,39.0,45.0,-2.563476324081421,-1.220703125,1.7700194120407104,-0.94091796875,0.27880859375,-0.143310546875
0.052,310,441,393,310,-3.0,39.0,45.0,-2.13623046875,-0.9765624403953552,1.5258787870407104,-0.9423828125,0.2801513671875,-0.1435546875
0.072,308,441,393,310,-3.0,39.0,45.0,-1.4038084745407104,-0.8544921278953552,1.2817381620407104,-0.9461669921875,0.28173828125,-0.1500244140625
0.074,310,441,393,310,-3.0,39.0,45.0,-0.7934569716453552,-0.7324218153953552,1.03759765625,-0.94384765625,0.2802734375,-0.150146484375
0.082,310,441,393,310,-3.0,39.0,45.0,-0.54931640625,-0.6103515625,0.9155272841453552,-0.94384765625,0.2802734375,-0.150146484375
0.096,311,442,393,309,-4.0,43.0,40.0,-0.6713866591453552,-0.2441406100988388,0.6713866591453552,-0.9375,0.2784423828125,-0.142822265625
0.104,310,441,391,309,-4.0,43.0,40.0,-0.6713866591453552,-0.2441406100988388,0.6713866591453552,-0.9388427734375,0.2789306640625,-0.140625
0.112,309,441,393,310,-4.0,43.0,40.0,-0.9765624403953552,-0.0610351525247097,0.4272460639476776,-0.9388427734375,0.2789306640625,-0.140625
0.131,310,441,391,310,-4.0,43.0,40.0,-1.03759765625,0.4882812201976776,0.0610351525247097,-0.9464111328125,0.276611328125,-0.146728515625
0.151,309,442,391,310,-4.0,43.0,40.0,-1.03759765625,0.4882812201976776,0.0610351525247097,-0.94677734375,0.2747802734375,-0.1507568359375
0.152,309,427,379,312,-4.0,43.0,40.0,-0.8544921278953552,0.6713866591453552,0.0610351525247097,-0.94677734375,0.2747802734375,-0.1507568359375
0.156,309,444,394,310,-4.0,43.0,40.0,-0.1220703050494194,0.4882812201976776,0.30517578125,-0.94384765625,0.27490234375,-0.15380859375
0.164,309,442,394,310,-4.0,43.0,40.0,-0.1220703050494194,0.4882812201976776,0.30517578125,-0.94287109375,0.277099609375,-0.1517333984375
0.180,309,441,394,310,-4.0,43.0,40.0,0.1220703050494194,0.2441406100988388,0.54931640625,-0.94287109375,0.277099609375,-0.1517333984375
0.186,309,444,395,310,-4.0,43.0,40.0,-0.30517578125,0.2441406100988388,0.6713866591453552,-0.9388427734375,0.28271484375,-0.1444091796875
0.194,310,444,394,311,-6.0,40.0,38.0,-0.30517578125,0.2441406100988388,0.6713866591453552,-0.9407958984375,0.283935546875,-0.1463623046875
0.202,311,442,396,310,-6.0,40.0,38.0,-0.54931640625,0.54931640625,0.4882812201976776,-0.9407958984375,0.283935546875,-0.1463623046875
0.216,308,444,394,310,-6.0,40.0,38.0,-1.220703125,0.8544921278953552,0.30517578125,-0.9459228515625,0.277587890625,-0.1553955078125
0.225,310,441,399,310,-6.0,40.0,38.0,-1.220703125,0.8544921278953552,0.30517578125,-0.946533203125,0.27587890625,-0.154541015625
0.232,310,444,399,310,-6.0,40.0,38.0,-1.3427733182907104,0.6713866591453552,0.4882812201976776,-0.9437255859375,0.2784423828125,-0.149169921875
0.252,308,442,395,310,-6.0,40.0,38.0,-1.5258787870407104,0.54931640625,0.8544921278953552,-0.9407958984375,0.283447265625,-0.1474609375
0.255,310,442,394,310,-6.0,40.0,38.0,-2.13623046875,0.9765624403953552,0.8544921278953552,-0.9415283203125,0.2879638671875,-0.1513671875
0.262,309,441,393,309,-6.0,40.0,38.0,-2.13623046875,0.9765624403953552,0.8544921278953552,-0.9434814453125,0.2896728515625,-0.1580810546875
0.276,308,444,394,310,-6.0,40.0,38.0,-5.310058116912842,1.9531248807907104,0.4882812201976776,-0.9434814453125,0.2852783203125,-0.1617431640625
0.284,309,439,395,310,-6.0,40.0,38.0,-6.774901866912842,2.0751953125,0.3662109076976776,-0.9422607421875,0.2808837890625,-0.1602783203125
0.295,308,441,395,310,-6.0,40.0,38.0,-6.774901866912842,2.0751953125,0.3662109076976776,-0.9422607421875,0.2830810546875,-0.1591796875
0.325,309,439,394,310,-6.0,41.0,37.0,-8.60595703125,1.5258787870407104,0.0610351525247097,-0.9444580078125,0.287109375,-0.1588134765625
0.330,310,438,396,309,-6.0,41.0,37.0,-10.070799827575684,1.0986328125,-0.3662109076976776,-0.9462890625,0.2884521484375,-0.15771484375
0.342,309,437,394,310,-6.0,41.0,37.0,-10.070799827575684,1.0986328125,-0.3662109076976776,-0.94580078125,0.288330078125,-0.1566162109375
0.367,310,435,394,310,-6.0,41.0,37.0,-11.901854515075684,0.6103515625,-1.4648436307907104,-0.9437255859375,0.2886962890625,-0.150634765625
0.367,310,433,398,311,-6.0,41.0,37.0,-11.962889671325684,0.6713866591453552,-1.9531248807907104,-0.943603515625,0.29248046875,-0.140869140625
0.367,310,430,398,310,-6.0,41.0,37.0,-11.962889671325684,0.6713866591453552,-1.9531248807907104,-0.947265625,0.298583984375,-0.1341552734375
0.367,310,423,394,310,-6.0,41.0,37.0,-12.023924827575684,1.15966796875,-3.356933355331421,-0.95361328125,0.300537109375,-0.1334228515625
0.374,310,419,387,309,-6.0,41.0,37.0,-11.718749046325684,1.4648436307907104,-4.45556640625,-0.962890625,0.3016357421875,-0.1341552734375
0.385,309,414,399,310,-6.0,41.0,37.0,-10.681151390075684,1.7700194120407104,-5.493163585662842,-0.9945068359375,0.2974853515625,-0.1195068359375
0.399,308,401,411,309,-3.0,42.0,38.0,-6.347655773162842,2.197265625,-5.493163585662842,-1.0433349609375,0.2701416015625,-0.07373046875
0.404,309,388,417,310,-3.0,42.0,38.0,7.507323741912842,3.784179449081421,-3.112792730331421,-1.05517578125,0.293701171875,-0.0843505859375
0.412,309,373,420,310,-3.0,42.0,38.0,24.658201217651367,6.530761241912842,-0.9765624403953552,-1.0318603515625,0.385986328125,-0.188232421875
0.430,310,356,428,308,-3.0,42.0,38.0,25.329587936401367,7.019042491912842,-3.906249761581421,-1.01123046875,0.40283203125,-0.248779296875
0.434,310,353,428,310,-3.0,42.0,38.0,9.521484375,3.906249761581421,-10.070799827575684,-1.0054931640625,0.3187255859375,-0.21826171875
0.459,309,331,432,310,-3.0,42.0,38.0,-3.234863042831421,0.7934569716453552,-13.549803733825684,-1.003173828125,0.24609375,-0.169677734375
0.459,308,300,411,310,-3.0,42.0,38.0,-3.356933355331421,0.1220703050494194,-12.756346702575684,-0.98388671875,0.239013671875,-0.1558837890625
0.469,310,313,428,310,-3.0,42.0,38.0,1.7089842557907104,0.8544921278953552,-10.742186546325684,-0.9703369140625,0.271240234375,-0.1651611328125
0.473,309,314,426,310,-3.0,42.0,38.0,2.25830078125,-0.1831054538488388,-9.1552734375,-0.966796875,0.309326171875,-0.1309814453125
0.486,309,314,424,310,-3.0,42.0,38.0,-3.234863042831421,-4.0283203125,-7.263183116912842,-0.9627685546875,0.346923828125,-0.0643310546875
0.506,310,314,426,310,-4.0,43.0,38.0,-11.840819358825684,-8.23974609375,-5.310058116912842,-0.976806640625,0.388916015625,-0.0306396484375
0.507,310,313,426,310,-4.0,43.0,38.0,-22.155759811401367,-12.390135765075684,-4.45556640625,-0.9854736328125,0.411865234375,-0.0198974609375
0.516,310,314,426,310,-4.0,43.0,38.0,-32.1044921875,-16.66259765625,-4.57763671875,-0.9510498046875,0.4300537109375,-0.0330810546875
0.533,310,314,433,310,-4.0,43.0,38.0,-42.541500091552734,-20.202634811401367,-6.408690929412842,-0.892578125,0.4228515625,-0.067626953125
0.534,308,299,437,310,-4.0,43.0,38.0,-56.457515716552734,-23.437498092651367,-10.192870140075684,-0.84033203125,0.349609375,-0.09130859375
0.559,310,314,434,309,-4.0,43.0,38.0,-68.359375,-26.000974655151367,-13.977049827575684,-0.8072509765625,0.26123046875,-0.100341796875
0.559,309,302,437,309,-4.0,43.0,38.0,-70.6787109375,-26.977537155151367,-16.11328125,-0.8037109375,0.2041015625,-0.1083984375
0.565,310,315,436,309,-4.0,43.0,38.0,-63.476558685302734,-26.367185592651367,-15.930174827575684,-0.8221435546875,0.1861572265625,-0.1295166015625
0.581,310,314,436,310,-4.0,43.0,38.0,-53.466793060302734,-24.597166061401367,-13.916014671325684,-0.838623046875,0.1868896484375,-0.154541015625
0.584,310,314,437,310,-4.0,43.0,38.0,-44.921871185302734,-22.338865280151367,-11.779784202575684,-0.8421630859375,0.1756591796875,-0.1737060546875
0.592,310,314,437,309,-1.0,40.0,39.0,-36.68212890625,-19.8974609375,-11.108397483825684,-0.8486328125,0.1517333984375,-0.185546875
0.611,310,314,437,310,-1.0,40.0,39.0,-26.916501998901367,-17.578125,-11.535643577575684,-0.865478515625,0.140625,-0.18408203125
0.614,308,313,449,310,-1.0,40.0,39.0,-16.66259765625,-15.319823265075684,-12.451170921325684,-0.880615234375,0.1319580078125,-0.1729736328125
0.622,310,312,457,310,-1.0,40.0,39.0,-7.690429210662842,-13.610838890075684,-13.366698265075684,-0.8839111328125,0.1094970703125,-0.1634521484375
0.642,310,315,472,310,-1.0,40.0,39.0,0.2441406100988388,-12.756346702575684,-13.549803733825684,-0.8751220703125,0.09228515625,-0.1593017578125
0.661,310,315,481,310,-1.0,40.0,39.0,6.652831554412842,-13.183592796325684,-12.573241233825684,-0.857177734375,0.1015625,-0.1522216796875
0.662,308,300,497,310,-1.0,40.0,39.0,8.9111328125,-15.380858421325684,-10.498045921325684,-0.840576171875,0.1240234375,-0.13232421875
0.666,308,343,496,310,-1.0,40.0,39.0,5.859374523162842,-18.5546875,-7.629394054412842,-0.8408203125,0.1424560546875,-0.1058349609375
0.675,310,349,495,310,-1.0,40.0,39.0,1.3427733182907104,-21.179197311401367,-3.601073980331421,-0.857421875,0.1700439453125,-0.08837890625
0.683,310,357,505,309,-1.0,40.0,39.0,-0.9765624403953552,-22.644041061401367,1.5869139432907104,-0.88330078125,0.21484375,-0.0843505859375
0.696,310,370,519,309,0.0,39.0,42.0,-2.3193359375,-23.803709030151367,6.408690929412842,-0.9190673828125,0.3037109375,-0.104248046875
0.706,310,379,513,311,0.0,39.0,42.0,-6.103515148162842,-26.306150436401367,9.1552734375,-0.9190673828125,0.3037109375,-0.104248046875
0.715,309,385,519,310,0.0,39.0,42.0,-12.512206077575684,-30.456541061401367,9.46044921875,-0.914306640625,0.29345703125,-0.1165771484375
0.726,310,402,519,310,0.0,39.0,42.0,-18.61572265625,-35.15625,8.7890625,-0.9197998046875,0.252197265625,-0.0941162109375
0.741,309,426,532,311,0.0,39.0,42.0,-22.338865280151367,-39.4287109375,8.30078125,-0.9197998046875,0.252197265625,-0.0941162109375
0.743,310,435,552,310,0.0,39.0,42.0,-23.864744186401367,-42.846675872802734,7.751464366912842,-0.9259033203125,0.2479248046875,-0.060791015625
0.768,310,479,582,310,0.0,39.0,42.0,-25.695798873901367,-46.081539154052734,6.530761241912842,-0.7923583984375,0.1395263671875,-0.0079345703125
0.768,310,495,605,298,0.0,39.0,42.0,-27.465818405151367,-49.743648529052734,4.33349609375,-0.7923583984375,0.1395263671875,-0.0079345703125
0.772,310,518,674,311,0.0,39.0,42.0,-26.245115280151367,-54.016109466552734,1.2817381620407104,-0.6865234375,0.0899658203125,0.007568359375
0.786,310,551,780,311,0.0,39.0,42.0,-22.338865280151367,-58.593746185302734,-2.50244140625,-0.4422607421875,0.1552734375,-0.0062255859375
0.794,311,579,846,312,-1.0,37.0,40.0,-19.71435546875,-61.401363372802734,-7.751464366912842,-0.4422607421875,0.1552734375,-0.0062255859375
0.807,310,614,902,312,-1.0,37.0,40.0,-21.728513717651367,-59.875484466552734,-14.465331077575684,-0.3905029296875,0.2305908203125,-0.03515625
0.825,310,660,1018,312,-1.0,37.0,40.0,-28.686521530151367,-53.649898529052734,-20.812986373901367,-0.7274169921875,0.5498046875,-0.02099609375
0.825,310,689,1108,314,-1.0,37.0,40.0,-42.907711029052734,-45.043941497802734,-24.841306686401367,-0.7274169921875,0.5498046875,-0.02099609375
0.832,311,720,1191,312,-1.0,37.0,40.0,-70.37353515625,-36.80419921875,-27.893064498901367,-0.9791259765625,0.6583251953125,-0.001220703125
0.846,310,749,1275,312,-1.0,37.0,40.0,-104.67528533935547,-30.944822311401367,-32.3486328125,-1.4266357421875,0.3818359375,0.2529296875
0.866,311,770,1338,312,-1.0,37.0,40.0,-124.08446502685547,-28.137205123901367,-35.64453125,-1.63671875,0.3204345703125,0.3978271484375
0.867,310,780,1377,312,-1.0,37.0,40.0,-117.43163299560547,-26.733396530151367,-34.11865234375,-1.63671875,0.3204345703125,0.3978271484375
0.876,310,793,1390,312,-1.0,37.0,40.0,-75.37841796875,-22.766111373901367,-25.024412155151367,-1.7867431640625,0.152099609375,0.5662841796875
0.884,310,794,1393,312,-1.0,37.0,40.0,-75.37841796875,-22.766111373901367,-25.024412155151367,-1.641845703125,-0.050537109375,0.5272216796875
0.892,310,794,1390,313,6.0,36.0,40.0,-48.645015716552734,-14.526366233825684,-22.399900436401367,-1.641845703125,-0.050537109375,0.5272216796875
0.907,311,793,1363,312,6.0,36.0,40.0,24.108884811401367,17.4560546875,-13.061522483825684,-1.540283203125,-0.0223388671875,0.172607421875
0.927,311,785,1326,314,6.0,36.0,40.0,24.108884811401367,17.4560546875,-13.061522483825684,-1.6588134765625,0.076171875,0.103515625
0.928,310,754,1254,310,6.0,36.0,40.0,35.0341796875,27.770994186401367,-5.737304210662842,-1.6588134765625,0.076171875,0.103515625
0.943,310,740,1153,312,6.0,36.0,40.0,28.930662155151367,34.36279296875,7.446288585662842,-1.54345703125,0.14501953125,0.0604248046875
0.944,312,705,1078,310,6.0,36.0,40.0,28.930662155151367,34.36279296875,7.446288585662842,-1.398681640625,0.246826171875,0.022216796875
0.973,311,671,996,312,6.0,36.0,40.0,32.3486328125,36.376953125,12.756346702575684,-1.398681640625,0.246826171875,0.022216796875
0.973,311,604,834,310,6.0,36.0,40.0,24.841306686401367,41.381832122802734,18.98193359375,-1.1121826171875,0.35791015625,-0.0191650390625
0.974,310,557,749,310,6.0,36.0,40.0,24.841306686401367,41.381832122802734,18.98193359375,-0.94873046875,0.3135986328125,-0.0084228515625
0.983,310,509,657,311,6.0,36.0,40.0,15.380858421325684,44.616695404052734,19.34814453125,-0.7803955078125,0.2103271484375,0.040771484375
0.999,310,435,542,309,3.0,38.0,41.0,13.977049827575684,51.086421966552734,13.916014671325684,-0.6431884765625,0.0814208984375,0.1021728515625
1.005,310,408,473,310,3.0,38.0,41.0,28.686521530151367,56.152339935302734,9.033203125,-0.5631103515625,-0.023193359375,0.140869140625
1.013,310,386,439,310,3.0,38.0,41.0,28.686521530151367,56.152339935302734,9.033203125,-0.5308837890625,-0.066162109375,0.1158447265625
1.046,309,357,420,308,3.0,38.0,41.0,72.57080078125,64.3310546875,1.8920897245407104,-0.543212890625,-0.0198974609375,0.0255126953125
1.047,310,338,402,309,3.0,38.0,41.0,87.95165252685547,62.072750091552734,4.39453125,-0.5906982421875,0.0814208984375,-0.0543212890625
1.047,296,322,396,289,3.0,38.0,41.0,87.95165252685547,62.072750091552734,4.39453125,-0.657470703125,0.1993408203125,-0.1065673828125
1.075,310,317,399,310,3.0,38.0,41.0,83.37401580810547,41.748043060302734,22.094724655151367,-0.7166748046875,0.339599609375,-0.1456298828125
1.075,310,315,401,308,3.0,38.0,41.0,63.781734466552734,28.808591842651367,37.2314453125,-0.736328125,0.463134765625,-0.1455078125
1.075,308,300,383,308,3.0,38.0,41.0,45.837398529052734,17.578125,44.494625091552734,-0.769775390625,0.479248046875,-0.0994873046875
1.088,310,317,394,311,0.0,42.0,39.0,39.61181640625,11.047362327575684,35.7666015625,-0.8515625,0.357421875,-0.0423583984375
1.095,310,314,394,309,0.0,42.0,39.0,46.264644622802734,9.521484375,19.53125,-0.927734375,0.2152099609375,-0.0328369140625
1.103,308,314,396,310,0.0,42.0,39.0,58.105464935302734,11.291502952575684,8.85009765625,-0.957763671875,0.1849365234375,-0.0662841796875
1.118,310,316,394,310,0.0,42.0,39.0,64.697265625,11.596678733825684,7.324218273162842,-0.9384765625,0.2396240234375,-0.0814208984375
1.125,310,314,395,308,0.0,42.0,39.0,62.438961029052734,7.873534679412842,10.314940452575684,-0.887451171875,0.29638671875,-0.0673828125
1.149,310,314,399,310,0.0,42.0,39.0,56.396480560302734,2.868652105331421,13.061522483825684,-0.834716796875,0.317626953125,-0.0577392578125
1.154,308,314,400,308,0.0,42.0,39.0,51.818843841552734,0.0610351525247097,13.366698265075684,-0.805419921875,0.28515625,-0.072998046875
1.195,310,317,401,310,0.0,42.0,39.0,47.607418060302734,-0.1831054538488388,9.3994140625,-0.800537109375,0.16943359375,-0.1383056640625
1.196,309,314,391,298,0.0,42.0,39.0,43.762203216552734,-1.3427733182907104,7.202147960662842,-0.8212890625,0.1678466796875,-0.1658935546875
1.196,311,315,426,310,0.0,42.0,39.0,36.1328125,-4.21142578125,6.042479991912842,-0.8515625,0.1737060546875,-0.167236328125
1.196,310,317,434,310,-1.0,40.0,41.0,27.526853561401367,-8.056640625,7.629394054412842,-0.867431640625,0.15087890625,-0.151123046875
1.209,310,330,465,310,-1.0,40.0,41.0,23.681638717651367,-11.474608421325684,12.145995140075684,-0.8447265625,0.1402587890625,-0.146484375
1.215,309,337,477,310,-1.0,40.0,41.0,25.573728561401367,-14.526366233825684,16.54052734375,-0.812744140625,0.1761474609375,-0.1507568359375
1.223,308,352,479,311,-1.0,40.0,41.0,26.611326217651367,-18.6767578125,18.37158203125,-0.80029296875,0.2337646484375,-0.1412353515625
1.277,310,363,488,310,-1.0,40.0,41.0,24.047849655151367,-24.169919967651367,18.37158203125,-0.774658203125,0.306640625,-0.1270751953125
1.279,311,363,493,309,-1.0,40.0,41.0,20.202634811401367,-29.724119186401367,16.845703125,-0.7060546875,0.4036865234375,-0.13525390625
1.279,310,399,490,311,-1.0,40.0,41.0,10.864256858825684,-35.21728515625,10.986327171325684,-0.624755859375,0.472900390625,-0.1529541015625
1.279,310,451,513,310,-1.0,40.0,41.0,-8.97216796875,-41.748043060302734,-0.1831054538488388,-0.57958984375,0.4837646484375,-0.1385498046875
1.279,309,481,543,311,-1.0,40.0,41.0,-34.3017578125,-51.025386810302734,-14.587401390075684,-0.56396484375,0.4599609375,-0.0792236328125
1.283,310,513,587,310,-1.0,40.0,41.0,-56.701656341552734,-62.194820404052734,-30.944822311401367,-0.51806640625,0.3961181640625,-0.04150390625
1.298,312,555,708,310,-3.0,39.0,42.0,-75.68359375,-70.068359375,-49.377437591552734,-0.453369140625,0.2447509765625,-0.05029296875
1.305,312,599,771,314,-3.0,39.0,42.0,-97.41210174560547,-70.86181640625,-66.5283203125,-0.424560546875,0.0592041015625,-0.11328125
1.316,310,623,858,312,-3.0,39.0,42.0,-123.53514862060547,-63.842769622802734,-77.57568359375,-0.49658203125,-0.0216064453125,-0.2362060546875
1.328,311,696,984,312,-3.0,39.0,42.0,-146.66748046875,-52.185054779052734,-78.91845703125,-0.704345703125,0.0399169921875,-0.2789306640625
1.335,310,737,1038,311,-3.0,39.0,42.0,-157.71484375,-42.785640716552734,-69.4580078125,-0.984130859375,0.2138671875,-0.1751708984375
1.358,311,771,1143,312,-3.0,39.0,42.0,-157.65380859375,-39.1845703125,-54.504390716552734,-1.2548828125,0.4437255859375,-0.0137939453125
1.358,310,809,1289,312,-3.0,39.0,42.0,-159.5458984375,-41.320796966552734,-43.273921966552734,-1.4881591796875,0.5400390625,0.24609375
1.379,310,823,1352,312,-3.0,39.0,42.0,-168.57908630371094,-48.767086029052734,-39.4287109375,-1.6407470703125,0.3665771484375,0.629638671875
1.380,310,846,1392,312,-3.0,39.0,42.0,-166.80906677246094,-53.894039154052734,-38.0859375,-1.6575927734375,0.058837890625,0.9202880859375
1.387,310,859,1390,313,3.0,39.0,40.0,-129.94384765625,-45.043941497802734,-33.14208984375,-1.6767578125,-0.0576171875,0.65087890625
1.395,310,847,1351,312,3.0,39.0,40.0,-61.401363372802734,-22.705076217651367,-23.742673873901367,-1.6767578125,-0.0576171875,0.65087890625
1.403,310,848,1333,313,3.0,39.0,40.0,2.25830078125,2.0751953125,-15.930174827575684,-1.6065673828125,0.0933837890625,0.2987060546875
1.417,310,846,1297,310,3.0,39.0,40.0,35.400390625,22.949216842651367,-16.41845703125,-1.4801025390625,0.1318359375,-0.1181640625
1.425,311,840,1281,313,3.0,39.0,40.0,40.893550872802734,37.109375,-20.324705123901367,-1.4801025390625,0.1318359375,-0.1181640625
1.433,313,832,1241,312,3.0,39.0,40.0,23.742673873901367,40.344234466552734,-18.73779296875,-1.6961669921875,0.163818359375,-0.10986328125
1.461,311,790,1162,312,3.0,39.0,40.0,-2.868652105331421,36.43798828125,-11.840819358825684,-1.6844482421875,0.0662841796875,-0.001953125
1.485,312,763,1092,312,3.0,39.0,40.0,-19.04296875,32.28759765625,-3.295898199081421,-1.6844482421875,0.0662841796875,-0.001953125
1.486,310,729,1009,312,3.0,39.0,40.0,-22.705076217651367,30.212400436401367,4.94384765625,-1.53662109375,0.08349609375,0.051513671875
1.486,311,654,858,312,3.0,39.0,40.0,-21.850584030151367,30.944822311401367,11.718749046325684,-1.2030029296875,0.0953369140625,0.1561279296875
1.486,310,590,745,297,4.0,37.0,41.0,-18.9208984375,36.2548828125,15.624999046325684,-1.2030029296875,0.0953369140625,0.1561279296875
1.493,310,549,673,310,4.0,37.0,41.0,-9.8876953125,47.058101654052734,15.563963890075684,-1.025390625,0.02392578125,0.1485595703125
1.507,309,430,505,310,4.0,37.0,41.0,8.11767578125,58.105464935302734,14.099120140075684,-0.841796875,-0.2156982421875,0.297119140625
1.515,310,410,463,310,4.0,37.0,41.0,36.9873046875,64.0869140625,18.12744140625,-0.841796875,-0.2156982421875,0.297119140625
1.525,310,380,434,310,4.0,37.0,41.0,81.48192596435547,68.7255859375,27.893064498901367,-0.6253662109375,-0.235595703125,0.270751953125
1.538,310,328,411,310,4.0,37.0,41.0,137.20703125,74.8291015625,25.756834030151367,-0.4852294921875,0.004150390625,-0.1231689453125
1.545,310,316,407,310,4.0,37.0,41.0,137.20703125,74.8291015625,25.756834030151367,-0.6134033203125,0.174072265625,-0.2481689453125
1.582,310,324,396,309,4.0,37.0,41.0,110.10741424560547,65.5517578125,18.24951171875,-0.6134033203125,0.174072265625,-0.2481689453125
1.584,309,321,373,310,4.0,37.0,41.0,49.743648529052734,29.602048873901367,35.400390625,-0.7691650390625,0.607177734375,-0.2015380859375
1.585,310,316,371,310,4.0,37.0,41.0,49.743648529052734,29.602048873901367,35.400390625,-0.8248291015625,0.697509765625,-0.1258544921875
1.585,310,315,379,310,4.0,37.0,41.0,35.70556640625,12.817381858825684,44.311519622802734,-0.8248291015625,0.697509765625,-0.1258544921875
1.599,310,315,386,310,1.0,39.0,41.0,34.1796875,0.1831054538488388,12.756346702575684,-0.7960205078125,0.285888671875,0.061279296875
1.607,308,314,380,311,1.0,39.0,41.0,34.1796875,0.1831054538488388,12.756346702575684,-0.7728271484375,0.175048828125,0.0858154296875
1.613,309,311,373,310,1.0,39.0,41.0,46.997066497802734,1.2817381620407104,-6.713866710662842,-0.7728271484375,0.175048828125,0.0858154296875
1.627,309,313,379,310,1.0,39.0,41.0,41.564937591552734,-7.019042491912842,-4.8828125,-0.688720703125,0.24365234375,0.073974609375
1.635,310,314,380,310,1.0,39.0,41.0,41.564937591552734,-7.019042491912842,-4.8828125,-0.6649169921875,0.26025390625,0.0533447265625
1.643,309,312,381,310,1.0,39.0,41.0,23.376462936401367,-10.864256858825684,3.234863042831421,-0.6649169921875,0.26025390625,0.0533447265625
1.660,310,312,387,311,1.0,39.0,41.0,-6.408690929412842,-14.404295921325684,8.6669921875,-0.61083984375,0.1416015625,-0.0130615234375
1.687,310,313,394,310,1.0,39.0,41.0,-6.408690929412842,-14.404295921325684,8.6669921875,-0.58251953125,0.02392578125,-0.0599365234375
1.688,297,314,386,310,1.0,39.0,41.0,-6.286620616912842,-15.319823265075684,8.544921875,-0.58251953125,0.02392578125,-0.0599365234375
1.688,309,315,396,296,2.0,39.0,44.0,29.113767623901367,-10.009765625,8.6669921875,-0.5802001953125,-0.2010498046875,-0.188232421875
1.696,310,312,439,310,2.0,39.0,44.0,56.335445404052734,-6.591796398162842,9.6435546875,-0.6043701171875,-0.2049560546875,-0.237060546875
1.708,309,337,505,310,2.0,39.0,44.0,56.335445404052734,-6.591796398162842,9.6435546875,-0.619873046875,-0.1055908203125,-0.2479248046875
1.717,310,380,545,310,2.0,39.0,44.0,86.18163299560547,-17.63916015625,22.827146530151367,-0.61376953125,0.076416015625,-0.22314453125
1.725,310,396,558,310,2.0,39.0,44.0,81.48192596435547,-30.517576217651367,30.761716842651367,-0.6553955078125,0.35009765625,-0.2003173828125
1.733,310,419,587,310,2.0,39.0,44.0,81.48192596435547,-30.517576217651367,30.761716842651367,-0.7813720703125,0.6241455078125,-0.1865234375
1.747,309,453,653,310,2.0,39.0,44.0,18.1884765625,-61.340328216552734,20.568845748901367,-0.8148193359375,0.7174072265625,-0.129150390625
1.763,310,485,728,312,2.0,39.0,44.0,-34.48486328125,-76.0498046875,0.9765624403953552,-0.637451171875,0.553466796875,0.0018310546875
1.764,296,509,824,310,2.0,39.0,44.0,-34.48486328125,-76.0498046875,0.9765624403953552,-0.445068359375,0.261474609375,0.1385498046875
1.792,310,585,1025,312,2.0,39.0,44.0,-122.31444549560547,-77.81982421875,-47.180171966552734,-0.4591064453125,0.051025390625,0.0916748046875
1.792,310,619,1133,312,-1.0,36.0,44.0,-162.04832458496094,-60.546871185302734,-61.950679779052734,-0.644287109375,-0.0384521484375,-0.06298828125
1.794,298,660,1216,311,-1.0,36.0,44.0,-162.04832458496094,-60.546871185302734,-61.950679779052734,-0.8812255859375,-0.032470703125,-0.0325927734375
1.807,310,702,1338,310,-1.0,36.0,44.0,-168.76219177246094,-38.2080078125,-34.48486328125,-1.18115234375,0.171630859375,0.0714111328125
1.820,312,725,1400,315,-1.0,36.0,44.0,-110.83983612060547,-37.2314453125,-8.6669921875,-1.5103759765625,0.4593505859375,0.1025390625
1.824,310,756,1437,313,-1.0,36.0,44.0,-110.83983612060547,-37.2314453125,-8.6669921875,-1.7354736328125,0.5423583984375,0.2275390625
1.837,311,785,1476,312,-1.0,36.0,44.0,-10.437010765075684,-42.297359466552734,-4.57763671875,-1.832763671875,0.43310546875,0.4393310546875
1.845,310,810,1478,312,-1.0,36.0,44.0,1.4038084745407104,-40.588375091552734,-12.145995140075684,-1.904541015625,0.2435302734375,0.5472412109375
1.853,310,809,1458,312,-1.0,36.0,44.0,4.5166015625,-27.709959030151367,-15.258788108825684,-1.956787109375,0.0003662109375,0.459228515625
1.867,310,803,1415,312,-1.0,36.0,44.0,15.014647483825684,-6.408690929412842,-16.7236328125,-1.7415771484375,-0.13232421875,0.1998291015625
1.896,310,803,1411,312,-1.0,36.0,44.0,33.99658203125,16.845703125,-16.90673828125,-1.3958740234375,-0.0328369140625,-0.0513916015625
1.896,298,803,1407,312,3.0,36.0,41.0,43.029781341552734,31.005857467651367,-12.634276390075684,-1.397705078125,0.1939697265625,-0.06640625
1.898,310,782,1373,312,3.0,36.0,41.0,24.414060592651367,31.738279342651367,-5.0048828125,-1.6224365234375,0.29541015625,0.0830078125
1.906,309,758,1336,312,3.0,36.0,41.0,-5.249022960662842,28.442380905151367,0.3662109076976776,-1.6978759765625,0.19921875,0.152587890625
1.914,309,728,1275,312,3.0,36.0,41.0,-20.751951217651367,27.648923873901367,3.967284917831421,-1.61181640625,0.1119384765625,0.1123046875
1.938,310,674,1163,311,3.0,36.0,41.0,-21.789548873901367,27.893064498901367,8.30078125,-1.488525390625,0.1112060546875,0.0706787109375
1.938,297,636,1074,311,3.0,36.0,41.0,-18.37158203125,28.991697311401367,11.657713890075684,-1.3753662109375,0.128662109375,0.0673828125
1.943,310,592,982,312,3.0,36.0,41.0,-14.404295921325684,32.53173828125,13.305663108825684,-1.2694091796875,0.144775390625,0.044189453125
1.957,310,519,780,310,3.0,36.0,41.0,-8.60595703125,38.4521484375,13.671874046325684,-1.1544189453125,0.163818359375,-0.039794921875
1.967,310,475,695,312,3.0,36.0,41.0,-0.3662109076976776,44.616695404052734,13.366698265075684,-1.0103759765625,0.1722412109375,-0.1429443359375
1.973,310,419,614,312,3.0,36.0,41.0,10.253905296325684,49.865718841552734,13.916014671325684,-0.8289794921875,0.1531982421875,-0.236328125
1.995,310,372,508,310,3.0,38.0,39.0,26.367185592651367,55.786128997802734,15.441893577575684,-0.659423828125,0.104736328125,-0.289306640625
1.996,308,336,467,296,3.0,38.0,39.0,48.339839935302734,59.997554779052734,16.6015625,-0.55517578125,0.0689697265625,-0.2249755859375
2.004,311,328,423,309,3.0,38.0,39.0,66.34521484375,57.678218841552734,17.02880859375,-0.511962890625,0.097412109375,-0.057861328125
2.012,310,323,394,309,3.0,38.0,39.0,68.66455078125,48.828121185302734,17.333984375,-0.5172119140625,0.173095703125,0.1248779296875
2.026,309,314,393,309,3.0,38.0,39.0,52.856441497802734,34.97314453125,20.751951217651367,-0.5521240234375,0.24365234375,0.2801513671875
2.035,308,315,386,310,3.0,38.0,39.0,24.108884811401367,18.1884765625,29.296873092651367,-0.56494140625,0.2567138671875,0.382080078125
2.046,302,314,384,309,3.0,38.0,39.0,0.4272460639476776,7.446288585662842,34.97314453125,-0.58447265625,0.2020263671875,0.3902587890625
2.057,309,314,384,310,3.0,38.0,39.0,8.72802734375,8.7890625,28.442380905151367,-0.6614990234375,0.150390625,0.30224609375
2.072,309,315,391,310,3.0,38.0,39.0,52.124019622802734,13.793944358825684,19.775390625,-0.7196044921875,0.1533203125,0.1331787109375
2.073,294,302,391,308,3.0,38.0,39.0,101.31835174560547,13.244627952575684,21.179197311401367,-0.720703125,0.1658935546875,-0.048095703125
2.099,310,322,396,308,-1.0,40.0,43.0,132.9345703125,6.958007335662842,28.442380905151367,-0.700927734375,0.1461181640625,-0.1331787109375
2.099,310,317,405,310,-1.0,40.0,43.0,148.5595703125,-1.7089842557907104,34.36279296875,-0.6739501953125,0.1424560546875,-0.1197509765625
2.103,309,316,406,309,-1.0,40.0,43.0,156.005859375,-8.85009765625,36.1328125,-0.6522216796875,0.177978515625,-0.086181640625
2.116,309,322,433,310,-1.0,40.0,43.0,155.94482421875,-13.183592796325684,33.203125,-0.642578125,0.1982421875,-0.06689453125
2.125,310,336,483,311,-1.0,40.0,43.0,148.13232421875,-15.563963890075684,27.099607467651367,-0.648193359375,0.16259765625,-0.062255859375
2.134,309,354,529,310,-1.0,40.0,43.0,137.8173828125,-17.63916015625,21.484373092651367,-0.701171875,0.1240234375,-0.0810546875
2.147,310,377,576,311,-1.0,40.0,43.0,129.2724609375,-21.057126998901367,19.83642578125,-0.7706298828125,0.171875,-0.1240234375
2.158,310,379,587,311,-1.0,40.0,43.0,118.40819549560547,-26.184080123901367,22.155759811401367,-0.80224609375,0.2904052734375,-0.1690673828125
2.163,310,386,618,311,-1.0,40.0,43.0,99.18212127685547,-32.40966796875,24.108884811401367,-0.816162109375,0.3775634765625,-0.1680908203125
2.176,310,418,648,311,-1.0,40.0,43.0,72.32666015625,-38.87939453125,22.705076217651367,-0.8148193359375,0.41455078125,-0.1546630859375
2.203,309,430,668,309,-6.0,36.0,44.0,41.992183685302734,-43.212886810302734,18.98193359375,-0.80712890625,0.432373046875,-0.1571044921875
2.203,310,447,711,310,-6.0,36.0,44.0,7.995604991912842,-45.898433685302734,13.854979515075684,-0.81298828125,0.3922119140625,-0.1138916015625
2.207,310,483,767,311,-6.0,36.0,44.0,-28.808591842651367,-48.461910247802734,7.202147960662842,-0.8275146484375,0.27490234375,-0.0169677734375
2.216,310,504,819,312,-6.0,36.0,44.0,-59.814449310302734,-49.560543060302734,-1.0986328125,-0.8287353515625,0.1334228515625,0.068603515625
2.223,310,516,864,312,-6.0,36.0,44.0,-75.86669921875,-48.583980560302734,-9.521484375,-0.8228759765625,0.031982421875,0.0950927734375
2.241,310,548,1000,312,-6.0,36.0,44.0,-74.64599609375,-48.400875091552734,-14.648436546325684,-0.80322265625,0.1260986328125,0.1519775390625
2.244,311,574,1074,312,-6.0,36.0,44.0,-60.485836029052734,-51.391597747802734,-13.854979515075684,-0.80322265625,0.1260986328125,0.1519775390625
2.252,310,585,1132,312,-6.0,36.0,44.0,-38.330078125,-55.541988372802734,-9.27734375,-0.8189697265625,0.2618408203125,0.1971435546875
2.281,312,608,1186,311,-6.0,36.0,44.0,-7.873534679412842,-57.495113372802734,-4.2724609375,-0.978515625,0.4046630859375,-0.0452880859375
2.296,312,622,1209,313,-6.0,36.0,44.0,27.099607467651367,-54.199214935302734,-0.7934569716453552,-0.978515625,0.4046630859375,-0.0452880859375
2.307,310,632,1219,312,-4.0,36.0,50.0,48.645015716552734,-43.762203216552734,-1.4648436307907104,-1.0335693359375,0.4251708984375,-0.17333984375
2.310,296,652,1232,312,-4.0,36.0,50.0,43.395992279052734,-30.273435592651367,-6.042479991912842,-1.2843017578125,0.4603271484375,0.030029296875
2.310,310,635,1215,299,-4.0,36.0,50.0,19.8974609375,-20.01953125,-11.901854515075684,-1.2843017578125,0.4603271484375,0.030029296875
2.312,309,673,1241,312,-4.0,36.0,50.0,-3.601073980331421,-13.854979515075684,-17.2119140625,-1.4552001953125,0.392578125,0.1689453125
2.326,310,687,1226,312,-4.0,36.0,50.0,-14.526366233825684,-8.1787109375,-19.8974609375,-1.6878662109375,0.202392578125,0.192626953125
2.334,311,673,1211,312,-4.0,36.0,50.0,-12.268065452575684,-1.9531248807907104,-20.080564498901367,-1.6878662109375,0.202392578125,0.192626953125
2.345,310,673,1198,312,-4.0,36.0,50.0,-3.356933355331421,2.929687261581421,-19.287109375,-1.6060791015625,0.1424560546875,0.0775146484375
2.357,310,666,1188,312,-4.0,36.0,50.0,2.25830078125,6.347655773162842,-18.06640625,-1.236328125,0.197998046875,-0.1376953125
2.364,310,662,1176,312,-4.0,36.0,50.0,-7.141112804412842,9.521484375,-14.648436546325684,-1.398681640625,0.3321533203125,0.0213623046875
2.387,310,654,1155,313,-4.0,36.0,50.0,-30.700681686401367,14.038084983825684,-7.812499523162842,-1.398681640625,0.3321533203125,0.0213623046875
2.405,309,620,1101,312,-3.0,33.0,46.0,-48.583980560302734,19.83642578125,2.563476324081421,-1.6768798828125,0.298828125,0.34033203125
2.406,310,587,1047,312,-3.0,33.0,46.0,-48.583980560302734,19.83642578125,2.563476324081421,-1.5546875,0.1685791015625,0.208740234375
2.406,310,579,966,299,-3.0,33.0,46.0,-33.50830078125,22.766111373901367,1.8310545682907104,-1.5546875,0.1685791015625,0.208740234375
2.416,310,527,901,312,-3.0,33.0,46.0,-15.686034202575684,36.2548828125,5.187987804412842,-1.2872314453125,0.196044921875,-0.1265869140625
2.424,311,503,830,312,-3.0,33.0,46.0,-15.686034202575684,36.2548828125,5.187987804412842,-1.1322021484375,0.25830078125,-0.2117919921875
2.432,310,467,767,311,-3.0,33.0,46.0,-15.319823265075684,43.701168060302734,7.751464366912842,-1.1322021484375,0.25830078125,-0.2117919921875
2.446,312,407,652,312,-3.0,33.0,46.0,-24.230955123901367,53.894039154052734,1.9531248807907104,-0.78662109375,0.230224609375,-0.308837890625
2.455,310,385,585,310,-3.0,33.0,46.0,-24.230955123901367,53.894039154052734,1.9531248807907104,-0.67724609375,0.1595458984375,-0.3232421875
2.462,310,371,543,310,-3.0,33.0,46.0,-29.968259811401367,58.715816497802734,-6.408690929412842,-0.67724609375,0.1595458984375,-0.3232421875
2.481,310,325,442,310,-3.0,33.0,46.0,-22.766111373901367,51.940914154052734,-15.380858421325684,-0.5709228515625,0.17578125,0.002685546875
2.484,310,323,399,310,-3.0,37.0,46.0,-22.766111373901367,51.940914154052734,-15.380858421325684,-0.5284423828125,0.226318359375,0.2264404296875
2.511,310,314,393,310,-3.0,37.0,46.0,-12.878417015075684,40.0390625,-13.427733421325684,-0.5284423828125,0.226318359375,0.2264404296875
2.512,310,314,386,310,-3.0,37.0,46.0,-15.869139671325684,18.5546875,-2.624511480331421,-0.52490234375,0.3233642578125,0.4674072265625
2.524,310,314,383,310,-3.0,37.0,46.0,-15.869139671325684,18.5546875,-2.624511480331421,-0.5908203125,0.2996826171875,0.3729248046875
2.524,310,315,384,310,-3.0,37.0,46.0,-21.728513717651367,17.578125,-4.57763671875,-0.6502685546875,0.2578125,0.20703125
2.536,310,314,387,310,-3.0,37.0,46.0,7.019042491912842,18.85986328125,-14.953612327575684,-0.665283203125,0.2103271484375,0.0421142578125
2.544,308,314,391,312,-3.0,37.0,46.0,24.536130905151367,12.268065452575684,-10.864256858825684,-0.671875,0.1068115234375,-0.08349609375
2.553,309,315,394,308,-3.0,37.0,46.0,24.536130905151367,12.268065452575684,-10.864256858825684,-0.6864013671875,-0.0035400390625,-0.130615234375
2.566,309,317,408,308,-3.0,37.0,46.0,45.349117279052734,-2.746581792831421,-4.8828125,-0.7054443359375,-0.04296875,-0.1195068359375
2.583,309,314,411,308,-3.0,37.0,46.0,51.269527435302734,-9.09423828125,-0.2441406100988388,-0.72119140625,-0.00537109375,-0.0894775390625
2.583,309,314,441,310,-4.0,37.0,41.0,51.269527435302734,-9.09423828125,-0.2441406100988388,-0.717041015625,0.0594482421875,-0.0438232421875
2.612,310,340,494,310,-4.0,37.0,41.0,56.884761810302734,-19.95849609375,9.1552734375,-0.69970703125,0.097412109375,-0.0079345703125
2.613,312,365,530,311,-4.0,37.0,41.0,56.091304779052734,-22.583005905151367,10.009765625,-0.6982421875,0.1258544921875,-0.0118408203125
2.613,309,364,537,297,-4.0,37.0,41.0,56.091304779052734,-22.583005905151367,10.009765625,-0.71142578125,0.199462890625,-0.0377197265625
2.628,309,394,574,310,-4.0,37.0,41.0,48.217769622802734,-23.986814498901367,13.488768577575684,-0.740966796875,0.2908935546875,-0.07080078125
2.635,311,410,574,311,-4.0,37.0,41.0,36.80419921875,-27.221677780151367,15.502928733825684,-0.775634765625,0.3428955078125,-0.1004638671875
2.642,309,433,587,311,-4.0,37.0,41.0,36.80419921875,-27.221677780151367,15.502928733825684,-0.777099609375,0.3575439453125,-0.1033935546875
2.656,310,481,621,310,-4.0,37.0,41.0,-0.0610351525247097,-43.029781341552734,10.192870140075684,-0.7279052734375,0.34130859375,-0.0518798828125
2.667,310,499,662,311,-4.0,37.0,41.0,-19.22607421875,-52.551265716552734,4.39453125,-0.6650390625,0.2532958984375,0.0679931640625
2.673,309,527,710,310,-4.0,37.0,41.0,-35.2783203125,-58.898921966552734,-3.540038824081421,-0.6424560546875,0.0927734375,0.201171875
2.686,310,574,818,310,-5.0,36.0,45.0,-41.076656341552734,-59.631343841552734,-11.230467796325684,-0.65087890625,-0.05908203125,0.269775390625
2.714,310,601,907,311,-5.0,36.0,45.0,-31.555173873901367,-56.518550872802734,-13.732909202575684,-0.67626953125,-0.085205078125,0.2703857421875
2.714,296,619,959,311,-5.0,36.0,45.0,-10.681151390075684,-54.321285247802734,-7.690429210662842,-0.7603759765625,0.0804443359375,0.1768798828125
2.722,310,664,1014,312,-5.0,36.0,45.0,14.892577171325684,-52.612300872802734,3.234863042831421,-0.90771484375,0.3470458984375,-0.047607421875
2.724,310,669,1050,311,-5.0,36.0,45.0,34.912109375,-47.424312591552734,10.192870140075684,-1.0672607421875,0.5562744140625,-0.2698974609375
2.735,310,683,1081,314,-5.0,36.0,45.0,37.90283203125,-39.1845703125,6.835937023162842,-1.158935546875,0.6591796875,-0.28759765625
2.746,310,705,1129,312,-5.0,36.0,45.0,23.254392623901367,-31.677244186401367,-6.225585460662842,-1.2320556640625,0.6536865234375,-0.0911865234375
2.754,310,723,1147,312,-5.0,36.0,45.0,1.5258787870407104,-25.817869186401367,-22.155759811401367,-1.4022216796875,0.52294921875,0.15673828125
2.762,308,730,1155,313,-5.0,36.0,45.0,-14.770506858825684,-19.04296875,-33.38623046875,-1.639404296875,0.3245849609375,0.319580078125
2.776,311,741,1159,312,-3.0,34.0,48.0,-18.06640625,-10.314940452575684,-37.109375,-1.836669921875,0.1480712890625,0.3521728515625
2.787,310,740,1148,312,-3.0,34.0,48.0,-8.97216796875,-0.9765624403953552,-34.60693359375,-1.901611328125,0.01953125,0.252197265625
2.793,309,730,1118,312,-3.0,34.0,48.0,4.82177734375,7.080077648162842,-29.052732467651367,-1.730712890625,-0.0616455078125,0.0059814453125
2.816,310,732,1094,312,-3.0,34.0,48.0,8.85009765625,11.596678733825684,-22.155759811401367,-1.384521484375,-0.0274658203125,-0.2384033203125
2.817,311,739,1081,312,-3.0,34.0,48.0,-7.019042491912842,12.939452171325684,-13.366698265075684,-1.1822509765625,0.1341552734375,-0.2525634765625
2.823,311,731,1067,312,-3.0,34.0,48.0,-33.14208984375,13.977049827575684,-4.7607421875,-1.3193359375,0.2760009765625,0.008544921875
2.842,310,706,1029,311,-3.0,34.0,48.0,-49.621578216552734,14.648436546325684,1.0986328125,-1.5965576171875,0.329833984375,0.3447265625
2.844,310,678,996,312,-3.0,34.0,48.0,-47.058101654052734,14.709471702575684,3.540038824081421,-1.6807861328125,0.306884765625,0.477294921875
2.855,311,657,953,312,-3.0,34.0,48.0,-32.89794921875,17.7001953125,2.197265625,-1.544189453125,0.1988525390625,0.3367919921875
2.866,310,620,848,312,-3.0,34.0,48.0,-21.484373092651367,25.390623092651367,0.54931640625,-1.3787841796875,0.09716796875,0.088134765625
2.875,309,601,781,312,-1.0,37.0,51.0,-18.06640625,34.85107421875,3.356933355331421,-1.28466796875,0.0936279296875,-0.07421875
2.888,310,569,725,312,-1.0,37.0,51.0,-17.4560546875,41.503902435302734,9.21630859375,-1.2266845703125,0.15283203125,-0.1136474609375
2.896,310,506,635,310,-1.0,37.0,51.0,-15.197752952575684,44.799800872802734,12.878417015075684,-1.1519775390625,0.20556640625,-0.1202392578125
2.918,310,468,579,310,-1.0,37.0,51.0,-13.732909202575684,47.241207122802734,12.268065452575684,-1.017822265625,0.220947265625,-0.1575927734375
2.918,310,424,533,310,-1.0,37.0,51.0,-17.02880859375,52.490230560302734,8.48388671875,-0.8143310546875,0.1898193359375,-0.2587890625
2.926,310,381,486,311,-1.0,37.0,51.0,-23.803709030151367,62.072750091552734,2.868652105331421,-0.6251220703125,0.1378173828125,-0.349853515625
2.934,310,355,467,310,-1.0,37.0,51.0,-28.808591842651367,68.78662109375,-2.38037109375,-0.5303955078125,0.1016845703125,-0.27587890625
2.953,309,315,424,308,-1.0,37.0,51.0,-28.808591842651367,64.27001953125,-5.615233898162842,-0.50927734375,0.1171875,-0.0672607421875
2.958,310,314,382,308,-1.0,37.0,51.0,-25.390623092651367,49.499507904052734,-6.225585460662842,-0.534912109375,0.158203125,0.1656494140625
2.965,310,312,380,310,-1.0,37.0,51.0,-26.000974655151367,30.578611373901367,-3.295898199081421,-0.5743408203125,0.193115234375,0.3472900390625
2.973,310,312,379,310,-1.0,37.0,51.0,-34.85107421875,15.319823265075684,3.540038824081421,-0.5860595703125,0.233642578125,0.3956298828125
2.991,310,313,377,310,-3.0,41.0,42.0,-42.785640716552734,10.559081077575684,8.9111328125,-0.7069091796875,0.15673828125,0.2183837890625
2.995,310,314,374,310,-3.0,41.0,42.0,-33.14208984375,15.136717796325684,4.45556640625,-0.7069091796875,0.15673828125,0.2183837890625
3.020,309,314,379,310,-3.0,41.0,42.0,-2.0751953125,21.301267623901367,-4.39453125,-0.745849609375,0.135986328125,0.0672607421875
3.021,310,315,380,309,-3.0,41.0,42.0,33.38623046875,20.690916061401367,-6.774901866912842,-0.7381591796875,0.1204833984375,-0.1019287109375
3.024,309,314,382,309,-3.0,41.0,42.0,54.809566497802734,10.498045921325684,-3.417968511581421,-0.7381591796875,0.1204833984375,-0.1019287109375
3.032,308,314,384,311,-3.0,41.0,42.0,60.729976654052734,-3.295898199081421,1.5869139432907104,-0.7425537109375,0.1160888671875,-0.0562744140625
3.061,308,317,393,309,-3.0,41.0,42.0,59.509273529052734,-13.305663108825684,6.713866710662842,-0.7647705078125,0.2283935546875,0.0255126953125
3.061,310,316,399,310,-3.0,41.0,42.0,57.128902435302734,-17.63916015625,10.131834983825684,-0.7647705078125,0.2283935546875,0.0255126953125
3.064,310,314,419,310,-3.0,41.0,42.0,53.405757904052734,-17.333984375,9.58251953125,-0.752685546875,0.2435302734375,0.03515625
3.077,310,342,449,310,-3.0,39.0,40.0,46.386714935302734,-13.916014671325684,5.493163585662842,-0.7279052734375,0.142578125,-0.0545654296875
3.085,310,356,465,310,-3.0,39.0,40.0,34.97314453125,-9.1552734375,1.7089842557907104,-0.7279052734375,0.142578125,-0.0545654296875
3.093,310,370,490,310,-3.0,39.0,40.0,20.202634811401367,-5.676269054412842,1.4648436307907104,-0.7425537109375,0.09375,-0.10205078125
3.106,309,394,502,310,-3.0,39.0,40.0,7.080077648162842,-4.8828125,5.493163585662842,-0.744873046875,0.21044921875,-0.122314453125
3.123,310,415,530,310,-3.0,39.0,40.0,0.1831054538488388,-6.896972179412842,12.207030296325684,-0.744873046875,0.21044921875,-0.122314453125
3.123,311,420,522,311,-3.0,39.0,40.0,-2.868652105331421,-12.756346702575684,16.845703125,-0.7720947265625,0.3092041015625,-0.1307373046875
3.138,310,490,568,310,-3.0,39.0,40.0,-20.202634811401367,-35.70556640625,10.864256858825684,-0.6717529296875,0.3756103515625,-0.0675048828125
3.145,310,521,617,311,-3.0,39.0,40.0,-20.202634811401367,-35.70556640625,10.864256858825684,-0.55517578125,0.2606201171875,0.0164794921875
3.165,309,543,678,310,-3.0,39.0,40.0,-32.3486328125,-46.081539154052734,2.685546636581421,-0.55517578125,0.2606201171875,0.0164794921875
3.173,309,576,795,311,-3.0,39.0,40.0,-51.635738372802734,-53.588863372802734,-17.2119140625,-0.461669921875,-0.0223388671875,0.1109619140625
3.175,311,599,865,312,-1.0,36.0,44.0,-51.635738372802734,-53.588863372802734,-17.2119140625,-0.4603271484375,-0.02001953125,0.130126953125
3.183,310,622,931,311,-1.0,36.0,44.0,-55.419918060302734,-52.551265716552734,-24.902341842651367,-0.4603271484375,-0.02001953125,0.130126953125
3.198,311,678,1022,311,-1.0,36.0,44.0,-30.761716842651367,-59.326168060302734,-22.827146530151367,-0.780029296875,0.196533203125,0.309814453125
3.223,311,700,1064,311,-1.0,36.0,44.0,-10.437010765075684,-60.485836029052734,-15.014647483825684,-1.09423828125,0.3314208984375,0.3719482421875
3.223,296,721,1104,311,-1.0,36.0,44.0,-10.437010765075684,-60.485836029052734,-15.014647483825684,-1.40673828125,0.458740234375,0.36083984375
3.227,312,741,1151,312,-1.0,36.0,44.0,23.803709030151367,-39.794921875,-1.2817381620407104,-1.666259765625,0.506103515625,0.2640380859375
3.236,311,756,1173,312,-1.0,36.0,44.0,40.10009765625,-21.057126998901367,-0.9155272841453552,-1.88330078125,0.4112548828125,0.1220703125
3.243,310,771,1176,312,-1.0,36.0,44.0,40.10009765625,-21.057126998901367,-0.9155272841453552,-2.061279296875,0.2237548828125,-0.00048828125
3.257,311,770,1140,311,-1.0,36.0,44.0,46.691890716552734,10.925292015075684,-8.30078125,-2.088134765625,0.0728759765625,-0.08203125
3.274,310,758,1129,312,-1.0,36.0,44.0,38.330078125,16.78466796875,-12.023924827575684,-1.8048095703125,0.0084228515625,-0.16943359375
3.275,295,740,1129,312,-4.0,35.0,46.0,38.330078125,16.78466796875,-12.023924827575684,-1.3692626953125,0.0269775390625,-0.2147216796875
3.288,310,751,1127,312,-4.0,35.0,46.0,-1.03759765625,21.911619186401367,-11.108397483825684,-1.2508544921875,0.1260986328125,-0.1201171875
3.297,312,747,1109,312,-4.0,35.0,46.0,-32.8369140625,24.597166061401367,-3.417968511581421,-1.5106201171875,0.210693359375,0.087646484375
3.304,308,739,1094,312,-4.0,35.0,46.0,-32.8369140625,24.597166061401367,-3.417968511581421,-1.7601318359375,0.21630859375,0.2786865234375
3.325,310,697,1029,311,-4.0,35.0,46.0,-47.119136810302734,25.878904342651367,10.070799827575684,-1.7672119140625,0.2080078125,0.3250732421875
3.326,310,674,974,311,-4.0,35.0,46.0,-34.1796875,27.465818405151367,11.535643577575684,-1.611083984375,0.2152099609375,0.219482421875
3.333,310,642,917,311,-4.0,35.0,46.0,-34.1796875,27.465818405151367,11.535643577575684,-1.44287109375,0.2235107421875,0.0616455078125
3.347,310,587,827,312,-4.0,35.0,46.0,-12.756346702575684,40.10009765625,10.131834983825684,-1.295654296875,0.23974609375,-0.0506591796875
3.356,307,558,770,311,-4.0,35.0,46.0,-7.934569835662842,45.227046966552734,10.070799827575684,-1.14599609375,0.253662109375,-0.1103515625
3.363,310,521,694,312,-4.0,35.0,46.0,-7.263183116912842,48.461910247802734,10.009765625,-0.9869384765625,0.2037353515625,-0.1649169921875
3.377,308,447,601,310,-3.0,36.0,44.0,-10.620116233825684,52.734371185302734,8.6669921875,-0.8302001953125,0.0631103515625,-0.25439453125
3.386,310,401,561,310,-3.0,36.0,44.0,-14.648436546325684,60.607906341552734,6.591796398162842,-0.6800537109375,-0.0496826171875,-0.3740234375
3.405,310,372,522,311,-3.0,36.0,44.0,-16.29638671875,69.76318359375,8.056640625,-0.5599365234375,-0.017822265625,-0.41357421875
3.415,310,329,465,310,-3.0,36.0,44.0,-18.1884765625,72.6318359375,13.549803733825684,-0.506591796875,0.100830078125,-0.2855224609375
3.425,308,322,407,310,-3.0,36.0,44.0,-22.949216842651367,65.5517578125,17.88330078125,-0.5081787109375,0.2066650390625,-0.0638427734375
3.426,308,311,386,310,-3.0,36.0,44.0,-29.357908248901367,50.964351654052734,18.12744140625,-0.5498046875,0.280029296875,0.155029296875
3.438,309,312,382,310,-3.0,36.0,44.0,-40.222164154052734,32.53173828125,17.2119140625,-0.5850830078125,0.33740234375,0.3289794921875
3.446,310,313,380,310,-3.0,36.0,44.0,-55.053707122802734,17.27294921875,15.930174827575684,-0.6182861328125,0.2823486328125,0.429931640625
3.453,309,313,379,310,-3.0,36.0,44.0,-54.138179779052734,15.319823265075684,5.493163585662842,-0.7130126953125,0.1324462890625,0.39794921875
3.468,309,312,378,309,-3.0,36.0,44.0,-20.568845748901367,25.756834030151367,-10.498045921325684,-0.78759765625,0.09130859375,0.2017822265625
3.488,310,312,379,310,-3.0,37.0,37.0,25.695798873901367,31.921384811401367,-14.831542015075684,-0.760986328125,0.147216796875,-0.022705078125
3.488,309,312,380,310,-3.0,37.0,37.0,49.133296966552734,22.888181686401367,-8.36181640625,-0.6995849609375,0.1339111328125,-0.1329345703125
3.502,309,312,382,308,-3.0,37.0,37.0,47.546382904052734,6.774901866912842,-1.5869139432907104,-0.6690673828125,0.051025390625,-0.1478271484375
3.528,310,314,381,310,-3.0,37.0,37.0,44.372554779052734,-4.638671875,4.638671875,-0.6640625,0.040771484375,-0.132568359375
3.531,309,313,386,309,-3.0,37.0,37.0,51.269527435302734,-9.8876953125,11.962889671325684,-0.6822509765625,0.136962890625,-0.093994140625
3.531,309,314,395,308,-3.0,37.0,37.0,62.255855560302734,-13.916014671325684,17.88330078125,-0.7183837890625,0.2449951171875,-0.0216064453125
3.535,309,312,399,310,-3.0,37.0,37.0,68.78662109375,-19.22607421875,20.446775436401367,-0.730712890625,0.296875,0.0472412109375
3.543,310,315,410,310,-3.0,37.0,37.0,67.07763671875,-22.888181686401367,20.01953125,-0.69970703125,0.2894287109375,0.0587158203125
3.557,309,361,444,308,-3.0,37.0,37.0,55.603023529052734,-22.399900436401367,17.7001953125,-0.64990234375,0.2318115234375,0.015380859375
3.565,310,383,447,310,-3.0,37.0,37.0,37.90283203125,-18.98193359375,15.502928733825684,-0.64453125,0.1572265625,-0.042724609375
3.573,310,415,426,310,-4.0,39.0,41.0,20.080564498901367,-16.11328125,15.869139671325684,-0.6981201171875,0.158203125,-0.099609375
3.587,309,488,437,310,-4.0,39.0,41.0,6.042479991912842,-15.380858421325684,20.080564498901367,-0.7633056640625,0.2735595703125,-0.1553955078125
3.595,308,518,465,310,-4.0,39.0,41.0,-2.0751953125,-17.9443359375,23.681638717651367,-0.8194580078125,0.406005859375,-0.20849609375
3.606,310,549,495,308,-4.0,39.0,41.0,-7.812499523162842,-28.015134811401367,20.324705123901367,-0.8072509765625,0.455810546875,-0.2373046875
3.634,310,607,562,311,-4.0,39.0,41.0,-17.822265625,-44.555660247802734,9.82666015625,-0.6871337890625,0.414306640625,-0.192138671875
3.634,310,639,616,297,-4.0,39.0,41.0,-33.3251953125,-58.959957122802734,-5.310058116912842,-0.5567626953125,0.2879638671875,-0.0947265625
3.634,310,658,657,311,-4.0,39.0,41.0,-49.438472747802734,-63.476558685302734,-23.925779342651367,-0.4888916015625,0.0948486328125,-0.0577392578125
3.647,310,716,739,311,-4.0,39.0,41.0,-58.959957122802734,-57.006832122802734,-42.053218841552734,-0.489990234375,-0.0684814453125,-0.083984375
3.656,310,739,780,310,-4.0,39.0,41.0,-61.401363372802734,-49.011226654052734,-51.086421966552734,-0.6129150390625,-0.1209716796875,-0.02978515625
3.663,312,771,814,311,-4.0,39.0,41.0,-59.204097747802734,-49.072261810302734,-43.945308685302734,-0.830322265625,-0.04345703125,0.15380859375
3.677,310,822,876,310,-1.0,37.0,46.0,-45.227046966552734,-53.344722747802734,-23.437498092651367,-1.212158203125,0.3193359375,0.5130615234375
3.694,309,837,917,312,-1.0,37.0,46.0,-18.12744140625,-52.734371185302734,-1.7700194120407104,-1.212158203125,0.3193359375,0.5130615234375
3.694,311,859,938,299,-1.0,37.0,46.0,9.58251953125,-46.264644622802734,10.803221702575684,-1.395263671875,0.4688720703125,0.632568359375
3.707,310,878,984,311,-1.0,37.0,46.0,28.076169967651367,-37.17041015625,14.526366233825684,-1.7225341796875,0.5540771484375,0.6204833984375
3.735,311,878,982,311,-1.0,37.0,46.0,41.381832122802734,-25.390623092651367,13.183592796325684,-1.7225341796875,0.5540771484375,0.6204833984375
3.739,312,875,960,312,-1.0,37.0,46.0,57.922359466552734,-9.8876953125,8.4228515625,-1.82958984375,0.470703125,0.4132080078125
3.739,308,873,939,310,-1.0,37.0,46.0,79.28466796875,9.33837890625,0.4272460639476776,-1.6348876953125,0.3111572265625,-0.42919921875
3.745,309,882,948,314,-1.0,37.0,46.0,92.83446502685547,26.672361373901367,-11.108397483825684,-1.6348876953125,0.3111572265625,-0.42919921875
3.754,310,884,958,310,-1.0,37.0,46.0,82.03124237060547,34.423828125,-23.437498092651367,-1.5396728515625,0.263427734375,-0.587158203125
3.767,310,873,935,312,-1.0,37.0,46.0,48.278804779052734,31.738279342651367,-31.555173873901367,-1.7362060546875,0.050537109375,-0.151611328125
3.777,311,855,913,310,-3.0,37.0,44.0,8.7890625,24.414060592651367,-34.3017578125,-1.7362060546875,0.050537109375,-0.151611328125
3.784,310,832,877,312,-3.0,37.0,44.0,-21.301267623901367,19.8974609375,-32.04345703125,-1.6658935546875,-0.0205078125,0.0643310546875
3.799,310,780,803,311,-3.0,37.0,44.0,-37.41455078125,22.155759811401367,-24.841306686401367,-1.4154052734375,0.0684814453125,0.10595703125
3.811,310,749,751,311,-3.0,37.0,44.0,-41.320796966552734,30.273435592651367,-14.099120140075684,-1.4154052734375,0.0684814453125,0.10595703125
3.814,311,705,703,311,-3.0,37.0,44.0,-36.9873046875,39.9169921875,-2.38037109375,-1.3099365234375,0.11962890625,0.0313720703125
3.849,310,622,617,311,-3.0,37.0,44.0,-21.911619186401367,50.231929779052734,13.793944358825684,-1.055419921875,0.208740234375,-0.0986328125
3.849,310,574,554,310,-3.0,37.0,44.0,-21.911619186401367,50.231929779052734,13.793944358825684,-0.9154052734375,0.21826171875,-0.0989990234375
3.849,310,522,531,310,-3.0,37.0,44.0,-19.6533203125,51.635738372802734,15.502928733825684,-0.9154052734375,0.21826171875,-0.0989990234375
3.857,310,441,490,309,-3.0,37.0,44.0,-19.83642578125,62.622066497802734,5.554198741912842,-0.55224609375,0.1461181640625,-0.24560546875
3.866,310,402,465,311,-3.0,37.0,44.0,-19.83642578125,62.622066497802734,5.554198741912842,-0.479248046875,0.1866455078125,-0.3118896484375
3.874,310,372,423,310,-5.0,39.0,46.0,-11.840819358825684,73.42529296875,2.13623046875,-0.479248046875,0.1866455078125,-0.3118896484375
3.888,309,317,402,310,-5.0,39.0,46.0,0.0610351525247097,66.58935546875,9.1552734375,-0.557861328125,0.3939208984375,-0.0657958984375
3.896,310,312,399,308,-5.0,39.0,46.0,0.0610351525247097,66.58935546875,9.1552734375,-0.5865478515625,0.4058837890625,0.0919189453125
3.913,310,312,399,309,-5.0,39.0,46.0,-11.718749046325684,46.691890716552734,11.962889671325684,-0.5865478515625,0.4058837890625,0.0919189453125
3.917,310,312,393,309,-5.0,39.0,46.0,-48.339839935302734,16.29638671875,-0.0610351525247097,-0.7371826171875,0.150634765625,0.376220703125
3.940,310,312,387,310,-5.0,39.0,46.0,-48.339839935302734,16.29638671875,-0.0610351525247097,-0.772216796875,0.10302734375,0.296875
3.940,310,312,384,308,-5.0,39.0,46.0,-35.09521484375,18.00537109375,-8.11767578125,-0.772216796875,0.10302734375,0.296875
3.948,308,313,386,308,-5.0,39.0,46.0,26.062009811401367,23.559568405151367,-0.0610351525247097,-0.7938232421875,0.1436767578125,-0.1116943359375
3.961,310,312,394,310,-5.0,39.0,46.0,26.062009811401367,23.559568405151367,-0.0610351525247097,-0.7696533203125,0.12255859375,-0.1654052734375
3.963,309,312,393,310,-5.0,39.0,46.0,40.893550872802734,14.709471702575684,6.347655773162842,-0.7696533203125,0.12255859375,-0.1654052734375
3.977,310,312,394,308,-3.0,39.0,37.0,46.020503997802734,-5.126952648162842,8.4228515625,-0.7489013671875,0.1239013671875,-0.145263671875
3.986,309,314,401,309,-3.0,39.0,37.0,43.762203216552734,-9.6435546875,5.737304210662842,-0.7545166015625,0.14306640625,-0.134033203125
3.994,310,312,408,310,-3.0,39.0,37.0,43.762203216552734,-9.6435546875,5.737304210662842,-0.7593994140625,0.1417236328125,-0.1234130859375
4.021,310,313,415,310,-3.0,39.0,37.0,27.221677780151367,-9.3994140625,0.30517578125,-0.7650146484375,0.103759765625,-0.0963134765625
4.022,310,314,425,310,-3.0,39.0,37.0,19.775390625,-10.192870140075684,-0.4272460639476776,-0.7646484375,0.0762939453125,-0.0784912109375
4.045,308,314,437,310,-3.0,39.0,37.0,19.775390625,-10.192870140075684,-0.4272460639476776,-0.753662109375,0.0888671875,-0.089111328125
4.045,310,343,428,296,-3.0,39.0,37.0,10.681151390075684,-11.718749046325684,3.906249761581421,-0.733642578125,0.108642578125,-0.1102294921875
4.045,296,352,434,310,-3.0,39.0,37.0,3.967284917831421,-11.779784202575684,6.469726085662842,-0.7435302734375,0.1221923828125,-0.1318359375
4.054,310,371,428,310,-3.0,39.0,37.0,3.967284917831421,-11.779784202575684,6.469726085662842,-0.793212890625,0.1746826171875,-0.1563720703125
4.073,309,419,427,310,-5.0,40.0,41.0,-6.164550304412842,-15.686034202575684,13.122557640075684,-0.85546875,0.2747802734375,-0.1812744140625
4.076,309,444,447,310,-5.0,40.0,41.0,-8.6669921875,-22.888181686401367,15.075682640075684,-0.902099609375,0.3623046875,-0.1993408203125
4.084,310,470,465,310,-5.0,40.0,41.0,-8.6669921875,-22.888181686401367,15.075682640075684,-0.8768310546875,0.3941650390625,-0.196533203125
4.097,310,536,499,310,-5.0,40.0,41.0,-18.12744140625,-46.447750091552734,5.126952648162842,-0.7354736328125,0.376220703125,-0.1893310546875
4.106,310,573,531,310,-5.0,40.0,41.0,-27.587888717651367,-55.664058685302734,-5.371093273162842,-0.5545654296875,0.3089599609375,-0.189697265625
4.145,310,600,563,311,-5.0,40.0,41.0,-27.587888717651367,-55.664058685302734,-5.371093273162842,-0.4447021484375,0.18603515625,-0.1607666015625
4.145,296,666,629,310,-5.0,40.0,41.0,-66.46728515625,-57.617183685302734,-33.8134765625,-0.4249267578125,0.0133056640625,-0.0810546875
4.145,310,695,654,310,-5.0,40.0,41.0,-77.2705078125,-53.649898529052734,-44.189449310302734,-0.469482421875,-0.130615234375,0.0465087890625
4.146,311,742,676,310,-5.0,40.0,41.0,-60.180660247802734,-52.917476654052734,-42.419429779052734,-0.565673828125,-0.10888671875,0.226806640625
4.158,310,794,748,310,-5.0,40.0,41.0,-20.01953125,-56.518550872802734,-26.062009811401367,-0.73828125,0.078857421875,0.414794921875
4.166,310,816,803,310,-3.0,36.0,42.0,22.583005905151367,-58.044429779052734,-3.845214605331421,-0.97412109375,0.2652587890625,0.529296875
4.174,309,840,834,311,-3.0,36.0,42.0,49.682613372802734,-52.490230560302734,11.047362327575684,-1.2022705078125,0.366455078125,0.5582275390625
4.188,310,873,893,311,-3.0,36.0,42.0,54.321285247802734,-41.931148529052734,14.160155296325684,-1.3837890625,0.470947265625,0.541748046875
4.197,311,894,922,311,-3.0,36.0,42.0,48.400875091552734,-29.357908248901367,12.329100608825684,-1.557373046875,0.5531005859375,0.4931640625
4.204,310,902,947,312,-3.0,36.0,42.0,50.537105560302734,-14.221190452575684,10.498045921325684,-1.7650146484375,0.449951171875,0.3739013671875
4.249,311,891,922,311,-3.0,36.0,42.0,63.537593841552734,2.807616949081421,6.469726085662842,-1.944091796875,0.2607421875,0.05322265625
4.249,298,888,917,312,-3.0,36.0,42.0,75.50048828125,18.73779296875,0.3662109076976776,-2.01318359375,0.1331787109375,-0.4384765625
4.249,310,871,933,310,-3.0,36.0,42.0,76.0498046875,29.846189498901367,-7.324218273162842,-1.8138427734375,0.076416015625,-0.8302001953125
4.249,310,902,939,312,-3.0,36.0,42.0,53.039546966552734,30.029294967651367,-16.4794921875,-1.509033203125,0.13720703125,-0.7705078125
4.256,310,894,934,312,-3.0,36.0,42.0,6.408690929412842,20.263669967651367,-21.240232467651367,-1.495361328125,0.2252197265625,-0.273193359375
4.264,311,882,918,312,-3.0,36.0,42.0,-34.1796875,11.718749046325684,-20.935056686401367,-1.6436767578125,0.1971435546875,0.2042236328125
4.277,310,852,875,312,-3.0,33.0,47.0,-49.377437591552734,11.535643577575684,-20.324705123901367,-1.6697998046875,0.1357421875,0.3853759765625
4.289,310,826,846,311,-3.0,33.0,47.0,-49.316402435302734,19.04296875,-20.751951217651367,-1.56640625,0.1395263671875,0.2908935546875
4.299,311,784,809,312,-3.0,33.0,47.0,-44.006343841552734,30.517576217651367,-20.935056686401367,-1.43603515625,0.1661376953125,0.067626953125
4.308,310,721,749,310,-3.0,33.0,47.0,-35.7666015625,41.870113372802734,-18.98193359375,-1.328369140625,0.2076416015625,-0.1251220703125
4.323,310,673,710,312,-3.0,33.0,47.0,-27.160642623901367,49.499507904052734,-14.770506858825684,-1.2335205078125,0.2406005859375,-0.195556640625
4.324,298,622,666,310,-3.0,33.0,47.0,-22.521970748901367,51.879878997802734,-10.742186546325684,-1.1226806640625,0.2152099609375,-0.172607421875
4.355,309,523,594,310,-3.0,33.0,47.0,-24.230955123901367,51.208492279052734,-7.629394054412842,-0.9747314453125,0.139892578125,-0.1141357421875
4.355,310,456,566,310,-3.0,33.0,47.0,-30.761716842651367,50.781246185302734,-4.45556640625,-0.7763671875,0.035400390625,-0.09033203125
4.355,309,416,531,295,-3.0,33.0,47.0,-35.5224609375,55.114742279052734,-0.9155272841453552,-0.57568359375,-0.058349609375,-0.196533203125
4.367,310,369,488,310,0.0,37.0,40.0,-30.517576217651367,66.34521484375,4.2724609375,-0.4755859375,-0.0599365234375,-0.318603515625
4.376,310,353,447,310,0.0,37.0,40.0,-17.7001953125,76.84326171875,12.207030296325684,-0.4769287109375,0.0616455078125,-0.2801513671875
4.384,310,323,430,309,0.0,37.0,40.0,-7.263183116912842,76.0498046875,19.59228515625,-0.4925537109375,0.2589111328125,-0.138916015625
4.398,310,313,407,309,0.0,37.0,40.0,-9.521484375,61.218257904052734,21.789548873901367,-0.486328125,0.4178466796875,0.0291748046875
4.412,308,315,407,310,0.0,37.0,40.0,-28.564451217651367,39.61181640625,16.845703125,-0.5272216796875,0.432373046875,0.2044677734375
4.414,310,312,402,310,0.0,37.0,40.0,-51.147457122802734,23.925779342651367,6.713866710662842,-0.6607666015625,0.3311767578125,0.329833984375
4.427,308,313,409,310,0.0,37.0,40.0,-54.321285247802734,20.202634811401367,-2.685546636581421,-0.77197265625,0.23046875,0.3175048828125
4.452,308,312,411,310,0.0,37.0,40.0,-30.029294967651367,24.353025436401367,-6.225585460662842,-0.7764892578125,0.1636962890625,0.1280517578125
4.454,309,314,409,310,0.0,37.0,40.0,5.615233898162842,26.733396530151367,-5.187987804412842,-0.739990234375,0.08935546875,-0.1024169921875
4.458,310,314,419,308,0.0,37.0,40.0,29.541013717651367,20.385740280151367,-3.540038824081421,-0.7335205078125,-0.014404296875,-0.209228515625
4.466,308,312,423,310,-2.0,39.0,43.0,34.24072265625,7.324218273162842,-0.7934569716453552,-0.7335205078125,-0.014404296875,-0.209228515625
4.474,310,315,426,310,-2.0,39.0,43.0,30.944822311401367,-5.0048828125,4.08935546875,-0.7496337890625,0.024169921875,-0.159912109375
4.487,310,331,437,310,-2.0,39.0,43.0,30.761716842651367,-12.390135765075684,8.97216796875,-0.7965087890625,0.1522216796875,-0.0994873046875
4.496,309,339,444,308,-2.0,39.0,43.0,32.28759765625,-15.624999046325684,11.230467796325684,-0.7965087890625,0.1522216796875,-0.0994873046875
4.504,310,352,450,310,-2.0,39.0,43.0,30.517576217651367,-16.66259765625,10.742186546325684,-0.82666015625,0.169921875,-0.0927734375
4.533,310,362,440,310,-2.0,39.0,43.0,26.184080123901367,-16.11328125,9.58251953125,-0.8861083984375,0.183349609375,-0.127197265625
4.533,308,371,439,310,-2.0,39.0,43.0,22.277830123901367,-13.977049827575684,10.009765625,-0.8861083984375,0.183349609375,-0.127197265625
4.534,297,393,447,308,-2.0,39.0,43.0,18.5546875,-11.779784202575684,11.779784202575684,-0.900390625,0.22900390625,-0.1832275390625
4.547,310,435,439,310,-2.0,39.0,43.0,13.183592796325684,-12.878417015075684,12.329100608825684,-0.8603515625,0.2623291015625,-0.2283935546875
4.558,310,465,444,310,-2.0,39.0,43.0,5.798339366912842,-19.287109375,9.94873046875,-0.8603515625,0.2623291015625,-0.2283935546875
4.564,310,497,469,310,-3.0,41.0,43.0,-2.01416015625,-28.869626998901367,5.859374523162842,-0.8170166015625,0.2393798828125,-0.20263671875
4.578,308,558,497,310,-3.0,41.0,43.0,-8.60595703125,-37.78076171875,2.38037109375,-0.6322021484375,0.2320556640625,-0.1641845703125
4.585,310,601,529,310,-3.0,41.0,43.0,-15.930174827575684,-44.250484466552734,-0.4882812201976776,-0.517333984375,0.185302734375,-0.117431640625
4.596,310,640,557,310,-3.0,41.0,43.0,-26.184080123901367,-48.950191497802734,-5.0048828125,-0.517333984375,0.185302734375,-0.117431640625
4.608,310,710,616,310,-3.0,41.0,43.0,-41.992183685302734,-56.579586029052734,-21.911619186401367,-0.3876953125,-0.0150146484375,-0.0721435546875
4.616,310,754,653,311,-3.0,41.0,43.0,-41.992183685302734,-56.579586029052734,-21.911619186401367,-0.4476318359375,-0.0330810546875,-0.034912109375
4.629,310,793,684,311,-3.0,41.0,43.0,-37.53662109375,-60.546871185302734,-27.465818405151367,-0.4476318359375,-0.0330810546875,-0.034912109375
4.637,309,845,740,310,-3.0,41.0,43.0,-2.990722417831421,-69.091796875,-12.451170921325684,-0.8292236328125,0.1949462890625,0.185546875
4.662,311,872,780,311,-3.0,41.0,43.0,-2.990722417831421,-69.091796875,-12.451170921325684,-1.0408935546875,0.2552490234375,0.3245849609375
4.662,310,887,808,312,-3.0,41.0,43.0,17.4560546875,-66.83349609375,0.0,-1.0408935546875,0.2552490234375,0.3245849609375
4.668,311,921,877,311,0.0,36.0,46.0,35.2783203125,-47.851558685302734,12.512206077575684,-1.3936767578125,0.5067138671875,0.504150390625
4.676,310,935,918,312,0.0,36.0,46.0,35.2783203125,-47.851558685302734,12.512206077575684,-1.6044921875,0.5562744140625,0.5560302734375
4.684,311,938,925,313,0.0,36.0,46.0,34.24072265625,-35.7666015625,17.88330078125,-1.6044921875,0.5562744140625,0.5560302734375
4.701,310,928,917,312,0.0,36.0,46.0,51.574703216552734,-10.009765625,9.521484375,-1.9462890625,0.2021484375,0.1380615234375
4.706,310,923,907,312,0.0,36.0,46.0,51.574703216552734,-10.009765625,9.521484375,-1.91650390625,0.1512451171875,-0.3995361328125
4.714,310,931,917,310,0.0,36.0,46.0,67.138671875,8.97216796875,4.150390625,-1.91650390625,0.1512451171875,-0.3995361328125
4.732,310,932,922,312,0.0,36.0,46.0,52.246089935302734,28.625486373901367,-9.94873046875,-1.5704345703125,0.09619140625,-0.7191162109375
4.735,309,925,916,311,0.0,36.0,46.0,11.047362327575684,19.8974609375,-15.136717796325684,-1.6494140625,0.197265625,-0.3231201171875
4.759,310,917,901,311,0.0,36.0,46.0,11.047362327575684,19.8974609375,-15.136717796325684,-1.7115478515625,0.1419677734375,0.0732421875
4.759,310,889,861,312,0.0,36.0,46.0,-34.24072265625,9.521484375,-15.686034202575684,-1.6114501953125,0.027587890625,0.2432861328125
4.766,310,864,834,311,-3.0,41.0,43.0,-37.41455078125,17.4560546875,-13.366698265075684,-1.4462890625,0.018798828125,0.2176513671875
4.774,309,834,799,310,-3.0,41.0,43.0,-37.41455078125,17.4560546875,-13.366698265075684,-1.3331298828125,0.0509033203125,0.1231689453125
4.788,310,778,728,311,-3.0,41.0,43.0,-35.2783203125,44.128414154052734,5.249022960662842,-1.2872314453125,0.1002197265625,0.0003662109375
4.796,310,726,682,312,-3.0,41.0,43.0,-28.137205123901367,55.358882904052734,15.930174827575684,-1.253662109375,0.1871337890625,-0.122314453125
4.803,310,666,633,310,-3.0,41.0,43.0,-28.137205123901367,55.358882904052734,15.930174827575684,-1.175048828125,0.2724609375,-0.1885986328125
4.817,309,564,548,312,-3.0,41.0,43.0,-17.27294921875,64.51416015625,22.644041061401367,-1.03271484375,0.3131103515625,-0.20654296875
4.826,310,504,527,310,-3.0,41.0,43.0,-22.583005905151367,67.3828125,15.319823265075684,-0.833984375,0.3095703125,-0.199951171875
4.834,310,453,493,311,-3.0,41.0,43.0,-22.583005905151367,67.3828125,15.319823265075684,-0.5986328125,0.2763671875,-0.171630859375
4.872,309,372,414,310,-3.0,41.0,43.0,-32.16552734375,76.11083984375,-2.38037109375,-0.4056396484375,0.2359619140625,-0.1575927734375
4.872,310,337,401,308,-3.0,41.0,43.0,-24.230955123901367,78.55224609375,-5.493163585662842,-0.32568359375,0.231201171875,-0.1328125
4.872,309,315,396,310,-2.0,40.0,39.0,-24.230955123901367,78.55224609375,-5.493163585662842,-0.3238525390625,0.2625732421875,-0.04736328125
4.878,310,312,394,309,-2.0,40.0,39.0,-11.596678733825684,55.053707122802734,-2.563476324081421,-0.4169921875,0.2801513671875,0.0594482421875
4.885,310,314,394,309,-2.0,40.0,39.0,-20.690916061401367,37.29248046875,-2.25830078125,-0.6148681640625,0.230224609375,0.1732177734375
4.894,309,311,394,309,-2.0,40.0,39.0,-21.850584030151367,27.893064498901367,-6.652831554412842,-0.76953125,0.1427001953125,0.251220703125
4.908,308,310,399,309,-2.0,40.0,39.0,-2.38037109375,27.221677780151367,-10.192870140075684,-0.7896728515625,0.11865234375,0.154296875
4.918,310,312,396,310,-2.0,40.0,39.0,21.301267623901367,26.977537155151367,-6.347655773162842,-0.743896484375,0.1405029296875,-0.0650634765625
4.924,308,312,398,308,-2.0,40.0,39.0,30.456541061401367,19.71435546875,-0.1220703050494194,-0.722412109375,0.0938720703125,-0.1990966796875
4.937,310,312,402,310,-2.0,40.0,39.0,28.442380905151367,7.324218273162842,3.051757574081421,-0.7308349609375,0.0185546875,-0.2119140625
4.969,309,311,401,308,-2.0,40.0,39.0,26.306150436401367,-3.662109136581421,6.164550304412842,-0.736083984375,0.0322265625,-0.176025390625
4.977,310,312,402,308,-2.0,40.0,39.0,28.015134811401367,-10.803221702575684,10.131834983825684,-0.73779296875,0.10888671875,-0.1357421875
4.979,309,315,407,310,-3.0,42.0,40.0,30.517576217651367,-14.831542015075684,11.474608421325684,-0.7403564453125,0.163330078125,-0.1112060546875
4.979,310,315,414,310,-3.0,42.0,40.0,30.395505905151367,-16.11328125,9.1552734375,-0.743408203125,0.1739501953125,-0.1116943359375
4.983,310,329,420,310,-3.0,42.0,40.0,27.038572311401367,-15.747069358825684,5.676269054412842,-0.7508544921875,0.1627197265625,-0.1236572265625
4.998,308,345,419,309,-3.0,42.0,40.0,20.202634811401367,-15.014647483825684,3.479003667831421,-0.772705078125,0.1461181640625,-0.1312255859375
5.006,310,370,414,308,-3.0,42.0,40.0,10.864256858825684,-14.099120140075684,4.08935546875,-0.81201171875,0.141357421875,-0.13623046875
5.013,308,409,410,310,-3.0,42.0,40.0,3.295898199081421,-13.061522483825684,7.934569835662842,-0.843994140625,0.17236328125,-0.15576171875
5.028,308,463,419,310,-3.0,42.0,40.0,0.7934569716453552,-12.451170921325684,13.610838890075684,-0.85693359375,0.24755859375,-0.2012939453125
5.039,310,493,428,310,-3.0,42.0,40.0,0.54931640625,-15.197752952575684,17.2119140625,-0.84716796875,0.3299560546875,-0.2535400390625
5.044,310,531,449,310,-3.0,42.0,40.0,-4.08935546875,-24.047849655151367,14.770506858825684,-0.790771484375,0.357177734375,-0.278076171875
5.068,310,592,499,310,-3.0,42.0,40.0,-16.845703125,-37.109375,6.530761241912842,-0.6817626953125,0.32763671875,-0.2711181640625
5.068,296,620,513,310,-3.0,38.0,41.0,-35.2783203125,-49.072261810302734,-4.08935546875,-0.571044921875,0.2596435546875,-0.220458984375
5.078,310,668,535,310,-3.0,38.0,41.0,-51.635738372802734,-56.518550872802734,-15.014647483825684,-0.5350341796875,0.1494140625,-0.1285400390625
5.087,312,745,586,310,-3.0,38.0,41.0,-57.556148529052734,-59.326168060302734,-24.780271530151367,-0.5750732421875,0.025390625,-0.0577392578125
5.096,310,771,614,310,-3.0,38.0,41.0,-48.400875091552734,-59.020992279052734,-30.944822311401367,-0.6461181640625,-0.03662109375,-0.029052734375
5.109,310,799,650,310,-3.0,38.0,41.0,-26.306150436401367,-59.020992279052734,-29.846189498901367,-0.7430419921875,0.0233154296875,0.0272216796875
5.118,311,840,710,310,-3.0,38.0,41.0,-2.50244140625,-62.011714935302734,-20.141599655151367,-0.8729248046875,0.158447265625,0.1607666015625
5.126,310,871,741,311,-3.0,38.0,41.0,15.502928733825684,-64.75830078125,-7.263183116912842,-1.0167236328125,0.2498779296875,0.3028564453125
5.141,310,891,775,310,-3.0,38.0,41.0,28.381345748901367,-60.607906341552734,0.30517578125,-1.1634521484375,0.2353515625,0.3902587890625
5.147,310,935,827,310,-3.0,38.0,41.0,35.70556640625,-49.499507904052734,0.4882812201976776,-1.316162109375,0.18115234375,0.40576171875
5.159,310,944,846,311,-3.0,38.0,41.0,39.85595703125,-36.56005859375,-0.4882812201976776,-1.46923828125,0.1981201171875,0.3575439453125
5.174,310,958,867,310,-2.0,37.0,47.0,46.569820404052734,-25.451658248901367,3.051757574081421,-1.5994873046875,0.2945556640625,0.2672119140625
5.186,310,959,864,310,-2.0,37.0,47.0,57.067867279052734,-15.502928733825684,9.3994140625,-1.7039794921875,0.365966796875,0.1658935546875
5.186,310,955,861,310,-2.0,37.0,47.0,67.81005859375,-5.737304210662842,12.695311546325684,-1.7469482421875,0.3438720703125,0.021728515625
5.200,310,957,871,312,-2.0,37.0,47.0,71.533203125,5.0048828125,10.803221702575684,-1.63623046875,0.2843017578125,-0.275634765625
5.212,310,951,871,310,-2.0,37.0,47.0,59.387203216552734,16.9677734375,5.0048828125,-1.5472412109375,0.210205078125,-0.54150390625
5.217,309,921,865,312,-2.0,37.0,47.0,28.930662155151367,23.742673873901367,-0.6713866591453552,-1.5472412109375,0.210205078125,-0.54150390625
5.225,310,928,849,311,-2.0,37.0,47.0,-3.234863042831421,22.644041061401367,-3.662109136581421,-1.6328125,0.137939453125,-0.31396484375
5.233,310,912,830,311,-2.0,37.0,47.0,-19.71435546875,18.06640625,-4.33349609375,-1.5859375,0.09423828125,-0.0711669921875
5.247,310,868,785,312,-2.0,37.0,47.0,-24.230955123901367,15.747069358825684,-2.990722417831421,-1.459716796875,0.1348876953125,0.05322265625
5.272,310,840,751,311,-2.0,37.0,47.0,-26.611326217651367,20.01953125,-0.7934569716453552,-1.3624267578125,0.1864013671875,0.04833984375
5.272,310,779,725,310,-2.0,37.0,40.0,-29.541013717651367,30.395505905151367,0.9765624403953552,-1.330078125,0.21240234375,-0.026611328125
5.277,310,716,643,312,-2.0,37.0,40.0,-30.944822311401367,41.870113372802734,2.563476324081421,-1.255615234375,0.2276611328125,-0.1494140625
5.292,310,658,588,311,-2.0,37.0,40.0,-31.433103561401367,49.438472747802734,4.7607421875,-1.255615234375,0.2276611328125,-0.1494140625
5.293,310,574,546,309,-2.0,37.0,40.0,-34.66796875,52.978511810302734,6.591796398162842,-1.1363525390625,0.2127685546875,-0.1474609375
5.313,310,485,495,312,-2.0,37.0,40.0,-39.85595703125,55.236812591552734,6.286620616912842,-0.7147216796875,0.22216796875,-0.080322265625
5.315,310,415,466,310,-2.0,37.0,40.0,-40.649410247802734,58.288570404052734,3.967284917831421,-0.7147216796875,0.22216796875,-0.080322265625
5.323,310,372,421,310,-2.0,37.0,40.0,-33.87451171875,61.889644622802734,1.220703125,-0.5479736328125,0.222900390625,-0.0755615234375
5.337,309,315,401,310,-2.0,37.0,40.0,-21.850584030151367,64.8193359375,-0.9155272841453552,-0.4344482421875,0.2166748046875,-0.0372314453125
5.348,310,314,401,310,-2.0,37.0,40.0,-9.33837890625,64.0869140625,-3.601073980331421,-0.4344482421875,0.2166748046875,-0.0372314453125
5.353,310,314,401,309,-2.0,37.0,40.0,-3.845214605331421,56.091304779052734,-6.713866710662842,-0.455810546875,0.248046875,-0.0086669921875
5.372,310,312,391,310,-2.0,37.0,43.0,-10.253905296325684,42.480464935302734,-6.591796398162842,-0.7264404296875,0.267578125,-0.0025634765625
5.375,310,312,391,310,-2.0,37.0,43.0,-21.118162155151367,27.221677780151367,-3.234863042831421,-0.7264404296875,0.267578125,-0.0025634765625
5.383,309,312,394,310,-2.0,37.0,43.0,-22.705076217651367,13.793944358825684,0.0,-0.821044921875,0.2093505859375,0.0181884765625
5.396,309,310,395,310,-2.0,37.0,43.0,-11.596678733825684,5.920409679412842,0.7324218153953552,-0.791259765625,0.10205078125,-0.07861328125
5.405,308,311,394,310,-2.0,37.0,43.0,2.929687261581421,1.8920897245407104,-2.197265625,-0.791259765625,0.10205078125,-0.07861328125
5.415,308,310,394,310,-2.0,37.0,43.0,13.305663108825684,-3.356933355331421,-5.920409679412842,-0.7633056640625,0.064697265625,-0.1240234375
5.427,309,313,395,310,-2.0,37.0,43.0,21.972654342651367,-15.624999046325684,-1.03759765625,-0.6944580078125,0.1064453125,-0.18017578125
5.435,310,312,398,308,-2.0,37.0,43.0,21.972654342651367,-15.624999046325684,-1.03759765625,-0.6702880859375,0.129150390625,-0.193359375
5.448,310,311,396,309,-2.0,37.0,43.0,24.169919967651367,-17.9443359375,2.807616949081421,-0.6702880859375,0.129150390625,-0.193359375
5.457,309,316,395,308,-4.0,39.0,44.0,25.634763717651367,-19.4091796875,-0.6103515625,-0.6336669921875,0.083251953125,-0.172119140625
5.475,310,314,408,309,-4.0,39.0,44.0,25.634763717651367,-19.4091796875,-0.6103515625,-0.60546875,0.042236328125,-0.1295166015625
5.475,310,317,420,310,-4.0,39.0,44.0,21.789548873901367,-22.155759811401367,-3.967284917831421,-0.60546875,0.042236328125,-0.1295166015625
5.486,310,357,420,310,-4.0,39.0,44.0,6.652831554412842,-28.869626998901367,-0.4272460639476776,-0.52001953125,0.013427734375,-0.033935546875
5.495,310,423,405,310,-4.0,39.0,44.0,6.652831554412842,-28.869626998901367,-0.4272460639476776,-0.576416015625,0.0740966796875,-0.0289306640625
5.503,310,481,423,310,-4.0,39.0,44.0,-1.7089842557907104,-30.883787155151367,6.591796398162842,-0.576416015625,0.0740966796875,-0.0289306640625
5.519,310,579,493,310,-4.0,39.0,44.0,-11.535643577575684,-36.4990234375,27.832029342651367,-0.704833984375,0.4853515625,-0.2659912109375
5.525,310,621,513,311,-4.0,39.0,44.0,-11.535643577575684,-36.4990234375,27.832029342651367,-0.5089111328125,0.54736328125,-0.396728515625
5.538,311,649,558,311,-4.0,39.0,44.0,-26.000974655151367,-44.189449310302734,23.437498092651367,-0.5089111328125,0.54736328125,-0.396728515625
5.550,310,728,648,309,-4.0,39.0,44.0,-84.41161346435547,-76.904296875,-28.198240280151367,-0.2578125,-0.0595703125,0.1171875
5.555,308,782,685,310,-3.0,37.0,39.0,-84.41161346435547,-76.904296875,-28.198240280151367,-0.53173828125,-0.350830078125,0.4114990234375
5.578,310,822,710,311,-3.0,37.0,39.0,-73.1201171875,-88.50096893310547,-44.860836029052734,-0.53173828125,-0.350830078125,0.4114990234375
5.582,310,873,778,311,-3.0,37.0,39.0,61.889644622802734,-76.0498046875,-12.390135765075684,-1.2991943359375,0.1353759765625,0.3697509765625
5.585,310,907,811,310,-3.0,37.0,39.0,97.35106658935547,-66.89453125,14.343260765075684,-1.484375,0.4820556640625,0.3758544921875
5.593,310,925,834,312,-3.0,37.0,39.0,97.35106658935547,-66.89453125,14.343260765075684,-1.5400390625,0.5947265625,0.39892578125
5.611,309,951,901,311,-3.0,37.0,39.0,79.65087890625,-44.738765716552734,16.2353515625,-1.6265869140625,0.558837890625,0.41064453125
5.622,312,953,912,311,-3.0,37.0,39.0,72.44873046875,-26.550291061401367,11.901854515075684,-1.777587890625,0.504150390625,0.3494873046875
5.623,295,932,905,311,-3.0,37.0,39.0,72.44873046875,-26.550291061401367,11.901854515075684,-1.93212890625,0.41455078125,0.102294921875
5.649,310,943,877,310,-3.0,37.0,39.0,91.55272674560547,18.24951171875,12.878417015075684,-1.933837890625,0.2801513671875,-0.297119140625
5.694,310,946,886,311,-3.0,37.0,39.0,81.84813690185547,31.738279342651367,2.807616949081421,-1.7061767578125,0.1566162109375,-0.677490234375
5.694,310,955,891,312,-3.0,37.0,39.0,81.84813690185547,31.738279342651367,2.807616949081421,-1.5377197265625,0.125244140625,-0.755859375
5.694,309,948,888,311,-3.0,36.0,45.0,-12.451170921325684,25.207517623901367,-21.240232467651367,-1.5963134765625,0.1484375,-0.4271240234375
5.694,310,943,877,311,-3.0,36.0,45.0,-42.541500091552734,14.648436546325684,-22.155759811401367,-1.66162109375,0.1051025390625,0.0078125
5.694,310,928,861,312,-3.0,36.0,45.0,-42.541500091552734,14.648436546325684,-22.155759811401367,-1.5877685546875,0.03662109375,0.2010498046875
5.696,311,888,819,312,-3.0,36.0,45.0,-40.649410247802734,9.6435546875,-16.05224609375,-1.4344482421875,0.057861328125,0.09765625
5.708,310,861,796,311,-3.0,36.0,45.0,-40.283199310302734,18.98193359375,-8.97216796875,-1.2994384765625,0.132568359375,-0.080322265625
5.718,308,823,763,312,-3.0,36.0,45.0,-40.283199310302734,18.98193359375,-8.97216796875,-1.213134765625,0.1788330078125,-0.1661376953125
5.726,312,766,673,310,-3.0,36.0,45.0,-47.912593841552734,37.7197265625,8.60595703125,-1.1461181640625,0.1842041015625,-0.1591796875
5.734,310,711,634,312,-3.0,36.0,45.0,-49.194332122802734,41.198726654052734,14.221190452575684,-1.0657958984375,0.18798828125,-0.1151123046875
5.742,310,665,588,311,-3.0,36.0,45.0,-50.598140716552734,43.884273529052734,16.29638671875,-0.9512939453125,0.224609375,-0.0814208984375
5.774,310,582,531,310,-3.0,38.0,42.0,-51.452632904052734,49.011226654052734,14.099120140075684,-0.8072509765625,0.2784423828125,-0.056640625
5.781,310,530,497,310,-3.0,38.0,42.0,-49.499507904052734,55.847164154052734,7.995604991912842,-0.659423828125,0.309814453125,-0.0211181640625
5.781,310,483,481,310,-3.0,38.0,42.0,-41.687007904052734,61.889644622802734,-0.4882812201976776,-0.5421142578125,0.2996826171875,-0.007568359375
5.787,310,396,414,310,-3.0,38.0,42.0,-27.770994186401367,64.208984375,-7.751464366912842,-0.5062255859375,0.2628173828125,-0.0308837890625
5.795,308,369,408,311,-3.0,38.0,42.0,-13.305663108825684,59.692378997802734,-11.230467796325684,-0.5364990234375,0.2171630859375,-0.0362548828125
5.803,310,343,402,310,-3.0,38.0,42.0,-5.432128429412842,48.217769622802734,-12.573241233825684,-0.5560302734375,0.177490234375,-0.003173828125
5.824,310,316,399,309,-3.0,38.0,42.0,-8.36181640625,34.1796875,-13.000487327575684,-0.576171875,0.16162109375,0.0408935546875
5.825,308,302,402,310,-3.0,38.0,42.0,-18.37158203125,22.094724655151367,-11.169432640075684,-0.6466064453125,0.1715087890625,0.0823974609375
5.833,310,312,401,309,-3.0,38.0,42.0,-23.803709030151367,13.244627952575684,-7.568358898162842,-0.7484130859375,0.1751708984375,0.119384765625
5.846,309,314,402,308,-3.0,38.0,42.0,-16.29638671875,7.446288585662842,-4.69970703125,-0.8377685546875,0.1549072265625,0.1082763671875
5.862,311,314,407,308,-1.0,39.0,39.0,1.4648436307907104,4.7607421875,-3.417968511581421,-0.884033203125,0.12548828125,0.0181884765625
5.863,310,312,408,310,-1.0,39.0,39.0,21.118162155151367,3.601073980331421,-3.356933355331421,-0.87158203125,0.0999755859375,-0.094482421875
5.891,310,312,411,310,-1.0,39.0,39.0,35.70556640625,0.7934569716453552,-2.746581792831421,-0.82470703125,0.1019287109375,-0.1700439453125
5.891,310,299,395,310,-1.0,39.0,39.0,41.992183685302734,-4.638671875,-0.3662109076976776,-0.7950439453125,0.1409912109375,-0.1964111328125
5.893,310,315,414,310,-1.0,39.0,39.0,41.870113372802734,-11.230467796325684,1.7700194120407104,-0.78662109375,0.1712646484375,-0.190673828125
5.907,308,317,424,308,-1.0,39.0,39.0,39.1845703125,-16.90673828125,1.5869139432907104,-0.7769775390625,0.1524658203125,-0.1767578125
5.915,310,329,424,309,-1.0,39.0,39.0,34.5458984375,-20.385740280151367,-0.2441406100988388,-0.7637939453125,0.1107177734375,-0.1658935546875
5.929,310,340,424,310,-1.0,39.0,39.0,26.550291061401367,-21.606443405151367,-1.4038084745407104,-0.7510986328125,0.0780029296875,-0.158203125
5.937,308,363,420,308,-1.0,39.0,39.0,16.66259765625,-21.484373092651367,-0.1831054538488388,-0.7410888671875,0.0596923828125,-0.1468505859375
5.945,308,399,415,310,-1.0,39.0,39.0,7.873534679412842,-20.996091842651367,4.150390625,-0.72412109375,0.0718994140625,-0.133544921875
5.960,309,438,430,310,-2.0,39.0,45.0,2.25830078125,-20.202634811401367,11.352538108825684,-0.7073974609375,0.1376953125,-0.135009765625
5.966,310,504,481,310,-2.0,39.0,45.0,-3.417968511581421,-19.4091796875,18.12744140625,-0.7000732421875,0.2509765625,-0.163330078125
5.990,310,543,508,308,-2.0,39.0,45.0,-17.27294921875,-20.141599655151367,19.59228515625,-0.6639404296875,0.3572998046875,-0.2154541015625
5.991,296,594,545,310,-2.0,39.0,45.0,-45.043941497802734,-22.827146530151367,12.268065452575684,-0.565185546875,0.388427734375,-0.2626953125
5.997,310,653,632,310,-2.0,39.0,45.0,-81.35985565185547,-27.832029342651367,-1.9531248807907104,-0.4638671875,0.3101806640625,-0.2215576171875
6.005,311,689,687,311,-2.0,39.0,45.0,-110.77880096435547,-34.97314453125,-16.05224609375,-0.4627685546875,0.154052734375,-0.0684814453125
6.013,310,728,742,310,-2.0,39.0,45.0,-117.85887908935547,-40.710445404052734,-23.376462936401367,-0.5726318359375,-0.0128173828125,0.0823974609375
6.026,310,784,818,311,-2.0,39.0,45.0,-95.82518768310547,-41.870113372802734,-22.583005905151367,-0.734619140625,-0.1064453125,0.15185546875
6.039,310,809,845,310,-2.0,39.0,45.0,-51.696773529052734,-42.419429779052734,-15.624999046325684,-0.9085693359375,-0.01806640625,0.2012939453125
6.043,311,844,873,311,-2.0,39.0,45.0,-6.835937023162842,-48.034664154052734,-4.8828125,-1.0570068359375,0.1884765625,0.3094482421875
6.062,310,886,935,310,-3.0,36.0,44.0,19.34814453125,-55.725093841552734,2.746581792831421,-1.226318359375,0.208251953125,0.5867919921875
6.065,310,912,959,310,-3.0,36.0,44.0,29.907224655151367,-57.800289154052734,1.5869139432907104,-1.226318359375,0.208251953125,0.5867919921875
6.092,310,922,982,312,-3.0,36.0,44.0,43.762203216552734,-50.720211029052734,-2.563476324081421,-1.3714599609375,0.14990234375,0.5361328125
6.092,310,933,1009,312,-3.0,36.0,44.0,67.44384765625,-37.841796875,0.4882812201976776,-1.7325439453125,0.4068603515625,0.19287109375
6.101,310,933,998,312,-3.0,36.0,44.0,87.03612518310547,-25.207517623901367,10.742186546325684,-1.7325439453125,0.4068603515625,0.19287109375
6.103,310,928,967,299,-3.0,36.0,44.0,93.44481658935547,-14.526366233825684,18.49365234375,-1.8011474609375,0.420166015625,0.00048828125
6.117,310,932,986,312,-3.0,36.0,44.0,81.60399627685547,14.953612327575684,9.58251953125,-1.4384765625,0.2279052734375,-0.6597900390625
6.126,310,935,992,312,-3.0,36.0,44.0,81.60399627685547,14.953612327575684,9.58251953125,-1.4141845703125,0.2037353515625,-0.698486328125
6.134,310,934,992,310,-3.0,36.0,44.0,50.842281341552734,24.902341842651367,0.1831054538488388,-1.4141845703125,0.2037353515625,-0.698486328125
6.148,308,919,981,312,-3.0,36.0,44.0,-25.695798873901367,16.4794921875,-6.469726085662842,-1.6336669921875,0.10400390625,-0.048828125
6.156,310,902,966,312,-2.0,37.0,42.0,-25.695798873901367,16.4794921875,-6.469726085662842,-1.560302734375,0.101318359375,0.1552734375
6.165,310,882,943,312,-2.0,37.0,42.0,-36.62109375,11.108397483825684,-4.7607421875,-1.560302734375,0.101318359375,0.1552734375
6.196,310,835,878,311,-2.0,37.0,42.0,-27.954099655151367,22.460935592651367,2.25830078125,-1.3775634765625,0.2314453125,0.0357666015625
6.196,310,806,846,314,-2.0,37.0,42.0,-27.954099655151367,22.460935592651367,2.25830078125,-1.314453125,0.2528076171875,-0.0533447265625
6.196,310,767,803,312,-2.0,37.0,42.0,-28.442380905151367,33.87451171875,4.08935546875,-1.314453125,0.2528076171875,-0.0533447265625
6.214,310,685,725,311,-2.0,37.0,42.0,-28.869626998901367,50.598140716552734,4.7607421875,-1.1156005859375,0.2840576171875,-0.12158203125
6.216,310,632,666,310,-2.0,37.0,42.0,-28.869626998901367,50.598140716552734,4.7607421875,-0.95849609375,0.2799072265625,-0.1148681640625
6.224,310,578,619,311,-2.0,37.0,42.0,-29.724119186401367,54.809566497802734,2.807616949081421,-0.95849609375,0.2799072265625,-0.1148681640625
6.237,309,481,543,310,-2.0,37.0,42.0,-34.66796875,63.293453216552734,-8.72802734375,-0.609619140625,0.2291259765625,-0.0787353515625
6.250,310,411,513,309,-2.0,37.0,42.0,-34.66796875,63.293453216552734,-8.72802734375,-0.516845703125,0.1839599609375,-0.12353515625
6.254,308,371,476,310,-1.0,39.0,41.0,-31.860349655151367,67.9931640625,-15.014647483825684,-0.516845703125,0.1839599609375,-0.12353515625
6.268,309,336,421,310,-1.0,39.0,41.0,-15.808104515075684,67.3828125,-19.34814453125,-0.536376953125,0.08740234375,-0.012451171875
6.297,309,315,409,308,-1.0,39.0,41.0,-13.977049827575684,55.969234466552734,-19.6533203125,-0.60498046875,0.057373046875,0.1136474609375
6.298,293,297,408,308,-1.0,39.0,41.0,-13.977049827575684,55.969234466552734,-19.6533203125,-0.663818359375,0.1373291015625,0.111328125
6.298,309,312,408,309,-1.0,39.0,41.0,-21.728513717651367,32.1044921875,-9.82666015625,-0.7027587890625,0.2379150390625,0.0623779296875
6.306,308,310,407,310,-1.0,39.0,41.0,-24.108884811401367,22.644041061401367,-3.845214605331421,-0.7718505859375,0.23681640625,0.0338134765625
6.314,310,312,410,310,-1.0,39.0,41.0,-24.108884811401367,22.644041061401367,-3.845214605331421,-0.83203125,0.178955078125,-0.0152587890625
6.328,310,312,409,308,-1.0,39.0,41.0,-5.126952648162842,12.817381858825684,-2.746581792831421,-0.837158203125,0.1258544921875,-0.0906982421875
6.336,310,312,413,310,-1.0,39.0,41.0,11.657713890075684,10.253905296325684,-4.08935546875,-0.8070068359375,0.08447265625,-0.1422119140625
6.344,310,312,411,308,-1.0,39.0,41.0,11.657713890075684,10.253905296325684,-4.08935546875,-0.7598876953125,0.0655517578125,-0.1422119140625
6.358,309,314,414,308,-2.0,39.0,42.0,28.747556686401367,-2.44140625,0.1220703050494194,-0.7120361328125,0.073486328125,-0.100830078125
6.370,310,314,417,310,-2.0,39.0,42.0,35.82763671875,-8.72802734375,5.249022960662842,-0.6734619140625,0.090087890625,-0.0552978515625
6.374,311,317,423,310,-2.0,39.0,42.0,35.82763671875,-8.72802734375,5.249022960662842,-0.644287109375,0.086181640625,-0.039794921875
6.399,310,329,434,310,-2.0,39.0,42.0,44.067378997802734,-13.732909202575684,9.8876953125,-0.6251220703125,0.0574951171875,-0.049560546875
6.399,310,343,433,310,-2.0,39.0,42.0,40.0390625,-14.343260765075684,10.131834983825684,-0.6295166015625,0.02490234375,-0.0631103515625
6.404,310,371,439,309,-2.0,39.0,42.0,40.0390625,-14.343260765075684,10.131834983825684,-0.6568603515625,0.0350341796875,-0.0816650390625
6.417,308,464,444,310,-2.0,39.0,42.0,28.442380905151367,-20.446775436401367,19.04296875,-0.689208984375,0.1241455078125,-0.1295166015625
6.426,310,499,483,310,-2.0,39.0,42.0,27.160642623901367,-25.451658248901367,27.343748092651367,-0.7364501953125,0.2811279296875,-0.2171630859375
6.439,309,548,504,310,-2.0,39.0,42.0,20.996091842651367,-31.860349655151367,30.639646530151367,-0.7557373046875,0.4464111328125,-0.3145751953125
6.448,310,614,553,310,-2.0,38.0,40.0,0.0,-40.283199310302734,22.766111373901367,-0.66357421875,0.496337890625,-0.344482421875
6.462,309,648,606,310,-2.0,38.0,40.0,-32.40966796875,-50.598140716552734,4.57763671875,-0.5029296875,0.3604736328125,-0.227783203125
6.464,309,683,654,310,-2.0,38.0,40.0,-59.875484466552734,-59.814449310302734,-15.624999046325684,-0.43408203125,0.1064453125,-0.024169921875
6.477,310,753,728,310,-2.0,38.0,40.0,-63.903804779052734,-62.866207122802734,-30.883787155151367,-0.54931640625,-0.1278076171875,0.08251953125
6.502,310,785,766,310,-2.0,38.0,40.0,-37.29248046875,-59.020992279052734,-35.2783203125,-0.785400390625,-0.1580810546875,0.036376953125
6.502,309,827,796,311,-2.0,38.0,40.0,2.44140625,-54.809566497802734,-24.536130905151367,-1.009765625,0.0997314453125,-0.040283203125
6.508,310,873,868,312,-2.0,38.0,40.0,26.306150436401367,-53.405757904052734,-6.286620616912842,-1.1522216796875,0.44482421875,-0.0113525390625
6.516,310,902,894,312,-2.0,38.0,40.0,24.475095748901367,-50.598140716552734,3.356933355331421,-1.2403564453125,0.5845947265625,0.1312255859375
6.524,310,918,939,312,-2.0,38.0,40.0,10.742186546325684,-43.518062591552734,-0.2441406100988388,-1.3677978515625,0.4962158203125,0.306396484375
6.544,311,939,980,310,-2.0,38.0,40.0,4.21142578125,-33.02001953125,-6.347655773162842,-1.565185546875,0.361083984375,0.4444580078125
6.552,310,944,992,312,-2.0,38.0,40.0,11.108397483825684,-22.216794967651367,-6.469726085662842,-1.7607421875,0.2825927734375,0.4635009765625
6.554,310,944,980,312,-2.0,36.0,46.0,24.536130905151367,-12.573241233825684,-2.563476324081421,-1.8848876953125,0.2371826171875,0.345947265625
6.574,310,943,994,311,-2.0,36.0,46.0,37.41455078125,-2.25830078125,-0.1220703050494194,-1.787841796875,0.163818359375,0.0494384765625
6.576,311,939,981,310,-2.0,36.0,46.0,42.419429779052734,13.000487327575684,-3.051757574081421,-1.5556640625,0.077392578125,-0.367919921875
6.587,312,939,1000,310,-2.0,36.0,46.0,30.822751998901367,26.550291061401367,-7.385253429412842,-1.4954833984375,0.0279541015625,-0.5758056640625
6.607,310,923,994,311,-2.0,36.0,46.0,9.521484375,27.343748092651367,-6.408690929412842,-1.5650634765625,0.0118408203125,-0.485595703125
6.607,310,912,981,311,-2.0,36.0,46.0,-4.39453125,18.85986328125,-1.4648436307907104,-1.5577392578125,0.019287109375,-0.2962646484375
6.614,312,889,962,312,-2.0,36.0,46.0,-9.46044921875,10.498045921325684,3.356933355331421,-1.447021484375,0.0743408203125,-0.1336669921875
6.628,310,849,912,311,-2.0,36.0,46.0,-14.160155296325684,8.7890625,7.141112804412842,-1.3253173828125,0.1617431640625,-0.0543212890625
6.636,309,822,871,312,-2.0,36.0,46.0,-21.240232467651367,16.29638671875,9.21630859375,-1.2532958984375,0.224365234375,-0.0484619140625
6.645,311,785,830,311,-2.0,36.0,46.0,-28.015134811401367,29.724119186401367,8.97216796875,-1.2193603515625,0.2537841796875,-0.0791015625
6.664,311,711,741,310,-3.0,38.0,42.0,-31.860349655151367,42.358394622802734,8.11767578125,-1.1844482421875,0.2767333984375,-0.1131591796875
6.666,310,665,691,311,-3.0,38.0,42.0,-33.50830078125,49.804683685302734,8.11767578125,-1.1239013671875,0.284912109375,-0.1124267578125
6.682,310,613,644,310,-3.0,38.0,42.0,-34.5458984375,52.734371185302734,7.690429210662842,-1.0223388671875,0.257080078125,-0.0736083984375
6.708,310,495,562,310,-3.0,38.0,42.0,-34.423828125,54.260250091552734,4.8828125,-0.8836669921875,0.2191162109375,-0.0367431640625
6.708,310,433,516,310,-3.0,38.0,42.0,-31.494138717651367,55.664058685302734,0.2441406100988388,-0.7412109375,0.19091796875,-0.0103759765625
6.708,309,393,479,309,-3.0,38.0,42.0,-25.512693405151367,55.053707122802734,-4.69970703125,-0.6195068359375,0.14453125,0.0361328125
6.718,309,343,424,310,-3.0,38.0,42.0,-17.02880859375,51.330562591552734,-9.46044921875,-0.5423583984375,0.0716552734375,0.0885009765625
6.726,310,322,411,311,-3.0,38.0,42.0,-7.141112804412842,45.043941497802734,-12.756346702575684,-0.55029296875,0.0028076171875,0.1082763671875
6.734,310,314,399,310,-3.0,38.0,42.0,3.906249761581421,36.68212890625,-12.817381858825684,-0.6199951171875,-0.006103515625,0.0732421875
6.748,308,314,402,310,0.0,39.0,40.0,15.258788108825684,28.015134811401367,-8.1787109375,-0.732177734375,0.3345947265625,-0.087646484375
6.756,310,312,400,310,0.0,39.0,40.0,18.9208984375,19.22607421875,1.8310545682907104,-0.732177734375,0.3345947265625,-0.087646484375
6.764,309,314,402,310,0.0,39.0,40.0,11.535643577575684,10.314940452575684,11.474608421325684,-0.7657470703125,0.4342041015625,-0.12890625
6.810,310,313,407,310,0.0,39.0,40.0,7.751464366912842,3.723144292831421,10.864256858825684,-0.85205078125,0.16357421875,-0.1219482421875
6.811,310,312,408,310,0.0,39.0,40.0,21.728513717651367,-0.0610351525247097,1.3427733182907104,-0.85205078125,0.16357421875,-0.1219482421875
6.811,310,311,408,310,0.0,39.0,40.0,46.569820404052734,-4.5166015625,-5.249022960662842,-0.8323974609375,0.098876953125,-0.13037109375
6.811,309,300,409,309,0.0,39.0,40.0,65.185546875,-11.352538108825684,-4.0283203125,-0.7122802734375,0.1380615234375,-0.1337890625
6.816,310,314,410,310,0.0,39.0,40.0,69.51904296875,-18.9208984375,0.7934569716453552,-0.7122802734375,0.1380615234375,-0.1337890625
6.824,308,314,413,308,0.0,39.0,40.0,63.476558685302734,-24.902341842651367,5.554198741912842,-0.6617431640625,0.1400146484375,-0.103271484375
6.838,309,317,434,310,0.0,39.0,40.0,54.565425872802734,-27.160642623901367,7.873534679412842,-0.5965576171875,0.0479736328125,-0.0758056640625
6.846,310,323,441,310,-3.0,41.0,41.0,48.583980560302734,-25.939939498901367,6.835937023162842,-0.5965576171875,0.0479736328125,-0.0758056640625
6.854,310,339,449,310,-3.0,41.0,41.0,44.982906341552734,-24.291990280151367,4.94384765625,-0.58154296875,0.003662109375,-0.074951171875
6.868,309,387,495,310,-3.0,41.0,41.0,38.818359375,-24.719236373901367,5.920409679412842,-0.620849609375,0.0748291015625,-0.102294921875
6.911,310,444,495,310,-3.0,41.0,41.0,29.235837936401367,-27.343748092651367,10.620116233825684,-0.7049560546875,0.195068359375,-0.149658203125
6.911,310,493,508,310,-3.0,41.0,41.0,20.385740280151367,-30.883787155151367,18.24951171875,-0.7049560546875,0.195068359375,-0.149658203125
6.912,309,539,541,309,-3.0,41.0,41.0,-2.13623046875,-42.663570404052734,29.602048873901367,-0.767578125,0.44580078125,-0.3861083984375
6.912,310,599,607,311,-3.0,41.0,41.0,-2.13623046875,-42.663570404052734,29.602048873901367,-0.5736083984375,0.39453125,-0.3988037109375
6.914,311,642,668,310,-3.0,41.0,41.0,-28.625486373901367,-52.062984466552734,22.460935592651367,-0.5736083984375,0.39453125,-0.3988037109375
6.928,310,718,803,311,-3.0,41.0,41.0,-98.81591033935547,-68.84765625,-13.427733421325684,-0.45458984375,-0.0419921875,-0.0826416015625
6.936,311,756,869,311,-3.0,41.0,41.0,-98.81591033935547,-68.84765625,-13.427733421325684,-0.6361083984375,-0.20654296875,-0.04296875
6.944,311,794,910,310,-2.0,37.0,44.0,-117.24852752685547,-64.14794921875,-24.963376998901367,-0.6361083984375,-0.20654296875,-0.04296875
6.959,310,853,974,310,-2.0,37.0,44.0,-81.42089080810547,-44.677730560302734,-6.530761241912842,-1.1212158203125,0.0682373046875,0.08935546875
6.967,310,878,1009,311,-2.0,37.0,44.0,-81.42089080810547,-44.677730560302734,-6.530761241912842,-1.2904052734375,0.3465576171875,0.307861328125
6.974,310,912,1050,312,-2.0,37.0,44.0,-59.692378997802734,-43.518062591552734,9.82666015625,-1.2904052734375,0.3465576171875,0.307861328125
7.013,311,939,1095,311,-2.0,37.0,44.0,-37.90283203125,-47.302242279052734,13.061522483825684,-1.5157470703125,0.459716796875,0.724609375
7.014,311,928,1087,311,-2.0,37.0,44.0,-37.90283203125,-47.302242279052734,13.061522483825684,-1.60693359375,0.4237060546875,0.6373291015625
7.014,310,948,1133,297,-2.0,37.0,44.0,-12.268065452575684,-44.677730560302734,7.873534679412842,-1.60693359375,0.4237060546875,0.6373291015625
7.018,310,943,1148,312,-2.0,37.0,44.0,52.062984466552734,-22.521970748901367,2.807616949081421,-1.80810546875,0.4365234375,0.2161865234375
7.026,311,938,1148,311,-2.0,37.0,44.0,64.02587890625,-8.056640625,-1.15966796875,-1.6636962890625,0.338134765625,0.0223388671875
7.034,311,933,1153,312,-2.0,37.0,44.0,64.02587890625,-8.056640625,-1.15966796875,-1.5556640625,0.1873779296875,-0.20703125
7.050,310,927,1134,310,-3.0,36.0,45.0,39.0625,21.362302780151367,-12.512206077575684,-1.5960693359375,0.0958251953125,-0.336669921875
7.056,310,919,1120,312,-3.0,36.0,45.0,22.338865280151367,25.390623092651367,-10.864256858825684,-1.603271484375,0.0526123046875,-0.3193359375
7.064,310,910,1092,309,-3.0,36.0,45.0,22.338865280151367,25.390623092651367,-10.864256858825684,-1.5101318359375,0.0672607421875,-0.216064453125
7.086,310,875,1025,311,-3.0,36.0,45.0,2.624511480331421,20.507810592651367,-1.3427733182907104,-1.3748779296875,0.15234375,-0.097900390625
7.087,310,849,971,310,-3.0,36.0,45.0,-8.7890625,23.254392623901367,4.57763671875,-1.281005859375,0.224853515625,-0.03955078125
7.117,310,822,910,312,-3.0,36.0,45.0,-8.7890625,23.254392623901367,4.57763671875,-1.245361328125,0.2564697265625,-0.0584716796875
7.118,310,751,803,312,-3.0,36.0,45.0,-17.51708984375,45.715328216552734,7.629394054412842,-1.220703125,0.29931640625,-0.105712890625
7.118,310,698,737,310,-3.0,36.0,45.0,-18.5546875,54.443355560302734,7.141112804412842,-1.161865234375,0.329833984375,-0.1143798828125
7.124,310,648,678,311,-3.0,36.0,45.0,-18.5546875,54.443355560302734,7.141112804412842,-1.0596923828125,0.285888671875,-0.07568359375
7.138,310,538,583,310,-3.0,36.0,45.0,-25.024412155151367,57.556148529052734,1.5869139432907104,-0.9205322265625,0.2005615234375,-0.0272216796875
7.146,308,475,533,309,-1.0,39.0,40.0,-23.071287155151367,57.800289154052734,-2.746581792831421,-0.7557373046875,0.154296875,-0.0054931640625
7.154,310,423,490,311,-1.0,39.0,40.0,-23.071287155151367,57.800289154052734,-2.746581792831421,-0.6075439453125,0.1318359375,0.03369140625
7.168,310,354,424,310,-1.0,39.0,40.0,-1.2817381620407104,55.419918060302734,-14.282225608825684,-0.517333984375,0.0931396484375,0.124755859375
7.176,309,321,408,310,-1.0,39.0,40.0,11.779784202575684,49.621578216552734,-19.775390625,-0.5009765625,0.070556640625,0.1807861328125
7.189,310,315,396,310,-1.0,39.0,40.0,21.789548873901367,43.029781341552734,-22.583005905151367,-0.548095703125,0.112548828125,0.1402587890625
7.217,309,314,401,308,-1.0,39.0,40.0,30.212400436401367,37.2314453125,-20.690916061401367,-0.64013671875,0.223388671875,0.027099609375
7.218,310,312,396,294,-1.0,39.0,40.0,33.0810546875,31.372068405151367,-12.634276390075684,-0.7421875,0.31982421875,-0.0733642578125
7.218,308,312,401,310,-1.0,39.0,40.0,30.334470748901367,24.169919967651367,-4.8828125,-0.82958984375,0.310302734375,-0.1090087890625
7.229,310,313,398,310,-1.0,39.0,40.0,31.249998092651367,15.380858421325684,-2.25830078125,-0.8997802734375,0.1927490234375,-0.09521484375
7.236,309,311,400,312,-1.0,39.0,40.0,38.330078125,4.7607421875,-0.6103515625,-0.89697265625,0.0528564453125,-0.0782470703125
7.244,309,312,402,308,-6.0,36.0,41.0,48.339839935302734,-4.94384765625,3.295898199081421,-0.801513671875,0.0045166015625,-0.1162109375
7.259,308,315,408,309,-6.0,36.0,41.0,58.410640716552734,-11.047362327575684,8.6669921875,-0.697998046875,0.055419921875,-0.171142578125
7.266,309,314,408,310,-6.0,36.0,41.0,63.293453216552734,-15.930174827575684,13.183592796325684,-0.663818359375,0.1224365234375,-0.1776123046875
7.274,310,314,408,310,-6.0,36.0,41.0,58.105464935302734,-20.812986373901367,15.441893577575684,-0.6666259765625,0.1727294921875,-0.14599609375
7.294,308,314,399,310,-6.0,36.0,41.0,45.104976654052734,-23.193357467651367,14.526366233825684,-0.6500244140625,0.1868896484375,-0.099853515625
7.296,311,315,401,310,-6.0,36.0,41.0,32.40966796875,-21.301267623901367,9.46044921875,-0.618896484375,0.1356201171875,-0.0533447265625
7.322,308,315,408,310,-6.0,36.0,41.0,25.085447311401367,-17.578125,2.624511480331421,-0.58447265625,0.0523681640625,-0.023193359375
7.322,310,349,428,310,-6.0,36.0,41.0,21.850584030151367,-15.747069358825684,-0.1831054538488388,-0.543701171875,0.0074462890625,-0.0172119140625
7.326,310,369,451,310,-6.0,36.0,41.0,18.5546875,-17.7001953125,2.990722417831421,-0.5374755859375,0.0181884765625,-0.0313720703125
7.341,310,428,470,309,-6.0,36.0,41.0,13.122557640075684,-22.033689498901367,9.765625,-0.6298828125,0.08984375,-0.0653076171875
7.348,310,496,519,310,-5.0,40.0,38.0,6.225585460662842,-25.878904342651367,18.49365234375,-0.7962646484375,0.24853515625,-0.14013671875
7.356,308,530,545,311,-5.0,40.0,38.0,-2.624511480331421,-28.808591842651367,26.550291061401367,-0.9085693359375,0.4312744140625,-0.273193359375
7.364,310,561,592,310,-5.0,40.0,38.0,-18.06640625,-33.69140625,26.794431686401367,-0.8148193359375,0.4947509765625,-0.3983154296875
7.377,310,632,721,310,-5.0,40.0,38.0,-45.166011810302734,-42.846675872802734,15.136717796325684,-0.581298828125,0.36572265625,-0.35791015625
7.386,310,673,796,311,-5.0,40.0,38.0,-79.16259765625,-54.382320404052734,-4.2724609375,-0.469970703125,0.123291015625,-0.12841796875
7.394,310,711,867,310,-5.0,40.0,38.0,-100.34178924560547,-61.157222747802734,-22.094724655151367,-0.5751953125,-0.09228515625,0.072509765625
7.425,310,767,974,310,-5.0,40.0,38.0,-89.90477752685547,-57.189937591552734,-30.517576217651367,-0.785888671875,-0.1517333984375,0.1053466796875
7.425,310,771,1026,310,-5.0,40.0,38.0,-53.894039154052734,-48.095699310302734,-26.367185592651367,-0.9827880859375,0.0137939453125,0.0699462890625
7.425,310,823,1081,311,-5.0,40.0,38.0,-21.057126998901367,-43.945308685302734,-14.221190452575684,-1.1160888671875,0.2791748046875,0.13623046875
7.438,310,867,1137,311,-5.0,40.0,38.0,-11.169432640075684,-46.630855560302734,-4.69970703125,-1.1905517578125,0.40673828125,0.362548828125
7.452,310,888,1173,312,-2.0,38.0,50.0,-13.916014671325684,-49.621578216552734,-2.685546636581421,-1.2864990234375,0.355712890625,0.560791015625
7.454,310,902,1206,312,-2.0,38.0,50.0,-5.310058116912842,-45.288082122802734,-2.807616949081421,-1.451171875,0.297119140625,0.5809326171875
7.469,310,912,1243,311,-2.0,38.0,50.0,17.76123046875,-35.21728515625,0.7934569716453552,-1.6328125,0.33251953125,0.4910888671875
7.476,311,910,1215,312,-2.0,38.0,50.0,38.57421875,-25.512693405151367,5.859374523162842,-1.773681640625,0.3958740234375,0.3863525390625
7.484,310,904,1211,311,-2.0,38.0,50.0,53.283687591552734,-16.54052734375,6.530761241912842,-1.76806640625,0.371337890625,0.204345703125
7.499,310,899,1209,310,-2.0,38.0,50.0,68.05419921875,-2.990722417831421,0.0,-1.4451904296875,0.261962890625,-0.4537353515625
7.529,310,900,1204,312,-2.0,38.0,50.0,72.20458984375,14.343260765075684,-9.8876953125,-1.4451904296875,0.261962890625,-0.4537353515625
7.530,296,895,1201,312,-2.0,38.0,50.0,49.743648529052734,25.329587936401367,-17.27294921875,-1.510009765625,0.229736328125,-0.4420166015625
7.530,310,878,1185,311,-2.0,38.0,50.0,16.29638671875,28.320310592651367,-21.118162155151367,-1.55908203125,0.0638427734375,-0.1612548828125
7.536,312,864,1160,311,-2.0,38.0,50.0,-4.82177734375,29.235837936401367,-21.606443405151367,-1.55908203125,0.0638427734375,-0.1612548828125
7.544,311,848,1129,313,-6.0,37.0,48.0,-16.4794921875,29.968259811401367,-17.578125,-1.455810546875,0.080322265625,-0.0555419921875
7.566,310,803,1047,311,-6.0,37.0,48.0,-27.038572311401367,32.3486328125,-10.253905296325684,-1.3402099609375,0.1407470703125,0.0084228515625
7.566,311,765,973,312,-6.0,37.0,48.0,-33.69140625,38.75732421875,-3.051757574081421,-1.3402099609375,0.1407470703125,0.0084228515625
7.575,310,724,901,312,-6.0,37.0,48.0,-32.77587890625,47.729488372802734,1.7700194120407104,-1.3172607421875,0.181884765625,-0.0601806640625
7.589,309,632,784,310,-6.0,37.0,48.0,-28.076169967651367,54.992671966552734,4.638671875,-1.14111328125,0.296142578125,-0.1500244140625
7.598,309,568,716,310,-6.0,37.0,48.0,-25.695798873901367,58.715816497802734,5.432128429412842,-1.14111328125,0.296142578125,-0.1500244140625
7.604,310,502,645,310,-6.0,37.0,48.0,-26.611326217651367,60.974117279052734,2.685546636581421,-0.9783935546875,0.2720947265625,-0.1217041015625
7.634,308,391,530,310,-6.0,37.0,48.0,-28.503416061401367,64.453125,-3.234863042831421,-0.6270751953125,0.1341552734375,-0.0682373046875
7.634,308,357,450,297,-6.0,37.0,48.0,-28.808591842651367,69.091796875,-9.765625,-0.6270751953125,0.1341552734375,-0.0682373046875
7.635,311,325,428,308,-6.0,37.0,48.0,-25.573728561401367,71.59423828125,-15.136717796325684,-0.476318359375,0.042724609375,-0.0413818359375
7.643,310,314,423,311,-3.0,37.0,46.0,-17.578125,67.56591796875,-18.37158203125,-0.4527587890625,-0.0491943359375,0.02392578125
7.657,310,312,401,308,-3.0,37.0,46.0,-8.056640625,55.908199310302734,-18.61572265625,-0.7120361328125,0.1383056640625,0.0556640625
7.665,309,312,395,310,-3.0,37.0,46.0,-2.50244140625,42.114253997802734,-14.099120140075684,-0.7120361328125,0.1383056640625,0.0556640625
7.678,309,311,394,309,-3.0,37.0,46.0,-7.385253429412842,29.907224655151367,-4.7607421875,-0.770263671875,0.34423828125,-0.0072021484375
7.687,310,312,394,309,-3.0,37.0,46.0,-20.690916061401367,19.04296875,2.01416015625,-0.8533935546875,0.26318359375,0.0059814453125
7.701,310,310,398,308,-3.0,37.0,46.0,-23.315427780151367,12.451170921325684,-0.0610351525247097,-0.8533935546875,0.26318359375,0.0059814453125
7.703,309,312,393,308,-3.0,37.0,46.0,-2.25830078125,10.925292015075684,-6.286620616912842,-0.849853515625,0.1221923828125,0.005859375
7.728,309,310,396,310,-3.0,37.0,46.0,56.152339935302734,4.5166015625,-5.798339366912842,-0.72802734375,0.066650390625,-0.0867919921875
7.730,310,310,394,310,-3.0,37.0,46.0,56.152339935302734,4.5166015625,-5.798339366912842,-0.6788330078125,0.114990234375,-0.1065673828125
7.742,310,312,394,308,-3.0,37.0,46.0,66.5283203125,-2.929687261581421,0.54931640625,-0.6788330078125,0.114990234375,-0.1065673828125
7.747,310,312,394,310,-3.0,40.0,47.0,55.053707122802734,-14.892577171325684,10.375975608825684,-0.6165771484375,0.183349609375,-0.0726318359375
7.755,310,312,394,308,-3.0,40.0,47.0,55.053707122802734,-14.892577171325684,10.375975608825684,-0.607666015625,0.1578369140625,-0.0582275390625
7.763,309,311,394,308,-3.0,40.0,47.0,47.546382904052734,-15.380858421325684,7.385253429412842,-0.607666015625,0.1578369140625,-0.0582275390625
7.776,310,312,400,309,-3.0,40.0,47.0,39.9169921875,-11.657713890075684,-4.45556640625,-0.6285400390625,0.01806640625,-0.09033203125
7.791,310,312,411,310,-3.0,40.0,47.0,39.9169921875,-11.657713890075684,-4.45556640625,-0.625,-0.054931640625,-0.111328125
7.793,308,314,425,310,-3.0,40.0,47.0,35.15625,-12.084959983825684,-4.08935546875,-0.625,-0.054931640625,-0.111328125
7.807,310,356,454,310,-3.0,40.0,47.0,28.808591842651367,-17.578125,9.82666015625,-0.600830078125,-0.0826416015625,-0.11279296875
7.815,310,387,483,310,-3.0,40.0,47.0,28.808591842651367,-17.578125,9.82666015625,-0.69189453125,0.0203857421875,-0.15576171875
7.823,308,430,519,310,-3.0,40.0,47.0,27.099607467651367,-23.864744186401367,19.8974609375,-0.69189453125,0.0203857421875,-0.15576171875
7.849,310,496,584,310,-3.0,40.0,47.0,5.493163585662842,-43.579097747802734,39.36767578125,-0.945556640625,0.4732666015625,-0.363037109375
7.850,309,548,636,312,-5.0,39.0,42.0,5.493163585662842,-43.579097747802734,39.36767578125,-0.8232421875,0.5413818359375,-0.3233642578125
7.853,310,590,703,311,-5.0,39.0,42.0,-20.080564498901367,-52.001949310302734,33.75244140625,-0.8232421875,0.5413818359375,-0.3233642578125
7.867,309,654,840,311,-5.0,39.0,42.0,-82.94676971435547,-61.096187591552734,-10.803221702575684,-0.547607421875,0.0562744140625,0.0653076171875
7.875,310,689,942,310,-5.0,39.0,42.0,-90.51512908935547,-60.241695404052734,-26.367185592651367,-0.6275634765625,-0.189208984375,0.1065673828125
7.883,310,718,1001,312,-5.0,39.0,42.0,-90.51512908935547,-60.241695404052734,-26.367185592651367,-0.8135986328125,-0.230224609375,0.066162109375
7.910,310,767,1107,310,-5.0,39.0,42.0,-39.4287109375,-52.856441497802734,-14.465331077575684,-1.034423828125,-0.021728515625,0.044921875
7.911,310,786,1173,312,-5.0,39.0,42.0,-19.6533203125,-54.504390716552734,2.3193359375,-1.208740234375,0.256591796875,0.1324462890625
7.913,310,810,1206,311,-5.0,39.0,42.0,-19.6533203125,-54.504390716552734,2.3193359375,-1.3165283203125,0.392822265625,0.3248291015625
7.933,310,846,1253,312,-5.0,39.0,42.0,-12.145995140075684,-55.175777435302734,11.230467796325684,-1.4281005859375,0.41796875,0.486572265625
7.935,310,859,1282,311,-5.0,39.0,42.0,3.967284917831421,-50.659175872802734,8.544921875,-1.564453125,0.4635009765625,0.53759765625
7.943,306,862,1292,312,-3.0,36.0,46.0,3.967284917831421,-50.659175872802734,8.544921875,-1.7059326171875,0.5003662109375,0.466064453125
7.957,310,853,1266,312,-3.0,36.0,46.0,58.959957122802734,-37.53662109375,2.868652105331421,-1.799072265625,0.4447021484375,0.224609375
7.965,310,853,1241,312,-3.0,36.0,46.0,80.26123046875,-23.986814498901367,-4.82177734375,-1.7049560546875,0.3172607421875,-0.1614990234375
7.975,310,853,1246,310,-3.0,36.0,46.0,80.26123046875,-23.986814498901367,-4.82177734375,-1.46240234375,0.2049560546875,-0.5186767578125
7.986,308,855,1266,311,-3.0,36.0,46.0,63.537593841552734,8.11767578125,-18.1884765625,-1.3895263671875,0.15673828125,-0.6102294921875
7.995,311,852,1267,312,-3.0,36.0,46.0,18.00537109375,12.084959983825684,-17.7001953125,-1.531982421875,0.096923828125,-0.3427734375
8.008,310,840,1255,312,-3.0,36.0,46.0,18.00537109375,12.084959983825684,-17.7001953125,-1.617431640625,0.001708984375,0.0352783203125
8.075,310,816,1209,312,-3.0,36.0,46.0,-36.4990234375,8.9111328125,-10.375975608825684,-1.558837890625,-0.0103759765625,0.2196044921875
8.076,310,794,1157,312,-3.0,36.0,46.0,-30.334470748901367,15.075682640075684,-5.310058116912842,-1.439208984375,0.0771484375,0.183349609375
8.076,310,778,1108,310,-3.0,36.0,46.0,-22.766111373901367,25.390623092651367,-0.54931640625,-1.3426513671875,0.158203125,0.0709228515625
8.076,312,723,998,312,-4.0,36.0,45.0,-18.9208984375,36.31591796875,2.3193359375,-1.2822265625,0.2071533203125,-0.0233154296875
8.076,310,687,916,310,-4.0,36.0,45.0,-15.136717796325684,44.250484466552734,3.173827886581421,-1.21630859375,0.2601318359375,-0.07177734375
8.076,310,638,840,310,-4.0,36.0,45.0,-13.122557640075684,47.180171966552734,2.50244140625,-1.1170654296875,0.284423828125,-0.0733642578125
8.079,309,543,713,312,-4.0,36.0,45.0,-15.991209983825684,48.034664154052734,-0.30517578125,-0.989013671875,0.2547607421875,-0.0670166015625
8.086,310,503,642,311,-4.0,36.0,45.0,-20.629880905151367,50.476070404052734,-5.126952648162842,-0.8314208984375,0.2158203125,-0.0628662109375
8.093,310,454,579,311,-4.0,36.0,45.0,-22.216794967651367,53.894039154052734,-9.58251953125,-0.66455078125,0.1875,-0.0701904296875
8.110,309,373,480,310,-4.0,36.0,45.0,-17.7001953125,56.396480560302734,-11.962889671325684,-0.5528564453125,0.1732177734375,-0.126708984375
8.115,307,359,441,310,-4.0,36.0,45.0,-6.042479991912842,56.457515716552734,-12.145995140075684,-0.514404296875,0.173583984375,-0.170654296875
8.137,308,338,437,310,-4.0,36.0,45.0,7.324218273162842,50.964351654052734,-12.939452171325684,-0.527099609375,0.1568603515625,-0.0946044921875
8.137,308,322,425,309,-1.0,38.0,42.0,10.375975608825684,38.75732421875,-16.17431640625,-0.5831298828125,0.129150390625,0.0428466796875
8.145,309,317,415,309,-1.0,38.0,42.0,-1.8920897245407104,23.803709030151367,-19.10400390625,-0.6556396484375,0.128173828125,0.1448974609375
8.153,308,317,410,309,-1.0,38.0,42.0,-18.00537109375,12.695311546325684,-18.98193359375,-0.7218017578125,0.142333984375,0.2073974609375
8.167,308,315,411,311,-1.0,38.0,42.0,-22.338865280151367,8.056640625,-14.892577171325684,-0.789306640625,0.1402587890625,0.192138671875
8.175,310,315,411,309,-1.0,38.0,42.0,-10.131834983825684,8.056640625,-7.568358898162842,-0.84619140625,0.1114501953125,0.0836181640625
8.183,310,314,409,310,-1.0,38.0,42.0,10.803221702575684,8.30078125,-1.0986328125,-0.864990234375,0.0430908203125,-0.0367431640625
8.197,310,314,415,309,-1.0,38.0,42.0,30.761716842651367,4.638671875,2.25830078125,-0.8385009765625,-0.0242919921875,-0.10791015625
8.205,310,313,417,310,-1.0,38.0,42.0,44.433589935302734,-2.44140625,5.676269054412842,-0.7830810546875,-0.0264892578125,-0.1400146484375
8.213,310,314,418,310,-1.0,38.0,42.0,49.072261810302734,-9.94873046875,11.047362327575684,-0.7388916015625,0.0255126953125,-0.1453857421875
8.230,308,315,423,309,-1.0,38.0,42.0,45.532222747802734,-15.624999046325684,16.11328125,-0.7230224609375,0.08349609375,-0.1170654296875
8.241,310,312,435,308,-4.0,37.0,49.0,38.4521484375,-18.61572265625,18.1884765625,-0.7186279296875,0.10986328125,-0.07373046875
8.243,310,311,439,310,-4.0,37.0,49.0,33.5693359375,-19.04296875,16.90673828125,-0.712646484375,0.1011962890625,-0.0458984375
8.257,309,340,441,310,-4.0,37.0,49.0,32.1044921875,-18.61572265625,14.648436546325684,-0.7071533203125,0.0838623046875,-0.036865234375
8.272,310,357,449,310,-4.0,37.0,49.0,30.151365280151367,-19.10400390625,14.709471702575684,-0.698974609375,0.075927734375,-0.0418701171875
8.273,309,384,454,309,-4.0,37.0,49.0,26.367185592651367,-20.324705123901367,18.1884765625,-0.70751953125,0.099609375,-0.0521240234375
8.287,309,438,506,310,-4.0,37.0,49.0,23.742673873901367,-21.667478561401367,23.498533248901367,-0.75537109375,0.1756591796875,-0.0738525390625
8.295,310,476,535,310,-4.0,37.0,49.0,21.606443405151367,-25.268552780151367,26.977537155151367,-0.8096923828125,0.2684326171875,-0.1092529296875
8.303,309,509,561,311,-4.0,37.0,49.0,15.197752952575684,-32.04345703125,25.634763717651367,-0.8182373046875,0.3173828125,-0.140625
8.317,308,589,622,310,-4.0,37.0,49.0,2.44140625,-40.710445404052734,20.01953125,-0.7242431640625,0.2982177734375,-0.12548828125
8.325,310,616,678,310,-4.0,37.0,49.0,-13.610838890075684,-49.133296966552734,12.634276390075684,-0.5863037109375,0.2122802734375,-0.0322265625
8.345,310,654,736,310,-4.0,37.0,49.0,-26.794431686401367,-55.114742279052734,5.0048828125,-0.5296630859375,0.0794677734375,0.0849609375
8.354,310,725,864,312,-3.0,38.0,46.0,-32.2265625,-57.678218841552734,-1.8920897245407104,-0.7001953125,-0.079833984375,0.1942138671875
8.356,311,754,927,310,-3.0,38.0,46.0,-26.000974655151367,-58.959957122802734,-5.737304210662842,-0.7001953125,-0.079833984375,0.1942138671875
8.363,310,777,958,311,-3.0,38.0,46.0,-9.1552734375,-61.706539154052734,-2.01416015625,-0.865234375,0.0904541015625,0.114501953125
8.388,310,818,1008,311,-3.0,38.0,46.0,9.46044921875,-64.27001953125,8.36181640625,-1.189208984375,0.426025390625,-0.01220703125
8.388,310,834,1003,311,-3.0,38.0,46.0,21.301267623901367,-61.767574310302734,15.930174827575684,-1.189208984375,0.426025390625,-0.01220703125
8.393,310,855,1035,312,-3.0,38.0,46.0,27.038572311401367,-52.795406341552734,15.136717796325684,-1.3636474609375,0.376708984375,0.0623779296875
8.407,310,875,1038,312,-3.0,38.0,46.0,32.2265625,-41.137691497802734,10.925292015075684,-1.6239013671875,0.3135986328125,0.2657470703125
8.419,310,882,1038,310,-3.0,38.0,46.0,36.7431640625,-29.846189498901367,8.48388671875,-1.6239013671875,0.3135986328125,0.2657470703125
8.423,310,884,1022,312,-3.0,38.0,46.0,36.56005859375,-18.4326171875,7.507323741912842,-1.7081298828125,0.296875,0.2137451171875
8.450,310,875,981,312,-6.0,35.0,46.0,35.2783203125,-6.774901866912842,7.202147960662842,-1.6243896484375,0.2335205078125,-0.123779296875
8.450,298,862,955,296,-6.0,35.0,46.0,37.53662109375,2.868652105331421,6.530761241912842,-1.6243896484375,0.2335205078125,-0.123779296875
8.454,309,865,986,312,-6.0,35.0,46.0,33.5693359375,8.6669921875,2.990722417831421,-1.287841796875,0.2125244140625,-0.26220703125
8.468,310,858,982,312,-6.0,35.0,46.0,-20.935056686401367,14.526366233825684,-2.0751953125,-1.3240966796875,0.2987060546875,-0.0615234375
8.484,310,846,955,311,-6.0,35.0,46.0,-20.935056686401367,14.526366233825684,-2.0751953125,-1.5789794921875,0.2650146484375,0.1944580078125
8.491,310,830,935,311,-6.0,35.0,46.0,-39.97802734375,15.197752952575684,-2.50244140625,-1.5789794921875,0.2650146484375,0.1944580078125
8.498,310,793,873,312,-6.0,35.0,46.0,-23.071287155151367,16.4794921875,-5.615233898162842,-1.4383544921875,0.1737060546875,0.213134765625
8.506,311,767,832,312,-6.0,35.0,46.0,-23.071287155151367,16.4794921875,-5.615233898162842,-1.2872314453125,0.153564453125,0.035888671875
8.520,310,740,780,311,-6.0,35.0,46.0,-15.014647483825684,22.827146530151367,-5.920409679412842,-1.2872314453125,0.153564453125,0.035888671875
8.528,310,688,707,312,-6.0,35.0,46.0,-14.709471702575684,38.02490234375,0.7934569716453552,-1.250732421875,0.223876953125,-0.1396484375
8.548,310,644,658,312,-5.0,37.0,41.0,-14.709471702575684,38.02490234375,0.7934569716453552,-1.2174072265625,0.2568359375,-0.1136474609375
8.549,296,592,613,311,-5.0,37.0,41.0,-16.845703125,39.0625,5.615233898162842,-1.2174072265625,0.2568359375,-0.1136474609375
8.558,310,517,551,309,-5.0,37.0,41.0,-27.404783248901367,40.466304779052734,5.432128429412842,-0.9161376953125,0.1746826171875,-0.1092529296875
8.566,310,479,510,312,-5.0,37.0,41.0,-31.188962936401367,46.691890716552734,2.685546636581421,-0.7427978515625,0.13134765625,-0.1307373046875
8.579,308,424,481,312,-5.0,37.0,41.0,-31.188962936401367,46.691890716552734,2.685546636581421,-0.628173828125,0.126708984375,-0.15087890625
8.590,308,360,420,309,-5.0,37.0,41.0,-20.996091842651367,57.006832122802734,-0.7324218153953552,-0.5880126953125,0.1788330078125,-0.1561279296875
8.600,310,325,410,310,-5.0,37.0,41.0,-8.6669921875,54.138179779052734,-2.624511480331421,-0.5804443359375,0.259521484375,-0.0867919921875
8.604,308,316,408,309,-5.0,37.0,41.0,-8.6669921875,54.138179779052734,-2.624511480331421,-0.58203125,0.324951171875,0.01904296875
8.623,308,315,402,308,-5.0,37.0,41.0,-22.033689498901367,30.029294967651367,-9.58251953125,-0.632568359375,0.31689453125,0.1239013671875
8.626,309,315,399,308,-5.0,37.0,41.0,-40.161128997802734,21.179197311401367,-13.916014671325684,-0.7266845703125,0.2169189453125,0.244384765625
8.649,309,315,401,310,-2.0,40.0,42.0,-40.161128997802734,21.179197311401367,-13.916014671325684,-0.81689453125,0.125244140625,0.2569580078125
8.650,308,314,402,308,-2.0,40.0,42.0,-13.549803733825684,21.301267623901367,-21.728513717651367,-0.8416748046875,0.1173095703125,0.102294921875
8.657,310,314,401,310,-2.0,40.0,42.0,9.765625,17.15087890625,-15.441893577575684,-0.787841796875,0.1170654296875,-0.0521240234375
8.664,310,315,408,310,-2.0,40.0,42.0,9.765625,17.15087890625,-15.441893577575684,-0.71337890625,0.0701904296875,-0.096435546875
8.678,309,314,402,310,-2.0,40.0,42.0,18.6767578125,-5.920409679412842,-3.417968511581421,-0.651123046875,0.044189453125,-0.070556640625
8.699,310,314,402,308,-2.0,40.0,42.0,19.287109375,-14.099120140075684,1.4038084745407104,-0.61572265625,0.070556640625,-0.027099609375
8.699,310,315,405,310,-2.0,40.0,42.0,19.287109375,-14.099120140075684,1.4038084745407104,-0.607421875,0.10595703125,0.0133056640625
