time,compression0,compression1,compression2,compression3,magn_x,magn_y,magn_z,gyro_x,gyro_y,gyro_z,accel_x,accel_y,accel_z
0.008,309,715,599,310,-1.0,42.0,40.0,-0.3662109076976776,-2.01416015625,-1.8920897245407104,-0.939697265625,0.2889404296875,-0.156982421875
0.016,310,715,601,309,-1.0,42.0,40.0,-0.54931640625,-1.9531248807907104,-1.7700194120407104,-0.9365234375,0.2877197265625,-0.150146484375
0.040,310,718,601,310,-1.0,42.0,40.0,-0.7324218153953552,-1.6479490995407104,-1.6479490995407104,-0.9342041015625,0.293212890625,-0.1446533203125
0.040,310,721,604,308,-1.0,42.0,40.0,-1.0986328125,-1.03759765625,-1.6479490995407104,-0.93408203125,0.299072265625,-0.1444091796875
0.046,309,722,604,310,-1.0,42.0,40.0,-1.4038084745407104,-0.3662109076976776,-1.9531248807907104,-0.9354248046875,0.2989501953125,-0.1468505859375
0.057,310,724,603,310,-1.0,42.0,40.0,-1.4038084745407104,0.1831054538488388,-2.3193359375,-0.93798828125,0.2955322265625,-0.1513671875
0.068,308,725,607,310,-1.0,42.0,40.0,-0.9155272841453552,0.4882812201976776,-2.44140625,-0.94189453125,0.2938232421875,-0.1578369140625
0.080,310,725,607,309,-1.0,42.0,40.0,-0.1220703050494194,0.4882812201976776,-2.3193359375,-0.9451904296875,0.2938232421875,-0.1619873046875
0.087,310,725,607,310,-1.0,42.0,40.0,0.4882812201976776,0.1831054538488388,-2.197265625,-0.9468994140625,0.2908935546875,-0.1612548828125
0.099,310,726,607,309,-4.0,43.0,41.0,0.9765624403953552,-0.3662109076976776,-2.01416015625,-0.946533203125,0.283447265625,-0.15771484375
0.111,310,726,607,310,-4.0,43.0,41.0,1.2817381620407104,-0.8544921278953552,-1.6479490995407104,-0.9432373046875,0.2757568359375,-0.152587890625
0.119,310,728,613,310,-4.0,43.0,41.0,1.5869139432907104,-1.15966796875,-1.03759765625,-0.9393310546875,0.273681640625,-0.14794921875
0.136,309,728,608,310,-4.0,43.0,41.0,1.9531248807907104,-1.220703125,-0.30517578125,-0.9373779296875,0.27880859375,-0.1456298828125
0.142,310,726,608,310,-4.0,43.0,41.0,2.01416015625,-0.9765624403953552,0.3662109076976776,-0.9375,0.2861328125,-0.146728515625
0.144,310,728,608,310,-4.0,43.0,41.0,1.7700194120407104,-0.6103515625,0.7934569716453552,-0.9381103515625,0.2904052734375,-0.151123046875
0.158,310,728,607,310,-4.0,43.0,41.0,1.3427733182907104,-0.0610351525247097,0.9765624403953552,-0.938720703125,0.2926025390625,-0.1566162109375
0.170,309,728,607,310,-4.0,43.0,41.0,0.9765624403953552,0.4882812201976776,1.03759765625,-0.9390869140625,0.295654296875,-0.16064453125
0.174,310,728,607,310,-4.0,43.0,41.0,0.54931640625,0.8544921278953552,0.9765624403953552,-0.939453125,0.2982177734375,-0.1630859375
0.187,310,725,608,309,-4.0,41.0,41.0,0.0610351525247097,0.9765624403953552,0.7934569716453552,-0.9398193359375,0.296630859375,-0.1644287109375
0.196,310,726,607,309,-4.0,41.0,41.0,-0.1831054538488388,0.7934569716453552,0.6103515625,-0.9403076171875,0.2904052734375,-0.1630859375
0.204,310,725,604,310,-4.0,41.0,41.0,0.4272460639476776,0.1831054538488388,0.6713866591453552,-0.94091796875,0.28466796875,-0.157958984375
0.242,310,726,601,310,-4.0,41.0,41.0,1.6479490995407104,-0.4882812201976776,0.8544921278953552,-0.94189453125,0.2835693359375,-0.1522216796875
0.251,309,726,599,310,-4.0,41.0,41.0,2.807616949081421,-0.9155272841453552,1.0986328125,-0.944091796875,0.285400390625,-0.1484375
0.255,310,721,579,308,-4.0,41.0,41.0,3.295898199081421,-1.03759765625,1.15966796875,-0.946044921875,0.2864990234375,-0.14404296875
0.260,310,716,588,312,-4.0,41.0,41.0,3.051757574081421,-0.6103515625,1.15966796875,-0.9482421875,0.2891845703125,-0.142333984375
0.261,298,716,588,311,-4.0,41.0,41.0,2.563476324081421,0.1831054538488388,1.03759765625,-0.9488525390625,0.294677734375,-0.1475830078125
0.265,310,714,585,309,-4.0,41.0,41.0,2.44140625,0.9765624403953552,0.9155272841453552,-0.945068359375,0.2978515625,-0.15673828125
0.273,309,711,582,311,-4.0,41.0,41.0,2.929687261581421,1.2817381620407104,0.7934569716453552,-0.9364013671875,0.29736328125,-0.1646728515625
0.289,310,710,579,310,-2.0,42.0,42.0,4.08935546875,0.9155272841453552,0.6103515625,-0.92529296875,0.2987060546875,-0.16845703125
0.295,310,705,577,310,-2.0,42.0,42.0,5.676269054412842,0.1220703050494194,0.2441406100988388,-0.9173583984375,0.30615234375,-0.1668701171875
0.303,310,703,578,309,-2.0,42.0,42.0,7.019042491912842,-0.8544921278953552,-0.6713866591453552,-0.9154052734375,0.316162109375,-0.1629638671875
0.346,310,705,578,308,-2.0,42.0,42.0,7.568358898162842,-1.7700194120407104,-2.0751953125,-0.9168701171875,0.3172607421875,-0.1591796875
0.349,311,703,578,309,-2.0,42.0,42.0,7.385253429412842,-2.3193359375,-3.723144292831421,-0.920166015625,0.307373046875,-0.1553955078125
0.349,308,705,585,310,-2.0,42.0,42.0,7.202147960662842,-2.25830078125,-5.065917491912842,-0.9263916015625,0.3011474609375,-0.154296875
0.353,309,703,584,310,-2.0,42.0,42.0,6.958007335662842,-1.8920897245407104,-6.042479991912842,-0.93408203125,0.300537109375,-0.1566162109375
0.355,310,700,585,310,-2.0,42.0,42.0,6.469726085662842,-1.5869139432907104,-6.774901866912842,-0.941162109375,0.296142578125,-0.1612548828125
0.363,309,700,585,310,-2.0,42.0,42.0,5.981444835662842,-1.7700194120407104,-7.263183116912842,-0.9444580078125,0.2861328125,-0.1656494140625
0.377,310,705,585,310,-2.0,42.0,42.0,5.981444835662842,-2.38037109375,-7.202147960662842,-0.9415283203125,0.2744140625,-0.166015625
0.388,309,705,579,310,-4.0,43.0,41.0,6.408690929412842,-3.295898199081421,-6.469726085662842,-0.9339599609375,0.2667236328125,-0.162109375
0.396,310,710,583,310,-4.0,43.0,41.0,6.591796398162842,-4.21142578125,-5.249022960662842,-0.924560546875,0.2650146484375,-0.1573486328125
0.407,310,713,588,310,-4.0,43.0,41.0,6.164550304412842,-5.187987804412842,-4.150390625,-0.9249267578125,0.2713623046875,-0.1573486328125
0.415,309,714,594,311,-4.0,43.0,41.0,5.249022960662842,-6.530761241912842,-3.356933355331421,-0.9249267578125,0.2713623046875,-0.1573486328125
0.450,308,715,601,309,-4.0,43.0,41.0,4.150390625,-7.934569835662842,-2.746581792831421,-0.9320068359375,0.275634765625,-0.1630859375
0.452,309,721,605,311,-4.0,43.0,41.0,3.112792730331421,-9.09423828125,-2.3193359375,-0.9393310546875,0.272705078125,-0.1650390625
0.458,309,723,604,310,-4.0,43.0,41.0,2.13623046875,-9.765625,-1.9531248807907104,-0.9393310546875,0.272705078125,-0.1650390625
0.460,309,705,608,311,-4.0,43.0,41.0,1.2817381620407104,-10.070799827575684,-1.4038084745407104,-0.9427490234375,0.27294921875,-0.156982421875
0.469,309,728,608,310,-4.0,43.0,41.0,0.9155272841453552,-10.131834983825684,-0.7934569716453552,-0.9447021484375,0.2666015625,-0.1390380859375
0.475,308,726,613,311,-4.0,43.0,41.0,0.4882812201976776,-10.192870140075684,-0.1831054538488388,-0.9447021484375,0.2666015625,-0.1390380859375
0.483,309,728,614,310,-4.0,43.0,41.0,-0.3662109076976776,-10.314940452575684,0.4272460639476776,-0.93310546875,0.2576904296875,-0.126708984375
0.497,310,730,616,310,-3.0,42.0,35.0,-1.3427733182907104,-10.437010765075684,0.8544921278953552,-0.896484375,0.2520751953125,-0.108154296875
0.508,310,732,616,310,-3.0,42.0,35.0,-2.13623046875,-10.375975608825684,1.4038084745407104,-0.896484375,0.2520751953125,-0.108154296875
0.513,309,738,621,310,-3.0,42.0,35.0,-2.563476324081421,-10.437010765075684,2.01416015625,-0.8760986328125,0.25927734375,-0.104736328125
0.529,309,750,634,309,-3.0,42.0,35.0,-2.50244140625,-11.047362327575684,2.685546636581421,-0.855712890625,0.292724609375,-0.1168212890625
0.553,310,756,636,311,-3.0,42.0,35.0,-2.0751953125,-12.573241233825684,3.356933355331421,-0.8480224609375,0.3033447265625,-0.1278076171875
0.553,309,764,642,310,-3.0,42.0,35.0,-1.6479490995407104,-15.136717796325684,3.723144292831421,-0.8480224609375,0.3033447265625,-0.1278076171875
0.558,310,790,654,310,-3.0,42.0,35.0,-4.5166015625,-21.484373092651367,2.868652105331421,-0.792724609375,0.3001708984375,-0.0963134765625
0.565,310,813,673,311,-3.0,42.0,35.0,-4.5166015625,-21.484373092651367,2.868652105331421,-0.7216796875,0.276611328125,-0.04345703125
0.573,308,835,695,312,-3.0,42.0,35.0,-7.080077648162842,-23.803709030151367,1.7700194120407104,-0.7216796875,0.276611328125,-0.04345703125
0.587,308,888,725,310,-4.0,42.0,39.0,-12.084959983825684,-26.367185592651367,-1.4038084745407104,-0.5433349609375,0.2286376953125,0.0357666015625
0.595,310,935,769,309,-4.0,42.0,39.0,-12.084959983825684,-26.367185592651367,-1.4038084745407104,-0.5283203125,0.237060546875,0.0098876953125
0.603,310,982,832,310,-4.0,42.0,39.0,-16.357421875,-28.198240280151367,-1.2817381620407104,-0.5283203125,0.237060546875,0.0098876953125
0.620,310,1074,938,310,-4.0,42.0,39.0,-37.9638671875,-42.541500091552734,9.033203125,-0.73095703125,0.292236328125,-0.0718994140625
0.631,310,1127,987,311,-4.0,42.0,39.0,-37.9638671875,-42.541500091552734,9.033203125,-0.9462890625,0.3905029296875,-0.1943359375
0.633,309,1175,1034,310,-4.0,42.0,39.0,-53.100582122802734,-51.757808685302734,17.63916015625,-0.9462890625,0.3905029296875,-0.1943359375
0.656,309,1253,1117,310,-4.0,42.0,39.0,-74.5849609375,-47.485347747802734,27.954099655151367,-1.142578125,0.4600830078125,-0.41552734375
0.656,310,1292,1184,310,-4.0,42.0,39.0,-74.5849609375,-47.485347747802734,27.954099655151367,-0.9931640625,0.484130859375,-0.264892578125
0.663,310,1334,1229,310,-4.0,42.0,39.0,-70.3125,-42.907711029052734,26.672361373901367,-0.9931640625,0.484130859375,-0.264892578125
0.677,310,1388,1342,310,-4.0,42.0,39.0,-44.555660247802734,-45.104976654052734,7.019042491912842,-0.8936767578125,0.322021484375,0.0421142578125
0.685,310,1409,1387,310,-1.0,38.0,42.0,-29.296873092651367,-41.625972747802734,-4.638671875,-1.110107421875,0.2210693359375,0.039306640625
0.693,310,1422,1422,310,-1.0,38.0,42.0,-29.296873092651367,-41.625972747802734,-4.638671875,-1.3465576171875,0.2486572265625,-0.025146484375
0.707,310,1452,1471,311,-1.0,38.0,42.0,-22.766111373901367,-20.141599655151367,-6.225585460662842,-1.5177001953125,0.3436279296875,-0.0438232421875
0.715,311,1463,1490,310,-1.0,38.0,42.0,-40.527339935302734,-13.366698265075684,1.4648436307907104,-1.53857421875,0.2987060546875,0.0628662109375
0.724,310,1477,1509,312,-1.0,38.0,42.0,-40.527339935302734,-13.366698265075684,1.4648436307907104,-1.391845703125,0.116943359375,0.2095947265625
0.759,310,1485,1506,311,-1.0,38.0,42.0,-46.203609466552734,-5.981444835662842,6.103515148162842,-1.1715087890625,0.022216796875,0.2548828125
0.762,310,1488,1506,311,-1.0,38.0,42.0,-21.789548873901367,-1.220703125,5.798339366912842,-1.0028076171875,0.1341552734375,0.141357421875
0.763,311,1499,1498,310,-1.0,38.0,42.0,-21.789548873901367,-1.220703125,5.798339366912842,-0.9429931640625,0.37744140625,-0.0633544921875
0.767,309,1492,1478,312,-1.0,38.0,42.0,9.033203125,3.417968511581421,5.126952648162842,-0.949462890625,0.5703125,-0.1942138671875
0.775,312,1490,1463,311,-1.0,38.0,42.0,3.906249761581421,2.807616949081421,-1.5869139432907104,-0.953125,0.614013671875,-0.150146484375
0.784,313,1485,1447,311,-1.0,38.0,43.0,3.906249761581421,2.807616949081421,-1.5869139432907104,-0.936767578125,0.5518798828125,0.01416015625
0.799,310,1458,1406,312,-1.0,38.0,43.0,-4.82177734375,2.563476324081421,-26.184080123901367,-0.924072265625,0.4544677734375,0.1646728515625
0.805,310,1428,1351,312,-1.0,38.0,43.0,-2.01416015625,9.1552734375,-38.818359375,-0.9305419921875,0.373291015625,0.21728515625
0.814,312,1400,1287,311,-1.0,38.0,43.0,-2.01416015625,9.1552734375,-38.818359375,-0.9599609375,0.314208984375,0.1663818359375
0.827,309,1352,1219,310,-1.0,38.0,43.0,9.94873046875,31.494138717651367,-55.786128997802734,-1.001953125,0.2518310546875,0.0533447265625
0.836,312,1344,1231,310,-1.0,38.0,43.0,17.08984375,37.9638671875,-57.800289154052734,-1.0899658203125,0.228515625,-0.0640869140625
0.865,310,1336,1236,310,-1.0,38.0,43.0,21.057126998901367,37.78076171875,-53.405757904052734,-1.31005859375,0.349365234375,-0.158203125
0.866,295,1297,1214,311,-1.0,38.0,43.0,11.840819358825684,31.494138717651367,-42.480464935302734,-1.5665283203125,0.524658203125,-0.2032470703125
0.866,310,1253,1191,311,-1.0,38.0,43.0,-16.2353515625,22.888181686401367,-28.564451217651367,-1.667236328125,0.5146484375,-0.2039794921875
0.873,308,1191,1143,310,-1.0,38.0,43.0,-50.842281341552734,16.7236328125,-13.305663108825684,-1.59765625,0.27294921875,-0.18896484375
0.887,309,1091,1043,310,0.0,39.0,42.0,-71.47216796875,12.573241233825684,4.150390625,-1.43701171875,-0.0484619140625,-0.1573486328125
0.897,310,1022,957,310,0.0,39.0,42.0,-63.720699310302734,8.9111328125,22.338865280151367,-1.25,-0.22265625,-0.1170654296875
0.903,309,932,862,311,0.0,39.0,42.0,-30.273435592651367,5.615233898162842,35.46142578125,-1.0555419921875,-0.1748046875,-0.0465087890625
0.917,310,794,754,310,0.0,39.0,42.0,10.375975608825684,4.94384765625,36.31591796875,-0.858642578125,-0.1375732421875,0.031982421875
0.925,310,738,700,310,0.0,39.0,42.0,47.363277435302734,13.061522483825684,24.658201217651367,-0.6881103515625,-0.1806640625,0.04541015625
0.940,309,684,673,308,0.0,39.0,42.0,82.33641815185547,30.334470748901367,8.9111328125,-0.610595703125,-0.08203125,0.008056640625
0.968,310,601,594,310,0.0,39.0,42.0,107.23876190185547,45.959468841552734,-2.0751953125,-0.63037109375,0.1917724609375,-0.01123046875
0.969,310,548,547,310,0.0,39.0,42.0,107.84911346435547,52.001949310302734,-5.0048828125,-0.647216796875,0.4666748046875,-0.0321044921875
0.970,310,495,509,309,0.0,39.0,42.0,87.76854705810547,52.246089935302734,-0.6713866591453552,-0.6212158203125,0.6412353515625,-0.0780029296875
0.977,310,473,438,309,0.0,39.0,42.0,61.340328216552734,49.133296966552734,6.164550304412842,-0.6146240234375,0.6580810546875,-0.0765380859375
0.985,310,449,399,310,-2.0,41.0,35.0,37.53662109375,39.97802734375,8.60595703125,-0.6536865234375,0.512451171875,-0.020263671875
0.993,310,427,387,310,-2.0,41.0,35.0,20.568845748901367,26.794431686401367,5.432128429412842,-0.672119140625,0.3380126953125,0.0166015625
1.007,310,415,388,310,-2.0,41.0,35.0,12.023924827575684,14.892577171325684,1.4648436307907104,-0.6785888671875,0.1859130859375,0.003662109375
1.015,309,426,388,309,-2.0,41.0,35.0,13.549803733825684,9.1552734375,-3.112792730331421,-0.67333984375,-0.02734375,-0.0516357421875
1.023,310,447,395,310,-2.0,41.0,35.0,33.50830078125,13.000487327575684,-9.82666015625,-0.6627197265625,-0.0697021484375,-0.161865234375
1.041,308,481,411,310,-2.0,41.0,35.0,63.354488372802734,18.73779296875,-7.751464366912842,-0.706787109375,0.2969970703125,-0.218505859375
1.078,310,513,410,308,-2.0,41.0,35.0,69.7021484375,12.451170921325684,5.310058116912842,-0.7608642578125,0.64501953125,-0.134765625
1.078,310,537,420,309,-2.0,41.0,35.0,44.311519622802734,-2.746581792831421,12.207030296325684,-0.7713623046875,0.57763671875,-0.0135498046875
1.079,308,576,444,310,-2.0,41.0,35.0,16.7236328125,-13.000487327575684,8.36181640625,-0.748046875,0.3330078125,0.0469970703125
1.079,309,601,469,309,-2.0,41.0,35.0,7.629394054412842,-14.953612327575684,3.723144292831421,-0.7359619140625,0.210205078125,0.0318603515625
1.083,310,636,495,310,-3.0,41.0,33.0,11.657713890075684,-15.563963890075684,3.295898199081421,-0.7581787109375,0.1832275390625,-0.0302734375
1.097,309,689,539,310,-3.0,41.0,33.0,17.08984375,-20.01953125,5.432128429412842,-0.7845458984375,0.181640625,-0.097412109375
1.107,308,750,562,310,-3.0,41.0,33.0,18.798828125,-26.245115280151367,8.30078125,-0.7586669921875,0.255126953125,-0.1346435546875
1.113,310,809,614,310,-3.0,41.0,33.0,12.023924827575684,-30.700681686401367,8.30078125,-0.6702880859375,0.392578125,-0.1588134765625
1.127,310,917,693,310,-3.0,41.0,33.0,-11.962889671325684,-33.87451171875,1.5869139432907104,-0.57763671875,0.4708251953125,-0.204345703125
1.135,310,982,756,310,-3.0,41.0,33.0,-54.809566497802734,-38.63525390625,-9.8876953125,-0.52197265625,0.4107666015625,-0.2403564453125
1.143,310,1064,848,310,-3.0,41.0,33.0,-104.61425018310547,-46.813961029052734,-18.1884765625,-0.51806640625,0.2454833984375,-0.21728515625
1.179,310,1196,1014,311,-3.0,41.0,33.0,-143.98193359375,-58.044429779052734,-16.78466796875,-0.5137939453125,-0.07080078125,-0.0308837890625
1.179,310,1255,1087,311,-3.0,41.0,33.0,-159.5458984375,-68.66455078125,-6.286620616912842,-0.5137939453125,-0.07080078125,-0.0308837890625
1.179,310,1326,1162,311,-3.0,41.0,33.0,-145.93505859375,-72.509765625,7.080077648162842,-0.49951171875,-0.0357666015625,0.0859375
1.187,310,1449,1310,311,0.0,38.0,44.0,-108.70360565185547,-68.115234375,16.54052734375,-0.8756103515625,0.509765625,0.2415771484375
1.195,310,1508,1395,312,0.0,38.0,44.0,-67.9931640625,-58.593746185302734,17.76123046875,-0.8756103515625,0.509765625,0.2415771484375
1.205,310,1547,1456,310,0.0,38.0,44.0,-42.602535247802734,-47.302242279052734,12.756346702575684,-1.3304443359375,0.7034912109375,0.1595458984375
1.217,310,1600,1533,310,0.0,38.0,44.0,-36.62109375,-37.53662109375,5.981444835662842,-1.9119873046875,0.0938720703125,-0.042236328125
1.225,309,1621,1568,312,0.0,38.0,44.0,-33.63037109375,-30.944822311401367,2.01416015625,-1.9119873046875,0.0938720703125,-0.042236328125
1.233,310,1635,1598,312,0.0,38.0,44.0,-13.366698265075684,-30.212400436401367,6.835937023162842,-1.9075927734375,-0.1317138671875,-0.1202392578125
1.247,310,1655,1634,310,0.0,38.0,44.0,21.118162155151367,-36.43798828125,20.263669967651367,-1.6068115234375,0.4239501953125,-0.1336669921875
1.268,310,1662,1642,310,0.0,38.0,44.0,45.898433685302734,-42.053218841552734,34.423828125,-1.6068115234375,0.4239501953125,-0.1336669921875
1.268,311,1666,1652,311,0.0,38.0,44.0,39.61181640625,-39.6728515625,38.9404296875,-1.2655029296875,0.631103515625,0.0205078125
1.282,310,1662,1653,310,0.0,38.0,44.0,13.916014671325684,-29.418943405151367,27.221677780151367,-0.8421630859375,0.5557861328125,0.2855224609375
1.285,310,1646,1646,311,-1.0,38.0,41.0,-0.6713866591453552,-14.343260765075684,4.08935546875,-0.8421630859375,0.5557861328125,0.2855224609375
1.296,309,1628,1632,310,-1.0,38.0,41.0,2.01416015625,1.4648436307907104,-19.4091796875,-0.8863525390625,0.51220703125,0.165771484375
1.308,309,1585,1588,311,-1.0,38.0,41.0,14.892577171325684,18.06640625,-45.104976654052734,-1.00146484375,0.335205078125,-0.05126953125
1.315,310,1553,1572,312,-1.0,38.0,41.0,14.892577171325684,18.06640625,-45.104976654052734,-1.0147705078125,0.25439453125,-0.0284423828125
1.342,310,1533,1561,311,-1.0,38.0,41.0,19.10400390625,18.1884765625,-48.461910247802734,-1.0147705078125,0.25439453125,-0.0284423828125
1.352,310,1540,1575,310,-1.0,38.0,41.0,17.822265625,14.831542015075684,-46.081539154052734,-1.0887451171875,0.263671875,0.0572509765625
1.355,310,1536,1577,311,-1.0,38.0,41.0,17.822265625,14.831542015075684,-46.081539154052734,-1.299072265625,0.4339599609375,0.0638427734375
1.361,310,1523,1572,311,-1.0,38.0,41.0,8.9111328125,14.099120140075684,-39.24560546875,-1.299072265625,0.4339599609375,0.0638427734375
1.374,312,1490,1545,311,-1.0,38.0,41.0,-36.43798828125,11.779784202575684,-22.949216842651367,-1.3299560546875,0.2421875,0.146240234375
1.377,310,1458,1523,308,-1.0,38.0,41.0,-36.43798828125,11.779784202575684,-22.949216842651367,-1.200927734375,0.1219482421875,0.09375
1.389,310,1417,1492,310,1.0,38.0,37.0,-39.85595703125,13.671874046325684,-16.9677734375,-1.200927734375,0.1219482421875,0.09375
1.397,310,1326,1431,311,1.0,38.0,37.0,-8.4228515625,15.624999046325684,-3.845214605331421,-1.25390625,0.355224609375,-0.053955078125
1.411,311,1254,1392,311,1.0,38.0,37.0,-8.4228515625,15.624999046325684,-3.845214605331421,-1.3489990234375,0.4781494140625,-0.062255859375
1.418,310,1175,1342,312,1.0,38.0,37.0,-2.197265625,15.136717796325684,-1.8920897245407104,-1.3489990234375,0.4781494140625,-0.062255859375
1.427,310,1021,1239,311,1.0,38.0,37.0,-9.09423828125,20.141599655151367,-10.742186546325684,-1.275390625,0.27490234375,-0.0430908203125
1.435,311,893,1140,311,1.0,38.0,37.0,-9.09423828125,20.141599655151367,-10.742186546325684,-1.1466064453125,0.09423828125,-0.0433349609375
1.450,310,794,1048,311,1.0,38.0,37.0,-1.4648436307907104,24.353025436401367,-15.136717796325684,-0.9718017578125,-0.1583251953125,0.030029296875
1.473,310,629,882,310,1.0,38.0,37.0,57.128902435302734,31.127927780151367,-21.301267623901367,-0.8177490234375,-0.4461669921875,0.1329345703125
1.473,310,543,792,310,1.0,38.0,37.0,98.69384002685547,41.503902435302734,-23.498533248901367,-0.726806640625,-0.5643310546875,0.1856689453125
1.474,310,519,732,310,1.0,38.0,37.0,98.69384002685547,41.503902435302734,-23.498533248901367,-0.6649169921875,-0.331787109375,0.115234375
1.487,309,447,636,310,-4.0,39.0,47.0,153.4423828125,74.27978515625,-7.934569835662842,-0.5972900390625,0.1427001953125,-0.041015625
1.495,309,431,547,310,-4.0,39.0,47.0,133.544921875,75.439453125,0.30517578125,-0.5220947265625,0.4935302734375,-0.171875
1.503,308,381,484,310,-4.0,39.0,47.0,133.544921875,75.439453125,0.30517578125,-0.516845703125,0.57958984375,-0.1968994140625
1.523,309,371,373,310,-4.0,39.0,47.0,43.823238372802734,43.029781341552734,8.6669921875,-0.59326171875,0.37158203125,-0.0970458984375
1.525,309,367,371,309,-4.0,39.0,47.0,31.982419967651367,25.146482467651367,3.356933355331421,-0.6180419921875,-0.14892578125,-0.0496826171875
1.533,310,365,374,310,-4.0,39.0,47.0,31.982419967651367,25.146482467651367,3.356933355331421,-0.5826416015625,-0.4925537109375,-0.1837158203125
1.553,309,369,382,310,-4.0,39.0,47.0,130.9814453125,35.09521484375,-29.357908248901367,-0.5634765625,-0.192138671875,-0.3084716796875
1.555,309,387,402,310,-4.0,39.0,47.0,173.21775817871094,35.09521484375,-17.27294921875,-0.6217041015625,0.403564453125,-0.29443359375
1.563,310,400,415,310,-4.0,39.0,47.0,173.21775817871094,35.09521484375,-17.27294921875,-0.743408203125,0.8212890625,-0.1815185546875
1.582,310,447,430,310,-3.0,41.0,43.0,115.90575408935547,3.540038824081421,18.06640625,-0.819580078125,0.93798828125,-0.0128173828125
1.585,310,464,441,311,-3.0,41.0,43.0,57.678218841552734,-7.385253429412842,20.263669967651367,-0.8177490234375,0.7733154296875,0.1090087890625
1.593,309,479,467,310,-3.0,41.0,43.0,13.916014671325684,-10.070799827575684,11.657713890075684,-0.7940673828125,0.4266357421875,0.1065673828125
1.607,310,497,490,309,-3.0,41.0,43.0,-1.7089842557907104,-8.30078125,1.8310545682907104,-0.829345703125,0.114990234375,0.023681640625
1.615,310,513,506,309,-3.0,41.0,43.0,9.09423828125,-8.056640625,0.30517578125,-0.89453125,0.00537109375,-0.0460205078125
1.623,310,529,513,310,-3.0,41.0,43.0,33.26416015625,-9.8876953125,6.347655773162842,-0.9298095703125,0.0953369140625,-0.0897216796875
1.638,310,553,527,310,-3.0,41.0,43.0,52.368160247802734,-10.742186546325684,12.268065452575684,-0.929931640625,0.27392578125,-0.1424560546875
1.645,310,579,543,310,-3.0,41.0,43.0,51.513668060302734,-9.46044921875,12.329100608825684,-0.90234375,0.4014892578125,-0.1925048828125
1.655,309,603,561,310,-3.0,41.0,43.0,30.517576217651367,-7.934569835662842,6.347655773162842,-0.850830078125,0.403076171875,-0.1959228515625
1.681,310,673,601,310,-3.0,41.0,43.0,5.737304210662842,-9.33837890625,-1.03759765625,-0.782470703125,0.3160400390625,-0.1502685546875
1.686,296,688,644,310,-5.0,41.0,39.0,-7.263183116912842,-14.587401390075684,-4.7607421875,-0.6966552734375,0.2227783203125,-0.1092529296875
1.686,310,754,697,311,-5.0,41.0,39.0,-11.352538108825684,-21.789548873901367,-4.08935546875,-0.577392578125,0.1640625,-0.122314453125
1.697,310,873,814,311,-5.0,41.0,39.0,-23.986814498901367,-29.663084030151367,-3.723144292831421,-0.4874267578125,0.142822265625,-0.150390625
1.715,310,944,939,311,-5.0,41.0,39.0,-61.157222747802734,-38.4521484375,-6.225585460662842,-0.5030517578125,0.1849365234375,-0.1397705078125
1.715,310,1017,1047,310,-5.0,41.0,39.0,-122.43651580810547,-46.386714935302734,-8.85009765625,-0.5452880859375,0.2413330078125,-0.11669921875
1.727,310,1176,1173,311,-5.0,41.0,39.0,-185.79100036621094,-49.804683685302734,-9.033203125,-0.5584716796875,0.1505126953125,-0.104248046875
1.735,311,1260,1253,310,-5.0,41.0,39.0,-215.94236755371094,-46.997066497802734,-4.8828125,-0.636962890625,-0.0274658203125,-0.0609130859375
1.747,311,1355,1338,310,-5.0,41.0,39.0,-189.88035583496094,-39.6728515625,5.737304210662842,-0.8345947265625,0.0079345703125,-0.02734375
1.757,310,1434,1431,312,-5.0,41.0,39.0,-130.37109375,-31.677244186401367,18.5546875,-1.11865234375,0.2296142578125,-0.0926513671875
1.765,312,1460,1484,311,-5.0,41.0,39.0,-82.82469940185547,-25.268552780151367,23.925779342651367,-1.4012451171875,0.2769775390625,-0.1329345703125
1.781,311,1492,1531,310,-5.0,41.0,39.0,-54.748531341552734,-19.47021484375,18.6767578125,-1.550048828125,0.1856689453125,-0.0145263671875
1.787,311,1538,1598,311,0.0,37.0,41.0,-29.846189498901367,-14.526366233825684,10.314940452575684,-1.5572509765625,0.22314453125,0.18212890625
1.795,310,1567,1632,310,0.0,37.0,41.0,-9.58251953125,-11.962889671325684,4.8828125,-1.5174560546875,0.304443359375,0.3170166015625
1.803,311,1579,1648,312,0.0,37.0,41.0,5.065917491912842,-7.507323741912842,1.220703125,-1.53271484375,0.396728515625,0.22900390625
1.818,310,1573,1627,312,0.0,37.0,41.0,14.587401390075684,1.8920897245407104,0.6103515625,-1.61376953125,0.4974365234375,-0.053955078125
1.825,310,1568,1621,311,0.0,37.0,41.0,11.962889671325684,10.070799827575684,3.662109136581421,-1.5537109375,0.348388671875,-0.281005859375
1.833,310,1562,1613,311,0.0,37.0,41.0,7.385253429412842,11.352538108825684,4.39453125,-1.27734375,0.0675048828125,-0.3358154296875
1.848,310,1533,1592,312,0.0,37.0,41.0,17.578125,6.408690929412842,0.4882812201976776,-1.052978515625,0.08203125,-0.2711181640625
1.881,310,1508,1573,310,0.0,37.0,41.0,29.663084030151367,0.4882812201976776,-5.737304210662842,-0.991943359375,0.298828125,-0.14599609375
1.886,310,1486,1555,312,0.0,37.0,41.0,26.672361373901367,1.0986328125,-15.014647483825684,-0.979736328125,0.40234375,-0.0096435546875
1.890,309,1477,1524,309,-2.0,40.0,41.0,16.357421875,9.70458984375,-26.855466842651367,-0.9791259765625,0.368408203125,0.081298828125
1.890,309,1471,1565,311,-2.0,40.0,41.0,12.084959983825684,20.385740280151367,-36.07177734375,-1.0799560546875,0.371337890625,0.0880126953125
1.893,310,1460,1557,312,-2.0,40.0,41.0,11.230467796325684,26.733396530151367,-37.9638671875,-1.3184814453125,0.476318359375,0.0125732421875
1.907,310,1422,1518,312,-2.0,40.0,41.0,-0.9155272841453552,26.550291061401367,-34.36279296875,-1.426025390625,0.1585693359375,-0.050537109375
1.922,310,1400,1483,312,-2.0,40.0,41.0,-21.850584030151367,22.521970748901367,-28.991697311401367,-1.426025390625,0.1585693359375,-0.050537109375
1.924,311,1371,1437,312,-2.0,40.0,41.0,-30.273435592651367,17.4560546875,-19.95849609375,-1.2884521484375,-0.045166015625,-0.0662841796875
1.937,310,1334,1340,312,-2.0,40.0,41.0,-22.399900436401367,12.207030296325684,-5.371093273162842,-1.1417236328125,0.0103759765625,-0.171875
1.945,310,1292,1275,311,-2.0,40.0,41.0,-13.671874046325684,7.080077648162842,11.108397483825684,-1.1417236328125,0.0103759765625,-0.171875
1.953,310,1255,1219,310,-2.0,40.0,41.0,-9.94873046875,3.051757574081421,23.864744186401367,-1.1021728515625,0.1116943359375,-0.129638671875
1.986,310,1178,1147,311,-2.0,40.0,41.0,-4.45556640625,2.197265625,29.113767623901367,-1.1021728515625,0.33056640625,0.0384521484375
1.987,310,1078,1081,310,-1.0,38.0,46.0,4.0283203125,5.493163585662842,25.756834030151367,-1.1021728515625,0.33056640625,0.0384521484375
1.987,310,1034,981,310,-1.0,38.0,46.0,13.793944358825684,12.451170921325684,16.845703125,-1.078369140625,0.3282470703125,0.0325927734375
1.997,308,893,840,310,-1.0,38.0,46.0,25.817869186401367,20.202634811401367,7.080077648162842,-0.884033203125,-0.1641845703125,0.046630859375
2.005,311,823,782,311,-1.0,38.0,46.0,46.752925872802734,26.123044967651367,-2.197265625,-0.884033203125,-0.1641845703125,0.046630859375
2.013,310,772,712,311,-1.0,38.0,46.0,83.86229705810547,33.02001953125,-9.1552734375,-0.7874755859375,-0.426025390625,0.0069580078125
2.031,310,700,662,310,-1.0,38.0,46.0,128.72314453125,43.579097747802734,-9.033203125,-0.6622314453125,0.0230712890625,-0.1787109375
2.035,310,662,608,310,-1.0,38.0,46.0,155.82275390625,51.818843841552734,-0.1220703050494194,-0.6622314453125,0.0230712890625,-0.1787109375
2.043,310,644,556,310,-1.0,38.0,46.0,145.3857421875,50.415035247802734,10.498045921325684,-0.59228515625,0.350830078125,-0.2154541015625
2.057,308,629,523,310,-1.0,38.0,46.0,57.678218841552734,31.860349655151367,16.17431640625,-0.5975341796875,0.4599609375,-0.2711181640625
2.065,310,620,523,310,-1.0,38.0,46.0,57.678218841552734,31.860349655151367,16.17431640625,-0.6158447265625,0.42431640625,-0.1904296875
2.087,310,622,519,310,-4.0,40.0,40.0,22.827146530151367,20.568845748901367,20.568845748901367,-0.6158447265625,0.42431640625,-0.1904296875
2.087,309,642,542,310,-4.0,40.0,40.0,-9.82666015625,-6.164550304412842,25.451658248901367,-0.634521484375,0.31640625,0.0103759765625
2.095,310,653,552,310,-4.0,40.0,40.0,-9.82666015625,-6.164550304412842,25.451658248901367,-0.709228515625,0.36572265625,0.0113525390625
2.103,310,660,563,310,-4.0,40.0,40.0,-9.8876953125,-11.901854515075684,19.4091796875,-0.709228515625,0.36572265625,0.0113525390625
2.117,310,694,593,310,-4.0,40.0,40.0,1.8920897245407104,-6.713866710662842,-2.50244140625,-0.78369140625,0.4188232421875,-0.0565185546875
2.137,310,713,617,310,-4.0,40.0,40.0,1.8920897245407104,-6.713866710662842,-2.50244140625,-0.7386474609375,0.352294921875,-0.088623046875
2.138,295,737,639,308,-4.0,40.0,40.0,8.30078125,-3.723144292831421,-12.634276390075684,-0.7386474609375,0.352294921875,-0.088623046875
2.147,308,766,661,310,-4.0,40.0,40.0,17.9443359375,-10.681151390075684,-23.193357467651367,-0.7501220703125,0.1856689453125,-0.084716796875
2.155,310,786,703,311,-4.0,40.0,40.0,17.9443359375,-10.681151390075684,-23.193357467651367,-0.7572021484375,0.148681640625,-0.10595703125
2.167,310,814,728,310,-4.0,40.0,40.0,20.935056686401367,-16.2353515625,-20.935056686401367,-0.7572021484375,0.148681640625,-0.10595703125
2.198,310,883,810,310,-3.0,41.0,39.0,3.540038824081421,-29.479978561401367,-7.019042491912842,-0.6744384765625,0.17431640625,-0.092529296875
2.199,309,943,878,310,-3.0,41.0,39.0,3.540038824081421,-29.479978561401367,-7.019042491912842,-0.643310546875,0.1927490234375,-0.0762939453125
2.199,310,1014,966,311,-3.0,41.0,39.0,-22.827146530151367,-38.0859375,-4.94384765625,-0.643310546875,0.1927490234375,-0.0762939453125
2.207,310,1151,1125,310,-3.0,41.0,39.0,-115.11229705810547,-45.471187591552734,-8.36181640625,-0.5885009765625,0.1256103515625,-0.0926513671875
2.215,310,1231,1191,312,-3.0,41.0,39.0,-151.3671875,-42.968746185302734,-4.2724609375,-0.5411376953125,-0.014892578125,-0.070068359375
2.223,310,1323,1273,311,-3.0,41.0,39.0,-151.3671875,-42.968746185302734,-4.2724609375,-0.564208984375,-0.067138671875,-0.0928955078125
2.243,310,1457,1434,311,-3.0,41.0,39.0,-109.19188690185547,-32.3486328125,14.099120140075684,-0.716064453125,0.1248779296875,-0.192138671875
2.245,310,1504,1513,310,-3.0,41.0,39.0,-76.35498046875,-31.005857467651367,18.49365234375,-0.9659423828125,0.326904296875,-0.2911376953125
2.253,310,1553,1569,311,-3.0,41.0,39.0,-76.35498046875,-31.005857467651367,18.49365234375,-1.2235107421875,0.2398681640625,-0.283935546875
2.271,310,1602,1682,310,-3.0,41.0,39.0,-63.903804779052734,-29.235837936401367,6.347655773162842,-1.40771484375,0.1322021484375,-0.136474609375
2.292,310,1623,1735,310,0.0,38.0,42.0,-53.710933685302734,-26.000974655151367,2.01416015625,-1.514404296875,0.2283935546875,0.1058349609375
2.293,310,1648,1781,312,0.0,38.0,42.0,-53.710933685302734,-26.000974655151367,2.01416015625,-1.535888671875,0.2667236328125,0.34033203125
2.298,311,1683,1811,311,0.0,38.0,42.0,-41.259761810302734,-24.414060592651367,2.868652105331421,-1.5191650390625,0.2535400390625,0.3836669921875
2.310,310,1689,1816,310,0.0,38.0,42.0,-23.620603561401367,-14.282225608825684,3.784179449081421,-1.563720703125,0.32177734375,0.1907958984375
2.313,310,1691,1796,311,0.0,38.0,42.0,-23.620603561401367,-14.282225608825684,3.784179449081421,-1.64208984375,0.34814453125,-0.0770263671875
2.327,310,1678,1734,310,0.0,38.0,42.0,5.371093273162842,4.33349609375,10.559081077575684,-1.498046875,0.217529296875,-0.240234375
2.335,310,1652,1691,312,0.0,38.0,42.0,18.37158203125,4.150390625,8.48388671875,-1.1826171875,0.138671875,-0.239990234375
2.348,311,1622,1652,311,0.0,38.0,42.0,18.37158203125,4.150390625,8.48388671875,-1.0186767578125,0.303955078125,-0.1392822265625
2.357,310,1607,1677,311,0.0,38.0,42.0,49.499507904052734,0.30517578125,-12.756346702575684,-1.0245361328125,0.50634765625,-0.0086669921875
2.374,310,1591,1682,311,0.0,38.0,42.0,44.006343841552734,7.812499523162842,-27.709959030151367,-1.255859375,0.693359375,0.0489501953125
2.374,311,1565,1674,311,1.0,39.0,48.0,22.033689498901367,18.61572265625,-38.0859375,-1.59912109375,0.765869140625,0.0234375
2.397,310,1511,1636,310,1.0,39.0,48.0,-13.000487327575684,24.902341842651367,-41.564937591552734,-1.697265625,0.491943359375,0.0074462890625
2.397,310,1437,1602,310,1.0,39.0,48.0,-37.9638671875,25.268552780151367,-38.2080078125,-1.539306640625,0.0989990234375,0.0020751953125
2.404,310,1422,1543,311,1.0,39.0,48.0,-34.423828125,22.338865280151367,-27.954099655151367,-1.3509521484375,-0.0469970703125,-0.0504150390625
2.423,310,1336,1432,310,1.0,39.0,48.0,-15.930174827575684,18.5546875,-13.549803733825684,-1.23974609375,0.038330078125,-0.134521484375
2.425,310,1258,1355,310,1.0,39.0,48.0,-5.126952648162842,15.319823265075684,0.6713866591453552,-1.1617431640625,0.12109375,-0.1600341796875
2.436,310,1191,1284,310,1.0,39.0,48.0,-3.906249761581421,13.610838890075684,10.559081077575684,-1.0478515625,0.0648193359375,-0.08251953125
2.454,310,1038,1184,310,1.0,39.0,48.0,2.624511480331421,13.916014671325684,14.770506858825684,-0.916015625,-0.0552978515625,0.034423828125
2.456,310,947,1105,312,1.0,39.0,48.0,23.132322311401367,15.808104515075684,14.953612327575684,-0.8037109375,-0.150146484375,0.1248779296875
2.463,310,869,1035,310,1.0,39.0,48.0,53.955074310302734,19.8974609375,11.474608421325684,-0.7139892578125,-0.271484375,0.1873779296875
2.477,310,765,882,310,0.0,39.0,41.0,89.59960174560547,28.137205123901367,4.57763671875,-0.636474609375,-0.3515625,0.185791015625
2.485,310,726,823,310,0.0,39.0,41.0,122.74169158935547,40.588375091552734,-1.5258787870407104,-0.5909423828125,-0.2213134765625,0.053466796875
2.493,310,697,767,312,0.0,39.0,41.0,140.56396484375,52.612300872802734,-2.25830078125,-0.56201171875,0.072998046875,-0.1304931640625
2.507,311,683,683,310,0.0,39.0,41.0,134.033203125,57.617183685302734,3.051757574081421,-0.537841796875,0.3753662109375,-0.2928466796875
2.515,309,663,661,310,0.0,39.0,41.0,106.56737518310547,54.138179779052734,12.512206077575684,-0.5643310546875,0.612060546875,-0.40283203125
2.540,310,664,653,310,0.0,39.0,41.0,66.83349609375,41.992183685302734,21.545408248901367,-0.605712890625,0.6553955078125,-0.3603515625
2.542,310,671,650,294,0.0,39.0,41.0,25.268552780151367,23.742673873901367,24.719236373901367,-0.6146240234375,0.4805908203125,-0.201171875
2.545,310,678,658,310,0.0,39.0,41.0,-4.7607421875,7.873534679412842,22.460935592651367,-0.619384765625,0.281005859375,-0.0543212890625
2.553,310,694,662,310,0.0,39.0,41.0,-15.808104515075684,-1.03759765625,18.4326171875,-0.6859130859375,0.2181396484375,0.00732421875
2.567,310,710,675,310,0.0,39.0,41.0,-12.390135765075684,-4.638671875,13.793944358825684,-0.7879638671875,0.2633056640625,0.0018310546875
2.577,310,716,683,310,-4.0,41.0,43.0,-2.38037109375,-5.065917491912842,8.36181640625,-0.839599609375,0.3162841796875,-0.02880859375
2.599,310,737,689,310,-4.0,41.0,43.0,8.30078125,-3.845214605331421,2.38037109375,-0.8411865234375,0.3433837890625,-0.061279296875
2.600,310,750,711,311,-4.0,41.0,43.0,14.404295921325684,-3.112792730331421,-3.784179449081421,-0.841796875,0.334228515625,-0.068603515625
2.606,310,782,732,310,-4.0,41.0,43.0,15.014647483825684,-3.784179449081421,-9.58251953125,-0.8519287109375,0.2808837890625,-0.0604248046875
2.613,310,805,742,310,-4.0,41.0,43.0,14.892577171325684,-5.187987804412842,-13.671874046325684,-0.868408203125,0.2032470703125,-0.0740966796875
2.627,310,838,767,310,-4.0,41.0,43.0,14.770506858825684,-7.690429210662842,-14.221190452575684,-0.8839111328125,0.1314697265625,-0.1109619140625
2.635,310,858,784,310,-4.0,41.0,43.0,10.681151390075684,-12.023924827575684,-10.437010765075684,-0.880126953125,0.084228515625,-0.1373291015625
2.649,310,873,814,310,-4.0,41.0,43.0,1.0986328125,-18.1884765625,-3.845214605331421,-0.871337890625,0.074462890625,-0.13623046875
2.657,308,935,861,310,-4.0,41.0,43.0,-10.559081077575684,-24.658201217651367,2.685546636581421,-0.8701171875,0.1051025390625,-0.1334228515625
2.667,310,975,916,310,-4.0,41.0,43.0,-22.338865280151367,-29.052732467651367,6.164550304412842,-0.855224609375,0.1551513671875,-0.1513671875
2.679,310,1027,972,310,-1.0,41.0,44.0,-36.68212890625,-30.212400436401367,6.164550304412842,-0.824951171875,0.197265625,-0.166748046875
2.701,310,1131,1094,310,-1.0,41.0,44.0,-55.847164154052734,-29.846189498901367,4.39453125,-0.717041015625,0.1982421875,-0.1080322265625
2.702,310,1198,1153,310,-1.0,41.0,44.0,-74.8291015625,-30.090330123901367,2.868652105331421,-0.717041015625,0.1982421875,-0.1080322265625
2.703,296,1253,1226,310,-1.0,41.0,44.0,-84.89989471435547,-31.188962936401367,2.929687261581421,-0.64306640625,0.1405029296875,-0.0921630859375
2.718,310,1374,1352,311,-1.0,41.0,44.0,-83.86229705810547,-32.2265625,5.615233898162842,-0.534912109375,0.0970458984375,-0.1138916015625
2.726,311,1437,1422,310,-1.0,41.0,44.0,-75.5615234375,-32.65380859375,10.375975608825684,-0.534912109375,0.0970458984375,-0.1138916015625
2.734,310,1499,1484,311,-1.0,41.0,44.0,-66.10107421875,-32.470703125,15.563963890075684,-0.5662841796875,0.21923828125,-0.1236572265625
2.748,309,1591,1621,311,-1.0,41.0,44.0,-66.46728515625,-31.555173873901367,19.6533203125,-0.8848876953125,0.48291015625,-0.074951171875
2.760,310,1625,1709,311,-1.0,41.0,44.0,-66.46728515625,-31.555173873901367,19.6533203125,-1.2265625,0.4630126953125,-0.0399169921875
2.764,310,1655,1772,312,-1.0,41.0,44.0,-69.9462890625,-32.8369140625,16.7236328125,-1.2265625,0.4630126953125,-0.0399169921875
2.781,310,1687,1823,312,-2.0,38.0,46.0,-66.34521484375,-39.24560546875,5.737304210662842,-1.6962890625,-0.0858154296875,0.08203125
2.805,310,1704,1844,312,-2.0,38.0,46.0,-66.34521484375,-39.24560546875,5.737304210662842,-1.5828857421875,-0.1539306640625,0.175537109375
2.806,310,1721,1860,311,-2.0,38.0,46.0,-44.738765716552734,-39.85595703125,6.286620616912842,-1.5828857421875,-0.1539306640625,0.175537109375
2.810,307,1735,1870,311,-2.0,38.0,46.0,14.526366233825684,-25.756834030151367,19.775390625,-1.4161376953125,0.503662109375,0.20556640625
2.819,310,1745,1860,311,-2.0,38.0,46.0,14.526366233825684,-25.756834030151367,19.775390625,-1.385009765625,0.6085205078125,0.1302490234375
2.824,310,1739,1840,311,-2.0,38.0,46.0,14.770506858825684,-8.7890625,18.73779296875,-1.385009765625,0.6085205078125,0.1302490234375
2.839,311,1721,1800,310,-2.0,38.0,46.0,0.6103515625,18.98193359375,-1.9531248807907104,-1.039306640625,0.2735595703125,-0.130126953125
2.846,310,1701,1761,311,-2.0,38.0,46.0,0.6103515625,18.98193359375,-1.9531248807907104,-0.996826171875,0.3089599609375,-0.197265625
2.854,310,1694,1762,312,-2.0,38.0,46.0,13.000487327575684,18.00537109375,-10.559081077575684,-0.996826171875,0.3089599609375,-0.197265625
2.887,310,1682,1782,311,0.0,38.0,41.0,26.245115280151367,8.23974609375,-24.169919967651367,-1.1556396484375,0.416015625,-0.0582275390625
2.887,311,1669,1778,311,0.0,38.0,41.0,26.245115280151367,8.23974609375,-24.169919967651367,-1.4014892578125,0.4947509765625,-0.0018310546875
2.888,310,1652,1757,311,0.0,38.0,41.0,16.357421875,8.85009765625,-26.855466842651367,-1.533447265625,0.4273681640625,0.03515625
2.913,310,1610,1721,311,0.0,38.0,41.0,-28.259275436401367,10.742186546325684,-18.37158203125,-1.4835205078125,0.240478515625,0.0458984375
2.914,310,1572,1695,310,0.0,38.0,41.0,-36.7431640625,10.375975608825684,-9.58251953125,-1.3721923828125,0.1322021484375,0.0106201171875
2.914,311,1531,1655,312,0.0,38.0,41.0,-36.7431640625,10.375975608825684,-9.58251953125,-1.2957763671875,0.1683349609375,-0.0523681640625
2.928,311,1431,1569,310,0.0,38.0,41.0,-28.564451217651367,7.934569835662842,9.033203125,-1.263427734375,0.255859375,-0.0859375
2.936,310,1361,1512,310,0.0,38.0,41.0,-23.620603561401367,9.6435546875,12.695311546325684,-1.23828125,0.315185546875,-0.0655517578125
2.946,310,1281,1434,310,0.0,38.0,41.0,-23.620603561401367,9.6435546875,12.695311546325684,-1.173828125,0.2908935546875,-0.0037841796875
2.958,310,1081,1282,310,0.0,38.0,41.0,-0.9765624403953552,21.179197311401367,2.44140625,-1.06201171875,0.163330078125,0.068603515625
2.966,310,951,1204,311,-1.0,37.0,43.0,21.545408248901367,26.977537155151367,-5.920409679412842,-0.9354248046875,-0.049072265625,0.1177978515625
2.975,310,846,1143,312,-1.0,37.0,43.0,21.545408248901367,26.977537155151367,-5.920409679412842,-0.8349609375,-0.277099609375,0.1656494140625
3.009,310,712,967,311,-1.0,37.0,43.0,90.08788299560547,38.57421875,-19.95849609375,-0.7470703125,-0.369873046875,0.185546875
3.009,310,621,848,310,-1.0,37.0,43.0,120.42235565185547,44.860836029052734,-20.385740280151367,-0.6641845703125,-0.2542724609375,0.0850830078125
3.009,310,594,790,310,-1.0,37.0,43.0,120.42235565185547,44.860836029052734,-20.385740280151367,-0.5694580078125,-0.0367431640625,-0.091064453125
3.018,308,554,666,310,-1.0,37.0,43.0,131.8359375,57.312007904052734,-0.54931640625,-0.469970703125,0.2235107421875,-0.2666015625
3.026,309,538,622,310,-1.0,37.0,43.0,113.09813690185547,57.373043060302734,15.869139671325684,-0.4444580078125,0.5205078125,-0.370361328125
3.034,309,529,596,310,-1.0,37.0,43.0,113.09813690185547,57.373043060302734,15.869139671325684,-0.48291015625,0.65673828125,-0.2960205078125
3.050,310,531,579,310,-1.0,37.0,43.0,35.33935546875,24.291990280151367,32.470703125,-0.5164794921875,0.526611328125,-0.131103515625
3.056,310,542,589,310,-1.0,37.0,43.0,-0.54931640625,7.751464366912842,26.550291061401367,-0.54296875,0.3275146484375,-0.0245361328125
3.065,309,558,599,310,-1.0,37.0,43.0,-17.333984375,2.746581792831421,20.446775436401367,-0.6175537109375,0.2559814453125,0.0167236328125
3.078,310,593,588,310,-5.0,41.0,42.0,-16.05224609375,2.990722417831421,15.502928733825684,-0.7117919921875,0.2835693359375,0.04541015625
3.112,310,618,601,311,-5.0,41.0,42.0,-2.50244140625,1.7700194120407104,9.27734375,-0.7431640625,0.314208984375,0.0625
3.112,310,647,594,308,-5.0,41.0,42.0,15.014647483825684,-0.8544921278953552,2.3193359375,-0.7379150390625,0.3458251953125,0.0443115234375
3.113,310,676,601,310,-5.0,41.0,42.0,26.367185592651367,-2.746581792831421,-4.0283203125,-0.752197265625,0.3778076171875,0.0164794921875
3.119,310,726,606,310,-5.0,41.0,42.0,28.564451217651367,-2.25830078125,-9.521484375,-0.7830810546875,0.36767578125,0.0015869140625
3.124,310,751,622,309,-5.0,41.0,42.0,26.733396530151367,0.1831054538488388,-13.427733421325684,-0.8245849609375,0.3084716796875,-0.0347900390625
3.138,309,797,684,310,-5.0,41.0,42.0,23.803709030151367,1.7089842557907104,-13.916014671325684,-0.8668212890625,0.228515625,-0.10546875
3.146,310,826,728,311,-5.0,41.0,42.0,19.04296875,-1.03759765625,-10.864256858825684,-0.883544921875,0.149169921875,-0.1468505859375
3.154,308,854,771,310,-5.0,41.0,42.0,12.512206077575684,-9.46044921875,-5.432128429412842,-0.8656005859375,0.1097412109375,-0.138427734375
3.168,310,929,886,310,-4.0,40.0,44.0,1.8920897245407104,-20.874021530151367,0.7934569716453552,-0.808349609375,0.114501953125,-0.1304931640625
3.176,310,982,948,310,-4.0,40.0,44.0,-18.310546875,-30.456541061401367,3.967284917831421,-0.749755859375,0.1209716796875,-0.1611328125
3.191,310,1039,1026,311,-4.0,40.0,44.0,-50.903316497802734,-33.935546875,2.990722417831421,-0.7493896484375,0.109375,-0.2166748046875
3.214,310,1163,1129,310,-4.0,40.0,44.0,-88.62303924560547,-31.311033248901367,2.685546636581421,-0.7841796875,0.0947265625,-0.2171630859375
3.215,310,1243,1198,311,-4.0,40.0,44.0,-110.53466033935547,-26.611326217651367,6.652831554412842,-0.8013916015625,0.1163330078125,-0.137939453125
3.216,310,1309,1245,311,-4.0,40.0,44.0,-103.14940643310547,-23.071287155151367,12.023924827575684,-0.8125,0.194580078125,-0.0828857421875
3.228,310,1413,1348,310,-4.0,40.0,44.0,-78.369140625,-21.179197311401367,14.648436546325684,-0.8389892578125,0.3387451171875,-0.11474609375
3.236,311,1472,1424,310,-4.0,40.0,44.0,-56.884761810302734,-21.179197311401367,14.587401390075684,-0.855712890625,0.5108642578125,-0.1771240234375
3.244,311,1516,1509,312,-4.0,40.0,44.0,-48.522945404052734,-23.376462936401367,12.939452171325684,-0.8792724609375,0.5941162109375,-0.20654296875
3.258,310,1569,1641,311,-4.0,40.0,44.0,-52.978511810302734,-26.611326217651367,8.97216796875,-0.9544677734375,0.457275390625,-0.16845703125
3.266,310,1602,1704,312,1.0,38.0,38.0,-62.194820404052734,-27.832029342651367,0.9155272841453552,-1.0748291015625,0.1475830078125,-0.078369140625
3.278,310,1627,1759,311,1.0,38.0,38.0,-66.162109375,-25.817869186401367,-7.812499523162842,-1.2265625,-0.0858154296875,0.0343017578125
3.296,310,1665,1819,310,1.0,38.0,38.0,-59.936519622802734,-24.353025436401367,-9.765625,-1.373291015625,-0.1224365234375,0.129150390625
3.324,310,1646,1831,312,1.0,38.0,38.0,-43.640132904052734,-23.925779342651367,-4.2724609375,-1.462890625,0.0079345703125,0.13525390625
3.333,310,1693,1837,310,1.0,38.0,38.0,-23.376462936401367,-20.385740280151367,2.990722417831421,-1.488037109375,0.2047119140625,0.0693359375
3.345,294,1703,1834,312,1.0,38.0,38.0,-8.48388671875,-12.939452171325684,7.019042491912842,-1.49755859375,0.390869140625,-0.0115966796875
3.361,310,1702,1828,310,1.0,38.0,38.0,-3.723144292831421,-4.638671875,7.080077648162842,-1.4732666015625,0.507080078125,-0.0501708984375
3.364,297,1689,1852,311,1.0,38.0,38.0,-4.2724609375,1.6479490995407104,3.234863042831421,-1.2705078125,0.4429931640625,0.0091552734375
3.366,311,1653,1790,311,1.0,38.0,38.0,4.45556640625,7.263183116912842,-6.713866710662842,-1.0084228515625,0.39892578125,0.0931396484375
3.367,309,1624,1775,310,1.0,38.0,38.0,22.033689498901367,14.221190452575684,-22.644041061401367,-0.8994140625,0.505615234375,0.104736328125
3.367,309,1600,1761,299,1.0,39.0,45.0,31.860349655151367,23.071287155151367,-41.259761810302734,-0.902099609375,0.4951171875,0.0531005859375
3.375,311,1580,1759,311,1.0,39.0,45.0,32.2265625,31.982419967651367,-56.274410247802734,-1.013427734375,0.3494873046875,-0.025634765625
3.383,310,1568,1742,311,1.0,39.0,45.0,31.127927780151367,35.64453125,-59.753414154052734,-1.2633056640625,0.28857421875,-0.1026611328125
3.397,310,1528,1695,311,1.0,39.0,45.0,24.291990280151367,31.188962936401367,-51.330562591552734,-1.49462890625,0.2662353515625,-0.13623046875
3.437,314,1492,1662,312,1.0,39.0,45.0,7.141112804412842,23.254392623901367,-36.7431640625,-1.540283203125,0.1434326171875,-0.124755859375
3.437,296,1470,1627,311,1.0,39.0,45.0,-11.413573265075684,17.63916015625,-18.9208984375,-1.4405517578125,-0.0107421875,-0.1246337890625
3.438,310,1413,1573,310,1.0,39.0,45.0,-23.193357467651367,14.038084983825684,2.3193359375,-1.218994140625,-0.0615234375,-0.18359375
3.438,310,1377,1531,312,1.0,39.0,45.0,-28.381345748901367,9.58251953125,25.085447311401367,-1.218994140625,-0.0615234375,-0.18359375
3.443,310,1336,1486,312,1.0,39.0,45.0,-27.954099655151367,4.39453125,42.724605560302734,-1.1685791015625,0.0765380859375,-0.14697265625
3.460,310,1219,1390,310,1.0,39.0,45.0,-18.5546875,2.685546636581421,47.546382904052734,-1.014404296875,0.4136962890625,0.0047607421875
3.465,310,1125,1297,312,0.0,41.0,42.0,-1.03759765625,7.934569835662842,38.0859375,-1.014404296875,0.4136962890625,0.0047607421875
3.473,310,1021,1209,310,0.0,41.0,42.0,16.845703125,17.51708984375,20.568845748901367,-0.92138671875,0.373046875,0.0458984375
3.487,310,867,1089,310,0.0,41.0,42.0,34.85107421875,27.282712936401367,2.25830078125,-0.782958984375,-0.2325439453125,0.132568359375
3.498,310,806,1008,310,0.0,41.0,42.0,62.561031341552734,35.888671875,-11.169432640075684,-0.782958984375,-0.2325439453125,0.132568359375
3.503,310,764,935,312,0.0,41.0,42.0,101.13524627685547,41.931148529052734,-15.197752952575684,-0.7337646484375,-0.2738037109375,0.123779296875
3.524,310,718,835,308,0.0,41.0,42.0,134.70458984375,43.945308685302734,-9.70458984375,-0.6905517578125,0.18994140625,-0.16748046875
3.528,309,688,794,310,0.0,41.0,42.0,145.69091796875,43.029781341552734,0.1831054538488388,-0.6905517578125,0.18994140625,-0.16748046875
3.533,310,667,745,310,0.0,41.0,42.0,128.84521484375,40.893550872802734,9.521484375,-0.6541748046875,0.35498046875,-0.258056640625
3.547,310,632,695,310,0.0,41.0,42.0,91.97997283935547,37.7197265625,15.869139671325684,-0.59716796875,0.4014892578125,-0.240234375
3.555,310,620,675,308,0.0,41.0,42.0,50.415035247802734,31.372068405151367,17.88330078125,-0.59716796875,0.4014892578125,-0.240234375
3.564,310,620,662,310,-3.0,40.0,42.0,17.4560546875,20.385740280151367,17.2119140625,-0.642822265625,0.35595703125,-0.1715087890625
3.577,311,629,644,310,-3.0,40.0,42.0,-9.1552734375,-4.33349609375,14.648436546325684,-0.743408203125,0.3258056640625,-0.07958984375
3.585,309,639,644,310,-3.0,40.0,42.0,-9.1552734375,-4.33349609375,14.648436546325684,-0.7877197265625,0.365234375,-0.0760498046875
3.593,310,646,646,310,-3.0,40.0,42.0,-6.774901866912842,-10.070799827575684,10.437010765075684,-0.7877197265625,0.365234375,-0.0760498046875
3.645,308,668,642,310,-3.0,40.0,42.0,9.94873046875,-8.85009765625,-4.33349609375,-0.827880859375,0.3712158203125,-0.0489501953125
3.645,310,688,644,310,-3.0,40.0,42.0,9.94873046875,-8.85009765625,-4.33349609375,-0.8040771484375,0.29541015625,-0.035400390625
3.645,310,708,644,310,-3.0,40.0,42.0,18.24951171875,-5.981444835662842,-11.291502952575684,-0.8040771484375,0.29541015625,-0.035400390625
3.646,296,749,650,298,-3.0,40.0,42.0,22.644041061401367,-1.5258787870407104,-15.624999046325684,-0.779296875,0.15771484375,-0.0797119140625
3.647,309,771,646,310,-3.0,40.0,42.0,18.310546875,-2.44140625,-12.573241233825684,-0.8428955078125,0.1116943359375,-0.1275634765625
3.662,310,803,688,310,-3.0,40.0,42.0,18.310546875,-2.44140625,-12.573241233825684,-0.9112548828125,0.0714111328125,-0.1748046875
3.670,310,830,711,310,-2.0,39.0,41.0,12.268065452575684,-5.859374523162842,-5.859374523162842,-0.9112548828125,0.0714111328125,-0.1748046875
3.677,310,891,799,311,-2.0,39.0,41.0,3.295898199081421,-18.73779296875,15.808104515075684,-0.8609619140625,0.0634765625,-0.1171875
3.686,310,933,853,310,-2.0,39.0,41.0,3.295898199081421,-18.73779296875,15.808104515075684,-0.77587890625,0.13232421875,-0.0770263671875
3.695,310,978,912,311,-2.0,39.0,41.0,1.0986328125,-27.282712936401367,24.536130905151367,-0.77587890625,0.13232421875,-0.0770263671875
3.740,310,1074,1026,310,-2.0,39.0,41.0,-15.686034202575684,-38.39111328125,21.240232467651367,-0.5919189453125,0.37646484375,-0.1527099609375
3.740,310,1143,1101,310,-2.0,39.0,41.0,-15.686034202575684,-38.39111328125,21.240232467651367,-0.5147705078125,0.3902587890625,-0.21435546875
3.740,310,1219,1170,310,-2.0,39.0,41.0,-41.381832122802734,-38.818359375,8.7890625,-0.4849853515625,0.2637939453125,-0.2430419921875
3.741,310,1353,1282,311,-2.0,39.0,41.0,-108.58153533935547,-31.738279342651367,-5.859374523162842,-0.5081787109375,0.1578369140625,-0.2442626953125
3.746,310,1422,1362,310,-2.0,39.0,41.0,-120.05614471435547,-28.076169967651367,0.54931640625,-0.54833984375,0.216552734375,-0.208251953125
3.753,310,1499,1471,309,-2.0,39.0,41.0,-120.05614471435547,-28.076169967651367,0.54931640625,-0.6348876953125,0.42236328125,-0.152587890625
3.776,311,1580,1695,311,-1.0,39.0,43.0,-119.20165252685547,-30.212400436401367,10.009765625,-0.890625,0.640625,-0.093017578125
3.777,310,1610,1798,311,-1.0,39.0,43.0,-129.69970703125,-34.423828125,5.371093273162842,-1.321044921875,0.5810546875,0.0245361328125
3.783,310,1637,1868,312,-1.0,39.0,43.0,-129.69970703125,-34.423828125,5.371093273162842,-1.6168212890625,0.142822265625,0.21435546875
3.797,310,1669,1951,312,-1.0,39.0,43.0,-145.32470703125,-32.1044921875,-16.357421875,-1.593017578125,-0.2574462890625,0.341552734375
3.805,310,1681,1982,311,-1.0,39.0,43.0,-97.47313690185547,-17.4560546875,-21.057126998901367,-1.47802734375,-0.2149658203125,0.27685546875
3.827,310,1689,2001,310,-1.0,39.0,43.0,-97.47313690185547,-17.4560546875,-21.057126998901367,-1.4805908203125,0.1536865234375,0.0848388671875
3.827,310,1683,2005,312,-1.0,39.0,43.0,7.202147960662842,2.929687261581421,-5.737304210662842,-1.5770263671875,0.482666015625,-0.087158203125
3.839,310,1681,2001,312,-1.0,39.0,43.0,9.6435546875,4.21142578125,3.479003667831421,-1.578857421875,0.4735107421875,-0.1650390625
3.843,312,1640,1991,311,-1.0,39.0,43.0,9.6435546875,4.21142578125,3.479003667831421,-1.3382568359375,0.1558837890625,-0.1390380859375
3.857,310,1642,1953,311,-1.0,39.0,43.0,5.0048828125,8.056640625,1.7089842557907104,-1.0853271484375,0.0390625,-0.0672607421875
3.869,311,1608,1922,311,0.0,39.0,39.0,26.245115280151367,8.60595703125,-6.958007335662842,-1.0030517578125,0.260009765625,0.0003662109375
3.874,310,1592,1914,312,0.0,39.0,39.0,43.090816497802734,11.840819358825684,-20.568845748901367,-0.9947509765625,0.473388671875,0.048095703125
3.887,310,1577,1920,312,0.0,39.0,39.0,45.410152435302734,20.385740280151367,-38.6962890625,-1.0928955078125,0.61572265625,0.0455322265625
3.895,310,1555,1908,311,0.0,39.0,39.0,33.02001953125,28.381345748901367,-52.795406341552734,-1.3348388671875,0.70361328125,-0.009033203125
3.908,310,1524,1884,312,0.0,39.0,39.0,7.934569835662842,30.517576217651367,-57.006832122802734,-1.4862060546875,0.5272216796875,-0.0546875
3.929,310,1474,1828,312,0.0,39.0,39.0,-17.08984375,28.747556686401367,-52.062984466552734,-1.4119873046875,0.12548828125,-0.0684814453125
3.930,309,1430,1789,312,0.0,39.0,39.0,-22.583005905151367,26.611326217651367,-37.59765625,-1.280517578125,-0.1373291015625,-0.1065673828125
3.933,310,1399,1742,312,0.0,39.0,39.0,-11.718749046325684,23.254392623901367,-14.709471702575684,-1.2010498046875,-0.1776123046875,-0.16650390625
3.947,310,1344,1662,310,0.0,39.0,39.0,-3.540038824081421,17.88330078125,10.314940452575684,-1.1695556640625,-0.1484375,-0.1993408203125
3.955,312,1294,1611,311,0.0,39.0,39.0,-4.5166015625,11.840819358825684,31.860349655151367,-1.16650390625,-0.085693359375,-0.1591796875
3.963,311,1243,1547,311,0.0,41.0,41.0,-3.906249761581421,6.408690929412842,45.227046966552734,-1.1639404296875,0.0545654296875,-0.0467529296875
3.977,310,1120,1422,311,0.0,41.0,41.0,8.30078125,5.126952648162842,47.363277435302734,-1.133056640625,0.24365234375,0.045166015625
3.985,310,1025,1323,311,0.0,41.0,41.0,29.479978561401367,10.681151390075684,38.818359375,-1.061767578125,0.3170166015625,0.0797119140625
4.000,310,939,1231,311,0.0,41.0,41.0,51.696773529052734,21.362302780151367,22.888181686401367,-0.96875,0.13916015625,0.0986328125
4.010,311,790,1065,310,0.0,41.0,41.0,75.25634765625,33.3251953125,5.187987804412842,-0.8646240234375,-0.1370849609375,0.1171875
4.032,311,749,973,310,0.0,41.0,41.0,103.39354705810547,42.358394622802734,-7.141112804412842,-0.7408447265625,-0.231201171875,0.0758056640625
4.032,309,721,893,311,0.0,41.0,41.0,130.7373046875,46.569820404052734,-8.85009765625,-0.626708984375,-0.08837890625,-0.0440673828125
4.039,310,673,784,310,0.0,41.0,41.0,144.10400390625,46.081539154052734,-0.1831054538488388,-0.5594482421875,0.1566162109375,-0.1722412109375
4.052,310,656,738,310,0.0,41.0,41.0,134.21630859375,41.992183685302734,13.732909202575684,-0.5240478515625,0.3681640625,-0.274169921875
4.053,310,632,688,310,0.0,41.0,41.0,103.82079315185547,36.19384765625,27.832029342651367,-0.485595703125,0.4814453125,-0.3282470703125
4.067,310,629,660,310,-2.0,43.0,42.0,63.049312591552734,28.259275436401367,37.59765625,-0.47412109375,0.504150390625,-0.2872314453125
4.076,310,631,647,310,-2.0,43.0,42.0,23.864744186401367,16.357421875,39.73388671875,-0.532470703125,0.4754638671875,-0.1612548828125
4.083,310,639,658,310,-2.0,43.0,42.0,-2.50244140625,3.173827886581421,34.0576171875,-0.62109375,0.41796875,-0.0452880859375
4.097,310,668,673,312,-2.0,43.0,42.0,-10.742186546325684,-5.187987804412842,22.705076217651367,-0.7030029296875,0.3724365234375,-0.01806640625
4.105,310,676,678,310,-2.0,43.0,42.0,-6.713866710662842,-6.652831554412842,9.46044921875,-0.7733154296875,0.3660888671875,-0.047607421875
4.119,309,693,694,310,-2.0,43.0,42.0,-0.1831054538488388,-3.845214605331421,-1.7700194120407104,-0.8162841796875,0.3597412109375,-0.0634765625
4.139,309,714,714,308,-2.0,43.0,42.0,7.019042491912842,-0.6713866591453552,-8.7890625,-0.835693359375,0.3406982421875,-0.0712890625
4.143,310,738,737,310,-2.0,43.0,42.0,14.892577171325684,-0.54931640625,-12.329100608825684,-0.850341796875,0.3134765625,-0.08203125
4.144,310,749,730,310,-2.0,43.0,42.0,21.362302780151367,-4.150390625,-14.282225608825684,-0.861083984375,0.256591796875,-0.08642578125
4.158,309,792,794,310,-2.0,43.0,42.0,25.451658248901367,-9.033203125,-15.014647483825684,-0.855224609375,0.1807861328125,-0.103759765625
4.166,310,814,833,309,-5.0,42.0,39.0,25.634763717651367,-13.000487327575684,-13.854979515075684,-0.826171875,0.1231689453125,-0.135498046875
4.178,310,846,868,310,-5.0,42.0,39.0,17.4560546875,-15.747069358825684,-10.986327171325684,-0.791748046875,0.1124267578125,-0.1673583984375
4.187,308,901,936,310,-5.0,42.0,39.0,-1.7089842557907104,-18.12744140625,-7.812499523162842,-0.788818359375,0.2078857421875,-0.197265625
4.195,310,943,996,311,-5.0,42.0,39.0,-26.367185592651367,-20.935056686401367,-5.249022960662842,-0.788818359375,0.2078857421875,-0.197265625
4.203,309,996,1074,311,-5.0,42.0,39.0,-47.973628997802734,-23.803709030151367,-3.723144292831421,-0.809814453125,0.21826171875,-0.22265625
4.217,310,1081,1182,310,-5.0,42.0,39.0,-65.3076171875,-26.428220748901367,-3.234863042831421,-0.800537109375,0.166259765625,-0.2431640625
4.242,310,1151,1239,310,-5.0,42.0,39.0,-80.38329315185547,-28.808591842651367,-1.4038084745407104,-0.800537109375,0.166259765625,-0.2431640625
4.245,310,1198,1295,311,-5.0,42.0,39.0,-90.14891815185547,-30.090330123901367,2.807616949081421,-0.7596435546875,0.1893310546875,-0.2249755859375
4.247,311,1338,1422,310,-5.0,42.0,39.0,-92.52928924560547,-29.724119186401367,7.385253429412842,-0.6240234375,0.3253173828125,-0.1951904296875
4.256,310,1390,1503,310,-5.0,42.0,39.0,-92.46825408935547,-28.198240280151367,10.192870140075684,-0.6240234375,0.3253173828125,-0.1951904296875
4.264,310,1462,1582,310,0.0,40.0,43.0,-96.98485565185547,-26.428220748901367,10.375975608825684,-0.5985107421875,0.3594970703125,-0.19580078125
4.280,310,1559,1772,308,0.0,40.0,43.0,-107.05565643310547,-26.855466842651367,9.33837890625,-0.991943359375,0.404541015625,0.0631103515625
4.285,310,1602,1838,311,0.0,40.0,43.0,-117.91991424560547,-32.65380859375,9.09423828125,-0.991943359375,0.404541015625,0.0631103515625
4.293,310,1632,1894,312,0.0,40.0,43.0,-125.79344940185547,-44.006343841552734,8.60595703125,-1.309326171875,0.17431640625,0.3421630859375
4.307,309,1678,1954,312,0.0,40.0,43.0,-117.79784393310547,-50.720211029052734,5.126952648162842,-1.33740234375,-0.2076416015625,0.3115234375
4.318,310,1695,1975,310,0.0,40.0,43.0,-76.66015625,-41.503902435302734,2.3193359375,-1.33740234375,-0.2076416015625,0.3115234375
4.326,310,1716,1993,312,0.0,40.0,43.0,-20.080564498901367,-22.644041061401367,4.94384765625,-1.3126220703125,0.0689697265625,0.074462890625
4.338,310,1732,2010,312,0.0,40.0,43.0,20.874021530151367,0.1831054538488388,10.253905296325684,-1.453857421875,0.54833984375,-0.0943603515625
4.347,311,1733,2012,312,0.0,40.0,43.0,20.874021530151367,0.1831054538488388,10.253905296325684,-1.513427734375,0.5831298828125,-0.126220703125
4.353,311,1733,2001,311,0.0,40.0,43.0,12.878417015075684,4.82177734375,4.638671875,-1.513427734375,0.5831298828125,-0.126220703125
4.373,310,1708,1966,312,0.0,37.0,42.0,7.080077648162842,10.009765625,-12.695311546325684,-1.1466064453125,0.1851806640625,-0.1146240234375
4.376,310,1675,1936,311,0.0,37.0,42.0,7.080077648162842,10.009765625,-12.695311546325684,-1.01513671875,0.2115478515625,-0.067626953125
4.384,310,1656,1923,312,0.0,37.0,42.0,28.137205123901367,9.70458984375,-20.568845748901367,-1.01513671875,0.2115478515625,-0.067626953125
4.397,308,1636,1922,312,0.0,37.0,42.0,50.720211029052734,12.329100608825684,-36.07177734375,-1.1748046875,0.5498046875,-0.0123291015625
4.405,310,1610,1912,311,0.0,37.0,42.0,50.720211029052734,12.329100608825684,-36.07177734375,-1.4591064453125,0.708740234375,-0.044189453125
4.420,309,1580,1894,312,0.0,37.0,42.0,35.888671875,18.85986328125,-42.419429779052734,-1.4591064453125,0.708740234375,-0.044189453125
4.450,310,1511,1840,310,0.0,37.0,42.0,-23.925779342651367,28.076169967651367,-46.142574310302734,-1.4881591796875,0.2445068359375,-0.00732421875
4.451,310,1455,1798,312,0.0,37.0,42.0,-23.925779342651367,28.076169967651367,-46.142574310302734,-1.339599609375,0.03466796875,-0.0284423828125
4.451,310,1391,1746,312,0.0,37.0,42.0,-28.625486373901367,30.212400436401367,-39.48974609375,-1.339599609375,0.03466796875,-0.0284423828125
4.457,310,1260,1636,310,1.0,39.0,39.0,2.01416015625,30.029294967651367,-11.169432640075684,-1.227783203125,0.011474609375,-0.121826171875
4.465,311,1173,1580,312,1.0,39.0,39.0,2.01416015625,30.029294967651367,-11.169432640075684,-1.1439208984375,-0.073486328125,-0.0909423828125
4.479,310,1091,1518,312,1.0,39.0,39.0,10.070799827575684,29.724119186401367,0.54931640625,-1.1439208984375,-0.073486328125,-0.0909423828125
4.487,310,932,1386,311,1.0,39.0,39.0,35.64453125,27.832029342651367,16.05224609375,-0.886474609375,-0.2216796875,0.004150390625
4.497,310,849,1282,310,1.0,39.0,39.0,57.250972747802734,25.085447311401367,20.01953125,-0.8226318359375,-0.298828125,0.0574951171875
4.503,310,782,1173,310,1.0,39.0,39.0,57.250972747802734,25.085447311401367,20.01953125,-0.780517578125,-0.31884765625,0.084228515625
4.523,309,710,1008,310,1.0,39.0,39.0,111.20604705810547,30.700681686401367,21.118162155151367,-0.7083740234375,-0.212646484375,0.047119140625
4.526,310,671,919,310,1.0,39.0,39.0,131.4697265625,39.48974609375,22.521970748901367,-0.63232421875,0.019287109375,-0.0484619140625
4.538,310,650,823,311,1.0,39.0,39.0,131.4697265625,39.48974609375,22.521970748901367,-0.5958251953125,0.31396484375,-0.16650390625
4.547,310,617,710,310,1.0,39.0,39.0,126.15966033935547,44.738765716552734,33.99658203125,-0.5626220703125,0.57666015625,-0.28271484375
4.555,309,601,674,310,-5.0,40.0,35.0,101.50145721435547,36.62109375,37.59765625,-0.5162353515625,0.729736328125,-0.3507080078125
4.563,310,579,639,310,-5.0,40.0,35.0,101.50145721435547,36.62109375,37.59765625,-0.5400390625,0.7254638671875,-0.290771484375
4.589,308,572,608,310,-5.0,40.0,35.0,22.338865280151367,9.58251953125,26.000974655151367,-0.626953125,0.5606689453125,-0.139404296875
4.591,310,566,605,309,-5.0,40.0,35.0,-6.225585460662842,2.807616949081421,15.747069358825684,-0.6868896484375,0.3629150390625,-0.036865234375
4.593,310,566,604,310,-5.0,40.0,35.0,-6.225585460662842,2.807616949081421,15.747069358825684,-0.7076416015625,0.2628173828125,-0.0177001953125
4.607,309,579,592,310,-5.0,40.0,35.0,0.3662109076976776,-0.6103515625,-0.30517578125,-0.75830078125,0.2423095703125,-0.055419921875
4.615,310,590,590,310,-5.0,40.0,35.0,19.04296875,-5.249022960662842,-7.446288585662842,-0.8577880859375,0.25634765625,-0.11669921875
4.625,310,601,592,309,-5.0,40.0,35.0,19.04296875,-5.249022960662842,-7.446288585662842,-0.9278564453125,0.283935546875,-0.1544189453125
4.647,309,618,586,310,-5.0,40.0,35.0,37.353515625,-8.23974609375,-13.183592796325684,-0.916748046875,0.2884521484375,-0.158447265625
4.647,310,632,590,310,-5.0,40.0,35.0,35.33935546875,-6.713866710662842,-13.122557640075684,-0.87744140625,0.2464599609375,-0.143310546875
4.654,310,650,592,310,-5.0,40.0,35.0,30.517576217651367,-6.225585460662842,-13.183592796325684,-0.8746337890625,0.181884765625,-0.1307373046875
4.667,309,687,606,310,-5.0,41.0,35.0,26.672361373901367,-7.812499523162842,-12.207030296325684,-0.908203125,0.131103515625,-0.137939453125
4.676,309,691,620,310,-5.0,41.0,35.0,24.353025436401367,-10.803221702575684,-8.85009765625,-0.943115234375,0.0999755859375,-0.161376953125
4.690,310,712,633,310,-5.0,41.0,35.0,22.277830123901367,-13.488768577575684,-2.685546636581421,-0.94873046875,0.1092529296875,-0.1854248046875
4.697,310,740,673,310,-5.0,41.0,35.0,18.4326171875,-15.624999046325684,5.126952648162842,-0.923095703125,0.1595458984375,-0.189453125
4.705,310,763,707,310,-5.0,41.0,35.0,11.901854515075684,-18.06640625,11.718749046325684,-0.884033203125,0.20556640625,-0.1641845703125
4.714,309,790,763,311,-5.0,41.0,35.0,5.126952648162842,-21.057126998901367,15.014647483825684,-0.8287353515625,0.2283935546875,-0.133056640625
4.727,310,858,882,310,-5.0,41.0,35.0,0.4882812201976776,-23.803709030151367,15.014647483825684,-0.7386474609375,0.251220703125,-0.1256103515625
4.750,309,904,967,310,-5.0,41.0,35.0,-5.615233898162842,-26.184080123901367,10.925292015075684,-0.6131591796875,0.2900390625,-0.1407470703125
4.751,310,971,1063,310,-5.0,41.0,35.0,-20.996091842651367,-28.137205123901367,1.7700194120407104,-0.5098876953125,0.302001953125,-0.200927734375
4.757,308,1089,1209,310,-3.0,39.0,40.0,-53.039546966552734,-28.503416061401367,-9.6435546875,-0.521484375,0.2554931640625,-0.3104248046875
4.765,310,1162,1286,311,-3.0,39.0,40.0,-98.87694549560547,-27.832029342651367,-15.624999046325684,-0.56884765625,0.1636962890625,-0.3343505859375
4.773,310,1253,1369,310,-3.0,39.0,40.0,-137.5732421875,-27.709959030151367,-10.803221702575684,-0.538330078125,0.1116943359375,-0.268798828125
4.798,310,1404,1547,311,-3.0,39.0,40.0,-145.81298828125,-26.977537155151367,0.3662109076976776,-0.5343017578125,0.2364501953125,-0.2427978515625
4.798,312,1486,1684,310,-3.0,39.0,40.0,-133.1787109375,-27.526853561401367,8.85009765625,-0.6361083984375,0.5098876953125,-0.2154541015625
4.804,312,1537,1823,311,-3.0,39.0,40.0,-128.35693359375,-33.5693359375,10.498045921325684,-0.8553466796875,0.73193359375,-0.0791015625
4.817,310,1600,1996,310,-3.0,39.0,40.0,-142.15087890625,-45.776363372802734,7.324218273162842,-1.211669921875,0.6221923828125,0.2078857421875
4.830,311,1640,2034,310,-3.0,39.0,40.0,-163.26902770996094,-58.837886810302734,1.7089842557907104,-1.5255126953125,0.0552978515625,0.4892578125
4.833,310,1666,2068,311,-3.0,39.0,40.0,-157.2265625,-58.654781341552734,-4.39453125,-1.6412353515625,-0.5128173828125,0.520263671875
4.854,311,1695,2089,311,-3.0,39.0,40.0,-95.33690643310547,-38.0859375,-4.638671875,-1.624755859375,-0.5328369140625,0.2989501953125
4.855,310,1676,2102,310,-1.0,40.0,38.0,-9.6435546875,-11.901854515075684,2.50244140625,-1.5811767578125,-0.083740234375,0.0003662109375
4.863,310,1715,2098,312,-1.0,40.0,38.0,41.992183685302734,3.112792730331421,10.009765625,-1.5533447265625,0.3975830078125,-0.208740234375
4.877,312,1704,2076,310,-1.0,40.0,38.0,45.959468841552734,5.859374523162842,12.023924827575684,-1.4747314453125,0.595703125,-0.28662109375
4.885,311,1693,2062,310,-1.0,40.0,38.0,26.733396530151367,4.150390625,7.690429210662842,-1.257080078125,0.4561767578125,-0.2652587890625
4.910,310,1662,2035,312,-1.0,40.0,38.0,14.709471702575684,1.8310545682907104,0.1831054538488388,-1.034912109375,0.272705078125,-0.1741943359375
4.911,310,1619,1997,312,-1.0,40.0,38.0,18.9208984375,-2.44140625,-5.920409679412842,-0.9669189453125,0.2545166015625,-0.067138671875
4.915,310,1609,1999,311,-1.0,40.0,38.0,26.550291061401367,-5.249022960662842,-10.742186546325684,-0.981689453125,0.277587890625,0.0257568359375
4.923,311,1591,1999,310,-1.0,40.0,38.0,31.066892623901367,-1.03759765625,-16.9677734375,-1.0750732421875,0.3580322265625,0.070556640625
4.954,312,1561,1977,311,-1.0,40.0,38.0,28.747556686401367,7.568358898162842,-21.850584030151367,-1.2974853515625,0.54052734375,0.041259765625
4.954,310,1531,1952,310,-1.0,40.0,38.0,11.230467796325684,14.099120140075684,-22.583005905151367,-1.4769287109375,0.5819091796875,-0.00439453125
4.955,297,1490,1909,311,0.0,38.0,43.0,-14.526366233825684,16.7236328125,-21.118162155151367,-1.4532470703125,0.376953125,-0.0128173828125
4.968,310,1399,1831,311,0.0,38.0,43.0,-27.282712936401367,17.02880859375,-16.9677734375,-1.2755126953125,0.1131591796875,-0.0009765625
4.975,311,1338,1770,311,0.0,38.0,43.0,-19.71435546875,16.54052734375,-8.7890625,-1.2755126953125,0.1131591796875,-0.0009765625
4.983,311,1269,1695,311,0.0,38.0,43.0,-3.967284917831421,16.6015625,0.4882812201976776,-1.2535400390625,0.128662109375,0.0172119140625
4.998,310,1157,1564,310,0.0,38.0,43.0,9.46044921875,18.61572265625,7.324218273162842,-1.0853271484375,0.0260009765625,0.052001953125
5.017,310,1078,1457,311,0.0,38.0,43.0,23.132322311401367,23.071287155151367,11.413573265075684,-1.0853271484375,0.0260009765625,0.052001953125
5.017,312,999,1351,311,0.0,38.0,43.0,41.198726654052734,27.099607467651367,13.610838890075684,-1.0013427734375,-0.077880859375,0.0528564453125
5.027,310,840,1145,310,0.0,38.0,43.0,66.0400390625,28.381345748901367,14.587401390075684,-0.85205078125,-0.256591796875,0.06494140625
5.035,310,778,1034,310,0.0,38.0,43.0,98.38866424560547,28.869626998901367,14.831542015075684,-0.85205078125,-0.256591796875,0.06494140625
5.059,310,742,951,310,0.0,38.0,43.0,130.79833984375,31.799314498901367,14.404295921325684,-0.6929931640625,-0.1544189453125,-0.0101318359375
5.059,311,689,816,309,-5.0,41.0,43.0,150.20751953125,36.43798828125,13.732909202575684,-0.529296875,0.3646240234375,-0.1798095703125
5.065,310,653,730,310,-5.0,41.0,43.0,146.54541015625,37.90283203125,13.000487327575684,-0.529296875,0.3646240234375,-0.1798095703125
5.073,310,631,661,310,-5.0,41.0,43.0,119.14061737060547,33.02001953125,10.253905296325684,-0.5494384765625,0.5208740234375,-0.201171875
5.087,309,607,587,310,-5.0,41.0,43.0,79.40673828125,25.817869186401367,5.432128429412842,-0.5504150390625,0.5050048828125,-0.22998046875
5.098,310,601,561,309,-5.0,41.0,43.0,43.579097747802734,20.874021530151367,2.50244140625,-0.618408203125,0.52734375,-0.18115234375
5.103,310,603,551,310,-5.0,41.0,43.0,19.10400390625,16.357421875,3.784179449081421,-0.618408203125,0.52734375,-0.18115234375
5.117,309,616,556,310,-5.0,41.0,43.0,-3.906249761581421,4.21142578125,0.7934569716453552,-0.7957763671875,0.356201171875,-0.053466796875
5.126,310,629,562,310,-5.0,41.0,43.0,-3.906249761581421,4.21142578125,0.7934569716453552,-0.834228515625,0.2666015625,-0.0535888671875
5.137,310,640,572,308,-5.0,41.0,43.0,-2.197265625,3.234863042831421,-6.835937023162842,-0.834228515625,0.2666015625,-0.0535888671875
5.162,309,654,580,310,-5.0,41.0,43.0,14.099120140075684,6.042479991912842,-18.6767578125,-0.9002685546875,0.218017578125,-0.1485595703125
5.163,309,646,588,309,-3.0,39.0,47.0,14.099120140075684,6.042479991912842,-18.6767578125,-0.9013671875,0.21630859375,-0.181640625
5.167,310,676,579,296,-3.0,39.0,47.0,22.094724655151367,4.57763671875,-19.1650390625,-0.9013671875,0.21630859375,-0.181640625
5.177,310,697,607,310,-3.0,39.0,47.0,24.780271530151367,-4.45556640625,-13.549803733825684,-0.8892822265625,0.2142333984375,-0.1524658203125
5.185,310,711,616,311,-3.0,39.0,47.0,24.780271530151367,-4.45556640625,-13.549803733825684,-0.8819580078125,0.16845703125,-0.121826171875
5.193,308,726,628,311,-3.0,39.0,47.0,20.385740280151367,-8.23974609375,-11.352538108825684,-0.8819580078125,0.16845703125,-0.121826171875
5.207,308,763,660,310,-3.0,39.0,47.0,12.634276390075684,-10.314940452575684,-5.0048828125,-0.87255859375,0.11669921875,-0.114501953125
5.215,310,777,703,311,-3.0,39.0,47.0,12.634276390075684,-10.314940452575684,-5.0048828125,-0.85791015625,0.1378173828125,-0.08837890625
5.223,310,805,741,310,-3.0,39.0,47.0,7.141112804412842,-11.291502952575684,0.4882812201976776,-0.85791015625,0.1378173828125,-0.08837890625
5.261,308,865,827,310,-3.0,39.0,47.0,0.9765624403953552,-17.15087890625,9.70458984375,-0.784912109375,0.212646484375,-0.06494140625
5.261,310,912,902,311,-3.0,39.0,47.0,-3.723144292831421,-20.385740280151367,9.70458984375,-0.70703125,0.2633056640625,-0.09033203125
5.262,310,966,990,310,-6.0,41.0,42.0,-3.723144292831421,-20.385740280151367,9.70458984375,-0.614013671875,0.3021240234375,-0.1470947265625
5.268,310,1093,1133,310,-6.0,41.0,42.0,-33.99658203125,-25.634763717651367,-6.530761241912842,-0.5750732421875,0.2763671875,-0.224609375
5.275,310,1175,1204,312,-6.0,41.0,42.0,-58.837886810302734,-26.000974655151367,-14.038084983825684,-0.56396484375,0.196044921875,-0.2569580078125
5.284,310,1243,1294,309,-6.0,41.0,42.0,-58.837886810302734,-26.000974655151367,-14.038084983825684,-0.5205078125,0.143310546875,-0.2337646484375
5.297,310,1377,1430,310,-6.0,41.0,42.0,-96.25243377685547,-27.343748092651367,-2.44140625,-0.4989013671875,0.1722412109375,-0.2203369140625
5.305,310,1450,1524,311,-6.0,41.0,42.0,-97.71727752685547,-30.334470748901367,6.347655773162842,-0.5712890625,0.2838134765625,-0.2149658203125
5.313,310,1518,1662,311,-6.0,41.0,42.0,-97.71727752685547,-30.334470748901367,6.347655773162842,-0.806884765625,0.4798583984375,-0.1785888671875
5.329,309,1588,1856,311,-6.0,41.0,42.0,-105.95702362060547,-39.55078125,10.803221702575684,-1.2353515625,0.5396728515625,-0.0699462890625
5.341,310,1637,1922,311,-6.0,41.0,42.0,-125.85448455810547,-42.968746185302734,4.57763671875,-1.6446533203125,0.198974609375,0.15234375
5.343,310,1669,1953,312,-6.0,41.0,42.0,-125.85448455810547,-42.968746185302734,4.57763671875,-1.728271484375,-0.302978515625,0.3968505859375
5.362,310,1709,1974,310,0.0,36.0,46.0,-104.18700408935547,-24.291990280151367,-11.291502952575684,-1.5576171875,-0.4742431640625,0.4334716796875
5.365,310,1718,1983,310,0.0,36.0,46.0,-30.883787155151367,-6.958007335662842,-4.5166015625,-1.4188232421875,-0.1712646484375,0.19091796875
5.373,310,1732,1997,312,0.0,36.0,46.0,-30.883787155151367,-6.958007335662842,-4.5166015625,-1.417236328125,0.3463134765625,-0.1328125
5.388,310,1745,1974,312,0.0,36.0,46.0,51.025386810302734,4.8828125,17.08984375,-1.4654541015625,0.6800537109375,-0.3299560546875
5.404,309,1732,1959,311,0.0,36.0,46.0,27.709959030151367,1.7700194120407104,15.869139671325684,-1.3570556640625,0.557861328125,-0.3375244140625
5.410,310,1711,1937,312,0.0,36.0,46.0,4.69970703125,-0.2441406100988388,7.324218273162842,-1.1300048828125,0.264404296875,-0.2271728515625
5.417,310,1674,1907,312,0.0,36.0,46.0,7.080077648162842,-2.38037109375,-2.01416015625,-1.005615234375,0.20849609375,-0.0885009765625
5.425,310,1653,1914,311,0.0,36.0,46.0,21.972654342651367,-5.0048828125,-10.375975608825684,-1.005126953125,0.317626953125,0.0321044921875
5.445,310,1640,1922,312,0.0,36.0,46.0,31.555173873901367,-2.807616949081421,-19.1650390625,-1.1617431640625,0.5123291015625,0.064697265625
5.447,310,1608,1908,310,0.0,36.0,46.0,24.353025436401367,4.82177734375,-26.123044967651367,-1.40625,0.65673828125,0.014404296875
5.466,310,1569,1884,311,0.0,40.0,42.0,-2.929687261581421,12.695311546325684,-29.724119186401367,-1.4969482421875,0.4962158203125,-0.01806640625
5.466,310,1528,1850,312,0.0,40.0,42.0,-28.869626998901367,17.15087890625,-28.930662155151367,-1.404052734375,0.1943359375,-0.016845703125
5.477,310,1433,1755,311,0.0,40.0,42.0,-32.28759765625,17.63916015625,-21.728513717651367,-1.2822265625,0.04833984375,-0.020751953125
5.485,311,1374,1689,311,0.0,40.0,42.0,-19.10400390625,16.357421875,-10.131834983825684,-1.22802734375,0.0557861328125,-0.0318603515625
5.493,308,1309,1602,310,0.0,40.0,42.0,-5.493163585662842,16.29638671875,1.220703125,-1.2210693359375,0.0711669921875,-0.0294189453125
5.515,309,1184,1452,311,0.0,40.0,42.0,4.39453125,18.61572265625,9.27734375,-1.2032470703125,0.0535888671875,-0.0264892578125
5.515,310,1092,1369,311,0.0,40.0,42.0,15.197752952575684,22.338865280151367,13.305663108825684,-1.1478271484375,0.05029296875,-0.0450439453125
5.523,310,1011,1267,312,0.0,40.0,42.0,28.564451217651367,25.146482467651367,14.099120140075684,-1.046142578125,-0.0054931640625,-0.0428466796875
5.569,310,833,1104,310,0.0,40.0,42.0,46.264644622802734,26.611326217651367,12.207030296325684,-0.93310546875,-0.1827392578125,0.0185546875
5.570,309,763,987,310,0.0,40.0,42.0,72.81494140625,28.320310592651367,8.9111328125,-0.847412109375,-0.3555908203125,0.0985107421875
5.578,310,708,882,310,0.0,40.0,42.0,108.21532440185547,32.470703125,7.629394054412842,-0.734619140625,-0.302978515625,0.080322265625
5.578,310,619,710,310,0.0,40.0,42.0,139.404296875,39.1845703125,10.314940452575684,-0.59619140625,0.020751953125,-0.056640625
5.578,310,606,617,311,0.0,40.0,42.0,144.59228515625,42.724605560302734,13.488768577575684,-0.49462890625,0.3671875,-0.1944580078125
5.583,309,578,545,311,0.0,40.0,42.0,115.96678924560547,39.24560546875,13.549803733825684,-0.4407958984375,0.537353515625,-0.2811279296875
5.597,308,558,433,310,0.0,40.0,42.0,70.37353515625,32.2265625,13.061522483825684,-0.4478759765625,0.580322265625,-0.3028564453125
5.612,310,562,423,311,0.0,40.0,42.0,27.709959030151367,23.681638717651367,15.502928733825684,-0.523681640625,0.55810546875,-0.225830078125
5.613,310,551,420,310,0.0,40.0,42.0,-2.624511480331421,13.488768577575684,18.6767578125,-0.6358642578125,0.472412109375,-0.084228515625
5.627,310,592,430,310,0.0,40.0,42.0,-14.526366233825684,4.45556640625,18.12744140625,-0.711669921875,0.371826171875,0.00830078125
5.636,310,606,435,310,0.0,40.0,42.0,-8.6669921875,-0.30517578125,12.512206077575684,-0.7457275390625,0.3153076171875,-0.001953125
5.648,309,620,439,310,0.0,40.0,42.0,4.0283203125,-1.4648436307907104,3.173827886581421,-0.8013916015625,0.2840576171875,-0.046630859375
5.671,309,647,476,310,-3.0,39.0,39.0,16.357421875,-1.4648436307907104,-6.042479991912842,-0.861083984375,0.23974609375,-0.0626220703125
5.671,310,661,490,311,-3.0,39.0,39.0,31.066892623901367,-0.6103515625,-9.70458984375,-0.8857421875,0.1998291015625,-0.0703125
5.673,308,669,496,310,-3.0,39.0,39.0,49.194332122802734,0.0610351525247097,-6.652831554412842,-0.885986328125,0.203369140625,-0.0980224609375
5.689,310,685,512,310,-3.0,39.0,39.0,63.659664154052734,-2.868652105331421,-1.7089842557907104,-0.8896484375,0.2080078125,-0.110107421875
5.695,310,688,529,310,-3.0,39.0,39.0,69.88525390625,-9.521484375,1.6479490995407104,-0.904052734375,0.168701171875,-0.10693359375
5.704,310,710,547,310,-3.0,39.0,39.0,71.4111328125,-16.54052734375,4.69970703125,-0.90380859375,0.1627197265625,-0.1632080078125
5.717,310,745,600,310,-3.0,39.0,39.0,62.805171966552734,-22.094724655151367,7.263183116912842,-0.8548583984375,0.2591552734375,-0.2684326171875
5.725,310,772,658,310,-3.0,39.0,39.0,29.235837936401367,-25.329587936401367,6.530761241912842,-0.8548583984375,0.2591552734375,-0.2684326171875
5.733,309,806,711,310,-3.0,39.0,39.0,-18.5546875,-26.611326217651367,3.723144292831421,-0.8348388671875,0.1973876953125,-0.15478515625
5.771,310,877,796,310,-5.0,38.0,45.0,-47.790523529052734,-27.404783248901367,2.685546636581421,-0.745361328125,0.152587890625,-0.0982666015625
5.775,312,932,864,310,-5.0,38.0,45.0,-48.095699310302734,-28.076169967651367,3.051757574081421,-0.745361328125,0.152587890625,-0.0982666015625
5.781,311,986,928,310,-5.0,38.0,45.0,-44.677730560302734,-27.526853561401367,1.5258787870407104,-0.7286376953125,0.221435546875,-0.23388671875
5.783,310,1082,1055,311,-5.0,38.0,45.0,-64.27001953125,-26.000974655151367,-2.01416015625,-0.85302734375,0.2779541015625,-0.21826171875
5.785,310,1137,1129,311,-5.0,38.0,45.0,-102.23387908935547,-25.817869186401367,-2.807616949081421,-0.85302734375,0.2779541015625,-0.21826171875
5.793,310,1192,1176,310,-5.0,38.0,45.0,-129.638671875,-25.939939498901367,1.7089842557907104,-0.77587890625,0.22412109375,-0.1258544921875
5.807,310,1318,1275,310,-5.0,38.0,45.0,-129.82177734375,-23.742673873901367,7.629394054412842,-0.61767578125,0.3438720703125,-0.136962890625
5.820,311,1392,1349,310,-5.0,38.0,45.0,-115.29540252685547,-22.216794967651367,10.925292015075684,-0.61767578125,0.3438720703125,-0.136962890625
5.823,311,1463,1472,311,-5.0,38.0,45.0,-103.57665252685547,-24.902341842651367,9.82666015625,-0.601806640625,0.4212646484375,-0.0750732421875
5.837,310,1545,1732,310,-5.0,38.0,45.0,-97.65624237060547,-29.846189498901367,5.310058116912842,-0.948486328125,0.4947509765625,0.0953369140625
5.845,310,1585,1833,311,-5.0,38.0,45.0,-99.42626190185547,-35.46142578125,0.9155272841453552,-0.948486328125,0.4947509765625,0.0953369140625
5.854,310,1613,1894,312,-1.0,37.0,46.0,-113.40331268310547,-41.564937591552734,-3.173827886581421,-1.299072265625,0.1929931640625,0.1956787109375
5.883,310,1655,1955,312,-1.0,37.0,46.0,-99.18212127685547,-32.77587890625,-7.995604991912842,-1.5140380859375,-0.3720703125,0.136474609375
5.886,311,1675,1978,310,-1.0,37.0,46.0,-99.18212127685547,-32.77587890625,-7.995604991912842,-1.4898681640625,-0.0982666015625,0.010009765625
5.886,309,1691,2001,310,-1.0,37.0,46.0,-46.020503997802734,-20.690916061401367,0.6103515625,-1.4898681640625,-0.0982666015625,0.010009765625
5.898,310,1700,2014,312,-1.0,37.0,46.0,13.366698265075684,-13.061522483825684,13.671874046325684,-1.5035400390625,0.5400390625,-0.0478515625
5.906,310,1689,2005,312,-1.0,37.0,46.0,13.366698265075684,-13.061522483825684,13.671874046325684,-1.3896484375,0.5106201171875,-0.0191650390625
5.919,312,1669,1989,311,-1.0,37.0,46.0,5.371093273162842,-10.437010765075684,9.70458984375,-1.3896484375,0.5106201171875,-0.0191650390625
5.928,310,1607,1920,311,-1.0,37.0,46.0,5.310058116912842,1.8920897245407104,-9.09423828125,-0.9833984375,0.259765625,0.0386962890625
5.936,311,1564,1881,312,-1.0,37.0,46.0,24.780271530151367,5.554198741912842,-17.7001953125,-0.978271484375,0.3284912109375,0.049072265625
5.944,310,1544,1874,311,-1.0,37.0,46.0,24.780271530151367,5.554198741912842,-17.7001953125,-1.051025390625,0.368896484375,0.0599365234375
5.958,310,1518,1864,310,0.0,37.0,43.0,43.029781341552734,16.78466796875,-37.841796875,-1.2696533203125,0.475830078125,0.0262451171875
5.980,310,1490,1837,312,0.0,37.0,43.0,28.076169967651367,21.789548873901367,-41.015621185302734,-1.541259765625,0.5416259765625,-0.038818359375
5.980,311,1447,1796,312,0.0,37.0,43.0,28.076169967651367,21.789548873901367,-41.015621185302734,-1.5947265625,0.3502197265625,-0.0609130859375
5.988,312,1348,1691,312,0.0,37.0,43.0,-31.188962936401367,21.850584030151367,-24.353025436401367,-1.447021484375,0.0828857421875,-0.043701171875
5.996,310,1274,1640,311,0.0,37.0,43.0,-31.066892623901367,21.728513717651367,-6.835937023162842,-1.2991943359375,-0.061279296875,-0.00439453125
6.004,310,1226,1555,311,0.0,37.0,43.0,-31.066892623901367,21.728513717651367,-6.835937023162842,-1.2249755859375,-0.138916015625,0.0723876953125
6.029,311,1129,1419,311,0.0,37.0,43.0,6.652831554412842,21.728513717651367,28.747556686401367,-1.176513671875,-0.14599609375,0.1328125
6.029,310,1067,1334,310,0.0,37.0,43.0,36.0107421875,26.367185592651367,40.588375091552734,-1.083251953125,-0.043701171875,0.1187744140625
6.034,310,1000,1236,310,0.0,37.0,43.0,36.0107421875,26.367185592651367,40.588375091552734,-0.9652099609375,0.0487060546875,0.0740966796875
6.048,310,853,1105,312,-3.0,38.0,43.0,93.81102752685547,39.794921875,35.888671875,-0.8795166015625,0.0137939453125,0.0416259765625
6.059,310,785,1018,310,-3.0,38.0,43.0,111.57225799560547,44.250484466552734,22.033689498901367,-0.8033447265625,-0.0792236328125,0.002685546875
6.081,308,732,913,311,-3.0,38.0,43.0,111.57225799560547,44.250484466552734,22.033689498901367,-0.7001953125,-0.0482177734375,-0.0743408203125
6.082,309,631,773,310,-3.0,38.0,43.0,144.71435546875,52.368160247802734,4.8828125,-0.6365966796875,0.14697265625,-0.1817626953125
6.088,310,576,688,310,-3.0,38.0,43.0,145.8740234375,49.255367279052734,4.69970703125,-0.6397705078125,0.356689453125,-0.302734375
6.096,309,529,594,310,-3.0,38.0,43.0,124.57274627685547,40.832515716552734,4.39453125,-0.6390380859375,0.463134765625,-0.420654296875
6.108,309,456,473,310,-3.0,38.0,43.0,85.57128143310547,32.1044921875,3.356933355331421,-0.6202392578125,0.4952392578125,-0.4449462890625
6.116,310,435,440,310,-3.0,38.0,43.0,39.73388671875,23.193357467651367,4.94384765625,-0.6099853515625,0.4775390625,-0.31298828125
6.124,310,409,427,309,-3.0,38.0,43.0,-1.4648436307907104,13.061522483825684,9.1552734375,-0.6317138671875,0.4014892578125,-0.1103515625
6.140,311,410,411,310,-3.0,38.0,43.0,-28.076169967651367,5.0048828125,13.183592796325684,-0.66162109375,0.307861328125,0.033203125
6.155,309,433,420,310,-4.0,40.0,41.0,-35.0341796875,2.38037109375,14.587401390075684,-0.650146484375,0.21826171875,0.0654296875
6.180,310,463,424,310,-4.0,40.0,41.0,-23.315427780151367,3.601073980331421,10.742186546325684,-0.6513671875,0.164794921875,0.0035400390625
6.185,310,496,439,310,-4.0,40.0,41.0,0.2441406100988388,3.417968511581421,4.08935546875,-0.7322998046875,0.2515869140625,-0.071533203125
6.197,310,513,452,310,-4.0,40.0,41.0,18.61572265625,-3.112792730331421,1.03759765625,-0.828857421875,0.4051513671875,-0.081298828125
6.201,310,530,478,308,-4.0,40.0,41.0,20.996091842651367,-11.962889671325684,0.3662109076976776,-0.8707275390625,0.435546875,-0.0634765625
6.205,308,552,519,310,-4.0,40.0,41.0,19.22607421875,-14.770506858825684,-2.13623046875,-0.859375,0.37255859375,-0.0645751953125
6.208,310,576,538,310,-4.0,40.0,41.0,21.240232467651367,-12.573241233825684,-6.347655773162842,-0.8480224609375,0.3140869140625,-0.0697021484375
6.217,310,590,562,308,-4.0,40.0,41.0,22.216794967651367,-11.169432640075684,-10.925292015075684,-0.87255859375,0.26318359375,-0.0792236328125
6.228,310,613,588,310,-4.0,40.0,41.0,21.911619186401367,-12.207030296325684,-13.488768577575684,-0.8961181640625,0.210693359375,-0.0989990234375
6.236,309,634,608,310,-4.0,40.0,41.0,23.010251998901367,-14.282225608825684,-12.329100608825684,-0.8885498046875,0.177001953125,-0.132080078125
6.253,310,673,653,310,-5.0,41.0,42.0,24.169919967651367,-16.78466796875,-8.11767578125,-0.8636474609375,0.1697998046875,-0.17529296875
6.263,310,738,751,310,-5.0,41.0,42.0,20.01953125,-20.935056686401367,-2.807616949081421,-0.8411865234375,0.1702880859375,-0.19384765625
6.266,309,769,823,308,-5.0,41.0,42.0,9.21630859375,-27.343748092651367,2.197265625,-0.8056640625,0.1795654296875,-0.168212890625
6.293,308,818,917,310,-5.0,41.0,42.0,-4.57763671875,-33.99658203125,4.8828125,-0.724853515625,0.22216796875,-0.142578125
6.294,308,939,1092,310,-5.0,41.0,42.0,-23.132322311401367,-38.330078125,1.5869139432907104,-0.6236572265625,0.2750244140625,-0.178955078125
6.296,311,1025,1173,310,-5.0,41.0,42.0,-56.274410247802734,-37.9638671875,-8.36181640625,-0.57666015625,0.2613525390625,-0.2628173828125
6.304,310,1116,1264,311,-5.0,41.0,42.0,-102.78319549560547,-32.40966796875,-17.15087890625,-0.57568359375,0.205810546875,-0.2977294921875
6.318,311,1246,1428,312,-5.0,41.0,42.0,-141.357421875,-25.695798873901367,-16.845703125,-0.509521484375,0.157470703125,-0.2347412109375
6.329,310,1342,1540,311,-5.0,41.0,42.0,-151.3671875,-22.583005905151367,-9.33837890625,-0.4693603515625,0.2027587890625,-0.194580078125
6.335,311,1422,1708,311,-5.0,41.0,42.0,-139.34326171875,-24.719236373901367,-0.4882812201976776,-0.62255859375,0.4361572265625,-0.2301025390625
6.348,311,1533,1937,312,-1.0,38.0,44.0,-135.92529296875,-33.87451171875,5.615233898162842,-0.937744140625,0.6917724609375,-0.136962890625
6.356,311,1577,2016,311,-1.0,38.0,44.0,-157.3486328125,-50.354000091552734,6.896972179412842,-1.3223876953125,0.596435546875,0.198486328125
6.396,311,1611,2058,310,-1.0,38.0,44.0,-181.82371520996094,-63.293453216552734,1.8920897245407104,-1.57177734375,0.0645751953125,0.549560546875
6.397,310,1662,2089,314,-1.0,38.0,44.0,-165.83250427246094,-55.908199310302734,-8.97216796875,-1.58154296875,-0.4166259765625,0.653076171875
6.397,312,1683,2096,311,-1.0,38.0,44.0,-90.82030487060547,-27.954099655151367,-18.5546875,-1.482666015625,-0.430419921875,0.497802734375
6.398,310,1700,2100,311,-1.0,38.0,44.0,3.295898199081421,1.15966796875,-20.385740280151367,-1.4180908203125,-0.07275390625,0.21728515625
6.408,310,1711,2082,312,-1.0,38.0,44.0,62.683101654052734,16.6015625,-15.686034202575684,-1.4822998046875,0.59521484375,-0.2720947265625
6.416,310,1697,2058,311,-1.0,38.0,44.0,70.068359375,19.1650390625,-9.521484375,-1.4822998046875,0.59521484375,-0.2720947265625
6.424,313,1678,2034,310,-1.0,38.0,44.0,43.334957122802734,15.930174827575684,-6.286620616912842,-1.3653564453125,0.4130859375,-0.3453369140625
6.438,310,1625,1971,310,-1.0,38.0,44.0,18.61572265625,12.023924827575684,-6.652831554412842,-1.0625,0.0655517578125,-0.174560546875
6.446,311,1611,1964,312,0.0,38.0,41.0,17.08984375,6.103515148162842,-7.690429210662842,-1.0625,0.0655517578125,-0.174560546875
6.455,310,1597,1973,311,0.0,38.0,41.0,27.404783248901367,-1.3427733182907104,-9.46044921875,-1.062255859375,0.22802734375,-0.021728515625
6.468,310,1568,1961,310,0.0,38.0,41.0,33.14208984375,-2.868652105331421,-15.075682640075684,-1.447021484375,0.689697265625,0.0345458984375
6.490,311,1543,1941,311,0.0,38.0,41.0,21.972654342651367,3.784179449081421,-21.545408248901367,-1.447021484375,0.689697265625,0.0345458984375
6.490,310,1499,1910,311,0.0,38.0,41.0,-10.314940452575684,12.207030296325684,-25.207517623901367,-1.555908203125,0.5921630859375,0.0091552734375
6.502,309,1404,1818,310,0.0,38.0,41.0,-41.625972747802734,17.15087890625,-24.902341842651367,-1.333740234375,0.0672607421875,0.0098876953125
6.506,310,1340,1746,311,0.0,38.0,41.0,-47.119136810302734,17.822265625,-18.4326171875,-1.333740234375,0.0672607421875,0.0098876953125
6.514,310,1279,1679,311,0.0,38.0,41.0,-29.296873092651367,16.90673828125,-7.812499523162842,-1.21630859375,0.0135498046875,0.03955078125
6.536,310,1183,1557,310,0.0,38.0,41.0,-7.080077648162842,17.7001953125,1.4648436307907104,-0.964599609375,-0.0274658203125,0.1475830078125
6.536,310,1120,1462,296,0.0,38.0,41.0,10.131834983825684,21.789548873901367,6.469726085662842,-0.8541259765625,-0.1041259765625,0.1849365234375
6.544,310,1054,1363,312,-1.0,39.0,38.0,26.733396530151367,27.160642623901367,7.263183116912842,-0.8541259765625,-0.1041259765625,0.1849365234375
6.558,310,932,1213,312,-1.0,39.0,38.0,74.89013671875,34.1796875,5.920409679412842,-0.763427734375,-0.19775390625,0.1107177734375
6.570,308,873,1131,310,-1.0,39.0,38.0,74.89013671875,34.1796875,5.920409679412842,-0.7420654296875,-0.169189453125,0.0213623046875
6.574,310,837,1067,311,-1.0,39.0,38.0,99.24315643310547,36.7431640625,7.812499523162842,-0.7420654296875,-0.169189453125,0.0213623046875
6.594,310,796,932,310,-1.0,39.0,38.0,139.16015625,47.607418060302734,15.319823265075684,-0.700439453125,0.2548828125,-0.22998046875
6.599,310,756,871,311,-1.0,39.0,38.0,139.16015625,47.607418060302734,15.319823265075684,-0.7373046875,0.48486328125,-0.3223876953125
6.608,308,732,826,311,-1.0,39.0,38.0,135.43701171875,46.325679779052734,17.2119140625,-0.7373046875,0.48486328125,-0.3223876953125
6.618,311,723,730,308,-1.0,39.0,38.0,68.2373046875,25.939939498901367,11.352538108825684,-0.6522216796875,0.4229736328125,-0.2889404296875
6.626,310,703,688,311,-1.0,39.0,38.0,68.2373046875,25.939939498901367,11.352538108825684,-0.6351318359375,0.4124755859375,-0.2335205078125
6.636,309,697,661,310,-1.0,39.0,38.0,37.78076171875,19.71435546875,8.9111328125,-0.6351318359375,0.4124755859375,-0.2335205078125
6.648,310,697,656,308,-2.0,39.0,44.0,1.220703125,9.3994140625,7.629394054412842,-0.7760009765625,0.3594970703125,-0.049560546875
6.656,309,695,654,309,-2.0,39.0,44.0,1.220703125,9.3994140625,7.629394054412842,-0.80419921875,0.2728271484375,-0.00537109375
6.664,310,700,654,310,-2.0,39.0,44.0,-6.042479991912842,5.126952648162842,4.21142578125,-0.80419921875,0.2728271484375,-0.00537109375
6.696,309,712,646,310,-2.0,39.0,44.0,2.38037109375,-1.4648436307907104,-6.408690929412842,-0.8800048828125,0.2725830078125,-0.0162353515625
6.703,310,716,629,310,-2.0,39.0,44.0,2.38037109375,-1.4648436307907104,-6.408690929412842,-0.914794921875,0.2418212890625,-0.05712890625
6.704,310,725,630,308,-2.0,39.0,44.0,10.986327171325684,-4.8828125,-11.474608421325684,-0.9058837890625,0.2152099609375,-0.104736328125
6.715,310,741,656,310,-2.0,39.0,44.0,24.353025436401367,-5.554198741912842,-13.549803733825684,-0.882080078125,0.2039794921875,-0.1246337890625
6.716,306,739,660,308,-2.0,39.0,44.0,25.146482467651367,-6.103515148162842,-12.756346702575684,-0.87353515625,0.18603515625,-0.1181640625
6.724,310,771,683,308,-2.0,39.0,44.0,25.146482467651367,-6.103515148162842,-12.756346702575684,-0.8770751953125,0.16552734375,-0.112548828125
6.739,308,805,728,310,-2.0,39.0,44.0,18.49365234375,-10.437010765075684,-9.58251953125,-0.876953125,0.150146484375,-0.119384765625
6.746,310,822,761,310,-2.0,41.0,44.0,12.939452171325684,-13.183592796325684,-6.774901866912842,-0.8653564453125,0.142333984375,-0.1318359375
6.754,310,846,799,309,-2.0,41.0,44.0,12.939452171325684,-13.183592796325684,-6.774901866912842,-0.832275390625,0.150390625,-0.130126953125
6.775,309,913,922,311,-2.0,41.0,44.0,0.9765624403953552,-21.301267623901367,-0.9155272841453552,-0.7628173828125,0.18017578125,-0.114501953125
6.777,310,974,1014,310,-2.0,41.0,44.0,-5.0048828125,-26.428220748901367,-0.54931640625,-0.671142578125,0.218505859375,-0.1092529296875
6.806,310,1034,1101,310,-2.0,41.0,44.0,-5.0048828125,-26.428220748901367,-0.54931640625,-0.6043701171875,0.23828125,-0.135009765625
6.807,295,1122,1213,309,-2.0,41.0,44.0,-29.968259811401367,-31.494138717651367,-6.652831554412842,-0.5455322265625,0.2200927734375,-0.1761474609375
6.808,310,1219,1319,310,-2.0,41.0,44.0,-49.865718841552734,-30.151365280151367,-5.920409679412842,-0.4481201171875,0.1697998046875,-0.1790771484375
6.823,310,1295,1393,311,-2.0,41.0,44.0,-49.865718841552734,-30.151365280151367,-5.920409679412842,-0.3760986328125,0.1549072265625,-0.1668701171875
6.828,311,1432,1575,312,-2.0,41.0,44.0,-80.32225799560547,-30.273435592651367,5.859374523162842,-0.44580078125,0.2376708984375,-0.2037353515625
6.843,311,1508,1743,310,-2.0,41.0,44.0,-93.87206268310547,-33.75244140625,9.33837890625,-0.674072265625,0.3980712890625,-0.2064208984375
6.845,296,1565,1870,310,-1.0,38.0,40.0,-116.14989471435547,-41.015621185302734,5.187987804412842,-1.0218505859375,0.4466552734375,-0.028076171875
6.858,310,1636,1999,311,-1.0,38.0,40.0,-138.671875,-48.461910247802734,-6.652831554412842,-1.3531494140625,0.1466064453125,0.2828369140625
6.866,308,1678,2030,312,-1.0,38.0,40.0,-136.41357421875,-44.921871185302734,-19.6533203125,-1.4854736328125,-0.259033203125,0.482421875
6.902,311,1704,2058,312,-1.0,38.0,40.0,-93.20067596435547,-26.428220748901367,-23.498533248901367,-1.4783935546875,-0.35302734375,0.4202880859375
6.902,310,1741,2087,312,-1.0,38.0,40.0,-30.395505905151367,-5.249022960662842,-13.549803733825684,-1.503662109375,-0.1556396484375,0.1650390625
6.902,310,1756,2057,309,-1.0,38.0,40.0,15.624999046325684,5.493163585662842,4.39453125,-1.57763671875,0.1177978515625,-0.090576171875
6.907,308,1761,2104,311,-1.0,38.0,40.0,31.311033248901367,4.7607421875,21.240232467651367,-1.6317138671875,0.3369140625,-0.228271484375
6.918,308,1774,2080,311,-1.0,38.0,40.0,23.925779342651367,-0.3662109076976776,31.555173873901367,-1.6038818359375,0.438720703125,-0.2891845703125
6.934,310,1761,2075,312,-1.0,38.0,40.0,6.103515148162842,-4.2724609375,33.0810546875,-1.36572265625,0.3533935546875,-0.251953125
6.935,310,1750,2060,298,-1.0,38.0,40.0,-3.173827886581421,-6.042479991912842,25.573728561401367,-1.055908203125,0.2803955078125,-0.1151123046875
6.948,310,1721,2030,311,-1.0,38.0,43.0,4.7607421875,-7.019042491912842,13.000487327575684,-0.9300537109375,0.3966064453125,0.0172119140625
6.956,310,1704,2045,311,-1.0,38.0,43.0,16.54052734375,-5.249022960662842,-2.38037109375,-0.943603515625,0.4915771484375,0.09423828125
6.964,310,1689,2052,311,-1.0,38.0,43.0,23.742673873901367,2.3193359375,-20.385740280151367,-1.0889892578125,0.5311279296875,0.091796875
6.982,311,1646,2052,311,-1.0,38.0,43.0,22.705076217651367,12.695311546325684,-35.64453125,-1.3499755859375,0.567138671875,0.017333984375
7.001,310,1611,2043,310,-1.0,38.0,43.0,6.591796398162842,19.53125,-43.090816497802734,-1.52099609375,0.4180908203125,-0.05224609375
7.001,311,1567,2028,310,-1.0,38.0,43.0,-16.78466796875,20.629880905151367,-41.625972747802734,-1.5101318359375,0.1331787109375,-0.0750732421875
7.009,311,1474,1973,310,-1.0,38.0,43.0,-28.625486373901367,17.51708984375,-30.944822311401367,-1.4361572265625,0.0087890625,-0.0887451171875
7.016,310,1413,1918,311,-1.0,38.0,43.0,-26.123044967651367,13.244627952575684,-15.380858421325684,-1.4019775390625,0.0802001953125,-0.1124267578125
7.024,309,1334,1868,311,-1.0,38.0,43.0,-21.850584030151367,10.742186546325684,-1.6479490995407104,-1.3807373046875,0.16845703125,-0.1129150390625
7.045,310,1173,1743,311,0.0,40.0,48.0,-21.545408248901367,11.535643577575684,6.652831554412842,-1.296142578125,0.1441650390625,-0.0528564453125
7.048,297,1054,1647,311,0.0,40.0,48.0,-16.6015625,14.709471702575684,9.1552734375,-1.1527099609375,0.03173828125,0.03125
7.054,310,994,1557,311,0.0,40.0,48.0,1.2817381620407104,18.5546875,7.446288585662842,-1.00537109375,-0.0782470703125,0.0916748046875
7.068,310,803,1351,311,0.0,40.0,48.0,30.822751998901367,22.521970748901367,3.601073980331421,-0.892333984375,-0.171875,0.147705078125
7.082,309,698,1217,311,0.0,40.0,48.0,64.88037109375,28.076169967651367,-0.4882812201976776,-0.814697265625,-0.2322998046875,0.197265625
7.084,310,653,1098,310,0.0,40.0,48.0,94.72655487060547,36.2548828125,-2.868652105331421,-0.7449951171875,-0.274658203125,0.2060546875
7.113,309,561,878,310,0.0,40.0,48.0,119.32372283935547,46.813961029052734,-0.9765624403953552,-0.6436767578125,-0.231201171875,0.115478515625
7.114,309,525,764,295,0.0,40.0,48.0,141.4794921875,56.640621185302734,6.591796398162842,-0.5579833984375,0.049072265625,-0.0845947265625
7.114,310,473,678,310,0.0,40.0,48.0,148.98681640625,56.945796966552734,15.502928733825684,-0.534423828125,0.447265625,-0.2652587890625
7.128,308,427,561,310,0.0,40.0,48.0,126.70897674560547,43.762203216552734,20.874021530151367,-0.5023193359375,0.69677734375,-0.326416015625
7.141,310,437,506,308,-2.0,39.0,41.0,80.2001953125,24.841306686401367,21.118162155151367,-0.48779296875,0.7451171875,-0.283203125
7.147,310,436,456,310,-2.0,39.0,41.0,28.747556686401367,9.21630859375,15.075682640075684,-0.531005859375,0.620361328125,-0.180419921875
7.158,310,438,452,308,-2.0,39.0,41.0,-9.765625,1.7089842557907104,1.03759765625,-0.6806640625,0.0303955078125,-0.1302490234375
7.166,310,451,472,308,-2.0,39.0,41.0,-17.08984375,4.57763671875,-17.822265625,-0.6806640625,0.0303955078125,-0.1302490234375
7.174,309,469,481,310,-2.0,39.0,41.0,5.554198741912842,9.82666015625,-28.015134811401367,-0.7681884765625,0.0528564453125,-0.1380615234375
7.188,310,506,493,309,-2.0,39.0,41.0,26.062009811401367,6.835937023162842,-24.719236373901367,-0.8436279296875,0.2847900390625,-0.0023193359375
7.202,310,523,505,310,-2.0,39.0,41.0,27.099607467651367,-1.5869139432907104,-18.798828125,-0.8436279296875,0.2847900390625,-0.0023193359375
7.208,310,537,513,308,-2.0,39.0,41.0,22.216794967651367,-6.469726085662842,-16.78466796875,-0.8538818359375,0.2490234375,0.0347900390625
7.219,310,561,542,310,-2.0,39.0,41.0,22.338865280151367,-6.042479991912842,-16.4794921875,-0.8533935546875,0.0792236328125,-0.0655517578125
7.226,310,578,561,308,-2.0,39.0,41.0,25.207517623901367,-4.94384765625,-15.502928733825684,-0.8533935546875,0.0792236328125,-0.0655517578125
7.234,309,594,577,310,-2.0,39.0,41.0,27.648923873901367,-6.958007335662842,-12.023924827575684,-0.897216796875,-0.0009765625,-0.1339111328125
7.253,310,635,613,310,-4.0,39.0,42.0,29.479978561401367,-10.620116233825684,-4.45556640625,-0.93359375,0.0667724609375,-0.1927490234375
7.256,310,660,668,310,-4.0,39.0,42.0,28.625486373901367,-13.061522483825684,5.859374523162842,-0.93359375,0.0667724609375,-0.1927490234375
7.267,310,698,737,310,-4.0,39.0,42.0,20.629880905151367,-14.648436546325684,15.319823265075684,-0.9068603515625,0.1485595703125,-0.16845703125
7.278,309,773,861,311,-4.0,39.0,42.0,7.446288585662842,-17.63916015625,21.240232467651367,-0.7598876953125,0.165771484375,-0.1009521484375
7.312,310,840,958,311,-4.0,39.0,42.0,-1.220703125,-21.972654342651367,23.925779342651367,-0.7598876953125,0.165771484375,-0.1009521484375
7.313,310,920,1065,311,-4.0,39.0,42.0,-0.54931640625,-25.878904342651367,25.024412155151367,-0.64501953125,0.1513671875,-0.13330078125
7.313,310,1047,1239,310,-4.0,39.0,42.0,-14.343260765075684,-27.526853561401367,22.521970748901367,-0.4976806640625,0.250244140625,-0.29345703125
7.317,309,1134,1353,310,-4.0,39.0,42.0,-14.343260765075684,-27.526853561401367,22.521970748901367,-0.520263671875,0.270263671875,-0.2943115234375
7.324,310,1219,1483,311,-4.0,39.0,42.0,-48.522945404052734,-26.672361373901367,18.61572265625,-0.520263671875,0.270263671875,-0.2943115234375
7.338,311,1353,1735,311,-1.0,37.0,42.0,-108.76464080810547,-26.428220748901367,10.009765625,-0.6678466796875,0.4000244140625,-0.2530517578125
7.357,312,1431,1888,312,-1.0,37.0,42.0,-108.76464080810547,-26.428220748901367,10.009765625,-0.95458984375,0.499267578125,-0.17431640625
7.360,310,1484,2016,311,-1.0,37.0,42.0,-114.25780487060547,-29.724119186401367,1.220703125,-0.95458984375,0.499267578125,-0.17431640625
7.369,310,1565,2137,312,-1.0,37.0,42.0,-145.56884765625,-48.767086029052734,-15.441893577575684,-1.4989013671875,0.0592041015625,0.37890625
7.379,311,1595,2165,312,-1.0,37.0,42.0,-145.56884765625,-48.767086029052734,-15.441893577575684,-1.5272216796875,-0.272705078125,0.42822265625
7.390,310,1622,2192,311,-1.0,37.0,42.0,-152.4658203125,-48.095699310302734,-12.878417015075684,-1.5272216796875,-0.272705078125,0.42822265625
7.415,310,1662,2217,310,-1.0,37.0,42.0,-58.532711029052734,-16.29638671875,7.751464366912842,-1.5013427734375,-0.1021728515625,0.127685546875
7.419,310,1678,2221,299,-1.0,37.0,42.0,-58.532711029052734,-16.29638671875,7.751464366912842,-1.495361328125,0.2244873046875,0.0352783203125
7.419,311,1689,2222,311,-1.0,37.0,42.0,-3.601073980331421,-4.57763671875,15.075682640075684,-1.495361328125,0.2244873046875,0.0352783203125
7.428,310,1677,2207,312,-1.0,37.0,42.0,22.949216842651367,0.1220703050494194,13.610838890075684,-1.299560546875,0.4317626953125,-0.091064453125
7.436,311,1656,2194,311,0.0,38.0,42.0,22.949216842651367,0.1220703050494194,13.610838890075684,-1.10693359375,0.3402099609375,-0.1824951171875
7.444,311,1640,2178,312,0.0,38.0,42.0,17.76123046875,2.01416015625,7.446288585662842,-1.10693359375,0.3402099609375,-0.1824951171875
7.464,309,1585,2142,312,0.0,38.0,42.0,15.380858421325684,-0.9155272841453552,-5.0048828125,-0.9830322265625,0.266845703125,-0.1290283203125
7.467,310,1553,2128,311,0.0,38.0,42.0,16.11328125,-2.50244140625,-10.559081077575684,-1.005859375,0.2227783203125,-0.02587890625
7.474,310,1540,2131,312,0.0,38.0,42.0,16.11328125,-2.50244140625,-10.559081077575684,-1.0709228515625,0.2027587890625,0.052001953125
7.517,310,1523,2127,311,0.0,38.0,42.0,17.2119140625,6.225585460662842,-18.12744140625,-1.2418212890625,0.27783203125,0.0550537109375
7.517,310,1504,2121,311,0.0,38.0,42.0,5.798339366912842,11.291502952575684,-15.991209983825684,-1.4180908203125,0.3363037109375,0.0089111328125
7.518,310,1472,2100,312,0.0,38.0,42.0,5.798339366912842,11.291502952575684,-15.991209983825684,-1.4525146484375,0.2562255859375,-0.0174560546875
7.521,310,1406,2035,311,0.0,38.0,42.0,-30.090330123901367,16.17431640625,-2.807616949081421,-1.3897705078125,0.1302490234375,-0.0072021484375
7.527,310,1348,1996,311,0.0,38.0,42.0,-28.015134811401367,16.54052734375,7.873534679412842,-1.336669921875,0.066162109375,0.0162353515625
7.535,311,1284,1939,311,0.0,40.0,42.0,-11.413573265075684,16.78466796875,19.47021484375,-1.3095703125,0.100341796875,0.0267333984375
7.543,311,1225,1880,310,0.0,40.0,42.0,-11.413573265075684,16.78466796875,19.47021484375,-1.2545166015625,0.1864013671875,0.0518798828125
7.558,310,1105,1735,312,0.0,40.0,42.0,30.761716842651367,19.287109375,29.296873092651367,-1.1331787109375,0.2366943359375,0.080078125
7.566,311,1026,1640,312,0.0,40.0,42.0,50.048824310302734,22.766111373901367,25.268552780151367,-0.99072265625,0.2152099609375,0.0634765625
7.573,310,960,1531,311,0.0,40.0,42.0,50.048824310302734,22.766111373901367,25.268552780151367,-0.8917236328125,0.1202392578125,0.033203125
7.594,310,826,1295,311,0.0,40.0,42.0,80.99364471435547,30.883787155151367,7.202147960662842,-0.873291015625,0.0296630859375,0.0107421875
7.595,310,742,1148,311,0.0,40.0,42.0,87.46337127685547,31.555173873901367,-3.173827886581421,-0.8387451171875,-0.0338134765625,-0.01708984375
7.617,310,698,1050,311,0.0,40.0,42.0,87.46337127685547,31.555173873901367,-3.173827886581421,-0.7159423828125,-0.0982666015625,-0.0623779296875
7.619,311,645,861,309,0.0,40.0,42.0,88.92821502685547,37.841796875,-13.427733421325684,-0.6248779296875,-0.0628662109375,-0.1068115234375
7.625,310,618,784,310,0.0,40.0,42.0,86.79198455810547,39.61181640625,-10.986327171325684,-0.6280517578125,0.119873046875,-0.1278076171875
7.633,310,588,725,310,-2.0,39.0,43.0,86.79198455810547,39.61181640625,-10.986327171325684,-0.6553955078125,0.2933349609375,-0.1357421875
7.647,310,558,639,309,-2.0,39.0,43.0,48.217769622802734,24.475095748901367,-1.9531248807907104,-0.6180419921875,0.3485107421875,-0.1387939453125
7.660,310,552,591,310,-2.0,39.0,43.0,21.972654342651367,16.7236328125,2.685546636581421,-0.533203125,0.349853515625,-0.1387939453125
7.663,310,558,566,310,-2.0,39.0,43.0,21.972654342651367,16.7236328125,2.685546636581421,-0.5257568359375,0.3719482421875,-0.1224365234375
7.677,308,578,545,308,-2.0,39.0,43.0,-13.488768577575684,6.103515148162842,11.657713890075684,-0.644287109375,0.3760986328125,-0.0797119140625
7.685,309,600,548,310,-2.0,39.0,43.0,-18.24951171875,1.15966796875,11.596678733825684,-0.7911376953125,0.3138427734375,-0.0419921875
7.697,308,614,547,310,-2.0,39.0,43.0,-10.070799827575684,-0.1831054538488388,8.48388671875,-0.885009765625,0.251220703125,-0.0537109375
7.721,309,644,538,310,-2.0,39.0,43.0,6.774901866912842,2.0751953125,4.39453125,-0.9244384765625,0.2340087890625,-0.09375
7.721,311,664,545,310,-2.0,39.0,43.0,23.132322311401367,4.7607421875,0.8544921278953552,-0.93115234375,0.22314453125,-0.1116943359375
7.726,297,683,551,311,-2.0,39.0,43.0,36.865234375,5.554198741912842,-0.7324218153953552,-0.937255859375,0.1854248046875,-0.0960693359375
7.738,309,703,554,310,-1.0,38.0,39.0,52.185054779052734,3.662109136581421,0.9765624403953552,-0.9561767578125,0.1298828125,-0.0738525390625
7.745,309,700,566,310,-1.0,38.0,39.0,70.1904296875,0.7324218153953552,6.896972179412842,-0.96337890625,0.1048583984375,-0.091552734375
7.753,310,705,574,308,-1.0,38.0,39.0,83.74022674560547,-2.624511480331421,14.709471702575684,-0.9326171875,0.1480712890625,-0.16064453125
7.767,310,740,594,309,-1.0,38.0,39.0,79.7119140625,-7.568358898162842,19.83642578125,-0.8807373046875,0.224365234375,-0.2333984375
7.779,309,750,616,309,-1.0,38.0,39.0,51.696773529052734,-14.160155296325684,19.53125,-0.860595703125,0.264892578125,-0.24365234375
7.783,308,771,664,310,-1.0,38.0,39.0,11.901854515075684,-20.812986373901367,16.05224609375,-0.8612060546875,0.26220703125,-0.2054443359375
7.800,309,814,771,310,-1.0,38.0,39.0,-20.263669967651367,-24.719236373901367,13.366698265075684,-0.830322265625,0.2530517578125,-0.1810302734375
7.821,309,858,846,311,-1.0,38.0,39.0,-39.1845703125,-24.963376998901367,12.084959983825684,-0.7452392578125,0.217529296875,-0.1220703125
7.822,310,920,944,299,-1.0,38.0,39.0,-42.175289154052734,-26.306150436401367,10.253905296325684,-0.61572265625,0.1856689453125,-0.0322265625
7.830,310,1022,1108,311,-1.0,38.0,39.0,-31.494138717651367,-31.921384811401367,5.920409679412842,-0.495849609375,0.224365234375,-0.0693359375
7.836,310,1096,1192,311,-3.0,38.0,38.0,-32.8369140625,-35.46142578125,-2.197265625,-0.49658203125,0.279296875,-0.2652587890625
7.843,310,1173,1297,311,-3.0,38.0,38.0,-70.25146484375,-32.40966796875,-8.7890625,-0.5936279296875,0.264404296875,-0.3822021484375
7.857,310,1308,1452,310,-3.0,38.0,38.0,-124.69481658935547,-28.747556686401367,-6.774901866912842,-0.620361328125,0.1959228515625,-0.3050537109375
7.865,310,1386,1567,310,-3.0,38.0,38.0,-153.25927734375,-28.137205123901367,2.44140625,-0.6370849609375,0.236083984375,-0.220947265625
7.873,310,1456,1732,310,-3.0,38.0,38.0,-148.25439453125,-29.174802780151367,10.559081077575684,-0.7757568359375,0.4671630859375,-0.18359375
7.887,310,1543,1951,311,-3.0,38.0,38.0,-142.2119140625,-33.5693359375,10.375975608825684,-1.009765625,0.67138671875,-0.01513671875
7.903,310,1585,2018,312,-3.0,38.0,38.0,-156.3720703125,-42.907711029052734,1.4038084745407104,-1.2490234375,0.489501953125,0.302978515625
7.903,310,1582,2021,311,-3.0,38.0,38.0,-172.85154724121094,-49.560543060302734,-10.803221702575684,-1.3607177734375,-0.08984375,0.518798828125
7.917,311,1674,2098,311,-3.0,38.0,38.0,-150.5126953125,-42.602535247802734,-17.15087890625,-1.36865234375,-0.5478515625,0.4638671875
7.935,310,1691,2110,311,-3.0,38.0,38.0,-75.0732421875,-25.024412155151367,-9.70458984375,-1.4031982421875,-0.5006103515625,0.222412109375
7.942,310,1715,2113,312,0.0,37.0,35.0,7.568358898162842,-10.681151390075684,8.7890625,-1.48095703125,-0.0926513671875,-0.0172119140625
7.947,311,1734,2102,312,0.0,37.0,35.0,43.762203216552734,-5.798339366912842,27.282712936401367,-1.55712890625,0.354736328125,-0.1357421875
7.955,310,1721,2076,311,0.0,37.0,35.0,30.517576217651367,-4.33349609375,35.7666015625,-1.576904296875,0.614013671875,-0.1575927734375
7.967,310,1711,2047,310,0.0,37.0,35.0,0.1831054538488388,0.7324218153953552,30.029294967651367,-1.415771484375,0.583984375,-0.1221923828125
7.978,310,1652,1954,311,0.0,37.0,35.0,-12.390135765075684,8.23974609375,13.549803733825684,-1.1253662109375,0.435546875,-0.0330810546875
7.993,310,1634,1937,312,0.0,37.0,35.0,4.57763671875,12.512206077575684,-5.493163585662842,-0.965087890625,0.389892578125,0.058837890625
7.994,310,1621,1925,311,0.0,37.0,35.0,32.40966796875,13.366698265075684,-22.338865280151367,-1.0299072265625,0.4256591796875,0.0916748046875
8.007,310,1585,1884,311,0.0,37.0,35.0,48.645015716552734,16.2353515625,-33.935546875,-1.614990234375,0.546142578125,-0.04931640625
8.025,310,1536,1855,311,0.0,37.0,35.0,36.9873046875,20.568845748901367,-35.58349609375,-1.614990234375,0.546142578125,-0.04931640625
8.026,310,1486,1813,312,0.0,37.0,35.0,1.7089842557907104,22.338865280151367,-27.404783248901367,-1.66259765625,0.264404296875,-0.055908203125
8.037,308,1377,1709,311,0.0,37.0,39.0,-20.385740280151367,21.545408248901367,-12.512206077575684,-1.3197021484375,-0.02978515625,0.0216064453125
8.045,310,1308,1611,310,0.0,37.0,39.0,-11.718749046325684,19.53125,5.310058116912842,-1.3197021484375,-0.02978515625,0.0216064453125
8.055,310,1239,1518,312,0.0,37.0,39.0,10.925292015075684,18.37158203125,20.629880905151367,-1.19970703125,-0.030029296875,0.1156005859375
8.072,310,1120,1325,311,0.0,37.0,39.0,38.6962890625,20.751951217651367,31.677244186401367,-0.957275390625,0.0810546875,0.2193603515625
8.075,310,1029,1228,311,0.0,37.0,39.0,74.951171875,28.076169967651367,36.92626953125,-0.957275390625,0.0810546875,0.2193603515625
8.085,310,925,1089,310,0.0,37.0,39.0,110.29051971435547,37.2314453125,32.1044921875,-0.858154296875,0.177734375,0.154541015625
8.099,310,786,873,310,0.0,37.0,39.0,126.58690643310547,43.823238372802734,16.2353515625,-0.6558837890625,-0.0423583984375,-0.030029296875
8.107,310,740,792,310,0.0,37.0,39.0,122.07030487060547,47.058101654052734,-3.479003667831421,-0.6558837890625,-0.0423583984375,-0.030029296875
8.131,310,689,664,310,0.0,37.0,39.0,113.52538299560547,47.302242279052734,-17.9443359375,-0.5811767578125,-0.091796875,-0.1397705078125
8.132,309,604,568,310,0.0,37.0,39.0,109.43602752685547,41.564937591552734,-22.583005905151367,-0.6353759765625,0.26708984375,-0.26953125
8.136,310,588,538,308,-3.0,38.0,42.0,100.64696502685547,29.785154342651367,-18.61572265625,-0.580078125,0.3446044921875,-0.3504638671875
8.143,310,562,499,310,-3.0,38.0,42.0,79.7119140625,20.01953125,-10.498045921325684,-0.580078125,0.3446044921875,-0.3504638671875
8.158,309,554,473,310,-3.0,38.0,42.0,19.04296875,12.634276390075684,9.70458984375,-0.5303955078125,0.4931640625,-0.254638671875
8.171,310,561,479,309,-3.0,38.0,42.0,19.04296875,12.634276390075684,9.70458984375,-0.6387939453125,0.4932861328125,-0.109130859375
8.174,310,574,495,310,-3.0,38.0,42.0,-11.413573265075684,4.0283203125,16.66259765625,-0.6387939453125,0.4932861328125,-0.109130859375
8.187,310,594,519,309,-3.0,38.0,42.0,-29.724119186401367,-6.713866710662842,9.1552734375,-0.8045654296875,0.2755126953125,0.0126953125
8.195,310,606,535,309,-3.0,38.0,42.0,-29.724119186401367,-6.713866710662842,9.1552734375,-0.8583984375,0.2645263671875,-0.0201416015625
8.212,308,618,547,309,-3.0,38.0,42.0,-15.563963890075684,-4.08935546875,1.6479490995407104,-0.8583984375,0.2645263671875,-0.0201416015625
8.234,308,645,567,308,-3.0,38.0,42.0,12.390135765075684,0.7324218153953552,-7.446288585662842,-0.8721923828125,0.324462890625,-0.0618896484375
8.234,306,660,578,308,-3.0,38.0,42.0,12.390135765075684,0.7324218153953552,-7.446288585662842,-0.8677978515625,0.3359375,-0.0482177734375
8.235,310,673,586,310,-4.0,38.0,41.0,19.34814453125,0.0,-10.192870140075684,-0.8677978515625,0.3359375,-0.0482177734375
8.248,310,705,594,310,-4.0,38.0,41.0,26.489255905151367,-2.38037109375,-15.686034202575684,-0.8717041015625,0.188232421875,-0.044921875
8.255,307,716,608,310,-4.0,38.0,41.0,26.489255905151367,-2.38037109375,-15.686034202575684,-0.8851318359375,0.1162109375,-0.1170654296875
8.263,310,741,622,310,-4.0,38.0,41.0,29.174802780151367,-1.8310545682907104,-14.648436546325684,-0.8851318359375,0.1162109375,-0.1170654296875
8.281,310,790,657,310,-4.0,38.0,41.0,13.366698265075684,-4.69970703125,-0.6103515625,-0.900146484375,0.0714111328125,-0.1923828125
8.286,310,818,721,310,-4.0,38.0,41.0,13.366698265075684,-4.69970703125,-0.6103515625,-0.9039306640625,0.0963134765625,-0.1746826171875
8.293,310,854,806,310,-4.0,38.0,41.0,-0.9765624403953552,-8.85009765625,9.58251953125,-0.894287109375,0.1402587890625,-0.15234375
8.334,310,942,959,310,-4.0,38.0,41.0,-15.197752952575684,-14.343260765075684,22.583005905151367,-0.832275390625,0.207275390625,-0.140625
8.335,310,999,1074,310,-4.0,38.0,41.0,-21.484373092651367,-14.465331077575684,20.385740280151367,-0.697509765625,0.2752685546875,-0.1646728515625
8.335,310,1074,1186,310,-4.0,38.0,41.0,-21.484373092651367,-14.465331077575684,20.385740280151367,-0.578125,0.275146484375,-0.2066650390625
8.340,310,1189,1357,312,-2.0,39.0,40.0,-71.77734375,-6.408690929412842,4.0283203125,-0.5418701171875,0.2305908203125,-0.2203369140625
8.345,310,1251,1464,310,-2.0,39.0,40.0,-96.74071502685547,-1.5869139432907104,3.234863042831421,-0.4827880859375,0.236572265625,-0.20458984375
8.353,310,1338,1569,311,-2.0,39.0,40.0,-96.74071502685547,-1.5869139432907104,3.234863042831421,-0.384033203125,0.3310546875,-0.2349853515625
8.367,310,1487,1819,312,-2.0,39.0,40.0,-85.38817596435547,-7.080077648162842,7.019042491912842,-0.4139404296875,0.498779296875,-0.2967529296875
8.379,312,1560,1966,312,-2.0,39.0,40.0,-87.15819549560547,-19.1650390625,3.051757574081421,-0.62255859375,0.66357421875,-0.18701171875
8.383,311,1624,2070,311,-2.0,39.0,40.0,-87.15819549560547,-19.1650390625,3.051757574081421,-0.9781494140625,0.562744140625,0.16162109375
8.398,310,1687,2156,312,-2.0,39.0,40.0,-154.1748046875,-52.124019622802734,-11.413573265075684,-1.3719482421875,0.0186767578125,0.468017578125
8.405,310,1723,2180,312,-2.0,39.0,40.0,-165.03904724121094,-50.598140716552734,-19.04296875,-1.6241455078125,-0.56396484375,0.47900390625
8.436,310,1750,2192,312,-2.0,39.0,40.0,-165.03904724121094,-50.598140716552734,-19.04296875,-1.7166748046875,-0.585693359375,0.2099609375
8.436,310,1785,2213,310,-5.0,39.0,37.0,-28.381345748901367,-3.967284917831421,-1.220703125,-1.7344970703125,-0.08154296875,-0.1229248046875
8.437,311,1792,2215,312,-5.0,39.0,37.0,26.550291061401367,4.39453125,17.7001953125,-1.7171630859375,0.4287109375,-0.263916015625
8.443,311,1792,2194,311,-5.0,39.0,37.0,33.3251953125,-1.220703125,27.770994186401367,-1.6358642578125,0.6585693359375,-0.228515625
8.457,310,1773,2161,311,-5.0,39.0,37.0,17.63916015625,-5.920409679412842,25.817869186401367,-1.3624267578125,0.5477294921875,-0.1116943359375
8.466,310,1747,2128,312,-5.0,39.0,37.0,10.253905296325684,-3.662109136581421,14.587401390075684,-1.0283203125,0.3717041015625,0.033447265625
8.473,308,1727,2096,312,-5.0,39.0,37.0,23.071287155151367,2.50244140625,0.4882812201976776,-0.89990234375,0.4033203125,0.103515625
8.487,310,1704,2098,311,-5.0,39.0,37.0,39.48974609375,11.718749046325684,-13.916014671325684,-0.97900390625,0.5008544921875,0.0582275390625
8.495,310,1681,2096,311,-5.0,39.0,37.0,44.555660247802734,23.925779342651367,-27.526853561401367,-1.23974609375,0.62890625,-0.07861328125
8.506,310,1666,2076,312,-5.0,39.0,37.0,29.113767623901367,32.40966796875,-35.33935546875,-1.5037841796875,0.64501953125,-0.1839599609375
8.535,311,1609,2030,310,-5.0,39.0,37.0,-3.662109136581421,32.2265625,-36.80419921875,-1.5350341796875,0.3875732421875,-0.16259765625
8.539,310,1562,1994,310,-5.0,39.0,37.0,-25.512693405151367,26.611326217651367,-32.8369140625,-1.3800048828125,0.12890625,-0.081298828125
8.539,310,1519,1943,312,0.0,37.0,43.0,-22.766111373901367,19.83642578125,-23.315427780151367,-1.225830078125,0.0753173828125,-0.0107421875
8.547,310,1415,1840,311,0.0,37.0,43.0,-10.437010765075684,15.014647483825684,-11.535643577575684,-1.1796875,0.1002197265625,0.03369140625
8.555,310,1361,1757,311,0.0,37.0,43.0,-1.15966796875,14.465331077575684,-0.7324218153953552,-1.200927734375,0.07177734375,0.060302734375
8.563,311,1289,1689,312,0.0,37.0,43.0,10.803221702575684,18.1884765625,8.97216796875,-1.182373046875,0.03955078125,0.0537109375
8.582,311,1151,1514,311,0.0,37.0,43.0,29.724119186401367,23.315427780151367,15.991209983825684,-1.100341796875,0.0546875,0.009033203125
8.586,310,1047,1395,311,0.0,37.0,43.0,49.194332122802734,25.756834030151367,17.63916015625,-0.9986572265625,0.0557861328125,-0.0166015625
8.593,310,939,1239,310,0.0,37.0,43.0,67.32177734375,25.573728561401367,12.695311546325684,-0.919189453125,0.00732421875,0.000244140625
8.607,310,775,1038,310,0.0,37.0,43.0,83.98436737060547,25.695798873901367,2.25830078125,-0.8314208984375,-0.0723876953125,0.013671875
8.641,310,711,917,312,0.0,37.0,43.0,97.65624237060547,28.625486373901367,-9.58251953125,-0.7120361328125,-0.091796875,-0.0267333984375
8.642,310,663,818,309,0.0,37.0,43.0,107.48290252685547,32.65380859375,-17.822265625,-0.6339111328125,0.0391845703125,-0.0865478515625
8.642,309,586,648,310,-4.0,41.0,41.0,108.03221893310547,31.799314498901367,-20.568845748901367,-0.6236572265625,0.2412109375,-0.1400146484375
8.648,310,548,585,310,-4.0,41.0,41.0,94.05516815185547,25.756834030151367,-20.202634811401367,-0.622802734375,0.3720703125,-0.2122802734375
8.653,309,524,522,310,-4.0,41.0,41.0,69.64111328125,19.83642578125,-17.88330078125,-0.56494140625,0.4346923828125,-0.28564453125
8.667,310,485,469,310,-4.0,41.0,41.0,42.175289154052734,15.808104515075684,-12.207030296325684,-0.4901123046875,0.498291015625,-0.2989501953125
