time,compression0,compression1,compression2,compression3,magn_x,magn_y,magn_z,gyro_x,gyro_y,gyro_z,accel_x,accel_y,accel_z
0.009,310,385,467,308,-9.0,47.0,40.0,-1.6479490995407104,-1.5258787870407104,-2.01416015625,-0.78759765625,0.5938720703125,-0.08935546875
0.010,294,385,469,309,-9.0,47.0,40.0,-1.5869139432907104,-1.6479490995407104,-2.13623046875,-0.788330078125,0.593017578125,-0.0904541015625
0.035,310,384,468,308,-9.0,47.0,40.0,-1.2817381620407104,-1.8310545682907104,-2.197265625,-0.7886962890625,0.593017578125,-0.091064453125
0.035,309,384,467,310,-9.0,47.0,40.0,-0.9765624403953552,-2.0751953125,-2.197265625,-0.7877197265625,0.593994140625,-0.0904541015625
0.041,310,381,469,309,-9.0,47.0,40.0,-0.6713866591453552,-2.197265625,-2.25830078125,-0.78564453125,0.5950927734375,-0.0889892578125
0.065,310,384,467,309,-9.0,47.0,40.0,-0.54931640625,-2.25830078125,-2.38037109375,-0.7838134765625,0.5960693359375,-0.087890625
0.065,309,384,463,310,-9.0,47.0,40.0,-0.54931640625,-2.25830078125,-2.50244140625,-0.7841796875,0.5987548828125,-0.087646484375
0.071,310,383,463,310,-9.0,47.0,40.0,-0.6713866591453552,-2.25830078125,-2.685546636581421,-0.7847900390625,0.6014404296875,-0.086669921875
0.084,310,384,456,309,-10.0,44.0,35.0,-0.7934569716453552,-2.197265625,-2.929687261581421,-0.7841796875,0.599365234375,-0.0850830078125
0.092,309,381,452,310,-10.0,44.0,35.0,-0.7934569716453552,-2.0751953125,-3.356933355331421,-0.7841796875,0.5941162109375,-0.0838623046875
0.102,309,382,454,309,-10.0,44.0,35.0,-0.6713866591453552,-1.9531248807907104,-3.723144292831421,-0.7841796875,0.5924072265625,-0.08447265625
0.120,309,379,452,308,-10.0,44.0,35.0,-0.4272460639476776,-1.9531248807907104,-3.967284917831421,-0.7841796875,0.5953369140625,-0.08642578125
0.122,310,378,456,310,-10.0,44.0,35.0,-0.4272460639476776,-2.197265625,-4.33349609375,-0.7855224609375,0.5982666015625,-0.08837890625
0.134,306,374,454,309,-10.0,44.0,35.0,-0.6103515625,-2.50244140625,-4.82177734375,-0.788330078125,0.5992431640625,-0.090576171875
0.168,308,373,456,310,-10.0,44.0,35.0,-0.9765624403953552,-2.807616949081421,-5.187987804412842,-0.7921142578125,0.5980224609375,-0.0928955078125
0.168,308,372,456,310,-10.0,44.0,35.0,-1.5258787870407104,-2.929687261581421,-5.493163585662842,-0.796142578125,0.5933837890625,-0.09423828125
0.168,296,371,456,309,-10.0,44.0,35.0,-2.38037109375,-3.112792730331421,-5.676269054412842,-0.799560546875,0.5872802734375,-0.094970703125
0.169,308,363,452,308,-10.0,44.0,35.0,-3.417968511581421,-3.295898199081421,-5.615233898162842,-0.8001708984375,0.58154296875,-0.0921630859375
0.183,308,372,456,310,-14.0,45.0,36.0,-3.967284917831421,-3.601073980331421,-5.371093273162842,-0.796875,0.5784912109375,-0.0858154296875
0.192,309,367,454,310,-14.0,45.0,36.0,-3.967284917831421,-3.784179449081421,-5.249022960662842,-0.7916259765625,0.579833984375,-0.0806884765625
0.199,309,371,452,310,-14.0,45.0,36.0,-4.0283203125,-3.967284917831421,-5.432128429412842,-0.786376953125,0.585205078125,-0.07958984375
0.213,308,372,452,310,-14.0,45.0,36.0,-4.57763671875,-4.33349609375,-6.042479991912842,-0.7823486328125,0.59130859375,-0.0797119140625
0.221,308,372,452,308,-14.0,45.0,36.0,-5.737304210662842,-4.82177734375,-6.835937023162842,-0.77783203125,0.5897216796875,-0.0718994140625
0.242,310,371,449,310,-14.0,45.0,36.0,-5.981444835662842,-4.94384765625,-7.507323741912842,-0.7752685546875,0.584716796875,-0.0634765625
0.244,308,371,444,310,-14.0,45.0,36.0,-4.8828125,-4.5166015625,-7.629394054412842,-0.77685546875,0.587158203125,-0.0665283203125
0.264,310,372,441,310,-14.0,45.0,36.0,-4.2724609375,-4.33349609375,-7.690429210662842,-0.7825927734375,0.58984375,-0.0706787109375
0.264,309,373,444,310,-14.0,45.0,36.0,-4.7607421875,-4.638671875,-7.873534679412842,-0.7904052734375,0.5855712890625,-0.0701904296875
0.273,309,373,440,310,-14.0,45.0,36.0,-5.249022960662842,-4.5166015625,-7.934569835662842,-0.796875,0.5777587890625,-0.0704345703125
0.281,308,372,444,310,-9.0,45.0,38.0,-5.126952648162842,-3.967284917831421,-7.629394054412842,-0.80029296875,0.5689697265625,-0.07080078125
0.289,308,373,441,310,-9.0,45.0,38.0,-4.638671875,-3.356933355331421,-6.958007335662842,-0.8016357421875,0.5616455078125,-0.070068359375
0.303,310,373,439,308,-9.0,45.0,38.0,-4.0283203125,-2.868652105331421,-6.103515148162842,-0.8011474609375,0.5592041015625,-0.06884765625
0.312,310,372,439,310,-9.0,45.0,38.0,-3.356933355331421,-2.746581792831421,-5.249022960662842,-0.7987060546875,0.5611572265625,-0.06640625
0.320,310,373,444,309,-9.0,45.0,38.0,-2.563476324081421,-2.929687261581421,-4.57763671875,-0.7974853515625,0.56494140625,-0.0654296875
0.346,310,379,444,309,-9.0,45.0,38.0,-1.8920897245407104,-3.356933355331421,-4.0283203125,-0.8018798828125,0.573486328125,-0.0736083984375
0.347,308,379,441,310,-9.0,45.0,38.0,-1.6479490995407104,-3.784179449081421,-3.540038824081421,-0.8018798828125,0.573486328125,-0.0736083984375
0.368,309,379,446,309,-9.0,45.0,38.0,-1.6479490995407104,-4.150390625,-3.234863042831421,-0.8035888671875,0.574462890625,-0.0709228515625
0.368,310,379,439,308,-9.0,45.0,38.0,-1.7700194120407104,-4.33349609375,-3.112792730331421,-0.8048095703125,0.5723876953125,-0.0662841796875
0.382,310,379,441,309,-9.0,45.0,38.0,-1.8920897245407104,-4.45556640625,-2.990722417831421,-0.8048095703125,0.5723876953125,-0.0662841796875
0.382,309,380,447,309,-7.0,46.0,38.0,-2.01416015625,-4.57763671875,-2.929687261581421,-0.8021240234375,0.5706787109375,-0.064453125
0.393,308,385,447,310,-7.0,46.0,38.0,-2.0751953125,-4.7607421875,-2.990722417831421,-0.7938232421875,0.565673828125,-0.061279296875
0.402,309,384,449,310,-7.0,46.0,38.0,-2.13623046875,-4.94384765625,-3.112792730331421,-0.7938232421875,0.565673828125,-0.061279296875
0.410,310,384,452,308,-7.0,46.0,38.0,-2.0751953125,-5.187987804412842,-3.356933355331421,-0.79296875,0.5677490234375,-0.061767578125
0.423,310,386,452,309,-7.0,46.0,38.0,-2.0751953125,-5.493163585662842,-3.601073980331421,-0.7958984375,0.5782470703125,-0.0550537109375
0.432,310,382,456,310,-7.0,46.0,38.0,-1.9531248807907104,-5.798339366912842,-3.967284917831421,-0.7958984375,0.5782470703125,-0.0550537109375
0.442,308,384,454,310,-7.0,46.0,38.0,-1.7089842557907104,-5.920409679412842,-4.45556640625,-0.7982177734375,0.579833984375,-0.0526123046875
0.470,310,384,454,310,-7.0,46.0,38.0,-1.2817381620407104,-5.798339366912842,-4.8828125,-0.8023681640625,0.5755615234375,-0.0516357421875
0.471,309,369,430,309,-7.0,46.0,38.0,-0.9155272841453552,-5.554198741912842,-5.249022960662842,-0.8023681640625,0.5755615234375,-0.0516357421875
0.471,308,384,451,310,-7.0,46.0,38.0,-0.8544921278953552,-5.432128429412842,-5.554198741912842,-0.8021240234375,0.5733642578125,-0.0489501953125
0.488,308,387,449,308,-8.0,42.0,41.0,-0.9155272841453552,-5.432128429412842,-5.737304210662842,-0.8074951171875,0.5716552734375,-0.05224609375
0.492,310,386,452,309,-8.0,42.0,41.0,-0.9155272841453552,-5.432128429412842,-5.737304210662842,-0.8077392578125,0.5699462890625,-0.0555419921875
0.500,309,386,452,310,-8.0,42.0,41.0,-0.6103515625,-5.432128429412842,-5.859374523162842,-0.8077392578125,0.5699462890625,-0.0555419921875
0.515,308,386,452,310,-8.0,42.0,41.0,-0.1220703050494194,-5.676269054412842,-5.920409679412842,-0.8045654296875,0.558349609375,-0.0501708984375
0.522,309,390,452,310,-8.0,42.0,41.0,-0.1220703050494194,-5.676269054412842,-5.920409679412842,-0.8048095703125,0.55224609375,-0.04638671875
0.530,310,387,452,310,-8.0,42.0,41.0,-0.0610351525247097,-5.737304210662842,-5.676269054412842,-0.8048095703125,0.55224609375,-0.04638671875
0.544,308,391,456,310,-8.0,42.0,41.0,-0.6103515625,-5.676269054412842,-4.5166015625,-0.8045654296875,0.547607421875,-0.041259765625
0.552,310,391,465,310,-8.0,42.0,41.0,-0.6103515625,-5.676269054412842,-4.5166015625,-0.806396484375,0.5469970703125,-0.038818359375
0.575,308,393,465,310,-8.0,42.0,41.0,-1.03759765625,-5.615233898162842,-3.845214605331421,-0.806396484375,0.5469970703125,-0.038818359375
0.575,308,394,465,309,-6.0,43.0,35.0,-0.9155272841453552,-5.554198741912842,-2.990722417831421,-0.813720703125,0.5526123046875,-0.039794921875
0.582,309,393,465,309,-6.0,43.0,35.0,-0.9155272841453552,-5.554198741912842,-2.990722417831421,-0.8197021484375,0.55078125,-0.0418701171875
0.596,310,393,472,310,-6.0,43.0,35.0,-0.7934569716453552,-5.432128429412842,-2.624511480331421,-0.8197021484375,0.55078125,-0.0418701171875
0.603,309,395,479,310,-6.0,43.0,35.0,-0.8544921278953552,-5.310058116912842,-0.9765624403953552,-0.818359375,0.5570068359375,-0.0382080078125
0.613,308,396,488,310,-6.0,43.0,35.0,-0.8544921278953552,-5.310058116912842,-0.9765624403953552,-0.817626953125,0.5592041015625,-0.040283203125
0.620,310,396,485,310,-6.0,43.0,35.0,-0.7324218153953552,-5.310058116912842,-0.30517578125,-0.817626953125,0.5592041015625,-0.040283203125
0.634,310,396,493,309,-6.0,43.0,35.0,-1.3427733182907104,-5.310058116912842,1.2817381620407104,-0.8179931640625,0.5389404296875,-0.04248046875
0.647,309,398,498,310,-6.0,43.0,35.0,-2.01416015625,-5.371093273162842,2.868652105331421,-0.8072509765625,0.530029296875,-0.03271484375
0.650,310,399,504,308,-6.0,43.0,35.0,-2.01416015625,-5.371093273162842,2.868652105331421,-0.79150390625,0.5311279296875,-0.0211181640625
0.683,310,398,508,310,-6.0,43.0,35.0,-1.6479490995407104,-4.94384765625,5.187987804412842,-0.7808837890625,0.5401611328125,-0.0162353515625
0.684,309,399,510,310,-8.0,44.0,34.0,-0.9155272841453552,-4.7607421875,4.94384765625,-0.776611328125,0.5517578125,-0.018310546875
0.684,310,396,509,310,-8.0,44.0,34.0,-0.9155272841453552,-4.7607421875,4.94384765625,-0.7791748046875,0.563232421875,-0.02734375
0.701,308,399,512,310,-8.0,44.0,34.0,-0.30517578125,-5.432128429412842,3.845214605331421,-0.7879638671875,0.5726318359375,-0.0372314453125
0.702,310,396,512,308,-8.0,44.0,34.0,-0.4882812201976776,-6.042479991912842,3.784179449081421,-0.795166015625,0.572998046875,-0.0379638671875
0.710,309,402,518,311,-8.0,44.0,34.0,-0.4882812201976776,-6.042479991912842,3.784179449081421,-0.79541015625,0.56591796875,-0.0330810546875
0.723,308,402,523,310,-8.0,44.0,34.0,0.6713866591453552,-6.591796398162842,4.7607421875,-0.78564453125,0.5589599609375,-0.026611328125
0.733,310,402,531,310,-8.0,44.0,34.0,2.50244140625,-6.652831554412842,5.187987804412842,-0.7608642578125,0.5494384765625,-0.020751953125
0.739,310,402,538,310,-8.0,44.0,34.0,2.50244140625,-6.652831554412842,5.187987804412842,-0.724853515625,0.5321044921875,-0.0186767578125
0.755,308,419,552,310,-8.0,44.0,34.0,4.57763671875,-5.981444835662842,4.33349609375,-0.6832275390625,0.505126953125,-0.0145263671875
0.777,310,428,585,311,-8.0,44.0,34.0,3.540038824081421,-4.94384765625,3.295898199081421,-0.6199951171875,0.4671630859375,0.010009765625
0.778,309,435,631,310,-8.0,44.0,34.0,3.540038824081421,-4.94384765625,3.295898199081421,-0.5302734375,0.41552734375,0.0552978515625
0.783,309,456,693,310,-9.0,44.0,39.0,1.6479490995407104,-3.845214605331421,-2.807616949081421,-0.4141845703125,0.33203125,0.124755859375
0.797,309,478,732,310,-9.0,44.0,39.0,5.859374523162842,-4.69970703125,-10.803221702575684,-0.3153076171875,0.25927734375,0.194091796875
0.807,310,504,784,312,-9.0,44.0,39.0,17.578125,-5.187987804412842,-20.935056686401367,-0.2625732421875,0.2659912109375,0.2330322265625
0.813,310,551,912,311,-9.0,44.0,39.0,30.395505905151367,-6.408690929412842,-32.65380859375,-0.2132568359375,0.2939453125,0.259521484375
0.821,310,592,981,310,-9.0,44.0,39.0,36.62109375,-10.070799827575684,-45.898433685302734,-0.1842041015625,0.287109375,0.262939453125
0.829,310,636,1043,310,-9.0,44.0,39.0,37.59765625,-14.526366233825684,-57.739253997802734,-0.22998046875,0.3565673828125,0.2059326171875
0.851,308,703,1153,311,-9.0,44.0,39.0,39.4287109375,-13.732909202575684,-63.110347747802734,-0.47265625,0.6494140625,-0.01025390625
0.853,311,730,1198,312,-9.0,44.0,39.0,40.405269622802734,-3.845214605331421,-58.349605560302734,-0.9847412109375,1.1322021484375,-0.390869140625
0.859,310,758,1231,312,-9.0,44.0,39.0,31.066892623901367,5.493163585662842,-46.081539154052734,-1.43115234375,1.474609375,-0.6285400390625
0.885,310,793,1255,311,-6.0,42.0,36.0,9.3994140625,3.417968511581421,-34.5458984375,-1.638671875,1.3651123046875,-0.598876953125
0.885,295,803,1280,312,-6.0,42.0,36.0,-17.822265625,-9.8876953125,-27.099607467651367,-1.8070068359375,0.94970703125,-0.4276123046875
0.889,310,796,1268,312,-6.0,42.0,36.0,-40.344234466552734,-27.893064498901367,-20.507810592651367,-1.934326171875,0.4913330078125,-0.19873046875
0.916,310,779,1268,312,-6.0,42.0,36.0,-45.410152435302734,-38.14697265625,-14.892577171325684,-1.7882080078125,0.0343017578125,0.017822265625
0.916,310,755,1236,312,-6.0,42.0,36.0,-28.564451217651367,-33.203125,-13.305663108825684,-1.3809814453125,-0.24658203125,0.1571044921875
0.920,310,726,1191,311,-6.0,42.0,36.0,0.0610351525247097,-19.71435546875,-11.474608421325684,-1.0296630859375,-0.052734375,0.1474609375
0.933,309,712,1189,311,-6.0,42.0,36.0,24.841306686401367,-6.164550304412842,-4.57763671875,-0.859130859375,0.441650390625,0.0369873046875
0.941,309,713,1209,312,-6.0,42.0,36.0,36.56005859375,4.21142578125,1.5258787870407104,-0.8876953125,0.8494873046875,-0.1168212890625
1.000,310,711,1216,312,-6.0,42.0,36.0,33.5693359375,8.9111328125,2.624511480331421,-1.1380615234375,1.1217041015625,-0.2725830078125
1.000,310,688,1211,312,-6.0,42.0,36.0,14.160155296325684,3.906249761581421,2.624511480331421,-1.406982421875,1.2003173828125,-0.316650390625
1.000,310,668,1196,313,-5.0,43.0,39.0,-12.634276390075684,-6.591796398162842,3.662109136581421,-1.481201171875,1.01904296875,-0.2227783203125
1.000,310,638,1155,311,-5.0,43.0,39.0,-31.494138717651367,-14.038084983825684,6.103515148162842,-1.3677978515625,0.7548828125,-0.06689453125
1.000,310,594,1063,311,-5.0,43.0,39.0,-35.46142578125,-15.869139671325684,10.253905296325684,-1.1602783203125,0.5755615234375,0.1097412109375
1.001,310,558,1014,312,-5.0,43.0,39.0,-26.123044967651367,-13.610838890075684,13.488768577575684,-0.9566650390625,0.46435546875,0.249267578125
1.014,311,533,953,312,-5.0,43.0,39.0,-10.681151390075684,-8.23974609375,11.962889671325684,-0.8074951171875,0.36865234375,0.2615966796875
1.027,311,502,832,310,-5.0,43.0,39.0,3.723144292831421,-0.8544921278953552,5.676269054412842,-0.7064208984375,0.272216796875,0.1793212890625
1.032,310,486,779,312,-5.0,43.0,39.0,13.854979515075684,4.150390625,-3.723144292831421,-0.616455078125,0.162353515625,0.1151123046875
1.039,310,473,747,311,-5.0,43.0,39.0,21.484373092651367,6.042479991912842,-14.343260765075684,-0.542724609375,0.0614013671875,0.0045166015625
1.056,310,456,703,311,-5.0,43.0,39.0,29.846189498901367,11.047362327575684,-22.766111373901367,-0.531494140625,0.0709228515625,-0.1905517578125
1.061,310,449,684,312,-5.0,43.0,39.0,38.02490234375,17.7001953125,-25.024412155151367,-0.5762939453125,0.24609375,-0.304931640625
1.073,309,439,671,311,-6.0,44.0,41.0,39.48974609375,17.9443359375,-21.301267623901367,-0.6353759765625,0.4879150390625,-0.2918701171875
1.083,310,435,660,311,-6.0,44.0,41.0,31.433103561401367,11.840819358825684,-16.357421875,-0.6739501953125,0.663330078125,-0.24267578125
1.092,309,430,650,312,-6.0,44.0,41.0,15.624999046325684,3.417968511581421,-14.404295921325684,-0.6778564453125,0.6951904296875,-0.1800537109375
1.099,310,425,654,310,-6.0,44.0,41.0,-3.234863042831421,-4.7607421875,-15.502928733825684,-0.6607666015625,0.6177978515625,-0.0987548828125
1.113,310,430,642,310,-6.0,44.0,41.0,-17.15087890625,-10.681151390075684,-16.9677734375,-0.66552734375,0.4317626953125,0.039306640625
1.126,309,435,643,311,-6.0,44.0,41.0,-22.338865280151367,-13.610838890075684,-17.4560546875,-0.66552734375,0.4317626953125,0.039306640625
1.134,310,438,646,310,-6.0,44.0,41.0,-20.690916061401367,-14.343260765075684,-17.2119140625,-0.69140625,0.3837890625,0.0753173828125
1.143,309,441,654,311,-6.0,44.0,41.0,-15.502928733825684,-13.244627952575684,-16.29638671875,-0.7384033203125,0.4693603515625,0.0855712890625
1.161,310,447,649,310,-6.0,44.0,41.0,-10.559081077575684,-11.535643577575684,-14.892577171325684,-0.7384033203125,0.4693603515625,0.0855712890625
1.161,289,426,653,310,-6.0,44.0,41.0,-8.544921875,-11.840819358825684,-13.366698265075684,-0.789306640625,0.530517578125,0.091064453125
1.185,310,449,666,311,-4.0,43.0,34.0,-9.6435546875,-14.465331077575684,-12.084959983825684,-0.805908203125,0.50927734375,0.123291015625
1.188,310,449,671,311,-4.0,43.0,34.0,-10.437010765075684,-16.2353515625,-11.413573265075684,-0.805908203125,0.50927734375,0.123291015625
1.190,311,452,671,310,-4.0,43.0,34.0,-7.568358898162842,-14.709471702575684,-11.230467796325684,-0.8076171875,0.4456787109375,0.0950927734375
1.204,308,454,683,310,-4.0,43.0,34.0,-1.6479490995407104,-10.681151390075684,-10.437010765075684,-0.8240966796875,0.3900146484375,0.028076171875
1.212,311,455,684,311,-4.0,43.0,34.0,3.234863042831421,-6.835937023162842,-7.690429210662842,-0.8240966796875,0.3900146484375,0.028076171875
1.220,311,456,685,311,-4.0,43.0,34.0,4.69970703125,-4.82177734375,-3.051757574081421,-0.8165283203125,0.3984375,0.0184326171875
1.239,309,465,703,310,-4.0,43.0,34.0,2.563476324081421,-3.784179449081421,2.624511480331421,-0.755859375,0.38330078125,0.0118408203125
1.246,308,475,710,311,-4.0,43.0,34.0,-2.197265625,-3.051757574081421,8.48388671875,-0.68408203125,0.347412109375,0.0242919921875
1.249,310,483,740,310,-4.0,43.0,34.0,-7.385253429412842,-2.563476324081421,13.427733421325684,-0.68408203125,0.347412109375,0.0242919921875
1.263,308,505,780,311,-4.0,43.0,34.0,-11.596678733825684,-2.685546636581421,17.39501953125,-0.4390869140625,0.263671875,0.0936279296875
1.288,310,523,822,312,-4.0,42.0,38.0,-11.596678733825684,-2.685546636581421,17.39501953125,-0.327880859375,0.234130859375,0.122802734375
1.289,308,547,861,311,-4.0,42.0,38.0,-9.33837890625,-3.356933355331421,15.686034202575684,-0.327880859375,0.234130859375,0.122802734375
1.294,309,601,972,310,-4.0,42.0,38.0,-2.38037109375,-7.690429210662842,7.202147960662842,-0.1357421875,0.19677734375,0.2275390625
1.302,310,642,1063,312,-4.0,42.0,38.0,-2.38037109375,-7.690429210662842,7.202147960662842,0.0384521484375,0.0906982421875,0.3262939453125
1.310,310,693,1143,312,-4.0,42.0,38.0,2.0751953125,-11.108397483825684,-3.173827886581421,0.0384521484375,0.0906982421875,0.3262939453125
1.324,310,778,1243,312,-4.0,42.0,38.0,39.00146484375,-8.60595703125,-31.188962936401367,-0.302001953125,0.3348388671875,0.2071533203125
1.340,310,826,1297,312,-4.0,42.0,38.0,39.00146484375,-8.60595703125,-31.188962936401367,-0.9571533203125,0.9583740234375,-0.2347412109375
1.340,311,871,1344,312,-4.0,42.0,38.0,57.067867279052734,-6.103515148162842,-35.09521484375,-0.9571533203125,0.9583740234375,-0.2347412109375
1.366,310,922,1419,312,-4.0,42.0,38.0,28.747556686401367,0.4882812201976776,-33.3251953125,-2.1199951171875,1.317626953125,-0.8533935546875
1.367,311,943,1437,312,-4.0,42.0,38.0,28.747556686401367,0.4882812201976776,-33.3251953125,-2.2734375,1.003173828125,-0.469970703125
1.369,311,939,1444,312,-3.0,42.0,38.0,-10.681151390075684,-13.671874046325684,-32.958984375,-2.2734375,1.003173828125,-0.469970703125
1.387,310,883,1413,312,-3.0,42.0,38.0,-55.908199310302734,-44.494625091552734,-14.099120140075684,-1.9091796875,0.16943359375,0.2537841796875
1.393,310,834,1381,312,-3.0,42.0,38.0,-37.7197265625,-36.43798828125,-7.568358898162842,-1.2939453125,-0.13671875,0.3421630859375
1.400,310,820,1380,312,-3.0,42.0,38.0,-37.7197265625,-36.43798828125,-7.568358898162842,-0.87744140625,0.049072265625,0.2645263671875
1.414,310,813,1411,312,-3.0,42.0,38.0,32.28759765625,-0.2441406100988388,1.4038084745407104,-0.966064453125,0.6717529296875,0.03955078125
1.421,310,796,1400,312,-3.0,42.0,38.0,35.400390625,5.187987804412842,7.812499523162842,-1.4010009765625,1.2325439453125,-0.201416015625
1.430,310,771,1377,312,-3.0,42.0,38.0,35.400390625,5.187987804412842,7.812499523162842,-1.7005615234375,1.27294921875,-0.2431640625
1.444,310,723,1292,312,-3.0,42.0,38.0,-25.756834030151367,-9.70458984375,15.380858421325684,-1.667236328125,0.8992919921875,-0.0771484375
1.453,310,694,1258,312,-3.0,42.0,38.0,-42.846675872802734,-14.038084983825684,18.24951171875,-1.4151611328125,0.5491943359375,0.128662109375
1.473,311,659,1213,312,-3.0,42.0,38.0,-42.846675872802734,-14.038084983825684,18.24951171875,-1.1011962890625,0.3883056640625,0.26806640625
1.473,310,599,1092,298,-6.0,41.0,42.0,-22.521970748901367,-9.27734375,23.559568405151367,-0.828125,0.3551025390625,0.3231201171875
1.494,310,564,1055,312,-6.0,41.0,42.0,1.220703125,-4.33349609375,19.22607421875,-0.6644287109375,0.3515625,0.2796630859375
1.494,310,538,996,312,-6.0,41.0,42.0,1.220703125,-4.33349609375,19.22607421875,-0.5994873046875,0.331787109375,0.1568603515625
1.503,309,506,885,312,-6.0,41.0,42.0,32.89794921875,7.934569835662842,-4.82177734375,-0.5570068359375,0.2672119140625,0.0546875
1.513,312,481,840,312,-6.0,41.0,42.0,34.423828125,11.779784202575684,-17.9443359375,-0.536865234375,0.14306640625,-0.0081787109375
1.519,310,465,785,312,-6.0,41.0,42.0,34.423828125,11.779784202575684,-17.9443359375,-0.546875,0.0482177734375,-0.1326904296875
1.534,310,444,750,310,-6.0,41.0,42.0,32.5927734375,21.118162155151367,-27.404783248901367,-0.5777587890625,0.086669921875,-0.2825927734375
1.542,310,444,730,311,-6.0,41.0,42.0,31.311033248901367,23.742673873901367,-22.216794967651367,-0.618896484375,0.24560546875,-0.3096923828125
1.552,309,438,717,311,-6.0,41.0,42.0,23.620603561401367,18.24951171875,-14.892577171325684,-0.6500244140625,0.4267578125,-0.22412109375
1.569,310,437,714,311,-6.0,41.0,42.0,11.230467796325684,8.48388671875,-9.8876953125,-0.66162109375,0.5399169921875,-0.1297607421875
1.571,310,430,710,311,-4.0,42.0,43.0,-1.8310545682907104,-0.3662109076976776,-8.544921875,-0.6583251953125,0.55419921875,-0.063232421875
1.593,310,430,698,312,-4.0,42.0,43.0,-12.695311546325684,-6.591796398162842,-9.033203125,-0.6571044921875,0.5064697265625,-0.000732421875
1.597,309,435,691,311,-4.0,42.0,43.0,-18.6767578125,-10.375975608825684,-9.033203125,-0.6571044921875,0.4527587890625,0.059814453125
1.601,309,437,705,311,-4.0,42.0,43.0,-19.10400390625,-11.108397483825684,-8.11767578125,-0.664306640625,0.4217529296875,0.097900390625
1.610,310,439,710,310,-4.0,42.0,43.0,-16.66259765625,-9.33837890625,-7.141112804412842,-0.687255859375,0.4322509765625,0.119140625
1.624,310,447,728,310,-4.0,42.0,43.0,-14.648436546325684,-7.568358898162842,-6.408690929412842,-0.735107421875,0.4820556640625,0.1422119140625
1.632,311,450,741,311,-4.0,42.0,43.0,-15.075682640075684,-8.23974609375,-6.225585460662842,-0.77392578125,0.5142822265625,0.17529296875
1.640,310,451,750,312,-4.0,42.0,43.0,-16.2353515625,-10.192870140075684,-6.896972179412842,-0.7791748046875,0.4786376953125,0.1925048828125
1.659,310,455,763,310,-4.0,42.0,43.0,-15.136717796325684,-10.498045921325684,-7.507323741912842,-0.7646484375,0.3934326171875,0.179931640625
1.662,310,463,763,311,-4.0,42.0,43.0,-10.803221702575684,-8.36181640625,-6.408690929412842,-0.754150390625,0.3355712890625,0.1490478515625
1.669,310,469,771,310,-3.0,40.0,35.0,-4.8828125,-5.187987804412842,-2.50244140625,-0.762451171875,0.341064453125,0.11767578125
1.699,309,480,785,311,-3.0,40.0,35.0,-0.4882812201976776,-2.990722417831421,2.990722417831421,-0.7742919921875,0.3680419921875,0.0921630859375
1.700,310,483,799,310,-3.0,40.0,35.0,0.30517578125,-2.807616949081421,8.4228515625,-0.7655029296875,0.3724365234375,0.0712890625
1.700,294,496,810,310,-3.0,40.0,35.0,-0.9155272841453552,-3.601073980331421,13.244627952575684,-0.7332763671875,0.346923828125,0.049560546875
1.713,310,506,830,310,-3.0,40.0,35.0,-1.8310545682907104,-3.845214605331421,17.39501953125,-0.699951171875,0.3157958984375,0.0264892578125
1.721,308,519,861,312,-3.0,40.0,35.0,-1.5869139432907104,-3.356933355331421,20.690916061401367,-0.6766357421875,0.3106689453125,0.0174560546875
1.730,310,530,902,312,-3.0,40.0,35.0,-1.5258787870407104,-2.624511480331421,23.010251998901367,-0.649658203125,0.333984375,0.0333251953125
1.743,310,566,939,311,-3.0,40.0,35.0,-3.906249761581421,-1.8920897245407104,23.559568405151367,-0.5992431640625,0.34716796875,0.06982421875
1.752,310,587,986,313,-3.0,40.0,35.0,-9.82666015625,-0.9155272841453552,21.789548873901367,-0.5054931640625,0.3094482421875,0.12255859375
1.764,310,620,1056,311,-3.0,40.0,35.0,-15.563963890075684,0.0,17.7001953125,-0.33642578125,0.212158203125,0.208984375
1.773,311,682,1196,312,-3.0,42.0,37.0,-11.657713890075684,0.8544921278953552,10.253905296325684,-0.105712890625,0.0899658203125,0.30517578125
1.781,310,732,1268,312,-3.0,42.0,37.0,9.033203125,2.38037109375,-2.25830078125,0.05126953125,0.0225830078125,0.3480224609375
1.792,310,784,1334,312,-3.0,42.0,37.0,42.175289154052734,4.33349609375,-18.798828125,-0.0498046875,0.1629638671875,0.30322265625
1.809,310,875,1419,313,-3.0,42.0,37.0,70.37353515625,6.774901866912842,-32.71484375,-0.600830078125,0.618896484375,0.005126953125
1.812,310,918,1464,313,-3.0,42.0,37.0,74.8291015625,10.864256858825684,-37.17041015625,-1.4156494140625,1.0859375,-0.484375
1.819,312,959,1499,312,-3.0,42.0,37.0,53.100582122802734,11.108397483825684,-34.5458984375,-2.0059814453125,1.1304931640625,-0.68017578125
1.833,311,994,1538,311,-3.0,42.0,37.0,16.845703125,-0.1831054538488388,-28.991697311401367,-2.2198486328125,0.8358154296875,-0.4300537109375
1.843,310,982,1526,312,-3.0,42.0,37.0,-16.17431640625,-17.822265625,-20.080564498901367,-2.2137451171875,0.6104736328125,-0.094482421875
1.850,311,955,1498,313,-3.0,42.0,37.0,-30.090330123901367,-28.686521530151367,-9.033203125,-2.043701171875,0.5743408203125,0.0694580078125
1.863,310,895,1441,312,-1.0,40.0,44.0,-25.024412155151367,-26.245115280151367,-1.9531248807907104,-0.95068359375,0.2337646484375,0.2691650390625
1.880,310,882,1427,311,-1.0,40.0,44.0,-5.0048828125,-11.169432640075684,-2.868652105331421,-0.95068359375,0.2337646484375,0.2691650390625
1.880,310,877,1444,312,-1.0,40.0,44.0,18.6767578125,7.324218273162842,-6.164550304412842,-0.8128662109375,0.4527587890625,0.1065673828125
1.907,309,852,1424,311,-1.0,40.0,44.0,24.169919967651367,17.51708984375,-6.958007335662842,-1.6806640625,1.157958984375,-0.3629150390625
1.907,312,820,1392,312,-1.0,40.0,44.0,3.540038824081421,13.122557640075684,-5.310058116912842,-1.6806640625,1.157958984375,-0.3629150390625
1.909,310,785,1353,311,-1.0,40.0,44.0,-32.65380859375,-1.8310545682907104,-0.8544921278953552,-1.928466796875,1.034912109375,-0.246826171875
1.931,310,725,1268,312,-1.0,40.0,44.0,-61.889644622802734,-14.953612327575684,7.080077648162842,-1.53564453125,0.5478515625,0.2684326171875
1.933,310,685,1219,314,-1.0,40.0,44.0,-70.49560546875,-18.9208984375,18.310546875,-1.53564453125,0.5478515625,0.2684326171875
1.939,310,644,1162,312,-1.0,40.0,44.0,-59.753414154052734,-14.404295921325684,27.832029342651367,-1.173828125,0.41064453125,0.400390625
1.953,310,574,1029,313,-1.0,40.0,44.0,-34.5458984375,-5.310058116912842,29.602048873901367,-0.5819091796875,0.2674560546875,0.3155517578125
1.963,310,537,947,311,-4.0,41.0,44.0,-4.5166015625,5.065917491912842,21.301267623901367,-0.5819091796875,0.2674560546875,0.3155517578125
1.983,314,509,884,312,-4.0,41.0,44.0,18.798828125,14.221190452575684,5.798339366912842,-0.4593505859375,0.1815185546875,0.1474609375
1.986,310,466,770,311,-4.0,41.0,44.0,30.517576217651367,20.080564498901367,-11.901854515075684,-0.3775634765625,-0.0574951171875,-0.04443359375
2.006,310,449,722,311,-4.0,41.0,44.0,33.38623046875,22.644041061401367,-26.000974655151367,-0.3775634765625,-0.0574951171875,-0.04443359375
2.007,310,437,691,311,-4.0,41.0,44.0,33.38623046875,25.146482467651367,-31.066892623901367,-0.4207763671875,-0.0631103515625,-0.2034912109375
2.013,310,423,664,312,-4.0,41.0,44.0,36.1328125,28.442380905151367,-14.953612327575684,-0.5850830078125,0.3096923828125,-0.3565673828125
2.021,310,418,644,310,-4.0,41.0,44.0,36.1328125,28.442380905151367,-14.953612327575684,-0.6605224609375,0.5184326171875,-0.2724609375
2.034,310,417,633,310,-4.0,41.0,44.0,29.846189498901367,20.446775436401367,-6.286620616912842,-0.6605224609375,0.5184326171875,-0.2724609375
2.043,310,420,618,311,-4.0,41.0,44.0,-3.540038824081421,-3.417968511581421,-2.990722417831421,-0.6610107421875,0.61474609375,-0.091064453125
2.051,309,423,619,310,-4.0,41.0,44.0,-3.540038824081421,-3.417968511581421,-2.990722417831421,-0.6434326171875,0.515869140625,-0.0023193359375
2.059,309,428,616,310,-4.0,41.0,44.0,-18.24951171875,-11.779784202575684,-4.7607421875,-0.6434326171875,0.515869140625,-0.0023193359375
2.087,309,441,628,310,-2.0,40.0,42.0,-23.559568405151367,-17.7001953125,-7.385253429412842,-0.6478271484375,0.394775390625,0.1500244140625
2.087,310,447,631,311,-2.0,40.0,42.0,-23.559568405151367,-17.7001953125,-7.385253429412842,-0.7042236328125,0.440673828125,0.1923828125
2.109,310,452,634,310,-2.0,40.0,42.0,-19.34814453125,-16.11328125,-7.446288585662842,-0.7042236328125,0.440673828125,0.1923828125
2.109,310,456,660,310,-2.0,40.0,42.0,-17.15087890625,-16.29638671875,-7.568358898162842,-0.726318359375,0.4951171875,0.2735595703125
2.111,310,457,683,310,-2.0,40.0,42.0,-17.15087890625,-16.29638671875,-7.568358898162842,-0.7001953125,0.4129638671875,0.2607421875
2.120,308,465,689,310,-2.0,40.0,42.0,-14.221190452575684,-16.2353515625,-9.82666015625,-0.7001953125,0.4129638671875,0.2607421875
2.134,310,465,707,311,-2.0,40.0,42.0,0.7934569716453552,-9.58251953125,-11.230467796325684,-0.75341796875,0.38623046875,0.127197265625
2.148,310,468,720,312,-2.0,40.0,42.0,0.7934569716453552,-9.58251953125,-11.230467796325684,-0.8043212890625,0.4161376953125,0.0819091796875
2.150,310,472,737,308,-2.0,40.0,42.0,4.638671875,-6.530761241912842,-8.7890625,-0.8043212890625,0.4161376953125,0.0819091796875
2.164,311,479,780,311,-3.0,40.0,36.0,-2.01416015625,-5.493163585662842,-2.197265625,-0.8416748046875,0.3837890625,0.0230712890625
2.171,310,485,799,310,-3.0,40.0,36.0,-7.812499523162842,-5.310058116912842,2.44140625,-0.8236083984375,0.318603515625,0.008544921875
2.210,308,517,889,312,-3.0,40.0,36.0,-14.038084983825684,-3.601073980331421,13.305663108825684,-0.722900390625,0.2022705078125,0.0230712890625
2.211,308,537,912,311,-3.0,40.0,36.0,-12.817381858825684,-2.746581792831421,18.5546875,-0.6417236328125,0.20654296875,0.042724609375
2.211,308,554,948,311,-3.0,40.0,36.0,-12.817381858825684,-2.746581792831421,18.5546875,-0.57275390625,0.2451171875,0.053466796875
2.223,310,601,1050,311,-3.0,40.0,36.0,-13.916014671325684,-2.807616949081421,22.583005905151367,-0.4925537109375,0.2750244140625,0.0728759765625
2.231,308,632,1122,314,-3.0,40.0,36.0,-20.996091842651367,-3.723144292831421,19.10400390625,-0.35302734375,0.22314453125,0.1485595703125
2.239,310,667,1186,312,-3.0,40.0,36.0,-20.996091842651367,-3.723144292831421,19.10400390625,-0.1976318359375,0.12158203125,0.24169921875
2.253,310,732,1285,312,-3.0,40.0,36.0,-7.019042491912842,1.7700194120407104,4.33349609375,-0.101806640625,0.0615234375,0.330810546875
2.262,311,792,1352,312,-4.0,42.0,42.0,21.301267623901367,3.784179449081421,-6.042479991912842,-0.15087890625,0.1185302734375,0.414306640625
2.269,310,855,1400,312,-4.0,42.0,42.0,21.301267623901367,3.784179449081421,-6.042479991912842,-0.5614013671875,0.390869140625,0.3345947265625
2.285,311,944,1478,312,-4.0,42.0,42.0,74.70703125,-2.990722417831421,-24.719236373901367,-1.3092041015625,0.85693359375,-0.0367431640625
2.317,310,976,1519,312,-4.0,42.0,42.0,75.3173828125,-1.4648436307907104,-27.099607467651367,-2.024169921875,1.2354736328125,-0.51123046875
2.318,310,968,1553,312,-4.0,42.0,42.0,75.3173828125,-1.4648436307907104,-27.099607467651367,-2.391357421875,1.208740234375,-0.661865234375
2.318,310,980,1513,299,-4.0,42.0,42.0,5.981444835662842,0.3662109076976776,-22.155759811401367,-2.38916015625,0.865966796875,-0.42431640625
2.322,310,959,1521,314,-4.0,42.0,42.0,-32.89794921875,-9.70458984375,-15.808104515075684,-1.985107421875,0.41748046875,-0.011962890625
2.330,311,931,1483,312,-4.0,42.0,42.0,-40.832515716552734,-12.512206077575684,-9.033203125,-1.2977294921875,0.01513671875,0.35498046875
2.343,309,893,1454,311,-4.0,42.0,42.0,-13.549803733825684,-2.868652105331421,-4.8828125,-0.8455810546875,0.0699462890625,0.3646240234375
2.352,310,886,1460,313,-4.0,42.0,42.0,20.568845748901367,8.85009765625,-2.01416015625,-0.9161376953125,0.5947265625,0.0333251953125
2.360,309,875,1449,312,-3.0,40.0,44.0,30.822751998901367,10.986327171325684,-2.0751953125,-1.3704833984375,1.122314453125,-0.3028564453125
2.373,310,840,1397,312,-3.0,40.0,44.0,9.94873046875,1.4648436307907104,-6.225585460662842,-1.77978515625,1.24658203125,-0.3642578125
2.390,312,809,1365,313,-3.0,40.0,44.0,-25.512693405151367,-11.718749046325684,-10.986327171325684,-1.8411865234375,0.962890625,-0.145263671875
2.390,310,772,1309,313,-3.0,40.0,44.0,-49.438472747802734,-19.22607421875,-11.169432640075684,-1.6295166015625,0.60791015625,0.1280517578125
2.419,311,717,1241,312,-3.0,40.0,44.0,-50.842281341552734,-18.24951171875,-6.103515148162842,-1.3232421875,0.3822021484375,0.2880859375
2.419,294,683,1185,312,-3.0,40.0,44.0,-34.85107421875,-11.413573265075684,0.6103515625,-1.0118408203125,0.298828125,0.33203125
2.420,310,639,1086,296,-3.0,40.0,44.0,-13.183592796325684,-3.417968511581421,4.5166015625,-0.7322998046875,0.2513427734375,0.3095703125
2.433,310,574,1000,312,-3.0,40.0,44.0,6.774901866912842,3.540038824081421,3.112792730331421,-0.5413818359375,0.194091796875,0.2252197265625
2.442,310,548,934,311,-3.0,40.0,44.0,21.179197311401367,8.4228515625,-2.3193359375,-0.44775390625,0.1451416015625,0.118896484375
2.450,310,522,873,313,-3.0,40.0,44.0,27.404783248901367,9.3994140625,-9.58251953125,-0.4288330078125,0.0655517578125,0.0626220703125
2.465,310,483,805,312,0.0,39.0,39.0,28.869626998901367,7.690429210662842,-17.2119140625,-0.47509765625,-0.044189453125,0.026611328125
2.472,310,465,785,311,0.0,39.0,39.0,30.883787155151367,7.629394054412842,-22.705076217651367,-0.522705078125,-0.0689697265625,-0.0718994140625
2.494,310,456,773,311,0.0,39.0,39.0,33.87451171875,11.718749046325684,-23.742673873901367,-0.5653076171875,0.0736083984375,-0.2132568359375
2.494,310,452,750,309,0.0,39.0,39.0,33.38623046875,14.648436546325684,-20.01953125,-0.6280517578125,0.306884765625,-0.28466796875
2.518,310,447,749,310,0.0,39.0,39.0,24.719236373901367,9.6435546875,-14.343260765075684,-0.6759033203125,0.498046875,-0.2431640625
2.519,310,449,733,312,0.0,39.0,39.0,8.4228515625,-1.0986328125,-9.521484375,-0.6932373046875,0.575927734375,-0.1468505859375
2.524,310,456,741,311,0.0,39.0,39.0,-9.21630859375,-11.047362327575684,-7.202147960662842,-0.6851806640625,0.530517578125,-0.03857421875
2.532,310,456,751,312,0.0,39.0,39.0,-20.568845748901367,-16.845703125,-7.385253429412842,-0.6617431640625,0.439453125,0.0648193359375
2.539,312,465,763,311,0.0,39.0,39.0,-22.399900436401367,-18.12744140625,-7.995604991912842,-0.65380859375,0.3868408203125,0.13671875
2.553,310,476,780,311,0.0,39.0,39.0,-17.7001953125,-16.29638671875,-7.812499523162842,-0.684814453125,0.39111328125,0.166015625
2.562,310,481,794,312,-4.0,39.0,37.0,-12.756346702575684,-13.671874046325684,-7.202147960662842,-0.734130859375,0.41357421875,0.15771484375
2.570,310,488,809,312,-4.0,39.0,37.0,-12.084959983825684,-11.291502952575684,-6.286620616912842,-0.7696533203125,0.4100341796875,0.150390625
2.584,310,498,826,309,-4.0,39.0,37.0,-15.441893577575684,-10.559081077575684,-4.57763671875,-0.776611328125,0.3701171875,0.1834716796875
2.599,310,504,830,311,-4.0,39.0,37.0,-18.1884765625,-11.291502952575684,-2.38037109375,-0.7681884765625,0.3057861328125,0.215087890625
2.600,311,512,848,310,-4.0,39.0,37.0,-16.17431640625,-10.864256858825684,0.6103515625,-0.7686767578125,0.264892578125,0.1976318359375
2.625,310,530,873,311,-4.0,39.0,37.0,-10.131834983825684,-8.6669921875,5.249022960662842,-0.7935791015625,0.2894287109375,0.151123046875
2.625,311,538,888,298,-4.0,39.0,37.0,-4.5166015625,-6.896972179412842,10.925292015075684,-0.823486328125,0.345947265625,0.1112060546875
2.631,310,548,916,312,-4.0,39.0,37.0,-1.6479490995407104,-6.347655773162842,15.869139671325684,-0.812255859375,0.3580322265625,0.0927734375
2.644,310,566,955,311,-4.0,39.0,37.0,-0.9155272841453552,-5.554198741912842,19.53125,-0.6351318359375,0.2288818359375,0.1204833984375
2.653,310,586,989,312,-4.0,39.0,37.0,-1.0986328125,-3.784179449081421,22.460935592651367,-0.6351318359375,0.2288818359375,0.1204833984375
2.661,310,601,1022,312,-2.0,39.0,41.0,0.6713866591453552,-2.44140625,24.658201217651367,-0.5408935546875,0.22265625,0.1328125
2.675,310,636,1100,311,-2.0,39.0,41.0,5.310058116912842,-2.990722417831421,25.756834030151367,-0.4410400390625,0.365234375,0.1326904296875
2.683,311,664,1145,312,-2.0,39.0,41.0,8.056640625,-5.249022960662842,24.536130905151367,-0.4410400390625,0.365234375,0.1326904296875
2.694,310,705,1196,312,-2.0,39.0,41.0,6.347655773162842,-6.896972179412842,19.34814453125,-0.362060546875,0.3524169921875,0.1673583984375
2.725,310,799,1336,312,-2.0,39.0,41.0,13.671874046325684,-6.286620616912842,-6.347655773162842,-0.349853515625,0.156005859375,0.2755126953125
2.725,311,846,1395,313,-2.0,39.0,41.0,13.671874046325684,-6.286620616912842,-6.347655773162842,-0.6353759765625,0.1849365234375,0.1495361328125
2.725,294,891,1447,312,-2.0,39.0,41.0,36.376953125,-5.981444835662842,-25.695798873901367,-0.6353759765625,0.1849365234375,0.1495361328125
2.735,310,966,1514,314,-2.0,39.0,41.0,61.584468841552734,1.3427733182907104,-43.273921966552734,-1.4354248046875,0.631103515625,-0.393798828125
2.743,310,1000,1543,314,-2.0,39.0,41.0,61.584468841552734,1.3427733182907104,-43.273921966552734,-1.671142578125,0.70751953125,-0.445556640625
2.750,310,1022,1574,314,-2.0,39.0,41.0,39.12353515625,-1.4648436307907104,-38.75732421875,-1.671142578125,0.70751953125,-0.445556640625
2.765,310,1050,1607,312,-1.0,39.0,41.0,-21.789548873901367,-24.047849655151367,-25.451658248901367,-1.8861083984375,0.7364501953125,-0.07568359375
2.773,310,1035,1579,314,-1.0,39.0,41.0,-21.789548873901367,-24.047849655151367,-25.451658248901367,-1.9515380859375,0.826171875,0.1090087890625
2.781,311,998,1543,313,-1.0,39.0,41.0,-31.860349655151367,-32.04345703125,-19.83642578125,-1.9515380859375,0.826171875,0.1090087890625
2.797,310,938,1499,310,-1.0,39.0,41.0,-20.080564498901367,-21.850584030151367,-16.41845703125,-1.125732421875,0.0982666015625,0.453857421875
2.803,310,938,1499,314,-1.0,39.0,41.0,-20.080564498901367,-21.850584030151367,-16.41845703125,-0.88037109375,0.105224609375,0.3624267578125
2.834,310,932,1490,313,-1.0,39.0,41.0,2.929687261581421,-3.173827886581421,-14.831542015075684,-0.88037109375,0.105224609375,0.3624267578125
2.835,310,902,1444,313,-1.0,39.0,41.0,2.3193359375,7.629394054412842,-1.7089842557907104,-1.6141357421875,1.005859375,-0.1065673828125
2.835,310,873,1407,312,-1.0,39.0,41.0,2.3193359375,7.629394054412842,-1.7089842557907104,-1.804931640625,0.9173583984375,-0.05322265625
2.841,310,840,1357,313,-1.0,39.0,41.0,-24.047849655151367,1.2817381620407104,-2.25830078125,-1.7164306640625,0.677734375,0.090087890625
2.855,310,778,1267,312,-1.0,39.0,41.0,-44.311519622802734,-3.784179449081421,-3.906249761581421,-1.492431640625,0.4859619140625,0.1859130859375
2.866,310,728,1215,312,0.0,38.0,41.0,-34.3017578125,-2.197265625,0.54931640625,-1.2315673828125,0.3536376953125,0.2347412109375
2.871,310,687,1157,312,0.0,38.0,41.0,-34.3017578125,-2.197265625,0.54931640625,-0.9759521484375,0.2857666015625,0.2227783203125
2.885,311,620,1069,312,0.0,38.0,41.0,-7.995604991912842,6.958007335662842,9.09423828125,-0.7364501953125,0.2293701171875,0.184326171875
2.899,310,588,1008,311,0.0,38.0,41.0,0.7324218153953552,11.535643577575684,9.70458984375,-0.55224609375,0.1546630859375,0.1539306640625
2.901,310,562,972,312,0.0,38.0,41.0,0.7324218153953552,11.535643577575684,9.70458984375,-0.4454345703125,0.1014404296875,0.1226806640625
2.942,310,513,888,310,0.0,38.0,41.0,11.108397483825684,15.930174827575684,-0.0610351525247097,-0.4178466796875,0.0771484375,0.0872802734375
2.942,310,498,827,311,0.0,38.0,41.0,12.145995140075684,15.075682640075684,-7.080077648162842,-0.454345703125,0.026123046875,0.0538330078125
2.945,310,481,820,311,0.0,38.0,41.0,12.145995140075684,15.075682640075684,-7.080077648162842,-0.5020751953125,-0.018310546875,0.050048828125
2.945,310,466,780,297,0.0,38.0,41.0,17.15087890625,10.620116233825684,-17.15087890625,-0.541748046875,0.056884765625,0.0010986328125
2.953,310,465,793,311,0.0,38.0,41.0,19.34814453125,11.047362327575684,-14.953612327575684,-0.5989990234375,0.237060546875,-0.1240234375
2.961,310,457,790,312,-3.0,37.0,43.0,19.34814453125,11.047362327575684,-14.953612327575684,-0.670166015625,0.4036865234375,-0.18310546875
2.975,311,463,785,310,-3.0,37.0,43.0,10.803221702575684,7.141112804412842,-3.051757574081421,-0.713134765625,0.479248046875,-0.123046875
2.983,310,456,794,311,-3.0,37.0,43.0,0.9765624403953552,0.4882812201976776,0.2441406100988388,-0.716064453125,0.46435546875,-0.0177001953125
2.991,310,465,802,308,-3.0,37.0,43.0,-8.11767578125,-4.5166015625,0.3662109076976776,-0.7069091796875,0.413818359375,0.0693359375
3.004,310,479,810,310,-3.0,37.0,43.0,-12.878417015075684,-6.469726085662842,-0.6713866591453552,-0.71923828125,0.391845703125,0.1195068359375
3.031,310,480,819,312,-3.0,37.0,43.0,-13.610838890075684,-6.225585460662842,-0.8544921278953552,-0.7593994140625,0.3983154296875,0.1436767578125
3.031,294,483,799,314,-3.0,37.0,43.0,-13.366698265075684,-5.0048828125,0.1220703050494194,-0.797119140625,0.3798828125,0.1544189453125
3.031,310,486,809,298,-3.0,37.0,43.0,-13.366698265075684,-5.0048828125,0.1220703050494194,-0.8116455078125,0.3223876953125,0.1793212890625
3.049,310,497,859,310,-3.0,37.0,43.0,-15.747069358825684,-2.50244140625,5.310058116912842,-0.79541015625,0.260498046875,0.2274169921875
3.052,310,504,873,312,-3.0,37.0,43.0,-14.770506858825684,-2.25830078125,9.3994140625,-0.7667236328125,0.22412109375,0.248046875
3.060,309,513,888,312,-3.0,38.0,42.0,-14.770506858825684,-2.25830078125,9.3994140625,-0.7552490234375,0.2265625,0.210693359375
3.073,309,530,916,311,-3.0,38.0,42.0,0.0,-1.15966796875,17.08984375,-0.7567138671875,0.271240234375,0.140625
3.082,310,540,928,312,-3.0,38.0,42.0,6.286620616912842,-0.8544921278953552,20.202634811401367,-0.752685546875,0.33544921875,0.0758056640625
3.090,312,548,943,312,-3.0,38.0,42.0,9.09423828125,-0.6713866591453552,22.094724655151367,-0.727294921875,0.377685546875,0.045166015625
3.103,311,572,984,310,-3.0,38.0,42.0,8.97216796875,-0.1220703050494194,22.583005905151367,-0.6759033203125,0.3800048828125,0.0526123046875
3.111,310,592,1034,312,-3.0,38.0,42.0,5.676269054412842,0.7934569716453552,22.155759811401367,-0.603515625,0.351806640625,0.0819091796875
3.136,308,614,1074,312,-3.0,38.0,42.0,1.7700194120407104,1.6479490995407104,20.385740280151367,-0.524658203125,0.3165283203125,0.1126708984375
3.136,294,649,1139,294,-3.0,38.0,42.0,-0.1220703050494194,1.8310545682907104,17.333984375,-0.449462890625,0.2886962890625,0.1405029296875
3.148,311,685,1188,310,-3.0,38.0,42.0,-0.1831054538488388,0.4882812201976776,12.451170921325684,-0.363037109375,0.25537109375,0.1788330078125
3.150,310,725,1250,312,-3.0,38.0,42.0,4.150390625,-2.3193359375,4.7607421875,-0.274169921875,0.214111328125,0.216552734375
3.163,310,827,1392,311,-3.0,37.0,40.0,18.37158203125,-5.126952648162842,-6.408690929412842,-0.3358154296875,0.2144775390625,0.2071533203125
3.172,312,882,1444,312,-3.0,37.0,40.0,41.687007904052734,-6.958007335662842,-20.263669967651367,-0.6297607421875,0.28662109375,0.1075439453125
3.180,310,933,1487,314,-3.0,37.0,40.0,59.570308685302734,-5.493163585662842,-32.53173828125,-1.0352783203125,0.393310546875,-0.0628662109375
3.193,310,1000,1555,312,-3.0,37.0,40.0,57.495113372802734,-1.03759765625,-36.62109375,-1.4049072265625,0.4825439453125,-0.2110595703125
3.208,310,1024,1580,312,-3.0,37.0,40.0,36.43798828125,0.3662109076976776,-31.433103561401367,-1.633056640625,0.4920654296875,-0.2587890625
3.210,311,1042,1608,313,-3.0,37.0,40.0,10.559081077575684,-4.8828125,-21.850584030151367,-1.7249755859375,0.4893798828125,-0.1978759765625
3.235,310,1066,1627,312,-3.0,37.0,40.0,-5.493163585662842,-13.366698265075684,-11.230467796325684,-1.804443359375,0.654541015625,-0.1124267578125
3.236,312,1043,1602,313,-3.0,37.0,40.0,-13.305663108825684,-20.446775436401367,-1.3427733182907104,-1.9144287109375,0.851318359375,-0.000244140625
3.240,310,1022,1580,314,-3.0,37.0,40.0,-21.667478561401367,-23.620603561401367,4.8828125,-1.7291259765625,0.63671875,0.2410888671875
3.257,310,984,1536,314,-1.0,39.0,40.0,-22.766111373901367,-17.51708984375,5.554198741912842,-1.1973876953125,0.1563720703125,0.468994140625
3.262,310,973,1519,314,-1.0,39.0,40.0,-3.417968511581421,-2.746581792831421,4.69970703125,-0.8045654296875,0.110595703125,0.4091796875
3.273,311,971,1528,312,-1.0,39.0,40.0,23.315427780151367,10.375975608825684,3.540038824081421,-0.8065185546875,0.528076171875,0.097900390625
3.284,310,955,1513,312,-1.0,39.0,40.0,33.447265625,14.526366233825684,-3.234863042831421,-1.14453125,0.9388427734375,-0.1783447265625
3.292,311,938,1499,314,-1.0,39.0,40.0,17.76123046875,8.11767578125,-15.136717796325684,-1.560791015625,1.010986328125,-0.2237548828125
3.300,311,917,1472,312,-1.0,39.0,40.0,-13.488768577575684,-2.807616949081421,-25.085447311401367,-1.7620849609375,0.7471923828125,-0.0604248046875
3.314,310,854,1403,312,-1.0,39.0,40.0,-35.82763671875,-9.70458984375,-26.367185592651367,-1.7237548828125,0.4927978515625,0.134033203125
3.334,310,818,1348,314,-1.0,39.0,40.0,-39.0625,-10.498045921325684,-17.39501953125,-1.5718994140625,0.4061279296875,0.216064453125
3.337,310,775,1305,314,-1.0,39.0,40.0,-29.968259811401367,-7.080077648162842,-3.479003667831421,-1.3638916015625,0.35498046875,0.234130859375
3.344,310,713,1204,312,-1.0,39.0,40.0,-16.54052734375,-1.5869139432907104,7.568358898162842,-1.10107421875,0.2989501953125,0.260498046875
3.353,310,678,1156,313,-1.0,38.0,45.0,-5.798339366912842,5.187987804412842,12.878417015075684,-0.8223876953125,0.268310546875,0.253173828125
3.364,310,639,1098,311,-1.0,38.0,45.0,-0.3662109076976776,11.901854515075684,13.122557640075684,-0.6025390625,0.239990234375,0.2052001953125
3.374,310,592,1022,313,-1.0,38.0,45.0,3.601073980331421,16.41845703125,9.1552734375,-0.4822998046875,0.21533203125,0.1328125
3.389,309,558,974,313,-1.0,38.0,45.0,6.896972179412842,18.24951171875,2.25830078125,-0.4527587890625,0.1923828125,0.068115234375
3.390,310,537,902,310,-1.0,38.0,45.0,7.446288585662842,17.63916015625,-5.859374523162842,-0.47265625,0.1307373046875,0.053955078125
3.411,310,508,864,310,-1.0,38.0,45.0,7.690429210662842,16.357421875,-13.916014671325684,-0.5711669921875,-0.069091796875,0.028076171875
3.412,310,499,823,310,-1.0,38.0,45.0,10.009765625,16.29638671875,-18.73779296875,-0.5711669921875,-0.069091796875,0.028076171875
3.420,310,497,832,312,-1.0,38.0,45.0,12.939452171325684,17.51708984375,-16.6015625,-0.603271484375,0.0057373046875,-0.072265625
3.437,309,494,822,311,-1.0,38.0,45.0,13.916014671325684,17.76123046875,-8.60595703125,-0.707763671875,0.4091796875,-0.1629638671875
3.451,310,493,818,312,-1.0,38.0,45.0,11.474608421325684,13.671874046325684,0.6713866591453552,-0.707763671875,0.4091796875,-0.1629638671875
3.451,312,479,820,310,-1.0,38.0,45.0,5.249022960662842,5.981444835662842,6.652831554412842,-0.734130859375,0.5018310546875,-0.087646484375
3.469,310,504,827,311,-2.0,37.0,48.0,-11.108397483825684,-4.33349609375,6.958007335662842,-0.7078857421875,0.404541015625,0.083984375
3.473,310,509,833,311,-2.0,37.0,48.0,-11.108397483825684,-4.33349609375,6.958007335662842,-0.7137451171875,0.375732421875,0.1474609375
3.481,310,516,840,312,-2.0,37.0,48.0,-14.465331077575684,-5.737304210662842,6.042479991912842,-0.7137451171875,0.375732421875,0.1474609375
3.499,310,523,855,311,-2.0,37.0,48.0,-11.047362327575684,-4.45556640625,6.103515148162842,-0.7567138671875,0.3505859375,0.171142578125
3.503,310,532,864,311,-2.0,37.0,48.0,-11.047362327575684,-4.45556640625,6.103515148162842,-0.75830078125,0.312744140625,0.1658935546875
3.513,309,537,878,312,-2.0,37.0,48.0,-8.97216796875,-1.8310545682907104,6.042479991912842,-0.75830078125,0.312744140625,0.1658935546875
3.542,310,551,916,310,-2.0,37.0,48.0,-3.417968511581421,-0.4272460639476776,7.812499523162842,-0.7462158203125,0.3173828125,0.1619873046875
3.543,309,537,928,311,-2.0,37.0,48.0,-3.417968511581421,-0.4272460639476776,7.812499523162842,-0.7374267578125,0.3291015625,0.122314453125
3.543,310,563,948,310,-2.0,37.0,48.0,0.6103515625,-1.15966796875,8.7890625,-0.7374267578125,0.3291015625,0.122314453125
3.554,310,592,994,310,-1.0,40.0,43.0,7.385253429412842,-1.4648436307907104,10.620116233825684,-0.680419921875,0.3087158203125,0.0565185546875
3.563,310,604,1029,312,-1.0,40.0,43.0,7.385253429412842,-1.4648436307907104,10.620116233825684,-0.61279296875,0.3028564453125,0.0604248046875
3.576,310,620,1069,311,-1.0,40.0,43.0,7.751464366912842,-1.7089842557907104,11.779784202575684,-0.61279296875,0.3028564453125,0.0604248046875
3.586,310,656,1125,312,-1.0,40.0,43.0,2.13623046875,-3.173827886581421,12.145995140075684,-0.4312744140625,0.260009765625,0.1058349609375
3.593,308,688,1170,312,-1.0,40.0,43.0,2.13623046875,-3.173827886581421,12.145995140075684,-0.3409423828125,0.2254638671875,0.137451171875
3.601,312,737,1231,312,-1.0,40.0,43.0,1.220703125,-4.33349609375,10.498045921325684,-0.303466796875,0.1822509765625,0.1484375
3.619,310,848,1369,312,-1.0,40.0,43.0,12.878417015075684,-6.652831554412842,-0.0610351525247097,-0.4246826171875,0.1737060546875,0.1180419921875
3.623,310,902,1424,312,-1.0,40.0,43.0,31.249998092651367,-7.995604991912842,-11.169432640075684,-0.670654296875,0.23193359375,0.01416015625
3.641,310,955,1471,312,-1.0,40.0,43.0,31.249998092651367,-7.995604991912842,-11.169432640075684,-0.935302734375,0.3238525390625,-0.1295166015625
3.650,311,1018,1544,311,-1.0,40.0,43.0,45.715328216552734,-4.5166015625,-31.616209030151367,-1.189208984375,0.4322509765625,-0.219482421875
3.653,311,1039,1580,313,-4.0,36.0,43.0,28.625486373901367,-9.46044921875,-32.71484375,-1.431640625,0.5477294921875,-0.25048828125
3.661,310,1067,1607,313,-4.0,36.0,43.0,28.625486373901367,-9.46044921875,-32.71484375,-1.6690673828125,0.6666259765625,-0.2249755859375
3.684,311,1096,1627,313,-4.0,36.0,43.0,-12.878417015075684,-33.14208984375,-22.949216842651367,-1.91015625,0.8212890625,-0.1226806640625
3.684,297,1095,1613,312,-4.0,36.0,43.0,-24.841306686401367,-42.602535247802734,-17.63916015625,-2.09716796875,0.8873291015625,0.0772705078125
3.690,311,1069,1583,312,-4.0,36.0,43.0,-24.841306686401367,-42.602535247802734,-17.63916015625,-1.936767578125,0.592041015625,0.3448486328125
3.704,310,1020,1545,312,-4.0,36.0,43.0,-20.202634811401367,-35.58349609375,-14.587401390075684,-1.342529296875,0.0440673828125,0.548828125
3.724,310,1017,1547,312,-4.0,36.0,43.0,6.469726085662842,-11.169432640075684,-12.756346702575684,-0.8212890625,-0.0833740234375,0.53466796875
3.725,311,1017,1547,314,-4.0,36.0,43.0,6.469726085662842,-11.169432640075684,-12.756346702575684,-0.85009765625,0.4019775390625,0.280517578125
3.748,310,994,1518,311,-4.0,36.0,43.0,22.583005905151367,19.287109375,-3.417968511581421,-1.2906494140625,0.8851318359375,0.00830078125
3.748,296,973,1463,299,-4.0,36.0,43.0,-4.5166015625,16.41845703125,-6.530761241912842,-1.67822265625,0.90283203125,-0.073486328125
3.751,311,947,1471,311,0.0,38.0,42.0,-30.456541061401367,11.535643577575684,-13.061522483825684,-1.7752685546875,0.6357421875,0.01220703125
3.764,311,889,1386,312,0.0,38.0,42.0,-41.625972747802734,9.46044921875,-14.709471702575684,-1.671875,0.49072265625,0.11865234375
3.773,311,858,1325,313,0.0,38.0,42.0,-41.931148529052734,10.009765625,-8.4228515625,-1.513671875,0.4769287109375,0.1566162109375
3.787,310,816,1279,312,0.0,38.0,42.0,-40.283199310302734,12.817381858825684,1.8310545682907104,-1.3251953125,0.3851318359375,0.17822265625
3.794,310,745,1204,312,0.0,38.0,42.0,-37.41455078125,17.15087890625,11.230467796325684,-1.0792236328125,0.2257080078125,0.236572265625
3.803,310,705,1149,313,0.0,38.0,42.0,-28.747556686401367,22.094724655151367,17.88330078125,-0.8096923828125,0.1175537109375,0.273193359375
3.811,310,668,1092,312,0.0,38.0,42.0,-13.610838890075684,26.794431686401367,20.629880905151367,-0.5926513671875,0.093505859375,0.249755859375
3.826,309,606,998,312,0.0,38.0,42.0,3.234863042831421,29.235837936401367,17.9443359375,-0.4696044921875,0.103515625,0.1754150390625
3.848,310,579,933,312,0.0,38.0,42.0,15.747069358825684,29.602048873901367,10.314940452575684,-0.439697265625,0.0821533203125,0.0826416015625
3.848,310,541,877,311,0.0,38.0,42.0,21.911619186401367,28.747556686401367,0.3662109076976776,-0.4583740234375,0.028076171875,0.0062255859375
3.854,310,509,809,311,-2.0,39.0,44.0,24.536130905151367,27.832029342651367,-8.11767578125,-0.4803466796875,-0.0093994140625,-0.0980224609375
3.862,310,490,790,311,-2.0,39.0,44.0,24.963376998901367,28.137205123901367,-10.437010765075684,-0.52734375,0.062744140625,-0.2320556640625
3.870,310,488,780,310,-2.0,39.0,44.0,21.972654342651367,26.184080123901367,-4.94384765625,-0.5982666015625,0.2371826171875,-0.2901611328125
3.885,310,490,771,310,-2.0,39.0,44.0,14.892577171325684,18.37158203125,2.990722417831421,-0.6591796875,0.38720703125,-0.2493896484375
3.893,310,493,771,311,-2.0,39.0,44.0,3.784179449081421,7.324218273162842,8.1787109375,-0.6920166015625,0.45556640625,-0.15283203125
3.901,310,495,765,311,-2.0,39.0,44.0,-8.30078125,-2.746581792831421,9.8876953125,-0.6878662109375,0.4525146484375,-0.031982421875
3.915,310,503,785,310,-2.0,39.0,44.0,-16.9677734375,-9.033203125,8.72802734375,-0.6717529296875,0.423583984375,0.0679931640625
3.922,310,507,794,310,-2.0,39.0,44.0,-20.446775436401367,-11.535643577575684,6.896972179412842,-0.6683349609375,0.4202880859375,0.1361083984375
3.931,312,510,803,312,-2.0,39.0,44.0,-20.568845748901367,-11.901854515075684,5.981444835662842,-0.682861328125,0.4139404296875,0.1683349609375
3.951,309,523,816,312,-2.0,39.0,44.0,-19.10400390625,-10.192870140075684,5.432128429412842,-0.695556640625,0.36962890625,0.1630859375
3.953,310,535,827,310,-1.0,37.0,37.0,-17.15087890625,-6.652831554412842,5.554198741912842,-0.7069091796875,0.3211669921875,0.1568603515625
3.961,310,543,846,311,-1.0,37.0,37.0,-15.441893577575684,-4.33349609375,7.019042491912842,-0.7188720703125,0.3018798828125,0.1834716796875
3.974,310,566,875,312,-1.0,37.0,37.0,-12.145995140075684,-4.94384765625,8.544921875,-0.721923828125,0.3111572265625,0.2093505859375
3.983,310,578,902,312,-1.0,37.0,37.0,-5.798339366912842,-6.469726085662842,9.765625,-0.719970703125,0.3321533203125,0.19775390625
3.991,310,587,919,312,-1.0,37.0,37.0,1.4038084745407104,-7.446288585662842,11.047362327575684,-0.7110595703125,0.3253173828125,0.16650390625
4.005,309,616,960,310,-1.0,37.0,37.0,6.896972179412842,-7.873534679412842,12.145995140075684,-0.693603515625,0.2938232421875,0.13818359375
4.013,311,632,1013,312,-1.0,37.0,37.0,10.742186546325684,-7.812499523162842,13.366698265075684,-0.6748046875,0.29541015625,0.115966796875
4.026,309,654,1050,312,-1.0,37.0,37.0,12.084959983825684,-7.507323741912842,14.770506858825684,-0.6292724609375,0.30810546875,0.1153564453125
4.035,310,700,1112,312,-1.0,37.0,37.0,10.681151390075684,-6.591796398162842,14.892577171325684,-0.552490234375,0.2802734375,0.13232421875
4.043,310,736,1159,312,-1.0,37.0,37.0,8.9111328125,-4.69970703125,13.793944358825684,-0.474853515625,0.2347412109375,0.145751953125
4.069,310,799,1228,312,0.0,39.0,41.0,9.27734375,-2.990722417831421,11.962889671325684,-0.3970947265625,0.185791015625,0.17138671875
4.069,311,868,1338,294,0.0,39.0,41.0,13.549803733825684,-2.807616949081421,8.1787109375,-0.5218505859375,0.0244140625,0.1700439453125
4.073,310,943,1398,312,0.0,39.0,41.0,26.916501998901367,-3.479003667831421,0.0610351525247097,-0.5218505859375,0.0244140625,0.1700439453125
4.080,311,984,1456,313,0.0,39.0,41.0,51.452632904052734,-0.1220703050494194,-10.925292015075684,-0.760009765625,0.03857421875,-0.0543212890625
4.094,310,1048,1531,312,0.0,39.0,41.0,73.54736328125,5.798339366912842,-18.37158203125,-1.361083984375,0.6839599609375,-0.5146484375
4.110,311,1076,1572,314,0.0,39.0,41.0,70.556640625,4.2724609375,-19.83642578125,-1.361083984375,0.6839599609375,-0.5146484375
4.111,294,1091,1596,310,0.0,39.0,41.0,35.5224609375,-7.263183116912842,-19.04296875,-1.58203125,0.9083251953125,-0.424072265625
4.128,310,1108,1632,312,0.0,39.0,41.0,-13.000487327575684,-21.423337936401367,-19.1650390625,-1.969970703125,0.7926025390625,0.1190185546875
4.133,310,1105,1621,313,0.0,39.0,41.0,-49.316402435302734,-30.822751998901367,-18.5546875,-1.969970703125,0.7926025390625,0.1190185546875
4.157,310,1087,1584,312,0.0,39.0,41.0,-59.692378997802734,-33.50830078125,-14.770506858825684,-2.0390625,0.6109619140625,0.34228515625
4.157,310,1038,1492,299,-3.0,39.0,38.0,-44.799800872802734,-27.221677780151367,-9.46044921875,-1.040283203125,-0.0782470703125,0.5135498046875
4.163,310,1035,1531,312,-3.0,39.0,38.0,-9.70458984375,-8.9111328125,-4.7607421875,-1.040283203125,-0.0782470703125,0.5135498046875
4.174,310,1035,1531,312,-3.0,39.0,38.0,26.550291061401367,11.169432640075684,1.3427733182907104,-0.869140625,0.2769775390625,0.2301025390625
4.185,310,1013,1499,312,-3.0,39.0,38.0,33.99658203125,18.61572265625,5.981444835662842,-1.6580810546875,1.0462646484375,-0.19140625
4.193,310,987,1477,312,-3.0,39.0,38.0,9.1552734375,13.549803733825684,2.44140625,-1.6580810546875,1.0462646484375,-0.19140625
4.201,310,955,1455,314,-3.0,39.0,38.0,-22.949216842651367,5.676269054412842,-6.713866710662842,-1.8204345703125,0.7554931640625,-0.060302734375
4.214,310,901,1369,312,-3.0,39.0,38.0,-39.1845703125,1.4648436307907104,-11.108397483825684,-1.5164794921875,0.4404296875,0.212646484375
4.230,310,858,1310,314,-3.0,39.0,38.0,-37.90283203125,0.7934569716453552,-5.432128429412842,-1.31396484375,0.4117431640625,0.2158203125
4.231,310,809,1268,312,-3.0,39.0,38.0,-29.968259811401367,3.173827886581421,4.7607421875,-1.31396484375,0.4117431640625,0.2158203125
4.262,310,742,1183,312,-3.0,39.0,38.0,-10.375975608825684,12.084959983825684,14.343260765075684,-0.8087158203125,0.26513671875,0.20166015625
4.262,295,697,1117,312,-1.0,35.0,42.0,-10.375975608825684,12.084959983825684,14.343260765075684,-0.603271484375,0.219482421875,0.152099609375
4.262,297,657,1039,296,-1.0,35.0,42.0,1.0986328125,15.563963890075684,12.634276390075684,-0.603271484375,0.219482421875,0.152099609375
4.270,312,623,986,314,-1.0,35.0,42.0,11.596678733825684,16.17431640625,7.202147960662842,-0.484130859375,0.1793212890625,0.076416015625
4.288,310,566,888,311,-1.0,35.0,42.0,17.76123046875,14.465331077575684,-0.8544921278953552,-0.4510498046875,-0.002685546875,-0.03369140625
4.292,310,537,833,311,-1.0,35.0,42.0,19.71435546875,12.207030296325684,-9.8876953125,-0.479736328125,-0.0596923828125,-0.164306640625
4.301,310,524,813,312,-1.0,35.0,42.0,21.240232467651367,12.817381858825684,-18.00537109375,-0.479736328125,-0.0596923828125,-0.164306640625
4.323,310,497,784,310,-1.0,35.0,42.0,18.73779296875,14.404295921325684,-17.4560546875,-0.62109375,0.214111328125,-0.25390625
4.323,310,486,771,310,-1.0,35.0,42.0,18.73779296875,14.404295921325684,-17.4560546875,-0.6678466796875,0.362548828125,-0.1732177734375
4.332,309,481,756,311,-1.0,35.0,42.0,7.751464366912842,4.69970703125,-9.82666015625,-0.6678466796875,0.362548828125,-0.1732177734375
4.343,310,490,749,310,-1.0,35.0,42.0,-18.85986328125,-14.099120140075684,0.1831054538488388,-0.664794921875,0.429931640625,0.01318359375
4.362,309,493,766,310,-2.0,38.0,41.0,-18.85986328125,-14.099120140075684,0.1831054538488388,-0.6536865234375,0.3936767578125,0.107421875
4.362,309,497,756,310,-2.0,38.0,41.0,-25.756834030151367,-17.7001953125,0.4272460639476776,-0.6536865234375,0.3936767578125,0.107421875
4.373,310,509,795,312,-2.0,38.0,41.0,-20.996091842651367,-15.075682640075684,-0.54931640625,-0.6868896484375,0.3905029296875,0.170654296875
4.382,310,518,808,310,-2.0,38.0,41.0,-20.996091842651367,-15.075682640075684,-0.54931640625,-0.7188720703125,0.3826904296875,0.1796875
4.389,310,525,819,312,-2.0,38.0,41.0,-18.9208984375,-11.901854515075684,0.6713866591453552,-0.7188720703125,0.3826904296875,0.1796875
4.406,310,543,853,311,-2.0,38.0,41.0,-22.094724655151367,-9.46044921875,5.310058116912842,-0.7076416015625,0.2674560546875,0.2808837890625
4.412,310,555,873,311,-2.0,38.0,41.0,-22.094724655151367,-9.46044921875,5.310058116912842,-0.687744140625,0.223876953125,0.29638671875
4.435,310,568,889,312,-2.0,38.0,41.0,-18.12744140625,-9.8876953125,7.751464366912842,-0.687744140625,0.223876953125,0.29638671875
4.435,309,592,927,312,-2.0,38.0,41.0,5.737304210662842,-8.97216796875,10.681151390075684,-0.6842041015625,0.2904052734375,0.2010498046875
4.442,310,606,953,312,-2.0,38.0,41.0,15.258788108825684,-8.6669921875,11.474608421325684,-0.685546875,0.32763671875,0.147705078125
4.465,310,629,973,311,-2.0,39.0,40.0,15.258788108825684,-8.6669921875,11.474608421325684,-0.6600341796875,0.322509765625,0.111328125
4.466,289,657,1055,312,-2.0,39.0,40.0,18.1884765625,-7.080077648162842,10.986327171325684,-0.6217041015625,0.3133544921875,0.0899658203125
4.472,310,688,1099,312,-2.0,39.0,40.0,15.014647483825684,-6.347655773162842,10.009765625,-0.5584716796875,0.2940673828125,0.0865478515625
4.480,310,716,1137,312,-2.0,39.0,40.0,15.014647483825684,-6.347655773162842,10.009765625,-0.44921875,0.2381591796875,0.09912109375
4.493,311,793,1216,312,-2.0,39.0,40.0,6.286620616912842,-6.835937023162842,4.94384765625,-0.3076171875,0.1605224609375,0.130859375
4.502,310,853,1303,312,-2.0,39.0,40.0,4.08935546875,-6.164550304412842,1.220703125,-0.2491455078125,0.0966796875,0.1705322265625
4.515,310,913,1352,312,-2.0,39.0,40.0,4.08935546875,-6.164550304412842,1.220703125,-0.4493408203125,0.059814453125,0.1490478515625
4.523,310,1007,1445,310,-2.0,39.0,40.0,11.230467796325684,-7.873534679412842,-7.629394054412842,-0.84423828125,0.04541015625,0.0269775390625
4.542,310,1038,1492,312,-2.0,39.0,40.0,27.160642623901367,-7.629394054412842,-9.09423828125,-1.2469482421875,0.164794921875,-0.1390380859375
4.542,310,1067,1540,312,-2.0,39.0,40.0,27.160642623901367,-7.629394054412842,-9.09423828125,-1.5675048828125,0.5028076171875,-0.2645263671875
4.566,310,1108,1592,314,-2.0,38.0,46.0,40.771480560302734,-9.82666015625,-2.50244140625,-1.7764892578125,0.924072265625,-0.281494140625
4.566,310,1129,1620,312,-2.0,38.0,46.0,13.427733421325684,-17.51708984375,-2.01416015625,-1.91845703125,1.1204833984375,-0.1650390625
4.570,309,1136,1627,314,-2.0,38.0,46.0,13.427733421325684,-17.51708984375,-2.01416015625,-1.9935302734375,0.9222412109375,0.0714111328125
4.584,311,1117,1591,312,-2.0,38.0,46.0,-38.39111328125,-28.930662155151367,-5.065917491912842,-1.845458984375,0.484619140625,0.358154296875
4.592,311,1104,1564,313,-2.0,38.0,46.0,-26.733396530151367,-23.986814498901367,-2.01416015625,-1.35791015625,0.047607421875,0.534912109375
4.600,310,1074,1524,314,-2.0,38.0,46.0,11.474608421325684,-10.375975608825684,2.44140625,-0.885009765625,0.0462646484375,0.4251708984375
4.614,310,1078,1531,313,-2.0,38.0,46.0,50.781246185302734,3.784179449081421,4.150390625,-0.8143310546875,0.542724609375,0.09521484375
4.625,310,1065,1529,312,-2.0,38.0,46.0,55.541988372802734,9.70458984375,-2.44140625,-1.1304931640625,0.99609375,-0.1466064453125
4.630,310,1051,1511,313,-2.0,38.0,46.0,20.141599655151367,5.981444835662842,-16.78466796875,-1.5457763671875,1.0037841796875,-0.129638671875
4.647,310,1017,1464,312,-1.0,39.0,49.0,-27.709959030151367,0.0,-28.686521530151367,-1.7491455078125,0.6453857421875,0.0611572265625
4.669,310,986,1445,312,-1.0,39.0,49.0,-55.725093841552734,-1.220703125,-29.113767623901367,-1.7008056640625,0.312255859375,0.2562255859375
4.669,296,952,1366,298,-1.0,39.0,49.0,-53.588863372802734,2.38037109375,-17.08984375,-1.529541015625,0.2537841796875,0.3399658203125
4.674,310,888,1320,312,-1.0,39.0,49.0,-35.82763671875,7.934569835662842,0.9765624403953552,-1.328369140625,0.352783203125,0.3272705078125
4.682,311,847,1275,312,-1.0,39.0,49.0,-20.141599655151367,13.305663108825684,15.380858421325684,-1.1002197265625,0.3538818359375,0.30859375
4.690,310,805,1232,312,-1.0,39.0,49.0,-9.1552734375,18.06640625,20.629880905151367,-0.857421875,0.2904052734375,0.284423828125
4.703,311,738,1145,311,-1.0,39.0,49.0,1.8920897245407104,21.911619186401367,18.798828125,-0.667724609375,0.270751953125,0.2012939453125
4.712,310,689,1096,312,-1.0,39.0,49.0,12.329100608825684,23.193357467651367,13.671874046325684,-0.5791015625,0.275390625,0.0806884765625
4.720,310,657,1051,312,-1.0,39.0,49.0,18.798828125,21.240232467651367,7.263183116912842,-0.565185546875,0.2679443359375,-0.009521484375
4.768,310,616,968,310,-1.0,39.0,49.0,18.61572265625,18.6767578125,-0.7324218153953552,-0.58349609375,0.201416015625,-0.0240478515625
4.775,309,591,922,311,0.0,39.0,44.0,14.465331077575684,18.12744140625,-10.681151390075684,-0.604736328125,0.09765625,0.0047607421875
4.776,310,548,899,310,0.0,39.0,44.0,11.840819358825684,20.202634811401367,-20.141599655151367,-0.6138916015625,0.02099609375,-0.0491943359375
4.776,310,537,859,310,0.0,39.0,44.0,12.268065452575684,24.475095748901367,-24.414060592651367,-0.63427734375,0.0341796875,-0.1644287109375
4.776,310,525,814,299,0.0,39.0,44.0,12.695311546325684,24.414060592651367,-21.057126998901367,-0.6539306640625,0.1353759765625,-0.1878662109375
4.780,310,518,823,312,0.0,39.0,44.0,8.85009765625,16.29638671875,-12.573241233825684,-0.6646728515625,0.2557373046875,-0.1451416015625
4.794,310,507,814,312,0.0,39.0,44.0,0.9155272841453552,5.798339366912842,-3.784179449081421,-0.676513671875,0.3558349609375,-0.101318359375
4.802,310,509,813,312,0.0,39.0,44.0,-6.896972179412842,-2.563476324081421,2.197265625,-0.6781005859375,0.4100341796875,-0.0340576171875
4.810,310,519,814,312,0.0,39.0,44.0,-12.390135765075684,-7.568358898162842,4.57763671875,-0.682373046875,0.4202880859375,0.0577392578125
4.823,310,527,830,311,0.0,39.0,44.0,-15.319823265075684,-9.521484375,4.33349609375,-0.68701171875,0.4169921875,0.1434326171875
4.832,311,531,846,312,0.0,39.0,44.0,-16.66259765625,-9.09423828125,3.112792730331421,-0.7032470703125,0.40869140625,0.1971435546875
4.878,310,535,861,312,0.0,39.0,44.0,-17.27294921875,-7.080077648162842,2.01416015625,-0.7210693359375,0.370849609375,0.215087890625
4.878,294,548,854,294,-1.0,37.0,40.0,-16.54052734375,-4.2724609375,1.5869139432907104,-0.7291259765625,0.3145751953125,0.207763671875
4.878,295,562,886,310,-1.0,37.0,40.0,-14.099120140075684,-2.3193359375,2.50244140625,-0.7408447265625,0.279296875,0.202392578125
4.878,294,574,901,312,-1.0,37.0,40.0,-9.3994140625,-2.3193359375,4.2724609375,-0.75439453125,0.2734375,0.19189453125
4.884,308,590,920,310,-1.0,37.0,40.0,-2.807616949081421,-3.173827886581421,6.286620616912842,-0.7625732421875,0.2950439453125,0.1546630859375
4.892,310,601,939,312,-1.0,37.0,40.0,3.173827886581421,-3.967284917831421,8.9111328125,-0.7596435546875,0.3216552734375,0.10888671875
4.900,310,616,975,311,-1.0,37.0,40.0,6.103515148162842,-5.0048828125,11.657713890075684,-0.7266845703125,0.302978515625,0.0914306640625
4.913,310,644,1038,312,-1.0,37.0,40.0,6.958007335662842,-6.225585460662842,13.488768577575684,-0.6116943359375,0.2313232421875,0.1048583984375
4.922,310,666,1078,312,-1.0,37.0,40.0,8.7890625,-7.080077648162842,14.526366233825684,-0.6116943359375,0.2313232421875,0.1048583984375
4.930,308,685,1105,312,-1.0,37.0,40.0,12.390135765075684,-8.11767578125,14.648436546325684,-0.5635986328125,0.248779296875,0.10693359375
4.946,310,730,1160,310,0.0,38.0,41.0,14.465331077575684,-10.009765625,13.977049827575684,-0.478759765625,0.2474365234375,0.062255859375
4.952,310,780,1214,312,0.0,38.0,41.0,12.023924827575684,-11.596678733825684,12.939452171325684,-0.478759765625,0.2474365234375,0.062255859375
4.981,310,833,1300,312,0.0,38.0,41.0,7.019042491912842,-12.023924827575684,11.962889671325684,-0.439697265625,0.249267578125,0.0853271484375
4.981,295,929,1404,310,0.0,38.0,41.0,5.310058116912842,-11.413573265075684,9.27734375,-0.6455078125,0.2119140625,0.0986328125
4.982,310,947,1456,312,0.0,38.0,41.0,11.169432640075684,-9.765625,0.8544921278953552,-0.6455078125,0.2119140625,0.0986328125
4.990,310,1014,1498,313,0.0,38.0,41.0,23.010251998901367,-5.615233898162842,-12.512206077575684,-0.8773193359375,0.13818359375,-0.012451171875
5.004,309,1074,1555,312,0.0,38.0,41.0,33.75244140625,-1.7089842557907104,-21.118162155151367,-1.419677734375,0.560791015625,-0.2042236328125
5.012,310,1093,1580,313,0.0,38.0,41.0,30.517576217651367,-3.173827886581421,-19.6533203125,-1.419677734375,0.560791015625,-0.2042236328125
5.020,310,1115,1599,313,0.0,38.0,41.0,9.82666015625,-10.192870140075684,-13.671874046325684,-1.6038818359375,0.6900634765625,-0.15087890625
5.034,311,1140,1637,310,0.0,38.0,41.0,-12.939452171325684,-18.6767578125,-8.48388671875,-1.8023681640625,0.7568359375,0.2015380859375
5.048,310,1134,1628,312,0.0,38.0,44.0,-23.254392623901367,-24.841306686401367,-4.69970703125,-1.8023681640625,0.7568359375,0.2015380859375
5.050,310,1116,1591,312,0.0,38.0,44.0,-19.95849609375,-26.367185592651367,-3.662109136581421,-1.80419921875,0.68896484375,0.348388671875
5.078,308,1087,1540,312,0.0,38.0,44.0,9.033203125,-4.0283203125,-10.864256858825684,-1.0050048828125,0.1173095703125,0.3944091796875
5.078,311,1074,1523,314,0.0,38.0,44.0,9.033203125,-4.0283203125,-10.864256858825684,-0.7998046875,0.2828369140625,0.1788330078125
5.080,308,1078,1523,312,0.0,38.0,44.0,27.526853561401367,12.023924827575684,-12.573241233825684,-0.7998046875,0.2828369140625,0.1788330078125
5.094,311,1067,1518,312,0.0,38.0,44.0,16.05224609375,14.709471702575684,-21.789548873901367,-1.364013671875,0.877197265625,-0.140869140625
5.102,310,1050,1503,313,0.0,38.0,44.0,16.05224609375,14.709471702575684,-21.789548873901367,-1.6600341796875,0.788818359375,-0.022705078125
5.110,311,1035,1483,313,0.0,38.0,44.0,-13.732909202575684,6.713866710662842,-32.958984375,-1.6600341796875,0.788818359375,-0.022705078125
5.124,310,992,1434,313,0.0,38.0,44.0,-52.185054779052734,3.540038824081421,-38.818359375,-1.6353759765625,0.3682861328125,0.23291015625
5.132,310,955,1400,314,0.0,38.0,44.0,-52.185054779052734,3.540038824081421,-38.818359375,-1.4923095703125,0.3564453125,0.243408203125
5.140,310,916,1349,313,0.0,36.0,42.0,-45.410152435302734,7.019042491912842,-26.977537155151367,-1.4923095703125,0.3564453125,0.243408203125
5.154,310,830,1273,312,0.0,36.0,42.0,-20.629880905151367,14.099120140075684,0.7934569716453552,-1.1038818359375,0.2039794921875,0.2261962890625
5.174,310,790,1228,312,0.0,36.0,42.0,-20.629880905151367,14.099120140075684,0.7934569716453552,-0.8475341796875,0.0699462890625,0.232666015625
5.240,310,750,1162,312,0.0,36.0,42.0,-13.061522483825684,19.71435546875,9.58251953125,-0.8475341796875,0.0699462890625,0.232666015625
5.241,310,667,1078,312,0.0,36.0,42.0,0.0610351525247097,25.024412155151367,21.423337936401367,-0.5035400390625,0.0711669921875,0.1365966796875
5.241,298,642,1025,313,0.0,36.0,42.0,0.0610351525247097,25.024412155151367,21.423337936401367,-0.4620361328125,0.179443359375,0.05517578125
5.241,310,620,968,311,0.0,36.0,42.0,11.596678733825684,20.751951217651367,20.507810592651367,-0.4620361328125,0.179443359375,0.05517578125
5.241,309,582,893,312,0.0,36.0,42.0,30.273435592651367,15.258788108825684,-3.173827886581421,-0.4910888671875,0.06787109375,-0.072509765625
5.241,310,572,878,311,0.0,36.0,42.0,32.53173828125,18.85986328125,-13.732909202575684,-0.5369873046875,0.0496826171875,-0.228271484375
5.241,310,555,865,311,0.0,36.0,42.0,32.53173828125,18.85986328125,-13.732909202575684,-0.6024169921875,0.1956787109375,-0.2965087890625
5.243,311,551,864,310,0.0,38.0,45.0,13.793944358825684,10.681151390075684,-6.103515148162842,-0.6480712890625,0.34912109375,-0.234375
5.254,310,545,861,312,0.0,38.0,45.0,-0.4272460639476776,-2.990722417831421,0.8544921278953552,-0.672607421875,0.423095703125,-0.127197265625
5.259,310,543,861,312,0.0,38.0,45.0,-0.4272460639476776,-2.990722417831421,0.8544921278953552,-0.677734375,0.4302978515625,-0.00830078125
5.288,311,557,873,310,0.0,38.0,45.0,-21.362302780151367,-17.27294921875,6.103515148162842,-0.684326171875,0.396484375,0.107177734375
5.288,310,540,858,310,0.0,38.0,45.0,-25.390623092651367,-16.78466796875,5.371093273162842,-0.703125,0.3526611328125,0.1976318359375
5.291,310,567,891,311,0.0,38.0,45.0,-23.925779342651367,-14.709471702575684,4.45556640625,-0.7113037109375,0.300048828125,0.2415771484375
5.305,310,588,922,312,0.0,38.0,45.0,-18.9208984375,-11.474608421325684,4.7607421875,-0.7083740234375,0.2432861328125,0.2525634765625
5.313,311,594,931,312,0.0,38.0,45.0,-12.878417015075684,-7.629394054412842,6.347655773162842,-0.7213134765625,0.22705078125,0.2452392578125
5.321,310,604,938,312,0.0,38.0,45.0,-6.835937023162842,-4.7607421875,8.48388671875,-0.7471923828125,0.2476806640625,0.221923828125
5.335,309,631,966,311,0.0,38.0,45.0,-1.3427733182907104,-4.0283203125,10.864256858825684,-0.772216796875,0.276123046875,0.18994140625
5.343,310,639,998,312,-2.0,40.0,42.0,3.723144292831421,-4.94384765625,13.427733421325684,-0.77685546875,0.2904052734375,0.153076171875
5.356,310,645,1022,311,-2.0,40.0,42.0,8.7890625,-5.920409679412842,16.05224609375,-0.752685546875,0.287353515625,0.1170654296875
5.365,310,673,1069,311,-2.0,40.0,42.0,13.610838890075684,-6.225585460662842,18.73779296875,-0.716064453125,0.28173828125,0.1015625
5.390,311,685,1098,312,-2.0,40.0,42.0,16.78466796875,-6.652831554412842,20.935056686401367,-0.66357421875,0.2677001953125,0.1126708984375
5.390,310,698,1133,308,-2.0,40.0,42.0,17.27294921875,-7.446288585662842,21.484373092651367,-0.589111328125,0.2430419921875,0.1336669921875
5.395,310,762,1176,312,-2.0,40.0,42.0,17.822265625,-8.056640625,20.446775436401367,-0.51904296875,0.2242431640625,0.1407470703125
5.403,310,806,1234,312,-2.0,40.0,42.0,20.996091842651367,-7.629394054412842,18.798828125,-0.5245361328125,0.263671875,0.111083984375
5.414,310,853,1292,312,-2.0,40.0,42.0,24.780271530151367,-7.507323741912842,16.11328125,-0.6484375,0.34521484375,0.0291748046875
5.425,310,928,1387,312,-2.0,40.0,42.0,26.611326217651367,-8.36181640625,8.7890625,-0.7713623046875,0.330810546875,-0.078125
5.433,311,963,1437,313,-2.0,40.0,42.0,28.869626998901367,-7.385253429412842,-3.845214605331421,-0.8046875,0.23583984375,-0.1534423828125
5.441,310,1000,1486,314,-2.0,38.0,47.0,32.53173828125,-5.737304210662842,-16.29638671875,-0.8271484375,0.2454833984375,-0.16015625
5.461,310,1050,1543,312,-2.0,38.0,47.0,28.808591842651367,-7.873534679412842,-23.864744186401367,-0.9278564453125,0.3826904296875,-0.1268310546875
5.463,310,1081,1578,312,-2.0,38.0,47.0,13.061522483825684,-13.427733421325684,-25.756834030151367,-1.1558837890625,0.5145263671875,-0.091552734375
5.496,310,1104,1602,312,-2.0,38.0,47.0,-7.995604991912842,-20.01953125,-22.827146530151367,-1.4700927734375,0.58349609375,-0.009521484375
5.497,289,1127,1628,312,-2.0,38.0,47.0,-25.634763717651367,-25.512693405151367,-15.624999046325684,-1.777587890625,0.6461181640625,0.1207275390625
5.497,298,1116,1577,295,-2.0,38.0,47.0,-35.58349609375,-27.954099655151367,-5.249022960662842,-1.971923828125,0.6551513671875,0.275634765625
5.501,310,1101,1595,313,-2.0,38.0,47.0,-35.21728515625,-26.123044967651367,4.82177734375,-1.8214111328125,0.4410400390625,0.4569091796875
5.515,310,1071,1547,312,-2.0,38.0,47.0,-22.277830123901367,-16.41845703125,10.559081077575684,-1.2789306640625,0.0894775390625,0.5701904296875
5.526,310,1043,1523,314,-2.0,38.0,47.0,5.432128429412842,0.4272460639476776,12.451170921325684,-0.8299560546875,0.1058349609375,0.426513671875
5.531,311,1043,1528,313,-2.0,38.0,47.0,33.50830078125,14.831542015075684,12.023924827575684,-0.79052734375,0.5291748046875,0.0704345703125
5.545,310,1037,1529,311,1.0,36.0,41.0,38.2080078125,20.141599655151367,4.33349609375,-1.0543212890625,0.8653564453125,-0.17529296875
5.553,310,1025,1518,314,1.0,36.0,41.0,16.9677734375,16.05224609375,-10.986327171325684,-1.4381103515625,0.89501953125,-0.157470703125
5.561,311,1001,1499,315,1.0,36.0,41.0,-16.2353515625,7.141112804412842,-24.353025436401367,-1.7115478515625,0.671875,0.0050048828125
5.590,310,957,1456,312,1.0,36.0,41.0,-41.564937591552734,1.6479490995407104,-27.038572311401367,-1.7596435546875,0.4420166015625,0.172607421875
5.590,299,917,1393,312,1.0,36.0,41.0,-46.081539154052734,2.01416015625,-18.06640625,-1.64111328125,0.36962890625,0.267333984375
5.591,311,853,1320,312,1.0,36.0,41.0,-36.07177734375,5.554198741912842,-3.112792730331421,-1.4449462890625,0.358154296875,0.279541015625
5.605,311,799,1274,313,1.0,36.0,41.0,-21.972654342651367,10.070799827575684,9.82666015625,-0.944580078125,0.271728515625,0.2923583984375
5.613,311,751,1225,313,1.0,36.0,41.0,-8.36181640625,14.404295921325684,16.41845703125,-0.944580078125,0.271728515625,0.2923583984375
5.621,310,713,1162,312,1.0,36.0,41.0,2.25830078125,18.1884765625,17.02880859375,-0.705810546875,0.250244140625,0.240234375
5.648,310,657,1078,311,1.0,36.0,41.0,10.559081077575684,20.690916061401367,14.099120140075684,-0.4541015625,0.218505859375,0.0562744140625
5.648,310,621,1025,296,-2.0,37.0,43.0,18.73779296875,20.812986373901367,9.521484375,-0.4541015625,0.218505859375,0.0562744140625
5.651,310,601,981,311,-2.0,37.0,43.0,23.986814498901367,19.775390625,2.3193359375,-0.4676513671875,0.2086181640625,0.010498046875
5.668,309,558,901,312,-2.0,37.0,43.0,23.864744186401367,18.5546875,-7.995604991912842,-0.57373046875,0.0648193359375,-0.071044921875
5.673,310,545,875,312,-2.0,37.0,43.0,20.324705123901367,18.798828125,-18.85986328125,-0.57373046875,0.0648193359375,-0.071044921875
5.692,310,539,872,312,-2.0,37.0,43.0,16.9677734375,21.850584030151367,-24.780271530151367,-0.6268310546875,0.0662841796875,-0.2000732421875
5.695,310,525,858,311,-2.0,37.0,43.0,13.671874046325684,21.118162155151367,-21.972654342651367,-0.7061767578125,0.293212890625,-0.1636962890625
5.706,310,523,861,311,-2.0,37.0,43.0,6.958007335662842,12.634276390075684,-13.732909202575684,-0.7061767578125,0.293212890625,-0.1636962890625
5.711,310,519,861,310,-2.0,37.0,43.0,-2.38037109375,1.8310545682907104,-5.493163585662842,-0.7186279296875,0.356689453125,-0.09423828125
5.724,310,527,865,311,-2.0,37.0,43.0,-9.58251953125,-6.042479991912842,-0.0610351525247097,-0.7138671875,0.3560791015625,0.0738525390625
5.733,309,532,875,310,-2.0,37.0,43.0,-13.000487327575684,-9.82666015625,2.0751953125,-0.7138671875,0.3560791015625,0.0738525390625
5.741,310,537,886,312,-2.0,38.0,39.0,-13.916014671325684,-10.559081077575684,2.44140625,-0.7254638671875,0.369140625,0.1513671875
5.755,310,543,910,312,-2.0,38.0,39.0,-13.244627952575684,-9.033203125,2.807616949081421,-0.7265625,0.307861328125,0.235595703125
5.766,308,552,916,312,-2.0,38.0,39.0,-13.244627952575684,-9.033203125,2.807616949081421,-0.7108154296875,0.23974609375,0.233154296875
5.771,310,561,927,311,-2.0,38.0,39.0,-10.742186546325684,-6.469726085662842,3.723144292831421,-0.7108154296875,0.23974609375,0.233154296875
5.792,310,576,946,312,-2.0,38.0,39.0,0.4882812201976776,-4.150390625,7.568358898162842,-0.7244873046875,0.2806396484375,0.1754150390625
5.796,309,588,971,312,-2.0,38.0,39.0,0.4882812201976776,-4.150390625,7.568358898162842,-0.7354736328125,0.3375244140625,0.1353759765625
5.801,309,599,994,312,-2.0,38.0,39.0,6.591796398162842,-5.737304210662842,9.033203125,-0.7354736328125,0.3375244140625,0.1353759765625
5.815,309,621,1029,311,-2.0,38.0,39.0,13.793944358825684,-6.530761241912842,9.46044921875,-0.7158203125,0.3912353515625,0.05908203125
5.823,308,635,1051,312,-2.0,38.0,39.0,13.793944358825684,-6.530761241912842,9.46044921875,-0.681640625,0.3697509765625,0.055419921875
5.832,309,646,1091,311,-2.0,38.0,39.0,12.023924827575684,-6.042479991912842,8.97216796875,-0.681640625,0.3697509765625,0.055419921875
5.845,310,689,1136,310,-1.0,37.0,43.0,4.2724609375,-7.873534679412842,7.141112804412842,-0.58837890625,0.32421875,0.080078125
5.853,310,725,1184,312,-1.0,37.0,43.0,4.2724609375,-7.873534679412842,7.141112804412842,-0.637451171875,0.278564453125,0.0823974609375
5.871,311,767,1213,311,-1.0,37.0,43.0,3.479003667831421,-9.58251953125,5.615233898162842,-0.637451171875,0.278564453125,0.0823974609375
5.875,310,827,1274,312,-1.0,37.0,43.0,9.6435546875,-13.916014671325684,-2.25830078125,-0.87109375,0.086181640625,-0.03662109375
5.899,310,862,1344,312,-1.0,37.0,43.0,9.6435546875,-13.916014671325684,-2.25830078125,-0.8363037109375,0.004638671875,-0.0301513671875
5.900,310,907,1400,312,-1.0,37.0,43.0,7.568358898162842,-14.831542015075684,-7.995604991912842,-0.760009765625,0.0712890625,0.044677734375
5.905,310,959,1471,314,-1.0,37.0,43.0,19.775390625,-11.474608421325684,-12.634276390075684,-0.7982177734375,0.326171875,0.045166015625
5.918,312,989,1502,313,-1.0,37.0,43.0,22.460935592651367,-11.230467796325684,-13.793944358825684,-1.0025634765625,0.5645751953125,0.0126953125
5.921,310,1009,1528,314,-1.0,37.0,43.0,22.460935592651367,-11.230467796325684,-13.793944358825684,-1.29833984375,0.6419677734375,0.0328369140625
5.935,310,1038,1569,312,0.0,36.0,43.0,-7.141112804412842,-18.12744140625,-18.00537109375,-1.5687255859375,0.5968017578125,0.116943359375
5.943,310,1050,1583,314,0.0,36.0,43.0,-16.05224609375,-18.98193359375,-15.563963890075684,-1.7335205078125,0.547119140625,0.2113037109375
5.951,311,1050,1583,312,0.0,36.0,43.0,-16.05224609375,-18.98193359375,-15.563963890075684,-1.7760009765625,0.548095703125,0.28271484375
5.978,311,1020,1531,311,0.0,36.0,43.0,-8.056640625,-11.108397483825684,-7.690429210662842,-1.5850830078125,0.47802734375,0.29638671875
5.978,310,996,1492,314,0.0,36.0,43.0,3.051757574081421,0.2441406100988388,-6.286620616912842,-1.1634521484375,0.249267578125,0.2896728515625
5.983,310,974,1460,314,0.0,36.0,43.0,3.051757574081421,0.2441406100988388,-6.286620616912842,-0.850830078125,0.181640625,0.229736328125
5.999,310,951,1432,313,0.0,36.0,43.0,17.63916015625,21.850584030151367,-2.990722417831421,-0.828369140625,0.350341796875,0.0860595703125
6.003,310,943,1437,312,0.0,36.0,43.0,5.554198741912842,21.911619186401367,-3.723144292831421,-1.02880859375,0.5107421875,-0.049072265625
6.011,311,933,1434,313,0.0,36.0,43.0,5.554198741912842,21.911619186401367,-3.723144292831421,-1.343994140625,0.6463623046875,-0.0888671875
6.025,310,904,1409,311,0.0,36.0,43.0,-23.193357467651367,7.202147960662842,-11.657713890075684,-1.58154296875,0.6973876953125,-0.013671875
6.033,310,875,1374,314,0.0,37.0,44.0,-34.11865234375,1.220703125,-13.305663108825684,-1.6121826171875,0.5833740234375,0.09814453125
6.041,310,852,1309,314,0.0,37.0,44.0,-37.109375,1.5258787870407104,-12.207030296325684,-1.4647216796875,0.386474609375,0.1649169921875
6.055,310,806,1209,312,0.0,37.0,44.0,-31.311033248901367,5.493163585662842,-6.958007335662842,-1.2254638671875,0.1939697265625,0.2069091796875
6.063,310,779,1162,312,0.0,37.0,44.0,-19.775390625,8.36181640625,2.197265625,-0.99658203125,0.1246337890625,0.2034912109375
6.073,310,756,1105,312,0.0,37.0,44.0,-8.36181640625,7.568358898162842,10.742186546325684,-0.84765625,0.218994140625,0.1436767578125
6.103,310,713,1011,310,0.0,37.0,44.0,-4.150390625,3.479003667831421,13.061522483825684,-0.770751953125,0.3494873046875,0.07958984375
6.103,310,671,955,294,0.0,37.0,44.0,-6.591796398162842,0.3662109076976776,8.11767578125,-0.739013671875,0.4276123046875,0.031494140625
6.104,310,662,905,296,0.0,37.0,44.0,-10.925292015075684,0.4272460639476776,-1.3427733182907104,-0.724365234375,0.4234619140625,0.0159912109375
6.110,310,643,854,310,0.0,37.0,44.0,-10.925292015075684,0.4272460639476776,-1.3427733182907104,-0.7158203125,0.34765625,0.0302734375
6.131,310,594,809,310,0.0,37.0,44.0,-15.502928733825684,4.21142578125,-17.02880859375,-0.720703125,0.2523193359375,0.046630859375
6.132,310,578,771,311,0.0,38.0,40.0,-13.488768577575684,4.8828125,-18.49365234375,-0.731689453125,0.1790771484375,0.04638671875
6.140,310,568,741,310,0.0,38.0,40.0,-9.70458984375,4.39453125,-16.845703125,-0.7369384765625,0.1470947265625,0.034423828125
6.154,310,552,705,309,0.0,38.0,40.0,-6.103515148162842,2.685546636581421,-13.977049827575684,-0.7396240234375,0.1474609375,0.043212890625
6.162,309,549,693,310,0.0,38.0,40.0,-5.126952648162842,-0.4272460639476776,-11.596678733825684,-0.74658203125,0.166259765625,0.07861328125
6.176,309,548,685,310,0.0,38.0,40.0,-5.859374523162842,-3.234863042831421,-9.94873046875,-0.758544921875,0.197265625,0.1158447265625
6.184,308,545,678,310,0.0,38.0,40.0,-5.981444835662842,-4.21142578125,-8.6669921875,-0.787109375,0.2103271484375,0.1361083984375
6.203,310,543,673,311,0.0,38.0,40.0,-5.0048828125,-3.845214605331421,-7.141112804412842,-0.8177490234375,0.2191162109375,0.1336669921875
6.204,310,543,673,311,0.0,38.0,40.0,-4.5166015625,-3.295898199081421,-4.150390625,-0.7991943359375,0.2392578125,0.1260986328125
6.214,309,548,693,310,0.0,38.0,40.0,-4.7607421875,-3.051757574081421,-0.4272460639476776,-0.745849609375,0.24853515625,0.12451171875
6.222,309,552,702,310,0.0,38.0,40.0,-4.33349609375,-3.479003667831421,2.197265625,-0.72119140625,0.2547607421875,0.13427734375
6.230,310,557,711,310,0.0,38.0,40.0,-3.295898199081421,-4.638671875,3.662109136581421,-0.75146484375,0.2808837890625,0.15380859375
6.244,310,564,730,310,0.0,37.0,43.0,-2.746581792831421,-5.187987804412842,4.5166015625,-0.79736328125,0.2994384765625,0.1658935546875
6.255,311,574,742,311,0.0,37.0,43.0,-2.929687261581421,-3.845214605331421,5.0048828125,-0.8206787109375,0.2796630859375,0.159423828125
6.316,310,577,771,310,0.0,37.0,43.0,-3.234863042831421,-1.5258787870407104,5.065917491912842,-0.8245849609375,0.2486572265625,0.140380859375
6.316,310,594,810,311,0.0,37.0,43.0,-2.685546636581421,-0.7934569716453552,5.554198741912842,-0.81396484375,0.2415771484375,0.1080322265625
6.319,310,607,833,312,0.0,37.0,43.0,-1.3427733182907104,-2.685546636581421,6.469726085662842,-0.7894287109375,0.250244140625,0.0819091796875
6.319,308,623,877,311,0.0,37.0,43.0,-0.4272460639476776,-6.896972179412842,6.896972179412842,-0.746337890625,0.2481689453125,0.0811767578125
6.319,310,639,982,299,0.0,37.0,43.0,-0.8544921278953552,-10.986327171325684,6.469726085662842,-0.7021484375,0.2364501953125,0.0882568359375
6.319,310,673,1056,312,0.0,37.0,43.0,-2.563476324081421,-13.305663108825684,5.859374523162842,-0.672607421875,0.2183837890625,0.088623046875
6.320,310,691,1108,311,0.0,37.0,43.0,-4.94384765625,-13.610838890075684,5.859374523162842,-0.6470947265625,0.201904296875,0.075439453125
6.334,310,739,1204,312,1.0,36.0,39.0,-7.385253429412842,-13.183592796325684,6.774901866912842,-0.6064453125,0.19189453125,0.065185546875
6.346,310,771,1250,312,1.0,36.0,39.0,-8.544921875,-14.404295921325684,6.652831554412842,-0.539306640625,0.177001953125,0.09130859375
6.350,310,801,1323,312,1.0,36.0,39.0,-4.94384765625,-17.578125,2.746581792831421,-0.4874267578125,0.173828125,0.140380859375
6.364,310,859,1409,312,1.0,36.0,39.0,3.234863042831421,-20.751951217651367,-5.615233898162842,-0.546142578125,0.2349853515625,0.1690673828125
6.372,309,889,1445,313,1.0,36.0,39.0,9.6435546875,-21.850584030151367,-15.502928733825684,-0.7547607421875,0.403076171875,0.17041015625
6.380,310,927,1486,313,1.0,36.0,39.0,9.27734375,-19.6533203125,-22.094724655151367,-1.0618896484375,0.5850830078125,0.14794921875
6.411,310,966,1526,311,1.0,36.0,39.0,3.417968511581421,-14.709471702575684,-23.925779342651367,-1.372314453125,0.60546875,0.1253662109375
6.411,310,982,1545,312,1.0,36.0,39.0,-3.540038824081421,-9.70458984375,-22.644041061401367,-1.6055908203125,0.4716796875,0.1365966796875
6.411,295,998,1519,299,1.0,36.0,39.0,-7.568358898162842,-7.690429210662842,-18.06640625,-1.7435302734375,0.3519287109375,0.1763916015625
6.428,312,987,1536,311,1.0,36.0,39.0,-8.1787109375,-8.23974609375,-9.6435546875,-1.7679443359375,0.306396484375,0.2215576171875
6.433,310,973,1503,314,0.0,36.0,44.0,-5.798339366912842,-7.812499523162842,0.0,-1.592529296875,0.2335205078125,0.2459716796875
6.440,311,958,1474,313,0.0,36.0,44.0,0.3662109076976776,-2.868652105331421,6.896972179412842,-1.2281494140625,0.124755859375,0.226806640625
6.454,311,913,1419,312,0.0,36.0,44.0,10.803221702575684,4.150390625,9.46044921875,-0.8734130859375,0.428955078125,0.10791015625
6.462,310,891,1395,312,0.0,36.0,44.0,18.85986328125,8.056640625,8.30078125,-0.8734130859375,0.428955078125,0.10791015625
6.470,308,889,1407,313,0.0,36.0,44.0,16.9677734375,10.803221702575684,2.3193359375,-0.951904296875,0.5546875,0.069580078125
6.484,309,875,1407,312,0.0,36.0,44.0,8.9111328125,15.014647483825684,-7.202147960662842,-1.4207763671875,0.57421875,0.1473388671875
6.492,311,859,1390,312,0.0,36.0,44.0,0.6713866591453552,16.6015625,-12.390135765075684,-1.4207763671875,0.57421875,0.1473388671875
6.512,311,835,1361,314,0.0,36.0,44.0,-8.36181640625,14.526366233825684,-8.60595703125,-1.58154296875,0.5316162109375,0.180908203125
6.514,297,799,1292,312,0.0,36.0,44.0,-15.563963890075684,13.061522483825684,-0.3662109076976776,-1.370361328125,0.2054443359375,0.2191162109375
6.522,310,772,1245,313,0.0,36.0,44.0,-15.747069358825684,12.573241233825684,7.812499523162842,-1.370361328125,0.2054443359375,0.2191162109375
6.530,310,750,1176,312,1.0,37.0,44.0,-9.94873046875,11.352538108825684,15.869139671325684,-1.1351318359375,0.1661376953125,0.248046875
6.544,309,710,1098,310,1.0,37.0,44.0,-2.807616949081421,10.070799827575684,22.399900436401367,-0.7303466796875,0.307373046875,0.15625
6.552,310,678,1067,312,1.0,37.0,44.0,3.417968511581421,9.1552734375,23.620603561401367,-0.7303466796875,0.307373046875,0.15625
6.564,310,657,1029,312,1.0,37.0,44.0,7.995604991912842,9.09423828125,18.85986328125,-0.6375732421875,0.38427734375,0.07470703125
6.574,310,631,996,312,1.0,37.0,44.0,8.97216796875,10.131834983825684,10.314940452575684,-0.613525390625,0.3544921875,0.07763671875
6.588,310,617,972,312,1.0,37.0,44.0,6.225585460662842,11.474608421325684,-0.4272460639476776,-0.648681640625,0.2154541015625,0.0830078125
6.590,310,603,959,311,1.0,37.0,44.0,3.112792730331421,13.244627952575684,-10.620116233825684,-0.648681640625,0.2154541015625,0.0830078125
6.612,308,590,928,311,1.0,37.0,44.0,-0.4882812201976776,15.197752952575684,-14.099120140075684,-0.7364501953125,0.1279296875,-0.007568359375
6.615,311,585,913,312,1.0,37.0,44.0,-0.4882812201976776,15.197752952575684,-14.099120140075684,-0.748046875,0.1578369140625,0.0118408203125
6.621,311,578,907,312,1.0,37.0,44.0,-2.746581792831421,10.498045921325684,-8.4228515625,-0.748046875,0.1578369140625,0.0118408203125
6.634,308,574,895,311,1.0,38.0,44.0,-1.03759765625,-1.03759765625,1.3427733182907104,-0.7781982421875,0.2249755859375,0.0828857421875
6.643,308,574,907,311,1.0,38.0,44.0,-1.03759765625,-1.03759765625,1.3427733182907104,-0.7921142578125,0.2374267578125,0.118408203125
6.656,308,576,910,312,1.0,38.0,44.0,0.0,-3.662109136581421,3.601073980331421,-0.7921142578125,0.2374267578125,0.118408203125
6.667,310,586,933,311,1.0,38.0,44.0,-1.5869139432907104,-3.601073980331421,6.164550304412842,-0.799560546875,0.2513427734375,0.132568359375
6.672,310,590,943,312,1.0,38.0,44.0,-1.5869139432907104,-3.601073980331421,6.164550304412842,-0.7877197265625,0.2862548828125,0.12548828125
6.680,310,594,958,312,1.0,38.0,44.0,-2.868652105331421,-3.540038824081421,8.48388671875,-0.7877197265625,0.2862548828125,0.12548828125
6.694,309,607,992,311,1.0,38.0,44.0,-3.295898199081421,-6.591796398162842,12.207030296325684,-0.7767333984375,0.2945556640625,0.1044921875
6.721,310,616,1017,312,1.0,38.0,44.0,-3.295898199081421,-6.591796398162842,12.207030296325684,-0.770751953125,0.2841796875,0.087158203125
6.721,310,621,1039,312,1.0,38.0,44.0,-1.7700194120407104,-7.751464366912842,11.352538108825684,-0.770751953125,0.2841796875,0.087158203125
6.724,311,644,1108,312,1.0,38.0,44.0,0.4882812201976776,-10.009765625,7.629394054412842,-0.7801513671875,0.294921875,0.076416015625
6.732,311,661,1131,313,0.0,40.0,41.0,-2.0751953125,-10.375975608825684,6.713866710662842,-0.767578125,0.2581787109375,0.07763671875
6.740,310,676,1157,311,0.0,40.0,41.0,-2.0751953125,-10.375975608825684,6.713866710662842,-0.723388671875,0.2041015625,0.0831298828125
6.754,310,705,1206,312,0.0,40.0,41.0,-7.568358898162842,-12.939452171325684,7.690429210662842,-0.6463623046875,0.1773681640625,0.098876953125
6.776,310,729,1243,313,0.0,40.0,41.0,-4.45556640625,-15.808104515075684,8.30078125,-0.5655517578125,0.197509765625,0.118896484375
6.777,292,740,1290,312,0.0,40.0,41.0,-4.45556640625,-15.808104515075684,8.30078125,-0.5191650390625,0.235595703125,0.1243896484375
6.790,310,816,1390,314,0.0,40.0,41.0,9.521484375,-24.658201217651367,3.540038824081421,-0.5177001953125,0.2626953125,0.11669921875
6.792,310,848,1437,312,0.0,40.0,41.0,17.51708984375,-28.991697311401367,-3.356933355331421,-0.5927734375,0.27880859375,0.0970458984375
6.805,310,878,1472,312,0.0,40.0,41.0,17.51708984375,-28.991697311401367,-3.356933355331421,-0.781982421875,0.353759765625,0.0738525390625
6.819,310,923,1528,312,0.0,40.0,41.0,22.949216842651367,-30.517576217651367,-18.6767578125,-1.04150390625,0.515625,0.0830078125
6.822,311,951,1559,313,0.0,40.0,41.0,11.352538108825684,-28.076169967651367,-22.766111373901367,-1.2879638671875,0.6226806640625,0.1343994140625
6.830,310,973,1592,312,0.0,36.0,41.0,11.352538108825684,-28.076169967651367,-22.766111373901367,-1.469482421875,0.5670166015625,0.184814453125
6.844,310,992,1608,312,0.0,36.0,41.0,-12.878417015075684,-23.132322311401367,-28.320310592651367,-1.5892333984375,0.4521484375,0.2200927734375
6.852,311,996,1610,313,0.0,36.0,41.0,-11.230467796325684,-23.681638717651367,-26.123044967651367,-1.6549072265625,0.390380859375,0.260009765625
6.860,310,981,1592,314,0.0,36.0,41.0,-11.230467796325684,-23.681638717651367,-26.123044967651367,-1.616943359375,0.33447265625,0.2938232421875
6.885,311,944,1543,314,0.0,36.0,41.0,2.13623046875,-20.324705123901367,-12.939452171325684,-1.36083984375,0.165771484375,0.292236328125
6.885,310,927,1516,314,0.0,36.0,41.0,7.324218273162842,-9.6435546875,-6.347655773162842,-1.011474609375,0.015625,0.284423828125
6.892,310,895,1477,312,0.0,36.0,41.0,8.6669921875,1.03759765625,-0.6713866591453552,-0.856689453125,0.1173095703125,0.2811279296875
6.922,310,873,1456,312,0.0,36.0,41.0,3.479003667831421,7.263183116912842,1.9531248807907104,-0.900390625,0.332275390625,0.239013671875
6.922,310,868,1462,299,0.0,36.0,41.0,-2.0751953125,12.878417015075684,-2.0751953125,-1.0462646484375,0.50732421875,0.1798095703125
6.923,310,837,1432,311,0.0,36.0,41.0,-2.990722417831421,17.2119140625,-10.620116233825684,-1.2978515625,0.7110595703125,0.1781005859375
6.934,310,832,1415,312,0.0,35.0,45.0,-7.019042491912842,17.08984375,-17.822265625,-1.5330810546875,0.803955078125,0.214599609375
6.942,310,809,1387,314,0.0,35.0,45.0,-18.61572265625,16.41845703125,-22.583005905151367,-1.563232421875,0.583984375,0.2275390625
6.950,310,780,1345,312,0.0,35.0,45.0,-25.817869186401367,18.00537109375,-24.169919967651367,-1.406494140625,0.2559814453125,0.22021484375
6.964,310,740,1267,312,0.0,35.0,45.0,-18.310546875,18.1884765625,-18.4326171875,-1.19970703125,0.107666015625,0.1976318359375
6.972,310,707,1209,312,0.0,35.0,45.0,-3.540038824081421,15.258788108825684,-6.042479991912842,-1.000244140625,0.11474609375,0.18212890625
7.000,310,682,1157,312,0.0,35.0,45.0,6.042479991912842,11.230467796325684,6.591796398162842,-0.8134765625,0.1201171875,0.1671142578125
7.000,310,652,1089,312,0.0,35.0,45.0,7.995604991912842,9.21630859375,14.892577171325684,-0.665283203125,0.0936279296875,0.127197265625
7.002,311,634,1054,312,0.0,35.0,45.0,6.469726085662842,9.09423828125,18.5546875,-0.56884765625,0.1182861328125,0.0965576171875
7.025,310,620,1035,311,0.0,35.0,45.0,4.39453125,8.4228515625,17.76123046875,-0.5411376953125,0.2174072265625,0.095703125
7.025,309,599,1009,312,0.0,35.0,45.0,3.112792730331421,7.873534679412842,12.695311546325684,-0.580810546875,0.314453125,0.0982666015625
7.032,310,593,999,312,0.0,37.0,39.0,2.807616949081421,9.27734375,5.676269054412842,-0.6314697265625,0.3260498046875,0.10498046875
7.040,310,594,999,312,0.0,37.0,39.0,1.7089842557907104,11.474608421325684,-0.3662109076976776,-0.658203125,0.2332763671875,0.1309814453125
7.054,310,594,1009,312,0.0,37.0,39.0,-0.4882812201976776,12.634276390075684,-3.906249761581421,-0.69775390625,0.1351318359375,0.13818359375
7.062,310,594,1013,311,0.0,37.0,39.0,-2.50244140625,11.779784202575684,-3.906249761581421,-0.75830078125,0.1475830078125,0.1123046875
7.070,310,599,1013,312,0.0,37.0,39.0,-3.662109136581421,8.36181640625,-1.15966796875,-0.802734375,0.2373046875,0.098388671875
7.105,310,606,1022,311,0.0,37.0,39.0,-3.173827886581421,3.540038824081421,1.9531248807907104,-0.8292236328125,0.300537109375,0.10546875
7.106,310,608,1034,312,0.0,37.0,39.0,-0.8544921278953552,-0.30517578125,3.784179449081421,-0.851806640625,0.3021240234375,0.11669921875
7.106,310,617,1043,311,0.0,37.0,39.0,1.6479490995407104,-2.3193359375,4.57763671875,-0.8800048828125,0.2838134765625,0.130615234375
7.133,308,629,1069,310,0.0,37.0,39.0,2.868652105331421,-3.479003667831421,5.310058116912842,-0.90771484375,0.278076171875,0.1466064453125
7.133,294,613,1091,310,0.0,37.0,39.0,2.38037109375,-4.33349609375,6.652831554412842,-0.9219970703125,0.26806640625,0.1524658203125
7.133,296,644,1108,312,-2.0,35.0,44.0,1.4038084745407104,-5.493163585662842,8.7890625,-0.9239501953125,0.24951171875,0.1483154296875
7.144,310,652,1129,312,-2.0,35.0,44.0,1.03759765625,-7.202147960662842,11.962889671325684,-0.923583984375,0.238037109375,0.137451171875
7.154,311,658,1133,312,-2.0,35.0,44.0,1.4038084745407104,-9.033203125,15.930174827575684,-0.916015625,0.2249755859375,0.119140625
7.160,310,664,1148,312,-2.0,35.0,44.0,1.8310545682907104,-10.925292015075684,19.53125,-0.859375,0.1961669921875,0.1029052734375
7.174,310,684,1172,312,-2.0,35.0,44.0,2.990722417831421,-13.122557640075684,21.850584030151367,-0.729736328125,0.171142578125,0.103271484375
7.182,310,698,1198,313,-2.0,35.0,44.0,7.263183116912842,-15.502928733825684,22.094724655151367,-0.5728759765625,0.1829833984375,0.121826171875
7.205,311,712,1228,312,-2.0,35.0,44.0,15.014647483825684,-17.39501953125,19.4091796875,-0.443603515625,0.212646484375,0.138916015625
7.206,310,754,1306,312,-2.0,35.0,44.0,23.986814498901367,-18.310546875,13.671874046325684,-0.3282470703125,0.1651611328125,0.1192626953125
7.230,310,782,1369,312,-2.0,35.0,44.0,30.334470748901367,-17.7001953125,5.249022960662842,-0.3282470703125,0.1651611328125,0.1192626953125
7.230,295,819,1409,287,-2.0,35.0,44.0,32.2265625,-16.4794921875,-5.310058116912842,-0.3238525390625,0.1322021484375,0.1258544921875
7.234,312,878,1486,313,0.0,34.0,45.0,34.11865234375,-15.258788108825684,-15.930174827575684,-0.6138916015625,0.3551025390625,0.0765380859375
7.242,311,918,1524,312,0.0,34.0,45.0,37.29248046875,-14.465331077575684,-22.766111373901367,-0.6138916015625,0.3551025390625,0.0765380859375
7.250,308,953,1560,313,0.0,34.0,45.0,33.935546875,-15.563963890075684,-24.169919967651367,-0.96044921875,0.551025390625,0.024658203125
7.264,310,994,1615,313,0.0,34.0,45.0,18.310546875,-18.5546875,-22.338865280151367,-1.58837890625,0.58642578125,0.1002197265625
7.272,310,1017,1634,314,0.0,34.0,45.0,-1.7089842557907104,-21.118162155151367,-20.446775436401367,-1.58837890625,0.58642578125,0.1002197265625
7.280,310,1034,1649,313,0.0,34.0,45.0,-14.953612327575684,-21.911619186401367,-19.4091796875,-1.7227783203125,0.4630126953125,0.218994140625
7.293,311,1034,1646,312,0.0,34.0,45.0,-17.51708984375,-21.240232467651367,-16.7236328125,-1.7882080078125,0.4598388671875,0.339111328125
7.320,310,1013,1610,313,0.0,34.0,45.0,-14.587401390075684,-19.22607421875,-10.437010765075684,-1.7882080078125,0.4598388671875,0.339111328125
7.332,294,1000,1583,313,0.0,34.0,45.0,-12.329100608825684,-15.136717796325684,-2.44140625,-1.5279541015625,0.284912109375,0.3726806640625
7.333,310,973,1533,314,0.0,37.0,45.0,-7.568358898162842,-6.286620616912842,3.295898199081421,-0.776123046875,0.0286865234375,0.4078369140625
7.334,312,966,1521,312,0.0,37.0,45.0,8.30078125,4.45556640625,6.103515148162842,-0.776123046875,0.0286865234375,0.4078369140625
7.340,310,960,1533,314,0.0,37.0,45.0,26.000974655151367,12.817381858825684,6.347655773162842,-0.8250732421875,0.4068603515625,0.2198486328125
7.354,310,944,1533,313,0.0,37.0,45.0,11.535643577575684,19.53125,-7.324218273162842,-1.39794921875,0.821533203125,-0.010009765625
7.362,310,931,1524,313,0.0,37.0,45.0,11.535643577575684,19.53125,-7.324218273162842,-1.5609130859375,0.6346435546875,0.0894775390625
7.370,310,910,1504,314,0.0,37.0,45.0,-16.2353515625,15.441893577575684,-15.014647483825684,-1.5609130859375,0.6346435546875,0.0894775390625
7.384,310,859,1455,312,0.0,37.0,45.0,-42.541500091552734,11.047362327575684,-10.375975608825684,-1.4527587890625,0.2218017578125,0.276123046875
7.392,310,833,1398,313,0.0,37.0,45.0,-42.541500091552734,11.047362327575684,-10.375975608825684,-1.3131103515625,0.1817626953125,0.308837890625
7.413,310,809,1357,312,0.0,37.0,45.0,-35.09521484375,11.230467796325684,1.4038084745407104,-1.3131103515625,0.1817626953125,0.308837890625
7.414,294,739,1268,313,0.0,37.0,45.0,-13.122557640075684,12.695311546325684,23.254392623901367,-0.956787109375,0.1722412109375,0.3045654296875
7.435,310,737,1231,312,0.0,37.0,45.0,-13.122557640075684,12.695311546325684,23.254392623901367,-0.78466796875,0.23193359375,0.225830078125
7.443,310,683,1151,311,1.0,36.0,45.0,-3.356933355331421,13.854979515075684,26.367185592651367,-0.78466796875,0.23193359375,0.225830078125
7.444,310,654,1125,312,1.0,36.0,45.0,9.27734375,14.953612327575684,16.845703125,-0.616943359375,0.397705078125,0.0721435546875
7.452,310,632,1092,312,1.0,36.0,45.0,9.27734375,14.953612327575684,16.845703125,-0.6103515625,0.3599853515625,0.076416015625
7.460,310,614,1064,312,1.0,36.0,45.0,8.4228515625,14.831542015075684,7.812499523162842,-0.6103515625,0.3599853515625,0.076416015625
7.474,308,587,1029,312,1.0,36.0,45.0,-3.723144292831421,15.991209983825684,-6.591796398162842,-0.662841796875,0.155517578125,0.063232421875
7.482,309,576,1010,312,1.0,36.0,45.0,-3.723144292831421,15.991209983825684,-6.591796398162842,-0.6932373046875,0.145751953125,0.0386962890625
7.490,310,568,981,312,1.0,36.0,45.0,-9.33837890625,16.9677734375,-7.141112804412842,-0.7122802734375,0.134765625,0.0625
7.507,309,558,951,312,1.0,36.0,45.0,-13.183592796325684,8.85009765625,-1.0986328125,-0.7158203125,0.0946044921875,0.0894775390625
7.517,310,554,939,312,1.0,36.0,45.0,-9.82666015625,3.601073980331421,1.5258787870407104,-0.7230224609375,0.099853515625,0.080810546875
7.536,309,548,939,312,1.0,36.0,45.0,-9.82666015625,3.601073980331421,1.5258787870407104,-0.7437744140625,0.179443359375,0.0513916015625
7.536,294,552,952,311,-1.0,36.0,44.0,-5.249022960662842,-1.3427733182907104,7.141112804412842,-0.7640380859375,0.2789306640625,0.0386962890625
7.542,308,557,966,312,-1.0,36.0,44.0,-7.141112804412842,-2.746581792831421,10.314940452575684,-0.771728515625,0.3465576171875,0.0552978515625
7.555,310,562,974,312,-1.0,36.0,44.0,-7.141112804412842,-2.746581792831421,10.314940452575684,-0.764892578125,0.37109375,0.0908203125
7.564,310,574,990,312,-1.0,36.0,44.0,-11.413573265075684,-6.347655773162842,15.197752952575684,-0.7322998046875,0.333740234375,0.1260986328125
7.572,310,582,1014,312,-1.0,36.0,44.0,-11.840819358825684,-7.385253429412842,15.258788108825684,-0.687255859375,0.258056640625,0.1400146484375
7.580,310,593,1035,311,-1.0,36.0,44.0,-11.840819358825684,-7.385253429412842,15.258788108825684,-0.6610107421875,0.21337890625,0.131591796875
7.594,310,607,1089,310,-1.0,36.0,44.0,-2.990722417831421,-9.765625,12.207030296325684,-0.650390625,0.230224609375,0.1207275390625
7.609,310,620,1120,312,-1.0,36.0,44.0,1.220703125,-11.901854515075684,11.596678733825684,-0.63232421875,0.2672119140625,0.1331787109375
7.642,311,636,1147,312,-1.0,36.0,44.0,1.220703125,-11.901854515075684,11.596678733825684,-0.5841064453125,0.2733154296875,0.1455078125
7.646,309,685,1231,313,0.0,36.0,38.0,-0.1831054538488388,-13.122557640075684,10.742186546325684,-0.53173828125,0.2718505859375,0.14501953125
7.650,310,710,1292,312,0.0,36.0,38.0,-2.44140625,-13.793944358825684,8.48388671875,-0.52197265625,0.2689208984375,0.185546875
7.653,310,739,1335,298,0.0,36.0,38.0,-2.44140625,-13.793944358825684,8.48388671875,-0.5484619140625,0.225830078125,0.2437744140625
7.668,310,796,1455,312,0.0,36.0,38.0,3.662109136581421,-20.812986373901367,-3.234863042831421,-0.5863037109375,0.164306640625,0.24609375
7.668,310,827,1504,312,0.0,36.0,38.0,13.549803733825684,-19.95849609375,-10.070799827575684,-0.6400146484375,0.1619873046875,0.191650390625
7.670,311,860,1545,314,0.0,36.0,38.0,22.460935592651367,-16.7236328125,-15.441893577575684,-0.7257080078125,0.255615234375,0.123291015625
7.684,310,918,1595,312,0.0,36.0,38.0,23.986814498901367,-14.709471702575684,-18.6767578125,-0.876708984375,0.376220703125,0.0792236328125
7.692,310,948,1624,314,0.0,36.0,38.0,17.76123046875,-15.624999046325684,-20.263669967651367,-1.1348876953125,0.477783203125,0.04296875
7.700,312,975,1648,314,0.0,36.0,38.0,7.629394054412842,-18.798828125,-20.263669967651367,-1.4443359375,0.5546875,0.033203125
7.714,310,1000,1674,312,0.0,36.0,38.0,-2.807616949081421,-22.583005905151367,-18.98193359375,-1.686279296875,0.566650390625,0.118408203125
7.741,310,1011,1683,314,0.0,34.0,41.0,-10.925292015075684,-24.780271530151367,-16.54052734375,-1.8223876953125,0.5498046875,0.263916015625
7.742,296,1003,1674,312,0.0,34.0,41.0,-15.686034202575684,-24.963376998901367,-11.962889671325684,-1.8414306640625,0.5098876953125,0.3988037109375
7.744,310,971,1627,313,0.0,34.0,41.0,-16.2353515625,-22.644041061401367,-6.042479991912842,-1.569091796875,0.2940673828125,0.47412109375
7.752,310,955,1592,314,0.0,34.0,41.0,-9.6435546875,-14.160155296325684,-1.7089842557907104,-1.08056640625,0.0435791015625,0.4803466796875
7.760,311,938,1569,313,0.0,34.0,41.0,6.408690929412842,-1.7700194120407104,0.0,-0.7940673828125,0.1556396484375,0.398193359375
7.779,310,936,1583,313,0.0,34.0,41.0,19.34814453125,9.1552734375,-1.8920897245407104,-0.8631591796875,0.5162353515625,0.2491455078125
7.782,311,931,1578,314,0.0,34.0,41.0,16.2353515625,16.6015625,-9.1552734375,-1.1964111328125,0.763671875,0.1773681640625
7.790,311,916,1567,312,0.0,34.0,41.0,-0.3662109076976776,19.6533203125,-18.61572265625,-1.5518798828125,0.717529296875,0.2022705078125
7.804,310,875,1531,313,0.0,34.0,41.0,-19.8974609375,21.057126998901367,-23.559568405151367,-1.6903076171875,0.477294921875,0.251220703125
7.814,310,840,1502,314,0.0,34.0,41.0,-29.296873092651367,22.338865280151367,-19.6533203125,-1.6253662109375,0.3343505859375,0.2908935546875
7.820,311,809,1456,313,0.0,35.0,45.0,-26.733396530151367,22.399900436401367,-8.544921875,-1.461669921875,0.29150390625,0.293701171875
7.852,310,765,1365,312,0.0,35.0,45.0,-19.47021484375,22.583005905151367,4.21142578125,-1.2574462890625,0.20947265625,0.281005859375
7.853,310,729,1275,299,0.0,35.0,45.0,-11.291502952575684,23.620603561401367,15.014647483825684,-1.0263671875,0.1435546875,0.27197265625
7.853,310,703,1254,311,0.0,35.0,45.0,-5.0048828125,24.536130905151367,21.911619186401367,-0.802734375,0.1676025390625,0.227783203125
7.864,308,653,1170,312,0.0,35.0,45.0,-0.6103515625,24.353025436401367,23.254392623901367,-0.6439208984375,0.251708984375,0.155517578125
7.872,311,622,1129,314,0.0,35.0,45.0,3.906249761581421,22.766111373901367,18.49365234375,-0.5732421875,0.3370361328125,0.0931396484375
7.880,310,605,1089,312,0.0,35.0,45.0,6.835937023162842,20.935056686401367,8.97216796875,-0.570556640625,0.3333740234375,0.06884765625
7.894,310,575,1029,312,0.0,35.0,45.0,5.493163585662842,19.95849609375,-2.197265625,-0.603271484375,0.2593994140625,0.0628662109375
7.902,310,553,989,312,0.0,35.0,45.0,1.3427733182907104,20.446775436401367,-11.230467796325684,-0.635498046875,0.183349609375,0.0235595703125
7.917,310,537,963,312,0.0,35.0,45.0,-2.44140625,21.179197311401367,-16.357421875,-0.6427001953125,0.08544921875,0.0130615234375
7.924,310,525,935,312,0.0,36.0,45.0,-2.13623046875,19.8974609375,-16.90673828125,-0.6361083984375,-0.00341796875,0.0677490234375
7.950,311,518,920,311,0.0,36.0,45.0,3.723144292831421,16.7236328125,-12.451170921325684,-0.6480712890625,0.025390625,0.09521484375
7.950,308,521,913,312,0.0,36.0,45.0,8.85009765625,12.023924827575684,-5.859374523162842,-0.6905517578125,0.1429443359375,0.080322265625
7.954,310,522,912,312,0.0,36.0,45.0,8.1787109375,6.958007335662842,-0.7324218153953552,-0.7540283203125,0.3135986328125,0.079345703125
7.962,310,524,913,311,0.0,36.0,45.0,4.57763671875,3.967284917831421,3.173827886581421,-0.7540283203125,0.3135986328125,0.079345703125
7.970,310,530,922,312,0.0,36.0,45.0,1.220703125,2.624511480331421,7.141112804412842,-0.7626953125,0.3433837890625,0.108642578125
7.984,310,535,932,312,0.0,36.0,45.0,-0.9155272841453552,1.0986328125,10.742186546325684,-0.7506103515625,0.3211669921875,0.1893310546875
7.992,310,540,943,311,0.0,36.0,45.0,-2.25830078125,-0.30517578125,13.061522483825684,-0.7506103515625,0.3211669921875,0.1893310546875
8.005,310,548,948,312,0.0,36.0,45.0,-2.807616949081421,-0.6713866591453552,13.610838890075684,-0.7315673828125,0.2791748046875,0.2034912109375
8.019,309,563,971,308,0.0,36.0,45.0,-1.5258787870407104,-0.9765624403953552,13.000487327575684,-0.7493896484375,0.2861328125,0.1925048828125
8.022,310,572,986,312,0.0,39.0,43.0,2.25830078125,-2.3193359375,11.779784202575684,-0.7493896484375,0.2861328125,0.1925048828125
8.030,310,579,1010,311,0.0,39.0,43.0,6.896972179412842,-3.845214605331421,10.498045921325684,-0.7843017578125,0.326416015625,0.1622314453125
8.053,310,596,1035,311,0.0,39.0,43.0,10.009765625,-4.2724609375,9.70458984375,-0.79736328125,0.314697265625,0.088134765625
8.053,310,613,1054,312,0.0,39.0,43.0,9.58251953125,-3.784179449081421,10.253905296325684,-0.79736328125,0.314697265625,0.088134765625
8.060,310,628,1081,312,0.0,39.0,43.0,5.798339366912842,-4.2724609375,12.451170921325684,-0.7335205078125,0.26318359375,0.0709228515625
8.074,310,658,1134,311,0.0,39.0,43.0,3.540038824081421,-7.751464366912842,15.624999046325684,-0.531494140625,0.1817626953125,0.120849609375
8.082,312,688,1183,312,0.0,39.0,43.0,7.629394054412842,-13.305663108825684,18.6767578125,-0.531494140625,0.1817626953125,0.120849609375
8.091,310,716,1225,313,0.0,39.0,43.0,15.197752952575684,-18.310546875,19.71435546875,-0.5018310546875,0.181396484375,0.1407470703125
8.104,310,780,1351,312,0.0,39.0,43.0,21.423337936401367,-21.850584030151367,16.66259765625,-0.552978515625,0.0963134765625,0.163818359375
8.124,310,826,1419,313,0.0,39.0,43.0,24.902341842651367,-21.667478561401367,9.33837890625,-0.5118408203125,0.062744140625,0.1357421875
8.125,310,865,1474,313,0.0,36.0,41.0,25.634763717651367,-16.17431640625,0.4882812201976776,-0.5118408203125,0.062744140625,0.1357421875
8.155,310,943,1545,312,0.0,36.0,41.0,33.5693359375,-4.94384765625,-17.7001953125,-0.582763671875,0.288330078125,0.0919189453125
8.156,311,984,1592,314,0.0,36.0,41.0,33.5693359375,-4.94384765625,-17.7001953125,-0.9140625,0.59814453125,0.0037841796875
8.156,294,995,1627,311,0.0,36.0,41.0,39.24560546875,-3.112792730331421,-23.986814498901367,-0.9140625,0.59814453125,0.0037841796875
8.164,308,1074,1681,312,0.0,36.0,41.0,3.051757574081421,-6.469726085662842,-29.602048873901367,-1.8028564453125,0.80078125,-0.0377197265625
8.172,310,1089,1700,314,0.0,36.0,41.0,3.051757574081421,-6.469726085662842,-29.602048873901367,-2.149169921875,0.7025146484375,0.1024169921875
8.180,310,1091,1700,313,0.0,36.0,41.0,-28.198240280151367,-13.061522483825684,-26.916501998901367,-2.149169921875,0.7025146484375,0.1024169921875
8.194,310,1065,1640,314,0.0,36.0,41.0,-48.706050872802734,-24.108884811401367,-4.94384765625,-1.9000244140625,0.0810546875,0.518798828125
8.202,311,1029,1595,313,0.0,36.0,41.0,-48.706050872802734,-24.108884811401367,-4.94384765625,-1.14697265625,-0.26220703125,0.612548828125
8.210,310,1010,1564,314,0.0,36.0,41.0,-31.249998092651367,-15.686034202575684,5.493163585662842,-1.14697265625,-0.26220703125,0.612548828125
8.231,310,1009,1569,312,0.0,36.0,41.0,35.15625,12.451170921325684,15.441893577575684,-0.875,0.7264404296875,0.138427734375
8.232,311,1000,1568,312,0.0,36.0,41.0,35.15625,12.451170921325684,15.441893577575684,-1.34326171875,1.1170654296875,-0.00390625
8.243,311,989,1559,312,0.0,36.0,41.0,34.97314453125,18.24951171875,6.408690929412842,-1.34326171875,1.1170654296875,-0.00390625
8.262,310,953,1523,313,0.0,36.0,41.0,-22.827146530151367,14.282225608825684,-26.184080123901367,-1.797119140625,0.4697265625,0.199462890625
8.262,310,922,1460,300,0.0,36.0,41.0,-36.4990234375,13.793944358825684,-26.000974655151367,-1.6724853515625,0.227294921875,0.293701171875
8.270,310,873,1450,312,0.0,36.0,41.0,-36.4990234375,13.793944358825684,-26.000974655151367,-1.5107421875,0.2506103515625,0.2996826171875
8.284,310,805,1352,312,0.0,36.0,41.0,-20.385740280151367,13.427733421325684,5.554198741912842,-1.3553466796875,0.293701171875,0.2637939453125
8.292,310,765,1297,314,0.0,36.0,41.0,-11.535643577575684,14.526366233825684,20.141599655151367,-1.1358642578125,0.2183837890625,0.2681884765625
8.300,310,717,1251,312,0.0,36.0,41.0,-11.535643577575684,14.526366233825684,20.141599655151367,-0.84228515625,0.119873046875,0.2784423828125
8.314,309,662,1147,312,0.0,36.0,41.0,1.03759765625,22.888181686401367,29.174802780151367,-0.573486328125,0.0804443359375,0.236572265625
8.328,310,633,1091,312,0.0,35.0,40.0,7.080077648162842,23.376462936401367,26.550291061401367,-0.4083251953125,0.091552734375,0.1846923828125
8.330,309,594,1042,312,0.0,35.0,40.0,7.080077648162842,23.376462936401367,26.550291061401367,-0.3681640625,0.15185546875,0.125
8.356,312,558,959,312,0.0,35.0,40.0,19.34814453125,17.333984375,12.451170921325684,-0.40576171875,0.209716796875,0.0650634765625
8.357,295,542,905,310,0.0,35.0,40.0,18.73779296875,18.37158203125,-0.4882812201976776,-0.4542236328125,0.2020263671875,0.014404296875
8.360,310,530,871,311,0.0,35.0,40.0,18.73779296875,18.37158203125,-0.4882812201976776,-0.5167236328125,0.1650390625,-0.08349609375
8.374,309,522,849,311,0.0,35.0,40.0,8.11767578125,24.658201217651367,-20.935056686401367,-0.6044921875,0.182861328125,-0.1761474609375
8.382,307,513,849,311,0.0,35.0,40.0,2.746581792831421,21.301267623901367,-19.4091796875,-0.6767578125,0.23876953125,-0.1593017578125
8.390,310,517,846,308,0.0,35.0,40.0,2.746581792831421,21.301267623901367,-19.4091796875,-0.713623046875,0.3082275390625,-0.0926513671875
8.404,309,518,859,311,0.0,35.0,40.0,-0.4882812201976776,4.33349609375,-2.44140625,-0.728759765625,0.3671875,-0.0301513671875
8.412,310,523,875,310,0.0,35.0,40.0,-3.112792730331421,-3.234863042831421,1.7700194120407104,-0.7320556640625,0.3707275390625,0.0546875
8.429,310,523,882,312,1.0,37.0,40.0,-7.507323741912842,-7.568358898162842,2.25830078125,-0.74853515625,0.3602294921875,0.139892578125
8.434,310,533,895,312,1.0,37.0,40.0,-10.559081077575684,-8.72802734375,1.9531248807907104,-0.7652587890625,0.337646484375,0.197998046875
8.457,310,537,907,311,1.0,37.0,40.0,-11.230467796325684,-7.995604991912842,2.0751953125,-0.7679443359375,0.2728271484375,0.215576171875
8.457,289,525,917,312,1.0,37.0,40.0,-9.94873046875,-6.469726085662842,3.479003667831421,-0.764404296875,0.2120361328125,0.21240234375
8.464,310,553,939,310,1.0,37.0,40.0,-7.446288585662842,-5.676269054412842,6.042479991912842,-0.7572021484375,0.2081298828125,0.2137451171875
8.474,310,564,959,311,1.0,37.0,40.0,-3.662109136581421,-5.737304210662842,8.7890625,-0.75244140625,0.2412109375,0.2178955078125
8.481,310,576,987,311,1.0,37.0,40.0,0.2441406100988388,-6.530761241912842,10.314940452575684,-0.7548828125,0.278076171875,0.2105712890625
8.494,309,592,1035,312,1.0,37.0,40.0,3.417968511581421,-7.629394054412842,10.437010765075684,-0.7564697265625,0.3154296875,0.177490234375
8.502,310,606,1056,312,1.0,37.0,40.0,6.286620616912842,-8.4228515625,9.765625,-0.745361328125,0.3409423828125,0.1331787109375
8.510,308,616,1082,312,1.0,37.0,40.0,8.7890625,-8.9111328125,9.1552734375,-0.73291015625,0.3529052734375,0.0968017578125
8.531,308,642,1134,311,-1.0,34.0,43.0,9.1552734375,-9.765625,9.82666015625,-0.7303466796875,0.3504638671875,0.0821533203125
8.532,308,658,1157,312,-1.0,34.0,43.0,7.263183116912842,-11.901854515075684,11.535643577575684,-0.7037353515625,0.3070068359375,0.1051025390625
8.540,311,674,1176,312,-1.0,34.0,43.0,6.408690929412842,-14.404295921325684,12.817381858825684,-0.6490478515625,0.2337646484375,0.1326904296875
8.569,311,730,1250,312,-1.0,34.0,43.0,10.437010765075684,-15.319823265075684,13.122557640075684,-0.6572265625,0.1822509765625,0.1329345703125
8.569,310,770,1268,312,-1.0,34.0,43.0,18.61572265625,-15.563963890075684,12.145995140075684,-0.75439453125,0.1590576171875,0.133544921875
8.570,297,805,1363,296,-1.0,34.0,43.0,25.939939498901367,-15.441893577575684,9.33837890625,-0.833740234375,0.1463623046875,0.140625
8.584,310,865,1455,312,-1.0,34.0,43.0,26.916501998901367,-12.329100608825684,5.187987804412842,-0.7889404296875,0.1414794921875,0.1580810546875
8.592,311,902,1500,313,-1.0,34.0,43.0,25.024412155151367,-5.981444835662842,-0.9155272841453552,-0.6541748046875,0.1541748046875,0.1527099609375
8.600,310,938,1536,313,-1.0,34.0,43.0,25.390623092651367,0.7324218153953552,-8.1787109375,-0.592529296875,0.25341796875,0.0682373046875
8.614,310,994,1592,314,0.0,37.0,43.0,22.705076217651367,4.0283203125,-13.671874046325684,-0.71728515625,0.4373779296875,-0.053466796875
8.622,310,1025,1625,314,0.0,37.0,43.0,10.498045921325684,2.746581792831421,-17.15087890625,-1.0142822265625,0.57421875,-0.129150390625
8.633,310,1050,1655,312,0.0,37.0,43.0,-10.498045921325684,-2.25830078125,-19.4091796875,-1.393798828125,0.6177978515625,-0.094482421875
8.665,310,1081,1681,314,0.0,37.0,43.0,-33.26416015625,-9.94873046875,-18.06640625,-1.7659912109375,0.6583251953125,0.0438232421875
8.665,296,1078,1671,313,0.0,37.0,43.0,-49.987789154052734,-18.4326171875,-10.925292015075684,-2.0467529296875,0.6644287109375,0.2550048828125
8.665,299,1048,1598,314,0.0,37.0,43.0,-56.396480560302734,-24.230955123901367,-0.6713866591453552,-2.0128173828125,0.452880859375,0.49609375
8.692,310,1020,1582,312,0.0,37.0,43.0,-47.607418060302734,-19.47021484375,6.469726085662842,-0.8634033203125,-0.1243896484375,0.5848388671875
8.692,309,1008,1527,295,0.0,37.0,43.0,-17.27294921875,-2.0751953125,9.1552734375,-0.8634033203125,-0.1243896484375,0.5848388671875
8.692,310,987,1531,298,0.0,37.0,43.0,20.751951217651367,16.05224609375,11.657713890075684,-0.732177734375,0.338134765625,0.260498046875
8.705,311,994,1564,313,0.0,37.0,43.0,35.888671875,24.902341842651367,10.437010765075684,-1.4832763671875,0.95654296875,-0.0880126953125
8.716,310,981,1543,313,0.0,35.0,43.0,20.263669967651367,23.315427780151367,0.1220703050494194,-1.4832763671875,0.95654296875,-0.0880126953125
8.721,311,959,1521,313,0.0,35.0,43.0,-9.46044921875,16.17431640625,-13.122557640075684,-1.7493896484375,0.6951904296875,0.0546875
8.736,310,907,1460,312,0.0,35.0,43.0,-32.53173828125,11.291502952575684,-18.798828125,-1.630615234375,0.3333740234375,0.2908935546875
8.743,310,860,1415,312,0.0,35.0,43.0,-37.353515625,10.375975608825684,-12.084959983825684,-1.630615234375,0.3333740234375,0.2908935546875
