time,compression0,compression1,compression2,compression3,magn_x,magn_y,magn_z,gyro_x,gyro_y,gyro_z,accel_x,accel_y,accel_z
0.019,309,326,373,309,-13.0,38.0,44.0,7.202147960662842,-0.7324218153953552,-19.6533203125,-0.787841796875,0.5467529296875,0.045166015625
0.020,309,313,379,308,-13.0,38.0,44.0,11.962889671325684,3.479003667831421,-19.53125,-0.78125,0.544921875,0.0479736328125
0.045,310,328,379,310,-13.0,38.0,44.0,16.11328125,7.629394054412842,-19.04296875,-0.7760009765625,0.5509033203125,0.0379638671875
0.046,310,329,377,310,-13.0,38.0,44.0,18.12744140625,11.901854515075684,-17.9443359375,-0.7752685546875,0.558837890625,0.0201416015625
0.047,309,329,378,308,-13.0,40.0,42.0,18.06640625,16.11328125,-16.29638671875,-0.777587890625,0.5640869140625,0.00146484375
0.057,308,336,380,308,-13.0,40.0,42.0,17.08984375,19.95849609375,-14.465331077575684,-0.7821044921875,0.563720703125,-0.0118408203125
0.065,309,337,381,308,-13.0,40.0,42.0,15.869139671325684,23.376462936401367,-12.512206077575684,-0.7869873046875,0.55908203125,-0.0137939453125
0.073,310,337,379,309,-13.0,40.0,42.0,15.075682640075684,26.550291061401367,-10.498045921325684,-0.7890625,0.5531005859375,-0.0067138671875
0.087,310,338,380,309,-13.0,40.0,42.0,14.831542015075684,29.724119186401367,-8.544921875,-0.7801513671875,0.5528564453125,-0.0054931640625
0.095,310,336,379,311,-13.0,40.0,42.0,15.075682640075684,32.89794921875,-7.019042491912842,-0.7801513671875,0.5528564453125,-0.0054931640625
0.103,309,337,379,310,-13.0,40.0,42.0,15.686034202575684,36.07177734375,-6.286620616912842,-0.774658203125,0.5633544921875,-0.0234375
0.122,309,336,379,310,-13.0,40.0,42.0,15.930174827575684,39.12353515625,-6.469726085662842,-0.7747802734375,0.5926513671875,-0.0684814453125
0.146,309,338,373,310,-13.0,40.0,42.0,15.380858421325684,41.809078216552734,-7.202147960662842,-0.7747802734375,0.5926513671875,-0.0684814453125
0.146,308,340,373,310,-13.0,40.0,42.0,13.977049827575684,44.128414154052734,-7.995604991912842,-0.7796630859375,0.6005859375,-0.0902099609375
0.147,310,328,372,308,-16.0,43.0,38.0,11.657713890075684,46.020503997802734,-8.60595703125,-0.7891845703125,0.582275390625,-0.1219482421875
0.155,309,338,373,309,-16.0,43.0,38.0,8.97216796875,46.997066497802734,-8.85009765625,-0.7891845703125,0.582275390625,-0.1219482421875
0.163,308,340,372,310,-16.0,43.0,38.0,6.286620616912842,46.813961029052734,-8.544921875,-0.794189453125,0.5616455078125,-0.1292724609375
0.177,309,341,372,310,-16.0,43.0,38.0,3.784179449081421,45.776363372802734,-7.751464366912842,-0.8173828125,0.537841796875,-0.135986328125
0.188,306,340,377,310,-16.0,43.0,38.0,2.44140625,44.494625091552734,-6.774901866912842,-0.8173828125,0.537841796875,-0.135986328125
0.194,310,342,379,310,-16.0,43.0,38.0,2.0751953125,43.579097747802734,-5.798339366912842,-0.8294677734375,0.5419921875,-0.145751953125
0.207,308,342,377,309,-16.0,43.0,38.0,2.50244140625,42.968746185302734,-5.126952648162842,-0.8494873046875,0.556884765625,-0.1572265625
0.226,309,342,379,310,-16.0,43.0,38.0,3.967284917831421,42.602535247802734,-5.187987804412842,-0.8494873046875,0.556884765625,-0.1572265625
0.237,310,340,363,296,-16.0,43.0,38.0,6.652831554412842,42.297359466552734,-6.286620616912842,-0.8577880859375,0.56103515625,-0.1549072265625
0.246,309,341,377,310,-16.0,43.0,38.0,16.66259765625,41.870113372802734,-10.314940452575684,-0.8343505859375,0.5684814453125,-0.172607421875
0.246,308,340,377,310,-13.0,45.0,39.0,16.66259765625,41.870113372802734,-10.314940452575684,-0.820068359375,0.5802001953125,-0.19091796875
0.255,309,338,373,311,-13.0,45.0,39.0,22.094724655151367,41.137691497802734,-12.817381858825684,-0.820068359375,0.5802001953125,-0.19091796875
0.267,310,331,372,310,-13.0,45.0,39.0,27.404783248901367,37.53662109375,-18.310546875,-0.817138671875,0.603271484375,-0.21435546875
0.275,308,336,372,309,-13.0,45.0,39.0,27.404783248901367,37.53662109375,-18.310546875,-0.8253173828125,0.604248046875,-0.2318115234375
0.290,308,337,378,310,-13.0,45.0,39.0,28.320310592651367,35.64453125,-21.423337936401367,-0.8253173828125,0.604248046875,-0.2318115234375
0.297,308,329,379,310,-13.0,45.0,39.0,27.038572311401367,30.151365280151367,-27.770994186401367,-0.8302001953125,0.587158203125,-0.310302734375
0.305,309,325,379,308,-13.0,45.0,39.0,27.038572311401367,30.151365280151367,-27.770994186401367,-0.8226318359375,0.5682373046875,-0.3394775390625
0.321,310,322,379,310,-13.0,45.0,39.0,23.986814498901367,25.573728561401367,-30.029294967651367,-0.8226318359375,0.5682373046875,-0.3394775390625
0.350,308,322,384,310,-13.0,45.0,39.0,13.916014671325684,11.108397483825684,-30.456541061401367,-0.83544921875,0.4925537109375,-0.31005859375
0.351,310,322,383,309,-13.0,45.0,39.0,13.916014671325684,11.108397483825684,-30.456541061401367,-0.8568115234375,0.475830078125,-0.27734375
0.351,310,315,384,310,-11.0,44.0,36.0,8.30078125,3.112792730331421,-28.747556686401367,-0.8568115234375,0.475830078125,-0.27734375
0.357,309,312,386,309,-11.0,44.0,36.0,6.530761241912842,-6.286620616912842,-26.000974655151367,-0.8692626953125,0.5313720703125,-0.2532958984375
0.368,309,312,385,310,-11.0,44.0,36.0,6.530761241912842,-6.286620616912842,-26.000974655151367,-0.860107421875,0.5482177734375,-0.2664794921875
0.374,310,311,383,309,-11.0,44.0,36.0,8.544921875,-7.934569835662842,-26.550291061401367,-0.860107421875,0.5482177734375,-0.2664794921875
0.391,310,310,384,307,-11.0,44.0,36.0,4.57763671875,-10.742186546325684,-27.587888717651367,-0.832275390625,0.501220703125,-0.281005859375
0.395,310,310,384,309,-11.0,44.0,36.0,0.30517578125,-12.634276390075684,-26.428220748901367,-0.814208984375,0.4541015625,-0.25927734375
0.403,310,311,383,309,-11.0,44.0,36.0,0.30517578125,-12.634276390075684,-26.428220748901367,-0.7962646484375,0.4110107421875,-0.2261962890625
0.424,310,310,386,309,-11.0,44.0,36.0,-2.0751953125,-14.953612327575684,-21.545408248901367,-0.7813720703125,0.38037109375,-0.195068359375
0.425,310,310,384,310,-11.0,44.0,36.0,-0.4882812201976776,-15.014647483825684,-18.73779296875,-0.77392578125,0.3660888671875,-0.175537109375
0.453,308,310,384,310,-11.0,44.0,36.0,-0.4882812201976776,-15.014647483825684,-18.73779296875,-0.7744140625,0.367919921875,-0.1661376953125
0.454,297,311,384,310,-11.0,42.0,34.0,1.3427733182907104,-13.977049827575684,-12.817381858825684,-0.7774658203125,0.376708984375,-0.15673828125
0.455,298,310,386,310,-11.0,42.0,34.0,0.0,-13.244627952575684,-9.8876953125,-0.7818603515625,0.3828125,-0.1436767578125
0.463,310,312,387,308,-11.0,42.0,34.0,0.0,-13.244627952575684,-9.8876953125,-0.788818359375,0.3836669921875,-0.133544921875
0.480,310,310,386,310,-11.0,42.0,34.0,-2.25830078125,-9.8876953125,-4.5166015625,-0.797119140625,0.383544921875,-0.1337890625
0.485,310,311,384,310,-11.0,42.0,34.0,-2.0751953125,-7.202147960662842,-1.5869139432907104,-0.80419921875,0.3858642578125,-0.1431884765625
0.496,310,310,380,310,-11.0,42.0,34.0,-2.0751953125,-7.202147960662842,-1.5869139432907104,-0.81005859375,0.3896484375,-0.1549072265625
0.507,309,311,382,310,-11.0,42.0,34.0,-2.807616949081421,-2.44140625,5.737304210662842,-0.8138427734375,0.3948974609375,-0.1630859375
0.515,310,314,382,308,-11.0,42.0,34.0,-4.08935546875,-0.3662109076976776,9.8876953125,-0.81787109375,0.4046630859375,-0.167724609375
0.526,310,314,384,310,-11.0,42.0,34.0,-4.08935546875,-0.3662109076976776,9.8876953125,-0.8289794921875,0.4219970703125,-0.176025390625
0.553,310,315,386,310,-12.0,43.0,36.0,-5.371093273162842,3.295898199081421,17.76123046875,-0.846923828125,0.44384765625,-0.1884765625
0.553,297,326,385,309,-12.0,43.0,36.0,-6.225585460662842,3.967284917831421,21.484373092651367,-0.8673095703125,0.47021484375,-0.2008056640625
0.554,294,329,371,310,-12.0,43.0,36.0,-7.019042491912842,2.685546636581421,24.780271530151367,-0.8912353515625,0.495361328125,-0.2109375
0.562,310,329,384,310,-12.0,43.0,36.0,-7.019042491912842,2.685546636581421,24.780271530151367,-0.914794921875,0.507080078125,-0.21630859375
0.576,309,331,386,309,-12.0,43.0,36.0,-7.141112804412842,-3.784179449081421,31.005857467651367,-0.923828125,0.5076904296875,-0.2183837890625
0.584,310,331,389,309,-12.0,43.0,36.0,-4.08935546875,-7.141112804412842,34.72900390625,-0.9166259765625,0.5130615234375,-0.2244873046875
0.593,310,326,387,310,-12.0,43.0,36.0,-4.08935546875,-7.141112804412842,34.72900390625,-0.9027099609375,0.521240234375,-0.24072265625
0.606,308,325,387,309,-12.0,43.0,36.0,0.7934569716453552,-11.596678733825684,41.259761810302734,-0.8818359375,0.5211181640625,-0.2606201171875
0.614,310,322,391,310,-12.0,43.0,36.0,-2.38037109375,-11.535643577575684,42.907711029052734,-0.856201171875,0.52099609375,-0.2686767578125
0.628,308,322,386,310,-12.0,43.0,36.0,-8.36181640625,-10.742186546325684,43.151851654052734,-0.8291015625,0.5347900390625,-0.252685546875
0.636,309,322,380,310,-14.0,45.0,40.0,-14.221190452575684,-10.192870140075684,41.870113372802734,-0.8050537109375,0.56787109375,-0.2171630859375
0.656,310,321,380,310,-14.0,45.0,40.0,-17.7001953125,-9.521484375,39.00146484375,-0.7916259765625,0.6116943359375,-0.1795654296875
0.656,310,322,381,309,-14.0,45.0,40.0,-18.49365234375,-8.23974609375,34.85107421875,-0.7850341796875,0.6478271484375,-0.1529541015625
0.674,310,319,380,309,-14.0,45.0,40.0,-17.39501953125,-6.286620616912842,30.029294967651367,-0.7769775390625,0.6541748046875,-0.1385498046875
0.677,310,315,384,310,-14.0,45.0,40.0,-15.563963890075684,-4.82177734375,25.085447311401367,-0.763671875,0.6220703125,-0.1346435546875
0.682,309,315,383,310,-14.0,45.0,40.0,-13.549803733825684,-5.065917491912842,20.446775436401367,-0.7476806640625,0.5634765625,-0.1473388671875
0.708,310,322,383,310,-14.0,45.0,40.0,-11.230467796325684,-7.568358898162842,16.845703125,-0.7412109375,0.5064697265625,-0.1829833984375
0.708,310,322,384,310,-14.0,45.0,40.0,-8.97216796875,-11.962889671325684,14.892577171325684,-0.7537841796875,0.482177734375,-0.2337646484375
0.713,310,317,382,310,-14.0,45.0,40.0,-7.934569835662842,-17.2119140625,14.831542015075684,-0.7822265625,0.50341796875,-0.2796630859375
0.730,308,322,380,309,-14.0,45.0,40.0,-9.58251953125,-22.033689498901367,15.991209983825684,-0.8145751953125,0.5545654296875,-0.30029296875
0.734,309,322,379,310,-14.0,45.0,40.0,-14.160155296325684,-25.329587936401367,17.02880859375,-0.8397216796875,0.6051025390625,-0.2801513671875
0.759,308,322,379,310,-15.0,43.0,39.0,-20.324705123901367,-27.038572311401367,16.90673828125,-0.85107421875,0.630615234375,-0.22314453125
0.759,310,315,377,309,-15.0,43.0,39.0,-25.268552780151367,-27.343748092651367,15.624999046325684,-0.84814453125,0.62548828125,-0.1575927734375
0.765,310,317,373,310,-15.0,43.0,39.0,-26.977537155151367,-26.428220748901367,13.916014671325684,-0.836181640625,0.6021728515625,-0.1141357421875
0.774,309,314,379,309,-15.0,43.0,39.0,-25.451658248901367,-24.963376998901367,12.878417015075684,-0.824951171875,0.571533203125,-0.1024169921875
0.786,310,312,369,308,-15.0,43.0,39.0,-21.789548873901367,-23.803709030151367,13.549803733825684,-0.8201904296875,0.5391845703125,-0.1123046875
0.814,308,310,371,308,-15.0,43.0,39.0,-16.845703125,-23.498533248901367,15.991209983825684,-0.819580078125,0.51171875,-0.1278076171875
0.823,310,312,371,310,-15.0,43.0,39.0,-10.742186546325684,-23.010251998901367,19.53125,-0.821533203125,0.49267578125,-0.1397705078125
0.823,308,311,369,310,-15.0,43.0,39.0,-3.662109136581421,-21.301267623901367,22.705076217651367,-0.8238525390625,0.4873046875,-0.15087890625
0.859,308,310,369,310,-15.0,43.0,39.0,3.845214605331421,-18.00537109375,24.536130905151367,-0.8199462890625,0.495849609375,-0.1591796875
0.859,310,311,369,310,-15.0,43.0,39.0,11.535643577575684,-14.038084983825684,24.597166061401367,-0.8046875,0.510009765625,-0.1580810546875
0.866,310,312,368,309,-13.0,43.0,38.0,19.22607421875,-10.864256858825684,23.254392623901367,-0.7767333984375,0.5269775390625,-0.15380859375
0.866,308,311,352,296,-13.0,43.0,38.0,24.963376998901367,-9.21630859375,21.240232467651367,-0.744140625,0.5499267578125,-0.15087890625
0.866,309,310,364,310,-13.0,43.0,38.0,27.282712936401367,-9.58251953125,19.287109375,-0.7193603515625,0.5745849609375,-0.14013671875
0.880,310,313,367,309,-13.0,43.0,38.0,27.770994186401367,-11.718749046325684,17.51708984375,-0.708740234375,0.59814453125,-0.1190185546875
0.892,309,312,365,310,-13.0,43.0,38.0,28.137205123901367,-14.770506858825684,15.686034202575684,-0.707275390625,0.6295166015625,-0.09130859375
0.894,309,311,364,310,-13.0,43.0,38.0,27.404783248901367,-17.76123046875,13.305663108825684,-0.7073974609375,0.667236328125,-0.0533447265625
0.906,310,314,364,310,-13.0,43.0,38.0,24.108884811401367,-20.263669967651367,10.253905296325684,-0.70849609375,0.6978759765625,-0.0089111328125
0.914,310,315,363,310,-13.0,43.0,38.0,19.8974609375,-21.423337936401367,6.835937023162842,-0.7093505859375,0.7147216796875,0.0233154296875
0.922,308,315,367,309,-13.0,43.0,38.0,17.02880859375,-20.690916061401367,4.0283203125,-0.7081298828125,0.71728515625,0.0291748046875
0.939,308,325,369,310,-14.0,39.0,38.0,15.075682640075684,-18.798828125,2.25830078125,-0.709716796875,0.6727294921875,-0.02197265625
0.971,310,317,367,309,-14.0,39.0,38.0,12.207030296325684,-16.845703125,1.4038084745407104,-0.709716796875,0.6727294921875,-0.02197265625
0.972,308,322,360,308,-14.0,39.0,38.0,8.11767578125,-14.038084983825684,0.6713866591453552,-0.71337890625,0.619384765625,-0.0574951171875
0.972,297,342,364,308,-14.0,39.0,38.0,5.0048828125,-9.46044921875,-0.6103515625,-0.7449951171875,0.606689453125,-0.0823974609375
0.974,309,343,367,310,-14.0,39.0,38.0,3.967284917831421,-4.21142578125,-2.13623046875,-0.7449951171875,0.606689453125,-0.0823974609375
0.982,310,340,369,310,-14.0,39.0,38.0,3.051757574081421,0.4882812201976776,-3.051757574081421,-0.768310546875,0.663330078125,-0.080078125
0.996,309,340,371,310,-14.0,39.0,38.0,0.6713866591453552,4.82177734375,-3.417968511581421,-0.8021240234375,0.691162109375,-0.0894775390625
1.004,310,343,371,309,-14.0,39.0,38.0,-0.9765624403953552,9.3994140625,-3.723144292831421,-0.8021240234375,0.691162109375,-0.0894775390625
1.012,309,343,371,309,-14.0,39.0,38.0,0.54931640625,13.610838890075684,-3.967284917831421,-0.808349609375,0.6402587890625,-0.09521484375
1.026,310,342,371,310,-14.0,39.0,38.0,3.906249761581421,16.7236328125,-3.601073980331421,-0.8079833984375,0.5714111328125,-0.125732421875
1.044,309,343,372,310,-16.0,42.0,43.0,6.713866710662842,18.61572265625,-2.685546636581421,-0.8079833984375,0.5714111328125,-0.125732421875
1.045,310,343,372,310,-16.0,42.0,43.0,7.934569835662842,19.4091796875,-1.2817381620407104,-0.8123779296875,0.576171875,-0.1405029296875
1.067,310,345,372,310,-16.0,42.0,43.0,8.4228515625,19.83642578125,0.1831054538488388,-0.8077392578125,0.6092529296875,-0.1497802734375
1.067,308,331,373,308,-16.0,42.0,43.0,9.033203125,20.507810592651367,1.3427733182907104,-0.8077392578125,0.6092529296875,-0.1497802734375
1.082,311,343,372,310,-16.0,42.0,43.0,10.192870140075684,21.179197311401367,1.6479490995407104,-0.7923583984375,0.6241455078125,-0.137451171875
1.090,310,344,372,310,-16.0,42.0,43.0,14.526366233825684,20.690916061401367,0.1831054538488388,-0.76708984375,0.6337890625,-0.1239013671875
1.101,310,343,373,310,-16.0,42.0,43.0,14.526366233825684,20.690916061401367,0.1831054538488388,-0.76220703125,0.62158203125,-0.1339111328125
1.110,310,342,372,309,-16.0,42.0,43.0,16.78466796875,19.775390625,-0.1831054538488388,-0.76220703125,0.62158203125,-0.1339111328125
1.116,308,343,371,309,-16.0,42.0,43.0,22.460935592651367,15.747069358825684,-0.6713866591453552,-0.73291015625,0.593505859375,-0.168212890625
1.125,309,342,369,309,-16.0,42.0,43.0,22.460935592651367,15.747069358825684,-0.6713866591453552,-0.7230224609375,0.609619140625,-0.1881103515625
1.139,310,342,371,310,-20.0,43.0,38.0,24.658201217651367,13.427733421325684,-2.38037109375,-0.7230224609375,0.609619140625,-0.1881103515625
1.146,311,343,369,309,-20.0,43.0,38.0,23.681638717651367,10.375975608825684,-9.033203125,-0.7333984375,0.6575927734375,-0.19189453125
1.168,310,342,369,310,-20.0,43.0,38.0,23.681638717651367,10.375975608825684,-9.033203125,-0.731689453125,0.640869140625,-0.19287109375
1.174,310,345,371,310,-20.0,43.0,38.0,22.399900436401367,10.253905296325684,-12.451170921325684,-0.731689453125,0.640869140625,-0.19287109375
1.183,310,345,360,309,-20.0,43.0,38.0,14.526366233825684,10.864256858825684,-18.798828125,-0.681884765625,0.606201171875,-0.268798828125
1.184,309,345,363,310,-20.0,43.0,38.0,14.526366233825684,10.864256858825684,-18.798828125,-0.6671142578125,0.612548828125,-0.2972412109375
1.192,309,343,363,310,-20.0,43.0,38.0,1.4648436307907104,11.596678733825684,-22.033689498901367,-0.6671142578125,0.612548828125,-0.2972412109375
1.213,310,343,353,310,-20.0,43.0,38.0,-25.817869186401367,11.535643577575684,-27.770994186401367,-0.7540283203125,0.6126708984375,-0.2320556640625
1.214,309,331,360,308,-20.0,43.0,38.0,-25.817869186401367,11.535643577575684,-27.770994186401367,-0.828125,0.5863037109375,-0.1798095703125
1.222,309,343,354,311,-20.0,43.0,38.0,-28.503416061401367,10.375975608825684,-29.174802780151367,-0.8787841796875,0.547607421875,-0.1280517578125
1.245,308,345,359,310,-13.0,44.0,43.0,-17.39501953125,7.995604991912842,-25.390623092651367,-0.8985595703125,0.510986328125,-0.0948486328125
1.246,310,343,361,309,-13.0,44.0,43.0,-7.507323741912842,7.446288585662842,-21.301267623901367,-0.8955078125,0.4874267578125,-0.085693359375
1.257,309,344,359,311,-13.0,44.0,43.0,-7.507323741912842,7.446288585662842,-21.301267623901367,-0.874267578125,0.48681640625,-0.10546875
1.275,309,352,360,310,-13.0,44.0,43.0,9.033203125,7.507323741912842,-12.634276390075684,-0.85009765625,0.508544921875,-0.1610107421875
1.275,295,336,361,309,-13.0,44.0,43.0,11.352538108825684,8.60595703125,-9.033203125,-0.83349609375,0.5301513671875,-0.2147216796875
1.282,310,346,364,310,-13.0,44.0,43.0,11.352538108825684,8.60595703125,-9.033203125,-0.8255615234375,0.544677734375,-0.239990234375
1.296,310,349,364,310,-13.0,44.0,43.0,9.521484375,9.3994140625,-5.249022960662842,-0.82373046875,0.5579833984375,-0.2529296875
1.304,310,345,360,310,-13.0,44.0,43.0,7.568358898162842,9.82666015625,-5.615233898162842,-0.8182373046875,0.5704345703125,-0.2596435546875
1.314,310,345,357,310,-13.0,44.0,43.0,7.568358898162842,9.82666015625,-5.615233898162842,-0.8096923828125,0.583984375,-0.259033203125
1.326,309,343,359,310,-13.0,44.0,43.0,-4.08935546875,11.108397483825684,-8.056640625,-0.808349609375,0.5928955078125,-0.2481689453125
1.334,310,345,360,310,-14.0,44.0,36.0,-11.718749046325684,9.58251953125,-8.9111328125,-0.809814453125,0.5863037109375,-0.22998046875
1.348,309,345,359,310,-14.0,44.0,36.0,-11.718749046325684,9.58251953125,-8.9111328125,-0.8060302734375,0.5689697265625,-0.2227783203125
1.374,308,343,357,310,-14.0,44.0,36.0,-17.08984375,2.563476324081421,-9.46044921875,-0.80029296875,0.558837890625,-0.2325439453125
1.374,297,345,365,308,-14.0,44.0,36.0,-16.66259765625,-1.4038084745407104,-9.46044921875,-0.7962646484375,0.560791015625,-0.2442626953125
1.375,309,343,369,310,-14.0,44.0,36.0,-16.66259765625,-1.4038084745407104,-9.46044921875,-0.7978515625,0.566162109375,-0.25
1.386,308,342,364,310,-14.0,44.0,36.0,-19.34814453125,-8.97216796875,-8.30078125,-0.8072509765625,0.5660400390625,-0.2464599609375
1.398,310,341,364,310,-14.0,44.0,36.0,-21.179197311401367,-11.962889671325684,-6.713866710662842,-0.8128662109375,0.5584716796875,-0.2247314453125
1.402,310,339,365,310,-14.0,44.0,36.0,-21.606443405151367,-14.282225608825684,-4.8828125,-0.8076171875,0.544677734375,-0.1900634765625
1.417,310,337,364,310,-14.0,44.0,36.0,-21.240232467651367,-16.17431640625,-3.540038824081421,-0.8021240234375,0.528564453125,-0.156494140625
1.424,308,336,362,310,-14.0,44.0,36.0,-20.507810592651367,-18.00537109375,-2.44140625,-0.7957763671875,0.516357421875,-0.1329345703125
1.432,310,331,364,310,-14.0,41.0,40.0,-18.6767578125,-19.47021484375,-1.3427733182907104,-0.7718505859375,0.5118408203125,-0.12841796875
1.448,310,338,364,310,-14.0,41.0,40.0,-16.11328125,-20.141599655151367,-1.03759765625,-0.7333984375,0.5208740234375,-0.1356201171875
1.454,309,337,369,309,-14.0,41.0,40.0,-14.648436546325684,-20.385740280151367,-2.50244140625,-0.711181640625,0.5438232421875,-0.1324462890625
1.475,310,338,369,310,-14.0,41.0,40.0,-14.709471702575684,-20.874021530151367,-5.554198741912842,-0.723388671875,0.56591796875,-0.1134033203125
1.477,308,339,373,310,-14.0,41.0,40.0,-13.671874046325684,-21.545408248901367,-9.1552734375,-0.754150390625,0.5704345703125,-0.0953369140625
1.484,309,342,377,308,-14.0,41.0,40.0,-9.82666015625,-21.118162155151367,-12.023924827575684,-0.7847900390625,0.5582275390625,-0.099609375
1.495,310,342,379,310,-14.0,41.0,40.0,-4.8828125,-19.04296875,-13.671874046325684,-0.805419921875,0.5458984375,-0.1239013671875
1.506,310,349,377,310,-14.0,41.0,40.0,-2.38037109375,-15.869139671325684,-14.221190452575684,-0.805419921875,0.5537109375,-0.14501953125
1.518,310,345,378,310,-14.0,41.0,40.0,-3.723144292831421,-12.390135765075684,-14.648436546325684,-0.7923583984375,0.581298828125,-0.14013671875
1.523,309,345,379,310,-14.0,41.0,40.0,-6.408690929412842,-9.46044921875,-16.845703125,-0.794189453125,0.60791015625,-0.11865234375
1.536,309,352,376,310,-13.0,44.0,37.0,-7.751464366912842,-6.958007335662842,-21.057126998901367,-0.8150634765625,0.6199951171875,-0.1109619140625
1.550,310,349,378,309,-13.0,44.0,37.0,-8.4228515625,-4.7607421875,-25.390623092651367,-0.83203125,0.609130859375,-0.1207275390625
1.553,309,353,374,308,-13.0,44.0,37.0,-9.94873046875,-3.234863042831421,-28.381345748901367,-0.833740234375,0.586669921875,-0.138916015625
1.581,310,353,373,308,-13.0,44.0,37.0,-12.084959983825684,-2.990722417831421,-29.846189498901367,-0.830078125,0.567626953125,-0.1500244140625
1.581,309,352,357,298,-13.0,44.0,37.0,-14.465331077575684,-4.33349609375,-30.090330123901367,-0.8333740234375,0.5455322265625,-0.1353759765625
1.582,297,353,372,310,-13.0,44.0,37.0,-14.648436546325684,-6.591796398162842,-29.602048873901367,-0.8419189453125,0.519775390625,-0.107666015625
1.596,308,352,377,310,-13.0,44.0,37.0,-11.535643577575684,-8.48388671875,-28.930662155151367,-0.8509521484375,0.5045166015625,-0.09228515625
1.622,310,352,377,310,-13.0,44.0,37.0,-7.263183116912842,-9.27734375,-28.198240280151367,-0.85400390625,0.5037841796875,-0.0926513671875
1.623,309,351,377,309,-13.0,44.0,37.0,-4.33349609375,-9.27734375,-27.160642623901367,-0.85107421875,0.5101318359375,-0.105712890625
1.626,309,352,373,310,-13.0,44.0,37.0,-3.540038824081421,-9.3994140625,-26.000974655151367,-0.85595703125,0.506591796875,-0.117919921875
1.634,309,352,373,310,-12.0,43.0,38.0,-3.295898199081421,-10.070799827575684,-24.353025436401367,-0.872314453125,0.4815673828125,-0.1121826171875
1.642,310,352,376,310,-12.0,43.0,38.0,0.0,-11.108397483825684,-21.911619186401367,-0.8818359375,0.4476318359375,-0.0936279296875
1.656,310,352,373,309,-12.0,43.0,38.0,7.568358898162842,-11.779784202575684,-19.1650390625,-0.868408203125,0.42626953125,-0.0770263671875
1.680,310,352,372,310,-12.0,43.0,38.0,16.357421875,-12.451170921325684,-17.2119140625,-0.842529296875,0.4251708984375,-0.065185546875
1.680,296,338,380,310,-12.0,43.0,38.0,23.437498092651367,-13.732909202575684,-16.66259765625,-0.83056640625,0.4366455078125,-0.0587158203125
1.687,310,354,381,310,-12.0,43.0,38.0,27.954099655151367,-15.075682640075684,-16.66259765625,-0.836181640625,0.470703125,-0.090576171875
1.694,309,355,386,310,-12.0,43.0,38.0,29.113767623901367,-14.709471702575684,-15.869139671325684,-0.836181640625,0.470703125,-0.090576171875
1.702,310,355,393,310,-12.0,43.0,38.0,26.123044967651367,-12.512206077575684,-14.343260765075684,-0.837646484375,0.4896240234375,-0.115478515625
1.722,309,357,393,308,-12.0,43.0,38.0,19.53125,-9.33837890625,-12.512206077575684,-0.8726806640625,0.5126953125,-0.143798828125
1.724,310,357,394,309,-12.0,43.0,38.0,10.681151390075684,-5.981444835662842,-10.437010765075684,-0.8726806640625,0.5126953125,-0.143798828125
1.732,309,357,393,310,-11.0,40.0,42.0,1.0986328125,-2.563476324081421,-8.1787109375,-0.8851318359375,0.5208740234375,-0.147705078125
1.746,309,362,393,310,-11.0,40.0,42.0,-7.202147960662842,0.4882812201976776,-6.286620616912842,-0.8797607421875,0.4974365234375,-0.1158447265625
1.754,310,363,391,310,-11.0,40.0,42.0,-12.329100608825684,2.563476324081421,-5.126952648162842,-0.8797607421875,0.4974365234375,-0.1158447265625
1.762,310,360,387,308,-11.0,40.0,42.0,-12.756346702575684,3.112792730331421,-4.33349609375,-0.869873046875,0.458740234375,-0.0941162109375
1.778,308,363,388,310,-11.0,40.0,42.0,-9.765625,2.685546636581421,-3.601073980331421,-0.8544921875,0.436767578125,-0.1064453125
1.785,309,362,386,308,-11.0,40.0,42.0,-6.774901866912842,1.6479490995407104,-2.990722417831421,-0.8544921875,0.436767578125,-0.1064453125
1.795,308,362,391,311,-11.0,40.0,42.0,-6.042479991912842,0.30517578125,-2.685546636581421,-0.8594970703125,0.457275390625,-0.11767578125
1.806,310,361,394,309,-11.0,40.0,42.0,-6.774901866912842,-0.7934569716453552,-2.563476324081421,-0.8572998046875,0.4940185546875,-0.121337890625
1.814,310,360,396,310,-11.0,40.0,42.0,-7.446288585662842,-1.2817381620407104,-2.563476324081421,-0.8572998046875,0.4940185546875,-0.121337890625
1.836,309,360,396,310,-11.0,40.0,42.0,-7.812499523162842,-1.3427733182907104,-2.807616949081421,-0.8460693359375,0.4959716796875,-0.1239013671875
1.837,308,363,400,311,-14.0,42.0,41.0,-10.925292015075684,-2.868652105331421,-4.45556640625,-0.8428955078125,0.4671630859375,-0.117431640625
1.844,310,363,399,310,-14.0,42.0,41.0,-10.925292015075684,-2.868652105331421,-4.45556640625,-0.847412109375,0.4639892578125,-0.1077880859375
1.858,310,363,396,310,-14.0,42.0,41.0,-12.084959983825684,-4.45556640625,-4.94384765625,-0.847412109375,0.4639892578125,-0.1077880859375
1.888,308,363,401,311,-14.0,42.0,41.0,-10.253905296325684,-7.019042491912842,-4.8828125,-0.8575439453125,0.4918212890625,-0.089111328125
1.889,309,364,401,297,-14.0,42.0,41.0,-10.253905296325684,-7.019042491912842,-4.8828125,-0.849365234375,0.50537109375,-0.0904541015625
1.889,310,364,402,310,-14.0,42.0,41.0,-9.1552734375,-7.263183116912842,-4.94384765625,-0.849365234375,0.50537109375,-0.0904541015625
1.896,310,364,402,309,-14.0,42.0,41.0,-13.732909202575684,-5.798339366912842,-6.896972179412842,-0.8480224609375,0.492919921875,-0.084716796875
1.904,308,362,402,310,-14.0,42.0,41.0,-13.732909202575684,-5.798339366912842,-6.896972179412842,-0.8624267578125,0.482177734375,-0.0762939453125
1.912,310,362,401,310,-14.0,42.0,41.0,-17.76123046875,-5.187987804412842,-7.751464366912842,-0.8624267578125,0.482177734375,-0.0762939453125
1.937,308,363,394,310,-12.0,39.0,43.0,-20.446775436401367,-2.990722417831421,-6.774901866912842,-0.883544921875,0.49267578125,-0.0911865234375
1.937,309,364,393,310,-12.0,39.0,43.0,-20.446775436401367,-2.990722417831421,-6.774901866912842,-0.8818359375,0.4873046875,-0.096435546875
1.945,310,363,391,310,-12.0,39.0,43.0,-20.263669967651367,-1.5869139432907104,-5.981444835662842,-0.8818359375,0.4873046875,-0.096435546875
1.960,309,364,388,310,-12.0,39.0,43.0,-20.568845748901367,0.0,-5.432128429412842,-0.8697509765625,0.451904296875,-0.08056640625
1.964,310,364,393,310,-12.0,39.0,43.0,-20.568845748901367,0.0,-5.432128429412842,-0.865478515625,0.4385986328125,-0.0621337890625
1.990,310,364,394,310,-12.0,39.0,43.0,-20.568845748901367,-0.4272460639476776,-5.065917491912842,-0.865478515625,0.4385986328125,-0.0621337890625
1.990,308,367,394,311,-12.0,39.0,43.0,-15.808104515075684,-3.112792730331421,-3.967284917831421,-0.8572998046875,0.4288330078125,-0.0159912109375
1.994,310,367,394,310,-12.0,39.0,43.0,-9.27734375,-5.065917491912842,-3.479003667831421,-0.863037109375,0.436767578125,-0.0035400390625
2.002,310,365,393,310,-12.0,39.0,43.0,-9.27734375,-5.065917491912842,-3.479003667831421,-0.872802734375,0.4603271484375,-0.0208740234375
2.016,310,367,394,309,-12.0,39.0,43.0,7.812499523162842,-7.690429210662842,-2.38037109375,-0.87890625,0.481201171875,-0.051513671875
2.040,308,367,393,310,-12.0,39.0,43.0,12.512206077575684,-8.9111328125,-2.25830078125,-0.8836669921875,0.4776611328125,-0.0703125
2.040,295,368,377,298,-8.0,41.0,38.0,12.512206077575684,-8.9111328125,-2.25830078125,-0.89013671875,0.465576171875,-0.0850830078125
2.047,306,368,394,310,-8.0,41.0,38.0,17.4560546875,-12.023924827575684,-1.7089842557907104,-0.8958740234375,0.463134765625,-0.0997314453125
2.067,308,369,393,310,-8.0,41.0,38.0,17.333984375,-13.549803733825684,-0.9155272841453552,-0.9000244140625,0.4674072265625,-0.10595703125
2.068,296,353,391,310,-8.0,41.0,38.0,17.333984375,-13.549803733825684,-0.9155272841453552,-0.8995361328125,0.4722900390625,-0.1007080078125
2.091,310,369,394,308,-8.0,41.0,38.0,13.793944358825684,-15.869139671325684,-0.0610351525247097,-0.8909912109375,0.4794921875,-0.0914306640625
2.092,307,369,396,309,-8.0,41.0,38.0,12.390135765075684,-16.05224609375,-0.30517578125,-0.881591796875,0.487060546875,-0.0843505859375
2.093,309,367,396,296,-8.0,41.0,38.0,12.390135765075684,-16.05224609375,-0.30517578125,-0.8792724609375,0.4871826171875,-0.0794677734375
2.106,309,368,399,310,-8.0,41.0,38.0,8.9111328125,-15.930174827575684,-1.3427733182907104,-0.8792724609375,0.484130859375,-0.076904296875
2.114,310,367,401,309,-8.0,41.0,38.0,6.774901866912842,-15.502928733825684,-1.5869139432907104,-0.8701171875,0.4820556640625,-0.070068359375
2.263,309,364,402,310,-8.0,41.0,38.0,6.774901866912842,-15.502928733825684,-1.5869139432907104,-0.859375,0.4815673828125,-0.050537109375
2.309,309,364,386,310,-10.0,40.0,38.0,2.807616949081421,-13.977049827575684,-3.906249761581421,-0.86328125,0.49365234375,-0.019287109375
2.316,309,364,407,310,-10.0,40.0,38.0,1.0986328125,-11.840819358825684,-6.652831554412842,-0.87890625,0.526123046875,0.01220703125
2.322,309,364,409,309,-10.0,40.0,38.0,-0.1831054538488388,-7.324218273162842,-10.742186546325684,-0.8892822265625,0.5635986328125,0.0224609375
2.326,309,363,408,309,-10.0,40.0,38.0,-0.7934569716453552,-0.54931640625,-16.54052734375,-0.8818359375,0.5797119140625,-0.005615234375
2.326,310,364,410,309,-10.0,40.0,38.0,-1.9531248807907104,6.896972179412842,-23.071287155151367,-0.8602294921875,0.563232421875,-0.051025390625
2.327,310,362,410,294,-10.0,40.0,38.0,-5.310058116912842,12.573241233825684,-28.869626998901367,-0.8372802734375,0.5225830078125,-0.0804443359375
2.328,309,345,408,308,-10.0,40.0,38.0,-10.803221702575684,15.258788108825684,-32.71484375,-0.826904296875,0.478759765625,-0.091796875
2.329,308,363,413,310,-10.0,40.0,38.0,-17.02880859375,15.319823265075684,-34.423828125,-0.834228515625,0.441650390625,-0.0946044921875
2.329,310,364,414,310,-10.0,40.0,38.0,-21.545408248901367,13.366698265075684,-34.24072265625,-0.8516845703125,0.4078369140625,-0.0928955078125
2.329,309,364,414,308,-6.0,43.0,41.0,-22.033689498901367,10.070799827575684,-32.5927734375,-0.868896484375,0.3819580078125,-0.09228515625
2.330,309,363,411,310,-6.0,43.0,41.0,-19.10400390625,6.103515148162842,-29.846189498901367,-0.876708984375,0.36669921875,-0.0975341796875
2.330,310,364,414,310,-6.0,43.0,41.0,-15.624999046325684,1.8310545682907104,-26.367185592651367,-0.8636474609375,0.34912109375,-0.10888671875
2.331,309,365,394,308,-6.0,43.0,41.0,-13.671874046325684,-2.868652105331421,-22.460935592651367,-0.8292236328125,0.3297119140625,-0.123046875
2.332,310,367,411,310,-6.0,43.0,41.0,-15.197752952575684,-8.23974609375,-18.61572265625,-0.8009033203125,0.3167724609375,-0.1280517578125
2.335,310,369,414,310,-6.0,43.0,41.0,-20.324705123901367,-14.404295921325684,-14.892577171325684,-0.78466796875,0.3038330078125,-0.1282958984375
2.340,308,379,401,309,-6.0,43.0,41.0,-26.428220748901367,-20.874021530151367,-10.559081077575684,-0.7491455078125,0.2840576171875,-0.1390380859375
2.340,308,386,393,310,-6.0,43.0,41.0,-31.555173873901367,-27.648923873901367,-6.225585460662842,-0.64697265625,0.254150390625,-0.1378173828125
2.341,310,419,406,310,-6.0,43.0,41.0,-34.60693359375,-37.109375,-4.94384765625,-0.431884765625,0.23095703125,-0.0927734375
2.341,310,465,425,294,-6.0,43.0,41.0,-32.3486328125,-48.767086029052734,-10.864256858825684,-0.197021484375,0.287353515625,0.0035400390625
2.343,309,473,479,310,-4.0,37.0,50.0,-21.545408248901367,-58.898921966552734,-24.475095748901367,-0.0394287109375,0.481201171875,0.164794921875
2.343,310,524,562,310,-4.0,37.0,50.0,-6.286620616912842,-66.2841796875,-42.663570404052734,0.1051025390625,0.6715087890625,0.3524169921875
2.344,310,561,642,309,-4.0,37.0,50.0,2.624511480331421,-66.34521484375,-66.71142578125,0.14990234375,0.6634521484375,0.338623046875
2.357,314,634,749,311,-4.0,37.0,50.0,-3.051757574081421,-55.053707122802734,-95.27587127685547,-0.1173095703125,0.566162109375,-0.00439453125
2.369,310,689,810,312,-4.0,37.0,50.0,-20.507810592651367,-41.931148529052734,-114.56298065185547,-0.7474365234375,0.6314697265625,-0.3555908203125
2.374,311,737,916,312,-4.0,37.0,50.0,-39.306640625,-42.602535247802734,-114.80712127685547,-1.5133056640625,0.8275146484375,-0.275634765625
2.419,311,805,1085,311,-4.0,37.0,50.0,-47.790523529052734,-57.556148529052734,-103.02733612060547,-2.4442138671875,0.4154052734375,0.5396728515625
2.419,311,830,1112,311,-4.0,37.0,50.0,-40.527339935302734,-68.2373046875,-98.26659393310547,-2.4442138671875,0.4154052734375,0.5396728515625
2.421,310,827,1054,312,-4.0,37.0,50.0,-23.010251998901367,-58.166500091552734,-106.32323455810547,-2.341796875,-0.21044921875,0.4727783203125
2.421,310,799,882,311,-4.0,37.0,50.0,-7.568358898162842,-34.60693359375,-105.04149627685547,-1.457763671875,-0.546630859375,-0.0596923828125
2.426,310,780,822,311,-1.0,38.0,44.0,4.57763671875,-8.1787109375,-78.30810546875,-1.457763671875,-0.546630859375,-0.0596923828125
2.434,309,778,830,312,-1.0,38.0,44.0,20.324705123901367,17.02880859375,-38.330078125,-0.9798583984375,-0.2467041015625,-0.0120849609375
2.447,310,771,826,310,-1.0,38.0,44.0,31.188962936401367,29.724119186401367,-6.408690929412842,-1.3660888671875,0.5643310546875,0.4478759765625
2.462,309,763,811,310,-1.0,38.0,44.0,30.517576217651367,26.855466842651367,8.72802734375,-1.3660888671875,0.5643310546875,0.4478759765625
2.471,310,733,778,310,-1.0,38.0,44.0,23.193357467651367,20.751951217651367,13.854979515075684,-1.6380615234375,0.69775390625,0.4759521484375
2.477,310,716,705,310,-1.0,38.0,44.0,12.084959983825684,24.230955123901367,17.27294921875,-1.3905029296875,0.3538818359375,0.03369140625
2.509,310,695,673,310,-1.0,38.0,44.0,-0.3662109076976776,38.87939453125,22.399900436401367,-1.3905029296875,0.3538818359375,0.03369140625
2.509,311,657,631,310,-1.0,38.0,44.0,-9.46044921875,55.480953216552734,30.517576217651367,-1.2340087890625,0.2130126953125,-0.133056640625
2.510,310,608,566,312,-1.0,38.0,44.0,-12.207030296325684,62.561031341552734,39.794921875,-1.025390625,0.2005615234375,-0.000244140625
2.516,309,579,526,310,-1.0,38.0,44.0,-8.48388671875,57.739253997802734,45.898433685302734,-1.025390625,0.2005615234375,-0.000244140625
2.523,310,551,500,311,-1.0,39.0,40.0,1.7700194120407104,49.072261810302734,44.372554779052734,-0.880126953125,0.2015380859375,0.0960693359375
2.542,310,509,469,309,-1.0,39.0,40.0,32.958984375,46.508785247802734,15.563963890075684,-0.5316162109375,-0.0400390625,-0.063720703125
2.546,310,493,463,310,-1.0,39.0,40.0,32.958984375,46.508785247802734,15.563963890075684,-0.44287109375,-0.09130859375,-0.210693359375
2.555,310,479,449,310,-1.0,39.0,40.0,50.415035247802734,54.077144622802734,-0.9765624403953552,-0.44287109375,-0.09130859375,-0.210693359375
2.576,310,452,441,309,-1.0,39.0,40.0,60.180660247802734,40.527339935302734,-8.9111328125,-0.5242919921875,0.212158203125,-0.0902099609375
2.577,310,446,441,310,-1.0,39.0,40.0,60.180660247802734,40.527339935302734,-8.9111328125,-0.5479736328125,0.29931640625,0.0037841796875
2.605,310,444,440,310,-1.0,39.0,40.0,47.607418060302734,25.024412155151367,-7.812499523162842,-0.5479736328125,0.29931640625,0.0037841796875
2.606,310,438,444,310,-1.0,39.0,40.0,25.512693405151367,16.78466796875,-1.5869139432907104,-0.7044677734375,0.523681640625,-0.0924072265625
2.606,310,438,450,310,-1.0,39.0,40.0,25.512693405151367,16.78466796875,-1.5869139432907104,-0.780517578125,0.62451171875,-0.0885009765625
2.613,310,438,450,309,-1.0,39.0,40.0,17.7001953125,15.686034202575684,2.44140625,-0.780517578125,0.62451171875,-0.0885009765625
2.627,310,441,452,308,-3.0,39.0,42.0,-0.4272460639476776,12.451170921325684,0.0,-0.79296875,0.4947509765625,0.00048828125
2.636,310,441,452,310,-3.0,39.0,42.0,-0.4272460639476776,12.451170921325684,0.0,-0.8616943359375,0.3878173828125,-0.035888671875
2.645,310,444,452,310,-3.0,39.0,42.0,-2.807616949081421,13.305663108825684,-2.01416015625,-0.8616943359375,0.3878173828125,-0.035888671875
2.668,308,444,454,310,-3.0,39.0,42.0,2.929687261581421,14.160155296325684,-1.8310545682907104,-0.959228515625,0.291015625,-0.115966796875
2.668,309,444,463,308,-3.0,39.0,42.0,2.929687261581421,14.160155296325684,-1.8310545682907104,-0.982421875,0.2896728515625,-0.105712890625
2.681,310,446,457,310,-3.0,39.0,42.0,1.9531248807907104,11.413573265075684,-1.0986328125,-1.0047607421875,0.274658203125,-0.0806884765625
2.693,309,444,463,308,-3.0,39.0,42.0,-1.4648436307907104,7.019042491912842,-2.01416015625,-1.0283203125,0.2469482421875,-0.069091796875
2.695,309,440,465,310,-3.0,39.0,42.0,0.30517578125,7.812499523162842,-2.38037109375,-1.0377197265625,0.2244873046875,-0.0706787109375
2.705,310,438,465,309,-3.0,39.0,42.0,0.30517578125,7.812499523162842,-2.38037109375,-1.0272216796875,0.2122802734375,-0.070068359375
2.717,310,430,465,310,-3.0,39.0,42.0,6.103515148162842,8.9111328125,-0.7324218153953552,-1.0086669921875,0.2117919921875,-0.0667724609375
2.725,309,424,465,310,-5.0,40.0,41.0,7.751464366912842,7.629394054412842,0.54931640625,-0.9874267578125,0.2265625,-0.075927734375
2.734,310,420,466,310,-5.0,40.0,41.0,7.751464366912842,7.629394054412842,0.54931640625,-0.96533203125,0.2484130859375,-0.0968017578125
2.748,309,415,456,310,-5.0,40.0,41.0,4.5166015625,4.82177734375,4.08935546875,-0.9520263671875,0.2679443359375,-0.1123046875
2.755,310,413,452,309,-5.0,40.0,41.0,0.8544921278953552,3.540038824081421,6.408690929412842,-0.951904296875,0.2789306640625,-0.119873046875
2.763,309,410,449,310,-5.0,40.0,41.0,0.8544921278953552,3.540038824081421,6.408690929412842,-0.955810546875,0.28125,-0.129638671875
2.785,308,407,438,310,-5.0,40.0,41.0,-2.624511480331421,1.5258787870407104,11.291502952575684,-0.951904296875,0.283447265625,-0.1385498046875
2.786,308,399,437,308,-5.0,40.0,41.0,-4.33349609375,-0.6713866591453552,14.099120140075684,-0.9429931640625,0.2886962890625,-0.1378173828125
2.808,308,394,433,309,-5.0,40.0,41.0,-4.33349609375,-0.6713866591453552,14.099120140075684,-0.9384765625,0.2874755859375,-0.12353515625
2.808,310,386,430,310,-5.0,40.0,41.0,-9.82666015625,-8.1787109375,20.629880905151367,-0.951416015625,0.2762451171875,-0.1033935546875
2.815,308,379,428,310,-5.0,40.0,41.0,-12.451170921325684,-11.169432640075684,25.024412155151367,-0.993896484375,0.259765625,-0.087646484375
2.823,310,372,425,310,-6.0,42.0,39.0,-15.197752952575684,-13.061522483825684,31.127927780151367,-1.0560302734375,0.2313232421875,-0.072265625
2.837,310,364,411,310,-6.0,42.0,39.0,-17.88330078125,-14.099120140075684,39.73388671875,-1.1083984375,0.17333984375,-0.0589599609375
2.847,310,363,399,310,-6.0,42.0,39.0,-20.629880905151367,-14.221190452575684,51.391597747802734,-1.1121826171875,0.0810546875,-0.0626220703125
2.856,310,364,382,310,-6.0,42.0,39.0,-22.216794967651367,-13.305663108825684,66.162109375,-1.0081787109375,-0.038818359375,-0.0872802734375
2.867,310,378,382,308,-6.0,42.0,39.0,-18.98193359375,-13.061522483825684,82.70262908935547,-0.7222900390625,-0.1611328125,-0.1348876953125
2.889,310,420,383,310,-6.0,42.0,39.0,-14.709471702575684,-17.2119140625,98.14452362060547,-0.24951171875,-0.224365234375,-0.1553955078125
2.889,309,481,386,310,-6.0,42.0,39.0,-20.996091842651367,-28.869626998901367,106.99462127685547,0.22509765625,-0.0943603515625,-0.1044921875
2.907,309,543,413,310,-6.0,42.0,39.0,-35.400390625,-49.682613372802734,101.13524627685547,0.4927978515625,0.3837890625,-0.001953125
2.908,309,587,454,308,-6.0,42.0,39.0,-36.376953125,-78.18603515625,72.8759765625,0.5255126953125,0.915283203125,0.2020263671875
2.913,310,630,564,310,-6.0,42.0,39.0,-12.634276390075684,-100.95214080810547,21.911619186401367,0.479248046875,0.949951171875,0.4493408203125
2.927,310,736,737,310,-5.0,41.0,42.0,4.94384765625,-102.84423065185547,-33.99658203125,0.411865234375,0.6385498046875,0.63330078125
2.936,310,794,810,312,-5.0,41.0,42.0,-0.30517578125,-81.78710174560547,-75.62255859375,-0.132080078125,0.579833984375,0.6143798828125
2.943,310,858,917,311,-5.0,41.0,42.0,10.620116233825684,-45.471187591552734,-92.10204315185547,-1.30029296875,1.0157470703125,0.125244140625
2.959,310,944,1067,312,-5.0,41.0,42.0,45.104976654052734,-13.793944358825684,-81.17675018310547,-2.2528076171875,1.5445556640625,-0.5560302734375
2.965,310,992,1134,312,-5.0,41.0,42.0,54.199214935302734,-9.27734375,-66.58935546875,-2.4605712890625,1.3543701171875,-0.75732421875
2.973,310,1020,1188,311,-5.0,41.0,42.0,25.573728561401367,-26.428220748901367,-70.1904296875,-2.51123046875,0.6260986328125,-0.409423828125
3.013,310,980,1011,310,-5.0,41.0,42.0,-7.812499523162842,-43.395992279052734,-80.99364471435547,-2.667724609375,0.0068359375,0.1014404296875
3.014,310,973,1034,312,-5.0,41.0,42.0,-22.766111373901367,-43.029781341552734,-78.9794921875,-2.1727294921875,-0.596435546875,0.4207763671875
3.014,310,971,1056,312,-5.0,41.0,42.0,-11.352538108825684,-17.4560546875,-58.593746185302734,-1.483154296875,-0.5675048828125,0.4603271484375
3.017,310,948,1010,312,-5.0,41.0,42.0,9.33837890625,11.047362327575684,-29.663084030151367,-1.51611328125,0.246826171875,0.4627685546875
3.025,310,922,916,312,-3.0,37.0,43.0,25.146482467651367,24.780271530151367,-7.629394054412842,-1.7889404296875,0.7943115234375,0.401611328125
3.033,310,890,799,312,-3.0,37.0,43.0,36.1328125,27.404783248901367,5.0048828125,-1.71337890625,0.8177490234375,0.2388916015625
3.047,310,830,629,310,-3.0,37.0,43.0,35.58349609375,23.803709030151367,12.023924827575684,-1.364501953125,0.5936279296875,0.0394287109375
3.055,310,796,566,310,-3.0,37.0,43.0,25.085447311401367,25.085447311401367,13.061522483825684,-1.0736083984375,0.3643798828125,-0.1800537109375
3.063,308,763,512,310,-3.0,37.0,43.0,10.620116233825684,30.334470748901367,11.230467796325684,-0.9149169921875,0.2677001953125,-0.27099609375
3.077,310,718,493,310,-3.0,37.0,43.0,-1.6479490995407104,32.28759765625,8.1787109375,-0.8115234375,0.215087890625,-0.2265625
3.085,310,684,467,310,-3.0,37.0,43.0,-5.065917491912842,32.1044921875,2.563476324081421,-0.711181640625,0.119140625,-0.142578125
3.117,308,648,441,310,-3.0,37.0,43.0,-0.4272460639476776,32.28759765625,-3.723144292831421,-0.54296875,-0.0128173828125,-0.0999755859375
3.120,294,591,433,310,-3.0,37.0,43.0,7.812499523162842,33.8134765625,-6.835937023162842,-0.336181640625,-0.025390625,-0.1607666015625
3.121,311,551,423,308,-3.0,37.0,43.0,13.610838890075684,36.07177734375,-6.225585460662842,-0.250244140625,0.1783447265625,-0.216796875
3.123,310,538,428,310,-5.0,38.0,46.0,8.48388671875,32.3486328125,-6.652831554412842,-0.3101806640625,0.404052734375,-0.1038818359375
3.137,310,524,441,310,-5.0,38.0,46.0,-6.774901866912842,20.935056686401367,-11.413573265075684,-0.594970703125,0.39453125,0.2503662109375
3.145,310,513,452,310,-5.0,38.0,46.0,-20.507810592651367,9.82666015625,-17.333984375,-0.594970703125,0.39453125,0.2503662109375
3.156,309,518,466,310,-5.0,38.0,46.0,-23.193357467651367,5.981444835662842,-20.01953125,-0.7080078125,0.28076171875,0.2286376953125
3.167,310,523,481,308,-5.0,38.0,46.0,-15.747069358825684,8.056640625,-17.578125,-0.798583984375,0.245361328125,0.0460205078125
3.175,310,526,496,310,-5.0,38.0,46.0,-6.774901866912842,9.33837890625,-11.657713890075684,-0.798583984375,0.245361328125,0.0460205078125
3.194,310,531,502,310,-5.0,38.0,46.0,-0.1220703050494194,7.385253429412842,-5.920409679412842,-0.821044921875,0.2379150390625,0.0418701171875
3.221,308,535,509,310,-5.0,38.0,46.0,7.202147960662842,4.82177734375,-1.9531248807907104,-0.9329833984375,0.2359619140625,-0.007080078125
3.221,308,527,525,310,-5.0,38.0,46.0,14.831542015075684,3.234863042831421,1.5258787870407104,-0.9329833984375,0.2359619140625,-0.007080078125
3.222,311,543,530,309,-5.0,38.0,46.0,17.822265625,1.8920897245407104,5.249022960662842,-0.98681640625,0.283935546875,-0.0361328125
3.227,310,540,535,310,-6.0,38.0,44.0,15.869139671325684,0.3662109076976776,8.30078125,-1.0638427734375,0.3414306640625,-0.05029296875
3.235,310,537,535,310,-6.0,38.0,44.0,12.512206077575684,-0.1831054538488388,10.131834983825684,-1.0638427734375,0.3414306640625,-0.05029296875
3.243,310,535,538,310,-6.0,38.0,44.0,9.765625,0.8544921278953552,11.413573265075684,-1.0911865234375,0.32373046875,-0.07275390625
3.260,308,522,538,309,-6.0,38.0,44.0,8.544921875,2.197265625,12.634276390075684,-1.097900390625,0.2567138671875,-0.084228515625
3.267,311,509,538,310,-6.0,38.0,44.0,9.21630859375,2.01416015625,14.465331077575684,-1.097900390625,0.2567138671875,-0.084228515625
3.273,308,497,535,310,-6.0,38.0,44.0,11.108397483825684,0.0,17.27294921875,-1.0467529296875,0.2491455078125,-0.06201171875
3.322,308,481,531,310,-6.0,38.0,44.0,13.122557640075684,-2.746581792831421,19.6533203125,-0.9423828125,0.3170166015625,-0.043701171875
3.322,309,476,531,310,-6.0,38.0,44.0,14.282225608825684,-4.638671875,19.83642578125,-0.910888671875,0.3717041015625,-0.0537109375
3.323,309,465,526,310,-6.0,38.0,44.0,14.709471702575684,-5.126952648162842,17.02880859375,-0.910888671875,0.3717041015625,-0.0537109375
3.323,310,435,513,296,-4.0,36.0,43.0,10.803221702575684,-4.57763671875,6.774901866912842,-0.8912353515625,0.402587890625,-0.0828857421875
3.325,309,441,508,309,-4.0,36.0,43.0,10.803221702575684,-4.57763671875,6.774901866912842,-0.8995361328125,0.4029541015625,-0.0780029296875
3.333,310,438,499,310,-4.0,36.0,43.0,3.723144292831421,-3.967284917831421,3.356933355331421,-0.8995361328125,0.4029541015625,-0.0780029296875
3.348,310,427,479,310,-4.0,36.0,43.0,-6.042479991912842,-1.5258787870407104,0.8544921278953552,-0.9207763671875,0.3919677734375,-0.0615234375
3.359,309,423,465,310,-4.0,36.0,43.0,-6.042479991912842,-1.5258787870407104,0.8544921278953552,-0.91650390625,0.3665771484375,-0.0577392578125
3.363,310,415,441,308,-4.0,36.0,43.0,-7.141112804412842,-1.9531248807907104,0.6103515625,-0.91650390625,0.3665771484375,-0.0577392578125
3.377,309,408,420,310,-4.0,36.0,43.0,-9.21630859375,-8.23974609375,2.807616949081421,-0.887451171875,0.290283203125,-0.0399169921875
3.392,310,407,419,310,-4.0,36.0,43.0,-9.21630859375,-8.23974609375,2.807616949081421,-0.8756103515625,0.2725830078125,-0.0263671875
3.393,310,407,413,308,-4.0,36.0,43.0,-10.375975608825684,-12.451170921325684,6.286620616912842,-0.8756103515625,0.2725830078125,-0.0263671875
3.410,310,413,419,310,-4.0,36.0,43.0,-12.756346702575684,-18.9208984375,15.991209983825684,-0.8387451171875,0.218505859375,0.0009765625
3.427,308,423,419,310,-6.0,39.0,45.0,-12.756346702575684,-18.9208984375,15.991209983825684,-0.792724609375,0.160888671875,-0.0096435546875
3.427,310,437,409,310,-6.0,39.0,45.0,-11.962889671325684,-20.812986373901367,21.911619186401367,-0.792724609375,0.160888671875,-0.0096435546875
3.437,310,488,394,309,-6.0,39.0,45.0,-7.202147960662842,-29.907224655151367,36.2548828125,-0.5555419921875,0.002197265625,-0.1922607421875
3.446,309,523,440,308,-6.0,39.0,45.0,-1.4038084745407104,-43.273921966552734,43.151851654052734,-0.339599609375,-0.0068359375,-0.394775390625
3.453,308,561,535,310,-6.0,39.0,45.0,-1.4038084745407104,-43.273921966552734,43.151851654052734,-0.08740234375,0.1236572265625,-0.402587890625
3.467,310,612,840,310,-6.0,39.0,45.0,36.31591796875,-103.39354705810547,42.541500091552734,0.267822265625,0.341796875,-0.0462646484375
3.475,310,650,943,312,-6.0,39.0,45.0,90.45409393310547,-137.26806640625,21.911619186401367,0.7198486328125,0.5484619140625,0.4072265625
3.485,308,691,1014,312,-6.0,39.0,45.0,90.45409393310547,-137.26806640625,21.911619186401367,0.791748046875,0.8367919921875,0.5975341796875
3.497,310,784,1132,312,-6.0,39.0,45.0,144.59228515625,-125.42723846435547,-51.391597747802734,0.1007080078125,1.1800537109375,0.619384765625
3.530,310,867,1236,312,-6.0,39.0,45.0,83.67919158935547,-83.80126190185547,-77.45361328125,-1.057861328125,1.30078125,0.5439453125
3.531,309,958,1338,312,-6.0,39.0,45.0,83.67919158935547,-83.80126190185547,-77.45361328125,-2.4019775390625,1.11669921875,0.310302734375
3.532,310,1000,1355,312,-7.0,34.0,49.0,-13.488768577575684,-19.775390625,-63.659664154052734,-3.329345703125,0.617431640625,0.129638671875
3.535,311,973,1292,312,-7.0,34.0,49.0,-32.8369140625,-14.953612327575684,-45.349117279052734,-3.4141845703125,-0.0826416015625,0.0753173828125
3.543,311,966,1255,312,-7.0,34.0,49.0,-32.8369140625,-14.953612327575684,-45.349117279052734,-2.5823974609375,-0.7158203125,0.08544921875
3.557,308,935,1209,312,-7.0,34.0,49.0,-45.837398529052734,-16.2353515625,-0.54931640625,-1.329345703125,-0.8572998046875,0.0615234375
3.567,310,922,1185,312,-7.0,34.0,49.0,4.45556640625,-1.6479490995407104,18.37158203125,-0.692626953125,-0.316650390625,-0.0015869140625
3.577,308,916,1188,312,-7.0,34.0,49.0,4.45556640625,-1.6479490995407104,18.37158203125,-0.8399658203125,0.5025634765625,0.04931640625
3.587,310,895,1153,311,-7.0,34.0,49.0,23.498533248901367,30.700681686401367,20.935056686401367,-1.366455078125,1.0684814453125,0.2923583984375
3.597,310,878,1117,311,-7.0,34.0,49.0,-1.3427733182907104,23.864744186401367,17.15087890625,-1.778564453125,1.119873046875,0.5220947265625
3.604,308,853,1056,312,-7.0,34.0,49.0,-6.958007335662842,15.930174827575684,17.76123046875,-1.7515869140625,0.870849609375,0.4281005859375
3.621,310,790,938,312,-7.0,36.0,48.0,0.0610351525247097,22.155759811401367,20.874021530151367,-1.427734375,0.6339111328125,0.052734375
3.641,310,757,861,311,-7.0,36.0,48.0,-1.0986328125,33.447265625,21.545408248901367,-1.0980224609375,0.483642578125,-0.2525634765625
3.641,310,728,797,312,-7.0,36.0,48.0,-16.29638671875,39.61181640625,19.22607421875,-0.9063720703125,0.401123046875,-0.2662353515625
3.647,309,664,656,310,-7.0,36.0,48.0,-35.400390625,40.161128997802734,17.51708984375,-0.81884765625,0.3243408203125,-0.080078125
3.655,310,638,585,311,-7.0,36.0,48.0,-43.884273529052734,39.4287109375,16.90673828125,-0.7183837890625,0.190185546875,0.10400390625
3.669,309,613,549,310,-7.0,36.0,48.0,-32.04345703125,40.649410247802734,12.756346702575684,-0.55224609375,0.032470703125,0.1502685546875
3.677,310,588,519,310,-7.0,36.0,48.0,-5.0048828125,44.433589935302734,0.9765624403953552,-0.3822021484375,-0.048828125,0.0872802734375
3.686,310,572,500,310,-7.0,36.0,48.0,21.667478561401367,49.011226654052734,-16.41845703125,-0.307861328125,-0.0235595703125,0.0289306640625
3.703,310,558,505,310,-7.0,36.0,48.0,33.87451171875,49.560543060302734,-31.433103561401367,-0.386474609375,0.096923828125,0.0338134765625
3.722,309,536,512,311,-7.0,36.0,48.0,25.390623092651367,42.602535247802734,-37.109375,-0.535888671875,0.253173828125,0.095458984375
3.734,309,537,519,310,-6.0,36.0,48.0,6.469726085662842,32.470703125,-35.21728515625,-0.637451171875,0.3272705078125,0.1253662109375
3.737,310,531,523,310,-6.0,36.0,48.0,-6.591796398162842,26.916501998901367,-30.029294967651367,-0.7335205078125,0.351806640625,0.053466796875
3.761,308,523,533,310,-6.0,36.0,48.0,-9.46044921875,25.939939498901367,-20.568845748901367,-0.8330078125,0.4432373046875,-0.05126953125
3.761,310,519,535,310,-6.0,36.0,48.0,-8.6669921875,23.925779342651367,-9.6435546875,-0.8729248046875,0.542724609375,-0.094482421875
3.762,308,513,530,311,-6.0,36.0,48.0,-11.474608421325684,19.47021484375,-5.0048828125,-0.8682861328125,0.5260009765625,-0.0484619140625
3.775,310,504,537,309,-6.0,36.0,48.0,-15.808104515075684,15.197752952575684,-7.385253429412842,-0.870849609375,0.4278564453125,0.0338134765625
3.776,310,497,531,309,-6.0,36.0,48.0,-14.648436546325684,13.732909202575684,-10.375975608825684,-0.9036865234375,0.355224609375,0.070068359375
3.783,310,493,518,310,-6.0,36.0,48.0,-8.7890625,14.221190452575684,-10.192870140075684,-0.9462890625,0.3206787109375,0.0567626953125
3.802,310,482,493,310,-6.0,36.0,48.0,-3.784179449081421,14.160155296325684,-7.812499523162842,-0.977783203125,0.2919921875,0.0316162109375
3.805,311,479,481,310,-6.0,36.0,48.0,-1.0986328125,12.756346702575684,-4.8828125,-0.987548828125,0.265869140625,0.01123046875
3.831,310,469,467,310,-6.0,40.0,46.0,1.2817381620407104,10.803221702575684,-2.685546636581421,-0.9827880859375,0.2489013671875,-0.0101318359375
3.832,310,465,456,310,-6.0,40.0,46.0,4.39453125,9.09423828125,-1.15966796875,-0.970703125,0.2470703125,-0.0318603515625
3.836,310,453,447,310,-6.0,40.0,46.0,7.263183116912842,7.873534679412842,0.0610351525247097,-0.9564208984375,0.2615966796875,-0.046630859375
3.846,310,451,439,310,-6.0,40.0,46.0,8.1787109375,6.774901866912842,1.15966796875,-0.9449462890625,0.2841796875,-0.0491943359375
3.860,310,437,419,310,-6.0,40.0,46.0,6.408690929412842,5.737304210662842,2.01416015625,-0.9425048828125,0.30126953125,-0.04248046875
3.865,310,428,396,310,-6.0,40.0,46.0,3.112792730331421,4.7607421875,2.38037109375,-0.951171875,0.3062744140625,-0.0369873046875
3.876,309,423,386,308,-6.0,40.0,46.0,-0.4272460639476776,3.723144292831421,2.685546636581421,-0.9593505859375,0.30615234375,-0.0404052734375
3.887,310,408,369,310,-6.0,40.0,46.0,-3.295898199081421,2.563476324081421,3.479003667831421,-0.96044921875,0.308349609375,-0.0570068359375
3.896,309,401,363,308,-6.0,40.0,46.0,-5.737304210662842,1.03759765625,5.249022960662842,-0.95947265625,0.3131103515625,-0.08251953125
3.905,310,395,357,308,-6.0,40.0,46.0,-8.4228515625,-1.220703125,8.056640625,-0.9578857421875,0.3154296875,-0.1036376953125
3.936,309,391,343,310,-3.0,36.0,47.0,-11.901854515075684,-4.45556640625,11.901854515075684,-0.934814453125,0.2926025390625,-0.09716796875
3.937,310,386,340,308,-3.0,36.0,47.0,-15.930174827575684,-8.1787109375,16.4794921875,-0.934814453125,0.2926025390625,-0.09716796875
3.937,294,384,340,310,-3.0,36.0,47.0,-20.263669967651367,-11.718749046325684,21.911619186401367,-0.90869140625,0.281005859375,-0.0760498046875
3.953,308,393,340,308,-3.0,36.0,47.0,-24.780271530151367,-14.953612327575684,28.137205123901367,-0.79638671875,0.2220458984375,-0.0299072265625
3.955,309,398,340,310,-3.0,36.0,47.0,-29.052732467651367,-18.4326171875,34.66796875,-0.79638671875,0.2220458984375,-0.0299072265625
3.963,310,414,343,310,-3.0,36.0,47.0,-31.860349655151367,-22.705076217651367,40.771480560302734,-0.690673828125,0.1463623046875,-0.0433349609375
3.983,309,473,336,308,-3.0,36.0,47.0,-31.127927780151367,-29.235837936401367,46.264644622802734,-0.3818359375,0.017333984375,-0.2042236328125
3.986,308,509,340,310,-3.0,36.0,47.0,-26.428220748901367,-39.794921875,51.391597747802734,-0.3818359375,0.017333984375,-0.2042236328125
3.993,310,540,345,310,-3.0,36.0,47.0,-21.545408248901367,-55.358882904052734,55.297847747802734,-0.219482421875,0.165283203125,-0.30126953125
4.007,310,594,456,310,-3.0,36.0,47.0,-19.04296875,-76.66015625,53.161617279052734,0.0838623046875,0.7926025390625,0.0435791015625
4.026,310,616,694,312,-5.0,36.0,48.0,-13.427733421325684,-101.92870330810547,36.92626953125,0.0838623046875,0.7926025390625,0.0435791015625
4.033,311,662,845,311,-5.0,36.0,48.0,2.624511480331421,-123.22997283935547,4.33349609375,0.4158935546875,0.7095947265625,0.4298095703125
4.037,310,754,995,310,-5.0,36.0,48.0,25.085447311401367,-120.78856658935547,-34.3017578125,0.1029052734375,0.32861328125,0.39453125
4.046,309,826,1134,312,-5.0,36.0,48.0,28.198240280151367,-86.42577362060547,-62.194820404052734,-1.0267333984375,0.707275390625,0.4610595703125
4.059,311,901,1285,313,-5.0,36.0,48.0,-3.479003667831421,-44.738765716552734,-68.359375,-1.0267333984375,0.707275390625,0.4610595703125
4.068,311,994,1383,312,-5.0,36.0,48.0,-71.77734375,-11.596678733825684,-50.170894622802734,-2.7183837890625,0.77783203125,0.9200439453125
4.078,310,1029,1397,312,-5.0,36.0,48.0,-71.77734375,-11.596678733825684,-50.170894622802734,-2.7978515625,0.0137939453125,0.7032470703125
4.086,310,1029,1338,312,-5.0,36.0,48.0,-77.08740234375,-7.568358898162842,-53.222652435302734,-2.7978515625,0.0137939453125,0.7032470703125
4.098,311,1000,1219,312,-5.0,36.0,48.0,8.48388671875,4.21142578125,-9.58251953125,-2.0596923828125,-0.299560546875,-0.44677734375
4.110,310,969,1170,312,-5.0,36.0,48.0,8.48388671875,4.21142578125,-9.58251953125,-1.2896728515625,-0.1951904296875,-0.6822509765625
4.113,310,948,1172,312,-7.0,35.0,44.0,54.931636810302734,26.855466842651367,26.428220748901367,-1.2896728515625,-0.1951904296875,-0.6822509765625
4.133,310,939,1170,311,-7.0,35.0,44.0,11.596678733825684,38.02490234375,38.39111328125,-1.129150390625,0.9578857421875,0.54541015625
4.138,310,928,1141,312,-7.0,35.0,44.0,11.596678733825684,38.02490234375,38.39111328125,-1.604248046875,1.3863525390625,0.974609375
4.147,308,916,1078,312,-7.0,35.0,44.0,-6.103515148162842,18.310546875,24.841306686401367,-1.604248046875,1.3863525390625,0.974609375
4.157,310,858,886,311,-7.0,35.0,44.0,29.663084030151367,26.062009811401367,-6.225585460662842,-1.5599365234375,0.7989501953125,0.18017578125
4.165,311,819,772,312,-7.0,35.0,44.0,29.663084030151367,26.062009811401367,-6.225585460662842,-1.28857421875,0.522705078125,-0.3125
4.173,310,785,668,311,-7.0,35.0,44.0,28.442380905151367,45.837398529052734,-12.329100608825684,-1.28857421875,0.522705078125,-0.3125
4.187,311,716,545,310,-7.0,35.0,44.0,-20.629880905151367,42.419429779052734,-18.5546875,-0.9044189453125,0.365478515625,-0.182373046875
4.198,310,685,490,310,-7.0,35.0,44.0,-23.559568405151367,32.65380859375,-22.583005905151367,-0.743896484375,0.11572265625,0.0450439453125
4.204,310,640,430,310,-7.0,35.0,44.0,-23.559568405151367,32.65380859375,-22.583005905151367,-0.5963134765625,-0.15869140625,0.1083984375
4.218,310,566,363,310,-4.0,37.0,49.0,41.870113372802734,47.668453216552734,-36.68212890625,-0.4227294921875,-0.2742919921875,-0.0146484375
4.226,308,551,357,310,-4.0,37.0,49.0,73.8525390625,62.499996185302734,-42.663570404052734,-0.27001953125,-0.15771484375,-0.157470703125
4.236,310,540,360,310,-4.0,37.0,49.0,73.8525390625,62.499996185302734,-42.663570404052734,-0.3099365234375,0.086181640625,-0.122314453125
4.250,309,502,351,309,-4.0,37.0,49.0,55.358882904052734,39.4287109375,-50.048824310302734,-0.491943359375,0.267822265625,0.066650390625
4.255,308,497,361,310,-4.0,37.0,49.0,20.568845748901367,14.099120140075684,-50.476070404052734,-0.5712890625,0.2916259765625,0.1856689453125
4.263,310,488,363,312,-4.0,37.0,49.0,20.568845748901367,14.099120140075684,-50.476070404052734,-0.5943603515625,0.257568359375,0.112548828125
4.285,309,478,368,310,-4.0,37.0,49.0,-4.150390625,6.469726085662842,-32.53173828125,-0.6671142578125,0.3076171875,0.0028076171875
4.286,308,478,371,308,-4.0,37.0,49.0,-5.249022960662842,6.713866710662842,-20.141599655151367,-0.7235107421875,0.3997802734375,0.004638671875
4.293,310,481,379,311,-4.0,37.0,49.0,-5.249022960662842,6.713866710662842,-20.141599655151367,-0.754638671875,0.4200439453125,0.078369140625
4.318,310,490,395,310,-4.0,37.0,49.0,-7.019042491912842,0.4882812201976776,-4.57763671875,-0.79150390625,0.35888671875,0.1561279296875
4.319,311,494,408,310,-3.0,39.0,43.0,-3.234863042831421,1.03759765625,-2.01416015625,-0.8404541015625,0.2950439453125,0.1739501953125
4.329,310,497,419,311,-3.0,39.0,43.0,-3.234863042831421,1.03759765625,-2.01416015625,-0.9022216796875,0.277587890625,0.1142578125
4.338,310,502,428,311,-3.0,39.0,43.0,14.465331077575684,9.94873046875,-0.3662109076976776,-0.955322265625,0.28369140625,0.047119140625
4.345,310,505,439,310,-3.0,39.0,43.0,16.4794921875,11.657713890075684,-1.0986328125,-0.9912109375,0.285400390625,0.017333984375
4.353,309,509,444,309,-3.0,39.0,43.0,14.465331077575684,10.986327171325684,-1.220703125,-1.015380859375,0.2752685546875,0.01318359375
4.367,309,509,454,310,-3.0,39.0,43.0,12.512206077575684,9.70458984375,-0.7934569716453552,-1.0255126953125,0.255126953125,0.0130615234375
4.387,310,509,465,310,-3.0,39.0,43.0,13.061522483825684,9.1552734375,-0.4882812201976776,-1.0281982421875,0.2322998046875,-0.0013427734375
4.387,309,510,475,310,-3.0,39.0,43.0,14.892577171325684,9.09423828125,-0.1831054538488388,-1.031005859375,0.22216796875,-0.0379638671875
4.397,310,508,477,310,-3.0,39.0,43.0,15.502928733825684,8.9111328125,0.6713866591453552,-1.0272216796875,0.236083984375,-0.0799560546875
4.405,310,506,479,310,-3.0,39.0,43.0,13.000487327575684,7.934569835662842,2.13623046875,-1.014892578125,0.259521484375,-0.103515625
4.424,310,504,481,310,-6.0,38.0,43.0,7.446288585662842,6.225585460662842,3.784179449081421,-1.009765625,0.2724609375,-0.1064453125
4.445,310,498,478,310,-6.0,38.0,43.0,0.2441406100988388,4.33349609375,5.798339366912842,-1.0091552734375,0.275634765625,-0.0955810546875
4.446,310,495,477,310,-6.0,38.0,43.0,-6.408690929412842,2.44140625,8.4228515625,-0.997802734375,0.2733154296875,-0.0770263671875
4.447,297,490,475,310,-6.0,38.0,43.0,-11.352538108825684,0.4272460639476776,11.230467796325684,-0.9781494140625,0.2655029296875,-0.056640625
4.457,309,480,469,310,-6.0,38.0,43.0,-14.892577171325684,-2.01416015625,14.038084983825684,-0.9591064453125,0.2562255859375,-0.036376953125
4.465,310,473,465,310,-6.0,38.0,43.0,-16.9677734375,-4.5166015625,16.90673828125,-0.9501953125,0.252685546875,-0.0224609375
4.473,310,465,465,310,-6.0,38.0,43.0,-17.63916015625,-6.958007335662842,20.01953125,-0.9566650390625,0.2530517578125,-0.017578125
4.488,310,449,465,310,-6.0,38.0,43.0,-17.578125,-9.521484375,23.620603561401367,-0.9676513671875,0.2445068359375,-0.01171875
4.496,310,447,465,310,-6.0,38.0,43.0,-17.9443359375,-12.451170921325684,28.259275436401367,-0.964111328125,0.2108154296875,0.0010986328125
4.504,310,452,463,310,-6.0,38.0,43.0,-18.98193359375,-15.380858421325684,34.66796875,-0.913818359375,0.1422119140625,0.0164794921875
4.520,310,479,451,310,-7.0,37.0,47.0,-19.8974609375,-17.578125,43.457027435302734,-0.8028564453125,0.05712890625,0.0037841796875
4.525,310,502,428,310,-7.0,37.0,47.0,-20.812986373901367,-19.53125,54.199214935302734,-0.6416015625,0.0096435546875,-0.0384521484375
4.548,310,535,410,311,-7.0,37.0,47.0,-24.597166061401367,-23.620603561401367,65.4296875,-0.4188232421875,0.0220947265625,-0.0736083984375
4.548,310,594,447,310,-7.0,37.0,47.0,-34.85107421875,-31.066892623901367,72.8759765625,-0.1597900390625,0.1207275390625,-0.106689453125
4.555,310,622,531,312,-7.0,37.0,47.0,-48.400875091552734,-41.809078216552734,69.64111328125,0.0433349609375,0.392578125,-0.0960693359375
4.563,311,657,647,310,-7.0,37.0,47.0,-47.302242279052734,-56.945796966552734,49.438472747802734,0.224365234375,0.6934814453125,0.093017578125
4.577,310,725,808,310,-7.0,37.0,47.0,-20.507810592651367,-72.3876953125,16.41845703125,0.4764404296875,0.69921875,0.3798828125
4.595,309,778,901,310,-7.0,37.0,47.0,8.23974609375,-75.439453125,-16.05224609375,0.5074462890625,0.4984130859375,0.4539794921875
4.595,310,845,985,310,-7.0,37.0,47.0,5.615233898162842,-60.485836029052734,-39.00146484375,-0.0546875,0.4830322265625,0.4715576171875
4.607,310,986,1191,312,-4.0,37.0,49.0,-13.366698265075684,-38.26904296875,-50.170894622802734,-1.1209716796875,0.735107421875,0.546875
4.622,310,1043,1280,312,-4.0,37.0,49.0,-10.559081077575684,-16.05224609375,-49.316402435302734,-2.2041015625,0.9281005859375,0.263671875
4.623,298,1078,1294,309,-4.0,37.0,49.0,6.835937023162842,1.15966796875,-43.701168060302734,-2.7562255859375,0.65625,-0.2330322265625
4.649,311,1076,1315,311,-4.0,37.0,49.0,12.512206077575684,1.15966796875,-37.7197265625,-2.7750244140625,0.060302734375,-0.364990234375
4.649,311,1051,1232,312,-4.0,37.0,49.0,2.685546636581421,-18.9208984375,-20.385740280151367,-2.613037109375,-0.2626953125,-0.0709228515625
4.654,311,1029,1163,312,-4.0,37.0,49.0,-11.047362327575684,-39.0625,12.573241233825684,-2.006591796875,-0.2496337890625,0.2320556640625
4.667,310,1018,1159,311,-4.0,37.0,49.0,-9.46044921875,-25.695798873901367,39.306640625,-0.7735595703125,0.76123046875,0.327392578125
4.675,311,1008,1157,311,-4.0,37.0,49.0,1.15966796875,15.624999046325684,39.97802734375,-0.7735595703125,0.76123046875,0.327392578125
4.684,310,994,1120,312,-4.0,37.0,49.0,4.08935546875,43.334957122802734,17.51708984375,-1.09912109375,1.3233642578125,0.5867919921875
4.701,310,960,1021,311,-4.0,37.0,49.0,9.58251953125,42.846675872802734,-11.779784202575684,-1.716552734375,0.7950439453125,0.42822265625
4.705,310,935,943,312,-7.0,37.0,44.0,23.803709030151367,37.17041015625,-29.602048873901367,-1.716552734375,0.7950439453125,0.42822265625
4.713,310,907,849,312,-7.0,37.0,44.0,31.738279342651367,44.799800872802734,-32.89794921875,-1.51171875,0.48779296875,-0.0947265625
4.727,310,849,705,310,-7.0,37.0,44.0,21.972654342651367,55.786128997802734,-30.822751998901367,-1.1370849609375,0.3880615234375,-0.3310546875
4.749,310,814,629,310,-7.0,37.0,44.0,5.432128429412842,56.518550872802734,-27.893064498901367,-1.1370849609375,0.3880615234375,-0.3310546875
4.761,310,780,572,310,-7.0,37.0,44.0,-2.624511480331421,48.156734466552734,-24.902341842651367,-1.06103515625,0.42822265625,-0.077880859375
4.762,310,722,509,310,-7.0,37.0,44.0,-0.4272460639476776,42.114253997802734,-24.780271530151367,-0.984375,0.37109375,0.060302734375
4.767,309,646,426,310,-7.0,37.0,44.0,4.69970703125,44.433589935302734,-29.052732467651367,-0.58935546875,-0.1070556640625,-0.04638671875
4.774,310,594,377,309,-7.0,37.0,44.0,8.48388671875,51.391597747802734,-37.7197265625,-0.58935546875,-0.1070556640625,-0.04638671875
4.782,308,566,367,310,-7.0,37.0,44.0,14.526366233825684,60.180660247802734,-47.851558685302734,-0.3504638671875,-0.2930908203125,-0.1590576171875
4.796,310,529,342,310,-7.0,37.0,44.0,22.827146530151367,65.85693359375,-52.307125091552734,-0.397705078125,-0.0006103515625,-0.021484375
4.804,310,499,343,308,-7.0,37.0,44.0,21.850584030151367,57.189937591552734,-50.476070404052734,-0.397705078125,-0.0006103515625,-0.021484375
4.812,310,476,354,309,-6.0,37.0,45.0,7.507323741912842,36.1328125,-47.363277435302734,-0.5400390625,0.12548828125,0.1563720703125
4.826,310,451,353,310,-6.0,37.0,45.0,-6.164550304412842,19.95849609375,-41.320796966552734,-0.612548828125,0.2432861328125,0.109130859375
4.834,310,438,354,310,-6.0,37.0,45.0,-9.033203125,15.808104515075684,-30.700681686401367,-0.612548828125,0.2432861328125,0.109130859375
4.854,310,444,356,309,-6.0,37.0,45.0,-8.056640625,15.747069358825684,-18.1884765625,-0.658935546875,0.3759765625,0.0482177734375
4.856,310,452,364,310,-6.0,37.0,45.0,-11.108397483825684,13.305663108825684,-6.958007335662842,-0.754638671875,0.404296875,0.1373291015625
4.864,308,452,371,310,-6.0,37.0,45.0,-12.878417015075684,10.742186546325684,-1.0986328125,-0.754638671875,0.404296875,0.1373291015625
4.874,310,463,371,310,-6.0,37.0,45.0,-6.042479991912842,11.962889671325684,0.1831054538488388,-0.8651123046875,0.2987060546875,0.118896484375
4.887,310,464,374,310,-6.0,37.0,45.0,8.36181640625,15.563963890075684,1.4038084745407104,-1.0185546875,0.24462890625,-0.068603515625
4.899,308,463,379,310,-6.0,37.0,45.0,19.83642578125,17.15087890625,2.990722417831421,-1.0367431640625,0.2452392578125,-0.108154296875
4.903,309,457,380,310,-6.0,37.0,45.0,22.155759811401367,15.258788108825684,3.051757574081421,-1.0367431640625,0.2452392578125,-0.108154296875
4.916,310,455,384,310,-4.0,38.0,42.0,17.2119140625,10.498045921325684,2.25830078125,-1.0299072265625,0.2579345703125,-0.111328125
4.930,308,452,382,310,-4.0,38.0,42.0,17.2119140625,10.498045921325684,2.25830078125,-1.0047607421875,0.26171875,-0.102294921875
4.933,310,451,384,308,-4.0,38.0,42.0,14.709471702575684,9.58251953125,2.25830078125,-1.0047607421875,0.26171875,-0.102294921875
4.960,310,442,384,310,-4.0,38.0,42.0,7.751464366912842,6.164550304412842,0.8544921278953552,-0.9443359375,0.2596435546875,-0.06982421875
4.961,308,439,385,310,-4.0,38.0,42.0,7.751464366912842,6.164550304412842,0.8544921278953552,-0.9461669921875,0.27001953125,-0.071044921875
4.962,308,438,385,310,-4.0,38.0,42.0,3.540038824081421,3.723144292831421,-0.3662109076976776,-0.9461669921875,0.27001953125,-0.071044921875
4.976,309,435,386,310,-4.0,38.0,42.0,-0.1831054538488388,0.9765624403953552,-2.929687261581421,-0.9752197265625,0.2711181640625,-0.1025390625
4.987,310,433,386,310,-4.0,38.0,42.0,-0.1831054538488388,0.9765624403953552,-2.929687261581421,-0.9757080078125,0.263916015625,-0.1136474609375
4.993,310,428,386,310,-4.0,38.0,42.0,-0.9765624403953552,-0.1220703050494194,-3.234863042831421,-0.9757080078125,0.263916015625,-0.1136474609375
5.006,309,428,384,310,-2.0,39.0,47.0,-5.859374523162842,-4.57763671875,-0.7934569716453552,-0.9501953125,0.2501220703125,-0.0872802734375
5.019,310,427,386,310,-2.0,39.0,47.0,-5.859374523162842,-4.57763671875,-0.7934569716453552,-0.940673828125,0.2427978515625,-0.0660400390625
5.022,310,426,384,310,-2.0,39.0,47.0,-7.690429210662842,-7.080077648162842,1.220703125,-0.940673828125,0.2427978515625,-0.0660400390625
5.037,309,426,385,308,-2.0,39.0,47.0,-8.11767578125,-11.230467796325684,6.164550304412842,-0.9481201171875,0.22412109375,-0.0362548828125
5.049,310,426,386,310,-2.0,39.0,47.0,-7.019042491912842,-12.512206077575684,9.46044921875,-0.9591064453125,0.2083740234375,-0.028076171875
5.058,310,428,395,308,-2.0,39.0,47.0,-7.019042491912842,-12.512206077575684,9.46044921875,-0.9625244140625,0.18310546875,-0.02734375
5.066,309,437,414,310,-2.0,39.0,47.0,-7.568358898162842,-13.244627952575684,19.95849609375,-0.944091796875,0.1461181640625,-0.0380859375
5.074,310,439,432,310,-2.0,39.0,47.0,-10.498045921325684,-12.939452171325684,28.869626998901367,-0.892822265625,0.09619140625,-0.06591796875
5.082,310,449,449,309,-2.0,39.0,47.0,-10.498045921325684,-12.939452171325684,28.869626998901367,-0.765380859375,0.024169921875,-0.0848388671875
5.099,309,499,506,310,-2.0,39.0,47.0,-19.8974609375,-14.587401390075684,57.006832122802734,-0.51611328125,-0.087890625,-0.083251953125
5.109,310,548,558,310,-5.0,38.0,43.0,-24.963376998901367,-20.080564498901367,73.2421875,-0.1334228515625,-0.1964111328125,-0.109375
5.113,310,605,643,311,-5.0,38.0,43.0,-24.963376998901367,-20.080564498901367,73.2421875,0.332763671875,-0.1776123046875,-0.1734619140625
5.133,312,666,899,310,-5.0,38.0,43.0,-51.757808685302734,-48.522945404052734,88.25682830810547,0.590087890625,0.122314453125,-0.1771240234375
5.134,310,697,996,310,-5.0,38.0,43.0,-64.14794921875,-82.64159393310547,71.59423828125,0.484375,0.6298828125,0.0853271484375
5.145,310,739,1071,310,-5.0,38.0,43.0,-64.14794921875,-82.64159393310547,71.59423828125,0.1650390625,0.94482421875,0.487548828125
5.157,310,833,1189,312,-5.0,38.0,43.0,-17.08984375,-126.46483612060547,-21.850584030151367,-0.4266357421875,0.9512939453125,0.6204833984375
5.164,311,916,1260,312,-5.0,38.0,43.0,24.902341842651367,-102.35594940185547,-60.485836029052734,-1.3572998046875,0.9710693359375,0.3935546875
5.172,310,987,1344,311,-5.0,38.0,43.0,24.902341842651367,-102.35594940185547,-60.485836029052734,-2.32275390625,1.14306640625,-0.0458984375
5.186,310,1051,1383,310,-5.0,38.0,43.0,42.236324310302734,-57.434078216552734,-39.9169921875,-2.837158203125,0.991943359375,-0.335205078125
5.195,311,1051,1352,312,-5.0,38.0,43.0,-0.8544921278953552,-43.823238372802734,-23.071287155151367,-2.8857421875,0.271728515625,-0.2105712890625
5.203,310,1018,1268,312,-4.0,34.0,46.0,-56.945796966552734,-38.14697265625,-11.230467796325684,-2.6248779296875,-0.48046875,0.17724609375
5.216,308,982,1216,311,-4.0,34.0,46.0,-94.05516815185547,-39.24560546875,9.8876953125,-1.8465576171875,-0.7548828125,0.4180908203125
5.238,310,964,1237,312,-4.0,34.0,46.0,-70.37353515625,-23.193357467651367,30.212400436401367,-1.01708984375,-0.2802734375,0.426025390625
5.239,311,935,1226,312,-4.0,34.0,46.0,-9.70458984375,7.690429210662842,34.11865234375,-0.929931640625,0.7755126953125,0.6077880859375
5.265,311,934,1162,311,-4.0,34.0,46.0,21.850584030151367,28.076169967651367,23.010251998901367,-1.41943359375,1.5059814453125,0.938720703125
5.266,310,918,1097,312,-4.0,34.0,46.0,19.47021484375,39.55078125,4.39453125,-1.7655029296875,1.3345947265625,0.957275390625
5.266,308,889,1014,312,-4.0,34.0,46.0,14.953612327575684,52.307125091552734,-11.108397483825684,-1.662109375,0.7266845703125,0.5391845703125
5.276,310,827,816,310,-4.0,34.0,46.0,14.587401390075684,66.162109375,-17.4560546875,-1.37646484375,0.3160400390625,-0.00244140625
5.285,310,794,694,312,-4.0,34.0,46.0,10.070799827575684,76.0498046875,-18.06640625,-1.146240234375,0.2379150390625,-0.302978515625
5.292,310,753,607,310,-4.0,34.0,46.0,5.187987804412842,76.5380859375,-18.00537109375,-0.9886474609375,0.290283203125,-0.2972412109375
5.308,310,685,490,309,-6.0,34.0,46.0,8.23974609375,69.091796875,-19.47021484375,-0.8671875,0.2984619140625,-0.177490234375
5.315,311,618,451,310,-6.0,34.0,46.0,20.446775436401367,60.546871185302734,-25.085447311401367,-0.69873046875,0.1470947265625,-0.0986328125
5.324,311,558,402,310,-6.0,34.0,46.0,38.26904296875,56.884761810302734,-37.9638671875,-0.43994140625,-0.1070556640625,-0.144287109375
5.344,308,522,363,310,-6.0,34.0,46.0,56.884761810302734,60.424800872802734,-52.978511810302734,-0.218994140625,-0.18408203125,-0.2650146484375
5.345,309,481,356,310,-6.0,34.0,46.0,63.842769622802734,60.546871185302734,-61.706539154052734,-0.22998046875,-0.0072021484375,-0.28515625
5.355,308,444,357,310,-6.0,34.0,46.0,45.471187591552734,45.532222747802734,-62.866207122802734,-0.4102783203125,0.210693359375,-0.1439208984375
5.371,310,414,354,310,-6.0,34.0,46.0,11.474608421325684,23.986814498901367,-58.410640716552734,-0.51611328125,0.2830810546875,0.0247802734375
5.374,308,408,359,308,-6.0,34.0,46.0,-14.404295921325684,11.535643577575684,-50.109859466552734,-0.53173828125,0.263427734375,0.08837890625
5.382,312,409,367,310,-6.0,34.0,46.0,-28.625486373901367,6.958007335662842,-38.330078125,-0.5859375,0.3192138671875,0.1094970703125
5.396,309,419,384,310,-6.0,34.0,46.0,-37.65869140625,2.50244140625,-25.634763717651367,-0.6744384765625,0.3890380859375,0.1873779296875
5.407,310,420,399,309,-3.0,39.0,39.0,-33.63037109375,0.1220703050494194,-18.1884765625,-0.7550048828125,0.3150634765625,0.25048828125
5.413,310,428,409,310,-3.0,39.0,39.0,-11.169432640075684,3.601073980331421,-15.563963890075684,-0.8251953125,0.1796875,0.193359375
5.426,310,438,435,310,-3.0,39.0,39.0,13.854979515075684,9.1552734375,-11.657713890075684,-0.8795166015625,0.1265869140625,0.05126953125
5.447,311,446,451,311,-3.0,39.0,39.0,23.742673873901367,10.864256858825684,-5.371093273162842,-0.923583984375,0.1322021484375,-0.0526123046875
5.447,309,454,465,309,-3.0,39.0,39.0,19.8974609375,7.629394054412842,1.15966796875,-0.961181640625,0.15380859375,-0.06689453125
5.468,309,465,485,310,-3.0,39.0,39.0,14.587401390075684,3.173827886581421,7.507323741912842,-1.0067138671875,0.2061767578125,-0.0472412109375
5.468,310,473,497,310,-3.0,39.0,39.0,13.610838890075684,0.54931640625,12.817381858825684,-1.0546875,0.2525634765625,-0.03173828125
5.472,309,476,505,309,-3.0,39.0,39.0,15.014647483825684,-0.6713866591453552,15.258788108825684,-1.0711669921875,0.2598876953125,-0.0228271484375
5.487,310,477,512,308,-3.0,39.0,39.0,15.258788108825684,-1.7089842557907104,15.014647483825684,-1.0587158203125,0.2525634765625,-0.0234375
5.495,309,475,513,310,-3.0,39.0,39.0,12.207030296325684,-3.295898199081421,13.000487327575684,-1.048095703125,0.2386474609375,-0.0269775390625
5.502,310,468,518,310,-3.0,39.0,45.0,7.934569835662842,-4.69970703125,10.314940452575684,-1.0401611328125,0.2147216796875,-0.033447265625
5.516,309,465,519,310,-3.0,39.0,45.0,6.713866710662842,-4.5166015625,8.60595703125,-1.010498046875,0.2117919921875,-0.07763671875
5.525,310,454,522,309,-3.0,39.0,45.0,7.934569835662842,-3.417968511581421,8.72802734375,-1.010498046875,0.2117919921875,-0.07763671875
5.532,310,454,519,312,-3.0,39.0,45.0,7.324218273162842,-3.662109136581421,10.375975608825684,-0.9947509765625,0.244140625,-0.0794677734375
5.571,310,452,509,310,-3.0,39.0,45.0,3.540038824081421,-5.737304210662842,12.573241233825684,-0.9542236328125,0.2857666015625,-0.06591796875
5.571,310,452,502,310,-3.0,39.0,45.0,-1.4038084745407104,-8.056640625,13.977049827575684,-0.9542236328125,0.2857666015625,-0.06591796875
5.572,308,449,495,309,-3.0,39.0,45.0,-6.042479991912842,-9.8876953125,14.221190452575684,-0.9473876953125,0.28173828125,-0.0662841796875
5.576,310,441,488,310,-3.0,39.0,45.0,-9.521484375,-11.535643577575684,14.038084983825684,-0.9517822265625,0.28564453125,-0.052978515625
5.585,310,440,488,310,-3.0,39.0,45.0,-11.108397483825684,-13.671874046325684,14.160155296325684,-0.9517822265625,0.28564453125,-0.052978515625
5.592,310,442,485,310,-3.0,39.0,45.0,-11.840819358825684,-16.7236328125,15.014647483825684,-0.9461669921875,0.2734375,-0.031005859375
5.606,310,451,494,310,-4.0,38.0,43.0,-12.023924827575684,-19.95849609375,16.78466796875,-0.89013671875,0.19140625,0.015380859375
5.615,310,456,496,310,-4.0,38.0,43.0,-11.474608421325684,-22.460935592651367,20.080564498901367,-0.89013671875,0.19140625,0.015380859375
5.623,310,476,499,310,-4.0,38.0,43.0,-10.498045921325684,-23.864744186401367,25.451658248901367,-0.8179931640625,0.1231689453125,0.008544921875
5.637,310,533,509,310,-4.0,38.0,43.0,-10.070799827575684,-24.353025436401367,33.8134765625,-0.3341064453125,-0.136474609375,-0.044921875
5.646,310,587,574,310,-4.0,38.0,43.0,-10.681151390075684,-25.085447311401367,45.288082122802734,0.1593017578125,-0.257568359375,-0.0833740234375
5.675,310,635,744,312,-4.0,38.0,43.0,-15.869139671325684,-28.076169967651367,57.556148529052734,0.1593017578125,-0.257568359375,-0.0833740234375
5.675,310,712,1022,310,-4.0,38.0,43.0,-35.0341796875,-55.114742279052734,59.753414154052734,0.7825927734375,0.187744140625,0.107666015625
5.677,309,753,1104,311,-4.0,38.0,43.0,-35.0341796875,-55.114742279052734,59.753414154052734,0.7303466796875,0.502685546875,0.4935302734375
5.682,312,813,1198,312,-4.0,38.0,43.0,-15.686034202575684,-84.35057830810547,39.306640625,0.7303466796875,0.502685546875,0.4935302734375
5.696,310,939,1318,312,-4.0,38.0,43.0,59.448238372802734,-95.09276580810547,-48.583980560302734,-1.0408935546875,1.0576171875,0.929443359375
5.704,311,1025,1377,313,-6.0,35.0,50.0,59.448238372802734,-95.09276580810547,-48.583980560302734,-2.4588623046875,1.2235107421875,0.3160400390625
5.716,310,1074,1419,312,-6.0,35.0,50.0,98.51073455810547,-68.4814453125,-73.1201171875,-2.4588623046875,1.2235107421875,0.3160400390625
5.726,310,1133,1443,312,-6.0,35.0,50.0,123.65721893310547,-22.277830123901367,-49.804683685302734,-2.9864501953125,0.5953369140625,-0.9478759765625
5.735,310,1112,1400,312,-6.0,35.0,50.0,123.65721893310547,-22.277830123901367,-49.804683685302734,-2.7550048828125,-0.161376953125,-0.32568359375
5.752,311,1092,1349,311,-6.0,35.0,50.0,48.767086029052734,-30.639646530151367,-51.818843841552734,-2.7550048828125,-0.161376953125,-0.32568359375
5.781,310,1055,1325,313,-6.0,35.0,50.0,-61.828609466552734,-32.3486328125,-0.6713866591453552,-1.106201171875,-0.6190185546875,0.581787109375
5.781,296,1042,1339,312,-6.0,35.0,50.0,-61.828609466552734,-32.3486328125,-0.6713866591453552,-0.8280029296875,0.037353515625,0.49169921875
5.781,310,1035,1336,311,-6.0,35.0,50.0,-48.339839935302734,7.385253429412842,31.738279342651367,-0.8280029296875,0.037353515625,0.49169921875
5.787,309,1009,1286,312,-6.0,35.0,50.0,-11.230467796325684,37.4755859375,39.73388671875,-1.75634765625,1.1258544921875,0.638916015625
5.794,310,980,1253,312,-6.0,35.0,50.0,-11.230467796325684,37.4755859375,39.73388671875,-1.7728271484375,0.8795166015625,0.4766845703125
5.802,310,948,1201,311,-7.0,36.0,49.0,7.873534679412842,33.26416015625,27.648923873901367,-1.4996337890625,0.5301513671875,0.1104736328125
5.819,310,901,1063,312,-7.0,36.0,49.0,3.112792730331421,47.668453216552734,19.4091796875,-1.206787109375,0.279541015625,-0.2064208984375
5.824,310,875,988,310,-7.0,36.0,49.0,-22.888181686401367,52.185054779052734,22.155759811401367,-0.9866943359375,0.278076171875,-0.28369140625
5.832,310,840,923,311,-7.0,36.0,49.0,-22.888181686401367,52.185054779052734,22.155759811401367,-0.8372802734375,0.499267578125,-0.1043701171875
5.851,310,782,823,312,-7.0,36.0,49.0,-38.26904296875,31.311033248901367,2.746581792831421,-0.7421875,0.6527099609375,0.102294921875
5.855,311,756,732,311,-7.0,36.0,49.0,-10.925292015075684,27.832029342651367,-25.573728561401367,-0.72216796875,0.5670166015625,0.118896484375
5.880,309,713,671,310,-7.0,36.0,49.0,-10.925292015075684,27.832029342651367,-25.573728561401367,-0.7293701171875,0.3323974609375,-0.005615234375
5.888,296,628,574,308,-7.0,36.0,49.0,21.545408248901367,41.259761810302734,-68.359375,-0.6383056640625,0.090576171875,-0.1610107421875
5.889,309,616,537,311,-7.0,36.0,49.0,25.512693405151367,45.593257904052734,-72.69287109375,-0.521728515625,-0.0028076171875,-0.2825927734375
5.892,309,573,509,310,-7.0,36.0,49.0,25.512693405151367,45.593257904052734,-72.69287109375,-0.4857177734375,0.0706787109375,-0.27734375
5.906,310,530,475,308,-4.0,36.0,50.0,25.451658248901367,29.052732467651367,-68.17626953125,-0.4989013671875,0.1695556640625,-0.1407470703125
5.914,308,509,465,310,-4.0,36.0,50.0,14.343260765075684,12.573241233825684,-67.19970703125,-0.5391845703125,0.2293701171875,0.031494140625
5.924,310,503,463,310,-4.0,36.0,50.0,14.343260765075684,12.573241233825684,-67.19970703125,-0.6090087890625,0.2298583984375,0.1658935546875
5.936,310,481,452,309,-4.0,36.0,50.0,-24.169919967651367,-6.652831554412842,-59.875484466552734,-0.715576171875,0.1619873046875,0.2215576171875
5.944,310,480,452,310,-4.0,36.0,50.0,-26.855466842651367,-2.990722417831421,-53.588863372802734,-0.787353515625,0.0953369140625,0.20751953125
5.952,310,476,452,310,-4.0,36.0,50.0,-15.808104515075684,4.0283203125,-45.227046966552734,-0.7977294921875,0.08251953125,0.1617431640625
5.984,310,479,473,309,-4.0,36.0,50.0,-4.150390625,7.690429210662842,-35.15625,-0.8023681640625,0.107177734375,0.13671875
5.984,310,481,477,310,-4.0,36.0,50.0,1.8310545682907104,6.347655773162842,-23.864744186401367,-0.84033203125,0.12353515625,0.14697265625
5.985,309,485,479,308,-4.0,36.0,50.0,5.920409679412842,2.746581792831421,-12.573241233825684,-0.888916015625,0.1094970703125,0.150390625
6.001,310,488,481,310,-4.0,34.0,45.0,11.230467796325684,0.6713866591453552,-2.685546636581421,-0.9268798828125,0.0953369140625,0.1016845703125
6.004,310,490,483,310,-4.0,34.0,45.0,15.991209983825684,1.3427733182907104,4.8828125,-0.9775390625,0.1077880859375,0.0179443359375
6.013,310,493,488,310,-4.0,34.0,45.0,17.4560546875,2.624511480331421,10.131834983825684,-1.0318603515625,0.1292724609375,-0.041748046875
6.026,310,493,496,310,-4.0,34.0,45.0,15.869139671325684,1.9531248807907104,13.305663108825684,-1.0596923828125,0.1419677734375,-0.055908203125
6.034,310,490,497,310,-4.0,34.0,45.0,12.634276390075684,-0.7324218153953552,15.075682640075684,-1.055908203125,0.15673828125,-0.04052734375
6.042,310,490,502,309,-4.0,34.0,45.0,8.7890625,-3.784179449081421,16.29638671875,-1.0281982421875,0.1827392578125,-0.0218505859375
6.056,308,490,506,310,-4.0,34.0,45.0,4.69970703125,-5.676269054412842,16.9677734375,-0.992919921875,0.2177734375,-0.0211181640625
6.068,310,484,510,309,-4.0,34.0,45.0,0.2441406100988388,-6.103515148162842,16.9677734375,-0.9793701171875,0.2501220703125,-0.0355224609375
6.082,310,481,509,311,-4.0,34.0,45.0,-4.150390625,-6.164550304412842,16.54052734375,-0.985107421875,0.262451171875,-0.0438232421875
6.086,308,481,509,310,-4.0,34.0,45.0,-7.873534679412842,-6.774901866912842,16.11328125,-0.984130859375,0.254150390625,-0.03271484375
6.095,310,478,506,311,-4.0,34.0,45.0,-10.437010765075684,-8.11767578125,16.05224609375,-0.9755859375,0.2412109375,-0.0093994140625
6.102,310,473,504,310,-3.0,36.0,48.0,-12.512206077575684,-9.8876953125,16.6015625,-0.9697265625,0.230712890625,0.015869140625
6.116,310,475,497,310,-3.0,36.0,48.0,-14.099120140075684,-11.779784202575684,17.88330078125,-0.967041015625,0.21533203125,0.033935546875
6.127,310,469,497,310,-3.0,36.0,48.0,-14.221190452575684,-13.061522483825684,20.141599655151367,-0.96337890625,0.1947021484375,0.0380859375
6.132,310,473,502,310,-3.0,36.0,48.0,-13.366698265075684,-13.671874046325684,23.742673873901367,-0.9510498046875,0.1695556640625,0.0303955078125
6.146,310,483,521,310,-3.0,36.0,48.0,-13.427733421325684,-14.038084983825684,29.235837936401367,-0.9140625,0.1246337890625,0.01708984375
6.160,310,493,545,311,-3.0,36.0,48.0,-16.11328125,-14.892577171325684,37.353515625,-0.8319091796875,0.0567626953125,0.0042724609375
6.163,310,512,576,309,-3.0,36.0,48.0,-20.202634811401367,-16.7236328125,48.522945404052734,-0.659912109375,-0.010986328125,-0.0101318359375
6.189,310,588,766,310,-3.0,36.0,48.0,-23.437498092651367,-19.8974609375,61.218257904052734,-0.338623046875,-0.062255859375,-0.0374755859375
6.190,310,642,916,309,-3.0,36.0,48.0,-26.062009811401367,-25.329587936401367,70.49560546875,0.1068115234375,-0.105224609375,-0.0777587890625
6.192,310,689,1039,312,-3.0,36.0,48.0,-28.442380905151367,-35.0341796875,71.533203125,0.451904296875,-0.056640625,-0.107421875
6.206,310,749,1160,312,-4.0,35.0,42.0,-22.155759811401367,-53.283687591552734,65.00244140625,0.5606689453125,0.2822265625,0.0394287109375
6.214,310,794,1243,311,-4.0,35.0,42.0,4.57763671875,-79.7119140625,45.471187591552734,0.4693603515625,0.7308349609375,0.4122314453125
6.226,309,871,1316,312,-4.0,35.0,42.0,48.706050872802734,-97.83934783935547,5.981444835662842,0.0244140625,0.9339599609375,0.736572265625
6.237,310,1013,1430,312,-4.0,35.0,42.0,85.63231658935547,-95.88622283935547,-35.400390625,-0.97021484375,0.95263671875,0.7484130859375
6.245,310,1067,1483,312,-4.0,35.0,42.0,102.84423065185547,-76.5380859375,-49.438472747802734,-2.1871337890625,0.921875,0.27734375
6.261,312,1096,1508,314,-4.0,35.0,42.0,105.10253143310547,-47.729488372802734,-38.57421875,-2.9251708984375,0.6683349609375,-0.3529052734375
6.267,310,1103,1509,312,-4.0,35.0,42.0,73.79150390625,-28.198240280151367,-28.930662155151367,-2.5538330078125,-0.1710205078125,0.173828125
6.277,310,1092,1486,313,-4.0,35.0,42.0,6.103515148162842,-29.785154342651367,-17.27294921875,-2.5538330078125,-0.1710205078125,0.173828125
6.286,311,1082,1478,312,-4.0,35.0,42.0,-51.574703216552734,-36.43798828125,10.864256858825684,-1.8193359375,-0.187744140625,0.511962890625
6.296,310,1029,1422,312,-5.0,33.0,51.0,-55.541988372802734,-21.972654342651367,33.87451171875,-0.727783203125,0.4512939453125,0.1258544921875
6.304,310,1013,1403,313,-5.0,33.0,51.0,-18.5546875,8.9111328125,29.479978561401367,-0.727783203125,0.4512939453125,0.1258544921875
6.313,311,1010,1406,313,-5.0,33.0,51.0,8.544921875,32.04345703125,8.48388671875,-0.821533203125,0.7506103515625,0.12158203125
6.329,312,989,1387,312,-5.0,33.0,51.0,5.676269054412842,40.405269622802734,-12.451170921325684,-1.5296630859375,0.6302490234375,0.4423828125
6.338,310,969,1369,312,-5.0,33.0,51.0,-8.1787109375,37.41455078125,-25.268552780151367,-1.5296630859375,0.6302490234375,0.4423828125
6.342,313,957,1342,313,-5.0,33.0,51.0,-14.038084983825684,31.982419967651367,-23.559568405151367,-1.7239990234375,0.4556884765625,0.375244140625
6.364,310,917,1260,312,-5.0,33.0,51.0,-12.512206077575684,29.785154342651367,-10.864256858825684,-1.2373046875,0.354248046875,0.079345703125
6.365,310,895,1196,312,-5.0,33.0,51.0,-10.986327171325684,29.785154342651367,-0.2441406100988388,-1.2373046875,0.354248046875,0.079345703125
6.390,311,874,1141,312,-5.0,33.0,51.0,-11.535643577575684,32.1044921875,2.807616949081421,-0.9658203125,0.3533935546875,-0.0069580078125
6.391,310,823,1050,311,-5.0,33.0,51.0,-14.770506858825684,35.0341796875,1.3427733182907104,-0.7379150390625,0.4613037109375,0.0325927734375
6.395,309,796,998,313,-7.0,32.0,46.0,-19.287109375,34.97314453125,-4.82177734375,-0.7379150390625,0.4613037109375,0.0325927734375
6.403,310,771,955,312,-7.0,32.0,46.0,-20.690916061401367,32.77587890625,-16.4794921875,-0.7359619140625,0.3966064453125,0.09716796875
6.416,311,739,882,311,-7.0,32.0,46.0,-11.596678733825684,32.16552734375,-37.41455078125,-0.775634765625,0.09619140625,0.1361083984375
6.425,310,717,861,312,-7.0,32.0,46.0,-11.596678733825684,32.16552734375,-37.41455078125,-0.7691650390625,-0.0445556640625,0.0787353515625
6.434,310,703,837,312,-7.0,32.0,46.0,-2.868652105331421,34.3017578125,-40.832515716552734,-0.7691650390625,-0.0445556640625,0.0787353515625
6.451,310,668,799,310,-7.0,32.0,46.0,16.66259765625,32.77587890625,-34.5458984375,-0.7271728515625,-0.018310546875,-0.0230712890625
6.454,310,646,778,311,-7.0,32.0,46.0,16.66259765625,32.77587890625,-34.5458984375,-0.6925048828125,0.0384521484375,-0.0174560546875
6.464,310,636,767,311,-7.0,32.0,46.0,21.911619186401367,25.817869186401367,-30.090330123901367,-0.6925048828125,0.0384521484375,-0.0174560546875
6.481,310,629,741,311,-7.0,32.0,46.0,19.83642578125,15.014647483825684,-27.465818405151367,-0.7109375,0.236083984375,-0.0181884765625
6.484,310,620,726,312,-7.0,32.0,46.0,19.83642578125,15.014647483825684,-27.465818405151367,-0.8133544921875,0.346923828125,-0.0203857421875
6.497,310,607,715,310,-3.0,33.0,48.0,12.573241233825684,12.084959983825684,-24.719236373901367,-0.8133544921875,0.346923828125,-0.0203857421875
6.509,310,601,689,308,-3.0,33.0,48.0,-0.9155272841453552,9.6435546875,-18.310546875,-0.904541015625,0.375,0.04052734375
6.514,310,592,674,310,-3.0,33.0,48.0,-0.9155272841453552,9.6435546875,-18.310546875,-0.903076171875,0.313232421875,0.09619140625
6.522,310,586,662,310,-3.0,33.0,48.0,-6.347655773162842,8.72802734375,-16.78466796875,-0.903076171875,0.313232421875,0.09619140625
6.537,310,575,645,311,-3.0,33.0,48.0,-9.09423828125,7.934569835662842,-16.17431640625,-0.9197998046875,0.1575927734375,0.1285400390625
6.545,311,566,644,312,-3.0,33.0,48.0,-9.09423828125,7.934569835662842,-16.17431640625,-0.952392578125,0.12548828125,0.088623046875
6.553,310,564,644,310,-3.0,33.0,48.0,-5.920409679412842,8.30078125,-14.343260765075684,-0.952392578125,0.12548828125,0.088623046875
6.614,310,553,639,310,-3.0,33.0,48.0,0.1220703050494194,7.751464366912842,-5.676269054412842,-1.00048828125,0.1253662109375,0.0418701171875
6.618,310,551,636,310,-3.0,33.0,48.0,1.7089842557907104,7.019042491912842,-0.7324218153953552,-0.98828125,0.134765625,0.0406494140625
6.618,310,548,634,310,-3.0,33.0,48.0,1.7089842557907104,7.019042491912842,-0.7324218153953552,-0.97119140625,0.1463623046875,0.039794921875
6.618,310,524,628,294,-5.0,36.0,42.0,1.6479490995407104,5.798339366912842,5.676269054412842,-0.958740234375,0.158935546875,0.03662109375
6.619,310,540,622,311,-5.0,36.0,42.0,1.8920897245407104,5.126952648162842,7.324218273162842,-0.9473876953125,0.1781005859375,0.02392578125
6.619,308,540,621,311,-5.0,36.0,42.0,1.8920897245407104,5.126952648162842,7.324218273162842,-0.939697265625,0.2069091796875,0.005126953125
6.626,310,540,618,310,-5.0,36.0,42.0,1.6479490995407104,2.624511480331421,9.27734375,-0.9410400390625,0.241455078125,-0.00732421875
6.639,310,537,618,311,-5.0,36.0,42.0,1.2817381620407104,0.30517578125,9.033203125,-0.9456787109375,0.2672119140625,-0.009765625
6.643,310,538,616,311,-5.0,36.0,42.0,1.2817381620407104,0.30517578125,9.033203125,-0.947998046875,0.26904296875,-0.0059814453125
6.661,310,535,614,309,-5.0,36.0,42.0,0.1831054538488388,-3.906249761581421,7.751464366912842,-0.9521484375,0.254638671875,0.0013427734375
6.677,310,533,614,310,-5.0,36.0,42.0,-1.7700194120407104,-5.493163585662842,8.544921875,-0.9569091796875,0.23583984375,0.0093994140625
6.678,310,533,614,310,-5.0,36.0,42.0,-1.7700194120407104,-5.493163585662842,8.544921875,-0.9552001953125,0.2164306640625,0.0130615234375
6.697,310,535,607,311,-5.0,36.0,42.0,-4.08935546875,-8.7890625,13.854979515075684,-0.946044921875,0.1944580078125,0.01123046875
6.697,310,543,594,310,-5.0,36.0,45.0,-5.737304210662842,-10.986327171325684,18.49365234375,-0.923095703125,0.1507568359375,-0.001708984375
6.702,310,552,576,311,-5.0,36.0,45.0,-5.737304210662842,-10.986327171325684,18.49365234375,-0.865478515625,0.0802001953125,-0.03662109375
6.723,310,588,566,311,-5.0,36.0,45.0,-12.756346702575684,-16.11328125,35.46142578125,-0.742919921875,0.007568359375,-0.068359375
6.725,310,622,599,310,-5.0,36.0,45.0,-18.1884765625,-21.606443405151367,48.400875091552734,-0.50732421875,-0.0462646484375,-0.048095703125
6.733,310,664,648,310,-5.0,36.0,45.0,-20.385740280151367,-31.799314498901367,59.997554779052734,-0.1505126953125,-0.060546875,0.0098876953125
6.746,310,726,859,311,-5.0,36.0,45.0,-15.991209983825684,-44.677730560302734,66.34521484375,0.2314453125,0.03857421875,0.0572509765625
6.755,310,766,1013,312,-5.0,36.0,45.0,-8.97216796875,-57.617183685302734,65.97900390625,0.6099853515625,0.2471923828125,0.1590576171875
6.762,310,822,1125,312,-5.0,36.0,45.0,-5.798339366912842,-68.54248046875,53.100582122802734,0.748291015625,0.5233154296875,0.375732421875
6.777,309,966,1272,310,-5.0,36.0,45.0,-14.465331077575684,-74.3408203125,20.080564498901367,0.0640869140625,0.8204345703125,0.648681640625
6.797,310,1029,1353,312,-5.0,36.0,45.0,-15.258788108825684,-68.42041015625,-24.047849655151367,-1.228271484375,0.859619140625,0.630859375
6.797,310,1078,1422,312,-5.0,34.0,46.0,23.864744186401367,-42.480464935302734,-55.725093841552734,-2.2100830078125,0.5848388671875,0.053466796875
6.807,310,1141,1485,312,-5.0,34.0,46.0,63.293453216552734,-12.084959983825684,-62.255855560302734,-2.5048828125,0.282958984375,-0.5264892578125
6.814,310,1159,1502,312,-5.0,34.0,46.0,51.452632904052734,-5.0048828125,-48.278804779052734,-2.3453369140625,0.1912841796875,-0.423828125
6.829,310,1162,1490,312,-5.0,34.0,46.0,14.282225608825684,-19.47021484375,-28.564451217651367,-2.1923828125,0.376220703125,0.2093505859375
6.836,310,1120,1387,312,-5.0,34.0,46.0,-9.6435546875,-30.090330123901367,-16.9677734375,-2.0260009765625,0.5081787109375,0.71923828125
6.845,310,1092,1321,312,-5.0,34.0,46.0,-13.061522483825684,-11.413573265075684,-16.05224609375,-1.4893798828125,0.313720703125,0.5682373046875
6.852,311,1079,1297,312,-5.0,34.0,46.0,-12.634276390075684,35.58349609375,-20.01953125,-0.9757080078125,0.1414794921875,0.0640869140625
6.866,310,1064,1290,313,-5.0,34.0,46.0,-27.099607467651367,72.08251953125,-22.766111373901367,-1.0784912109375,0.2705078125,-0.090087890625
6.875,311,1047,1271,314,-5.0,34.0,46.0,-40.832515716552734,70.49560546875,-23.559568405151367,-1.6715087890625,0.4683837890625,0.1641845703125
6.882,311,1020,1243,312,-5.0,34.0,46.0,-32.77587890625,43.945308685302734,-19.59228515625,-2.0848388671875,0.5654296875,0.4459228515625
6.902,310,969,1146,312,-3.0,34.0,46.0,-10.437010765075684,20.996091842651367,-9.70458984375,-1.9150390625,0.565185546875,0.4483642578125
6.904,311,928,1050,312,-3.0,34.0,46.0,1.8310545682907104,17.88330078125,-1.9531248807907104,-1.4635009765625,0.4561767578125,0.2052001953125
6.915,310,877,944,312,-3.0,34.0,46.0,-5.187987804412842,30.151365280151367,-1.4038084745407104,-1.139892578125,0.3380126953125,-0.064453125
6.926,309,805,782,308,-3.0,34.0,46.0,-19.8974609375,42.663570404052734,-3.540038824081421,-1.010498046875,0.2962646484375,-0.138916015625
6.935,310,756,685,311,-3.0,34.0,46.0,-29.235837936401367,46.203609466552734,-4.82177734375,-0.9342041015625,0.2518310546875,-0.0294189453125
6.944,310,704,604,312,-3.0,34.0,46.0,-24.414060592651367,46.325679779052734,-7.263183116912842,-0.8193359375,0.1314697265625,0.0731201171875
6.956,309,604,504,311,-3.0,34.0,46.0,-5.249022960662842,49.804683685302734,-13.122557640075684,-0.6204833984375,-0.0677490234375,0.06982421875
6.965,310,562,454,310,-3.0,34.0,46.0,19.71435546875,56.640621185302734,-21.362302780151367,-0.3468017578125,-0.2418212890625,-0.0250244140625
6.978,308,548,427,312,-3.0,34.0,46.0,38.39111328125,62.255855560302734,-27.709959030151367,-0.1453857421875,-0.2440185546875,-0.0950927734375
7.004,310,509,408,310,-3.0,34.0,46.0,37.90283203125,57.128902435302734,-28.991697311401367,-0.1986083984375,-0.103515625,-0.020263671875
7.004,309,499,408,310,-3.0,36.0,46.0,20.324705123901367,39.24560546875,-25.878904342651367,-0.4031982421875,0.03173828125,0.1434326171875
7.005,310,495,423,310,-3.0,36.0,46.0,3.601073980331421,21.240232467651367,-18.85986328125,-0.5382080078125,0.1063232421875,0.1978759765625
7.016,310,497,452,310,-3.0,36.0,46.0,-3.540038824081421,13.488768577575684,-9.033203125,-0.62109375,0.1434326171875,0.092529296875
7.024,310,499,481,310,-3.0,36.0,46.0,-5.859374523162842,13.610838890075684,1.2817381620407104,-0.7314453125,0.2100830078125,-0.0408935546875
7.033,310,499,495,309,-3.0,36.0,46.0,-5.615233898162842,14.648436546325684,11.901854515075684,-0.85107421875,0.33349609375,-0.099365234375
7.047,309,504,523,310,-3.0,36.0,46.0,-5.249022960662842,12.634276390075684,20.690916061401367,-0.914794921875,0.4407958984375,0.0130615234375
7.055,310,504,535,310,-3.0,36.0,46.0,-8.85009765625,9.1552734375,24.414060592651367,-0.914794921875,0.4407958984375,0.0130615234375
7.062,310,508,543,311,-3.0,36.0,46.0,-13.488768577575684,7.690429210662842,23.254392623901367,-0.9080810546875,0.3616943359375,0.0567626953125
7.081,310,509,554,310,-3.0,36.0,46.0,-13.793944358825684,9.09423828125,20.141599655151367,-0.994384765625,0.2620849609375,-0.0260009765625
7.085,310,509,561,310,-3.0,36.0,46.0,-11.962889671325684,10.925292015075684,18.12744140625,-0.994384765625,0.2620849609375,-0.0260009765625
7.107,310,508,564,310,-5.0,37.0,49.0,-12.878417015075684,10.314940452575684,17.27294921875,-1.05322265625,0.2757568359375,-0.0428466796875
7.109,310,507,572,308,-5.0,37.0,49.0,-14.587401390075684,7.690429210662842,15.930174827575684,-1.0618896484375,0.2210693359375,0.0093994140625
7.115,310,506,573,310,-5.0,37.0,49.0,-11.779784202575684,5.187987804412842,13.427733421325684,-1.0618896484375,0.2210693359375,0.0093994140625
7.127,310,503,574,310,-5.0,37.0,49.0,-4.21142578125,3.723144292831421,10.681151390075684,-1.01611328125,0.19189453125,0.0234375
7.136,309,504,577,310,-5.0,37.0,49.0,4.0283203125,2.50244140625,8.72802734375,-0.934814453125,0.218994140625,0.0006103515625
7.148,310,506,579,310,-5.0,37.0,49.0,8.4228515625,1.0986328125,8.056640625,-0.934814453125,0.218994140625,0.0006103515625
7.155,308,506,578,310,-5.0,37.0,49.0,8.7890625,-0.1220703050494194,7.995604991912842,-0.922119140625,0.25048828125,-0.020263671875
7.166,310,509,576,311,-5.0,37.0,49.0,7.202147960662842,-0.9765624403953552,7.995604991912842,-0.942626953125,0.2652587890625,-0.0506591796875
7.182,310,509,574,310,-5.0,37.0,49.0,4.7607421875,-1.8920897245407104,7.812499523162842,-0.9599609375,0.2611083984375,-0.0467529296875
7.182,310,512,574,310,-5.0,37.0,49.0,2.197265625,-3.540038824081421,8.1787109375,-0.9599609375,0.2611083984375,-0.0467529296875
7.196,310,513,575,310,-5.0,37.0,45.0,-0.7934569716453552,-8.4228515625,11.169432640075684,-0.9732666015625,0.229248046875,-0.033935546875
7.205,310,512,574,310,-5.0,37.0,45.0,-0.7934569716453552,-8.4228515625,11.169432640075684,-0.969482421875,0.2041015625,-0.0321044921875
7.214,310,514,574,309,-5.0,37.0,45.0,-2.197265625,-10.620116233825684,13.916014671325684,-0.969482421875,0.2041015625,-0.0321044921875
7.226,310,522,564,310,-5.0,37.0,45.0,-7.263183116912842,-14.526366233825684,24.536130905151367,-0.9146728515625,0.1365966796875,-0.0355224609375
7.239,310,533,561,312,-5.0,37.0,45.0,-7.263183116912842,-14.526366233825684,24.536130905151367,-0.8150634765625,0.0841064453125,-0.03759765625
7.243,309,564,547,311,-5.0,37.0,45.0,-10.620116233825684,-16.7236328125,33.14208984375,-0.8150634765625,0.0841064453125,-0.03759765625
7.262,310,660,583,311,-5.0,37.0,45.0,-19.34814453125,-27.404783248901367,49.438472747802734,-0.233154296875,0.00830078125,-0.0391845703125
7.265,310,713,671,310,-5.0,37.0,45.0,-19.34814453125,-27.404783248901367,49.438472747802734,0.2288818359375,0.1416015625,0.0015869140625
7.272,310,753,805,312,-5.0,37.0,45.0,-20.202634811401367,-36.92626953125,49.499507904052734,0.2288818359375,0.1416015625,0.0015869140625
7.287,310,840,1013,312,-4.0,34.0,42.0,-2.13623046875,-65.61279296875,17.2119140625,0.97607421875,0.529296875,0.557373046875
7.314,311,943,1089,314,-4.0,34.0,42.0,-2.13623046875,-65.61279296875,17.2119140625,0.5328369140625,0.6961669921875,0.7529296875
7.314,311,1038,1170,312,-4.0,34.0,42.0,-11.657713890075684,-71.6552734375,-17.4560546875,0.5328369140625,0.6961669921875,0.7529296875
7.316,310,1143,1292,312,-4.0,34.0,42.0,-3.723144292831421,-51.269527435302734,-81.72606658935547,-2.2955322265625,0.8858642578125,0.0748291015625
7.325,310,1192,1369,313,-4.0,34.0,42.0,91.18651580810547,-26.428220748901367,-84.59471893310547,-3.041748046875,0.808837890625,-0.791259765625
7.333,310,1232,1409,312,-4.0,34.0,42.0,91.18651580810547,-26.428220748901367,-84.59471893310547,-2.7659912109375,0.42431640625,-0.9769287109375
7.353,311,1246,1413,312,-4.0,34.0,42.0,108.03221893310547,-33.02001953125,-88.80614471435547,-2.202880859375,-0.034423828125,-0.392578125
7.365,310,1219,1316,311,-4.0,34.0,42.0,26.000974655151367,-47.241207122802734,-84.96092987060547,-1.9658203125,-0.1981201171875,0.15576171875
7.366,311,1175,1281,312,-4.0,34.0,42.0,26.000974655151367,-47.241207122802734,-84.96092987060547,-1.5980224609375,-0.1778564453125,0.3121337890625
7.377,310,1120,1225,312,-4.0,34.0,42.0,-66.7724609375,-4.21142578125,-50.170894622802734,-1.0556640625,-0.0006103515625,0.2489013671875
7.390,310,1117,1228,312,-4.0,34.0,42.0,-59.692378997802734,25.390623092651367,-36.1328125,-0.916015625,0.2413330078125,0.3720703125
7.392,310,1105,1225,312,-2.0,35.0,50.0,-59.692378997802734,25.390623092651367,-36.1328125,-1.248779296875,0.311279296875,0.732421875
7.411,310,1091,1151,311,-2.0,35.0,50.0,-11.718749046325684,20.446775436401367,-20.01953125,-1.574462890625,0.2464599609375,0.9385986328125
7.417,310,1074,1092,312,-2.0,35.0,50.0,13.244627952575684,16.845703125,-4.45556640625,-1.5426025390625,0.1064453125,0.72216796875
7.423,310,1043,1048,313,-2.0,35.0,50.0,13.244627952575684,16.845703125,-4.45556640625,-1.3304443359375,-0.025634765625,0.1883544921875
7.436,310,994,939,314,-2.0,35.0,50.0,25.512693405151367,41.809078216552734,23.986814498901367,-1.182373046875,-0.0118408203125,-0.2703857421875
7.445,310,963,875,312,-2.0,35.0,50.0,10.986327171325684,47.912593841552734,33.87451171875,-1.1470947265625,0.1219482421875,-0.3538818359375
7.455,310,928,830,312,-2.0,35.0,50.0,10.986327171325684,47.912593841552734,33.87451171875,-1.12451171875,0.24853515625,-0.1319580078125
7.473,310,878,750,311,-2.0,35.0,50.0,-9.8876953125,30.456541061401367,41.992183685302734,-1.0577392578125,0.2955322265625,0.11328125
7.475,309,846,705,311,-2.0,35.0,50.0,-2.929687261581421,29.174802780151367,36.68212890625,-0.9605712890625,0.2730712890625,0.19873046875
7.490,310,809,654,310,-2.0,35.0,50.0,7.690429210662842,36.9873046875,26.306150436401367,-0.850341796875,0.21826171875,0.1229248046875
7.497,309,732,579,310,-5.0,35.0,46.0,15.991209983825684,47.302242279052734,14.709471702575684,-0.7508544921875,0.136962890625,-0.025390625
7.520,310,703,545,311,-5.0,35.0,46.0,20.568845748901367,54.077144622802734,4.150390625,-0.60693359375,0.0472412109375,-0.1497802734375
7.521,310,673,519,311,-5.0,35.0,46.0,21.423337936401367,56.091304779052734,-3.601073980331421,-0.447509765625,0.0076904296875,-0.220458984375
7.527,310,622,502,310,-5.0,35.0,46.0,17.7001953125,53.710933685302734,-6.835937023162842,-0.4395751953125,0.0924072265625,-0.23046875
7.534,310,600,499,310,-5.0,35.0,46.0,7.507323741912842,44.250484466552734,-5.249022960662842,-0.5390625,0.27392578125,-0.13720703125
7.542,310,585,502,310,-5.0,35.0,46.0,-8.056640625,28.991697311401367,-1.8920897245407104,-0.5985107421875,0.3985595703125,0.0118408203125
7.559,310,573,506,310,-5.0,35.0,46.0,-23.071287155151367,16.4794921875,-1.220703125,-0.6688232421875,0.40185546875,0.093505859375
7.565,310,566,507,310,-5.0,35.0,46.0,-30.090330123901367,12.756346702575684,-3.784179449081421,-0.793212890625,0.357177734375,0.0892333984375
7.580,308,558,510,310,-5.0,35.0,46.0,-23.925779342651367,15.136717796325684,-6.225585460662842,-0.8773193359375,0.3465576171875,0.039306640625
7.592,308,551,519,310,-3.0,37.0,41.0,-10.742186546325684,17.9443359375,-7.202147960662842,-0.8916015625,0.3565673828125,-0.0257568359375
7.595,310,548,523,310,-3.0,37.0,41.0,-3.234863042831421,17.08984375,-7.568358898162842,-0.8994140625,0.326904296875,-0.061767578125
7.605,310,543,526,310,-3.0,37.0,41.0,-4.21142578125,12.634276390075684,-7.263183116912842,-0.9346923828125,0.262451171875,-0.05322265625
7.617,310,535,521,310,-3.0,37.0,41.0,-5.798339366912842,7.690429210662842,-6.225585460662842,-0.984130859375,0.205078125,-0.03369140625
7.625,310,524,510,310,-3.0,37.0,41.0,-2.990722417831421,4.8828125,-5.187987804412842,-1.028076171875,0.178955078125,-0.032958984375
7.632,310,518,499,311,-3.0,37.0,41.0,1.5258787870407104,3.845214605331421,-4.7607421875,-1.047119140625,0.17822265625,-0.0396728515625
7.646,309,504,481,310,-3.0,37.0,41.0,3.051757574081421,2.746581792831421,-4.82177734375,-1.0438232421875,0.1817626953125,-0.0369873046875
7.655,309,497,465,310,-3.0,37.0,41.0,1.0986328125,0.9765624403953552,-4.69970703125,-1.03173828125,0.1773681640625,-0.026123046875
7.663,310,488,439,309,-3.0,37.0,41.0,-0.4272460639476776,-0.6713866591453552,-3.967284917831421,-1.0123291015625,0.16455078125,-0.01611328125
7.681,310,481,414,310,-3.0,37.0,41.0,0.6713866591453552,-1.8310545682907104,-2.13623046875,-0.98828125,0.1536865234375,-0.015869140625
7.699,310,469,391,310,-4.0,36.0,45.0,3.417968511581421,-2.685546636581421,0.8544921278953552,-0.973876953125,0.1580810546875,-0.0284423828125
7.700,310,456,387,310,-4.0,36.0,45.0,5.554198741912842,-3.234863042831421,4.2724609375,-0.978759765625,0.174560546875,-0.0418701171875
7.725,310,439,365,309,-4.0,36.0,45.0,6.225585460662842,-3.845214605331421,7.263183116912842,-0.9830322265625,0.1875,-0.03515625
7.725,310,430,357,310,-4.0,36.0,45.0,6.164550304412842,-4.8828125,9.1552734375,-0.971435546875,0.1903076171875,-0.012939453125
7.725,312,402,356,308,-4.0,36.0,45.0,6.042479991912842,-6.469726085662842,10.192870140075684,-0.9476318359375,0.18701171875,0.0001220703125
7.736,310,414,357,308,-4.0,36.0,45.0,4.69970703125,-8.36181640625,11.291502952575684,-0.9185791015625,0.1875,-0.0107421875
7.745,308,419,356,310,-4.0,36.0,45.0,0.7324218153953552,-10.009765625,13.000487327575684,-0.8934326171875,0.1915283203125,-0.03857421875
7.753,310,423,345,310,-4.0,36.0,45.0,-5.310058116912842,-10.986327171325684,15.319823265075684,-0.8724365234375,0.1868896484375,-0.07568359375
7.766,310,437,343,309,-4.0,36.0,45.0,-10.559081077575684,-11.779784202575684,18.61572265625,-0.861083984375,0.18115234375,-0.128173828125
7.775,310,447,352,308,-4.0,36.0,45.0,-14.038084983825684,-14.465331077575684,22.766111373901367,-0.882568359375,0.1875,-0.1748046875
7.786,309,455,342,310,-4.0,36.0,45.0,-17.15087890625,-21.118162155151367,26.855466842651367,-0.9202880859375,0.1971435546875,-0.1776123046875
7.803,308,481,343,307,-5.0,39.0,48.0,-19.4091796875,-30.090330123901367,29.968259811401367,-0.8184814453125,0.2188720703125,-0.123046875
7.820,311,497,343,310,-5.0,39.0,48.0,-20.629880905151367,-37.353515625,31.860349655151367,-0.8184814453125,0.2188720703125,-0.123046875
7.827,309,513,345,309,-5.0,39.0,48.0,-24.414060592651367,-40.588375091552734,32.16552734375,-0.681640625,0.260009765625,-0.1605224609375
7.828,310,566,343,310,-5.0,39.0,48.0,-33.99658203125,-41.931148529052734,30.212400436401367,-0.4222412109375,0.3392333984375,-0.135498046875
7.835,310,612,379,310,-5.0,39.0,48.0,-46.936031341552734,-45.471187591552734,26.062009811401367,-0.4222412109375,0.3392333984375,-0.135498046875
7.843,310,633,513,312,-5.0,39.0,48.0,-55.664058685302734,-52.856441497802734,21.606443405151367,-0.2569580078125,0.3194580078125,-0.002197265625
7.856,308,697,826,311,-5.0,39.0,48.0,-56.213375091552734,-62.805171966552734,19.34814453125,0.470947265625,0.173095703125,0.306640625
7.866,310,742,923,312,-5.0,39.0,48.0,-53.344722747802734,-71.71630859375,20.629880905151367,0.470947265625,0.173095703125,0.306640625
7.873,310,808,996,312,-5.0,39.0,48.0,-52.673336029052734,-73.6083984375,17.7001953125,0.619873046875,0.146484375,0.4803466796875
7.900,310,947,1173,312,-1.0,36.0,45.0,-48.645015716552734,-68.54248046875,-0.30517578125,-1.0386962890625,0.5274658203125,0.908447265625
7.901,311,1037,1279,312,-1.0,36.0,45.0,-23.010251998901367,-58.837886810302734,-24.475095748901367,-1.0386962890625,0.5274658203125,0.908447265625
7.902,310,1116,1365,312,-1.0,36.0,45.0,25.573728561401367,-47.119136810302734,-41.015621185302734,-2.119384765625,0.5831298828125,0.7879638671875
7.917,310,1172,1413,312,-1.0,36.0,45.0,73.8525390625,-40.710445404052734,-53.649898529052734,-2.631591796875,-0.0391845703125,0.0595703125
7.932,311,1191,1413,312,-1.0,36.0,45.0,105.22460174560547,-38.14697265625,-60.607906341552734,-2.631591796875,-0.0391845703125,0.0595703125
7.932,312,1185,1348,296,-1.0,36.0,45.0,108.76464080810547,-34.912109375,-49.255367279052734,-2.37646484375,0.040283203125,-0.1842041015625
7.946,311,1146,1246,311,-1.0,36.0,45.0,52.246089935302734,-16.4794921875,-5.126952648162842,-1.342529296875,0.419677734375,-0.135498046875
7.955,310,1122,1189,312,-1.0,36.0,45.0,52.246089935302734,-16.4794921875,-5.126952648162842,-0.9222412109375,0.3729248046875,-0.1343994140625
7.962,310,1120,1175,312,-1.0,36.0,45.0,30.029294967651367,17.63916015625,-7.690429210662842,-0.9222412109375,0.3729248046875,-0.1343994140625
7.976,310,1112,1148,311,-1.0,36.0,45.0,-4.150390625,41.870113372802734,-30.090330123901367,-1.432861328125,0.4071044921875,0.333251953125
7.984,310,1091,1116,312,-2.0,33.0,49.0,-4.150390625,41.870113372802734,-30.090330123901367,-1.779052734375,0.45068359375,0.512451171875
8.007,313,1074,1071,311,-2.0,33.0,49.0,1.15966796875,19.287109375,-29.724119186401367,-1.779052734375,0.45068359375,0.512451171875
8.007,308,1027,960,312,-2.0,33.0,49.0,22.766111373901367,1.3427733182907104,-16.29638671875,-1.37451171875,0.4503173828125,0.1190185546875
8.016,310,1000,907,309,-2.0,33.0,49.0,22.766111373901367,1.3427733182907104,-16.29638671875,-1.08935546875,0.3359375,-0.094970703125
8.033,310,971,837,312,-2.0,33.0,49.0,14.343260765075684,13.732909202575684,-15.502928733825684,-1.08935546875,0.3359375,-0.094970703125
8.036,310,921,730,310,-2.0,33.0,49.0,-21.728513717651367,29.968259811401367,-16.845703125,-0.9345703125,0.1810302734375,0.0057373046875
8.045,311,883,677,311,-2.0,33.0,49.0,-21.728513717651367,29.968259811401367,-16.845703125,-0.923828125,0.0701904296875,0.1551513671875
8.052,310,853,642,311,-2.0,33.0,49.0,-31.677244186401367,30.090330123901367,-14.770506858825684,-0.923828125,0.0701904296875,0.1551513671875
8.069,310,805,578,310,-2.0,33.0,49.0,-15.319823265075684,34.72900390625,-10.620116233825684,-0.77783203125,-0.0989990234375,0.10205078125
8.075,310,771,538,310,-2.0,33.0,49.0,-15.319823265075684,34.72900390625,-10.620116233825684,-0.6888427734375,-0.0877685546875,-0.0362548828125
8.083,310,742,522,310,-2.0,37.0,48.0,2.746581792831421,38.2080078125,-8.72802734375,-0.6888427734375,-0.0877685546875,-0.0362548828125
8.110,310,714,483,311,-2.0,37.0,48.0,14.953612327575684,33.99658203125,-1.4038084745407104,-0.4493408203125,-0.0372314453125,-0.1148681640625
8.111,309,697,467,309,-2.0,37.0,48.0,8.36181640625,30.029294967651367,4.7607421875,-0.4456787109375,0.0146484375,-0.0892333984375
8.141,297,689,465,309,-2.0,37.0,48.0,8.36181640625,30.029294967651367,4.7607421875,-0.5811767578125,0.12451171875,-0.01611328125
8.141,310,680,481,310,-2.0,37.0,48.0,-15.441893577575684,15.502928733825684,20.01953125,-0.6929931640625,0.247314453125,0.07568359375
8.142,310,674,470,310,-2.0,37.0,48.0,-27.954099655151367,6.469726085662842,24.291990280151367,-0.7554931640625,0.31640625,0.1365966796875
8.143,311,676,508,310,-2.0,37.0,48.0,-27.954099655151367,6.469726085662842,24.291990280151367,-0.8062744140625,0.33203125,0.1680908203125
8.157,309,676,530,310,-2.0,37.0,48.0,-28.564451217651367,0.2441406100988388,21.789548873901367,-0.8599853515625,0.3406982421875,0.16455078125
8.164,310,676,539,311,-2.0,37.0,48.0,-15.563963890075684,2.563476324081421,18.9208984375,-0.9036865234375,0.3486328125,0.1334228515625
8.181,312,676,548,310,-2.0,37.0,48.0,-15.563963890075684,2.563476324081421,18.9208984375,-0.9329833984375,0.3343505859375,0.100830078125
8.188,310,676,561,310,-4.0,36.0,46.0,3.356933355331421,7.812499523162842,14.404295921325684,-0.96044921875,0.3018798828125,0.072265625
8.195,310,674,562,311,-4.0,36.0,46.0,6.835937023162842,9.033203125,13.183592796325684,-0.98388671875,0.2701416015625,0.0423583984375
8.233,312,673,566,310,-4.0,36.0,46.0,6.835937023162842,9.033203125,13.183592796325684,-1.0029296875,0.2593994140625,0.015380859375
8.234,310,664,572,310,-4.0,36.0,46.0,6.896972179412842,7.019042491912842,7.995604991912842,-1.015869140625,0.271484375,0.0009765625
8.235,309,660,574,298,-4.0,36.0,46.0,5.798339366912842,3.540038824081421,3.601073980331421,-1.0147705078125,0.28564453125,-0.0057373046875
8.235,310,658,578,311,-4.0,36.0,46.0,5.798339366912842,3.540038824081421,3.601073980331421,-1.0086669921875,0.2860107421875,-0.0098876953125
8.253,310,650,574,310,-4.0,36.0,46.0,4.8828125,-1.220703125,-4.45556640625,-1.00537109375,0.27490234375,-0.0028076171875
8.255,310,644,572,311,-4.0,36.0,46.0,3.723144292831421,-2.0751953125,-5.981444835662842,-1.001220703125,0.2598876953125,0.0146484375
8.263,310,638,564,310,-4.0,36.0,46.0,2.3193359375,-2.25830078125,-5.920409679412842,-1.0035400390625,0.2430419921875,0.0318603515625
8.278,310,620,545,310,-4.0,36.0,46.0,0.30517578125,-2.01416015625,-5.187987804412842,-1.0125732421875,0.2264404296875,0.0540771484375
8.284,310,613,543,311,-4.0,36.0,51.0,-2.25830078125,-1.220703125,-3.967284917831421,-1.01611328125,0.2119140625,0.0784912109375
8.293,310,599,533,311,-4.0,36.0,51.0,-5.065917491912842,0.54931640625,-2.197265625,-1.01953125,0.200439453125,0.081787109375
8.308,310,579,506,310,-4.0,36.0,51.0,-7.873534679412842,3.295898199081421,0.30517578125,-1.0228271484375,0.19482421875,0.0628662109375
8.340,310,564,483,310,-4.0,36.0,51.0,-10.253905296325684,6.103515148162842,3.234863042831421,-1.0211181640625,0.1873779296875,0.0386962890625
8.341,310,554,453,310,-4.0,36.0,51.0,-12.329100608825684,8.544921875,5.981444835662842,-1.0189208984375,0.168212890625,0.0115966796875
8.341,308,537,437,311,-4.0,36.0,51.0,-14.343260765075684,11.108397483825684,9.3994140625,-1.0142822265625,0.1448974609375,-0.01904296875
8.345,310,525,420,310,-4.0,36.0,51.0,-17.2119140625,13.671874046325684,15.197752952575684,-1.0054931640625,0.124755859375,-0.0467529296875
8.353,310,518,408,309,-4.0,36.0,51.0,-21.301267623901367,16.17431640625,24.108884811401367,-0.983154296875,0.1036376953125,-0.062255859375
8.367,310,522,393,308,-4.0,36.0,51.0,-27.648923873901367,17.76123046875,36.0107421875,-0.9259033203125,0.077880859375,-0.052978515625
8.378,310,531,373,310,-4.0,36.0,51.0,-38.26904296875,16.9677734375,49.133296966552734,-0.824462890625,0.0562744140625,-0.023193359375
8.383,309,545,377,309,-6.0,36.0,43.0,-52.429195404052734,13.061522483825684,59.875484466552734,-0.698974609375,0.065185546875,-0.0064697265625
8.396,309,587,401,309,-6.0,36.0,43.0,-61.462398529052734,6.591796398162842,65.673828125,-0.556884765625,0.1314697265625,-0.0135498046875
8.412,308,620,435,310,-6.0,36.0,43.0,-56.884761810302734,-2.929687261581421,66.58935546875,-0.35791015625,0.2313232421875,-0.0181884765625
8.413,310,634,564,296,-6.0,36.0,43.0,-44.555660247802734,-15.319823265075684,62.194820404052734,-0.0955810546875,0.2894287109375,-0.0172119140625
8.442,310,710,865,310,-6.0,36.0,43.0,-37.59765625,-28.137205123901367,51.025386810302734,0.17822265625,0.31591796875,-0.0577392578125
8.442,310,742,986,312,-6.0,36.0,43.0,-40.588375091552734,-41.503902435302734,35.70556640625,0.45361328125,0.3839111328125,-0.102294921875
8.445,299,802,1071,312,-6.0,36.0,43.0,-48.278804779052734,-59.753414154052734,16.05224609375,0.5562744140625,0.4510498046875,0.0491943359375
8.458,310,910,1225,312,-6.0,36.0,43.0,-43.090816497802734,-81.05467987060547,-13.732909202575684,0.2037353515625,0.5174560546875,0.4761962890625
8.465,310,995,1336,312,-6.0,36.0,43.0,-5.676269054412842,-92.10204315185547,-46.081539154052734,-0.510009765625,0.64501953125,0.85986328125
8.480,310,1087,1407,311,-6.0,36.0,43.0,52.001949310302734,-82.94676971435547,-63.049312591552734,-1.4324951171875,0.85595703125,0.7930908203125
8.489,310,1184,1474,315,-3.0,33.0,47.0,92.59032440185547,-64.27001953125,-64.0869140625,-2.923583984375,0.538818359375,-0.0355224609375
8.496,309,1204,1484,312,-3.0,33.0,47.0,104.49217987060547,-54.748531341552734,-66.162109375,-2.923583984375,0.538818359375,-0.0355224609375
8.505,311,1201,1457,312,-3.0,33.0,47.0,99.42626190185547,-57.189937591552734,-72.8759765625,-2.749267578125,-0.0330810546875,-0.054443359375
8.517,310,1183,1393,311,-3.0,33.0,47.0,69.3359375,-62.011714935302734,-63.842769622802734,-1.5516357421875,-0.3306884765625,0.170166015625
8.541,310,1160,1340,314,-3.0,33.0,47.0,23.986814498901367,-49.926753997802734,-30.273435592651367,-1.5516357421875,-0.3306884765625,0.170166015625
8.541,311,1129,1285,312,-3.0,33.0,47.0,1.0986328125,-4.82177734375,1.7700194120407104,-0.96484375,-0.1871337890625,0.059814453125
8.547,310,1108,1283,312,-3.0,33.0,47.0,-3.173827886581421,45.532222747802734,14.282225608825684,-1.2314453125,0.532470703125,0.414794921875
8.556,310,1101,1246,312,-3.0,33.0,47.0,-7.263183116912842,67.19970703125,14.831542015075684,-1.2314453125,0.532470703125,0.414794921875
8.564,312,1089,1201,312,-3.0,33.0,47.0,-7.995604991912842,59.448238372802734,11.169432640075684,-1.7620849609375,0.826416015625,0.624267578125
8.577,310,1050,1078,312,-5.0,36.0,46.0,0.1831054538488388,40.954586029052734,8.30078125,-1.6358642578125,0.7276611328125,0.2156982421875
8.592,310,1022,1011,311,-5.0,36.0,46.0,12.512206077575684,34.912109375,7.141112804412842,-1.6358642578125,0.7276611328125,0.2156982421875
8.594,310,986,927,312,-5.0,36.0,46.0,9.82666015625,43.273921966552734,4.0283203125,-1.284912109375,0.49755859375,-0.1748046875
8.608,308,922,793,311,-5.0,36.0,46.0,-12.573241233825684,53.100582122802734,-0.1220703050494194,-1.0345458984375,0.2467041015625,-0.2218017578125
8.616,310,878,718,312,-5.0,36.0,46.0,-35.33935546875,55.358882904052734,0.3662109076976776,-1.0345458984375,0.2467041015625,-0.2218017578125
8.624,310,832,648,310,-5.0,36.0,46.0,-41.076656341552734,51.086421966552734,4.69970703125,-0.947021484375,0.2738037109375,-0.0340576171875
8.642,309,754,551,311,-5.0,36.0,46.0,-19.04296875,48.522945404052734,-3.295898199081421,-0.629150390625,0.1126708984375,0.0946044921875
8.646,308,697,497,310,-5.0,36.0,46.0,-19.04296875,48.522945404052734,-3.295898199081421,-0.4044189453125,-0.083984375,-0.0023193359375
8.654,310,654,455,310,-5.0,36.0,46.0,-3.479003667831421,53.588863372802734,-20.874021530151367,-0.4044189453125,-0.083984375,-0.0023193359375
8.667,310,614,424,310,-5.0,36.0,46.0,23.681638717651367,55.480953216552734,-47.668453216552734,-0.3216552734375,-0.031005859375,-0.1259765625
