time,compression0,compression1,compression2,compression3,magn_x,magn_y,magn_z,gyro_x,gyro_y,gyro_z,accel_x,accel_y,accel_z
0.005,308,439,391,310,-12.0,42.0,42.0,4.69970703125,-1.7700194120407104,-2.807616949081421,-0.89404296875,0.345703125,-0.2239990234375
0.012,310,444,391,310,-12.0,42.0,42.0,4.150390625,-2.0751953125,-2.746581792831421,-0.89404296875,0.345703125,-0.2239990234375
0.021,309,447,390,310,-12.0,42.0,42.0,3.356933355331421,-2.44140625,-2.50244140625,-0.8919677734375,0.346435546875,-0.2239990234375
0.039,308,451,387,310,-12.0,42.0,42.0,2.50244140625,-2.807616949081421,-2.197265625,-0.8992919921875,0.3482666015625,-0.2255859375
0.053,308,456,391,310,-12.0,42.0,42.0,1.7089842557907104,-3.234863042831421,-1.9531248807907104,-0.9056396484375,0.344970703125,-0.227294921875
0.053,310,456,391,308,-12.0,42.0,42.0,0.7934569716453552,-3.784179449081421,-1.7089842557907104,-0.9056396484375,0.344970703125,-0.227294921875
0.063,308,463,391,310,-12.0,42.0,42.0,-1.220703125,-5.615233898162842,-0.6103515625,-0.91015625,0.3416748046875,-0.2174072265625
0.071,308,465,391,308,-12.0,41.0,42.0,-1.220703125,-5.615233898162842,-0.6103515625,-0.914306640625,0.34814453125,-0.2064208984375
0.079,309,465,391,310,-12.0,41.0,42.0,-1.7700194120407104,-6.286620616912842,0.30517578125,-0.914306640625,0.34814453125,-0.2064208984375
0.104,309,465,388,310,-12.0,41.0,42.0,-0.3662109076976776,-7.019042491912842,1.2817381620407104,-0.9222412109375,0.378662109375,-0.1915283203125
0.105,309,465,391,310,-12.0,41.0,42.0,-0.3662109076976776,-7.019042491912842,1.2817381620407104,-0.91748046875,0.385498046875,-0.1881103515625
0.109,310,465,391,310,-12.0,41.0,42.0,1.6479490995407104,-7.324218273162842,0.7324218153953552,-0.91748046875,0.385498046875,-0.1881103515625
0.147,309,454,391,308,-12.0,41.0,42.0,4.45556640625,-6.774901866912842,-0.9765624403953552,-0.9078369140625,0.3802490234375,-0.1920166015625
0.148,296,451,391,309,-12.0,41.0,42.0,4.45556640625,-6.774901866912842,-0.9765624403953552,-0.9090576171875,0.3690185546875,-0.1959228515625
0.150,310,447,391,310,-12.0,41.0,42.0,4.45556640625,-5.737304210662842,-1.5258787870407104,-0.9090576171875,0.3690185546875,-0.1959228515625
0.153,310,440,387,311,-12.0,41.0,42.0,3.417968511581421,-4.2724609375,-1.5869139432907104,-0.9171142578125,0.3494873046875,-0.2098388671875
0.161,309,439,386,308,-12.0,41.0,42.0,3.417968511581421,-4.2724609375,-1.5869139432907104,-0.9207763671875,0.34326171875,-0.2127685546875
0.170,308,435,386,309,-12.0,41.0,42.0,2.929687261581421,-4.69970703125,-1.3427733182907104,-0.9207763671875,0.34326171875,-0.2127685546875
0.183,310,426,386,310,-13.0,40.0,40.0,2.807616949081421,-7.385253429412842,-0.4272460639476776,-0.9205322265625,0.34375,-0.2091064453125
0.191,308,420,386,308,-13.0,40.0,40.0,3.662109136581421,-9.33837890625,-0.0610351525247097,-0.9169921875,0.3575439453125,-0.2034912109375
0.211,310,413,386,310,-13.0,40.0,40.0,3.662109136581421,-9.33837890625,-0.0610351525247097,-0.907958984375,0.375,-0.1983642578125
0.213,308,402,384,308,-13.0,40.0,40.0,5.737304210662842,-11.291502952575684,-0.8544921278953552,-0.90087890625,0.3792724609375,-0.1986083984375
0.226,309,400,385,309,-13.0,40.0,40.0,5.187987804412842,-10.620116233825684,-1.7089842557907104,-0.900390625,0.374267578125,-0.204833984375
0.281,310,394,384,310,-13.0,40.0,40.0,5.187987804412842,-10.620116233825684,-1.7089842557907104,-0.901123046875,0.36474609375,-0.203125
0.290,310,390,384,310,-13.0,40.0,40.0,0.6103515625,-9.21630859375,-2.685546636581421,-0.9017333984375,0.34912109375,-0.1971435546875
0.298,308,386,382,310,-13.0,40.0,40.0,-1.4648436307907104,-8.97216796875,-2.746581792831421,-0.904052734375,0.333251953125,-0.2008056640625
0.304,310,387,382,310,-13.0,40.0,40.0,-1.4648436307907104,-8.97216796875,-2.746581792831421,-0.9022216796875,0.318603515625,-0.2034912109375
0.304,308,384,381,310,-10.0,40.0,45.0,-3.845214605331421,-10.070799827575684,-0.8544921278953552,-0.89892578125,0.3074951171875,-0.19921875
0.304,309,380,387,310,-10.0,40.0,45.0,-3.479003667831421,-11.962889671325684,0.6713866591453552,-0.9002685546875,0.3170166015625,-0.1976318359375
0.304,308,384,387,309,-10.0,40.0,45.0,-3.479003667831421,-11.962889671325684,0.6713866591453552,-0.9041748046875,0.34228515625,-0.1944580078125
0.304,308,385,386,310,-10.0,40.0,45.0,-2.746581792831421,-16.11328125,2.563476324081421,-0.906982421875,0.3572998046875,-0.1820068359375
0.320,310,384,385,310,-10.0,40.0,45.0,-3.051757574081421,-16.845703125,2.624511480331421,-0.906005859375,0.3634033203125,-0.1728515625
0.329,309,386,382,311,-10.0,40.0,45.0,-3.051757574081421,-16.845703125,2.624511480331421,-0.903564453125,0.3636474609375,-0.1707763671875
0.333,309,386,379,310,-10.0,40.0,45.0,-4.638671875,-14.831542015075684,2.38037109375,-0.902587890625,0.3538818359375,-0.16943359375
0.352,308,386,379,309,-10.0,40.0,45.0,-6.469726085662842,-13.671874046325684,2.685546636581421,-0.9041748046875,0.338623046875,-0.172119140625
0.352,310,386,380,310,-10.0,40.0,45.0,-8.85009765625,-12.939452171325684,3.845214605331421,-0.9078369140625,0.3243408203125,-0.1767578125
0.363,310,393,373,310,-10.0,40.0,45.0,-11.962889671325684,-12.817381858825684,5.859374523162842,-0.9100341796875,0.3154296875,-0.1788330078125
0.371,308,394,372,310,-13.0,41.0,37.0,-15.624999046325684,-13.061522483825684,8.48388671875,-0.9105224609375,0.314208984375,-0.178466796875
0.379,310,395,377,309,-13.0,41.0,37.0,-20.080564498901367,-13.427733421325684,11.169432640075684,-0.9085693359375,0.327392578125,-0.1685791015625
0.394,309,398,371,310,-13.0,41.0,37.0,-24.719236373901367,-13.488768577575684,13.183592796325684,-0.895751953125,0.3551025390625,-0.1480712890625
0.401,308,402,370,310,-13.0,41.0,37.0,-28.808591842651367,-12.329100608825684,13.732909202575684,-0.8717041015625,0.3839111328125,-0.128173828125
0.409,310,408,372,311,-13.0,41.0,37.0,-32.71484375,-9.33837890625,12.573241233825684,-0.8421630859375,0.3961181640625,-0.1055908203125
0.455,310,431,372,310,-13.0,41.0,37.0,-36.92626953125,-4.82177734375,10.986327171325684,-0.809326171875,0.380615234375,-0.0853271484375
0.455,308,442,371,310,-13.0,41.0,37.0,-41.381832122802734,-0.3662109076976776,10.925292015075684,-0.755615234375,0.3203125,-0.079345703125
0.458,310,473,372,309,-13.0,41.0,37.0,-43.212886810302734,-0.2441406100988388,13.610838890075684,-0.6441650390625,0.1859130859375,-0.080322265625
0.458,309,531,383,309,-13.0,41.0,37.0,-36.92626953125,-9.521484375,18.98193359375,-0.4525146484375,0.0313720703125,-0.0650634765625
0.462,310,594,408,309,-13.0,41.0,37.0,-18.12744140625,-28.015134811401367,25.817869186401367,-0.1575927734375,-0.037353515625,0.0023193359375
0.470,310,660,428,310,-13.0,38.0,43.0,14.343260765075684,-46.142574310302734,29.907224655151367,0.2645263671875,-0.0313720703125,0.1173095703125
0.483,310,780,497,309,-13.0,38.0,43.0,54.931636810302734,-53.955074310302734,25.390623092651367,0.6712646484375,-0.0159912109375,0.158447265625
0.493,310,860,594,310,-13.0,38.0,43.0,88.68407440185547,-56.823726654052734,7.873534679412842,0.607177734375,0.043701171875,0.0389404296875
0.500,310,944,700,310,-13.0,38.0,43.0,99.91454315185547,-68.29833984375,-20.812986373901367,-0.0540771484375,0.38232421875,-0.096435546875
0.514,310,1096,891,310,-13.0,38.0,43.0,80.32225799560547,-75.86669921875,-51.452632904052734,-0.96826171875,0.7008056640625,-0.2540283203125
0.535,310,1162,932,311,-13.0,38.0,43.0,32.40966796875,-61.523433685302734,-67.87109375,-1.8692626953125,0.773681640625,-0.5015869140625
0.544,310,1204,982,310,-13.0,38.0,43.0,-23.559568405151367,-40.344234466552734,-51.330562591552734,-2.5076904296875,0.952880859375,-0.720703125
0.556,310,1231,1035,310,-13.0,38.0,43.0,-70.1904296875,-32.53173828125,-13.793944358825684,-2.6915283203125,0.9898681640625,-0.6065673828125
0.557,309,1204,980,311,-13.0,38.0,43.0,-99.48729705810547,-37.53662109375,11.047362327575684,-2.5706787109375,0.6800537109375,-0.1072998046875
0.560,310,1198,966,310,-13.0,38.0,43.0,-96.06932830810547,-45.654293060302734,16.54052734375,-2.093017578125,0.239013671875,0.5321044921875
0.573,310,1198,982,310,-11.0,38.0,43.0,-52.368160247802734,-45.837398529052734,17.4560546875,-1.27490234375,-0.0386962890625,0.9569091796875
0.582,310,1183,966,310,-11.0,38.0,43.0,16.66259765625,-27.099607467651367,21.667478561401367,-1.029052734375,0.3924560546875,0.666748046875
0.590,310,1153,912,310,-11.0,38.0,43.0,65.5517578125,3.356933355331421,25.512693405151367,-1.586669921875,1.063232421875,-0.1239013671875
0.603,310,1065,840,310,-11.0,38.0,43.0,55.236812591552734,27.893064498901367,26.489255905151367,-2.06494140625,1.0626220703125,-0.6483154296875
0.612,310,1011,795,310,-11.0,38.0,43.0,5.065917491912842,37.9638671875,31.677244186401367,-1.9852294921875,0.580322265625,-0.53466796875
0.620,310,959,728,311,-11.0,38.0,43.0,-35.21728515625,38.4521484375,42.175289154052734,-1.5772705078125,0.1427001953125,-0.13037109375
0.641,309,854,632,310,-11.0,38.0,43.0,-39.48974609375,39.24560546875,53.710933685302734,-1.1820068359375,0.05078125,0.0599365234375
0.663,310,799,582,299,-11.0,38.0,43.0,-18.85986328125,39.4287109375,64.3310546875,-0.862060546875,0.2437744140625,0.0194091796875
0.663,310,728,578,311,-11.0,38.0,43.0,-0.1220703050494194,34.48486328125,67.3828125,-0.607666015625,0.441650390625,-0.0177001953125
0.664,310,631,543,310,-11.0,38.0,43.0,4.5166015625,28.015134811401367,58.166500091552734,-0.271484375,0.4908447265625,-0.02880859375
0.672,310,572,525,311,-15.0,39.0,45.0,3.540038824081421,24.108884811401367,39.85595703125,-0.271484375,0.4908447265625,-0.02880859375
0.680,310,540,512,310,-15.0,39.0,45.0,6.042479991912842,19.71435546875,18.49365234375,-0.172607421875,0.4637451171875,-0.065185546875
0.694,310,502,493,309,-15.0,39.0,45.0,10.192870140075684,12.512206077575684,-0.30517578125,-0.235595703125,0.4522705078125,-0.1016845703125
0.703,310,488,496,310,-15.0,39.0,45.0,12.695311546325684,4.2724609375,-14.526366233825684,-0.235595703125,0.4522705078125,-0.1016845703125
0.710,310,475,496,310,-15.0,39.0,45.0,13.488768577575684,-1.6479490995407104,-24.291990280151367,-0.4169921875,0.43798828125,-0.1502685546875
0.726,309,456,485,311,-15.0,39.0,45.0,12.573241233825684,-4.08935546875,-30.212400436401367,-0.79736328125,0.3681640625,-0.2510986328125
0.768,309,447,483,311,-15.0,39.0,45.0,8.36181640625,-5.371093273162842,-32.71484375,-0.79736328125,0.3681640625,-0.2510986328125
0.769,310,441,477,310,-15.0,39.0,45.0,1.15966796875,-7.385253429412842,-31.555173873901367,-0.911865234375,0.3131103515625,-0.237060546875
0.769,310,433,477,310,-15.0,39.0,45.0,-6.713866710662842,-9.27734375,-27.282712936401367,-0.930908203125,0.259765625,-0.08349609375
0.770,310,426,469,309,-15.0,39.0,45.0,-11.840819358825684,-10.498045921325684,-22.460935592651367,-0.930908203125,0.259765625,-0.08349609375
0.770,309,423,466,308,-14.0,39.0,44.0,-12.878417015075684,-11.413573265075684,-19.22607421875,-0.88525390625,0.2835693359375,0.020263671875
0.779,310,419,465,310,-14.0,39.0,44.0,-9.6435546875,-12.390135765075684,-18.06640625,-0.85302734375,0.3292236328125,0.0765380859375
0.793,308,410,456,310,-14.0,39.0,44.0,-3.967284917831421,-12.695311546325684,-18.06640625,-0.8809814453125,0.421630859375,0.019775390625
0.802,308,402,451,310,-14.0,39.0,44.0,1.0986328125,-11.474608421325684,-17.822265625,-0.8809814453125,0.421630859375,0.019775390625
0.809,309,394,444,310,-14.0,39.0,44.0,2.868652105331421,-8.544921875,-17.27294921875,-0.91015625,0.4293212890625,-0.0291748046875
0.824,310,380,437,310,-14.0,39.0,44.0,1.03759765625,-4.57763671875,-16.6015625,-0.927734375,0.3629150390625,-0.0758056640625
0.831,310,372,435,310,-14.0,39.0,44.0,-2.807616949081421,-0.9155272841453552,-15.197752952575684,-0.927734375,0.3629150390625,-0.0758056640625
0.864,310,367,434,310,-14.0,39.0,44.0,-6.896972179412842,1.3427733182907104,-12.878417015075684,-0.9154052734375,0.34716796875,-0.0867919921875
0.865,308,363,430,310,-14.0,39.0,44.0,-10.070799827575684,2.13623046875,-10.498045921325684,-0.875244140625,0.35595703125,-0.0927734375
0.865,309,359,428,309,-14.0,39.0,44.0,-11.962889671325684,2.3193359375,-8.6669921875,-0.875244140625,0.35595703125,-0.0927734375
0.870,310,371,433,310,-15.0,39.0,42.0,-13.977049827575684,2.990722417831421,-6.896972179412842,-0.839599609375,0.3251953125,-0.0948486328125
0.882,310,414,432,310,-15.0,39.0,42.0,-21.057126998901367,5.126952648162842,3.173827886581421,-0.688232421875,0.145263671875,-0.09716796875
0.891,309,444,437,310,-15.0,39.0,42.0,-21.057126998901367,5.126952648162842,3.173827886581421,-0.5308837890625,0.025146484375,-0.1126708984375
0.899,310,502,440,311,-15.0,39.0,42.0,-23.437498092651367,3.234863042831421,13.977049827575684,-0.5308837890625,0.025146484375,-0.1126708984375
0.913,310,616,467,310,-15.0,39.0,42.0,-15.747069358825684,-16.11328125,39.4287109375,0.35302734375,-0.26513671875,0.0233154296875
0.921,309,697,490,310,-15.0,39.0,42.0,-15.747069358825684,-16.11328125,39.4287109375,0.893310546875,-0.292236328125,0.158203125
0.930,310,782,631,309,-15.0,39.0,42.0,2.13623046875,-28.686521530151367,42.175289154052734,0.893310546875,-0.292236328125,0.158203125
0.944,310,948,827,310,-15.0,39.0,42.0,60.974117279052734,-47.180171966552734,-7.934569835662842,0.5921630859375,0.1619873046875,-0.2059326171875
0.963,311,1043,948,310,-15.0,39.0,42.0,60.974117279052734,-47.180171966552734,-7.934569835662842,-0.468505859375,0.6112060546875,-0.2841796875
0.964,308,1137,1088,310,-15.0,39.0,42.0,43.945308685302734,-58.898921966552734,-47.180171966552734,-0.468505859375,0.6112060546875,-0.2841796875
0.972,310,1243,1201,310,-11.0,37.0,47.0,-77.69775390625,-33.0810546875,-50.292964935302734,-2.5634765625,1.3681640625,-0.3651123046875
0.981,310,1273,1274,310,-11.0,37.0,47.0,-77.69775390625,-33.0810546875,-50.292964935302734,-2.6832275390625,1.1905517578125,-0.1339111328125
1.001,310,1308,1306,312,-11.0,37.0,47.0,-131.04248046875,-18.37158203125,-24.047849655151367,-2.6832275390625,1.1905517578125,-0.1339111328125
1.003,295,1297,1215,311,-11.0,37.0,47.0,-99.54833221435547,-34.11865234375,-7.019042491912842,-2.314697265625,0.2845458984375,1.026123046875
1.011,310,1282,1129,311,-11.0,37.0,47.0,-99.54833221435547,-34.11865234375,-7.019042491912842,-2.013427734375,0.6260986328125,0.682861328125
1.019,310,1292,1148,310,-11.0,37.0,47.0,-5.065917491912842,-32.89794921875,-2.685546636581421,-2.013427734375,0.6260986328125,0.682861328125
1.033,310,1269,1133,310,-11.0,37.0,47.0,93.56688690185547,-0.3662109076976776,-8.60595703125,-1.507568359375,0.924560546875,-0.398193359375
1.045,310,1243,1094,310,-11.0,37.0,47.0,66.162109375,15.197752952575684,-18.61572265625,-2.0257568359375,0.8753662109375,-0.4920654296875
1.049,310,1201,1043,310,-11.0,37.0,47.0,66.162109375,15.197752952575684,-18.61572265625,-2.2342529296875,0.475830078125,-0.27099609375
1.077,310,1116,921,310,-11.0,37.0,47.0,-20.812986373901367,33.50830078125,5.676269054412842,-2.064453125,0.093017578125,-0.0103759765625
1.077,308,1055,830,311,-10.0,37.0,42.0,-19.10400390625,38.330078125,28.869626998901367,-1.7379150390625,-0.0284423828125,0.123046875
1.079,308,969,730,308,-10.0,37.0,42.0,-19.10400390625,38.330078125,28.869626998901367,-1.382080078125,0.146484375,0.076904296875
1.092,309,846,601,310,-10.0,37.0,42.0,30.822751998901367,51.025386810302734,69.4580078125,-0.9757080078125,0.42236328125,0.0189208984375
1.106,310,757,554,311,-10.0,37.0,42.0,31.860349655151367,53.466793060302734,79.40673828125,-0.51611328125,0.54150390625,0.092041015625
1.109,309,662,527,310,-10.0,37.0,42.0,31.860349655151367,53.466793060302734,79.40673828125,-0.1387939453125,0.5048828125,0.1494140625
1.122,311,537,475,310,-10.0,37.0,42.0,8.056640625,51.757808685302734,48.828121185302734,0.1038818359375,0.4656982421875,0.1048583984375
1.131,309,491,447,310,-10.0,37.0,42.0,9.82666015625,47.424312591552734,16.9677734375,0.203857421875,0.49462890625,-0.0009765625
1.139,310,463,434,310,-10.0,37.0,42.0,9.82666015625,47.424312591552734,16.9677734375,0.1346435546875,0.548095703125,-0.11376953125
1.153,310,437,438,309,-10.0,37.0,42.0,15.014647483825684,26.916501998901367,-28.320310592651367,-0.045166015625,0.5355224609375,-0.1910400390625
1.175,306,438,437,309,-10.0,37.0,42.0,14.282225608825684,16.29638671875,-40.283199310302734,-0.296142578125,0.4453125,-0.2806396484375
1.176,310,447,439,297,-14.0,39.0,43.0,14.282225608825684,16.29638671875,-40.283199310302734,-0.56689453125,0.32763671875,-0.345458984375
1.185,310,457,435,310,-14.0,39.0,43.0,9.3994140625,3.112792730331421,-51.635738372802734,-0.7564697265625,0.2122802734375,-0.286376953125
1.192,310,454,436,309,-14.0,39.0,43.0,5.187987804412842,-4.150390625,-49.621578216552734,-0.8558349609375,0.1385498046875,-0.1658935546875
1.199,309,465,437,310,-14.0,39.0,43.0,2.563476324081421,-10.314940452575684,-44.738765716552734,-0.90380859375,0.1241455078125,-0.083984375
1.222,308,467,435,310,-14.0,39.0,43.0,2.25830078125,-13.488768577575684,-38.9404296875,-0.9168701171875,0.1561279296875,-0.04833984375
1.222,310,468,436,310,-14.0,39.0,43.0,3.356933355331421,-13.488768577575684,-33.203125,-0.9188232421875,0.2205810546875,-0.041748046875
1.230,310,475,428,310,-14.0,39.0,43.0,4.45556640625,-11.657713890075684,-27.770994186401367,-0.9378662109375,0.2930908203125,-0.056884765625
1.250,308,477,435,309,-14.0,39.0,43.0,3.906249761581421,-10.009765625,-21.911619186401367,-0.9686279296875,0.3427734375,-0.0706787109375
1.251,310,479,420,308,-14.0,39.0,43.0,1.5258787870407104,-9.765625,-15.258788108825684,-0.9830322265625,0.343505859375,-0.04638671875
1.277,309,476,435,309,-14.0,39.0,43.0,-0.6713866591453552,-9.94873046875,-9.3994140625,-0.96875,0.3006591796875,0.0064697265625
1.278,309,475,438,308,-12.0,39.0,44.0,-0.6713866591453552,-8.60595703125,-5.065917491912842,-0.9439697265625,0.2669677734375,0.0343017578125
1.282,310,465,434,310,-12.0,39.0,44.0,0.9155272841453552,-5.615233898162842,-1.3427733182907104,-0.9366455078125,0.2877197265625,0.01513671875
1.290,310,456,435,308,-12.0,39.0,44.0,1.7089842557907104,-2.563476324081421,2.13623046875,-0.9508056640625,0.343505859375,-0.0322265625
1.303,310,441,431,310,-12.0,39.0,44.0,0.6713866591453552,-0.2441406100988388,4.638671875,-0.964599609375,0.39013671875,-0.0804443359375
1.314,309,437,428,310,-12.0,39.0,44.0,-1.7700194120407104,1.3427733182907104,6.042479991912842,-0.9576416015625,0.401123046875,-0.101806640625
1.321,308,435,428,310,-12.0,39.0,44.0,-5.065917491912842,2.50244140625,7.080077648162842,-0.932373046875,0.368896484375,-0.083740234375
1.334,310,436,419,310,-12.0,39.0,44.0,-8.9111328125,3.845214605331421,8.97216796875,-0.8978271484375,0.3087158203125,-0.0467529296875
1.341,310,449,428,308,-12.0,39.0,44.0,-12.390135765075684,5.371093273162842,13.183592796325684,-0.8514404296875,0.2301025390625,-0.0145263671875
1.354,310,467,426,311,-12.0,39.0,44.0,-14.404295921325684,6.042479991912842,20.568845748901367,-0.78173828125,0.131591796875,-0.00390625
1.382,310,508,433,310,-13.0,37.0,48.0,-13.183592796325684,4.39453125,31.921384811401367,-0.6942138671875,0.0306396484375,-0.035400390625
1.384,309,543,426,310,-13.0,37.0,48.0,-9.521484375,-0.4272460639476776,47.424312591552734,-0.5235595703125,-0.0462646484375,-0.0489501953125
1.384,310,607,433,310,-13.0,37.0,48.0,-6.408690929412842,-6.591796398162842,63.964839935302734,-0.1029052734375,-0.113037109375,0.048095703125
1.393,310,772,465,310,-13.0,37.0,48.0,-0.9765624403953552,-11.291502952575684,71.10595703125,0.52880859375,-0.2005615234375,0.2105712890625
1.401,310,872,535,311,-13.0,37.0,48.0,15.563963890075684,-16.845703125,58.959957122802734,1.0322265625,-0.30908203125,0.240478515625
1.409,310,959,614,310,-13.0,37.0,48.0,46.752925872802734,-29.174802780151367,26.977537155151367,1.01953125,-0.23876953125,-0.034912109375
1.423,309,1131,721,310,-13.0,37.0,48.0,71.71630859375,-51.147457122802734,-15.563963890075684,-0.591552734375,0.976806640625,-0.6544189453125
1.432,310,1213,814,310,-13.0,37.0,48.0,51.513668060302734,-67.44384765625,-48.461910247802734,-0.591552734375,0.976806640625,-0.6544189453125
1.443,310,1275,960,311,-13.0,37.0,48.0,-8.36181640625,-57.800289154052734,-51.147457122802734,-1.793212890625,1.5577392578125,-0.9512939453125
1.455,310,1349,1163,311,-13.0,37.0,48.0,-69.3359375,-37.65869140625,-30.822751998901367,-2.7158203125,1.287841796875,0.033935546875
1.467,310,1377,1214,311,-9.0,36.0,45.0,-131.34765625,-41.381832122802734,-24.414060592651367,-2.7158203125,1.287841796875,0.033935546875
1.473,310,1381,1155,310,-9.0,36.0,45.0,-164.48973083496094,-58.227535247802734,-43.273921966552734,-2.5003662109375,0.27880859375,1.297607421875
1.485,310,1352,985,310,-9.0,36.0,45.0,-110.90087127685547,-55.297847747802734,-52.429195404052734,-1.8349609375,0.4210205078125,0.9454345703125
1.492,310,1352,981,308,-9.0,36.0,45.0,-2.50244140625,-32.89794921875,-36.80419921875,-1.8349609375,0.4210205078125,0.9454345703125
1.499,309,1348,947,310,-9.0,36.0,45.0,85.51024627685547,-6.103515148162842,-23.010251998901367,-1.40185546875,0.6517333984375,0.0458984375
1.513,310,1306,893,309,-9.0,36.0,45.0,113.15917205810547,13.732909202575684,-25.207517623901367,-2.2374267578125,0.8175048828125,-0.7403564453125
1.523,310,1260,844,309,-9.0,36.0,45.0,78.06396484375,23.498533248901367,-28.991697311401367,-2.2374267578125,0.8175048828125,-0.7403564453125
1.530,310,1211,782,310,-9.0,36.0,45.0,18.310546875,26.672361373901367,-20.935056686401367,-2.2064208984375,0.301025390625,-0.3671875
1.544,310,1118,656,310,-9.0,36.0,45.0,-19.10400390625,28.259275436401367,-0.0610351525247097,-1.464111328125,-0.1680908203125,0.2744140625
1.581,310,1038,594,310,-9.0,36.0,45.0,-15.258788108825684,33.3251953125,27.221677780151367,-1.464111328125,-0.1680908203125,0.2744140625
1.581,308,963,552,310,-9.0,36.0,45.0,13.000487327575684,41.625972747802734,53.588863372802734,-1.1248779296875,0.08935546875,0.2562255859375
1.591,309,816,488,307,-10.0,38.0,42.0,23.986814498901367,61.401363372802734,87.40233612060547,-0.5673828125,0.5516357421875,0.071533203125
1.593,296,702,444,310,-10.0,38.0,42.0,23.986814498901367,61.401363372802734,87.40233612060547,-0.263671875,0.5166015625,0.109619140625
1.594,311,636,454,310,-10.0,38.0,42.0,-1.0986328125,70.4345703125,86.30370330810547,-0.263671875,0.5166015625,0.109619140625
1.604,310,553,439,310,-10.0,38.0,42.0,-8.72802734375,66.10107421875,36.56005859375,0.2490234375,0.5401611328125,-0.003173828125
1.612,308,523,438,310,-10.0,38.0,42.0,-8.72802734375,66.10107421875,36.56005859375,0.2066650390625,0.5335693359375,-0.167724609375
1.621,308,504,439,310,-10.0,38.0,42.0,9.521484375,44.128414154052734,-2.0751953125,0.2066650390625,0.5335693359375,-0.167724609375
1.634,309,496,439,310,-10.0,38.0,42.0,33.99658203125,4.21142578125,-47.485347747802734,-0.3253173828125,0.4453125,-0.389892578125
1.642,310,503,432,308,-10.0,38.0,42.0,33.99658203125,4.21142578125,-47.485347747802734,-0.6402587890625,0.465576171875,-0.4290771484375
1.650,310,497,428,309,-10.0,38.0,42.0,34.60693359375,-2.807616949081421,-51.086421966552734,-0.6402587890625,0.465576171875,-0.4290771484375
1.684,310,506,433,310,-13.0,39.0,45.0,8.7890625,-11.413573265075684,-52.917476654052734,-0.9327392578125,0.3284912109375,-0.1973876953125
1.684,310,503,425,310,-13.0,39.0,45.0,8.7890625,-11.413573265075684,-52.917476654052734,-0.9349365234375,0.1893310546875,-0.0599365234375
1.689,309,487,425,294,-13.0,39.0,45.0,-7.812499523162842,-14.221190452575684,-51.086421966552734,-0.9349365234375,0.1893310546875,-0.0599365234375
1.698,308,508,430,310,-13.0,39.0,45.0,-8.7890625,-10.620116233825684,-39.9169921875,-0.93603515625,0.0836181640625,-0.0069580078125
1.702,310,513,426,310,-13.0,39.0,45.0,-8.7890625,-10.620116233825684,-39.9169921875,-0.953857421875,0.1370849609375,-0.0335693359375
1.710,308,512,433,308,-13.0,39.0,45.0,1.220703125,-10.070799827575684,-33.38623046875,-0.953857421875,0.1370849609375,-0.0335693359375
1.724,309,506,434,310,-13.0,39.0,45.0,8.7890625,-14.709471702575684,-18.49365234375,-0.9500732421875,0.283203125,-0.01416015625
1.732,310,507,437,310,-13.0,39.0,45.0,7.385253429412842,-13.610838890075684,-11.413573265075684,-0.936279296875,0.328369140625,0.010009765625
1.740,310,504,437,310,-13.0,39.0,45.0,7.385253429412842,-13.610838890075684,-11.413573265075684,-0.9212646484375,0.3197021484375,0.024169921875
1.753,310,502,437,310,-13.0,39.0,45.0,0.0,-4.94384765625,-1.7700194120407104,-0.9234619140625,0.28515625,0.0201416015625
1.762,310,501,437,310,-12.0,38.0,42.0,-4.0283203125,-1.15966796875,2.50244140625,-0.944091796875,0.2808837890625,-0.009765625
1.794,308,495,438,311,-12.0,38.0,42.0,-4.0283203125,-1.15966796875,2.50244140625,-0.9603271484375,0.309326171875,-0.0562744140625
1.794,310,496,437,309,-12.0,38.0,42.0,-7.751464366912842,3.601073980331421,10.192870140075684,-0.9534912109375,0.3306884765625,-0.1016845703125
1.795,310,497,434,309,-12.0,38.0,42.0,-9.09423828125,4.21142578125,12.878417015075684,-0.9122314453125,0.3221435546875,-0.12451171875
1.805,311,518,436,310,-12.0,38.0,42.0,-11.047362327575684,3.479003667831421,15.930174827575684,-0.84130859375,0.280029296875,-0.11962890625
1.809,310,530,436,310,-12.0,38.0,42.0,-11.047362327575684,3.479003667831421,15.930174827575684,-0.771240234375,0.224853515625,-0.105224609375
1.823,310,558,433,310,-12.0,38.0,42.0,-16.357421875,-0.2441406100988388,27.832029342651367,-0.669189453125,0.1739501953125,-0.072998046875
1.831,310,587,430,308,-12.0,38.0,42.0,-18.1884765625,-2.746581792831421,36.43798828125,-0.4735107421875,0.10498046875,-0.0267333984375
1.839,310,643,430,310,-12.0,38.0,42.0,-18.1884765625,-2.746581792831421,36.43798828125,-0.1715087890625,0.0010986328125,0.01171875
1.852,309,751,456,310,-12.0,38.0,42.0,-9.82666015625,-9.21630859375,50.231929779052734,0.2080078125,-0.0916748046875,0.0072021484375
1.866,310,845,494,310,-11.0,39.0,44.0,-0.9155272841453552,-11.901854515075684,48.339839935302734,0.4716796875,-0.08349609375,-0.07373046875
1.869,310,932,541,311,-11.0,39.0,44.0,-0.9155272841453552,-11.901854515075684,48.339839935302734,0.4549560546875,0.0601806640625,-0.14453125
1.896,309,1071,688,310,-11.0,39.0,44.0,5.615233898162842,-42.297359466552734,4.94384765625,0.1280517578125,0.2401123046875,-0.114013671875
1.902,310,1157,770,309,-11.0,39.0,44.0,-1.7089842557907104,-66.22314453125,-29.052732467651367,-0.4732666015625,0.310791015625,-0.013671875
1.902,311,1225,858,310,-11.0,39.0,44.0,-1.7089842557907104,-66.22314453125,-29.052732467651367,-1.18896484375,0.5401611328125,-0.0250244140625
1.913,310,1306,1010,310,-11.0,39.0,44.0,-22.949216842651367,-57.006832122802734,-37.9638671875,-1.8265380859375,1.0584716796875,-0.280029296875
1.921,310,1344,1078,310,-11.0,39.0,44.0,-47.119136810302734,-40.283199310302734,-19.47021484375,-2.18115234375,1.3150634765625,-0.3839111328125
1.929,310,1374,1134,310,-11.0,39.0,44.0,-47.119136810302734,-40.283199310302734,-19.47021484375,-2.2255859375,1.0438232421875,0.09326171875
1.943,310,1393,1143,311,-11.0,39.0,44.0,-68.84765625,-42.419429779052734,-21.728513717651367,-2.21337890625,0.7857666015625,0.6385498046875
1.951,310,1365,1029,312,-11.0,39.0,44.0,-31.860349655151367,-40.710445404052734,-31.372068405151367,-2.13916015625,0.7830810546875,0.707275390625
1.959,310,1369,1035,312,-10.0,38.0,47.0,11.962889671325684,-29.907224655151367,-34.11865234375,-1.634033203125,0.6380615234375,0.4532470703125
1.991,310,1361,1043,310,-10.0,38.0,47.0,44.189449310302734,-14.587401390075684,-36.68212890625,-1.235107421875,0.56982421875,0.041259765625
1.991,311,1344,1013,310,-10.0,38.0,47.0,54.138179779052734,0.6103515625,-41.198726654052734,-1.5750732421875,0.736572265625,-0.3248291015625
1.995,309,1311,981,312,-10.0,38.0,47.0,32.28759765625,11.047362327575684,-39.48974609375,-2.0633544921875,0.6336669921875,-0.391845703125
2.007,310,1239,875,310,-10.0,38.0,47.0,-0.6103515625,14.587401390075684,-28.381345748901367,-2.146240234375,0.190185546875,-0.1309814453125
2.018,310,1196,818,310,-10.0,38.0,47.0,-14.587401390075684,14.831542015075684,-9.521484375,-1.910400390625,-0.1778564453125,0.19091796875
2.019,309,1134,741,298,-10.0,38.0,47.0,-2.0751953125,20.874021530151367,15.991209983825684,-1.599853515625,-0.1636962890625,0.3023681640625
2.033,310,1003,601,310,-10.0,38.0,47.0,22.216794967651367,32.958984375,43.579097747802734,-1.319580078125,0.132080078125,0.1954345703125
2.042,310,913,561,310,-10.0,38.0,47.0,35.2783203125,44.921871185302734,66.10107421875,-1.0274658203125,0.396728515625,0.053466796875
2.049,310,832,518,309,-10.0,38.0,47.0,25.451658248901367,52.551265716552734,78.9794921875,-0.6854248046875,0.475830078125,0.016845703125
2.070,308,693,473,310,-12.0,38.0,45.0,4.08935546875,56.152339935302734,78.06396484375,-0.3558349609375,0.3865966796875,0.0380859375
2.071,310,614,465,310,-12.0,38.0,45.0,-7.812499523162842,56.701656341552734,62.866207122802734,-0.0889892578125,0.3089599609375,0.05126953125
2.093,309,562,465,310,-12.0,38.0,45.0,-3.173827886581421,52.551265716552734,40.161128997802734,0.0941162109375,0.414794921875,0.0203857421875
2.094,309,499,454,310,-12.0,38.0,45.0,7.629394054412842,43.334957122802734,14.587401390075684,0.1202392578125,0.5859375,-0.0478515625
2.101,310,477,452,310,-12.0,38.0,45.0,12.451170921325684,30.639646530151367,-10.925292015075684,-0.00146484375,0.607421875,-0.1004638671875
2.109,310,468,447,310,-12.0,38.0,45.0,11.901854515075684,18.85986328125,-30.883787155151367,-0.2213134765625,0.499267578125,-0.1826171875
2.122,309,456,434,310,-12.0,38.0,45.0,13.366698265075684,10.986327171325684,-42.175289154052734,-0.505126953125,0.4151611328125,-0.3101806640625
2.132,310,465,424,309,-12.0,38.0,45.0,15.197752952575684,4.0283203125,-46.630855560302734,-0.7457275390625,0.3770751953125,-0.347412109375
2.139,310,465,420,310,-12.0,38.0,45.0,10.986327171325684,-3.967284917831421,-47.180171966552734,-0.8790283203125,0.3212890625,-0.251220703125
2.161,309,465,423,309,-12.0,38.0,45.0,2.44140625,-9.94873046875,-45.715328216552734,-0.930419921875,0.2314453125,-0.12548828125
2.161,308,456,423,308,-11.0,36.0,39.0,-4.0283203125,-11.413573265075684,-42.602535247802734,-0.9432373046875,0.13623046875,-0.042236328125
2.171,310,456,426,310,-11.0,36.0,39.0,-5.737304210662842,-10.070799827575684,-36.9873046875,-0.9473876953125,0.0872802734375,0.00439453125
2.200,308,451,424,310,-11.0,36.0,39.0,-3.601073980331421,-8.85009765625,-28.625486373901367,-0.9560546875,0.1165771484375,0.0286865234375
2.200,310,444,428,308,-11.0,36.0,39.0,-1.03759765625,-8.6669921875,-18.85986328125,-0.959716796875,0.193115234375,0.0352783203125
2.201,309,442,430,310,-11.0,36.0,39.0,-0.9765624403953552,-8.544921875,-9.94873046875,-0.9500732421875,0.2615966796875,0.0303955078125
2.212,310,441,434,310,-11.0,36.0,39.0,-2.44140625,-7.507323741912842,-3.112792730331421,-0.938232421875,0.300537109375,0.021240234375
2.221,310,438,433,310,-11.0,36.0,39.0,-2.746581792831421,-5.554198741912842,1.5258787870407104,-0.9364013671875,0.316650390625,0.002197265625
2.237,308,437,430,310,-11.0,36.0,39.0,-1.7700194120407104,-3.051757574081421,4.21142578125,-0.9384765625,0.3277587890625,-0.0272216796875
2.245,310,438,428,310,-11.0,36.0,39.0,-1.5258787870407104,-0.9155272841453552,5.981444835662842,-0.9281005859375,0.3349609375,-0.0498046875
2.251,308,439,432,312,-11.0,36.0,39.0,-3.601073980331421,0.54931640625,7.751464366912842,-0.90283203125,0.3240966796875,-0.0638427734375
2.260,310,447,433,309,-13.0,36.0,44.0,-7.141112804412842,1.2817381620407104,10.253905296325684,-0.8731689453125,0.2999267578125,-0.07470703125
2.274,310,476,433,309,-13.0,36.0,44.0,-10.375975608825684,1.5258787870407104,14.099120140075684,-0.834716796875,0.2281494140625,-0.0911865234375
2.294,308,495,434,309,-13.0,36.0,44.0,-13.488768577575684,1.0986328125,19.59228515625,-0.834716796875,0.2281494140625,-0.0911865234375
2.297,309,518,439,310,-13.0,36.0,44.0,-15.991209983825684,-0.7324218153953552,27.282712936401367,-0.7686767578125,0.169677734375,-0.1021728515625
2.303,310,567,452,309,-13.0,36.0,44.0,-17.333984375,-3.906249761581421,36.7431640625,-0.29638671875,0.0189208984375,-0.0469970703125
2.311,310,629,452,308,-13.0,36.0,44.0,-17.08984375,-8.4228515625,45.654293060302734,-0.29638671875,0.0189208984375,-0.0469970703125
2.319,310,705,481,309,-13.0,36.0,44.0,-14.404295921325684,-13.183592796325684,50.720211029052734,0.0955810546875,-0.0885009765625,0.029296875
2.338,310,865,541,310,-13.0,36.0,44.0,-6.225585460662842,-14.648436546325684,48.950191497802734,0.6246337890625,-0.0870361328125,-0.031005859375
2.342,310,958,617,310,-13.0,36.0,44.0,7.446288585662842,-16.9677734375,37.7197265625,0.6246337890625,-0.0870361328125,-0.031005859375
2.350,310,1039,726,310,-13.0,36.0,44.0,15.991209983825684,-33.75244140625,14.648436546325684,0.4677734375,0.160888671875,-0.06787109375
2.362,310,1198,888,310,-10.0,36.0,48.0,11.840819358825684,-62.561031341552734,-17.4560546875,-0.8543701171875,0.6805419921875,-0.028076171875
2.377,313,1260,1000,311,-10.0,36.0,48.0,1.2817381620407104,-76.66015625,-42.602535247802734,-0.8543701171875,0.6805419921875,-0.028076171875
2.379,309,1319,1078,310,-10.0,36.0,48.0,-11.413573265075684,-64.02587890625,-44.067378997802734,-1.69140625,1.2176513671875,-0.30126953125
2.405,310,1379,1214,310,-10.0,36.0,48.0,-35.0341796875,-46.264644622802734,-32.8369140625,-2.3074951171875,1.02490234375,0.201416015625
2.405,310,1400,1211,310,-10.0,36.0,48.0,-66.40625,-44.555660247802734,-32.28759765625,-2.20751953125,0.595458984375,0.8165283203125
2.409,310,1411,1250,310,-10.0,36.0,48.0,-70.3125,-51.513668060302734,-42.236324310302734,-2.20751953125,0.595458984375,0.8165283203125
2.423,310,1391,1155,310,-10.0,36.0,48.0,14.282225608825684,-34.66796875,-43.090816497802734,-2.0140380859375,0.6099853515625,0.35888671875
2.431,310,1387,1162,311,-10.0,36.0,48.0,14.282225608825684,-34.66796875,-43.090816497802734,-1.527587890625,0.456298828125,-0.0784912109375
2.444,310,1377,1157,312,-10.0,36.0,48.0,44.921871185302734,-13.122557640075684,-41.809078216552734,-1.527587890625,0.456298828125,-0.0784912109375
2.457,310,1353,1109,311,-10.0,36.0,48.0,31.127927780151367,10.681151390075684,-38.330078125,-1.797119140625,0.6337890625,-0.2681884765625
2.461,310,1323,1051,311,-10.0,33.0,45.0,31.127927780151367,10.681151390075684,-38.330078125,-2.03564453125,0.3956298828125,-0.003173828125
2.469,310,1292,992,310,-10.0,33.0,45.0,-0.6713866591453552,14.160155296325684,-29.479978561401367,-2.03564453125,0.3956298828125,-0.003173828125
2.482,310,1215,859,309,-10.0,33.0,45.0,-10.314940452575684,23.010251998901367,2.3193359375,-1.771484375,-0.118896484375,0.3212890625
2.502,308,1160,780,310,-10.0,33.0,45.0,-10.314940452575684,23.010251998901367,2.3193359375,-1.5703125,-0.0177001953125,0.192138671875
2.509,310,1070,659,310,-10.0,33.0,45.0,14.099120140075684,34.423828125,25.024412155151367,-1.5703125,-0.0177001953125,0.192138671875
2.515,310,943,551,310,-10.0,33.0,45.0,38.26904296875,57.739253997802734,67.68798828125,-1.001953125,0.442626953125,-0.0181884765625
2.521,310,859,525,311,-10.0,33.0,45.0,38.26904296875,57.739253997802734,67.68798828125,-0.564208984375,0.428466796875,0.01318359375
2.529,310,785,506,309,-10.0,33.0,45.0,22.094724655151367,64.3310546875,80.26123046875,-0.564208984375,0.428466796875,0.01318359375
2.553,310,646,473,310,-10.0,33.0,45.0,-12.878417015075684,65.24658203125,65.73486328125,0.07470703125,0.16845703125,0.095947265625
2.554,310,590,465,310,-10.0,33.0,45.0,-6.469726085662842,60.302730560302734,46.997066497802734,0.1724853515625,0.3438720703125,0.050537109375
2.559,310,546,465,310,-11.0,37.0,43.0,-6.469726085662842,60.302730560302734,46.997066497802734,0.063720703125,0.6328125,-0.0447998046875
2.573,310,496,454,308,-11.0,37.0,43.0,15.014647483825684,33.0810546875,-3.417968511581421,-0.180908203125,0.7623291015625,-0.125732421875
2.581,310,479,454,308,-11.0,37.0,43.0,12.451170921325684,20.263669967651367,-30.456541061401367,-0.4326171875,0.644287109375,-0.2056884765625
2.595,311,469,447,308,-11.0,37.0,43.0,12.451170921325684,20.263669967651367,-30.456541061401367,-0.640869140625,0.44140625,-0.287109375
2.602,310,463,444,309,-11.0,37.0,43.0,8.11767578125,10.864256858825684,-51.452632904052734,-0.7701416015625,0.299560546875,-0.2955322265625
2.611,310,456,423,308,-11.0,37.0,43.0,9.46044921875,3.906249761581421,-48.400875091552734,-0.8297119140625,0.215087890625,-0.208740234375
2.618,309,456,427,310,-11.0,37.0,43.0,9.46044921875,3.906249761581421,-48.400875091552734,-0.8555908203125,0.1551513671875,-0.090576171875
2.632,310,455,426,310,-11.0,37.0,43.0,6.347655773162842,-9.6435546875,-39.97802734375,-0.8775634765625,0.11962890625,-0.009033203125
2.641,308,452,423,310,-11.0,37.0,43.0,5.493163585662842,-10.559081077575684,-34.66796875,-0.912109375,0.1337890625,0.00927734375
2.649,309,452,426,310,-11.0,37.0,43.0,5.493163585662842,-10.559081077575684,-34.66796875,-0.9495849609375,0.188720703125,-0.011962890625
2.663,309,450,428,310,-10.0,37.0,45.0,2.990722417831421,-6.958007335662842,-17.51708984375,-0.965087890625,0.24072265625,-0.02685546875
2.671,309,440,428,310,-10.0,37.0,45.0,-1.7089842557907104,-5.249022960662842,-9.21630859375,-0.9598388671875,0.2564697265625,-0.023681640625
2.698,310,441,427,310,-10.0,37.0,45.0,-1.7089842557907104,-5.249022960662842,-9.21630859375,-0.9534912109375,0.244873046875,-0.0137939453125
2.712,310,439,430,310,-10.0,37.0,45.0,-6.469726085662842,-2.746581792831421,1.4648436307907104,-0.95166015625,0.2498779296875,-0.0089111328125
2.712,308,439,435,309,-10.0,37.0,45.0,-5.249022960662842,-1.5869139432907104,5.432128429412842,-0.946533203125,0.285400390625,-0.018310546875
2.713,310,440,433,311,-10.0,37.0,45.0,-4.57763671875,-0.1831054538488388,8.60595703125,-0.92578125,0.31787109375,-0.0361328125
2.723,309,452,438,310,-10.0,37.0,45.0,-5.676269054412842,1.3427733182907104,11.169432640075684,-0.880615234375,0.310791015625,-0.055419921875
2.731,310,473,442,311,-10.0,37.0,45.0,-8.11767578125,2.44140625,14.160155296325684,-0.823486328125,0.267578125,-0.0743408203125
2.739,309,488,447,312,-10.0,37.0,45.0,-11.169432640075684,2.50244140625,18.85986328125,-0.7608642578125,0.2232666015625,-0.0841064453125
2.753,310,523,456,310,-11.0,37.0,46.0,-15.258788108825684,1.5869139432907104,24.597166061401367,-0.6304931640625,0.16015625,-0.0732421875
2.762,310,562,485,310,-11.0,37.0,46.0,-17.9443359375,-1.03759765625,29.296873092651367,-0.3660888671875,0.046630859375,-0.053955078125
2.769,310,616,509,309,-11.0,37.0,46.0,-15.197752952575684,-6.591796398162842,31.311033248901367,-0.01953125,-0.078857421875,-0.0745849609375
2.786,310,772,562,309,-11.0,37.0,46.0,-8.11767578125,-13.610838890075684,29.968259811401367,0.2950439453125,-0.1629638671875,-0.151611328125
2.803,310,871,621,310,-11.0,37.0,46.0,1.0986328125,-20.446775436401367,26.184080123901367,0.45166015625,-0.107421875,-0.2393798828125
2.803,308,951,721,310,-11.0,37.0,46.0,7.385253429412842,-31.799314498901367,18.1884765625,0.33935546875,0.167724609375,-0.2486572265625
2.813,309,1091,917,309,-11.0,37.0,46.0,0.0,-52.062984466552734,1.4648436307907104,-0.091064453125,0.4659423828125,-0.1162109375
2.821,310,1183,1008,310,-11.0,37.0,46.0,-18.4326171875,-72.1435546875,-21.789548873901367,-0.678955078125,0.6240234375,0.1500244140625
2.829,310,1254,1094,311,-11.0,37.0,46.0,-31.738279342651367,-75.01220703125,-39.12353515625,-1.25634765625,0.8292236328125,0.3172607421875
2.844,310,1344,1198,310,-11.0,37.0,46.0,-38.51318359375,-60.363765716552734,-42.541500091552734,-1.765625,1.0189208984375,0.160400390625
2.851,310,1379,1246,310,-9.0,34.0,44.0,-41.259761810302734,-45.654293060302734,-38.26904296875,-2.0615234375,0.966796875,0.0516357421875
2.859,310,1398,1282,312,-9.0,34.0,44.0,-34.60693359375,-43.334957122802734,-34.48486328125,-2.1103515625,0.7420654296875,0.34521484375
2.873,310,1411,1234,310,-9.0,34.0,44.0,-15.197752952575684,-44.128414154052734,-34.97314453125,-2.1624755859375,0.6143798828125,0.5595703125
2.881,310,1381,1138,310,-9.0,34.0,44.0,10.009765625,-34.36279296875,-36.2548828125,-2.2232666015625,0.6395263671875,0.4061279296875
2.889,310,1380,1129,311,-9.0,34.0,44.0,26.855466842651367,-16.66259765625,-33.3251953125,-1.81298828125,0.4583740234375,0.1668701171875
2.911,310,1369,1098,310,-9.0,34.0,44.0,34.24072265625,2.990722417831421,-29.357908248901367,-1.2811279296875,0.2462158203125,-0.013916015625
2.911,310,1353,1051,310,-9.0,34.0,44.0,32.71484375,19.22607421875,-25.207517623901367,-1.4183349609375,0.3917236328125,-0.107421875
2.919,310,1335,1017,310,-9.0,34.0,44.0,16.05224609375,29.602048873901367,-17.39501953125,-1.9041748046875,0.53662109375,-0.1129150390625
2.933,310,1264,912,310,-9.0,34.0,44.0,-5.798339366912842,35.5224609375,-5.615233898162842,-2.106201171875,0.3828125,-0.005126953125
2.941,310,1209,827,311,-9.0,34.0,44.0,-15.747069358825684,39.48974609375,8.30078125,-1.9755859375,0.11865234375,0.12158203125
2.949,310,1155,749,310,-9.0,34.0,44.0,-8.056640625,46.142574310302734,25.024412155151367,-1.7425537109375,-0.02978515625,0.1634521484375
2.963,310,1025,603,308,-8.0,36.0,47.0,11.169432640075684,55.725093841552734,46.020503997802734,-1.5557861328125,0.05517578125,0.15185546875
2.977,310,942,551,310,-8.0,36.0,47.0,26.672361373901367,67.138671875,70.3125,-1.33984375,0.318359375,0.10546875
2.979,309,846,516,310,-8.0,36.0,47.0,24.780271530151367,78.9794921875,92.40721893310547,-0.9552001953125,0.490478515625,0.0743408203125
2.994,310,688,473,308,-8.0,36.0,47.0,7.507323741912842,85.57128143310547,101.56249237060547,-0.446044921875,0.383544921875,0.096923828125
3.021,308,601,442,309,-8.0,36.0,47.0,-4.39453125,83.74022674560547,92.65135955810547,0.0406494140625,0.1688232421875,0.116943359375
3.022,310,545,441,310,-8.0,36.0,47.0,1.8920897245407104,74.21875,72.3876953125,0.363525390625,0.1741943359375,0.0677490234375
3.023,296,503,451,310,-8.0,36.0,47.0,16.845703125,58.410640716552734,47.424312591552734,0.2745361328125,0.708740234375,-0.140625
3.031,309,509,452,310,-8.0,36.0,47.0,23.742673873901367,40.283199310302734,18.24951171875,0.2745361328125,0.708740234375,-0.140625
3.039,310,506,451,308,-8.0,36.0,47.0,20.01953125,26.855466842651367,-13.000487327575684,-0.1278076171875,0.7803955078125,-0.3018798828125
3.054,309,495,436,311,-10.0,39.0,42.0,16.4794921875,20.568845748901367,-39.00146484375,-0.8892822265625,0.564208984375,-0.5277099609375
3.061,310,496,428,310,-10.0,39.0,42.0,13.732909202575684,16.05224609375,-53.405757904052734,-0.8892822265625,0.564208984375,-0.5277099609375
3.069,310,499,421,310,-10.0,39.0,42.0,4.39453125,8.6669921875,-56.396480560302734,-0.9747314453125,0.3590087890625,-0.4442138671875
3.083,309,497,420,310,-10.0,39.0,42.0,-8.9111328125,-1.7700194120407104,-53.588863372802734,-0.9049072265625,0.0684814453125,-0.0706787109375
3.093,309,497,426,310,-10.0,39.0,42.0,-16.54052734375,-11.413573265075684,-49.621578216552734,-0.9049072265625,0.0684814453125,-0.0706787109375
3.101,311,496,430,309,-10.0,39.0,42.0,-12.756346702575684,-16.17431640625,-45.654293060302734,-0.9140625,0.0540771484375,0.029296875
3.125,308,485,439,310,-10.0,39.0,42.0,-2.50244140625,-16.54052734375,-39.794921875,-0.99560546875,0.2508544921875,0.0438232421875
3.126,310,483,440,310,-10.0,39.0,42.0,3.723144292831421,-15.075682640075684,-31.311033248901367,-0.99560546875,0.2508544921875,0.0438232421875
3.133,310,475,441,309,-10.0,39.0,42.0,2.50244140625,-12.512206077575684,-22.460935592651367,-0.982177734375,0.319091796875,0.03466796875
3.143,310,465,441,310,-10.0,39.0,42.0,-0.9155272841453552,-8.97216796875,-15.808104515075684,-0.9429931640625,0.264404296875,0.02099609375
3.152,310,465,441,310,-11.0,39.0,45.0,-1.3427733182907104,-5.126952648162842,-11.413573265075684,-0.9429931640625,0.264404296875,0.02099609375
3.160,308,456,440,310,-11.0,39.0,45.0,1.4648436307907104,-1.7089842557907104,-7.507323741912842,-0.9443359375,0.2313232421875,0.0079345703125
3.173,310,456,439,309,-11.0,39.0,45.0,5.737304210662842,1.8920897245407104,2.13623046875,-0.9405517578125,0.2728271484375,-0.063232421875
3.181,310,452,439,309,-11.0,39.0,45.0,5.737304210662842,1.8920897245407104,2.13623046875,-0.9222412109375,0.3133544921875,-0.1051025390625
3.196,309,449,441,310,-11.0,39.0,45.0,5.554198741912842,1.2817381620407104,5.859374523162842,-0.9222412109375,0.3133544921875,-0.1051025390625
3.224,310,454,446,310,-11.0,39.0,45.0,2.563476324081421,-1.8920897245407104,9.09423828125,-0.869873046875,0.3599853515625,-0.1707763671875
3.225,310,465,444,310,-11.0,39.0,45.0,2.563476324081421,-1.8920897245407104,9.09423828125,-0.8387451171875,0.343505859375,-0.168212890625
3.225,309,475,444,293,-11.0,39.0,45.0,-1.2817381620407104,-3.662109136581421,10.131834983825684,-0.8387451171875,0.343505859375,-0.168212890625
3.233,310,504,447,310,-11.0,39.0,45.0,-12.268065452575684,-7.263183116912842,15.563963890075684,-0.7452392578125,0.1942138671875,-0.1580810546875
3.246,310,532,452,311,-11.0,39.0,45.0,-12.268065452575684,-7.263183116912842,15.563963890075684,-0.5850830078125,0.0673828125,-0.17919921875
3.249,310,571,441,310,-11.0,37.0,42.0,-18.00537109375,-9.70458984375,22.460935592651367,-0.5850830078125,0.0673828125,-0.17919921875
3.264,310,705,490,310,-11.0,37.0,42.0,-26.733396530151367,-20.080564498901367,42.053218841552734,0.1448974609375,-0.1781005859375,-0.090087890625
3.271,308,799,518,308,-11.0,37.0,42.0,-26.733396530151367,-20.080564498901367,42.053218841552734,0.5701904296875,-0.3045654296875,-0.0218505859375
3.280,310,902,561,311,-11.0,37.0,42.0,-23.559568405151367,-25.390623092651367,44.921871185302734,0.5701904296875,-0.3045654296875,-0.0218505859375
3.321,310,1050,725,310,-11.0,37.0,42.0,11.657713890075684,-52.795406341552734,17.9443359375,0.329833984375,0.0185546875,0.0079345703125
3.321,310,1095,840,310,-11.0,37.0,42.0,11.657713890075684,-52.795406341552734,17.9443359375,-0.3592529296875,0.4952392578125,0.2161865234375
3.322,310,1214,931,310,-11.0,37.0,42.0,18.12744140625,-84.04540252685547,-4.150390625,-1.0570068359375,0.941650390625,0.3353271484375
3.325,310,1339,1064,311,-11.0,37.0,42.0,-13.854979515075684,-72.44873046875,-30.517576217651367,-1.612548828125,1.362548828125,-0.0457763671875
3.331,310,1374,1162,310,-11.0,37.0,42.0,-35.7666015625,-39.36767578125,-30.273435592651367,-1.9730224609375,1.462646484375,-0.4119873046875
3.339,310,1413,1239,310,-11.0,37.0,42.0,-35.7666015625,-39.36767578125,-30.273435592651367,-2.133544921875,1.030517578125,0.0233154296875
3.358,310,1444,1282,310,-9.0,37.0,48.0,-46.997066497802734,-47.973628997802734,-47.241207122802734,-2.24658203125,0.677734375,0.662353515625
3.362,309,1432,1216,310,-9.0,37.0,48.0,-16.05224609375,-53.527828216552734,-50.903316497802734,-2.358154296875,0.6102294921875,0.6978759765625
3.369,310,1413,1149,310,-9.0,37.0,48.0,-16.05224609375,-53.527828216552734,-50.903316497802734,-2.1180419921875,0.4112548828125,0.2744140625
3.383,310,1411,1141,310,-9.0,37.0,48.0,44.494625091552734,-13.122557640075684,-40.466304779052734,-1.5496826171875,0.1925048828125,-0.0662841796875
3.391,310,1406,1108,311,-9.0,37.0,48.0,54.321285247802734,4.5166015625,-31.799314498901367,-1.438232421875,0.34033203125,-0.186767578125
3.424,310,1390,1078,310,-9.0,37.0,48.0,54.321285247802734,4.5166015625,-31.799314498901367,-1.8245849609375,0.574462890625,-0.222412109375
3.425,309,1338,992,312,-9.0,37.0,48.0,8.1787109375,18.61572265625,-8.97216796875,-2.04150390625,0.4754638671875,-0.0760498046875
3.428,310,1292,907,310,-9.0,37.0,48.0,-12.023924827575684,23.315427780151367,1.6479490995407104,-1.9388427734375,0.2359619140625,0.1168212890625
3.429,310,1243,837,308,-9.0,37.0,48.0,-12.023924827575684,23.315427780151367,1.6479490995407104,-1.7003173828125,0.06201171875,0.1817626953125
3.444,310,1143,666,310,-9.0,37.0,48.0,4.2724609375,39.9169921875,28.137205123901367,-1.4735107421875,0.0604248046875,0.1737060546875
3.451,310,1051,589,310,-10.0,36.0,46.0,23.681638717651367,49.011226654052734,45.532222747802734,-1.2733154296875,0.251708984375,0.104736328125
3.459,310,966,538,308,-10.0,36.0,46.0,23.681638717651367,49.011226654052734,45.532222747802734,-1.021728515625,0.4727783203125,0.007080078125
3.476,310,813,499,310,-10.0,36.0,46.0,12.878417015075684,68.84765625,77.57568359375,-0.6783447265625,0.4569091796875,0.0257568359375
3.481,310,722,478,309,-10.0,36.0,46.0,-15.319823265075684,76.5380859375,81.42089080810547,-0.2896728515625,0.1839599609375,0.1329345703125
3.489,310,632,465,311,-10.0,36.0,46.0,-31.372068405151367,80.74950408935547,77.1484375,0.0640869140625,0.03271484375,0.1915283203125
3.530,309,531,456,311,-10.0,36.0,46.0,-20.568845748901367,73.54736328125,64.3310546875,0.2808837890625,0.23583984375,0.17138671875
3.531,309,514,454,309,-10.0,36.0,46.0,7.324218273162842,52.856441497802734,35.58349609375,0.24755859375,0.565185546875,0.0845947265625
3.531,310,494,435,308,-10.0,36.0,46.0,29.541013717651367,29.663084030151367,-4.2724609375,-0.003173828125,0.7208251953125,-0.0928955078125
3.533,308,490,437,310,-10.0,36.0,46.0,37.78076171875,15.197752952575684,-37.53662109375,-0.350341796875,0.7021484375,-0.3359375
3.541,310,481,430,310,-10.0,36.0,46.0,38.4521484375,9.58251953125,-53.894039154052734,-0.6749267578125,0.65576171875,-0.513916015625
3.549,310,479,423,310,-12.0,39.0,44.0,32.40966796875,5.187987804412842,-57.922359466552734,-0.855712890625,0.5616455078125,-0.520751953125
3.563,309,483,423,309,-12.0,39.0,44.0,17.333984375,-1.220703125,-58.105464935302734,-0.90869140625,0.388671875,-0.3953857421875
3.571,310,483,423,310,-12.0,39.0,44.0,0.0,-8.544921875,-58.044429779052734,-0.9034423828125,0.203857421875,-0.221435546875
3.583,310,481,435,310,-12.0,39.0,44.0,-10.253905296325684,-14.221190452575684,-57.312007904052734,-0.8929443359375,0.0604248046875,-0.0711669921875
3.593,310,479,424,310,-12.0,39.0,44.0,-9.21630859375,-16.357421875,-53.649898529052734,-0.9105224609375,0.0107421875,0.018798828125
3.605,310,477,426,309,-12.0,39.0,44.0,-1.5258787870407104,-16.05224609375,-45.043941497802734,-0.9459228515625,0.0753173828125,0.0589599609375
3.629,308,477,428,310,-12.0,39.0,44.0,3.173827886581421,-14.892577171325684,-33.26416015625,-0.974365234375,0.1768798828125,0.066650390625
3.633,309,467,436,310,-12.0,39.0,44.0,0.8544921278953552,-12.756346702575684,-22.094724655151367,-0.9814453125,0.2247314453125,0.0626220703125
3.633,296,469,433,308,-12.0,39.0,44.0,-4.45556640625,-9.33837890625,-13.000487327575684,-0.9647216796875,0.209716796875,0.0565185546875
3.639,308,472,437,310,-12.0,39.0,44.0,-6.713866710662842,-5.371093273162842,-5.432128429412842,-0.942626953125,0.178955078125,0.0430908203125
3.653,310,468,441,309,-13.0,37.0,42.0,-4.39453125,-2.197265625,1.15966796875,-0.940673828125,0.1834716796875,0.0130615234375
3.661,309,465,441,310,-13.0,37.0,42.0,-0.7324218153953552,-0.1831054538488388,6.896972179412842,-0.9530029296875,0.24072265625,-0.036865234375
3.670,310,473,446,310,-13.0,37.0,42.0,1.0986328125,0.7934569716453552,11.047362327575684,-0.94873046875,0.302734375,-0.0882568359375
3.682,310,481,442,310,-13.0,37.0,42.0,-0.30517578125,1.220703125,13.061522483825684,-0.91162109375,0.31884765625,-0.126953125
3.697,310,502,440,310,-13.0,37.0,42.0,-3.906249761581421,0.9155272841453552,14.404295921325684,-0.859375,0.2978515625,-0.15380859375
3.699,310,509,439,308,-13.0,37.0,42.0,-7.812499523162842,-0.6713866591453552,17.2119140625,-0.8077392578125,0.2645263671875,-0.1612548828125
3.713,309,549,455,310,-13.0,37.0,42.0,-11.962889671325684,-3.540038824081421,21.850584030151367,-0.7076416015625,0.2113037109375,-0.1370849609375
3.740,309,568,475,310,-13.0,37.0,42.0,-15.869139671325684,-7.080077648162842,26.977537155151367,-0.525634765625,0.125244140625,-0.0936279296875
3.740,310,614,509,310,-13.0,37.0,42.0,-18.00537109375,-11.718749046325684,31.066892623901367,-0.26611328125,0.0164794921875,-0.0594482421875
3.743,309,756,588,310,-13.0,37.0,42.0,-16.11328125,-16.78466796875,32.16552734375,0.0201416015625,-0.099609375,-0.09130859375
3.751,310,846,644,308,-12.0,37.0,46.0,-9.3994140625,-20.507810592651367,29.846189498901367,0.1787109375,-0.10400390625,-0.19921875
3.759,309,939,715,310,-12.0,37.0,46.0,-3.906249761581421,-26.000974655151367,25.268552780151367,0.1788330078125,0.0706787109375,-0.1807861328125
3.774,310,1087,935,310,-12.0,37.0,46.0,-6.347655773162842,-38.57421875,16.6015625,0.02392578125,0.2178955078125,0.0504150390625
3.781,310,1162,1020,310,-12.0,37.0,46.0,-12.573241233825684,-55.725093841552734,3.112792730331421,-0.294189453125,0.215087890625,0.2862548828125
3.789,310,1251,1098,310,-12.0,37.0,46.0,-8.7890625,-68.7255859375,-10.864256858825684,-0.682861328125,0.302001953125,0.392333984375
3.841,310,1363,1226,310,-12.0,37.0,46.0,4.45556640625,-68.66455078125,-17.7001953125,-1.642578125,1.2169189453125,-0.2069091796875
3.842,310,1400,1292,310,-12.0,37.0,46.0,10.253905296325684,-53.771968841552734,-15.136717796325684,-1.642578125,1.2169189453125,-0.2069091796875
3.842,296,1424,1338,310,-12.0,37.0,46.0,2.44140625,-39.00146484375,-13.549803733825684,-1.993896484375,1.384521484375,-0.3564453125
3.843,312,1455,1357,311,-12.0,37.0,46.0,-10.864256858825684,-40.832515716552734,-23.864744186401367,-2.1888427734375,0.6656494140625,0.5220947265625
3.843,310,1450,1320,310,-12.0,37.0,46.0,-10.742186546325684,-46.630855560302734,-40.405269622802734,-2.1888427734375,0.6656494140625,0.5220947265625
3.849,310,1432,1273,311,-9.0,33.0,48.0,4.8828125,-39.6728515625,-46.936031341552734,-2.1552734375,0.5570068359375,0.4339599609375
3.863,310,1431,1286,310,-9.0,33.0,48.0,20.446775436401367,-23.071287155151367,-43.640132904052734,-1.318603515625,0.3262939453125,-0.1094970703125
3.872,311,1419,1273,310,-9.0,33.0,48.0,31.799314498901367,-6.408690929412842,-40.283199310302734,-1.318603515625,0.3262939453125,-0.1094970703125
3.879,309,1397,1246,311,-9.0,33.0,48.0,30.639646530151367,4.57763671875,-36.80419921875,-1.542724609375,0.5740966796875,-0.2125244140625
3.893,310,1351,1175,310,-9.0,33.0,48.0,10.498045921325684,12.268065452575684,-31.311033248901367,-2.01318359375,0.3388671875,-0.0340576171875
3.901,310,1305,1104,310,-9.0,33.0,48.0,-14.038084983825684,16.7236328125,-23.742673873901367,-2.01318359375,0.3388671875,-0.0340576171875
3.913,310,1260,1026,311,-9.0,33.0,48.0,-23.071287155151367,18.37158203125,-13.916014671325684,-1.81591796875,0.02392578125,0.1751708984375
3.938,310,1145,861,309,-9.0,33.0,48.0,-12.268065452575684,23.986814498901367,0.1831054538488388,-1.4083251953125,0.1553955078125,0.1273193359375
3.938,310,1065,751,309,-9.0,33.0,48.0,6.591796398162842,35.0341796875,18.85986328125,-1.2269287109375,0.4644775390625,0.024169921875
3.942,310,980,663,310,-9.0,33.0,48.0,16.17431640625,47.912593841552734,37.841796875,-1.2269287109375,0.4644775390625,0.024169921875
3.953,309,813,572,310,-11.0,37.0,39.0,-15.563963890075684,65.12451171875,56.457515716552734,-0.552734375,0.323486328125,0.1402587890625
3.961,310,710,531,310,-11.0,37.0,39.0,-15.563963890075684,65.12451171875,56.457515716552734,-0.2445068359375,0.0272216796875,0.1697998046875
3.969,310,640,493,310,-11.0,37.0,39.0,-30.517576217651367,68.115234375,52.612300872802734,-0.2445068359375,0.0272216796875,0.1697998046875
3.983,310,554,455,309,-11.0,37.0,39.0,-1.7700194120407104,51.940914154052734,34.66796875,0.082275390625,0.1165771484375,0.1431884765625
3.992,310,496,447,308,-11.0,37.0,39.0,-1.7700194120407104,51.940914154052734,34.66796875,-0.0616455078125,0.431396484375,0.031005859375
3.999,310,451,434,311,-11.0,37.0,39.0,26.550291061401367,35.5224609375,15.075682640075684,-0.0616455078125,0.431396484375,0.031005859375
4.015,310,437,437,308,-11.0,37.0,39.0,42.541500091552734,18.798828125,-32.40966796875,-0.449462890625,0.6363525390625,-0.3319091796875
4.042,310,428,428,310,-11.0,37.0,39.0,42.541500091552734,18.798828125,-32.40966796875,-0.5941162109375,0.55224609375,-0.4190673828125
4.046,310,430,437,310,-11.0,37.0,39.0,32.1044921875,16.4794921875,-43.334957122802734,-0.5941162109375,0.55224609375,-0.4190673828125
4.046,294,437,410,311,-10.0,37.0,41.0,9.82666015625,2.563476324081421,-46.386714935302734,-0.8021240234375,0.3009033203125,-0.3016357421875
4.051,309,441,428,310,-10.0,37.0,41.0,9.82666015625,2.563476324081421,-46.386714935302734,-0.8631591796875,0.146728515625,-0.1427001953125
4.059,310,439,433,309,-10.0,37.0,41.0,-0.3662109076976776,-5.432128429412842,-48.217769622802734,-0.8631591796875,0.146728515625,-0.1427001953125
4.073,310,444,433,310,-10.0,37.0,41.0,0.0,-12.023924827575684,-42.663570404052734,-0.9251708984375,0.0762939453125,0.0252685546875
4.082,310,441,440,310,-10.0,37.0,41.0,3.295898199081421,-11.840819358825684,-33.0810546875,-0.950439453125,0.152099609375,0.05078125
4.089,310,449,437,310,-10.0,37.0,41.0,3.295898199081421,-11.840819358825684,-33.0810546875,-0.983154296875,0.19140625,0.063720703125
4.103,310,451,444,309,-10.0,37.0,41.0,-4.45556640625,-7.263183116912842,-13.061522483825684,-1.01708984375,0.17138671875,0.04638671875
4.117,309,449,450,309,-10.0,37.0,41.0,-7.507323741912842,-3.967284917831421,-4.39453125,-1.0257568359375,0.133544921875,0.013671875
4.119,308,447,449,308,-10.0,37.0,41.0,-7.507323741912842,-3.967284917831421,-4.39453125,-1.0050048828125,0.134033203125,-0.013671875
4.155,308,441,452,309,-10.0,37.0,41.0,-3.479003667831421,-1.8310545682907104,10.498045921325684,-0.9849853515625,0.196044921875,-0.0399169921875
4.155,309,439,451,310,-10.0,37.0,41.0,-2.563476324081421,-1.220703125,15.686034202575684,-0.9822998046875,0.2762451171875,-0.0704345703125
4.155,308,433,451,310,-10.0,39.0,43.0,-2.563476324081421,-1.220703125,15.686034202575684,-0.97802734375,0.3212890625,-0.1021728515625
4.163,310,433,452,309,-10.0,39.0,43.0,-9.09423828125,1.4038084745407104,20.202634811401367,-0.952392578125,0.3243408203125,-0.1201171875
4.171,308,430,447,310,-10.0,39.0,43.0,-14.343260765075684,1.9531248807907104,22.094724655151367,-0.9068603515625,0.3037109375,-0.10888671875
4.180,309,433,447,310,-10.0,39.0,43.0,-14.343260765075684,1.9531248807907104,22.094724655151367,-0.8565673828125,0.2735595703125,-0.07421875
4.193,309,444,442,310,-10.0,39.0,43.0,-25.085447311401367,2.38037109375,29.357908248901367,-0.80712890625,0.2255859375,-0.029052734375
4.201,309,467,441,308,-10.0,39.0,43.0,-28.625486373901367,2.929687261581421,35.33935546875,-0.7471923828125,0.139892578125,-0.019287109375
4.209,310,497,444,309,-10.0,39.0,43.0,-28.625486373901367,2.929687261581421,35.33935546875,-0.61181640625,0.0306396484375,-0.0640869140625
4.223,310,588,480,310,-10.0,39.0,43.0,-24.780271530151367,-2.990722417831421,55.847164154052734,-0.3150634765625,-0.07080078125,-0.06982421875
4.241,310,676,519,310,-10.0,39.0,43.0,-19.95849609375,-11.413573265075684,65.673828125,0.1644287109375,-0.1705322265625,0.0208740234375
4.242,309,769,552,308,-10.0,39.0,43.0,-10.864256858825684,-21.240232467651367,65.185546875,0.66650390625,-0.281005859375,0.0911865234375
4.260,308,955,698,308,-12.0,40.0,45.0,8.056640625,-30.578611373901367,50.109859466552734,0.891845703125,-0.3160400390625,0.0498046875
4.261,311,1047,861,310,-12.0,40.0,45.0,32.65380859375,-49.011226654052734,25.146482467651367,0.567626953125,-0.0126953125,-0.034423828125
4.269,309,1139,984,310,-12.0,40.0,45.0,42.053218841552734,-75.5615234375,-0.9155272841453552,-0.1851806640625,0.59130859375,-0.0328369140625
4.284,310,1306,1159,309,-12.0,40.0,45.0,20.690916061401367,-81.05467987060547,-20.324705123901367,-1.0250244140625,1.1031494140625,-0.0301513671875
4.291,310,1374,1245,310,-12.0,40.0,45.0,-18.24951171875,-51.513668060302734,-26.184080123901367,-1.8243408203125,1.5225830078125,-0.3282470703125
4.299,310,1415,1346,310,-12.0,40.0,45.0,-56.884761810302734,-20.263669967651367,-25.634763717651367,-2.2845458984375,1.536376953125,-0.446533203125
4.313,311,1458,1416,311,-12.0,40.0,45.0,-83.61815643310547,-23.132322311401367,-34.1796875,-2.33056640625,0.8712158203125,0.190185546875
4.322,310,1470,1407,310,-12.0,40.0,45.0,-69.3359375,-46.447750091552734,-44.982906341552734,-2.3349609375,0.4656982421875,0.8167724609375
4.345,310,1447,1335,310,-12.0,40.0,45.0,-17.15087890625,-57.373043060302734,-43.151851654052734,-2.41015625,0.5726318359375,0.67041015625
4.346,310,1411,1311,308,-9.0,38.0,49.0,33.02001953125,-45.715328216552734,-36.43798828125,-2.0897216796875,0.542724609375,0.1513671875
4.351,310,1437,1306,311,-9.0,38.0,49.0,58.044429779052734,-23.498533248901367,-35.46142578125,-1.5582275390625,0.438232421875,-0.134521484375
4.360,310,1422,1273,310,-9.0,38.0,49.0,53.161617279052734,-4.82177734375,-34.66796875,-1.5557861328125,0.525390625,-0.2071533203125
4.373,310,1379,1198,310,-9.0,38.0,49.0,25.329587936401367,8.30078125,-28.869626998901367,-1.8782958984375,0.5430908203125,-0.144775390625
4.381,310,1344,1134,309,-9.0,38.0,49.0,-6.286620616912842,15.930174827575684,-18.85986328125,-2.0218505859375,0.3150634765625,0.072265625
4.390,310,1292,1065,310,-9.0,38.0,49.0,-21.057126998901367,21.240232467651367,-4.82177734375,-1.9013671875,0.074462890625,0.2222900390625
4.403,311,1198,943,310,-9.0,38.0,49.0,-14.343260765075684,29.785154342651367,12.451170921325684,-1.6619873046875,-0.03857421875,0.183349609375
4.411,310,1131,858,309,-9.0,38.0,49.0,4.69970703125,40.649410247802734,31.188962936401367,-1.375,0.017578125,0.1005859375
4.425,310,1054,717,310,-9.0,38.0,49.0,23.803709030151367,49.133296966552734,49.255367279052734,-1.0506591796875,0.2012939453125,0.05322265625
4.452,309,939,616,310,-9.0,38.0,49.0,29.296873092651367,54.931636810302734,64.51416015625,-0.7056884765625,0.38818359375,0.0274658203125
4.453,309,859,566,308,-10.0,37.0,48.0,12.451170921325684,58.654781341552734,73.2421875,-0.3675537109375,0.428955078125,0.048095703125
4.453,309,793,538,310,-10.0,37.0,48.0,-11.840819358825684,59.814449310302734,68.84765625,-0.1021728515625,0.3551025390625,0.07861328125
4.467,309,695,508,309,-10.0,37.0,48.0,-20.324705123901367,58.532711029052734,51.635738372802734,0.0474853515625,0.3941650390625,0.0623779296875
4.471,310,658,490,309,-10.0,37.0,48.0,-11.291502952575684,53.955074310302734,27.893064498901367,0.028564453125,0.5633544921875,-0.0277099609375
4.486,309,627,475,310,-10.0,37.0,48.0,1.220703125,46.020503997802734,2.3193359375,-0.1475830078125,0.6673583984375,-0.130859375
4.493,309,591,452,310,-10.0,37.0,48.0,5.920409679412842,36.43798828125,-19.775390625,-0.38525390625,0.60693359375,-0.1683349609375
4.501,310,582,441,309,-10.0,37.0,48.0,2.13623046875,26.428220748901367,-34.5458984375,-0.58447265625,0.41259765625,-0.150146484375
4.509,310,578,437,310,-10.0,37.0,48.0,-3.295898199081421,16.845703125,-40.649410247802734,-0.7025146484375,0.1871337890625,-0.1292724609375
4.527,310,574,435,309,-10.0,37.0,48.0,-3.234863042831421,7.507323741912842,-38.75732421875,-0.774169921875,0.0723876953125,-0.12158203125
4.531,309,575,423,310,-10.0,37.0,48.0,3.051757574081421,-1.4038084745407104,-31.982419967651367,-0.8284912109375,0.090087890625,-0.1201171875
4.548,310,574,421,310,-9.0,38.0,45.0,9.3994140625,-7.934569835662842,-24.597166061401367,-0.873046875,0.1546630859375,-0.120361328125
4.555,310,579,426,310,-9.0,38.0,45.0,10.803221702575684,-11.474608421325684,-18.6767578125,-0.9283447265625,0.2520751953125,-0.092529296875
4.561,310,580,424,309,-9.0,38.0,45.0,8.23974609375,-12.878417015075684,-13.916014671325684,-0.9283447265625,0.2520751953125,-0.092529296875
4.574,308,580,424,310,-9.0,38.0,45.0,4.82177734375,-13.305663108825684,-10.009765625,-0.942138671875,0.282470703125,-0.0797119140625
4.583,310,568,428,310,-9.0,38.0,45.0,1.4648436307907104,-13.427733421325684,-7.385253429412842,-0.94970703125,0.314208984375,-0.029541015625
4.593,310,561,430,310,-9.0,38.0,45.0,-2.746581792831421,-13.366698265075684,-5.615233898162842,-0.94970703125,0.314208984375,-0.029541015625
4.601,310,557,434,310,-9.0,38.0,45.0,-6.652831554412842,-12.756346702575684,-3.845214605331421,-0.9371337890625,0.31494140625,0.00048828125
4.613,310,545,435,308,-9.0,38.0,45.0,-8.11767578125,-11.230467796325684,-1.7700194120407104,-0.93310546875,0.3018798828125,0.001708984375
4.621,310,540,434,311,-9.0,38.0,45.0,-7.385253429412842,-9.27734375,0.4882812201976776,-0.93310546875,0.3018798828125,0.001708984375
4.629,308,535,438,310,-9.0,38.0,45.0,-6.591796398162842,-7.873534679412842,3.234863042831421,-0.9482421875,0.3028564453125,-0.0098876953125
4.654,310,523,444,312,-12.0,38.0,49.0,-7.629394054412842,-6.835937023162842,6.408690929412842,-0.9775390625,0.316162109375,-0.012451171875
4.656,294,519,444,308,-12.0,38.0,49.0,-10.498045921325684,-5.676269054412842,9.70458984375,-0.9775390625,0.316162109375,-0.012451171875
4.659,310,513,437,310,-12.0,38.0,49.0,-13.977049827575684,-3.784179449081421,13.061522483825684,-0.974609375,0.311767578125,-0.01171875
4.680,309,530,439,310,-12.0,38.0,49.0,-17.02880859375,-1.7089842557907104,16.9677734375,-0.84130859375,0.2275390625,-0.071044921875
4.681,310,554,439,310,-12.0,38.0,49.0,-18.49365234375,-1.2817381620407104,22.399900436401367,-0.84130859375,0.2275390625,-0.071044921875
4.689,309,569,439,309,-12.0,38.0,49.0,-17.88330078125,-4.08935546875,29.785154342651367,-0.7181396484375,0.175537109375,-0.1094970703125
4.703,309,622,495,309,-12.0,38.0,49.0,-16.54052734375,-15.991209983825684,44.250484466552734,-0.2972412109375,0.0592041015625,-0.1209716796875
4.711,310,689,551,310,-12.0,38.0,49.0,-16.54052734375,-15.991209983825684,44.250484466552734,0.1253662109375,-0.0948486328125,-0.100830078125
4.719,310,785,628,309,-12.0,38.0,49.0,-16.4794921875,-19.10400390625,45.715328216552734,0.1253662109375,-0.0948486328125,-0.100830078125
4.732,310,927,820,311,-12.0,38.0,49.0,-0.1831054538488388,-31.860349655151367,30.212400436401367,0.587890625,-0.1806640625,-0.00244140625
4.761,310,1000,935,310,-10.0,39.0,41.0,-0.1831054538488388,-31.860349655151367,30.212400436401367,0.3140869140625,0.0201416015625,0.1123046875
4.761,308,1050,1014,308,-10.0,39.0,41.0,16.2353515625,-51.086421966552734,13.732909202575684,0.3140869140625,0.0201416015625,0.1123046875
4.763,311,1237,1176,311,-10.0,39.0,41.0,5.187987804412842,-79.04052734375,-20.690916061401367,-0.9110107421875,0.6319580078125,0.4481201171875
4.771,310,1303,1267,310,-10.0,39.0,41.0,5.187987804412842,-79.04052734375,-20.690916061401367,-1.5611572265625,1.1845703125,0.130126953125
4.786,310,1351,1338,310,-10.0,39.0,41.0,-12.939452171325684,-54.748531341552734,-21.850584030151367,-1.5611572265625,1.1845703125,0.130126953125
4.794,310,1401,1435,310,-10.0,39.0,41.0,-40.344234466552734,-12.329100608825684,-25.268552780151367,-2.08837890625,1.3392333984375,-0.113037109375
4.801,310,1424,1462,310,-10.0,39.0,41.0,-40.344234466552734,-12.329100608825684,-25.268552780151367,-1.9798583984375,0.844970703125,0.4344482421875
4.809,311,1434,1474,311,-10.0,39.0,41.0,-38.0859375,-30.822751998901367,-43.395992279052734,-1.9798583984375,0.844970703125,0.4344482421875
4.823,309,1415,1399,310,-10.0,39.0,41.0,21.240232467651367,-49.865718841552734,-58.654781341552734,-2.0601806640625,0.5384521484375,0.2100830078125
4.837,310,1413,1393,310,-10.0,39.0,41.0,21.240232467651367,-49.865718841552734,-58.654781341552734,-1.6458740234375,0.339111328125,0.0133056640625
4.839,310,1403,1387,310,-10.0,37.0,51.0,45.715328216552734,-36.376953125,-58.715816497802734,-1.2706298828125,0.3856201171875,-0.004638671875
4.859,308,1386,1344,310,-10.0,37.0,51.0,37.53662109375,-0.1220703050494194,-51.574703216552734,-1.5228271484375,0.615478515625,-0.020751953125
4.862,310,1365,1294,310,-10.0,37.0,51.0,11.291502952575684,14.648436546325684,-45.166011810302734,-1.9256591796875,0.5802001953125,0.04638671875
4.869,310,1338,1239,310,-10.0,37.0,51.0,11.291502952575684,14.648436546325684,-45.166011810302734,-2.0494384765625,0.2669677734375,0.1827392578125
4.883,310,1260,1081,310,-10.0,37.0,51.0,-12.939452171325684,25.634763717651367,-21.728513717651367,-1.906494140625,-0.03759765625,0.2493896484375
4.893,310,1204,1013,311,-10.0,37.0,51.0,0.0610351525247097,29.418943405151367,0.0,-1.6802978515625,-0.13623046875,0.1973876953125
4.899,311,1147,932,310,-10.0,37.0,51.0,0.0610351525247097,29.418943405151367,0.0,-1.47900390625,0.0306396484375,0.0947265625
4.913,310,982,737,310,-10.0,37.0,51.0,27.099607467651367,50.842281341552734,49.133296966552734,-1.2772216796875,0.377685546875,-0.0078125
4.922,310,886,632,311,-10.0,37.0,51.0,17.333984375,63.964839935302734,68.2373046875,-0.956787109375,0.581787109375,-0.0078125
4.957,309,799,562,310,-10.0,37.0,51.0,17.333984375,63.964839935302734,68.2373046875,-0.503662109375,0.4166259765625,0.1123046875
4.960,309,653,523,310,-9.0,38.0,46.0,-32.8369140625,78.30810546875,71.59423828125,-0.0736083984375,0.0277099609375,0.220458984375
4.960,310,600,497,310,-9.0,38.0,46.0,-30.029294967651367,77.0263671875,59.814449310302734,0.2333984375,-0.192626953125,0.2763671875
4.961,299,557,488,310,-9.0,38.0,46.0,-30.029294967651367,77.0263671875,59.814449310302734,0.3096923828125,-0.0009765625,0.2779541015625
4.974,310,493,467,308,-9.0,38.0,46.0,21.240232467651367,48.828121185302734,24.047849655151367,0.0736083984375,0.4368896484375,0.125732421875
4.982,309,477,463,310,-9.0,38.0,46.0,41.625972747802734,34.3017578125,-3.967284917831421,-0.28515625,0.7501220703125,-0.1561279296875
4.990,310,468,463,310,-9.0,38.0,46.0,44.860836029052734,26.977537155151367,-27.282712936401367,-0.563232421875,0.79736328125,-0.4027099609375
5.005,309,477,453,309,-9.0,38.0,46.0,34.24072265625,21.423337936401367,-38.14697265625,-0.7313232421875,0.691162109375,-0.538818359375
5.012,309,479,451,309,-9.0,38.0,46.0,19.34814453125,12.390135765075684,-41.137691497802734,-0.793701171875,0.4893798828125,-0.510986328125
5.020,309,478,444,311,-9.0,38.0,46.0,4.2724609375,0.54931640625,-43.090816497802734,-0.8037109375,0.2384033203125,-0.3330078125
5.059,308,482,442,310,-9.0,38.0,46.0,-4.45556640625,-9.8876953125,-44.860836029052734,-0.830078125,0.0809326171875,-0.145263671875
5.063,310,484,428,295,-10.0,37.0,48.0,-2.563476324081421,-16.29638671875,-44.006343841552734,-0.8687744140625,0.0687255859375,-0.0281982421875
5.063,310,497,447,309,-10.0,37.0,48.0,3.967284917831421,-19.22607421875,-39.48974609375,-0.90185546875,0.157470703125,0.0228271484375
5.067,310,502,456,308,-10.0,37.0,48.0,5.920409679412842,-20.01953125,-32.53173828125,-0.9310302734375,0.2738037109375,0.03564453125
5.072,310,499,466,310,-10.0,37.0,48.0,0.2441406100988388,-18.798828125,-25.573728561401367,-0.9683837890625,0.3182373046875,0.0291748046875
5.080,310,504,465,310,-10.0,37.0,48.0,-8.1787109375,-15.380858421325684,-20.202634811401367,-1.007568359375,0.256591796875,0.0128173828125
5.094,308,502,475,310,-10.0,37.0,48.0,-13.000487327575684,-11.535643577575684,-14.709471702575684,-1.024169921875,0.156005859375,0.0069580078125
5.106,310,504,473,310,-10.0,37.0,48.0,-12.878417015075684,-9.58251953125,-6.958007335662842,-1.0172119140625,0.1124267578125,0.0152587890625
5.111,310,497,475,310,-10.0,37.0,48.0,-10.253905296325684,-9.033203125,2.38037109375,-0.995361328125,0.150634765625,0.02734375
5.124,309,498,476,310,-10.0,37.0,48.0,-9.27734375,-8.23974609375,11.230467796325684,-0.9627685546875,0.23046875,0.0308837890625
5.132,308,506,475,310,-10.0,37.0,48.0,-11.352538108825684,-6.286620616912842,18.1884765625,-0.9271240234375,0.2955322265625,0.0250244140625
5.145,309,512,476,310,-11.0,38.0,41.0,-15.197752952575684,-3.601073980331421,22.766111373901367,-0.8955078125,0.309326171875,0.0029296875
5.171,308,537,473,310,-11.0,38.0,41.0,-19.47021484375,-0.7324218153953552,26.367185592651367,-0.8590087890625,0.28662109375,-0.05029296875
5.171,310,561,483,310,-11.0,38.0,41.0,-23.193357467651367,0.30517578125,30.212400436401367,-0.7784423828125,0.2423095703125,-0.1170654296875
5.172,310,584,496,308,-11.0,38.0,41.0,-26.611326217651367,-1.7089842557907104,34.7900390625,-0.5819091796875,0.14013671875,-0.1705322265625
5.184,310,700,587,310,-11.0,38.0,41.0,-28.198240280151367,-6.103515148162842,39.97802734375,-0.2318115234375,0.001708984375,-0.1907958984375
5.192,310,799,650,310,-11.0,38.0,41.0,-25.085447311401367,-12.756346702575684,44.067378997802734,0.2022705078125,-0.1004638671875,-0.15673828125
5.200,312,882,777,310,-11.0,38.0,41.0,-18.4326171875,-21.789548873901367,42.846675872802734,0.553955078125,-0.159912109375,-0.0640869140625
5.219,310,1039,1000,310,-11.0,38.0,41.0,-12.145995140075684,-33.447265625,34.48486328125,0.63720703125,-0.11767578125,0.0797119140625
5.222,309,1112,1137,310,-11.0,38.0,41.0,-7.263183116912842,-51.513668060302734,17.9443359375,0.322998046875,0.1400146484375,0.2249755859375
5.230,310,1204,1231,310,-11.0,38.0,41.0,-2.38037109375,-73.66943359375,-8.72802734375,-0.3057861328125,0.41650390625,0.3365478515625
5.244,310,1348,1397,310,-9.0,37.0,50.0,3.051757574081421,-81.78710174560547,-35.5224609375,-1.744384765625,1.12353515625,-0.064453125
5.256,310,1381,1462,311,-9.0,37.0,50.0,4.39453125,-63.659664154052734,-43.273921966552734,-1.744384765625,1.12353515625,-0.064453125
5.287,312,1411,1524,311,-9.0,37.0,50.0,-7.141112804412842,-39.00146484375,-34.66796875,-2.1173095703125,1.4180908203125,-0.4000244140625
5.287,310,1447,1600,311,-9.0,37.0,50.0,-28.564451217651367,-36.92626953125,-32.65380859375,-2.02978515625,0.74072265625,0.5849609375
5.321,310,1457,1602,311,-9.0,37.0,50.0,-38.02490234375,-50.537105560302734,-44.067378997802734,-2.02978515625,0.74072265625,0.5849609375
5.321,310,1444,1543,311,-9.0,37.0,50.0,-23.193357467651367,-54.565425872802734,-55.419918060302734,-2.22216796875,0.5262451171875,0.615234375
5.321,308,1424,1486,310,-9.0,37.0,50.0,6.286620616912842,-43.457027435302734,-57.617183685302734,-1.575439453125,0.135498046875,0.1083984375
5.321,311,1422,1478,311,-9.0,37.0,50.0,31.616209030151367,-24.597166061401367,-51.086421966552734,-1.575439453125,0.135498046875,0.1083984375
5.321,310,1416,1450,312,-9.0,37.0,50.0,37.841796875,-5.187987804412842,-40.954586029052734,-1.1761474609375,0.26171875,0.0325927734375
5.334,310,1393,1397,311,-7.0,33.0,45.0,23.254392623901367,11.840819358825684,-31.860349655151367,-1.9525146484375,0.43603515625,0.11083984375
5.352,310,1367,1336,310,-7.0,33.0,45.0,0.1831054538488388,25.512693405151367,-23.010251998901367,-1.9525146484375,0.43603515625,0.11083984375
5.370,310,1323,1243,310,-7.0,33.0,45.0,-15.014647483825684,32.04345703125,-11.108397483825684,-2.120849609375,0.2413330078125,0.1669921875
5.374,310,1234,1074,311,-7.0,33.0,45.0,-18.37158203125,32.28759765625,6.103515148162842,-1.7066650390625,0.00537109375,0.1126708984375
5.374,296,1173,982,309,-7.0,33.0,45.0,-11.352538108825684,34.11865234375,26.245115280151367,-1.7066650390625,0.00537109375,0.1126708984375
5.385,310,1093,920,310,-7.0,33.0,45.0,3.601073980331421,41.381832122802734,45.410152435302734,-1.4278564453125,-0.007080078125,0.117919921875
5.394,309,939,750,310,-7.0,33.0,45.0,23.071287155151367,66.40625,80.078125,-0.7691650390625,0.451171875,0.16455078125
5.402,310,858,663,310,-7.0,33.0,45.0,23.071287155151367,66.40625,80.078125,-0.4154052734375,0.41796875,0.19677734375
5.411,310,780,582,310,-7.0,33.0,45.0,6.713866710662842,74.64599609375,87.03612518310547,-0.4154052734375,0.41796875,0.19677734375
5.425,310,662,533,308,-7.0,33.0,45.0,-17.88330078125,81.17675018310547,64.88037109375,0.062255859375,0.2374267578125,0.0810546875
5.432,310,604,502,310,-10.0,36.0,43.0,-17.88330078125,81.17675018310547,64.88037109375,0.098388671875,0.3682861328125,-0.042724609375
5.440,310,572,481,308,-10.0,36.0,43.0,-2.563476324081421,72.69287109375,41.198726654052734,0.098388671875,0.3682861328125,-0.042724609375
5.454,310,522,475,310,-10.0,36.0,43.0,28.015134811401367,35.15625,-13.610838890075684,-0.3270263671875,0.64990234375,-0.252685546875
5.466,310,509,472,311,-10.0,36.0,43.0,28.015134811401367,35.15625,-13.610838890075684,-0.5692138671875,0.597412109375,-0.29638671875
5.473,310,502,469,310,-10.0,36.0,43.0,24.475095748901367,20.812986373901367,-31.188962936401367,-0.5692138671875,0.597412109375,-0.29638671875
5.484,311,497,473,310,-10.0,36.0,43.0,5.310058116912842,4.82177734375,-38.6962890625,-0.7366943359375,0.3226318359375,-0.20458984375
5.498,310,497,465,308,-10.0,36.0,43.0,5.310058116912842,4.82177734375,-38.6962890625,-0.746337890625,0.19287109375,-0.123046875
5.500,310,499,463,299,-10.0,36.0,43.0,3.906249761581421,-2.01416015625,-38.57421875,-0.746337890625,0.19287109375,-0.123046875
5.515,310,504,465,310,-10.0,36.0,43.0,10.192870140075684,-11.108397483825684,-35.09521484375,-0.870361328125,0.1080322265625,-0.0535888671875
5.522,310,508,464,308,-10.0,36.0,43.0,10.192870140075684,-11.108397483825684,-35.09521484375,-0.9359130859375,0.1837158203125,-0.016357421875
5.532,310,509,472,310,-10.0,36.0,43.0,12.634276390075684,-14.648436546325684,-27.587888717651367,-0.9625244140625,0.2430419921875,0.0283203125
5.551,308,513,477,309,-10.0,38.0,44.0,3.845214605331421,-17.578125,-10.253905296325684,-0.9730224609375,0.24853515625,0.0419921875
5.552,309,517,473,310,-10.0,38.0,44.0,-0.3662109076976776,-13.793944358825684,-4.39453125,-0.980712890625,0.22216796875,0.0343017578125
5.562,309,512,481,310,-10.0,38.0,44.0,-0.3662109076976776,-13.793944358825684,-4.39453125,-0.97607421875,0.2198486328125,0.030517578125
5.581,308,507,481,308,-10.0,38.0,44.0,-0.6713866591453552,-5.126952648162842,5.676269054412842,-0.9542236328125,0.25390625,0.03173828125
5.582,309,509,477,310,-10.0,38.0,44.0,-1.6479490995407104,-2.685546636581421,10.437010765075684,-0.93310546875,0.2962646484375,0.0244140625
5.590,310,508,477,311,-10.0,38.0,44.0,-1.6479490995407104,-2.685546636581421,10.437010765075684,-0.9283447265625,0.324951171875,0.006591796875
5.604,310,509,475,310,-10.0,38.0,44.0,-5.737304210662842,1.3427733182907104,16.54052734375,-0.9302978515625,0.3271484375,-0.01806640625
5.613,310,512,480,308,-10.0,38.0,44.0,-6.835937023162842,2.44140625,18.37158203125,-0.92138671875,0.3070068359375,-0.0465087890625
5.620,310,524,478,309,-10.0,38.0,44.0,-6.835937023162842,2.44140625,18.37158203125,-0.8909912109375,0.2755126953125,-0.078125
5.639,310,537,473,310,-9.0,40.0,48.0,-8.7890625,0.7324218153953552,25.817869186401367,-0.851806640625,0.2452392578125,-0.0931396484375
5.642,310,549,477,309,-9.0,40.0,48.0,-11.352538108825684,-1.8310545682907104,32.8369140625,-0.7923583984375,0.2071533203125,-0.084228515625
5.656,310,569,479,310,-9.0,40.0,48.0,-11.352538108825684,-1.8310545682907104,32.8369140625,-0.6484375,0.135009765625,-0.095947265625
5.682,308,647,508,310,-9.0,40.0,48.0,-21.301267623901367,-3.723144292831421,50.109859466552734,-0.3570556640625,0.0439453125,-0.12353515625
5.682,310,728,561,310,-9.0,40.0,48.0,-24.902341842651367,-4.33349609375,56.457515716552734,0.08642578125,-0.055908203125,-0.1478271484375
5.683,310,832,621,310,-9.0,40.0,48.0,-21.301267623901367,-9.70458984375,54.748531341552734,0.5538330078125,-0.1466064453125,-0.16064453125
5.694,310,974,848,310,-9.0,40.0,48.0,-8.9111328125,-25.268552780151367,41.992183685302734,0.8026123046875,-0.1431884765625,-0.0689697265625
5.702,308,1054,987,310,-9.0,40.0,48.0,8.11767578125,-52.978511810302734,17.02880859375,0.5458984375,0.010009765625,0.11572265625
5.710,310,1151,1091,310,-9.0,40.0,48.0,19.59228515625,-81.35985565185547,-13.977049827575684,-0.1873779296875,0.27392578125,0.2860107421875
5.727,310,1292,1294,310,-9.0,40.0,48.0,10.131834983825684,-87.40233612060547,-34.11865234375,-1.0537109375,0.689208984375,0.341064453125
5.732,310,1355,1365,311,-10.0,36.0,46.0,-18.4326171875,-61.035152435302734,-30.334470748901367,-1.7784423828125,1.243896484375,0.069580078125
5.745,310,1396,1435,311,-10.0,36.0,46.0,-48.583980560302734,-25.695798873901367,-18.61572265625,-2.1634521484375,1.51513671875,-0.2332763671875
5.756,310,1445,1490,310,-10.0,36.0,46.0,-65.3076171875,-13.793944358825684,-23.010251998901367,-2.1102294921875,1.1524658203125,0.077392578125
5.767,311,1460,1500,312,-10.0,36.0,46.0,-54.626461029052734,-27.221677780151367,-37.90283203125,-1.96533203125,0.7176513671875,0.6173095703125
5.784,310,1460,1478,310,-10.0,36.0,46.0,-17.333984375,-41.870113372802734,-44.677730560302734,-2.0994873046875,0.638671875,0.587890625
5.784,310,1437,1406,310,-10.0,36.0,46.0,25.878904342651367,-41.076656341552734,-43.273921966552734,-2.130126953125,0.5772705078125,0.1810302734375
5.792,311,1443,1409,311,-10.0,36.0,46.0,52.490230560302734,-27.465818405151367,-42.907711029052734,-1.62890625,0.376220703125,-0.027099609375
5.800,310,1437,1392,310,-10.0,36.0,46.0,54.992671966552734,-9.8876953125,-42.785640716552734,-1.2880859375,0.41064453125,-0.0611572265625
5.814,310,1419,1348,310,-10.0,36.0,46.0,36.07177734375,5.981444835662842,-39.73388671875,-1.58544921875,0.6400146484375,-0.0657958984375
5.823,310,1392,1285,311,-10.0,36.0,46.0,7.934569835662842,18.24951171875,-33.99658203125,-1.9644775390625,0.603759765625,0.039794921875
5.837,310,1352,1196,310,-8.0,36.0,52.0,-11.047362327575684,25.390623092651367,-25.573728561401367,-2.0667724609375,0.3333740234375,0.1922607421875
5.858,310,1267,1021,310,-8.0,36.0,52.0,-12.634276390075684,29.235837936401367,-12.268065452575684,-1.9154052734375,0.062744140625,0.22509765625
5.860,310,1206,935,311,-8.0,36.0,52.0,1.4038084745407104,34.3017578125,5.676269054412842,-1.6639404296875,-0.0430908203125,0.1328125
5.860,310,1132,840,308,-8.0,36.0,52.0,21.484373092651367,41.503902435302734,25.878904342651367,-1.3936767578125,0.07275390625,0.060302734375
5.887,310,981,667,310,-8.0,36.0,52.0,35.46142578125,49.804683685302734,45.288082122802734,-1.07958984375,0.3524169921875,0.0213623046875
5.888,308,889,594,310,-8.0,36.0,52.0,31.738279342651367,57.128902435302734,59.875484466552734,-0.6917724609375,0.5338134765625,0.038818359375
5.891,310,805,558,310,-8.0,36.0,52.0,9.46044921875,61.645503997802734,63.476558685302734,-0.331298828125,0.412353515625,0.114501953125
5.899,310,716,538,310,-8.0,36.0,52.0,-12.451170921325684,65.49072265625,55.847164154052734,-0.0941162109375,0.191162109375,0.1431884765625
5.913,309,614,494,311,-8.0,36.0,52.0,-16.41845703125,67.2607421875,43.701168060302734,0.0389404296875,0.1910400390625,0.1033935546875
5.922,308,568,467,310,-8.0,36.0,52.0,-3.601073980331421,60.668941497802734,27.221677780151367,0.0538330078125,0.362060546875,0.0311279296875
5.929,309,530,473,309,-10.0,37.0,42.0,12.023924827575684,46.203609466552734,2.685546636581421,-0.10400390625,0.5084228515625,-0.053955078125
5.949,310,486,469,309,-10.0,37.0,42.0,19.1650390625,29.968259811401367,-23.315427780151367,-0.356689453125,0.5462646484375,-0.156005859375
5.966,310,483,456,308,-10.0,37.0,42.0,19.22607421875,17.51708984375,-40.710445404052734,-0.5513916015625,0.4735107421875,-0.241943359375
5.966,310,477,453,310,-10.0,37.0,42.0,17.822265625,8.9111328125,-46.752925872802734,-0.6588134765625,0.386474609375,-0.27001953125
5.981,309,467,450,311,-10.0,37.0,42.0,16.357421875,0.6713866591453552,-46.630855560302734,-0.7239990234375,0.3145751953125,-0.2264404296875
5.981,310,467,456,295,-10.0,37.0,42.0,13.366698265075684,-6.774901866912842,-46.081539154052734,-0.79248046875,0.2264404296875,-0.15380859375
5.990,310,454,449,309,-10.0,37.0,42.0,9.46044921875,-10.314940452575684,-45.104976654052734,-0.8746337890625,0.1639404296875,-0.112060546875
6.003,308,451,464,311,-10.0,37.0,42.0,6.530761241912842,-10.681151390075684,-41.503902435302734,-0.9432373046875,0.1572265625,-0.0882568359375
6.011,308,441,465,310,-10.0,37.0,42.0,3.601073980331421,-11.108397483825684,-34.60693359375,-0.9755859375,0.1905517578125,-0.0469970703125
6.019,310,441,477,310,-10.0,37.0,42.0,-0.7324218153953552,-12.207030296325684,-25.817869186401367,-0.9722900390625,0.2308349609375,0.0123291015625
6.033,309,452,480,309,-9.0,38.0,45.0,-6.225585460662842,-11.962889671325684,-17.578125,-0.947265625,0.239990234375,0.0655517578125
6.041,310,452,481,310,-9.0,38.0,45.0,-10.437010765075684,-9.46044921875,-11.169432640075684,-0.9212646484375,0.2110595703125,0.091796875
6.049,310,456,488,310,-9.0,38.0,45.0,-10.314940452575684,-6.042479991912842,-6.042479991912842,-0.9130859375,0.1737060546875,0.091552734375
6.068,310,456,493,310,-9.0,38.0,45.0,-5.859374523162842,-3.173827886581421,-0.6713866591453552,-0.92333984375,0.1864013671875,0.055908203125
6.092,310,463,495,310,-9.0,38.0,45.0,-0.6103515625,-1.0986328125,5.187987804412842,-0.9404296875,0.2464599609375,-0.0059814453125
6.092,309,465,497,309,-9.0,38.0,45.0,1.0986328125,-0.2441406100988388,10.192870140075684,-0.9508056640625,0.2906494140625,-0.053955078125
6.095,296,469,478,312,-9.0,38.0,45.0,-1.2817381620407104,-0.0610351525247097,13.610838890075684,-0.91748046875,0.284912109375,-0.088134765625
6.101,310,478,488,310,-9.0,38.0,45.0,-5.554198741912842,-0.0610351525247097,16.2353515625,-0.91748046875,0.284912109375,-0.088134765625
6.109,310,485,483,310,-9.0,38.0,45.0,-9.521484375,-0.4882812201976776,19.287109375,-0.867431640625,0.258544921875,-0.0916748046875
6.123,310,519,490,310,-9.0,38.0,45.0,-13.488768577575684,-1.7089842557907104,23.498533248901367,-0.6885986328125,0.1654052734375,-0.08984375
6.131,310,548,499,310,-10.0,37.0,45.0,-18.24951171875,-3.540038824081421,29.418943405151367,-0.6885986328125,0.1654052734375,-0.08984375
6.139,310,594,523,309,-10.0,37.0,45.0,-22.705076217651367,-5.249022960662842,36.68212890625,-0.5087890625,0.104736328125,-0.1051025390625
6.153,310,713,619,310,-10.0,37.0,45.0,-24.902341842651367,-8.1787109375,43.884273529052734,0.144775390625,-0.01025390625,-0.0430908203125
6.187,310,810,668,308,-10.0,37.0,45.0,-21.179197311401367,-14.343260765075684,46.752925872802734,0.144775390625,-0.01025390625,-0.0430908203125
6.195,308,921,770,310,-10.0,37.0,45.0,-9.27734375,-21.972654342651367,40.466304779052734,0.4952392578125,-0.1142578125,0.0009765625
6.195,310,1055,996,310,-10.0,37.0,45.0,3.906249761581421,-30.944822311401367,26.672361373901367,0.39208984375,0.1070556640625,0.208984375
6.196,308,1159,1116,308,-10.0,37.0,45.0,10.314940452575684,-46.325679779052734,7.019042491912842,0.39208984375,0.1070556640625,0.208984375
6.199,310,1251,1225,310,-10.0,37.0,45.0,8.85009765625,-64.88037109375,-21.423337936401367,-0.212890625,0.2840576171875,0.275146484375
6.214,308,1363,1374,310,-10.0,37.0,45.0,0.9765624403953552,-67.9931640625,-43.945308685302734,-1.8714599609375,1.177001953125,-0.24365234375
6.221,310,1404,1457,310,-10.0,37.0,45.0,-10.314940452575684,-48.706050872802734,-40.527339935302734,-2.2022705078125,1.5328369140625,-0.423828125
6.230,310,1437,1513,311,-7.0,36.0,41.0,-26.062009811401367,-30.700681686401367,-25.512693405151367,-2.2022705078125,1.5328369140625,-0.423828125
6.243,310,1485,1585,312,-7.0,36.0,41.0,-43.151851654052734,-48.522945404052734,-51.513668060302734,-2.0311279296875,0.875732421875,0.6182861328125
6.251,310,1488,1607,311,-7.0,36.0,41.0,-43.151851654052734,-48.522945404052734,-51.513668060302734,-2.31787109375,0.68798828125,0.5123291015625
6.259,311,1474,1543,310,-7.0,36.0,41.0,-17.63916015625,-52.001949310302734,-70.25146484375,-2.31787109375,0.68798828125,0.5123291015625
6.290,310,1472,1540,310,-7.0,36.0,41.0,43.457027435302734,-31.921384811401367,-77.63671875,-1.6246337890625,0.066650390625,0.0450439453125
6.295,311,1469,1527,310,-7.0,36.0,41.0,43.457027435302734,-31.921384811401367,-77.63671875,-1.2821044921875,0.2242431640625,-0.05908203125
6.296,310,1457,1464,311,-7.0,36.0,41.0,52.612300872802734,-17.333984375,-68.4814453125,-1.2821044921875,0.2242431640625,-0.05908203125
6.303,310,1424,1450,311,-7.0,36.0,41.0,6.225585460662842,13.366698265075684,-43.762203216552734,-2.0206298828125,0.3441162109375,0.0501708984375
6.311,310,1397,1402,310,-7.0,36.0,41.0,6.225585460662842,13.366698265075684,-43.762203216552734,-2.1031494140625,0.06201171875,0.2308349609375
6.319,311,1359,1336,310,-7.0,36.0,41.0,-18.00537109375,23.010251998901367,-28.320310592651367,-2.1031494140625,0.06201171875,0.2308349609375
6.334,312,1267,1163,310,-7.0,34.0,43.0,-11.779784202575684,29.663084030151367,17.9443359375,-1.7159423828125,0.0247802734375,0.1702880859375
6.341,310,1201,1039,310,-7.0,34.0,43.0,-11.779784202575684,29.663084030151367,17.9443359375,-1.447021484375,0.1259765625,0.125244140625
6.349,310,1132,944,310,-7.0,34.0,43.0,7.080077648162842,36.19384765625,35.33935546875,-1.447021484375,0.1259765625,0.125244140625
6.369,310,996,742,308,-7.0,34.0,43.0,29.418943405151367,56.701656341552734,51.940914154052734,-0.7369384765625,0.47607421875,0.1029052734375
6.371,310,912,642,310,-7.0,34.0,43.0,18.49365234375,57.739253997802734,52.246089935302734,-0.3094482421875,0.3779296875,0.1015625
6.402,309,794,587,310,-7.0,34.0,43.0,18.49365234375,57.739253997802734,52.246089935302734,-0.0377197265625,0.2213134765625,0.0224609375
6.402,310,650,501,308,-7.0,34.0,43.0,5.981444835662842,46.325679779052734,25.573728561401367,0.0584716796875,0.2161865234375,-0.09130859375
6.403,310,601,507,310,-7.0,34.0,43.0,8.544921875,41.198726654052734,4.08935546875,-0.0074462890625,0.2764892578125,-0.138671875
6.409,310,554,497,312,-7.0,34.0,43.0,8.544921875,41.198726654052734,4.08935546875,-0.22021484375,0.34912109375,-0.1302490234375
6.423,309,493,497,311,-7.0,34.0,43.0,6.652831554412842,27.893064498901367,-27.404783248901367,-0.4423828125,0.4141845703125,-0.1461181640625
6.431,309,479,496,309,-8.0,39.0,46.0,3.112792730331421,20.080564498901367,-33.38623046875,-0.5504150390625,0.35888671875,-0.1214599609375
6.439,310,480,503,309,-8.0,39.0,46.0,3.112792730331421,20.080564498901367,-33.38623046875,-0.5650634765625,0.230224609375,-0.015625
6.453,310,481,495,310,-8.0,39.0,46.0,-6.103515148162842,3.295898199081421,-30.273435592651367,-0.5860595703125,0.155029296875,0.085693359375
6.462,310,493,493,311,-8.0,39.0,46.0,-2.868652105331421,-0.1831054538488388,-25.756834030151367,-0.6815185546875,0.1024169921875,0.1033935546875
6.473,310,493,495,310,-8.0,39.0,46.0,-2.868652105331421,-0.1831054538488388,-25.756834030151367,-0.841064453125,0.07470703125,0.017822265625
6.501,310,502,506,308,-8.0,39.0,46.0,2.685546636581421,3.356933355331421,-13.854979515075684,-0.9735107421875,0.11669921875,-0.0867919921875
6.501,309,506,518,310,-8.0,39.0,46.0,-1.6479490995407104,2.38037109375,-6.164550304412842,-1.021728515625,0.185791015625,-0.116943359375
6.502,298,509,519,310,-8.0,39.0,46.0,-1.6479490995407104,2.38037109375,-6.164550304412842,-1.0150146484375,0.21484375,-0.087890625
6.515,310,513,527,311,-8.0,39.0,46.0,-13.488768577575684,-2.868652105331421,2.685546636581421,-0.997314453125,0.20263671875,-0.0633544921875
6.521,310,513,526,310,-8.0,39.0,46.0,-14.404295921325684,-3.295898199081421,5.554198741912842,-0.986083984375,0.1990966796875,-0.056640625
6.529,310,513,519,309,-6.0,36.0,45.0,-13.916014671325684,-4.0283203125,9.3994140625,-0.97998046875,0.22216796875,-0.0418701171875
6.543,309,513,525,310,-6.0,36.0,45.0,-14.892577171325684,-5.310058116912842,13.671874046325684,-0.9739990234375,0.263427734375,-0.0072021484375
6.551,310,509,533,310,-6.0,36.0,45.0,-16.78466796875,-5.737304210662842,16.845703125,-0.9610595703125,0.3016357421875,0.033203125
6.559,310,513,535,310,-6.0,36.0,45.0,-17.578125,-4.82177734375,18.5546875,-0.9425048828125,0.31201171875,0.056396484375
6.577,310,513,533,308,-6.0,36.0,45.0,-16.78466796875,-2.868652105331421,19.71435546875,-0.92138671875,0.292236328125,0.0567626953125
6.586,310,522,530,310,-6.0,36.0,45.0,-15.197752952575684,-0.7934569716453552,22.033689498901367,-0.8980712890625,0.25390625,0.0506591796875
6.603,309,525,521,310,-6.0,36.0,45.0,-13.854979515075684,0.9155272841453552,26.611326217651367,-0.8697509765625,0.1966552734375,0.044677734375
6.604,310,552,518,310,-6.0,36.0,45.0,-13.061522483825684,2.0751953125,33.99658203125,-0.8272705078125,0.124267578125,0.024658203125
6.611,313,576,521,308,-6.0,36.0,45.0,-11.535643577575684,2.38037109375,44.311519622802734,-0.71142578125,0.0506591796875,-0.0211181640625
6.625,310,608,533,310,-6.0,36.0,45.0,-8.85009765625,1.5258787870407104,55.847164154052734,-0.44189453125,-0.01513671875,-0.0594482421875
6.633,311,723,654,310,-10.0,35.0,43.0,-4.7607421875,-2.13623046875,64.51416015625,-0.037841796875,-0.06982421875,-0.0462646484375
6.642,310,823,740,310,-10.0,35.0,43.0,3.356933355331421,-9.765625,64.75830078125,0.3387451171875,-0.1185302734375,0.009765625
6.649,310,916,823,310,-10.0,35.0,43.0,17.578125,-19.95849609375,56.579586029052734,0.536865234375,-0.1290283203125,0.095947265625
6.663,310,1054,1055,311,-10.0,35.0,43.0,32.28759765625,-31.738279342651367,43.945308685302734,0.4718017578125,0.0426025390625,0.163818359375
6.678,310,1148,1183,311,-10.0,35.0,43.0,34.85107421875,-45.654293060302734,23.193357467651367,0.0787353515625,0.326416015625,0.1094970703125
6.679,311,1246,1253,309,-10.0,35.0,43.0,22.155759811401367,-55.847164154052734,-7.873534679412842,-0.557861328125,0.5032958984375,0.014892578125
6.707,309,1367,1434,311,-10.0,35.0,43.0,4.150390625,-48.645015716552734,-29.357908248901367,-1.3651123046875,0.89404296875,-0.194091796875
6.707,309,1409,1508,312,-10.0,35.0,43.0,-17.63916015625,-27.099607467651367,-25.878904342651367,-2.097412109375,1.505615234375,-0.5286865234375
6.709,298,1437,1567,311,-10.0,35.0,43.0,-47.302242279052734,-18.37158203125,-17.51708984375,-2.2183837890625,1.4744873046875,-0.257080078125
6.723,310,1483,1613,311,-8.0,36.0,43.0,-66.95556640625,-30.761716842651367,-27.709959030151367,-1.965087890625,0.86181640625,0.5252685546875
6.737,311,1490,1607,312,-8.0,36.0,43.0,-49.316402435302734,-41.625972747802734,-45.410152435302734,-1.991455078125,0.51513671875,0.845947265625
6.741,311,1483,1534,310,-8.0,36.0,43.0,-4.57763671875,-37.841796875,-52.673336029052734,-2.198974609375,0.442626953125,0.48876953125
6.753,310,1476,1518,311,-8.0,36.0,43.0,37.2314453125,-23.742673873901367,-50.842281341552734,-1.9031982421875,0.329833984375,0.03271484375
6.761,310,1472,1502,311,-8.0,36.0,43.0,58.593746185302734,-8.72802734375,-46.997066497802734,-1.336181640625,0.314208984375,-0.1392822265625
6.769,311,1464,1477,311,-8.0,36.0,43.0,51.635738372802734,2.563476324081421,-43.640132904052734,-1.342529296875,0.4744873046875,-0.146240234375
6.783,310,1437,1400,310,-8.0,36.0,43.0,24.291990280151367,12.695311546325684,-38.39111328125,-1.7554931640625,0.526123046875,-0.0518798828125
6.812,310,1415,1341,311,-8.0,36.0,43.0,-2.38037109375,20.874021530151367,-29.052732467651367,-2.016357421875,0.3544921875,0.10302734375
6.812,310,1377,1251,311,-8.0,36.0,43.0,-13.488768577575684,24.780271530151367,-15.136717796325684,-1.975830078125,0.162353515625,0.1827392578125
6.813,296,1280,1095,308,-8.0,36.0,43.0,-8.1787109375,27.709959030151367,2.13623046875,-1.7999267578125,0.0804443359375,0.11376953125
6.821,309,1209,986,311,-8.0,36.0,43.0,5.615233898162842,32.89794921875,19.47021484375,-1.59619140625,0.0775146484375,0.044189453125
6.829,310,1122,901,310,-8.0,34.0,47.0,20.385740280151367,41.015621185302734,34.72900390625,-1.382080078125,0.238037109375,0.0262451171875
6.850,310,963,698,310,-8.0,34.0,47.0,27.709959030151367,51.391597747802734,47.790523529052734,-0.7987060546875,0.625244140625,0.135986328125
6.851,310,846,601,311,-8.0,34.0,47.0,15.747069358825684,60.180660247802734,55.053707122802734,-0.7987060546875,0.625244140625,0.135986328125
6.859,310,705,562,308,-8.0,34.0,47.0,-8.30078125,67.138671875,52.490230560302734,-0.460693359375,0.3616943359375,0.187744140625
6.873,310,582,495,310,-8.0,34.0,47.0,-19.47021484375,71.96044921875,42.846675872802734,0.0960693359375,-0.134033203125,0.138427734375
6.882,310,508,465,310,-8.0,34.0,47.0,-8.1787109375,67.81005859375,31.311033248901367,0.0960693359375,-0.134033203125,0.138427734375
6.897,310,442,457,312,-8.0,34.0,47.0,12.390135765075684,52.124019622802734,18.798828125,0.126220703125,-0.033447265625,0.1177978515625
6.906,310,379,456,310,-8.0,34.0,47.0,32.04345703125,32.28759765625,2.624511480331421,-0.3543701171875,0.5689697265625,-0.2281494140625
6.916,308,352,465,310,-8.0,34.0,47.0,46.203609466552734,17.578125,-17.4560546875,-0.3543701171875,0.5689697265625,-0.2281494140625
6.919,310,338,467,308,-8.0,34.0,47.0,45.288082122802734,8.48388671875,-33.87451171875,-0.589599609375,0.7176513671875,-0.3447265625
6.933,310,329,456,310,-12.0,38.0,49.0,31.433103561401367,2.685546636581421,-40.283199310302734,-0.79296875,0.4991455078125,-0.36572265625
6.941,310,328,449,310,-12.0,38.0,49.0,13.732909202575684,-0.9155272841453552,-40.10009765625,-0.79296875,0.4991455078125,-0.36572265625
6.949,310,329,444,310,-12.0,38.0,49.0,-4.7607421875,-4.2724609375,-39.4287109375,-0.7901611328125,0.2080078125,-0.2237548828125
6.963,308,336,452,309,-12.0,38.0,49.0,-16.54052734375,-7.995604991912842,-37.90283203125,-0.8221435546875,0.00634765625,0.0052490234375
6.971,310,336,456,308,-12.0,38.0,49.0,-16.90673828125,-11.962889671325684,-31.616209030151367,-0.8221435546875,0.00634765625,0.0052490234375
6.986,310,337,465,310,-12.0,38.0,49.0,-12.451170921325684,-15.563963890075684,-22.094724655151367,-0.8865966796875,0.0648193359375,0.037841796875
7.000,310,337,465,310,-12.0,38.0,49.0,-8.72802734375,-14.282225608825684,-3.906249761581421,-0.9891357421875,0.1790771484375,0.018310546875
7.013,309,338,465,308,-12.0,38.0,49.0,-8.72802734375,-14.282225608825684,-3.906249761581421,-0.989990234375,0.2220458984375,-0.0235595703125
7.013,308,338,465,309,-12.0,38.0,49.0,-7.080077648162842,-10.498045921325684,2.13623046875,-0.989990234375,0.2220458984375,-0.0235595703125
7.023,308,342,472,310,-7.0,37.0,45.0,-2.807616949081421,-9.58251953125,6.652831554412842,-0.912841796875,0.271240234375,-0.0452880859375
7.032,309,345,473,309,-7.0,37.0,45.0,-2.807616949081421,-9.58251953125,6.652831554412842,-0.866943359375,0.2774658203125,-0.04736328125
7.039,310,346,475,310,-7.0,37.0,45.0,-1.4648436307907104,-11.108397483825684,7.934569835662842,-0.866943359375,0.2774658203125,-0.04736328125
7.053,310,367,481,310,-7.0,37.0,45.0,-4.5166015625,-10.986327171325684,12.207030296325684,-0.7586669921875,0.205078125,-0.0584716796875
7.061,309,380,485,310,-7.0,37.0,45.0,-4.5166015625,-10.986327171325684,12.207030296325684,-0.6820068359375,0.1776123046875,-0.0645751953125
7.075,310,402,495,310,-7.0,37.0,45.0,-6.774901866912842,-9.46044921875,16.54052734375,-0.6820068359375,0.1776123046875,-0.0645751953125
7.089,309,476,513,310,-7.0,37.0,45.0,-15.747069358825684,-9.09423828125,28.625486373901367,-0.44921875,0.125,-0.1400146484375
7.091,307,548,575,310,-7.0,37.0,45.0,-15.747069358825684,-9.09423828125,28.625486373901367,-0.2435302734375,0.0960693359375,-0.1304931640625
7.111,309,622,646,310,-7.0,37.0,45.0,-24.047849655151367,-12.145995140075684,34.3017578125,-0.2435302734375,0.0960693359375,-0.1304931640625
7.115,310,806,785,310,-7.0,37.0,45.0,-32.470703125,-24.108884811401367,32.53173828125,0.277587890625,-0.10888671875,-0.145751953125
7.121,310,888,943,310,-7.0,37.0,47.0,-30.578611373901367,-35.21728515625,23.742673873901367,0.35546875,-0.24755859375,0.01611328125
7.129,310,959,1081,309,-7.0,37.0,47.0,-30.578611373901367,-35.21728515625,23.742673873901367,0.0953369140625,-0.1295166015625,0.3143310546875
7.143,310,1129,1258,310,-7.0,37.0,47.0,-3.845214605331421,-79.28466796875,1.5869139432907104,-0.4210205078125,0.16650390625,0.5521240234375
7.152,310,1217,1338,310,-7.0,37.0,47.0,9.8876953125,-84.77782440185547,-14.099120140075684,-1.033935546875,0.53076171875,0.5736083984375
7.159,311,1285,1402,310,-7.0,37.0,47.0,9.8876953125,-84.77782440185547,-14.099120140075684,-1.654296875,1.1357421875,0.1441650390625
7.173,310,1371,1518,310,-7.0,37.0,47.0,5.615233898162842,-27.954099655151367,-11.962889671325684,-2.009521484375,1.607666015625,-0.3643798828125
7.181,311,1393,1545,310,-7.0,37.0,47.0,-14.343260765075684,-18.98193359375,-16.6015625,-1.9833984375,1.363525390625,-0.1480712890625
7.210,311,1419,1572,310,-7.0,37.0,47.0,-14.343260765075684,-18.98193359375,-16.6015625,-1.91455078125,0.8651123046875,0.4197998046875
7.211,310,1437,1595,312,-7.0,37.0,47.0,-13.549803733825684,-47.546382904052734,-51.635738372802734,-2.0791015625,0.6300048828125,0.49560546875
7.212,310,1407,1533,310,-7.0,37.0,47.0,9.521484375,-43.029781341552734,-57.678218841552734,-2.2431640625,0.416748046875,0.19384765625
7.219,310,1403,1531,311,-9.0,35.0,45.0,9.521484375,-43.029781341552734,-57.678218841552734,-1.83251953125,0.116455078125,0.0263671875
7.237,310,1397,1508,312,-9.0,35.0,45.0,31.372068405151367,-12.817381858825684,-51.574703216552734,-1.34716796875,0.06591796875,0.0584716796875
7.241,311,1392,1488,311,-9.0,35.0,45.0,23.681638717651367,1.03759765625,-38.6962890625,-1.5269775390625,0.3055419921875,0.1011962890625
7.249,306,1377,1463,310,-9.0,35.0,45.0,23.681638717651367,1.03759765625,-38.6962890625,-1.9290771484375,0.40966796875,0.1351318359375
7.263,310,1316,1374,310,-9.0,35.0,45.0,-9.94873046875,25.817869186401367,-9.33837890625,-2.0819091796875,0.2861328125,0.166259765625
7.271,310,1267,1282,311,-9.0,35.0,45.0,-16.05224609375,30.395505905151367,5.615233898162842,-1.959228515625,0.1334228515625,0.14013671875
7.279,310,1219,1209,310,-9.0,35.0,45.0,-9.33837890625,32.71484375,21.484373092651367,-1.7041015625,0.0499267578125,0.0865478515625
7.293,294,1094,1001,295,-9.0,35.0,45.0,6.958007335662842,36.2548828125,35.888671875,-1.415283203125,0.08349609375,0.10302734375
7.316,310,1008,912,311,-9.0,35.0,45.0,22.399900436401367,43.945308685302734,48.278804779052734,-1.1512451171875,0.3177490234375,0.089599609375
7.319,310,929,796,309,-9.0,35.0,45.0,22.644041061401367,54.138179779052734,59.082027435302734,-0.8306884765625,0.54541015625,0.0531005859375
7.324,310,795,666,310,-10.0,36.0,45.0,3.112792730331421,60.668941497802734,64.0869140625,-0.4085693359375,0.450439453125,0.095947265625
7.332,310,716,609,310,-10.0,36.0,45.0,-17.578125,62.011714935302734,58.959957122802734,-0.068359375,0.1617431640625,0.1485595703125
7.342,309,660,572,310,-10.0,36.0,45.0,-20.141599655151367,59.692378997802734,46.752925872802734,0.074462890625,0.0716552734375,0.1544189453125
7.355,310,578,530,311,-10.0,36.0,45.0,-8.36181640625,54.016109466552734,31.249998092651367,0.0242919921875,0.2099609375,0.0997314453125
7.362,308,548,519,308,-10.0,36.0,45.0,5.981444835662842,45.227046966552734,11.352538108825684,-0.1805419921875,0.4078369140625,-0.022216796875
7.370,310,519,518,310,-10.0,36.0,45.0,15.319823265075684,34.912109375,-10.620116233825684,-0.4576416015625,0.57275390625,-0.193359375
7.384,310,479,508,310,-10.0,36.0,45.0,14.404295921325684,25.024412155151367,-28.076169967651367,-0.6651611328125,0.5875244140625,-0.313232421875
7.394,309,465,498,310,-10.0,36.0,45.0,4.638671875,15.686034202575684,-36.31591796875,-0.72412109375,0.4459228515625,-0.29541015625
7.421,310,456,499,310,-10.0,36.0,45.0,-3.356933355331421,6.896972179412842,-36.19384765625,-0.7056884765625,0.310791015625,-0.19873046875
7.422,310,456,493,310,-10.0,36.0,45.0,-4.150390625,-0.7934569716453552,-33.50830078125,-0.69873046875,0.2347412109375,-0.08447265625
7.422,310,456,496,310,-9.0,36.0,45.0,-2.25830078125,-6.042479991912842,-32.958984375,-0.7376708984375,0.1533203125,0.0166015625
7.430,310,463,502,310,-9.0,36.0,45.0,0.4882812201976776,-7.751464366912842,-32.77587890625,-0.8157958984375,0.108154296875,0.070556640625
7.450,310,465,507,310,-9.0,36.0,45.0,3.662109136581421,-7.873534679412842,-29.113767623901367,-0.902099609375,0.130859375,0.0802001953125
7.452,309,463,503,309,-9.0,36.0,45.0,3.906249761581421,-8.056640625,-21.850584030151367,-0.9578857421875,0.1688232421875,0.0643310546875
7.462,310,456,509,310,-9.0,36.0,45.0,0.9765624403953552,-6.896972179412842,-13.122557640075684,-0.9796142578125,0.1806640625,0.0306396484375
7.474,309,452,505,310,-9.0,36.0,45.0,-2.0751953125,-4.0283203125,-5.310058116912842,-0.98681640625,0.171142578125,-0.007080078125
7.482,310,449,510,310,-9.0,36.0,45.0,-3.601073980331421,-1.4038084745407104,1.15966796875,-0.9842529296875,0.17041015625,-0.03173828125
7.497,309,449,509,310,-9.0,36.0,45.0,-4.57763671875,-0.6103515625,7.080077648162842,-0.9705810546875,0.19677734375,-0.032958984375
7.518,309,454,516,310,-9.0,36.0,45.0,-6.286620616912842,-1.0986328125,12.817381858825684,-0.9595947265625,0.237548828125,-0.0142822265625
7.526,308,456,513,310,-9.0,36.0,45.0,-8.544921875,-1.220703125,17.822265625,-0.9559326171875,0.2724609375,0.007568359375
7.527,297,457,506,308,-8.0,39.0,45.0,-9.94873046875,-0.30517578125,21.789548873901367,-0.943115234375,0.289794921875,0.0145263671875
7.534,309,478,508,310,-8.0,39.0,45.0,-10.437010765075684,1.3427733182907104,25.268552780151367,-0.84228515625,0.23486328125,-0.0196533203125
7.542,309,495,506,310,-8.0,39.0,45.0,-10.864256858825684,2.807616949081421,29.418943405151367,-0.84228515625,0.23486328125,-0.0196533203125
7.580,310,521,496,310,-8.0,39.0,45.0,-11.596678733825684,2.807616949081421,35.58349609375,-0.7705078125,0.18505859375,-0.0400390625
7.582,309,574,523,309,-8.0,39.0,45.0,-12.451170921325684,0.6713866591453552,43.945308685302734,-0.456298828125,0.05029296875,-0.0992431640625
7.586,310,618,562,310,-8.0,39.0,45.0,-13.183592796325684,-1.5869139432907104,52.978511810302734,-0.456298828125,0.05029296875,-0.0992431640625
7.590,310,688,636,311,-8.0,39.0,45.0,-14.343260765075684,-2.929687261581421,61.218257904052734,-0.1090087890625,-0.008056640625,-0.1328125
7.603,310,862,737,310,-8.0,39.0,45.0,-14.160155296325684,-6.225585460662842,63.293453216552734,0.6961669921875,-0.32373046875,0.0550537109375
7.603,310,960,848,310,-8.0,39.0,45.0,-7.141112804412842,-13.916014671325684,55.847164154052734,0.6961669921875,-0.32373046875,0.0550537109375
7.629,311,1038,998,310,-8.0,39.0,45.0,9.09423828125,-29.785154342651367,43.640132904052734,0.735107421875,-0.3170166015625,0.2276611328125
7.630,310,1209,1170,312,-10.0,34.0,46.0,30.273435592651367,-55.786128997802734,25.146482467651367,-0.48095703125,0.4693603515625,0.3199462890625
7.639,310,1300,1260,310,-10.0,34.0,46.0,37.29248046875,-75.0732421875,-1.03759765625,-0.48095703125,0.4693603515625,0.3199462890625
7.640,311,1336,1365,310,-10.0,34.0,46.0,16.7236328125,-64.0869140625,-15.319823265075684,-1.3563232421875,1.11865234375,0.00390625
7.654,310,1419,1508,312,-10.0,34.0,46.0,-18.12744140625,-27.221677780151367,-6.835937023162842,-2.2994384765625,1.65185546875,-0.4268798828125
7.664,310,1444,1555,310,-10.0,34.0,46.0,-55.175777435302734,-4.150390625,-1.220703125,-2.08154296875,0.8851318359375,0.413818359375
7.670,311,1466,1569,311,-10.0,34.0,46.0,-77.1484375,-16.17431640625,-18.00537109375,-2.08154296875,0.8851318359375,0.413818359375
7.684,310,1450,1516,310,-10.0,34.0,46.0,-9.94873046875,-41.931148529052734,-37.90283203125,-2.309326171875,0.5162353515625,0.4793701171875
7.692,311,1445,1504,311,-10.0,34.0,46.0,-9.94873046875,-41.931148529052734,-37.90283203125,-1.978759765625,0.4122314453125,0.144287109375
7.702,310,1447,1500,310,-10.0,34.0,46.0,36.43798828125,-30.334470748901367,-32.40966796875,-1.978759765625,0.4122314453125,0.144287109375
7.730,310,1444,1463,311,-10.0,34.0,46.0,45.410152435302734,9.94873046875,-24.414060592651367,-1.4945068359375,0.519287109375,-0.1341552734375
7.730,310,1430,1404,311,-8.0,34.0,47.0,45.410152435302734,9.94873046875,-24.414060592651367,-1.8836669921875,0.6942138671875,-0.1416015625
7.730,311,1411,1369,312,-8.0,34.0,47.0,16.11328125,25.268552780151367,-17.9443359375,-1.8836669921875,0.6942138671875,-0.1416015625
7.744,309,1348,1286,311,-8.0,34.0,47.0,-21.057126998901367,31.311033248901367,-2.01416015625,-1.9725341796875,0.3603515625,0.161376953125
7.752,310,1286,1209,310,-8.0,34.0,47.0,-21.057126998901367,31.311033248901367,-2.01416015625,-1.7467041015625,0.174072265625,0.1341552734375
7.760,310,1239,1129,310,-8.0,34.0,47.0,-14.404295921325684,32.1044921875,7.568358898162842,-1.7467041015625,0.174072265625,0.1341552734375
7.775,310,1101,943,310,-8.0,34.0,47.0,27.893064498901367,40.0390625,29.724119186401367,-1.28125,0.2127685546875,0.00146484375
7.782,310,1000,811,310,-8.0,34.0,47.0,27.893064498901367,40.0390625,29.724119186401367,-1.065673828125,0.5108642578125,-0.0299072265625
7.790,310,913,721,310,-8.0,34.0,47.0,36.19384765625,46.813961029052734,44.433589935302734,-1.065673828125,0.5108642578125,-0.0299072265625
7.804,309,716,601,310,-8.0,34.0,47.0,-1.9531248807907104,61.645503997802734,57.495113372802734,-0.356689453125,0.556396484375,0.1182861328125
7.821,306,614,543,309,-8.0,34.0,47.0,-22.338865280151367,65.36865234375,45.227046966552734,0.0245361328125,0.24560546875,0.2115478515625
7.822,309,554,522,310,-10.0,37.0,46.0,-22.338865280151367,65.36865234375,45.227046966552734,0.2601318359375,0.1290283203125,0.2069091796875
7.834,309,453,477,310,-10.0,37.0,46.0,1.220703125,46.874996185302734,6.225585460662842,0.2218017578125,0.2467041015625,0.152587890625
7.842,309,408,465,310,-10.0,37.0,46.0,19.775390625,22.827146530151367,-18.6767578125,-0.037353515625,0.4114990234375,0.038818359375
7.850,308,380,465,309,-10.0,37.0,46.0,19.775390625,22.827146530151367,-18.6767578125,-0.3243408203125,0.4913330078125,-0.164306640625
7.864,310,363,464,310,-10.0,37.0,46.0,41.015621185302734,-2.44140625,-58.044429779052734,-0.5643310546875,0.5054931640625,-0.3590087890625
7.879,309,363,452,311,-10.0,37.0,46.0,38.9404296875,-5.737304210662842,-62.194820404052734,-0.7266845703125,0.4803466796875,-0.4249267578125
7.880,308,343,452,311,-10.0,37.0,46.0,38.9404296875,-5.737304210662842,-62.194820404052734,-0.7979736328125,0.3426513671875,-0.350830078125
7.894,310,367,447,310,-10.0,37.0,46.0,9.21630859375,-16.4794921875,-57.922359466552734,-0.810791015625,0.1531982421875,-0.20361328125
7.906,310,367,452,310,-10.0,37.0,46.0,-0.4882812201976776,-20.080564498901367,-54.687496185302734,-0.8233642578125,0.04638671875,-0.071044921875
7.910,308,369,454,310,-10.0,37.0,46.0,-0.4882812201976776,-20.080564498901367,-54.687496185302734,-0.845458984375,0.0413818359375,0.0157470703125
7.930,310,377,468,310,-8.0,36.0,41.0,2.197265625,-20.568845748901367,-41.625972747802734,-0.8753662109375,0.09033203125,0.05712890625
7.934,310,378,479,310,-8.0,36.0,41.0,2.3193359375,-18.12744140625,-32.40966796875,-0.9232177734375,0.141845703125,0.06201171875
7.940,310,377,481,310,-8.0,36.0,41.0,2.3193359375,-18.12744140625,-32.40966796875,-0.9765625,0.1751708984375,0.0537109375
7.954,308,382,483,310,-8.0,36.0,41.0,-4.33349609375,-9.70458984375,-16.29638671875,-1.0162353515625,0.199462890625,0.0496826171875
7.962,310,382,483,310,-8.0,36.0,41.0,-6.652831554412842,-6.103515148162842,-9.21630859375,-1.029541015625,0.2264404296875,0.05712890625
7.971,310,381,483,310,-8.0,36.0,41.0,-7.873534679412842,-4.7607421875,-2.13623046875,-1.007080078125,0.2567138671875,0.073974609375
7.987,310,382,488,308,-8.0,36.0,41.0,-8.11767578125,-4.94384765625,3.784179449081421,-0.962158203125,0.2725830078125,0.079345703125
7.992,310,382,494,310,-8.0,36.0,41.0,-6.713866710662842,-4.69970703125,7.507323741912842,-0.927001953125,0.2657470703125,0.0474853515625
8.000,310,387,493,310,-8.0,36.0,41.0,-4.08935546875,-3.417968511581421,10.070799827575684,-0.91064453125,0.25927734375,-0.016845703125
8.014,309,396,498,308,-11.0,39.0,46.0,-2.25830078125,-2.929687261581421,12.939452171325684,-0.8887939453125,0.2603759765625,-0.08349609375
8.031,308,408,497,309,-11.0,39.0,46.0,-2.44140625,-4.7607421875,16.4794921875,-0.8302001953125,0.2447509765625,-0.125732421875
8.031,310,434,498,310,-11.0,39.0,46.0,-4.94384765625,-8.60595703125,20.935056686401367,-0.7086181640625,0.1890869140625,-0.14306640625
8.044,308,509,523,310,-11.0,39.0,46.0,-9.21630859375,-13.183592796325684,26.977537155151367,-0.4996337890625,0.10400390625,-0.14794921875
8.052,310,578,566,310,-11.0,39.0,46.0,-12.512206077575684,-18.49365234375,34.1796875,-0.203125,0.0443115234375,-0.1275634765625
8.060,310,658,635,310,-11.0,39.0,46.0,-13.854979515075684,-24.841306686401367,39.36767578125,0.1431884765625,0.01123046875,-0.1021728515625
8.075,310,846,835,310,-11.0,39.0,46.0,-14.282225608825684,-30.334470748901367,38.39111328125,0.458984375,-0.041748046875,-0.1348876953125
8.094,309,943,984,310,-11.0,39.0,46.0,-15.014647483825684,-35.33935546875,30.090330123901367,0.5699462890625,-0.0826416015625,-0.144775390625
8.095,311,1039,1141,309,-11.0,39.0,46.0,-20.202634811401367,-48.767086029052734,16.7236328125,0.35302734375,-0.0003662109375,0.034912109375
8.111,309,1189,1338,311,-11.0,39.0,46.0,-23.620603561401367,-74.52392578125,-2.563476324081421,-0.1380615234375,0.0946044921875,0.3609619140625
8.112,310,1281,1428,309,-11.0,39.0,46.0,-15.380858421325684,-92.59032440185547,-23.925779342651367,-0.7716064453125,0.2080078125,0.6158447265625
8.136,308,1351,1488,312,-8.0,36.0,46.0,-3.295898199081421,-80.01708984375,-31.860349655151367,-1.4676513671875,0.658447265625,0.4564208984375
8.140,310,1416,1598,310,-8.0,36.0,46.0,-3.173827886581421,-46.386714935302734,-21.911619186401367,-1.94873046875,1.2720947265625,-0.0235595703125
8.143,310,1449,1666,310,-8.0,36.0,46.0,-18.98193359375,-24.597166061401367,-11.840819358825684,-1.9876708984375,1.4549560546875,-0.067626953125
8.150,309,1483,1724,310,-8.0,36.0,46.0,-34.85107421875,-28.442380905151367,-19.59228515625,-2.0086669921875,1.2047119140625,0.306396484375
8.164,310,1460,1671,311,-8.0,36.0,46.0,-32.1044921875,-39.85595703125,-40.344234466552734,-2.4217529296875,0.850341796875,0.4410400390625
8.174,310,1444,1623,312,-8.0,36.0,46.0,-10.681151390075684,-43.640132904052734,-54.443355560302734,-2.6668701171875,0.3914794921875,0.339111328125
8.180,310,1445,1595,310,-8.0,36.0,46.0,18.73779296875,-36.62109375,-52.185054779052734,-1.952880859375,-0.1043701171875,0.207763671875
8.194,310,1450,1569,311,-8.0,36.0,46.0,45.471187591552734,-20.141599655151367,-38.4521484375,-1.1434326171875,-0.1214599609375,0.1121826171875
8.202,310,1447,1536,311,-8.0,36.0,46.0,47.851558685302734,-1.15966796875,-21.423337936401367,-1.2841796875,0.3326416015625,0.0745849609375
8.213,310,1434,1504,310,-8.0,36.0,46.0,22.460935592651367,17.27294921875,-7.141112804412842,-1.8541259765625,0.599365234375,0.0640869140625
8.238,310,1387,1415,310,-6.0,34.0,50.0,-6.103515148162842,30.334470748901367,2.13623046875,-2.139404296875,0.5255126953125,0.119873046875
8.241,294,1338,1338,312,-6.0,34.0,50.0,-19.04296875,33.447265625,9.82666015625,-2.048095703125,0.36962890625,0.198486328125
8.241,310,1281,1253,310,-6.0,34.0,50.0,-14.221190452575684,31.738279342651367,19.1650390625,-1.8184814453125,0.2801513671875,0.193115234375
8.254,310,1182,1071,311,-6.0,34.0,50.0,0.7934569716453552,32.71484375,28.076169967651367,-1.55029296875,0.1539306640625,0.156494140625
8.262,310,1101,959,310,-6.0,34.0,50.0,20.080564498901367,38.818359375,34.97314453125,-1.2711181640625,0.086181640625,0.1336669921875
8.270,310,1008,874,310,-6.0,34.0,50.0,35.64453125,47.119136810302734,44.799800872802734,-1.0281982421875,0.2939453125,0.038330078125
8.284,310,858,725,310,-6.0,34.0,50.0,33.02001953125,52.795406341552734,58.044429779052734,-0.4278564453125,0.4976806640625,0.063232421875
8.292,310,764,667,311,-6.0,34.0,50.0,7.385253429412842,56.091304779052734,65.4296875,-0.4278564453125,0.4976806640625,0.063232421875
8.301,310,668,601,310,-6.0,34.0,50.0,-19.95849609375,61.340328216552734,60.729976654052734,-0.1182861328125,0.2496337890625,0.202392578125
8.329,310,593,540,310,-9.0,35.0,44.0,-26.611326217651367,66.22314453125,47.668453216552734,0.112548828125,0.07421875,0.231689453125
8.338,310,546,519,310,-9.0,35.0,44.0,-14.038084983825684,62.377925872802734,31.066892623901367,0.112548828125,0.07421875,0.231689453125
8.338,310,505,504,310,-9.0,35.0,44.0,5.554198741912842,48.400875091552734,11.596678733825684,-0.072021484375,0.2957763671875,0.0955810546875
8.344,310,441,499,310,-9.0,35.0,44.0,20.751951217651367,31.677244186401367,-9.21630859375,-0.56103515625,0.5821533203125,-0.3162841796875
8.352,310,437,503,309,-9.0,35.0,44.0,24.047849655151367,18.310546875,-26.306150436401367,-0.56103515625,0.5821533203125,-0.3162841796875
8.360,310,423,500,309,-9.0,35.0,44.0,18.73779296875,8.72802734375,-33.99658203125,-0.6571044921875,0.5322265625,-0.35009765625
8.374,309,426,488,309,-9.0,35.0,44.0,13.671874046325684,1.4648436307907104,-33.935546875,-0.7545166015625,0.3096923828125,-0.17236328125
8.382,309,423,485,309,-9.0,35.0,44.0,8.9111328125,-3.784179449081421,-32.71484375,-0.7545166015625,0.3096923828125,-0.17236328125
8.390,309,425,481,310,-9.0,35.0,44.0,2.746581792831421,-5.920409679412842,-32.65380859375,-0.82421875,0.1785888671875,-0.071533203125
8.407,309,423,490,310,-9.0,35.0,44.0,-2.624511480331421,-5.737304210662842,-31.982419967651367,-0.9241943359375,0.057861328125,0.0908203125
8.435,310,428,485,310,-6.0,35.0,45.0,-5.615233898162842,-5.0048828125,-27.465818405151367,-0.9241943359375,0.057861328125,0.0908203125
8.442,310,426,486,310,-6.0,35.0,45.0,-5.981444835662842,-4.57763671875,-17.76123046875,-0.9559326171875,0.099853515625,0.118408203125
8.442,310,423,491,310,-6.0,35.0,45.0,-6.835937023162842,-3.723144292831421,5.0048828125,-0.9754638671875,0.192626953125,0.09521484375
8.446,309,423,493,309,-6.0,35.0,45.0,-6.835937023162842,-3.723144292831421,5.0048828125,-0.963623046875,0.2398681640625,0.053955078125
8.450,310,428,493,310,-6.0,35.0,45.0,-5.920409679412842,-1.8310545682907104,12.390135765075684,-0.963623046875,0.2398681640625,0.053955078125
8.464,309,433,497,310,-6.0,35.0,45.0,-1.03759765625,0.8544921278953552,18.310546875,-0.926025390625,0.328857421875,-0.04931640625
8.472,308,437,502,310,-6.0,35.0,45.0,-1.03759765625,0.8544921278953552,18.310546875,-0.892822265625,0.3255615234375,-0.086181640625
8.481,309,447,497,308,-6.0,35.0,45.0,-0.8544921278953552,0.30517578125,19.775390625,-0.892822265625,0.3255615234375,-0.086181640625
8.494,309,465,503,309,-6.0,35.0,45.0,-7.690429210662842,-3.723144292831421,24.414060592651367,-0.7880859375,0.2796630859375,-0.07275390625
8.506,310,481,508,310,-6.0,35.0,45.0,-7.690429210662842,-3.723144292831421,24.414060592651367,-0.6934814453125,0.2237548828125,-0.0709228515625
8.521,310,508,512,310,-12.0,36.0,48.0,-13.610838890075684,-5.126952648162842,27.343748092651367,-0.6934814453125,0.2237548828125,-0.0709228515625
8.524,310,579,575,311,-12.0,36.0,48.0,-27.282712936401367,-2.990722417831421,37.65869140625,-0.35986328125,0.0924072265625,-0.0941162109375
8.540,310,646,614,310,-12.0,36.0,48.0,-27.282712936401367,-2.990722417831421,37.65869140625,-0.09814453125,0.0496826171875,-0.0819091796875
8.540,310,739,713,310,-12.0,36.0,48.0,-32.470703125,-2.25830078125,43.273921966552734,-0.09814453125,0.0496826171875,-0.0819091796875
8.554,310,918,886,310,-12.0,36.0,48.0,-18.1884765625,-12.451170921325684,37.65869140625,0.5703125,-0.14794921875,0.0133056640625
8.562,310,996,1029,310,-12.0,36.0,48.0,-18.1884765625,-12.451170921325684,37.65869140625,0.6033935546875,-0.1326904296875,0.23095703125
8.570,310,1071,1162,311,-12.0,36.0,48.0,0.9155272841453552,-36.865234375,20.996091842651367,0.6033935546875,-0.1326904296875,0.23095703125
8.587,310,1251,1344,310,-12.0,36.0,48.0,25.512693405151367,-87.03612518310547,-29.602048873901367,-0.647216796875,0.3099365234375,0.4473876953125
8.592,310,1340,1403,311,-12.0,36.0,48.0,8.23974609375,-64.5751953125,-28.930662155151367,-1.4755859375,0.97021484375,0.0509033203125
8.600,311,1393,1486,310,-12.0,36.0,48.0,8.23974609375,-64.5751953125,-28.930662155151367,-2.146484375,1.603515625,-0.4775390625
8.629,310,1447,1573,310,-5.0,36.0,51.0,-54.382320404052734,-9.1552734375,-5.676269054412842,-2.192626953125,1.4478759765625,-0.255615234375
8.629,310,1437,1611,310,-5.0,36.0,51.0,-64.94140625,-25.268552780151367,-21.423337936401367,-1.8687744140625,0.799072265625,0.4927978515625
8.655,296,1488,1628,310,-5.0,36.0,51.0,-64.94140625,-25.268552780151367,-21.423337936401367,-1.841064453125,0.556884765625,0.7562255859375
8.655,310,1486,1595,312,-5.0,36.0,51.0,8.23974609375,-49.926753997802734,-38.63525390625,-2.11083984375,0.632568359375,0.439453125
