time,compression0,compression1,compression2,compression3,magn_x,magn_y,magn_z,gyro_x,gyro_y,gyro_z,accel_x,accel_y,accel_z
0.003,310,317,393,310,2.0,43.0,38.0,9.521484375,5.798339366912842,-8.544921875,-0.9049072265625,0.3165283203125,0.0477294921875
0.012,310,322,394,310,2.0,43.0,38.0,9.70458984375,7.080077648162842,-9.21630859375,-0.9002685546875,0.3145751953125,0.0418701171875
0.020,310,322,391,310,2.0,43.0,38.0,9.70458984375,7.080077648162842,-9.21630859375,-0.900146484375,0.3150634765625,0.039794921875
0.040,311,326,393,310,5.0,42.0,33.0,10.009765625,8.48388671875,-11.657713890075684,-0.9024658203125,0.312255859375,0.041259765625
0.042,310,330,394,310,5.0,42.0,33.0,11.413573265075684,8.36181640625,-13.183592796325684,-0.9093017578125,0.3101806640625,0.0401611328125
0.049,310,331,391,310,5.0,42.0,33.0,11.413573265075684,8.36181640625,-13.183592796325684,-0.9237060546875,0.316162109375,0.03076171875
0.063,309,336,391,310,5.0,42.0,33.0,14.099120140075684,7.629394054412842,-16.6015625,-0.9412841796875,0.3275146484375,0.0126953125
0.091,310,337,391,309,5.0,42.0,33.0,12.756346702575684,7.446288585662842,-18.310546875,-0.958740234375,0.3336181640625,-0.008056640625
0.091,308,338,396,309,5.0,42.0,33.0,12.756346702575684,7.446288585662842,-18.310546875,-0.970947265625,0.330810546875,-0.0242919921875
0.100,297,331,402,310,5.0,42.0,33.0,5.371093273162842,7.690429210662842,-20.690916061401367,-0.9739990234375,0.3216552734375,-0.03173828125
0.101,310,346,401,310,5.0,42.0,33.0,1.2817381620407104,8.056640625,-21.240232467651367,-0.9696044921875,0.307373046875,-0.03076171875
0.109,310,331,402,310,5.0,42.0,33.0,-1.9531248807907104,8.1787109375,-21.484373092651367,-0.95947265625,0.2889404296875,-0.0240478515625
0.124,310,336,408,310,3.0,40.0,34.0,-3.662109136581421,7.629394054412842,-21.301267623901367,-0.945556640625,0.2694091796875,-0.015625
0.132,311,336,410,310,3.0,40.0,34.0,-3.356933355331421,6.347655773162842,-20.690916061401367,-0.932861328125,0.2525634765625,-0.009033203125
0.139,310,331,414,310,3.0,40.0,34.0,-1.15966796875,4.33349609375,-19.775390625,-0.9263916015625,0.2421875,-0.0045166015625
0.154,310,337,415,310,3.0,40.0,34.0,2.197265625,1.7700194120407104,-18.798828125,-0.9267578125,0.239501953125,-0.001953125
0.163,310,340,414,308,3.0,40.0,34.0,5.737304210662842,-0.9765624403953552,-17.822265625,-0.9312744140625,0.2442626953125,-0.0040283203125
0.169,310,338,413,310,3.0,40.0,34.0,8.36181640625,-3.356933355331421,-16.845703125,-0.9349365234375,0.2548828125,-0.0125732421875
0.197,310,338,413,310,3.0,40.0,34.0,8.97216796875,-4.94384765625,-15.747069358825684,-0.9371337890625,0.2652587890625,-0.025634765625
0.197,309,341,411,289,3.0,40.0,34.0,6.713866710662842,-5.798339366912842,-14.648436546325684,-0.94287109375,0.265625,-0.03662109375
0.199,309,338,413,310,3.0,40.0,34.0,2.38037109375,-6.103515148162842,-13.488768577575684,-0.947998046875,0.25634765625,-0.0369873046875
0.213,310,341,413,312,3.0,40.0,34.0,-1.8920897245407104,-6.530761241912842,-12.512206077575684,-0.9478759765625,0.2486572265625,-0.0233154296875
0.221,310,343,414,310,4.0,40.0,41.0,-4.94384765625,-7.324218273162842,-11.901854515075684,-0.9442138671875,0.244140625,-0.002685546875
0.235,310,345,415,310,4.0,40.0,41.0,-6.774901866912842,-8.7890625,-11.962889671325684,-0.9398193359375,0.2362060546875,0.0185546875
0.244,310,349,415,310,4.0,40.0,41.0,-7.080077648162842,-10.742186546325684,-12.817381858825684,-0.935302734375,0.2257080078125,0.0400390625
0.253,310,345,418,310,4.0,40.0,41.0,-5.249022960662842,-12.939452171325684,-14.099120140075684,-0.933349609375,0.220703125,0.0574951171875
0.265,311,354,424,310,4.0,40.0,41.0,-2.01416015625,-15.014647483825684,-15.319823265075684,-0.9393310546875,0.2281494140625,0.059814453125
0.273,310,354,420,310,4.0,40.0,41.0,0.8544921278953552,-16.66259765625,-15.991209983825684,-0.95068359375,0.2447509765625,0.0380859375
0.301,310,359,425,310,4.0,40.0,41.0,0.7324218153953552,-17.333984375,-15.991209983825684,-0.9595947265625,0.2564697265625,0.0030517578125
0.304,310,363,427,310,4.0,40.0,41.0,-2.868652105331421,-16.54052734375,-15.441893577575684,-0.961669921875,0.25830078125,-0.0208740234375
0.307,308,361,427,310,4.0,40.0,41.0,-8.30078125,-14.953612327575684,-14.587401390075684,-0.95166015625,0.2574462890625,-0.0233154296875
0.312,308,379,433,311,4.0,40.0,41.0,-13.305663108825684,-13.671874046325684,-13.977049827575684,-0.929443359375,0.252197265625,-0.0128173828125
0.324,310,391,439,310,6.0,38.0,40.0,-16.05224609375,-13.793944358825684,-14.221190452575684,-0.906982421875,0.24072265625,0.0001220703125
0.340,310,398,452,310,6.0,38.0,40.0,-15.686034202575684,-16.05224609375,-14.831542015075684,-0.869384765625,0.228515625,0.0238037109375
0.342,310,402,468,311,6.0,38.0,40.0,-13.427733421325684,-20.263669967651367,-15.014647483825684,-0.869384765625,0.228515625,0.0238037109375
0.350,310,411,494,310,6.0,38.0,40.0,-11.474608421325684,-25.268552780151367,-14.404295921325684,-0.85986328125,0.216796875,0.041748046875
0.369,310,433,522,310,6.0,38.0,40.0,-11.413573265075684,-30.029294967651367,-12.817381858825684,-0.8587646484375,0.192138671875,0.08056640625
0.372,310,447,533,310,6.0,38.0,40.0,-13.610838890075684,-33.69140625,-10.375975608825684,-0.8587646484375,0.192138671875,0.08056640625
0.380,310,465,548,311,6.0,38.0,40.0,-17.578125,-35.46142578125,-7.202147960662842,-0.8431396484375,0.1680908203125,0.0877685546875
0.397,308,488,576,310,6.0,38.0,40.0,-21.667478561401367,-35.64453125,-4.33349609375,-0.7310791015625,0.08056640625,0.0860595703125
0.402,310,504,601,309,6.0,38.0,40.0,-22.949216842651367,-35.400390625,-2.38037109375,-0.7310791015625,0.08056640625,0.0860595703125
0.410,310,516,644,311,6.0,38.0,40.0,-19.8974609375,-36.19384765625,-1.0986328125,-0.656982421875,0.07470703125,0.0718994140625
0.424,310,547,716,311,6.0,36.0,44.0,-15.380858421325684,-39.0625,0.0610351525247097,-0.5872802734375,0.1947021484375,-0.00146484375
0.438,310,564,782,312,6.0,36.0,44.0,-15.808104515075684,-44.860836029052734,0.4882812201976776,-0.5872802734375,0.1947021484375,-0.00146484375
0.444,310,590,846,311,6.0,36.0,44.0,-26.672361373901367,-52.856441497802734,-1.03759765625,-0.567138671875,0.2474365234375,-0.0234375
0.459,312,650,935,311,6.0,36.0,44.0,-45.593257904052734,-59.204097747802734,-3.906249761581421,-0.5244140625,0.1800537109375,0.0201416015625
0.498,310,688,989,312,6.0,36.0,44.0,-62.622066497802734,-60.241695404052734,-6.408690929412842,-0.5244140625,0.1800537109375,0.0201416015625
0.499,312,700,1039,312,6.0,36.0,44.0,-67.0166015625,-55.725093841552734,-7.629394054412842,-0.58642578125,0.19091796875,0.0380859375
0.499,310,780,1118,312,6.0,36.0,44.0,-45.410152435302734,-45.471187591552734,-11.230467796325684,-0.9381103515625,0.5711669921875,0.1207275390625
0.500,310,813,1148,298,6.0,36.0,44.0,-45.410152435302734,-45.471187591552734,-11.230467796325684,-1.1612548828125,0.673095703125,0.18017578125
0.500,310,840,1263,312,6.0,36.0,44.0,-49.560543060302734,-41.931148529052734,-19.287109375,-1.1612548828125,0.673095703125,0.18017578125
0.509,310,875,1380,312,6.0,36.0,44.0,-69.4580078125,-37.9638671875,-29.357908248901367,-1.51220703125,0.617919921875,0.2515869140625
0.523,312,927,1462,312,9.0,36.0,36.0,-98.57176971435547,-36.1328125,-37.78076171875,-2.058837890625,-0.540283203125,0.5419921875
0.531,311,932,1483,312,9.0,36.0,36.0,-117.30956268310547,-35.64453125,-38.6962890625,-2.058837890625,-0.540283203125,0.5419921875
0.541,310,936,1484,312,9.0,36.0,36.0,-91.97997283935547,-32.71484375,-22.033689498901367,-1.8148193359375,-0.744140625,0.583251953125
0.554,310,947,1471,314,9.0,36.0,36.0,32.958984375,-22.888181686401367,30.273435592651367,-1.0455322265625,0.3924560546875,0.4393310546875
0.561,310,947,1478,312,9.0,36.0,36.0,32.958984375,-22.888181686401367,30.273435592651367,-0.8719482421875,0.724609375,0.345703125
0.580,311,954,1486,312,9.0,36.0,36.0,49.011226654052734,-11.047362327575684,31.249998092651367,-0.8719482421875,0.724609375,0.345703125
0.602,310,944,1503,313,9.0,36.0,36.0,13.061522483825684,20.080564498901367,-10.864256858825684,-0.9599609375,0.5758056640625,0.154052734375
0.602,312,944,1514,312,9.0,36.0,36.0,13.061522483825684,20.080564498901367,-10.864256858825684,-1.0579833984375,0.395263671875,0.1488037109375
0.603,310,944,1521,313,9.0,36.0,36.0,1.7089842557907104,28.442380905151367,-29.663084030151367,-1.0579833984375,0.395263671875,0.1488037109375
0.613,311,932,1538,312,9.0,36.0,36.0,-13.793944358825684,32.5927734375,-41.320796966552734,-1.425537109375,0.230712890625,0.2939453125
0.621,310,920,1538,314,9.0,36.0,41.0,-13.793944358825684,32.5927734375,-41.320796966552734,-1.520751953125,0.134033203125,0.33203125
0.647,312,907,1531,312,9.0,36.0,41.0,-28.686521530151367,33.935546875,-39.12353515625,-1.520751953125,0.134033203125,0.33203125
0.647,310,873,1508,312,9.0,36.0,41.0,-33.87451171875,31.494138717651367,-24.963376998901367,-1.4161376953125,0.083984375,0.2919921875
0.679,310,854,1472,313,9.0,36.0,41.0,-33.87451171875,31.494138717651367,-24.963376998901367,-1.337158203125,0.12158203125,0.253173828125
0.680,311,827,1437,312,9.0,36.0,41.0,-24.291990280151367,26.184080123901367,-15.624999046325684,-1.337158203125,0.12158203125,0.253173828125
0.682,311,766,1351,312,9.0,36.0,41.0,-15.197752952575684,19.34814453125,-2.25830078125,-1.2408447265625,0.224853515625,0.1427001953125
0.683,308,730,1275,312,9.0,36.0,41.0,-15.197752952575684,19.34814453125,-2.25830078125,-1.1888427734375,0.2882080078125,0.1273193359375
0.705,310,685,1199,311,9.0,36.0,41.0,-14.404295921325684,18.06640625,-0.9155272841453552,-1.1888427734375,0.2882080078125,0.1273193359375
0.705,310,601,1029,312,9.0,36.0,41.0,-11.657713890075684,24.291990280151367,-10.437010765075684,-0.9559326171875,0.276123046875,0.1165771484375
0.712,310,552,912,314,9.0,36.0,41.0,-7.507323741912842,32.3486328125,-19.59228515625,-0.7900390625,0.0977783203125,0.140380859375
0.719,310,497,796,312,12.0,34.0,38.0,-7.507323741912842,32.3486328125,-19.59228515625,-0.656005859375,-0.1435546875,0.1845703125
0.733,310,431,634,310,12.0,34.0,38.0,45.654293060302734,54.565425872802734,-29.785154342651367,-0.59521484375,-0.3470458984375,0.2078857421875
0.748,310,394,564,298,12.0,34.0,38.0,87.52440643310547,65.24658203125,-27.893064498901367,-0.565185546875,-0.3546142578125,0.1646728515625
0.750,310,382,524,310,12.0,34.0,38.0,87.52440643310547,65.24658203125,-27.893064498901367,-0.5194091796875,-0.1923828125,0.096435546875
0.763,310,387,441,310,12.0,34.0,38.0,106.38426971435547,66.2841796875,-19.59228515625,-0.525390625,0.02001953125,0.0325927734375
0.806,310,384,432,310,12.0,34.0,38.0,85.02196502685547,55.053707122802734,-15.869139671325684,-0.5938720703125,0.17919921875,-0.0174560546875
0.807,310,372,410,310,12.0,34.0,38.0,85.02196502685547,55.053707122802734,-15.869139671325684,-0.6417236328125,0.248046875,-0.0244140625
0.808,309,373,402,298,12.0,34.0,38.0,40.222164154052734,30.090330123901367,-5.310058116912842,-0.636474609375,0.2452392578125,0.0076904296875
0.809,310,379,407,310,12.0,34.0,38.0,23.681638717651367,18.6767578125,-0.1831054538488388,-0.6396484375,0.2000732421875,0.052734375
0.812,308,384,408,310,12.0,34.0,38.0,23.681638717651367,18.6767578125,-0.1831054538488388,-0.7030029296875,0.1456298828125,0.091796875
0.824,309,394,421,308,9.0,36.0,38.0,13.427733421325684,-0.7934569716453552,3.112792730331421,-0.7904052734375,0.111572265625,0.1002197265625
0.832,308,401,423,310,9.0,36.0,38.0,20.874021530151367,-4.7607421875,3.173827886581421,-0.838134765625,0.1153564453125,0.06689453125
0.840,309,409,428,309,9.0,36.0,38.0,28.930662155151367,-4.57763671875,2.44140625,-0.8521728515625,0.1488037109375,0.03857421875
0.855,311,419,438,309,9.0,36.0,38.0,30.578611373901367,-4.57763671875,0.4882812201976776,-0.86474609375,0.16748046875,0.0767822265625
0.864,308,428,439,308,9.0,36.0,38.0,25.573728561401367,-6.591796398162842,-2.01416015625,-0.86474609375,0.1558837890625,0.1453857421875
0.870,309,441,449,312,9.0,36.0,38.0,18.9208984375,-8.85009765625,-4.08935546875,-0.85302734375,0.1231689453125,0.162353515625
0.909,311,481,465,310,9.0,36.0,38.0,14.465331077575684,-10.375975608825684,-5.126952648162842,-0.846435546875,0.072021484375,0.11669921875
0.910,309,479,477,310,9.0,36.0,38.0,12.451170921325684,-12.451170921325684,-4.0283203125,-0.84765625,0.028076171875,0.044189453125
0.921,310,509,502,295,9.0,36.0,38.0,11.230467796325684,-16.90673828125,-0.6713866591453552,-0.8363037109375,0.01513671875,-0.0150146484375
0.925,310,523,561,310,9.0,34.0,37.0,7.934569835662842,-24.291990280151367,2.624511480331421,-0.7908935546875,0.04345703125,-0.046142578125
0.927,310,564,616,310,9.0,34.0,37.0,-1.7089842557907104,-33.14208984375,3.356933355331421,-0.72216796875,0.1090087890625,-0.0650634765625
0.930,310,572,702,311,9.0,34.0,37.0,-20.446775436401367,-41.320796966552734,1.03759765625,-0.625732421875,0.177978515625,-0.085205078125
0.952,310,639,917,312,9.0,34.0,37.0,-48.339839935302734,-47.302242279052734,-2.990722417831421,-0.4849853515625,0.236328125,-0.133056640625
0.952,310,665,1064,312,9.0,34.0,37.0,-84.83885955810547,-50.964351654052734,-6.774901866912842,-0.32958984375,0.2750244140625,-0.2066650390625
0.961,310,710,1204,312,9.0,34.0,37.0,-127.01415252685547,-54.382320404052734,-9.033203125,-0.2830810546875,0.2386474609375,-0.2012939453125
0.982,311,794,1457,312,9.0,34.0,37.0,-159.1796875,-59.570308685302734,-9.6435546875,-0.439697265625,0.1363525390625,-0.0233154296875
0.983,311,835,1559,312,9.0,34.0,37.0,-163.20799255371094,-63.537593841552734,-10.925292015075684,-0.72265625,-0.0499267578125,0.26953125
0.990,312,875,1611,312,9.0,34.0,37.0,-141.41845703125,-59.631343841552734,-15.502928733825684,-0.989501953125,-0.3499755859375,0.5504150390625
1.017,311,944,1667,314,9.0,34.0,37.0,-101.13524627685547,-44.616695404052734,-18.37158203125,-1.1492919921875,-0.53173828125,0.718505859375
1.017,311,982,1683,313,9.0,34.0,37.0,-42.297359466552734,-21.789548873901367,-13.122557640075684,-1.2554931640625,-0.3409423828125,0.664306640625
1.020,311,1017,1701,312,7.0,34.0,39.0,18.4326171875,-0.9155272841453552,-2.44140625,-1.4300537109375,0.1480712890625,0.431884765625
1.034,310,1074,1757,313,7.0,34.0,39.0,52.062984466552734,7.385253429412842,5.676269054412842,-1.67333984375,0.587158203125,0.244384765625
1.042,312,1101,1782,312,7.0,34.0,39.0,49.438472747802734,1.9531248807907104,6.408690929412842,-1.9259033203125,0.6893310546875,0.1917724609375
1.054,310,1101,1782,314,7.0,34.0,39.0,26.123044967651367,-7.080077648162842,1.7089842557907104,-2.07861328125,0.4285888671875,0.213623046875
1.067,311,1078,1745,313,7.0,34.0,39.0,6.042479991912842,-9.765625,-2.44140625,-1.8953857421875,0.023193359375,0.2003173828125
1.072,310,1051,1718,310,7.0,34.0,39.0,8.056640625,-3.967284917831421,-2.01416015625,-1.3575439453125,-0.1695556640625,0.13916015625
1.086,311,1048,1721,314,7.0,34.0,39.0,34.24072265625,3.051757574081421,-1.0986328125,-0.9439697265625,0.0584716796875,0.125244140625
1.114,312,1039,1739,312,7.0,34.0,39.0,55.114742279052734,6.469726085662842,-6.835937023162842,-1.2900390625,0.5091552734375,0.2388916015625
1.115,309,1035,1743,312,7.0,34.0,39.0,39.12353515625,12.329100608825684,-18.98193359375,-1.2900390625,0.5091552734375,0.2388916015625
1.115,310,1026,1742,314,7.0,34.0,39.0,-6.164550304412842,22.888181686401367,-30.334470748901367,-1.6334228515625,0.33154296875,0.2880859375
1.125,310,987,1708,314,13.0,34.0,33.0,-46.325679779052734,31.616209030151367,-33.87451171875,-1.5927734375,-0.1544189453125,0.268310546875
1.132,311,966,1676,314,13.0,34.0,33.0,-53.466793060302734,32.89794921875,-27.770994186401367,-1.5927734375,-0.1544189453125,0.268310546875
1.154,310,931,1618,312,13.0,34.0,33.0,-34.3017578125,26.550291061401367,-15.624999046325684,-1.4443359375,-0.0697021484375,0.2171630859375
1.158,310,864,1503,312,13.0,34.0,33.0,-15.930174827575684,16.357421875,-2.807616949081421,-1.2891845703125,0.0751953125,0.10791015625
1.164,311,826,1422,312,13.0,34.0,33.0,-9.58251953125,7.629394054412842,7.385253429412842,-1.2891845703125,0.0751953125,0.10791015625
1.173,310,793,1340,313,13.0,34.0,33.0,-8.72802734375,2.44140625,14.892577171325684,-1.2720947265625,0.09375,0.0611572265625
1.188,310,698,1143,310,13.0,34.0,33.0,-5.310058116912842,-1.0986328125,19.4091796875,-1.078857421875,0.1373291015625,0.141845703125
1.192,310,646,1003,312,13.0,34.0,33.0,3.356933355331421,-1.8920897245407104,19.71435546875,-1.078857421875,0.1373291015625,0.141845703125
1.212,310,590,871,312,13.0,34.0,33.0,13.122557640075684,3.417968511581421,15.869139671325684,-0.869384765625,0.0821533203125,0.2122802734375
1.214,308,503,689,310,12.0,34.0,33.0,24.047849655151367,15.136717796325684,9.21630859375,-0.546875,-0.25439453125,0.2139892578125
1.235,312,451,620,310,12.0,34.0,33.0,44.250484466552734,32.16552734375,2.868652105331421,-0.546875,-0.25439453125,0.2139892578125
1.235,296,415,562,310,12.0,34.0,33.0,73.66943359375,50.964351654052734,-0.9765624403953552,-0.4820556640625,-0.3333740234375,0.1500244140625
1.245,310,393,475,310,12.0,34.0,33.0,105.40770721435547,68.66455078125,-3.845214605331421,-0.4266357421875,-0.0673828125,-0.005615234375
1.260,309,380,451,310,12.0,34.0,33.0,105.40770721435547,68.66455078125,-3.845214605331421,-0.4869384765625,0.1541748046875,-0.095458984375
1.265,310,349,414,310,12.0,34.0,33.0,94.97069549560547,61.157222747802734,-4.150390625,-0.4869384765625,0.1541748046875,-0.095458984375
1.275,309,367,415,309,12.0,34.0,33.0,53.955074310302734,25.268552780151367,2.50244140625,-0.544921875,0.4102783203125,-0.114990234375
1.296,310,364,411,310,12.0,34.0,33.0,53.955074310302734,25.268552780151367,2.50244140625,-0.5908203125,0.395751953125,0.0159912109375
1.296,309,371,419,308,12.0,34.0,33.0,27.282712936401367,5.371093273162842,6.713866710662842,-0.5908203125,0.395751953125,0.0159912109375
1.307,308,382,437,310,12.0,34.0,33.0,-14.587401390075684,-16.9677734375,7.751464366912842,-0.7611083984375,0.12841796875,0.2857666015625
1.321,309,387,439,311,11.0,37.0,38.0,-14.587401390075684,-16.9677734375,7.751464366912842,-0.7808837890625,-0.0035400390625,0.2777099609375
1.321,310,396,438,312,11.0,37.0,38.0,-11.962889671325684,-13.244627952575684,2.44140625,-0.7808837890625,-0.0035400390625,0.2777099609375
1.339,308,420,451,311,11.0,37.0,38.0,24.841306686401367,-3.662109136581421,-4.150390625,-0.81103515625,0.021728515625,0.0753173828125
1.342,308,439,452,310,11.0,37.0,38.0,24.841306686401367,-3.662109136581421,-4.150390625,-0.8209228515625,0.1015625,0.034423828125
1.350,310,454,454,310,11.0,37.0,38.0,37.109375,-7.690429210662842,-0.54931640625,-0.8209228515625,0.1015625,0.034423828125
1.368,310,490,454,310,11.0,37.0,38.0,28.991697311401367,-22.949216842651367,7.995604991912842,-0.869140625,0.159912109375,0.08544921875
1.372,310,508,465,308,11.0,37.0,38.0,28.991697311401367,-22.949216842651367,7.995604991912842,-0.911376953125,0.1058349609375,0.1085205078125
1.380,310,530,473,311,11.0,37.0,38.0,15.136717796325684,-27.587888717651367,8.97216796875,-0.911376953125,0.1058349609375,0.1085205078125
1.394,310,566,504,310,11.0,37.0,38.0,1.4038084745407104,-33.26416015625,7.263183116912842,-0.8638916015625,-0.01416015625,0.0655517578125
1.427,310,594,566,311,11.0,37.0,38.0,-4.57763671875,-38.0859375,6.408690929412842,-0.7615966796875,-0.008056640625,0.017578125
1.427,310,612,644,311,10.0,35.0,43.0,-4.57763671875,-38.0859375,6.408690929412842,-0.5977783203125,0.049560546875,-0.0263671875
1.428,310,636,840,312,10.0,35.0,43.0,-37.9638671875,-58.776851654052734,-2.44140625,-0.41259765625,0.1595458984375,-0.1397705078125
1.432,311,683,1022,310,10.0,35.0,43.0,-83.61815643310547,-68.84765625,-11.779784202575684,-0.3223876953125,0.2401123046875,-0.302001953125
1.440,312,712,1157,313,10.0,35.0,43.0,-83.61815643310547,-68.84765625,-11.779784202575684,-0.3770751953125,0.2039794921875,-0.317138671875
1.454,310,766,1416,312,10.0,35.0,43.0,-218.99412536621094,-71.4111328125,-13.732909202575684,-0.5284423828125,0.034423828125,-0.0308837890625
1.464,311,813,1512,313,10.0,35.0,43.0,-233.94773864746094,-67.3828125,-8.056640625,-0.740966796875,-0.175537109375,0.3570556640625
1.473,310,864,1575,313,10.0,35.0,43.0,-233.94773864746094,-67.3828125,-8.056640625,-0.9539794921875,-0.2965087890625,0.615234375
1.484,312,935,1646,312,10.0,35.0,43.0,-121.88719940185547,-36.92626953125,-10.437010765075684,-1.100341796875,-0.2618408203125,0.72900390625
1.496,311,969,1678,314,10.0,35.0,43.0,-50.720211029052734,-20.202634811401367,-9.82666015625,-1.2542724609375,-0.0108642578125,0.6812744140625
1.500,311,1010,1704,314,10.0,35.0,43.0,-50.720211029052734,-20.202634811401367,-9.82666015625,-1.4644775390625,0.3463134765625,0.554443359375
1.523,310,1078,1750,313,14.0,33.0,34.0,17.9443359375,-6.469726085662842,-2.563476324081421,-1.6895751953125,0.525390625,0.5
1.524,298,1112,1774,314,14.0,33.0,34.0,11.779784202575684,-10.803221702575684,-3.784179449081421,-1.87255859375,0.3421630859375,0.5185546875
1.532,310,1129,1778,314,14.0,33.0,34.0,11.779784202575684,-10.803221702575684,-3.784179449081421,-1.9459228515625,-0.00927734375,0.484375
1.544,312,1123,1721,312,14.0,33.0,34.0,29.174802780151367,-7.019042491912842,-9.27734375,-1.7559814453125,-0.180419921875,0.3223876953125
1.552,309,1104,1695,313,14.0,33.0,34.0,55.908199310302734,4.94384765625,-6.225585460662842,-1.2974853515625,-0.114013671875,0.1295166015625
1.565,312,1091,1682,313,14.0,33.0,34.0,77.1484375,15.441893577575684,-3.540038824081421,-0.97509765625,0.142578125,0.0269775390625
1.574,310,1087,1704,312,14.0,33.0,34.0,75.98876953125,18.9208984375,-5.981444835662842,-1.0177001953125,0.3743896484375,0.0360107421875
1.586,309,1076,1711,313,14.0,33.0,34.0,41.992183685302734,16.9677734375,-12.634276390075684,-1.325439453125,0.3941650390625,0.11181640625
1.602,311,1056,1718,314,14.0,33.0,34.0,-9.58251953125,13.854979515075684,-17.9443359375,-1.638916015625,0.2177734375,0.1788330078125
1.604,310,1029,1700,314,14.0,33.0,34.0,-51.147457122802734,11.169432640075684,-16.7236328125,-1.7110595703125,-0.052978515625,0.2144775390625
1.625,310,1000,1678,312,13.0,32.0,37.0,-62.072750091552734,7.202147960662842,-8.48388671875,-1.59423828125,-0.1888427734375,0.254150390625
1.625,311,964,1640,313,13.0,32.0,37.0,-47.607418060302734,0.54931640625,3.479003667831421,-1.427001953125,-0.114013671875,0.3272705078125
1.639,310,912,1546,313,13.0,32.0,37.0,-29.296873092651367,-5.187987804412842,14.526366233825684,-1.3004150390625,0.0189208984375,0.4022216796875
1.642,310,873,1478,311,13.0,32.0,37.0,-18.49365234375,-3.967284917831421,20.996091842651367,-1.25244140625,0.13232421875,0.427001953125
1.650,308,833,1409,312,13.0,32.0,37.0,-13.183592796325684,5.554198741912842,21.911619186401367,-1.2366943359375,0.221923828125,0.395263671875
1.668,310,764,1239,312,13.0,32.0,37.0,-9.27734375,17.7001953125,18.5546875,-1.18701171875,0.223876953125,0.3521728515625
1.676,310,710,1120,312,13.0,32.0,37.0,-0.7324218153953552,26.794431686401367,12.634276390075684,-1.0894775390625,0.1749267578125,0.2945556640625
1.685,310,651,973,312,13.0,32.0,37.0,14.465331077575684,32.2265625,6.103515148162842,-0.9425048828125,0.05517578125,0.2301025390625
1.701,310,551,766,311,13.0,32.0,37.0,34.85107421875,37.04833984375,0.1831054538488388,-0.7781982421875,-0.16357421875,0.1807861328125
1.702,310,477,657,310,13.0,32.0,37.0,64.3310546875,45.959468841552734,-2.685546636581421,-0.672607421875,-0.3551025390625,0.112548828125
1.730,310,415,590,310,12.0,33.0,36.0,101.31835174560547,60.424800872802734,0.1831054538488388,-0.637451171875,-0.455078125,0.0628662109375
1.730,311,369,499,310,12.0,33.0,36.0,135.7421875,75.8056640625,7.873534679412842,-0.5340576171875,-0.39794921875,-0.0023193359375
1.732,310,367,441,309,12.0,33.0,36.0,152.77099609375,84.77782440185547,14.160155296325684,-0.4073486328125,-0.13134765625,-0.1385498046875
1.746,309,364,424,310,12.0,33.0,36.0,137.20703125,79.7119140625,14.587401390075684,-0.385009765625,0.17822265625,-0.2353515625
1.754,310,367,399,310,12.0,33.0,36.0,95.64208221435547,61.462398529052734,13.610838890075684,-0.3846435546875,0.3564453125,-0.191650390625
1.762,309,364,398,310,12.0,33.0,36.0,52.673336029052734,38.9404296875,15.869139671325684,-0.3892822265625,0.4239501953125,-0.032470703125
1.771,308,370,408,310,12.0,33.0,36.0,21.667478561401367,16.2353515625,20.690916061401367,-0.45263671875,0.4324951171875,0.140869140625
1.788,310,370,415,308,12.0,33.0,36.0,2.0751953125,-4.150390625,24.169919967651367,-0.5504150390625,0.3665771484375,0.2825927734375
1.792,310,377,424,310,12.0,33.0,36.0,-3.662109136581421,-16.2353515625,19.6533203125,-0.6533203125,0.247802734375,0.38134765625
1.803,310,386,428,310,12.0,33.0,36.0,5.065917491912842,-16.54052734375,6.347655773162842,-0.7481689453125,0.1416015625,0.399658203125
1.834,310,411,431,308,10.0,35.0,36.0,17.7001953125,-8.4228515625,-7.446288585662842,-0.8126220703125,0.0926513671875,0.3463134765625
1.834,311,420,424,310,10.0,35.0,36.0,25.939939498901367,1.8920897245407104,-15.380858421325684,-0.844482421875,0.0682373046875,0.2811279296875
1.835,310,456,441,295,10.0,35.0,36.0,31.921384811401367,8.97216796875,-16.66259765625,-0.8526611328125,0.0443115234375,0.2069091796875
1.853,308,496,452,310,10.0,35.0,36.0,39.55078125,9.46044921875,-13.488768577575684,-0.8695068359375,0.0299072265625,0.0943603515625
1.853,309,527,463,310,10.0,35.0,36.0,46.630855560302734,1.7089842557907104,-8.48388671875,-0.903564453125,0.0054931640625,-0.0338134765625
1.860,309,540,473,310,10.0,35.0,36.0,47.485347747802734,-13.183592796325684,-2.746581792831421,-0.940185546875,-0.019775390625,-0.119873046875
1.875,311,568,519,310,10.0,35.0,36.0,38.26904296875,-31.311033248901367,3.662109136581421,-0.9486083984375,-0.033203125,-0.0404052734375
1.884,310,594,561,310,10.0,35.0,36.0,20.446775436401367,-48.278804779052734,9.8876953125,-0.9486083984375,-0.033203125,-0.0404052734375
1.890,310,616,632,311,10.0,35.0,36.0,-0.6103515625,-59.082027435302734,13.916014671325684,-0.872802734375,0.01220703125,0.00390625
1.909,310,647,765,311,10.0,35.0,36.0,-23.559568405151367,-61.706539154052734,14.221190452575684,-0.615234375,0.2994384765625,-0.149169921875
1.912,311,673,876,312,10.0,34.0,32.0,-54.199214935302734,-59.143062591552734,9.58251953125,-0.615234375,0.2994384765625,-0.149169921875
1.933,310,697,995,311,10.0,34.0,32.0,-100.40282440185547,-55.969234466552734,0.0,-0.550537109375,0.4012451171875,-0.2581787109375
1.935,294,764,1234,312,10.0,34.0,32.0,-157.2265625,-55.908199310302734,-10.314940452575684,-0.60400390625,0.2862548828125,-0.0435791015625
1.942,312,803,1380,312,10.0,34.0,32.0,-198.97459411621094,-59.020992279052734,-15.197752952575684,-0.60400390625,0.2862548828125,-0.0435791015625
1.956,310,835,1514,312,10.0,34.0,32.0,-206.48191833496094,-62.316890716552734,-16.11328125,-0.73193359375,0.14892578125,0.2838134765625
1.964,310,900,1640,312,10.0,34.0,32.0,-190.55174255371094,-61.767574310302734,-19.6533203125,-0.98486328125,-0.455810546875,0.75537109375
1.975,310,935,1675,314,10.0,34.0,32.0,-167.05320739746094,-54.443355560302734,-24.475095748901367,-0.98486328125,-0.455810546875,0.75537109375
1.982,310,968,1709,312,10.0,34.0,32.0,-123.96239471435547,-38.63525390625,-23.193357467651367,-1.0380859375,-0.6309814453125,0.7177734375
1.994,311,1022,1752,313,10.0,34.0,32.0,-51.269527435302734,-15.686034202575684,-13.977049827575684,-1.30810546875,0.040283203125,0.2694091796875
2.017,310,1043,1785,314,10.0,34.0,32.0,16.54052734375,2.3193359375,-2.50244140625,-1.474365234375,0.3572998046875,0.2286376953125
2.020,311,1065,1810,313,13.0,32.0,39.0,44.250484466552734,5.554198741912842,5.371093273162842,-1.474365234375,0.3572998046875,0.2286376953125
2.036,310,1091,1837,312,13.0,32.0,39.0,12.939452171325684,-5.371093273162842,7.324218273162842,-1.7344970703125,0.288330078125,0.3023681640625
2.036,310,1082,1838,312,13.0,32.0,39.0,12.939452171325684,-5.371093273162842,7.324218273162842,-1.726806640625,0.1339111328125,0.291259765625
2.041,310,1076,1826,313,13.0,32.0,39.0,-4.45556640625,-7.812499523162842,6.347655773162842,-1.726806640625,0.1339111328125,0.291259765625
2.049,310,1048,1803,313,13.0,32.0,39.0,-9.8876953125,-8.544921875,7.019042491912842,-1.4368896484375,-0.0784912109375,0.2562255859375
2.065,312,1035,1782,313,13.0,32.0,39.0,3.540038824081421,-5.981444835662842,7.141112804412842,-0.899658203125,0.1002197265625,0.31103515625
2.079,311,1031,1787,312,13.0,32.0,39.0,26.123044967651367,-0.2441406100988388,4.57763671875,-1.082275390625,0.318603515625,0.3668212890625
2.081,298,1025,1787,312,13.0,32.0,39.0,26.916501998901367,7.995604991912842,-0.3662109076976776,-1.082275390625,0.318603515625,0.3668212890625
2.093,311,1013,1761,313,13.0,32.0,39.0,-45.471187591552734,28.198240280151367,-6.042479991912842,-1.6396484375,0.171142578125,0.375244140625
2.101,310,986,1742,314,13.0,32.0,39.0,-45.471187591552734,28.198240280151367,-6.042479991912842,-1.60986328125,-0.0302734375,0.359130859375
2.109,310,967,1701,312,15.0,32.0,33.0,-65.673828125,31.738279342651367,-3.417968511581421,-1.60986328125,-0.0302734375,0.359130859375
2.142,311,932,1610,312,15.0,32.0,33.0,-23.437498092651367,19.6533203125,9.765625,-1.367919921875,-0.02783203125,0.3280029296875
2.142,310,891,1538,313,15.0,32.0,33.0,-23.437498092651367,19.6533203125,9.765625,-1.3143310546875,0.050048828125,0.2708740234375
2.142,310,860,1464,299,15.0,32.0,33.0,-1.0986328125,12.878417015075684,16.6015625,-1.3143310546875,0.050048828125,0.2708740234375
2.153,311,784,1311,312,15.0,32.0,33.0,17.27294921875,8.97216796875,26.428220748901367,-1.1776123046875,0.1168212890625,0.2183837890625
2.161,310,725,1211,309,15.0,32.0,33.0,17.27294921875,8.97216796875,26.428220748901367,-1.0477294921875,0.1195068359375,0.20458984375
2.172,311,668,1105,312,15.0,32.0,33.0,25.695798873901367,10.375975608825684,26.428220748901367,-1.0477294921875,0.1195068359375,0.20458984375
2.183,310,580,916,312,15.0,32.0,33.0,52.001949310302734,25.878904342651367,14.709471702575684,-0.76025390625,-0.0931396484375,0.1964111328125
2.191,308,506,777,311,15.0,32.0,33.0,52.001949310302734,25.878904342651367,14.709471702575684,-0.7022705078125,-0.2564697265625,0.141845703125
2.199,310,451,678,312,15.0,32.0,33.0,74.5849609375,41.503902435302734,8.36181640625,-0.7022705078125,-0.2564697265625,0.141845703125
2.213,309,402,545,310,9.0,33.0,36.0,147.03369140625,80.74950408935547,13.610838890075684,-0.5411376953125,-0.415771484375,0.14453125
2.242,311,391,494,311,9.0,33.0,36.0,147.03369140625,80.74950408935547,13.610838890075684,-0.418212890625,-0.0765380859375,-0.005126953125
2.242,310,371,431,309,9.0,33.0,36.0,186.58445739746094,92.16307830810547,21.301267623901367,-0.4176025390625,0.2991943359375,-0.1915283203125
2.243,309,363,410,310,9.0,33.0,36.0,143.798828125,67.56591796875,16.4794921875,-0.4881591796875,0.47509765625,-0.253173828125
2.252,310,357,395,310,9.0,33.0,36.0,76.171875,39.55078125,11.230467796325684,-0.5687255859375,0.4664306640625,-0.162353515625
2.259,310,357,402,310,9.0,33.0,36.0,76.171875,39.55078125,11.230467796325684,-0.6536865234375,0.38427734375,0.0
2.281,310,364,408,310,9.0,33.0,36.0,-18.5546875,-4.8828125,14.282225608825684,-0.7313232421875,0.2763671875,0.1663818359375
2.283,310,367,401,311,9.0,33.0,36.0,-30.578611373901367,-15.258788108825684,15.930174827575684,-0.7733154296875,0.1490478515625,0.2845458984375
2.290,310,371,420,310,9.0,33.0,36.0,-30.578611373901367,-15.258788108825684,15.930174827575684,-0.7928466796875,0.049072265625,0.30859375
2.304,309,379,426,308,12.0,36.0,38.0,-6.896972179412842,-13.305663108825684,6.286620616912842,-0.817138671875,0.0347900390625,0.2406005859375
2.315,311,393,428,312,12.0,36.0,38.0,8.1787109375,-8.4228515625,2.746581792831421,-0.840087890625,0.0921630859375,0.1458740234375
2.320,309,400,433,309,12.0,36.0,38.0,16.90673828125,-6.530761241912842,2.44140625,-0.852294921875,0.150390625,0.0985107421875
2.344,309,424,444,310,12.0,36.0,38.0,20.935056686401367,-9.033203125,3.295898199081421,-0.854248046875,0.18896484375,0.089111328125
2.344,311,441,457,310,12.0,36.0,38.0,20.996091842651367,-14.160155296325684,4.150390625,-0.8487548828125,0.201171875,0.07666015625
2.353,309,455,469,310,12.0,36.0,38.0,16.845703125,-19.59228515625,4.150390625,-0.838623046875,0.1728515625,0.0657958984375
2.364,310,497,498,310,12.0,36.0,38.0,9.765625,-24.414060592651367,3.540038824081421,-0.82080078125,0.1275634765625,0.0726318359375
2.372,310,514,561,311,12.0,36.0,38.0,2.13623046875,-29.479978561401367,2.685546636581421,-0.7718505859375,0.08740234375,0.079833984375
2.394,310,547,628,311,12.0,36.0,38.0,-5.249022960662842,-35.64453125,0.2441406100988388,-0.6798095703125,0.082763671875,0.037841796875
2.396,310,603,790,296,12.0,36.0,38.0,-17.76123046875,-43.151851654052734,-5.432128429412842,-0.5723876953125,0.1741943359375,-0.0908203125
2.403,310,634,959,312,12.0,36.0,38.0,-48.461910247802734,-51.574703216552734,-15.380858421325684,-0.4742431640625,0.32958984375,-0.2838134765625
2.417,310,668,1117,311,10.0,31.0,34.0,-109.55809783935547,-58.227535247802734,-26.794431686401367,-0.42822265625,0.4130859375,-0.4073486328125
2.447,310,732,1391,312,10.0,31.0,34.0,-188.72068786621094,-64.208984375,-31.677244186401367,-0.4803466796875,0.34619140625,-0.2847900390625
2.447,309,780,1523,312,10.0,31.0,34.0,-244.32371520996094,-72.6318359375,-26.428220748901367,-0.590576171875,0.1500244140625,0.091552734375
2.448,310,819,1632,314,10.0,31.0,34.0,-247.00926208496094,-79.345703125,-17.88330078125,-0.7142333984375,-0.09521484375,0.500244140625
2.456,311,889,1748,314,10.0,31.0,34.0,-208.43504333496094,-77.08740234375,-13.061522483825684,-0.82373046875,-0.3363037109375,0.7626953125
2.464,310,925,1788,312,10.0,31.0,34.0,-152.28271484375,-64.94140625,-11.413573265075684,-0.919677734375,-0.538818359375,0.8616943359375
2.470,310,960,1811,314,10.0,31.0,34.0,-84.16747283935547,-44.067378997802734,-9.58251953125,-1.066650390625,-0.54443359375,0.7802734375
2.497,310,1029,1837,312,10.0,31.0,34.0,-11.962889671325684,-17.51708984375,-6.347655773162842,-1.26220703125,-0.2825927734375,0.590576171875
2.497,296,1070,1854,312,10.0,31.0,34.0,39.36767578125,5.187987804412842,-2.50244140625,-1.4443359375,0.090576171875,0.4493408203125
2.500,309,1103,1865,314,10.0,31.0,34.0,57.250972747802734,16.54052734375,1.5258787870407104,-1.5836181640625,0.3603515625,0.38818359375
2.519,310,1134,1882,314,14.0,34.0,36.0,51.025386810302734,17.39501953125,5.371093273162842,-1.6905517578125,0.37548828125,0.3572998046875
2.522,310,1133,1874,313,14.0,34.0,36.0,39.36767578125,12.329100608825684,9.3994140625,-1.78564453125,0.2353515625,0.295166015625
2.544,310,1134,1852,314,14.0,34.0,36.0,32.958984375,5.615233898162842,14.770506858825684,-1.7510986328125,0.0911865234375,0.172607421875
2.545,311,1117,1824,311,14.0,34.0,36.0,32.958984375,1.220703125,19.53125,-1.4107666015625,-0.031494140625,0.0711669921875
2.552,310,1096,1806,312,14.0,34.0,36.0,43.579097747802734,1.5258787870407104,18.310546875,-1.0228271484375,0.05419921875,0.078369140625
2.560,312,1091,1798,314,14.0,34.0,36.0,53.649898529052734,4.7607421875,10.437010765075684,-0.8856201171875,0.289794921875,0.1695556640625
2.577,310,1089,1805,312,14.0,34.0,36.0,38.9404296875,10.314940452575684,-0.30517578125,-0.9468994140625,0.37255859375,0.2760009765625
2.598,310,1082,1806,313,14.0,34.0,36.0,3.784179449081421,19.1650390625,-9.21630859375,-1.1689453125,0.3291015625,0.357177734375
2.598,310,1078,1796,311,14.0,34.0,36.0,-31.066892623901367,27.954099655151367,-13.122557640075684,-1.40673828125,0.203857421875,0.3916015625
2.604,310,1056,1759,314,10.0,34.0,34.0,-52.185054779052734,33.02001953125,-11.291502952575684,-1.4866943359375,0.0283203125,0.372802734375
2.612,310,1039,1725,314,10.0,34.0,34.0,-50.292964935302734,34.24072265625,-5.0048828125,-1.434814453125,-0.03369140625,0.32958984375
2.620,310,1017,1683,314,10.0,34.0,34.0,-32.77587890625,31.066892623901367,2.624511480331421,-1.34716796875,0.0245361328125,0.2923583984375
2.650,313,976,1600,312,10.0,34.0,34.0,-17.08984375,24.475095748901367,9.33837890625,-1.23388671875,0.0994873046875,0.2109375
2.650,310,944,1536,312,10.0,34.0,34.0,-8.85009765625,18.1884765625,14.221190452575684,-1.23388671875,0.0994873046875,0.2109375
2.651,293,916,1474,299,10.0,34.0,34.0,-4.69970703125,14.343260765075684,17.9443359375,-1.212890625,0.1168212890625,0.1790771484375
2.664,311,853,1352,312,10.0,34.0,34.0,-0.7934569716453552,11.718749046325684,20.324705123901367,-1.1893310546875,0.1326904296875,0.1849365234375
2.671,310,808,1267,312,10.0,34.0,34.0,6.042479991912842,9.8876953125,20.202634811401367,-1.132080078125,0.1541748046875,0.20751953125
2.679,310,767,1188,311,10.0,34.0,34.0,14.648436546325684,10.864256858825684,16.78466796875,-1.0318603515625,0.14990234375,0.22509765625
2.708,311,689,1025,312,10.0,34.0,34.0,21.667478561401367,15.808104515075684,10.559081077575684,-0.8306884765625,-0.044921875,0.221435546875
2.708,310,638,931,312,12.0,34.0,32.0,29.235837936401367,25.085447311401367,3.479003667831421,-0.8306884765625,-0.044921875,0.221435546875
2.711,310,594,840,312,12.0,34.0,32.0,42.175289154052734,38.87939453125,-2.13623046875,-0.775146484375,-0.1602783203125,0.153564453125
2.724,308,530,654,311,12.0,34.0,32.0,63.110347747802734,55.786128997802734,-4.69970703125,-0.712158203125,-0.260986328125,0.1112060546875
2.752,310,490,590,310,12.0,34.0,32.0,90.45409393310547,69.51904296875,-3.112792730331421,-0.712158203125,-0.260986328125,0.1112060546875
2.753,294,465,518,311,12.0,34.0,32.0,116.94335174560547,74.70703125,3.234863042831421,-0.682373046875,-0.157958984375,0.116943359375
2.755,310,411,438,309,12.0,34.0,32.0,132.87353515625,73.18115234375,12.329100608825684,-0.570068359375,0.21484375,-0.071533203125
2.763,308,395,411,308,12.0,34.0,32.0,129.5166015625,66.83349609375,18.310546875,-0.5469970703125,0.3143310546875,-0.0919189453125
2.770,310,391,393,310,12.0,34.0,32.0,106.20116424560547,53.466793060302734,19.10400390625,-0.5469970703125,0.3143310546875,-0.0919189453125
2.785,309,391,393,309,12.0,34.0,32.0,51.452632904052734,14.221190452575684,20.629880905151367,-0.619873046875,0.3565673828125,0.0272216796875
2.795,310,395,395,310,12.0,34.0,32.0,51.452632904052734,14.221190452575684,20.629880905151367,-0.6951904296875,0.33056640625,0.1005859375
2.809,310,408,402,310,11.0,36.0,38.0,28.259275436401367,-2.0751953125,21.179197311401367,-0.6951904296875,0.33056640625,0.1005859375
2.816,309,425,402,310,11.0,36.0,38.0,2.13623046875,-12.145995140075684,8.6669921875,-0.802001953125,0.197265625,0.21435546875
2.825,310,438,406,310,11.0,36.0,38.0,2.13623046875,-12.145995140075684,8.6669921875,-0.822998046875,0.1800537109375,0.207275390625
2.830,310,453,410,310,11.0,36.0,38.0,10.070799827575684,-8.23974609375,-1.5869139432907104,-0.822998046875,0.1800537109375,0.207275390625
2.851,310,485,419,310,11.0,36.0,38.0,33.87451171875,-3.295898199081421,-11.047362327575684,-0.8328857421875,0.1868896484375,0.13330078125
2.854,310,483,424,310,11.0,36.0,38.0,33.87451171875,-3.295898199081421,-11.047362327575684,-0.818603515625,0.2010498046875,0.097900390625
2.860,310,516,436,310,11.0,36.0,38.0,38.818359375,-5.065917491912842,-10.559081077575684,-0.818603515625,0.2010498046875,0.097900390625
2.875,310,551,453,310,11.0,36.0,38.0,20.629880905151367,-15.380858421325684,-9.21630859375,-0.7542724609375,0.09765625,0.062744140625
2.883,310,585,479,310,11.0,36.0,38.0,20.629880905151367,-15.380858421325684,-9.21630859375,-0.71875,0.0257568359375,0.0482177734375
2.899,310,613,530,310,11.0,36.0,38.0,7.629394054412842,-24.353025436401367,-8.1787109375,-0.71875,0.0257568359375,0.0482177734375
2.905,310,659,676,310,10.0,36.0,40.0,-13.977049827575684,-47.790523529052734,-5.126952648162842,-0.6588134765625,0.085205078125,-0.081787109375
2.930,310,694,813,311,10.0,36.0,40.0,-39.61181640625,-60.363765716552734,-8.544921875,-0.470458984375,0.203125,-0.22021484375
2.930,310,725,960,312,10.0,36.0,40.0,-39.61181640625,-60.363765716552734,-8.544921875,-0.320556640625,0.2991943359375,-0.393798828125
2.935,310,796,1209,312,10.0,36.0,40.0,-174.43846130371094,-72.20458984375,-24.108884811401367,-0.3543701171875,0.24658203125,-0.387451171875
2.958,311,840,1365,312,10.0,36.0,40.0,-239.01365661621094,-74.70703125,-18.798828125,-0.5279541015625,0.121826171875,-0.14404296875
2.958,310,889,1509,312,10.0,36.0,40.0,-239.01365661621094,-74.70703125,-18.798828125,-0.803955078125,-0.023193359375,0.194091796875
2.965,310,951,1689,313,10.0,36.0,40.0,-206.84812927246094,-68.05419921875,-3.112792730331421,-1.111328125,-0.287841796875,0.5430908203125
2.972,310,986,1732,312,10.0,36.0,40.0,-148.98681640625,-58.410640716552734,-8.23974609375,-1.2760009765625,-0.5352783203125,0.8631591796875
2.980,310,1024,1756,313,10.0,36.0,40.0,-148.98681640625,-58.410640716552734,-8.23974609375,-1.307861328125,-0.4608154296875,0.961181640625
3.003,310,1092,1775,312,10.0,36.0,40.0,-10.314940452575684,-21.911619186401367,-4.638671875,-1.3748779296875,-0.109130859375,0.7703857421875
3.007,312,1120,1787,312,14.0,31.0,38.0,26.733396530151367,0.54931640625,5.310058116912842,-1.5093994140625,0.237548828125,0.5223388671875
3.010,311,1139,1800,312,14.0,31.0,38.0,26.733396530151367,0.54931640625,5.310058116912842,-1.662841796875,0.39892578125,0.3756103515625
3.038,311,1163,1803,312,14.0,31.0,38.0,27.465818405151367,14.770506858825684,14.587401390075684,-1.777099609375,0.373046875,0.300537109375
3.038,310,1157,1783,314,14.0,31.0,38.0,26.428220748901367,9.82666015625,12.695311546325684,-1.7440185546875,0.28125,0.203369140625
3.059,310,1147,1759,300,14.0,31.0,38.0,26.428220748901367,9.82666015625,12.695311546325684,-1.4234619140625,0.1461181640625,0.0927734375
3.059,310,1120,1741,313,14.0,31.0,38.0,42.480464935302734,4.82177734375,2.990722417831421,-1.0589599609375,0.1336669921875,0.0517578125
3.062,310,1111,1748,313,14.0,31.0,38.0,51.574703216552734,5.249022960662842,-5.798339366912842,-0.9844970703125,0.28369140625,0.1185302734375
3.070,312,1108,1752,312,14.0,31.0,38.0,39.97802734375,5.554198741912842,-14.404295921325684,-1.2171630859375,0.380859375,0.232666015625
3.084,311,1089,1743,312,14.0,31.0,38.0,3.967284917831421,8.48388671875,-18.85986328125,-1.5201416015625,0.3048095703125,0.3148193359375
3.092,309,1069,1725,312,14.0,31.0,38.0,-34.97314453125,13.977049827575684,-17.51708984375,-1.607666015625,0.098388671875,0.35498046875
3.103,310,1047,1689,313,14.0,33.0,36.0,-49.682613372802734,17.2119140625,-11.474608421325684,-1.5003662109375,-0.03369140625,0.369873046875
3.115,309,1007,1609,312,14.0,33.0,36.0,-36.62109375,14.587401390075684,-3.356933355331421,-1.370849609375,-0.0391845703125,0.3768310546875
3.163,310,969,1538,312,14.0,33.0,36.0,-14.282225608825684,9.6435546875,4.2724609375,-1.326904296875,0.0205078125,0.356201171875
3.164,312,934,1473,312,14.0,33.0,36.0,0.6713866591453552,8.4228515625,10.864256858825684,-1.348876953125,0.1099853515625,0.317626953125
3.164,310,861,1316,312,14.0,33.0,36.0,3.845214605331421,11.230467796325684,16.41845703125,-1.3375244140625,0.1611328125,0.2960205078125
3.165,312,794,1211,310,14.0,33.0,36.0,1.8310545682907104,15.747069358825684,19.6533203125,-1.2393798828125,0.144775390625,0.2734375
3.166,297,750,1092,314,14.0,33.0,36.0,4.57763671875,21.423337936401367,19.287109375,-1.062255859375,0.03125,0.24755859375
3.175,307,646,902,312,14.0,33.0,36.0,20.202634811401367,28.869626998901367,14.892577171325684,-0.864501953125,-0.16796875,0.236328125
3.182,310,574,784,310,14.0,33.0,36.0,53.588863372802734,38.87939453125,8.23974609375,-0.738037109375,-0.3275146484375,0.1806640625
3.190,310,512,682,311,14.0,33.0,36.0,100.83007049560547,53.405757904052734,3.112792730331421,-0.69775390625,-0.367919921875,0.0865478515625
3.205,310,428,518,312,10.0,34.0,36.0,148.681640625,70.068359375,1.2817381620407104,-0.6534423828125,-0.288330078125,0.0433349609375
3.212,310,384,449,310,10.0,34.0,36.0,180.96922302246094,81.90917205810547,1.9531248807907104,-0.55322265625,-0.11083984375,0.025146484375
3.220,308,360,424,310,10.0,34.0,36.0,186.76756286621094,86.91405487060547,4.57763671875,-0.455810546875,0.162841796875,-0.0712890625
3.268,308,338,386,310,10.0,34.0,36.0,163.51316833496094,84.16747283935547,7.812499523162842,-0.4180908203125,0.4176025390625,-0.177734375
3.269,309,331,387,310,10.0,34.0,36.0,120.23925018310547,69.64111328125,10.192870140075684,-0.4820556640625,0.5189208984375,-0.1529541015625
3.269,310,323,389,310,10.0,34.0,36.0,74.40185546875,45.043941497802734,14.099120140075684,-0.593017578125,0.494384765625,-0.021240234375
3.270,310,328,393,310,10.0,34.0,36.0,38.39111328125,18.798828125,20.568845748901367,-0.6170654296875,0.38232421875,0.1126708984375
3.273,309,331,395,310,10.0,34.0,36.0,20.01953125,-0.1831054538488388,23.132322311401367,-0.5556640625,0.2427978515625,0.176513671875
3.282,310,338,402,310,10.0,34.0,36.0,16.11328125,-9.033203125,14.953612327575684,-0.54248046875,0.1217041015625,0.1654052734375
3.295,310,363,407,310,10.0,34.0,36.0,15.014647483825684,-10.803221702575684,-0.1831054538488388,-0.6514892578125,0.0274658203125,0.1116943359375
3.307,311,369,402,310,9.0,36.0,38.0,11.535643577575684,-10.070799827575684,-10.986327171325684,-0.802490234375,-0.0037841796875,0.0816650390625
3.311,310,373,406,310,9.0,36.0,38.0,8.36181640625,-9.94873046875,-12.268065452575684,-0.8994140625,0.0379638671875,0.131103515625
3.345,310,402,402,311,9.0,36.0,38.0,8.23974609375,-10.803221702575684,-8.30078125,-0.935302734375,0.118408203125,0.2310791015625
3.346,296,426,402,308,9.0,36.0,38.0,13.977049827575684,-11.657713890075684,-5.0048828125,-0.9259033203125,0.177734375,0.2904052734375
3.346,308,438,415,310,9.0,36.0,38.0,25.451658248901367,-10.925292015075684,-4.39453125,-0.891845703125,0.190673828125,0.2357177734375
3.368,310,496,437,296,9.0,36.0,38.0,34.7900390625,-8.72802734375,-4.8828125,-0.8568115234375,0.1773681640625,0.1033935546875
3.369,310,519,465,310,9.0,36.0,38.0,33.69140625,-8.6669921875,-4.2724609375,-0.8194580078125,0.1552734375,0.0015869140625
3.371,311,548,490,312,9.0,36.0,38.0,20.874021530151367,-14.648436546325684,-2.746581792831421,-0.7691650390625,0.1287841796875,-0.0299072265625
3.380,310,577,568,310,9.0,36.0,38.0,-0.0610351525247097,-26.733396530151367,-2.50244140625,-0.7083740234375,0.1077880859375,-0.0523681640625
3.394,310,620,728,312,9.0,36.0,38.0,-27.343748092651367,-40.527339935302734,-5.432128429412842,-0.6302490234375,0.1181640625,-0.145263671875
3.409,310,644,868,312,9.0,35.0,38.0,-66.58935546875,-49.377437591552734,-11.657713890075684,-0.5517578125,0.18505859375,-0.3201904296875
3.415,315,683,974,298,9.0,35.0,38.0,-125.61034393310547,-52.246089935302734,-18.1884765625,-0.53271484375,0.236572265625,-0.4434814453125
3.424,310,750,1120,314,9.0,35.0,38.0,-189.33103942871094,-54.687496185302734,-18.310546875,-0.5347900390625,0.15087890625,-0.3367919921875
3.456,310,799,1253,312,9.0,35.0,38.0,-214.23338317871094,-57.556148529052734,-9.82666015625,-0.5423583984375,0.0322265625,-0.0595703125
3.460,310,840,1403,297,9.0,35.0,38.0,-181.15232849121094,-55.236812591552734,0.4272460639476776,-0.670166015625,0.128662109375,0.1544189453125
3.480,311,913,1600,312,9.0,35.0,38.0,-135.009765625,-50.476070404052734,4.57763671875,-1.185302734375,0.0418701171875,0.631103515625
3.480,310,947,1666,312,9.0,35.0,38.0,-127.62450408935547,-53.894039154052734,0.9155272841453552,-1.185302734375,0.0418701171875,0.631103515625
3.481,310,990,1705,312,9.0,35.0,38.0,-138.36669921875,-61.157222747802734,-5.0048828125,-1.2978515625,-0.41455078125,0.9036865234375
3.483,311,1043,1746,312,9.0,35.0,38.0,-106.56737518310547,-53.283687591552734,-5.493163585662842,-1.38720703125,-0.2037353515625,0.519775390625
3.492,310,1070,1757,312,9.0,35.0,38.0,-31.372068405151367,-27.038572311401367,0.3662109076976776,-1.38720703125,-0.2037353515625,0.519775390625
3.499,310,1087,1770,314,11.0,33.0,37.0,31.433103561401367,-0.8544921278953552,6.103515148162842,-1.495361328125,0.21533203125,0.3121337890625
3.513,310,1116,1782,313,11.0,33.0,37.0,51.025386810302734,11.901854515075684,7.995604991912842,-1.739501953125,0.40087890625,0.31005859375
3.522,311,1101,1755,314,11.0,33.0,37.0,39.306640625,14.038084983825684,6.713866710662842,-1.739501953125,0.40087890625,0.31005859375
3.531,310,1089,1734,314,11.0,33.0,37.0,20.935056686401367,13.610838890075684,4.33349609375,-1.6246337890625,0.2254638671875,0.2333984375
3.544,310,1064,1714,311,11.0,33.0,37.0,13.610838890075684,13.916014671325684,1.5258787870407104,-1.0030517578125,0.0916748046875,0.0677490234375
3.574,310,1050,1730,312,11.0,33.0,37.0,24.597166061401367,13.793944358825684,-3.417968511581421,-1.0030517578125,0.0916748046875,0.0677490234375
3.574,312,1039,1742,313,11.0,33.0,37.0,37.4755859375,13.305663108825684,-10.009765625,-1.0955810546875,0.298583984375,0.1263427734375
3.575,311,1017,1741,312,11.0,33.0,37.0,22.277830123901367,16.05224609375,-15.380858421325684,-1.5833740234375,0.3218994140625,0.27099609375
3.582,311,987,1732,312,11.0,33.0,37.0,-22.033689498901367,23.498533248901367,-17.27294921875,-1.5833740234375,0.3218994140625,0.27099609375
3.592,310,967,1718,312,11.0,33.0,37.0,-62.805171966552734,30.334470748901367,-15.441893577575684,-1.543212890625,0.0797119140625,0.279052734375
3.603,308,917,1652,311,15.0,33.0,34.0,-69.27490234375,29.968259811401367,-11.108397483825684,-1.326171875,-0.052734375,0.254638671875
3.614,311,875,1608,312,15.0,33.0,34.0,-47.058101654052734,23.315427780151367,-5.676269054412842,-1.2708740234375,0.03759765625,0.2347412109375
3.621,310,838,1547,312,15.0,33.0,34.0,-24.475095748901367,17.08984375,0.1831054538488388,-1.2708740234375,0.03759765625,0.2347412109375
3.633,310,758,1435,312,15.0,33.0,34.0,-20.935056686401367,16.2353515625,12.084959983825684,-1.1441650390625,0.074462890625,0.23291015625
3.648,310,694,1348,312,15.0,33.0,34.0,-20.935056686401367,16.2353515625,12.084959983825684,-1.087158203125,0.014404296875,0.2606201171875
3.649,296,650,1255,312,15.0,33.0,34.0,-19.8974609375,17.822265625,16.6015625,-1.087158203125,0.014404296875,0.2606201171875
3.678,310,574,1056,312,15.0,33.0,34.0,12.451170921325684,28.198240280151367,18.12744140625,-0.9442138671875,-0.1884765625,0.2373046875
3.681,310,523,942,311,15.0,33.0,34.0,12.451170921325684,28.198240280151367,18.12744140625,-0.90576171875,-0.2918701171875,0.1785888671875
3.683,310,481,811,310,15.0,33.0,34.0,37.4755859375,39.55078125,15.136717796325684,-0.90576171875,-0.2918701171875,0.1785888671875
3.694,310,423,608,310,13.0,35.0,34.0,97.29003143310547,62.194820404052734,11.901854515075684,-0.75537109375,-0.3572998046875,0.0350341796875
3.703,311,394,493,308,13.0,35.0,34.0,132.26318359375,67.9931640625,15.441893577575684,-0.67626953125,-0.239990234375,0.0428466796875
3.718,310,365,428,310,13.0,35.0,34.0,132.26318359375,67.9931640625,15.441893577575684,-0.5692138671875,0.02783203125,0.0670166015625
3.724,309,337,401,310,13.0,35.0,34.0,193.35935974121094,63.232418060302734,36.31591796875,-0.41162109375,0.3944091796875,0.015625
3.732,310,322,391,309,13.0,35.0,34.0,186.52342224121094,55.908199310302734,41.442867279052734,-0.3709716796875,0.6798095703125,-0.0592041015625
3.741,308,322,396,308,13.0,35.0,34.0,186.52342224121094,55.908199310302734,41.442867279052734,-0.4915771484375,0.7525634765625,-0.0631103515625
3.754,310,322,399,308,13.0,35.0,34.0,63.049312591552734,24.719236373901367,28.686521530151367,-0.64990234375,0.5911865234375,0.0242919921875
3.777,310,322,401,310,13.0,35.0,34.0,13.977049827575684,13.916014671325684,18.61572265625,-0.746337890625,0.309814453125,0.1185302734375
3.777,309,317,401,308,13.0,35.0,34.0,13.977049827575684,13.916014671325684,18.61572265625,-0.7491455078125,0.1099853515625,0.1522216796875
3.785,308,323,406,310,13.0,35.0,34.0,33.99658203125,17.333984375,2.0751953125,-0.7115478515625,0.0599365234375,0.1143798828125
3.792,310,322,402,310,13.0,35.0,34.0,51.208492279052734,19.34814453125,-4.8828125,-0.7193603515625,0.0750732421875,0.0460205078125
3.802,310,331,408,310,10.0,38.0,38.0,51.208492279052734,19.34814453125,-4.8828125,-0.777099609375,0.0797119140625,0.0084228515625
3.819,308,353,401,309,10.0,38.0,38.0,33.8134765625,13.610838890075684,-11.962889671325684,-0.830078125,0.0657958984375,0.00830078125
3.828,310,364,400,309,10.0,38.0,38.0,22.155759811401367,7.690429210662842,-8.4228515625,-0.849609375,0.04443359375,0.01025390625
3.832,309,372,399,308,10.0,38.0,38.0,20.568845748901367,1.8310545682907104,-2.44140625,-0.8399658203125,0.041748046875,-0.0194091796875
3.850,310,420,411,310,10.0,38.0,38.0,23.498533248901367,-4.08935546875,4.0283203125,-0.823974609375,0.078857421875,-0.078369140625
3.857,308,444,430,310,10.0,38.0,38.0,20.080564498901367,-11.596678733825684,9.82666015625,-0.8060302734375,0.13037109375,-0.1163330078125
3.878,310,493,452,310,10.0,38.0,38.0,4.82177734375,-21.240232467651367,13.916014671325684,-0.7508544921875,0.166259765625,-0.100830078125
3.879,309,572,555,310,10.0,38.0,38.0,-19.4091796875,-31.494138717651367,14.770506858825684,-0.6376953125,0.197265625,-0.0780029296875
3.883,310,614,634,310,10.0,38.0,38.0,-49.865718841552734,-40.10009765625,10.375975608825684,-0.5074462890625,0.2518310546875,-0.1298828125
3.890,310,634,766,311,10.0,38.0,38.0,-92.89550018310547,-45.959468841552734,0.30517578125,-0.4429931640625,0.3492431640625,-0.281005859375
3.904,309,694,1011,310,9.0,36.0,31.0,-156.73828125,-51.147457122802734,-10.803221702575684,-0.45361328125,0.40869140625,-0.4117431640625
3.913,310,730,1153,311,9.0,36.0,31.0,-227.72215270996094,-59.570308685302734,-15.258788108825684,-0.505615234375,0.3082275390625,-0.3292236328125
3.921,310,772,1300,312,9.0,36.0,31.0,-265.07568359375,-68.4814453125,-10.131834983825684,-0.628173828125,0.1715087890625,-0.0255126953125
3.935,310,848,1546,312,9.0,36.0,31.0,-247.31443786621094,-70.98388671875,-1.7700194120407104,-0.8897705078125,0.12109375,0.2860107421875
3.945,312,885,1652,312,9.0,36.0,31.0,-209.89988708496094,-67.87109375,2.50244140625,-1.1822509765625,-0.0906982421875,0.5279541015625
3.978,310,920,1711,312,9.0,36.0,31.0,-183.71580505371094,-64.27001953125,2.01416015625,-1.3082275390625,-0.480712890625,0.7279052734375
4.018,297,976,1756,314,9.0,36.0,31.0,-141.78466796875,-56.030269622802734,1.2817381620407104,-1.310302734375,-0.63525390625,0.759521484375
4.595,310,1022,1774,314,9.0,36.0,31.0,7.934569835662842,-14.404295921325684,6.652831554412842,-1.4451904296875,0.0556640625,0.431884765625
4.596,310,1051,1782,312,14.0,37.0,27.0,47.607418060302734,2.624511480331421,8.60595703125,-1.62451171875,0.4952392578125,0.3448486328125
4.597,310,1056,1757,313,14.0,37.0,27.0,47.973628997802734,10.253905296325684,8.48388671875,-1.7794189453125,0.6827392578125,0.297607421875
4.597,310,1055,1715,312,14.0,37.0,27.0,27.770994186401367,11.657713890075684,6.469726085662842,-1.7288818359375,0.5,0.22119140625
4.597,309,1022,1641,314,14.0,37.0,27.0,16.2353515625,11.108397483825684,2.624511480331421,-1.3875732421875,0.1307373046875,0.125244140625
4.597,310,1017,1634,314,14.0,37.0,27.0,34.1796875,9.6435546875,-2.685546636581421,-1.0555419921875,-0.0010986328125,0.064453125
4.597,310,986,1646,297,14.0,37.0,27.0,65.73486328125,6.774901866912842,-8.60595703125,-1.0345458984375,0.1893310546875,0.0828857421875
4.597,311,1003,1646,312,14.0,37.0,27.0,69.39697265625,5.676269054412842,-12.695311546325684,-1.303955078125,0.43359375,0.1358642578125
4.597,310,987,1635,313,14.0,37.0,27.0,27.038572311401367,9.6435546875,-11.962889671325684,-1.57421875,0.4736328125,0.1705322265625
4.598,310,971,1609,312,14.0,37.0,27.0,-30.761716842651367,15.869139671325684,-6.591796398162842,-1.5860595703125,0.2576904296875,0.2056884765625
4.598,311,928,1508,312,14.0,37.0,27.0,-56.274410247802734,18.310546875,-0.2441406100988388,-1.434326171875,0.0404052734375,0.2381591796875
4.598,310,904,1477,311,10.0,38.0,31.0,-41.442867279052734,14.770506858825684,4.82177734375,-1.29052734375,0.006103515625,0.262939453125
4.598,310,853,1416,326,10.0,38.0,31.0,-15.380858421325684,9.3994140625,9.33837890625,-1.2247314453125,0.10595703125,0.2730712890625
4.598,310,835,1334,312,10.0,38.0,31.0,-1.220703125,7.202147960662842,14.404295921325684,-1.2037353515625,0.1824951171875,0.2733154296875
4.598,312,767,1173,312,10.0,38.0,31.0,3.906249761581421,9.09423828125,18.9208984375,-1.14453125,0.1334228515625,0.2835693359375
4.598,310,729,1067,312,10.0,38.0,31.0,14.465331077575684,12.756346702575684,20.568845748901367,-1.0203857421875,-0.0350341796875,0.310791015625
4.598,310,688,982,312,10.0,38.0,31.0,38.57421875,16.845703125,18.61572265625,-0.893310546875,-0.1988525390625,0.3187255859375
4.598,308,606,793,312,10.0,38.0,31.0,73.05908203125,23.010251998901367,15.808104515075684,-0.822509765625,-0.242431640625,0.2659912109375
4.598,310,554,687,311,10.0,38.0,31.0,106.50634002685547,33.50830078125,14.099120140075684,-0.7740478515625,-0.2010498046875,0.1710205078125
4.599,310,509,594,310,10.0,38.0,31.0,130.92041015625,47.363277435302734,12.756346702575684,-0.70654296875,-0.142333984375,0.0654296875
4.600,310,437,464,310,10.0,38.0,31.0,148.92578125,60.852046966552734,10.559081077575684,-0.6551513671875,-0.036376953125,0.005126953125
4.600,310,387,426,312,9.0,36.0,33.0,161.62107849121094,67.138671875,6.530761241912842,-0.6553955078125,0.142333984375,-0.02099609375
4.600,311,371,411,310,9.0,36.0,33.0,158.02001953125,63.842769622802734,1.2817381620407104,-0.666259765625,0.3192138671875,-0.105224609375
4.600,310,356,400,310,9.0,36.0,33.0,133.85009765625,55.664058685302734,-4.57763671875,-0.6529541015625,0.42724609375,-0.2213134765625
4.600,310,343,399,310,9.0,36.0,33.0,102.41698455810547,45.593257904052734,-9.58251953125,-0.667724609375,0.486572265625,-0.2664794921875
4.600,310,322,390,308,9.0,36.0,33.0,73.3642578125,31.738279342651367,-10.681151390075684,-0.718994140625,0.50830078125,-0.2113037109375
4.600,310,326,402,310,9.0,36.0,33.0,46.264644622802734,14.648436546325684,-8.36181640625,-0.727783203125,0.3419189453125,-0.0057373046875
4.600,310,326,402,310,9.0,36.0,33.0,21.728513717651367,-0.8544921278953552,-5.493163585662842,-0.727783203125,0.3419189453125,-0.0057373046875
4.600,312,329,407,310,9.0,36.0,33.0,4.0283203125,-10.192870140075684,-4.57763671875,-0.6915283203125,0.195556640625,0.072021484375
4.600,309,337,411,309,9.0,36.0,33.0,-3.051757574081421,-13.061522483825684,-6.652831554412842,-0.73583984375,-0.055419921875,0.116943359375
4.600,308,343,391,308,9.0,36.0,33.0,0.4882812201976776,-12.512206077575684,-8.7890625,-0.73583984375,-0.055419921875,0.116943359375
4.600,310,342,417,309,6.0,34.0,36.0,9.765625,-11.657713890075684,-6.958007335662842,-0.7774658203125,-0.055908203125,0.11572265625
4.600,310,379,428,310,6.0,34.0,36.0,19.04296875,-11.962889671325684,-1.6479490995407104,-0.811279296875,0.08251953125,0.092529296875
4.600,310,387,452,310,6.0,34.0,36.0,23.498533248901367,-13.732909202575684,3.601073980331421,-0.811279296875,0.08251953125,0.092529296875
4.600,310,411,473,310,6.0,34.0,36.0,20.263669967651367,-17.08984375,7.019042491912842,-0.8155517578125,0.1302490234375,0.055419921875
4.601,310,450,525,310,6.0,34.0,36.0,10.986327171325684,-22.094724655151367,8.97216796875,-0.7955322265625,0.154052734375,-0.049560546875
4.601,309,485,576,311,6.0,34.0,36.0,-1.7089842557907104,-28.869626998901367,10.009765625,-0.7955322265625,0.154052734375,-0.049560546875
4.601,310,522,642,310,6.0,34.0,36.0,-17.7001953125,-37.109375,9.33837890625,-0.734130859375,0.161376953125,-0.0972900390625
4.601,310,586,780,310,6.0,34.0,36.0,-40.649410247802734,-45.166011810302734,5.859374523162842,-0.642578125,0.2349853515625,-0.1964111328125
4.601,310,614,916,312,6.0,34.0,36.0,-75.13427734375,-51.513668060302734,0.4272460639476776,-0.6236572265625,0.2540283203125,-0.2451171875
4.601,311,640,1014,312,6.0,34.0,36.0,-119.14061737060547,-55.664058685302734,-4.08935546875,-0.6236572265625,0.2540283203125,-0.2451171875
4.602,310,721,1273,312,10.0,35.0,32.0,-184.20408630371094,-59.997554779052734,-0.1831054538488388,-0.624755859375,0.3055419921875,-0.208984375
4.602,310,762,1437,312,10.0,35.0,32.0,-184.20408630371094,-59.997554779052734,-0.1831054538488388,-0.73095703125,0.345947265625,-0.03125
4.602,310,799,1588,312,10.0,35.0,32.0,-193.66453552246094,-67.93212890625,3.601073980331421,-0.73095703125,0.345947265625,-0.03125
4.602,311,853,1748,312,10.0,35.0,32.0,-208.31297302246094,-91.06444549560547,-0.30517578125,-0.997802734375,-0.1622314453125,0.5042724609375
4.602,310,886,1803,313,10.0,35.0,32.0,-208.31297302246094,-91.06444549560547,-0.30517578125,-0.9324951171875,-0.5064697265625,0.734619140625
4.602,310,918,1844,314,10.0,35.0,32.0,-188.04930114746094,-92.04100799560547,-4.33349609375,-0.9324951171875,-0.5064697265625,0.734619140625
4.602,310,971,1870,312,10.0,35.0,32.0,-31.921384811401367,-49.377437591552734,-8.544921875,-1.0274658203125,-0.218505859375,0.7357177734375
4.602,310,1001,1891,314,10.0,35.0,32.0,-31.921384811401367,-49.377437591552734,-8.544921875,-1.2320556640625,0.1650390625,0.7254638671875
4.602,310,1039,1910,312,10.0,35.0,32.0,28.076169967651367,-22.460935592651367,-8.9111328125,-1.2320556640625,0.1650390625,0.7254638671875
4.603,311,1092,1936,312,10.0,35.0,32.0,38.51318359375,11.291502952575684,-5.920409679412842,-1.7393798828125,0.6278076171875,0.503173828125
4.603,310,1096,1937,314,13.0,33.0,34.0,38.51318359375,11.291502952575684,-5.920409679412842,-1.8673095703125,0.459228515625,0.28857421875
4.603,311,1081,1920,314,13.0,33.0,34.0,14.831542015075684,13.549803733825684,-2.624511480331421,-1.8673095703125,0.459228515625,0.28857421875
4.603,312,1048,1882,312,13.0,33.0,34.0,10.498045921325684,-3.723144292831421,1.4038084745407104,-1.3070068359375,-0.114501953125,-0.0765380859375
4.603,310,1017,1868,314,13.0,33.0,34.0,43.090816497802734,-11.413573265075684,-3.295898199081421,-1.0233154296875,-0.0062255859375,-0.00537109375
4.603,310,1010,1869,314,13.0,33.0,34.0,43.090816497802734,-11.413573265075684,-3.295898199081421,-0.9798583984375,0.2685546875,0.2060546875
4.603,311,1003,1874,313,13.0,33.0,34.0,47.607418060302734,1.5258787870407104,-17.333984375,-1.140869140625,0.43408203125,0.4146728515625
4.604,310,996,1870,314,13.0,33.0,34.0,-5.981444835662842,23.864744186401367,-18.37158203125,-1.378662109375,0.408935546875,0.515380859375
4.604,312,985,1860,312,13.0,33.0,34.0,-5.981444835662842,23.864744186401367,-18.37158203125,-1.467529296875,0.2064208984375,0.506591796875
4.604,310,958,1815,314,13.0,33.0,34.0,-73.18115234375,49.011226654052734,-8.36181640625,-1.4156494140625,0.0380859375,0.4324951171875
4.605,310,933,1778,314,13.0,33.0,34.0,-50.659175872802734,45.532222747802734,-2.624511480331421,-1.3431396484375,0.031494140625,0.326416015625
4.606,310,912,1732,312,10.0,35.0,32.0,-50.659175872802734,45.532222747802734,-2.624511480331421,-1.308349609375,0.1240234375,0.20849609375
4.606,310,840,1625,313,10.0,35.0,32.0,-8.36181640625,32.65380859375,8.11767578125,-1.2864990234375,0.192138671875,0.136474609375
4.611,311,796,1555,312,10.0,35.0,32.0,-6.164550304412842,23.864744186401367,13.427733421325684,-1.2327880859375,0.1507568359375,0.158203125
4.626,311,750,1483,312,10.0,35.0,32.0,-6.164550304412842,23.864744186401367,13.427733421325684,-1.138427734375,0.0267333984375,0.2508544921875
4.640,310,678,1306,312,10.0,35.0,32.0,9.521484375,10.498045921325684,20.507810592651367,-1.0068359375,-0.1173095703125,0.3499755859375
4.641,298,631,1198,312,10.0,35.0,32.0,30.944822311401367,15.747069358825684,18.98193359375,-0.876708984375,-0.2017822265625,0.36865234375
4.651,310,600,1078,312,10.0,35.0,32.0,30.944822311401367,15.747069358825684,18.98193359375,-0.80126953125,-0.20068359375,0.2821044921875
4.670,310,523,854,310,10.0,35.0,32.0,78.857421875,50.109859466552734,10.681151390075684,-0.767822265625,-0.17138671875,0.1463623046875
4.673,309,480,756,310,10.0,35.0,32.0,99.91454315185547,67.32177734375,7.507323741912842,-0.734375,-0.1544189453125,-0.005615234375
4.700,310,441,645,310,10.0,35.0,32.0,121.94823455810547,78.0029296875,5.432128429412842,-0.7191162109375,-0.11181640625,-0.1063232421875
4.701,310,386,505,310,9.0,38.0,32.0,145.99609375,78.125,6.286620616912842,-0.717041015625,0.000732421875,-0.0946044921875
4.702,308,379,426,310,9.0,38.0,32.0,161.07176208496094,66.650390625,11.169432640075684,-0.6707763671875,0.1878662109375,-0.0728759765625
4.709,308,359,408,308,9.0,38.0,32.0,151.2451171875,50.048824310302734,16.7236328125,-0.5770263671875,0.385986328125,-0.0966796875
4.728,308,341,384,309,9.0,38.0,32.0,115.72264862060547,33.50830078125,20.01953125,-0.5255126953125,0.4844970703125,-0.0777587890625
4.732,308,328,387,310,9.0,38.0,32.0,72.1435546875,18.4326171875,22.033689498901367,-0.60009765625,0.481689453125,0.017333984375
4.743,310,328,386,310,9.0,38.0,32.0,39.00146484375,5.676269054412842,23.376462936401367,-0.722900390625,0.41796875,0.1353759765625
4.753,310,323,391,309,9.0,38.0,32.0,24.169919967651367,-2.0751953125,21.972654342651367,-0.783447265625,0.326171875,0.2042236328125
4.761,310,325,393,309,9.0,38.0,32.0,26.611326217651367,-3.479003667831421,15.991209983825684,-0.7816162109375,0.2252197265625,0.19287109375
4.771,309,326,393,310,9.0,38.0,32.0,39.6728515625,-1.6479490995407104,6.713866710662842,-0.7735595703125,0.1417236328125,0.1119384765625
4.802,309,332,394,308,9.0,38.0,32.0,53.405757904052734,0.2441406100988388,-2.13623046875,-0.7908935546875,0.108154296875,0.014404296875
4.803,310,340,400,310,7.0,37.0,34.0,57.922359466552734,-0.2441406100988388,-7.507323741912842,-0.8316650390625,0.1131591796875,-0.0382080078125
4.803,298,352,398,310,7.0,37.0,34.0,49.865718841552734,-4.33349609375,-9.09423828125,-0.8818359375,0.120361328125,-0.0318603515625
4.814,309,364,401,310,7.0,37.0,34.0,36.376953125,-10.009765625,-7.934569835662842,-0.9168701171875,0.1142578125,0.0164794921875
4.822,308,368,402,310,7.0,37.0,34.0,27.587888717651367,-14.465331077575684,-5.676269054412842,-0.9207763671875,0.114013671875,0.0726318359375
4.836,310,369,402,310,7.0,37.0,34.0,25.756834030151367,-17.08984375,-3.417968511581421,-0.8917236328125,0.1317138671875,0.087646484375
4.845,310,380,411,310,7.0,37.0,34.0,24.963376998901367,-18.798828125,-1.5869139432907104,-0.8421630859375,0.15869140625,0.0328369140625
4.851,310,407,428,310,7.0,37.0,34.0,18.49365234375,-20.629880905151367,-0.0610351525247097,-0.7889404296875,0.1748046875,-0.0518798828125
4.859,310,420,452,310,7.0,37.0,34.0,5.0048828125,-24.230955123901367,1.5869139432907104,-0.7369384765625,0.1761474609375,-0.0970458984375
4.875,310,475,513,310,7.0,37.0,34.0,-11.779784202575684,-30.944822311401367,3.295898199081421,-0.6807861328125,0.1846923828125,-0.082275390625
4.881,310,504,576,311,7.0,37.0,34.0,-28.625486373901367,-40.893550872802734,2.929687261581421,-0.6148681640625,0.2120361328125,-0.0413818359375
4.892,310,547,660,311,10.0,37.0,40.0,-47.973628997802734,-52.551265716552734,-1.8920897245407104,-0.5513916015625,0.257568359375,-0.0230712890625
4.907,310,616,868,311,10.0,37.0,40.0,-77.0263671875,-62.011714935302734,-10.375975608825684,-0.51806640625,0.3319091796875,-0.0802001953125
4.911,310,657,1018,311,10.0,37.0,40.0,-123.77928924560547,-65.3076171875,-18.1884765625,-0.4893798828125,0.397705078125,-0.2335205078125
4.919,310,703,1178,312,10.0,37.0,40.0,-184.38719177246094,-63.964839935302734,-20.751951217651367,-0.487060546875,0.38232421875,-0.3524169921875
4.947,311,790,1413,313,10.0,37.0,40.0,-233.58152770996094,-65.5517578125,-18.12744140625,-0.589111328125,0.25146484375,-0.220947265625
4.947,310,826,1547,312,10.0,37.0,40.0,-241.88230895996094,-74.0966796875,-13.732909202575684,-0.843505859375,0.08251953125,0.0972900390625
4.950,310,861,1632,312,10.0,37.0,40.0,-210.63230895996094,-84.10643768310547,-10.070799827575684,-1.156494140625,-0.133056640625,0.426025390625
4.963,310,917,1705,312,10.0,37.0,40.0,-160.0341796875,-89.35546112060547,-10.009765625,-1.304443359375,-0.4129638671875,0.731201171875
4.979,312,942,1744,314,10.0,37.0,40.0,-93.13964080810547,-82.09227752685547,-13.671874046325684,-1.2889404296875,-0.484130859375,0.873046875
4.980,297,971,1773,314,10.0,37.0,40.0,-18.798828125,-58.837886810302734,-16.78466796875,-1.2646484375,-0.2208251953125,0.7891845703125
5.006,311,1013,1813,312,13.0,33.0,32.0,35.15625,-30.029294967651367,-17.27294921875,-1.3890380859375,0.4759521484375,0.5689697265625
5.006,310,1035,1838,314,13.0,33.0,32.0,57.739253997802734,-7.995604991912842,-16.90673828125,-1.3890380859375,0.4759521484375,0.5689697265625
5.009,310,1039,1852,312,13.0,33.0,32.0,53.344722747802734,2.807616949081421,-15.747069358825684,-1.5604248046875,0.6063232421875,0.48193359375
5.023,310,1014,1840,313,13.0,33.0,32.0,29.541013717651367,3.356933355331421,-12.390135765075684,-1.544677734375,0.1114501953125,0.215087890625
5.031,311,982,1818,314,13.0,33.0,32.0,6.225585460662842,-1.4038084745407104,-8.30078125,-1.544677734375,0.1114501953125,0.215087890625
5.046,310,954,1798,312,13.0,33.0,32.0,8.4228515625,-5.615233898162842,-7.507323741912842,-1.205810546875,-0.1966552734375,0.133056640625
5.062,310,932,1785,314,13.0,33.0,32.0,38.6962890625,-4.7607421875,-10.986327171325684,-0.9884033203125,0.1112060546875,0.2781982421875
5.062,311,923,1781,313,13.0,33.0,32.0,59.326168060302734,3.234863042831421,-14.770506858825684,-0.9884033203125,0.1112060546875,0.2781982421875
5.069,312,918,1770,312,13.0,33.0,32.0,37.7197265625,15.075682640075684,-15.991209983825684,-1.1778564453125,0.3184814453125,0.4024658203125
5.083,309,904,1730,312,13.0,33.0,32.0,-9.82666015625,25.024412155151367,-13.610838890075684,-1.5162353515625,0.20556640625,0.461181640625
5.107,310,884,1694,312,12.0,33.0,38.0,-46.264644622802734,29.602048873901367,-8.7890625,-1.5162353515625,0.20556640625,0.461181640625
5.108,310,861,1648,312,12.0,33.0,38.0,-50.048824310302734,28.625486373901367,-3.479003667831421,-1.4404296875,0.06201171875,0.409423828125
5.113,310,803,1543,312,12.0,33.0,38.0,-26.672361373901367,24.475095748901367,1.7700194120407104,-1.29052734375,0.1107177734375,0.276611328125
5.121,310,766,1458,312,12.0,33.0,38.0,1.15966796875,19.10400390625,7.385253429412842,-1.29052734375,0.1107177734375,0.276611328125
5.129,310,713,1353,312,12.0,33.0,38.0,18.5546875,14.587401390075684,12.390135765075684,-1.2257080078125,0.1533203125,0.277099609375
5.159,310,618,1160,311,12.0,33.0,38.0,33.5693359375,17.15087890625,15.563963890075684,-0.9918212890625,0.0018310546875,0.32763671875
5.159,311,566,1032,311,12.0,33.0,38.0,33.5693359375,17.15087890625,15.563963890075684,-0.8726806640625,-0.1363525390625,0.322265625
5.159,296,509,888,312,12.0,33.0,38.0,46.997066497802734,23.132322311401367,14.282225608825684,-0.8726806640625,-0.1363525390625,0.322265625
5.182,311,484,740,311,12.0,33.0,38.0,93.93309783935547,43.151851654052734,10.620116233825684,-0.821533203125,-0.268310546875,0.2239990234375
5.182,311,451,629,312,12.0,33.0,38.0,93.93309783935547,43.151851654052734,10.620116233825684,-0.8377685546875,-0.246337890625,0.128173828125
5.207,309,430,562,312,12.0,37.0,37.0,116.27196502685547,56.152339935302734,9.46044921875,-0.8377685546875,-0.246337890625,0.128173828125
5.207,310,394,447,310,12.0,37.0,37.0,158.26416015625,78.91845703125,13.366698265075684,-0.628662109375,-0.0338134765625,-0.144287109375
5.211,310,371,394,310,12.0,37.0,37.0,158.26416015625,78.91845703125,13.366698265075684,-0.5750732421875,0.2567138671875,-0.2265625
5.219,308,353,387,307,12.0,37.0,37.0,168.45701599121094,80.81053924560547,14.465331077575684,-0.5750732421875,0.2567138671875,-0.2265625
5.233,310,337,373,310,12.0,37.0,37.0,83.98436737060547,42.236324310302734,13.305663108825684,-0.5318603515625,0.5970458984375,-0.0650634765625
5.242,310,328,379,310,12.0,37.0,37.0,83.98436737060547,42.236324310302734,13.305663108825684,-0.561279296875,0.5465087890625,0.08251953125
5.252,310,328,380,309,12.0,37.0,37.0,22.460935592651367,17.76123046875,12.390135765075684,-0.561279296875,0.5465087890625,0.08251953125
5.263,310,329,385,310,12.0,37.0,37.0,-26.733396530151367,-5.432128429412842,9.09423828125,-0.802001953125,0.2718505859375,0.2650146484375
5.271,310,328,394,310,12.0,37.0,37.0,-26.733396530151367,-5.432128429412842,9.09423828125,-0.8065185546875,0.14453125,0.2044677734375
5.289,310,338,401,310,12.0,37.0,37.0,-11.901854515075684,-2.685546636581421,5.676269054412842,-0.767578125,0.1048583984375,0.0950927734375
5.293,310,343,402,309,8.0,37.0,36.0,16.29638671875,9.46044921875,-6.530761241912842,-0.7728271484375,0.0963134765625,0.03662109375
5.313,310,360,408,310,8.0,37.0,36.0,9.94873046875,7.080077648162842,-11.352538108825684,-0.830322265625,0.0740966796875,0.056396484375
5.314,308,363,407,310,8.0,37.0,36.0,9.94873046875,7.080077648162842,-11.352538108825684,-0.883056640625,0.0487060546875,0.1070556640625
5.323,310,363,411,310,8.0,37.0,36.0,5.310058116912842,-4.0283203125,-5.187987804412842,-0.9049072265625,0.0401611328125,0.126708984375
5.331,310,373,424,309,8.0,37.0,36.0,13.549803733825684,-7.995604991912842,1.9531248807907104,-0.9189453125,0.0489501953125,0.1103515625
5.339,310,386,437,310,8.0,37.0,36.0,13.549803733825684,-7.995604991912842,1.9531248807907104,-0.9241943359375,0.0579833984375,0.0887451171875
5.355,309,402,456,311,8.0,37.0,36.0,23.010251998901367,-17.02880859375,10.742186546325684,-0.9071044921875,0.077880859375,0.0657958984375
5.367,310,427,467,310,8.0,37.0,36.0,20.01953125,-21.179197311401367,12.207030296325684,-0.8812255859375,0.1416015625,0.0489501953125
5.370,310,441,483,310,8.0,37.0,36.0,20.01953125,-21.179197311401367,12.207030296325684,-0.84423828125,0.2197265625,0.0560302734375
5.386,310,477,530,309,7.0,36.0,37.0,-0.1220703050494194,-27.832029342651367,9.09423828125,-0.7877197265625,0.2572021484375,0.0594482421875
5.393,310,502,572,311,7.0,36.0,37.0,-13.854979515075684,-30.944822311401367,2.929687261581421,-0.7061767578125,0.2470703125,0.0279541015625
5.400,310,533,632,310,7.0,36.0,37.0,-13.854979515075684,-30.944822311401367,2.929687261581421,-0.6060791015625,0.22265625,-0.0406494140625
5.415,310,606,778,312,7.0,36.0,37.0,-56.945796966552734,-40.466304779052734,-15.136717796325684,-0.5255126953125,0.2530517578125,-0.140380859375
5.421,308,657,907,312,7.0,36.0,37.0,-96.86278533935547,-45.043941497802734,-21.240232467651367,-0.4775390625,0.3287353515625,-0.2452392578125
5.429,310,707,1054,312,7.0,36.0,37.0,-145.5078125,-48.583980560302734,-21.301267623901367,-0.4810791015625,0.369873046875,-0.269775390625
5.443,310,780,1321,312,7.0,36.0,37.0,-188.41551208496094,-53.344722747802734,-16.54052734375,-0.5556640625,0.3319091796875,-0.103515625
5.457,311,835,1473,312,7.0,36.0,37.0,-213.37889099121094,-61.950679779052734,-10.986327171325684,-0.6956787109375,0.2008056640625,0.1856689453125
5.459,312,865,1572,312,7.0,36.0,37.0,-217.83445739746094,-70.80078125,-7.202147960662842,-0.86669921875,-0.0357666015625,0.445068359375
5.474,311,931,1695,313,7.0,36.0,37.0,-200.74461364746094,-73.54736328125,-4.5166015625,-0.96142578125,-0.3349609375,0.64404296875
5.491,312,978,1734,314,13.0,33.0,37.0,-153.62548828125,-65.73486328125,-2.563476324081421,-0.9893798828125,-0.5323486328125,0.7586669921875
5.492,311,1013,1757,310,13.0,33.0,37.0,-77.45361328125,-46.630855560302734,-1.4038084745407104,-1.0908203125,-0.4488525390625,0.7515869140625
5.517,310,1065,1778,313,13.0,33.0,37.0,-0.6103515625,-21.911619186401367,-0.7934569716453552,-1.26318359375,-0.1246337890625,0.6636962890625
5.518,310,1091,1792,313,13.0,33.0,37.0,45.043941497802734,0.6103515625,-1.03759765625,-1.4420166015625,0.2764892578125,0.5411376953125
5.520,310,1111,1811,314,13.0,33.0,37.0,53.222652435302734,16.6015625,-1.6479490995407104,-1.6297607421875,0.6177978515625,0.3907470703125
5.534,309,1129,1823,312,13.0,33.0,37.0,32.71484375,23.254392623901367,-2.01416015625,-1.78125,0.673095703125,0.2681884765625
5.542,310,1101,1796,313,13.0,33.0,37.0,1.2817381620407104,20.751951217651367,-2.197265625,-1.82373046875,0.40087890625,0.169921875
5.551,311,1078,1761,313,13.0,33.0,37.0,-16.11328125,13.610838890075684,-2.197265625,-1.5997314453125,-0.0123291015625,0.0474853515625
5.567,311,1029,1727,313,13.0,33.0,37.0,-1.4648436307907104,6.164550304412842,-3.784179449081421,-1.23193359375,-0.191650390625,-0.0191650390625
5.579,311,1022,1730,312,13.0,33.0,37.0,33.8134765625,-0.54931640625,-8.30078125,-1.0921630859375,0.0440673828125,0.0792236328125
5.582,296,1012,1718,313,15.0,34.0,36.0,45.349117279052734,-3.479003667831421,-13.000487327575684,-1.279296875,0.4061279296875,0.2987060546875
5.594,311,980,1686,312,15.0,34.0,36.0,7.568358898162842,2.624511480331421,-13.793944358825684,-1.5472412109375,0.5157470703125,0.4901123046875
5.606,310,955,1652,314,15.0,34.0,36.0,-50.231929779052734,15.258788108825684,-10.681151390075684,-1.6053466796875,0.3072509765625,0.577392578125
5.626,310,931,1602,312,15.0,34.0,36.0,-73.79150390625,25.451658248901367,-7.324218273162842,-1.490234375,0.0811767578125,0.5714111328125
5.626,312,873,1473,312,15.0,34.0,36.0,-49.682613372802734,28.747556686401367,-4.69970703125,-1.367919921875,0.038818359375,0.5096435546875
5.632,310,818,1371,312,15.0,34.0,36.0,-13.305663108825684,28.503416061401367,-0.9765624403953552,-1.29345703125,0.1192626953125,0.4373779296875
5.643,310,766,1267,313,15.0,34.0,36.0,4.94384765625,28.503416061401367,4.8828125,-1.2188720703125,0.15625,0.3760986328125
5.662,310,644,1047,312,15.0,34.0,36.0,8.11767578125,28.564451217651367,10.986327171325684,-1.0982666015625,0.067626953125,0.3197021484375
5.666,311,601,933,311,15.0,34.0,36.0,16.4794921875,28.625486373901367,14.648436546325684,-0.92724609375,-0.18017578125,0.2691650390625
5.671,310,567,832,312,15.0,34.0,36.0,44.555660247802734,30.822751998901367,14.892577171325684,-0.7757568359375,-0.4532470703125,0.2249755859375
5.685,310,499,683,310,9.0,34.0,36.0,92.22411346435547,37.59765625,14.099120140075684,-0.7158203125,-0.4019775390625,0.098388671875
5.694,309,467,601,310,9.0,34.0,36.0,140.869140625,48.583980560302734,14.709471702575684,-0.7158203125,-0.4019775390625,0.098388671875
5.700,310,438,535,309,9.0,34.0,36.0,170.34910583496094,62.316890716552734,15.747069358825684,-0.66357421875,-0.2572021484375,0.0146484375
5.721,310,373,408,310,9.0,34.0,36.0,184.50926208496094,76.47705078125,16.41845703125,-0.5584716796875,0.2572021484375,-0.0721435546875
5.722,310,356,369,308,9.0,34.0,36.0,191.10105895996094,83.37401580810547,17.02880859375,-0.5584716796875,0.2572021484375,-0.0721435546875
5.732,310,331,364,309,9.0,34.0,36.0,170.95945739746094,74.5849609375,16.7236328125,-0.5341796875,0.5684814453125,-0.094482421875
5.744,310,329,371,309,9.0,34.0,36.0,111.69432830810547,52.185054779052734,15.136717796325684,-0.575927734375,0.518310546875,-0.024169921875
5.753,311,324,373,308,9.0,34.0,36.0,44.738765716552734,28.076169967651367,15.014647483825684,-0.575927734375,0.518310546875,-0.024169921875
5.765,310,326,373,310,9.0,34.0,36.0,9.3994140625,11.047362327575684,17.88330078125,-0.7032470703125,0.392333984375,0.070068359375
5.775,308,317,373,309,9.0,34.0,36.0,12.268065452575684,2.563476324081421,19.59228515625,-0.7611083984375,0.1875,0.1357421875
5.783,310,322,385,310,10.0,34.0,39.0,33.63037109375,1.0986328125,15.747069358825684,-0.7611083984375,0.1875,0.1357421875
5.799,309,321,387,310,10.0,34.0,39.0,50.354000091552734,2.746581792831421,8.11767578125,-0.7156982421875,0.1259765625,0.1260986328125
5.830,310,329,398,310,10.0,34.0,39.0,49.926753997802734,3.295898199081421,0.30517578125,-0.7872314453125,0.1025390625,0.1251220703125
5.830,310,340,399,311,10.0,34.0,39.0,32.1044921875,0.9155272841453552,-5.920409679412842,-0.883544921875,0.053466796875,0.1622314453125
5.831,309,349,406,308,10.0,34.0,39.0,8.9111328125,-3.295898199081421,-8.85009765625,-0.883544921875,0.053466796875,0.1622314453125
5.834,310,359,410,309,10.0,34.0,39.0,12.329100608825684,-5.065917491912842,-2.746581792831421,-0.929931640625,0.0667724609375,0.16015625
5.844,308,367,423,308,10.0,34.0,39.0,12.329100608825684,-5.065917491912842,-2.746581792831421,-0.89453125,0.155029296875,0.093994140625
5.850,310,373,437,310,10.0,34.0,39.0,34.11865234375,-2.563476324081421,1.220703125,-0.89453125,0.155029296875,0.093994140625
5.868,309,396,465,310,10.0,34.0,39.0,35.400390625,-2.868652105331421,-1.7089842557907104,-0.8660888671875,0.2313232421875,-0.0391845703125
5.874,310,415,481,310,10.0,34.0,39.0,35.400390625,-2.868652105331421,-1.7089842557907104,-0.8575439453125,0.179931640625,-0.0762939453125
5.881,309,438,496,311,9.0,36.0,38.0,14.160155296325684,-7.202147960662842,-5.371093273162842,-0.8575439453125,0.179931640625,-0.0762939453125
5.904,309,469,554,310,9.0,36.0,38.0,-24.230955123901367,-24.108884811401367,-7.324218273162842,-0.7930908203125,0.1436767578125,-0.1473388671875
5.905,310,497,607,309,9.0,36.0,38.0,-24.230955123901367,-24.108884811401367,-7.324218273162842,-0.746826171875,0.1873779296875,-0.1602783203125
5.928,312,527,650,310,9.0,36.0,38.0,-41.259761810302734,-34.423828125,-6.774901866912842,-0.746826171875,0.1873779296875,-0.1602783203125
5.929,310,551,751,310,9.0,36.0,38.0,-92.46825408935547,-48.156734466552734,-4.2724609375,-0.673583984375,0.2686767578125,-0.107177734375
5.932,309,601,814,311,9.0,36.0,38.0,-92.46825408935547,-48.156734466552734,-4.2724609375,-0.6171875,0.223876953125,-0.095458984375
5.941,310,629,886,312,9.0,36.0,38.0,-122.86376190185547,-50.598140716552734,-2.990722417831421,-0.6171875,0.223876953125,-0.095458984375
5.956,310,702,1003,311,9.0,36.0,38.0,-150.45166015625,-50.292964935302734,-1.03759765625,-0.5552978515625,0.06005859375,-0.0399169921875
5.972,310,740,1155,312,9.0,36.0,38.0,-150.45166015625,-50.292964935302734,-1.03759765625,-0.6787109375,0.0841064453125,0.056640625
5.972,310,780,1302,312,9.0,36.0,38.0,-134.521484375,-47.973628997802734,-1.9531248807907104,-0.96337890625,0.2115478515625,0.1988525390625
5.984,310,838,1483,311,13.0,35.0,36.0,-104.49217987060547,-57.739253997802734,-11.535643577575684,-1.185791015625,0.1766357421875,0.40673828125
5.993,310,872,1555,314,13.0,35.0,36.0,-123.71825408935547,-70.73974609375,-14.770506858825684,-1.1817626953125,-0.085693359375,0.6441650390625
6.029,310,902,1610,312,13.0,35.0,36.0,-123.71825408935547,-70.73974609375,-14.770506858825684,-1.120361328125,-0.194091796875,0.716552734375
6.029,310,946,1669,312,13.0,35.0,36.0,-76.7822265625,-54.443355560302734,1.3427733182907104,-1.1517333984375,-0.077392578125,0.6153564453125
6.030,310,973,1689,313,13.0,35.0,36.0,-29.907224655151367,-34.0576171875,6.774901866912842,-1.271484375,0.08447265625,0.5389404296875
6.031,312,995,1709,311,13.0,35.0,36.0,-29.907224655151367,-34.0576171875,6.774901866912842,-1.447265625,0.2816162109375,0.502685546875
6.040,310,1014,1730,314,13.0,35.0,36.0,1.8920897245407104,-20.01953125,4.33349609375,-1.5936279296875,0.4169921875,0.4449462890625
6.054,310,1011,1735,312,13.0,35.0,36.0,13.793944358825684,-4.0283203125,-5.0048828125,-1.6326904296875,0.3858642578125,0.3870849609375
6.061,311,992,1724,313,13.0,35.0,36.0,7.568358898162842,0.4272460639476776,-8.48388671875,-1.47265625,0.200927734375,0.32666015625
6.070,312,969,1701,313,13.0,35.0,36.0,7.568358898162842,0.4272460639476776,-8.48388671875,-1.1514892578125,0.0020751953125,0.2972412109375
6.084,310,959,1686,312,11.0,34.0,34.0,37.29248046875,13.488768577575684,-18.00537109375,-0.958251953125,0.0157470703125,0.324462890625
6.092,312,955,1689,314,11.0,34.0,34.0,51.330562591552734,22.888181686401367,-22.460935592651367,-1.094970703125,0.2158203125,0.3712158203125
6.110,312,948,1674,312,11.0,34.0,34.0,51.330562591552734,22.888181686401367,-22.460935592651367,-1.440673828125,0.3759765625,0.3857421875
6.116,310,928,1637,312,11.0,34.0,34.0,-10.131834983825684,35.58349609375,-19.47021484375,-1.6868896484375,0.3387451171875,0.36181640625
6.136,310,906,1588,313,11.0,34.0,34.0,-40.466304779052734,34.24072265625,-14.160155296325684,-1.6983642578125,0.1671142578125,0.348876953125
6.136,311,867,1502,312,11.0,34.0,34.0,-40.466304779052734,34.24072265625,-14.160155296325684,-1.5882568359375,0.052978515625,0.3502197265625
6.144,310,794,1422,311,11.0,34.0,34.0,-10.681151390075684,23.315427780151367,-2.868652105331421,-1.479736328125,0.0521240234375,0.34423828125
6.151,310,725,1334,313,11.0,34.0,34.0,9.33837890625,20.996091842651367,4.57763671875,-1.3779296875,0.0953369140625,0.31787109375
6.159,312,653,1232,311,11.0,34.0,34.0,9.33837890625,20.996091842651367,4.57763671875,-1.221923828125,0.0845947265625,0.27880859375
6.184,310,535,987,312,11.0,34.0,34.0,25.451658248901367,25.329587936401367,17.02880859375,-0.9859619140625,-0.03466796875,0.236572265625
6.186,310,494,876,310,13.0,35.0,39.0,48.278804779052734,31.005857467651367,18.37158203125,-0.7735595703125,-0.223876953125,0.2176513671875
6.190,310,444,749,310,13.0,35.0,39.0,90.27098846435547,38.6962890625,17.02880859375,-0.6724853515625,-0.409912109375,0.2371826171875
6.207,309,377,607,310,13.0,35.0,39.0,141.41845703125,49.377437591552734,14.465331077575684,-0.6259765625,-0.48681640625,0.165771484375
6.234,310,369,522,310,13.0,35.0,39.0,180.48094177246094,65.49072265625,11.352538108825684,-0.561767578125,-0.4044189453125,-0.02783203125
6.235,310,346,449,310,13.0,35.0,39.0,197.20457458496094,81.11571502685547,8.85009765625,-0.5228271484375,-0.1241455078125,-0.178955078125
6.235,308,326,372,309,13.0,35.0,39.0,190.91795349121094,83.67919158935547,9.09423828125,-0.544677734375,0.3104248046875,-0.224365234375
6.242,310,323,373,310,13.0,35.0,39.0,154.541015625,68.78662109375,13.122557640075684,-0.5438232421875,0.6456298828125,-0.1876220703125
6.250,310,325,374,310,13.0,35.0,39.0,93.56688690185547,45.288082122802734,17.88330078125,-0.5379638671875,0.744384765625,-0.0855712890625
6.266,309,325,373,310,13.0,35.0,39.0,28.991697311401367,24.291990280151367,18.4326171875,-0.6278076171875,0.6590576171875,0.05322265625
6.276,308,325,369,310,13.0,35.0,39.0,-16.29638671875,10.070799827575684,13.244627952575684,-0.7681884765625,0.461181640625,0.1524658203125
6.282,310,323,370,309,7.0,37.0,33.0,-27.587888717651367,3.784179449081421,7.080077648162842,-0.8232421875,0.218505859375,0.1507568359375
6.295,308,325,370,309,7.0,37.0,33.0,-12.756346702575684,4.638671875,3.723144292831421,-0.7835693359375,0.0242919921875,0.0721435546875
6.309,310,325,377,310,7.0,37.0,33.0,4.5166015625,7.995604991912842,1.7700194120407104,-0.7537841796875,-0.05126953125,0.0054931640625
6.310,310,326,377,311,7.0,37.0,33.0,8.30078125,8.6669921875,0.6103515625,-0.773193359375,-0.03857421875,0.02392578125
6.328,310,326,379,309,7.0,37.0,33.0,0.0,5.432128429412842,0.9765624403953552,-0.8148193359375,-0.0020751953125,0.1102294921875
6.334,310,325,377,308,7.0,37.0,33.0,-8.85009765625,0.9155272841453552,3.234863042831421,-0.847412109375,0.039794921875,0.1983642578125
6.341,310,326,380,310,7.0,37.0,33.0,-9.521484375,-2.44140625,6.713866710662842,-0.8431396484375,0.0814208984375,0.2298583984375
6.353,308,325,382,309,7.0,37.0,33.0,-3.845214605331421,-3.784179449081421,9.58251953125,-0.8131103515625,0.114013671875,0.189697265625
6.361,308,331,399,310,7.0,37.0,33.0,0.6103515625,-3.845214605331421,10.620116233825684,-0.7808837890625,0.128662109375,0.12451171875
6.370,309,343,415,309,7.0,37.0,33.0,1.0986328125,-4.2724609375,9.765625,-0.7684326171875,0.1258544921875,0.077392578125
6.383,310,360,433,310,7.0,36.0,39.0,1.03759765625,-5.920409679412842,7.568358898162842,-0.8040771484375,0.1357421875,0.0589599609375
6.391,310,377,439,310,7.0,36.0,39.0,3.967284917831421,-9.09423828125,5.737304210662842,-0.86865234375,0.169921875,0.0670166015625
6.399,310,407,451,310,7.0,36.0,39.0,9.58251953125,-14.038084983825684,5.371093273162842,-0.89306640625,0.2056884765625,0.0784912109375
6.414,310,430,469,310,7.0,36.0,39.0,15.380858421325684,-20.446775436401367,5.798339366912842,-0.841552734375,0.2325439453125,0.07861328125
6.445,309,447,495,310,7.0,36.0,39.0,17.08984375,-28.686521530151367,4.45556640625,-0.7318115234375,0.245849609375,0.066650390625
6.446,310,480,535,310,7.0,36.0,39.0,8.36181640625,-39.6728515625,-1.5869139432907104,-0.6063232421875,0.254150390625,0.0150146484375
6.449,294,551,675,312,7.0,36.0,39.0,-17.333984375,-50.964351654052734,-12.512206077575684,-0.480224609375,0.261474609375,-0.0924072265625
6.451,310,585,785,312,7.0,36.0,39.0,-62.683101654052734,-57.922359466552734,-24.841306686401367,-0.4072265625,0.2637939453125,-0.2603759765625
6.459,310,616,899,312,7.0,36.0,39.0,-123.22997283935547,-59.082027435302734,-32.28759765625,-0.4466552734375,0.28173828125,-0.4464111328125
6.484,310,713,1173,312,7.0,36.0,39.0,-186.15721130371094,-58.959957122802734,-28.320310592651367,-0.5772705078125,0.27001953125,-0.41845703125
6.485,310,770,1333,312,12.0,36.0,33.0,-227.60008239746094,-63.781734466552734,-15.869139671325684,-0.776611328125,0.1658935546875,-0.0533447265625
6.490,310,811,1456,311,12.0,36.0,33.0,-234.61912536621094,-69.9462890625,-5.371093273162842,-1.0311279296875,0.0076904296875,0.380126953125
6.504,310,867,1569,310,12.0,36.0,33.0,-220.09275817871094,-68.9697265625,-2.50244140625,-1.222412109375,-0.2225341796875,0.6719970703125
6.544,310,902,1607,312,12.0,36.0,33.0,-187.62205505371094,-60.058589935302734,-3.845214605331421,-1.2640380859375,-0.419677734375,0.7991943359375
6.546,310,928,1632,312,12.0,36.0,33.0,-121.70409393310547,-46.874996185302734,-3.601073980331421,-1.291259765625,-0.325927734375,0.7261962890625
6.546,310,980,1666,312,12.0,36.0,33.0,-38.87939453125,-34.3017578125,-0.30517578125,-1.643798828125,0.4097900390625,0.459228515625
6.546,311,968,1681,312,12.0,36.0,33.0,17.88330078125,-26.672361373901367,4.0283203125,-1.643798828125,0.4097900390625,0.459228515625
6.551,311,998,1681,312,12.0,36.0,33.0,32.04345703125,-23.559568405151367,7.934569835662842,-1.793701171875,0.5867919921875,0.4359130859375
6.564,311,982,1634,312,12.0,36.0,33.0,22.033689498901367,-21.301267623901367,9.033203125,-1.4168701171875,0.1011962890625,0.4063720703125
6.574,310,963,1602,312,12.0,36.0,33.0,16.357421875,-15.563963890075684,4.94384765625,-1.4168701171875,0.1011962890625,0.4063720703125
6.584,312,959,1596,313,12.0,36.0,34.0,33.8134765625,-4.21142578125,-3.662109136581421,-1.0087890625,-0.0811767578125,0.3905029296875
6.595,310,957,1578,312,12.0,36.0,34.0,72.57080078125,22.521970748901367,-16.41845703125,-1.2069091796875,0.3665771484375,0.3614501953125
6.603,310,953,1572,314,12.0,36.0,34.0,72.57080078125,22.521970748901367,-16.41845703125,-1.5587158203125,0.4600830078125,0.2796630859375
6.616,311,939,1551,312,12.0,36.0,34.0,37.2314453125,28.076169967651367,-14.587401390075684,-1.5587158203125,0.4600830078125,0.2796630859375
6.645,311,886,1490,312,12.0,36.0,34.0,-34.912109375,22.338865280151367,-7.202147960662842,-1.58544921875,0.120849609375,0.1551513671875
6.645,310,838,1434,312,12.0,36.0,34.0,-34.912109375,22.338865280151367,-7.202147960662842,-1.4288330078125,0.056396484375,0.193359375
6.646,310,799,1375,312,12.0,36.0,34.0,-24.536130905151367,15.747069358825684,-4.94384765625,-1.4288330078125,0.056396484375,0.193359375
6.656,310,702,1260,312,12.0,36.0,34.0,2.807616949081421,6.774901866912842,5.432128429412842,-1.211669921875,0.0999755859375,0.3372802734375
6.662,310,644,1176,312,12.0,36.0,34.0,2.807616949081421,6.774901866912842,5.432128429412842,-1.0968017578125,0.05224609375,0.37060546875
6.670,310,590,1071,312,12.0,36.0,34.0,6.164550304412842,9.1552734375,11.657713890075684,-1.0968017578125,0.05224609375,0.37060546875
6.687,310,527,878,310,11.0,34.0,41.0,42.724605560302734,26.245115280151367,14.831542015075684,-0.8118896484375,-0.1689453125,0.352294921875
6.693,310,475,777,312,11.0,34.0,41.0,42.724605560302734,26.245115280151367,14.831542015075684,-0.7635498046875,-0.2952880859375,0.3302001953125
6.701,307,441,685,312,11.0,34.0,41.0,80.87157440185547,38.0859375,12.329100608825684,-0.7635498046875,-0.2952880859375,0.3302001953125
6.718,310,402,574,310,11.0,34.0,41.0,158.87451171875,66.46728515625,7.324218273162842,-0.697998046875,-0.32421875,0.09521484375
6.723,310,379,499,310,11.0,34.0,41.0,158.87451171875,66.46728515625,7.324218273162842,-0.6297607421875,-0.134521484375,-0.0439453125
6.753,310,349,420,310,11.0,34.0,41.0,184.20408630371094,80.68846893310547,7.141112804412842,-0.5927734375,0.199462890625,-0.0980224609375
6.753,309,326,381,310,11.0,34.0,41.0,176.57469177246094,72.021484375,5.737304210662842,-0.54541015625,0.494140625,-0.1229248046875
6.754,309,326,382,310,11.0,34.0,41.0,126.77001190185547,49.377437591552734,4.33349609375,-0.48388671875,0.6121826171875,-0.154541015625
6.760,310,322,387,308,11.0,34.0,41.0,126.77001190185547,49.377437591552734,4.33349609375,-0.5111083984375,0.5936279296875,-0.1473388671875
6.774,309,315,394,310,7.0,37.0,38.0,4.0283203125,9.58251953125,2.44140625,-0.64501953125,0.4840087890625,-0.0570068359375
6.786,308,317,399,310,7.0,37.0,38.0,-33.26416015625,-1.8920897245407104,0.54931640625,-0.766357421875,0.296142578125,0.0645751953125
6.790,309,322,402,310,7.0,37.0,38.0,-33.26416015625,-1.8920897245407104,0.54931640625,-0.806884765625,0.100830078125,0.122314453125
6.804,310,323,408,310,7.0,37.0,38.0,-16.4794921875,-2.3193359375,-6.408690929412842,-0.80322265625,0.0068359375,0.11328125
6.820,310,337,408,309,7.0,37.0,38.0,5.065917491912842,0.8544921278953552,-8.7890625,-0.8033447265625,0.03857421875,0.115478515625
6.821,308,342,409,309,7.0,37.0,38.0,5.065917491912842,0.8544921278953552,-8.7890625,-0.8184814453125,0.1011962890625,0.179931640625
6.835,310,357,408,310,7.0,37.0,38.0,2.44140625,-5.249022960662842,-9.033203125,-0.8463134765625,0.1181640625,0.260498046875
6.845,310,364,410,310,7.0,37.0,38.0,-2.50244140625,-7.385253429412842,-7.568358898162842,-0.87744140625,0.1053466796875,0.2823486328125
6.865,309,372,411,309,7.0,37.0,38.0,-2.50244140625,-7.385253429412842,-7.568358898162842,-0.8953857421875,0.089111328125,0.2349853515625
6.865,309,382,419,310,7.0,37.0,38.0,12.878417015075684,-3.662109136581421,-2.685546636581421,-0.9029541015625,0.0743408203125,0.156005859375
6.872,310,395,424,310,9.0,34.0,39.0,22.705076217651367,-4.39453125,-0.1220703050494194,-0.9136962890625,0.0762939453125,0.0826416015625
6.880,309,407,430,310,9.0,34.0,39.0,27.770994186401367,-8.23974609375,2.685546636581421,-0.923583984375,0.1102294921875,0.031494140625
6.895,310,438,440,310,9.0,34.0,39.0,26.367185592651367,-12.939452171325684,5.676269054412842,-0.912841796875,0.1614990234375,0.0250244140625
6.903,310,449,449,310,9.0,34.0,39.0,19.53125,-17.578125,7.385253429412842,-0.8819580078125,0.2042236328125,0.0736083984375
6.912,310,465,479,310,9.0,34.0,39.0,11.108397483825684,-22.705076217651367,6.469726085662842,-0.8460693359375,0.218994140625,0.124755859375
6.924,310,501,575,310,9.0,34.0,39.0,4.39453125,-27.954099655151367,3.479003667831421,-0.78515625,0.20263671875,0.125244140625
6.952,310,527,657,312,9.0,34.0,39.0,-2.3193359375,-33.63037109375,-1.5869139432907104,-0.651611328125,0.177978515625,0.06201171875
6.953,310,562,766,311,9.0,34.0,39.0,-18.6767578125,-41.259761810302734,-12.329100608825684,-0.4716796875,0.1968994140625,-0.1026611328125
6.955,310,618,974,310,9.0,34.0,39.0,-61.035152435302734,-48.706050872802734,-29.296873092651367,-0.369873046875,0.2510986328125,-0.3487548828125
6.972,310,664,1070,312,9.0,34.0,39.0,-133.23974609375,-51.269527435302734,-42.175289154052734,-0.420166015625,0.23974609375,-0.464599609375
6.972,310,710,1183,312,13.0,36.0,36.0,-200.74461364746094,-50.903316497802734,-39.73388671875,-0.518310546875,0.1239013671875,-0.24462890625
6.984,310,805,1443,312,13.0,36.0,36.0,-210.87644958496094,-50.231929779052734,-25.817869186401367,-0.667724609375,0.1146240234375,0.1573486328125
6.993,310,837,1565,312,13.0,36.0,36.0,-167.66355895996094,-47.668453216552734,-15.319823265075684,-0.95751953125,0.2596435546875,0.4471435546875
7.001,311,884,1636,313,13.0,36.0,36.0,-137.14599609375,-46.752925872802734,-16.41845703125,-1.1802978515625,0.1507568359375,0.662109375
7.015,310,944,1704,313,13.0,36.0,36.0,-135.498046875,-49.133296966552734,-22.277830123901367,-1.1734619140625,-0.206298828125,0.855224609375
7.025,311,974,1734,312,13.0,36.0,36.0,-108.94774627685547,-44.250484466552734,-22.216794967651367,-1.118408203125,-0.37548828125,0.8416748046875
7.030,310,1009,1757,312,13.0,36.0,36.0,-41.870113372802734,-26.733396530151367,-16.41845703125,-1.21435546875,-0.260009765625,0.63720703125
7.050,310,1055,1788,312,13.0,36.0,36.0,27.709959030151367,-6.896972179412842,-11.718749046325684,-1.4486083984375,0.0220947265625,0.4749755859375
7.053,311,1081,1792,314,13.0,36.0,36.0,67.87109375,5.981444835662842,-11.108397483825684,-1.6917724609375,0.2857666015625,0.428466796875
7.060,310,1091,1775,312,13.0,36.0,36.0,72.08251953125,13.244627952575684,-12.756346702575684,-1.8172607421875,0.327392578125,0.418701171875
7.074,310,1071,1682,313,14.0,33.0,35.0,57.800289154052734,20.01953125,-14.038084983825684,-1.6854248046875,0.146240234375,0.3656005859375
7.083,310,1056,1637,313,14.0,33.0,35.0,51.940914154052734,29.113767623901367,-14.221190452575684,-1.2960205078125,-0.0654296875,0.2618408203125
7.096,311,1064,1627,312,14.0,33.0,35.0,70.25146484375,37.41455078125,-14.404295921325684,-1.047607421875,-0.0301513671875,0.173828125
7.105,310,1055,1610,312,14.0,33.0,35.0,95.09276580810547,38.39111328125,-16.05224609375,-1.2794189453125,0.2684326171875,0.1417236328125
7.112,310,1043,1578,313,14.0,33.0,35.0,85.26610565185547,32.3486328125,-18.61572265625,-1.7066650390625,0.4818115234375,0.110595703125
7.129,313,1022,1527,312,14.0,33.0,35.0,32.89794921875,26.733396530151367,-19.775390625,-1.874267578125,0.3692626953125,0.052734375
7.135,310,966,1447,312,14.0,33.0,35.0,-19.4091796875,23.071287155151367,-17.88330078125,-1.7462158203125,0.0899658203125,0.012939453125
7.158,310,927,1387,312,14.0,33.0,35.0,-33.447265625,15.747069358825684,-12.878417015075684,-1.5291748046875,-0.055419921875,0.0208740234375
7.158,297,858,1309,312,14.0,33.0,35.0,-18.12744140625,1.5258787870407104,-5.493163585662842,-1.3475341796875,-0.0218505859375,0.0740966796875
7.180,310,753,1173,311,14.0,33.0,35.0,-4.82177734375,-14.343260765075684,3.662109136581421,-1.1990966796875,0.0184326171875,0.123046875
7.181,296,665,1091,299,12.0,33.0,37.0,-5.615233898162842,-23.376462936401367,13.061522483825684,-1.02734375,-0.052734375,0.147216796875
7.183,310,614,974,312,12.0,33.0,37.0,-6.835937023162842,-23.010251998901367,20.141599655151367,-0.8319091796875,-0.1920166015625,0.1800537109375
7.195,310,537,840,312,12.0,33.0,37.0,9.94873046875,-16.11328125,22.888181686401367,-0.5013427734375,-0.2998046875,0.1949462890625
7.206,311,504,758,311,12.0,33.0,37.0,45.776363372802734,-3.723144292831421,21.179197311401367,-0.5013427734375,-0.2998046875,0.1949462890625
7.210,310,488,707,311,12.0,33.0,37.0,87.03612518310547,14.343260765075684,16.2353515625,-0.404052734375,-0.285888671875,0.21044921875
7.230,310,465,628,311,12.0,33.0,37.0,121.27684783935547,33.0810546875,9.6435546875,-0.5235595703125,0.1566162109375,0.21923828125
7.232,310,441,590,310,12.0,33.0,37.0,135.25390625,44.738765716552734,2.929687261581421,-0.5235595703125,0.1566162109375,0.21923828125
7.259,310,432,558,310,12.0,33.0,37.0,121.52098846435547,46.997066497802734,-2.624511480331421,-0.5966796875,0.3531494140625,0.11865234375
7.259,310,423,508,310,12.0,33.0,37.0,90.57616424560547,42.785640716552734,-5.737304210662842,-0.67333984375,0.483154296875,-0.005126953125
7.263,310,415,490,310,12.0,33.0,37.0,58.532711029052734,33.8134765625,-5.737304210662842,-0.67333984375,0.483154296875,-0.005126953125
7.271,309,413,485,310,12.0,33.0,41.0,29.602048873901367,19.775390625,-4.08935546875,-0.729736328125,0.4404296875,0.0421142578125
7.284,310,423,499,310,12.0,33.0,41.0,2.929687261581421,3.784179449081421,-3.356933355331421,-0.8126220703125,0.1021728515625,0.2008056640625
7.293,310,426,503,311,12.0,33.0,41.0,-16.41845703125,-7.385253429412842,-4.8828125,-0.8126220703125,0.1021728515625,0.2008056640625
7.309,310,430,509,310,12.0,33.0,41.0,-21.850584030151367,-10.620116233825684,-8.30078125,-0.858642578125,-0.0384521484375,0.25634765625
7.314,310,437,521,310,12.0,33.0,41.0,-13.671874046325684,-8.72802734375,-11.291502952575684,-0.9493408203125,0.0130615234375,0.2137451171875
7.322,309,439,523,310,12.0,33.0,41.0,-0.1831054538488388,-5.126952648162842,-10.864256858825684,-0.9493408203125,0.0130615234375,0.2137451171875
7.331,310,441,529,310,12.0,33.0,41.0,8.97216796875,-2.25830078125,-7.629394054412842,-0.9459228515625,0.08740234375,0.1680908203125
7.351,309,452,535,310,12.0,33.0,41.0,7.995604991912842,-3.723144292831421,-2.685546636581421,-0.9097900390625,0.0728759765625,0.1346435546875
7.352,310,463,545,310,12.0,33.0,41.0,7.995604991912842,-3.723144292831421,-2.685546636581421,-0.9005126953125,0.026123046875,0.1053466796875
7.367,309,469,554,312,12.0,33.0,41.0,5.187987804412842,-6.469726085662842,-1.5869139432907104,-0.9005126953125,0.026123046875,0.1053466796875
7.375,310,481,577,310,9.0,35.0,37.0,0.30517578125,-16.2353515625,2.929687261581421,-0.880126953125,0.002197265625,0.0894775390625
7.392,310,493,599,311,9.0,35.0,37.0,0.30517578125,-16.2353515625,2.929687261581421,-0.8516845703125,0.03564453125,0.1171875
7.392,310,499,629,296,9.0,35.0,37.0,-2.13623046875,-23.315427780151367,5.981444835662842,-0.8516845703125,0.03564453125,0.1171875
7.404,311,523,711,310,9.0,35.0,37.0,-7.873534679412842,-36.19384765625,6.652831554412842,-0.744140625,0.131591796875,0.125732421875
7.412,310,551,766,311,9.0,35.0,37.0,-7.873534679412842,-36.19384765625,6.652831554412842,-0.669677734375,0.169189453125,0.098876953125
7.446,310,567,846,312,9.0,35.0,37.0,-14.282225608825684,-40.649410247802734,2.746581792831421,-0.669677734375,0.169189453125,0.098876953125
7.454,308,620,973,310,9.0,35.0,37.0,-42.297359466552734,-42.602535247802734,-7.385253429412842,-0.5447998046875,0.196044921875,0.001953125
7.477,310,644,1064,312,9.0,35.0,37.0,-42.297359466552734,-42.602535247802734,-7.385253429412842,-0.5286865234375,0.1571044921875,0.0072021484375
7.477,311,697,1105,297,9.0,35.0,37.0,-64.14794921875,-40.161128997802734,-9.8876953125,-0.5286865234375,0.1571044921875,0.0072021484375
7.477,310,771,1290,312,9.0,35.0,37.0,-79.04052734375,-34.60693359375,-9.94873046875,-0.6300048828125,0.0975341796875,0.1929931640625
7.477,310,809,1390,311,13.0,33.0,37.0,-79.04052734375,-34.60693359375,-9.94873046875,-0.762451171875,0.1287841796875,0.303466796875
7.480,310,852,1470,312,13.0,33.0,37.0,-67.0166015625,-33.02001953125,-10.314940452575684,-0.762451171875,0.1287841796875,0.303466796875
7.496,309,916,1552,312,13.0,33.0,37.0,-62.316890716552734,-41.503902435302734,-10.131834983825684,-0.8802490234375,-0.1383056640625,0.6043701171875
7.505,311,944,1585,312,13.0,33.0,37.0,-48.278804779052734,-44.189449310302734,-2.990722417831421,-0.94970703125,-0.2320556640625,0.6119384765625
7.513,311,978,1621,312,13.0,33.0,37.0,-48.278804779052734,-44.189449310302734,-2.990722417831421,-1.10888671875,-0.1649169921875,0.4847412109375
7.542,310,1038,1652,312,13.0,33.0,37.0,24.597166061401367,-34.72900390625,14.770506858825684,-1.2882080078125,-0.039794921875,0.39013671875
7.543,310,1064,1675,313,13.0,33.0,37.0,44.799800872802734,-27.282712936401367,15.869139671325684,-1.4410400390625,0.0972900390625,0.384765625
7.543,294,1066,1679,312,13.0,33.0,37.0,44.799800872802734,-27.282712936401367,15.869139671325684,-1.5159912109375,0.1783447265625,0.40185546875
7.563,310,1117,1698,312,13.0,33.0,37.0,43.762203216552734,-5.432128429412842,8.30078125,-1.5162353515625,0.172607421875,0.392822265625
7.564,310,1131,1709,312,13.0,33.0,37.0,42.968746185302734,3.723144292831421,5.187987804412842,-1.528076171875,0.208251953125,0.3212890625
7.570,310,1133,1708,313,7.0,31.0,38.0,42.968746185302734,3.723144292831421,5.187987804412842,-1.54736328125,0.277099609375,0.1973876953125
7.584,310,1122,1701,313,7.0,31.0,38.0,40.893550872802734,0.1831054538488388,7.141112804412842,-1.3955078125,0.2425537109375,0.0496826171875
7.592,311,1105,1689,314,7.0,31.0,38.0,30.456541061401367,-5.798339366912842,6.958007335662842,-1.1248779296875,0.2171630859375,-0.02783203125
7.608,311,1104,1695,313,7.0,31.0,38.0,30.456541061401367,-5.798339366912842,6.958007335662842,-0.9871826171875,0.3017578125,0.06103515625
7.614,308,1101,1701,314,7.0,31.0,38.0,6.896972179412842,-10.192870140075684,-7.751464366912842,-1.0548095703125,0.3385009765625,0.2801513671875
7.622,312,1096,1701,314,7.0,31.0,38.0,-13.610838890075684,-3.540038824081421,-19.10400390625,-1.264404296875,0.2567138671875,0.5037841796875
7.630,312,1092,1700,312,7.0,31.0,38.0,-13.610838890075684,-3.540038824081421,-19.10400390625,-1.4417724609375,0.1156005859375,0.6256103515625
7.647,310,1081,1675,314,7.0,31.0,38.0,-46.813961029052734,23.620603561401367,-27.893064498901367,-1.46435546875,-0.00048828125,0.6466064453125
7.669,311,1069,1648,314,7.0,31.0,38.0,-41.381832122802734,31.127927780151367,-23.498533248901367,-1.3699951171875,-0.019287109375,0.578125
7.669,310,1029,1617,312,7.0,31.0,38.0,-22.033689498901367,31.555173873901367,-17.2119140625,-1.271240234375,0.0322265625,0.4273681640625
7.674,310,982,1543,314,11.0,31.0,43.0,-2.624511480331421,27.099607467651367,-11.718749046325684,-1.2305908203125,0.091064453125,0.2344970703125
7.682,311,939,1499,313,11.0,31.0,43.0,6.164550304412842,19.22607421875,-7.202147960662842,-1.2196044921875,0.1083984375,0.0706787109375
7.690,310,902,1444,313,11.0,31.0,43.0,3.906249761581421,9.46044921875,-2.624511480331421,-1.1973876953125,0.08984375,-0.01953125
7.715,311,816,1340,312,11.0,31.0,43.0,-3.967284917831421,0.1831054538488388,2.197265625,-1.1431884765625,0.0838623046875,-0.0345458984375
7.715,311,742,1228,312,11.0,31.0,43.0,-11.291502952575684,-5.920409679412842,5.0048828125,-1.0372314453125,0.0938720703125,0.0220947265625
7.721,310,689,1162,312,11.0,31.0,43.0,-14.160155296325684,-6.652831554412842,3.417968511581421,-0.8905029296875,0.0863037109375,0.11279296875
7.743,310,601,1003,312,11.0,31.0,43.0,-11.840819358825684,-1.15966796875,-2.197265625,-0.7467041015625,0.034423828125,0.2022705078125
7.744,310,548,922,313,11.0,31.0,43.0,-3.845214605331421,9.09423828125,-9.3994140625,-0.6458740234375,-0.1097412109375,0.28564453125
7.768,308,525,834,312,11.0,31.0,43.0,12.451170921325684,22.705076217651367,-14.709471702575684,-0.6124267578125,-0.3001708984375,0.3515625
7.768,308,495,740,311,11.0,31.0,43.0,36.1328125,38.14697265625,-15.075682640075684,-0.6451416015625,-0.354248046875,0.366943359375
7.773,309,472,703,310,12.0,33.0,40.0,56.518550872802734,50.720211029052734,-10.620116233825684,-0.6966552734375,-0.2391357421875,0.3131103515625
7.781,310,446,666,311,12.0,33.0,40.0,64.0869140625,56.457515716552734,-4.5166015625,-0.7406005859375,-0.0904541015625,0.22705078125
7.794,309,408,600,312,12.0,33.0,40.0,62.622066497802734,54.626461029052734,1.15966796875,-0.7705078125,0.0345458984375,0.1414794921875
7.803,310,379,578,311,12.0,33.0,40.0,58.898921966552734,46.874996185302734,6.591796398162842,-0.7559814453125,0.157958984375,0.0648193359375
7.820,310,372,547,310,12.0,33.0,40.0,52.124019622802734,34.423828125,11.718749046325684,-0.7042236328125,0.26708984375,0.0263671875
7.824,310,364,535,310,12.0,33.0,40.0,38.26904296875,17.76123046875,15.808104515075684,-0.6551513671875,0.3160400390625,0.064697265625
7.832,308,367,536,310,12.0,33.0,40.0,20.446775436401367,-0.4882812201976776,18.37158203125,-0.6324462890625,0.281982421875,0.1695556640625
7.843,309,373,542,310,12.0,33.0,40.0,7.568358898162842,-14.465331077575684,18.49365234375,-0.6485595703125,0.19775390625,0.277587890625
7.873,310,402,558,310,12.0,33.0,40.0,5.615233898162842,-19.71435546875,15.319823265075684,-0.7000732421875,0.12060546875,0.32958984375
7.873,311,411,566,310,12.0,33.0,40.0,12.329100608825684,-15.686034202575684,9.70458984375,-0.75390625,0.086181640625,0.316162109375
7.873,310,415,574,311,9.0,35.0,41.0,20.874021530151367,-6.591796398162842,3.845214605331421,-0.7752685546875,0.0985107421875,0.2667236328125
7.884,310,447,592,310,9.0,35.0,41.0,24.658201217651367,0.54931640625,-0.3662109076976776,-0.7723388671875,0.1400146484375,0.21142578125
7.893,310,464,608,310,9.0,35.0,41.0,21.789548873901367,1.7700194120407104,-2.990722417831421,-0.770751953125,0.1728515625,0.1697998046875
7.901,311,476,629,310,9.0,35.0,41.0,15.258788108825684,-2.44140625,-4.8828125,-0.7723388671875,0.157470703125,0.145263671875
7.925,310,497,689,311,9.0,35.0,41.0,8.97216796875,-9.521484375,-5.737304210662842,-0.7845458984375,0.1142578125,0.1258544921875
7.925,310,519,739,310,9.0,35.0,41.0,3.479003667831421,-17.39501953125,-5.0048828125,-0.7833251953125,0.0899658203125,0.1104736328125
7.931,310,547,816,311,9.0,35.0,41.0,-4.33349609375,-24.597166061401367,-4.82177734375,-0.7147216796875,0.08544921875,0.0994873046875
7.947,310,607,980,310,9.0,35.0,41.0,-20.263669967651367,-30.029294967651367,-8.544921875,-0.606689453125,0.0880126953125,0.06689453125
7.952,311,644,1076,312,9.0,35.0,41.0,-49.194332122802734,-33.203125,-15.502928733825684,-0.533447265625,0.068603515625,-0.0037841796875
7.960,310,678,1160,312,9.0,35.0,41.0,-84.77782440185547,-33.3251953125,-20.080564498901367,-0.5042724609375,-0.0015869140625,-0.0552978515625
7.985,310,754,1325,312,11.0,33.0,40.0,-105.16356658935547,-32.1044921875,-17.39501953125,-0.621826171875,0.0858154296875,0.091796875
7.985,310,799,1447,312,11.0,33.0,40.0,-93.99413299560547,-33.203125,-8.6669921875,-0.621826171875,0.0858154296875,0.091796875
7.990,310,849,1543,312,11.0,33.0,40.0,-72.6318359375,-38.75732421875,-2.0751953125,-0.780029296875,0.2467041015625,0.2396240234375
8.004,310,928,1652,312,11.0,33.0,40.0,-79.833984375,-46.813961029052734,-3.051757574081421,-1.026123046875,-0.0870361328125,0.653564453125
8.018,311,973,1695,313,11.0,33.0,40.0,-110.96190643310547,-49.926753997802734,-6.225585460662842,-1.026123046875,-0.0870361328125,0.653564453125
8.029,312,1011,1727,314,11.0,33.0,40.0,-120.30028533935547,-38.9404296875,-5.554198741912842,-1.1361083984375,-0.337890625,0.7557373046875
8.036,310,1074,1752,312,11.0,33.0,40.0,-83.25194549560547,-15.014647483825684,-1.5258787870407104,-1.36962890625,-0.1944580078125,0.604248046875
8.051,311,1096,1773,313,11.0,33.0,40.0,-18.4326171875,8.11767578125,3.479003667831421,-1.36962890625,-0.1944580078125,0.604248046875
8.051,311,1122,1783,313,11.0,33.0,40.0,35.46142578125,19.22607421875,9.3994140625,-1.4737548828125,0.1385498046875,0.498046875
8.074,310,1146,1795,312,12.0,33.0,37.0,52.246089935302734,19.34814453125,14.648436546325684,-1.639404296875,0.1824951171875,0.28515625
8.077,310,1149,1790,314,12.0,33.0,37.0,41.198726654052734,16.41845703125,17.4560546875,-1.639404296875,0.1824951171875,0.28515625
8.081,311,1147,1786,313,12.0,33.0,37.0,26.184080123901367,14.892577171325684,18.798828125,-1.658203125,0.1126708984375,0.101806640625
8.097,311,1138,1785,312,12.0,33.0,37.0,17.578125,13.549803733825684,19.34814453125,-1.1094970703125,0.198486328125,-0.1011962890625
8.102,310,1120,1773,314,12.0,33.0,37.0,14.709471702575684,11.169432640075684,16.54052734375,-0.977783203125,0.3558349609375,0.0029296875
8.110,310,1116,1778,314,12.0,33.0,37.0,9.09423828125,7.446288585662842,7.812499523162842,-0.977783203125,0.3558349609375,0.0029296875
8.124,310,1109,1774,313,12.0,33.0,37.0,-28.625486373901367,8.056640625,-19.95849609375,-1.2435302734375,0.2430419921875,0.4046630859375
8.138,310,1105,1761,312,12.0,33.0,37.0,-28.625486373901367,8.056640625,-19.95849609375,-1.45556640625,0.0916748046875,0.51953125
8.140,310,1101,1752,313,12.0,33.0,37.0,-41.809078216552734,13.183592796325684,-28.869626998901367,-1.45556640625,0.0916748046875,0.51953125
8.154,310,1078,1709,312,12.0,33.0,37.0,-37.9638671875,19.71435546875,-24.108884811401367,-1.41845703125,-0.114990234375,0.5037841796875
8.170,310,1063,1679,314,11.0,27.0,38.0,-37.9638671875,19.71435546875,-24.108884811401367,-1.3099365234375,-0.1033935546875,0.4117431640625
8.175,296,1035,1632,310,11.0,27.0,38.0,-25.085447311401367,18.06640625,-13.977049827575684,-1.3099365234375,-0.1033935546875,0.4117431640625
8.184,310,974,1551,312,11.0,27.0,38.0,-1.15966796875,8.7890625,5.493163585662842,-1.1826171875,-0.01953125,0.1708984375
8.192,311,935,1502,312,11.0,27.0,38.0,-1.15966796875,8.7890625,5.493163585662842,-1.151611328125,0.023193359375,0.097900390625
8.201,310,893,1437,312,11.0,27.0,38.0,1.9531248807907104,2.624511480331421,12.695311546325684,-1.151611328125,0.023193359375,0.097900390625
8.223,310,784,1316,312,11.0,27.0,38.0,-5.0048828125,-7.507323741912842,18.00537109375,-1.0609130859375,0.14306640625,0.085693359375
8.224,310,737,1232,297,11.0,27.0,38.0,-5.0048828125,-7.507323741912842,18.00537109375,-0.96435546875,0.1265869140625,0.1337890625
8.232,310,663,1120,311,11.0,27.0,38.0,-8.11767578125,-6.164550304412842,13.244627952575684,-0.8739013671875,0.0355224609375,0.1788330078125
8.242,310,607,1035,313,11.0,27.0,38.0,-6.958007335662842,0.4272460639476776,5.126952648162842,-0.8739013671875,0.0355224609375,0.1788330078125
8.254,310,531,884,311,11.0,27.0,38.0,18.06640625,25.573728561401367,-8.7890625,-0.751953125,-0.2298583984375,0.208984375
8.280,309,491,803,311,11.0,27.0,38.0,18.06640625,25.573728561401367,-8.7890625,-0.68017578125,-0.314208984375,0.2655029296875
8.283,310,465,750,312,14.0,32.0,39.0,39.24560546875,40.466304779052734,-10.620116233825684,-0.68017578125,-0.314208984375,0.2655029296875
8.283,297,410,634,310,14.0,32.0,39.0,79.52880859375,63.171382904052734,1.0986328125,-0.638916015625,-0.1134033203125,0.22900390625
8.292,310,391,584,311,14.0,32.0,39.0,79.52880859375,63.171382904052734,1.0986328125,-0.6339111328125,0.0965576171875,0.1239013671875
8.300,306,372,530,310,14.0,32.0,39.0,86.73094940185547,66.0400390625,8.11767578125,-0.6339111328125,0.0965576171875,0.1239013671875
8.314,310,357,480,310,14.0,32.0,39.0,52.490230560302734,39.00146484375,16.54052734375,-0.577392578125,0.3245849609375,0.1490478515625
8.322,311,351,455,310,14.0,32.0,39.0,52.490230560302734,39.00146484375,16.54052734375,-0.5841064453125,0.3121337890625,0.208984375
8.333,310,353,456,310,14.0,32.0,39.0,26.306150436401367,17.2119140625,20.751951217651367,-0.651123046875,0.229736328125,0.2493896484375
8.356,310,363,480,310,14.0,32.0,39.0,7.629394054412842,-8.9111328125,18.6767578125,-0.733154296875,0.13037109375,0.239501953125
8.357,310,370,509,310,14.0,32.0,39.0,20.080564498901367,-7.751464366912842,11.962889671325684,-0.790283203125,0.0609130859375,0.199462890625
8.360,309,380,519,310,14.0,32.0,39.0,20.080564498901367,-7.751464366912842,11.962889671325684,-0.8275146484375,0.048828125,0.1884765625
8.385,310,394,543,310,12.0,33.0,41.0,44.250484466552734,0.0610351525247097,-0.6103515625,-0.832275390625,0.090576171875,0.2032470703125
8.386,310,406,557,310,12.0,33.0,41.0,44.921871185302734,0.4882812201976776,-4.08935546875,-0.7998046875,0.134765625,0.1968994140625
8.390,308,420,574,312,12.0,33.0,41.0,44.921871185302734,0.4882812201976776,-4.08935546875,-0.759521484375,0.1370849609375,0.168701171875
8.403,309,451,606,310,12.0,33.0,41.0,30.334470748901367,-2.807616949081421,-9.033203125,-0.7298583984375,0.11083984375,0.1268310546875
8.411,310,467,631,310,12.0,33.0,41.0,21.423337936401367,-8.60595703125,-9.82666015625,-0.708251953125,0.0758056640625,0.0745849609375
8.419,306,490,688,311,12.0,33.0,41.0,21.423337936401367,-8.60595703125,-9.82666015625,-0.6861572265625,0.0560302734375,0.02392578125
8.435,310,543,819,312,12.0,33.0,41.0,1.0986328125,-28.015134811401367,-6.408690929412842,-0.65576171875,0.090087890625,-0.031494140625
8.442,310,578,938,312,12.0,33.0,41.0,-20.874021530151367,-38.75732421875,-6.835937023162842,-0.615234375,0.1561279296875,-0.0867919921875
8.462,310,620,1065,312,12.0,33.0,41.0,-20.874021530151367,-38.75732421875,-6.835937023162842,-0.5567626953125,0.2064208984375,-0.1397705078125
8.464,310,694,1272,312,12.0,30.0,37.0,-101.31835174560547,-48.583980560302734,-14.526366233825684,-0.49658203125,0.1722412109375,-0.1575927734375
8.486,311,751,1395,312,12.0,30.0,37.0,-137.3291015625,-45.593257904052734,-16.11328125,-0.5052490234375,0.08935546875,-0.0450439453125
8.486,311,803,1514,299,12.0,30.0,37.0,-143.1884765625,-42.907711029052734,-14.343260765075684,-0.6068115234375,0.06494140625,0.20166015625
8.493,310,886,1662,314,12.0,30.0,37.0,-124.14550018310547,-44.250484466552734,-12.695311546325684,-0.7418212890625,-0.018310546875,0.4954833984375
8.502,310,936,1711,314,12.0,30.0,37.0,-101.01317596435547,-46.691890716552734,-13.061522483825684,-0.860595703125,-0.2080078125,0.7554931640625
8.509,310,989,1746,313,12.0,30.0,37.0,-73.91357421875,-43.029781341552734,-11.535643577575684,-0.982177734375,-0.3431396484375,0.8743896484375
8.531,311,1071,1791,311,12.0,30.0,37.0,-35.94970703125,-28.930662155151367,-6.591796398162842,-1.1473388671875,-0.3323974609375,0.791259765625
8.533,312,1105,1781,312,12.0,30.0,37.0,7.690429210662842,-7.385253429412842,-0.9765624403953552,-1.3353271484375,-0.170166015625,0.6025390625
8.562,312,1141,1800,310,12.0,30.0,37.0,41.931148529052734,13.549803733825684,2.44140625,-1.48828125,0.07958984375,0.4364013671875
8.562,308,1183,1843,300,12.0,30.0,37.0,54.443355560302734,27.343748092651367,3.723144292831421,-1.5849609375,0.2236328125,0.337646484375
8.564,310,1198,1844,299,13.0,30.0,36.0,49.560543060302734,31.982419967651367,4.69970703125,-1.6798095703125,0.1580810546875,0.272216796875
8.590,311,1202,1838,312,13.0,30.0,36.0,42.236324310302734,29.541013717651367,7.141112804412842,-1.7945556640625,0.0562744140625,0.1766357421875
8.590,310,1188,1805,314,13.0,30.0,36.0,39.00146484375,22.338865280151367,11.718749046325684,-1.7115478515625,-0.0081787109375,0.0225830078125
8.591,310,1173,1788,313,13.0,30.0,36.0,37.29248046875,13.610838890075684,16.17431640625,-1.3438720703125,-0.0238037109375,-0.1419677734375
8.600,311,1155,1787,312,13.0,30.0,36.0,35.888671875,4.57763671875,17.02880859375,-1.05859375,0.1461181640625,-0.2037353515625
8.614,310,1145,1803,313,13.0,30.0,36.0,26.367185592651367,-5.371093273162842,11.962889671325684,-1.0511474609375,0.3458251953125,-0.06982421875
8.622,312,1137,1803,312,13.0,30.0,36.0,-0.4272460639476776,-10.131834983825684,2.01416015625,-1.2518310546875,0.3709716796875,0.21484375
8.632,311,1129,1803,314,13.0,30.0,36.0,-36.865234375,-3.967284917831421,-8.056640625,-1.4876708984375,0.2281494140625,0.4794921875
8.643,310,1100,1778,312,13.0,30.0,36.0,-63.842769622802734,9.58251953125,-13.183592796325684,-1.5404052734375,0.0074462890625,0.6015625
8.652,311,1071,1746,312,13.0,30.0,36.0,-64.8193359375,20.996091842651367,-11.535643577575684,-1.4339599609375,-0.09375,0.5889892578125
8.695,312,1050,1704,314,15.0,31.0,36.0,-43.395992279052734,24.169919967651367,-5.126952648162842,-1.3009033203125,-0.050048828125,0.5108642578125
8.696,312,996,1627,296,15.0,31.0,36.0,-20.080564498901367,21.484373092651367,1.7700194120407104,-1.23681640625,0.0272216796875,0.39453125
8.696,312,959,1573,312,15.0,31.0,36.0,-7.934569835662842,18.49365234375,6.835937023162842,-1.2371826171875,0.09326171875,0.26708984375
8.697,310,916,1508,312,15.0,31.0,36.0,-5.310058116912842,15.991209983825684,9.70458984375,-1.222900390625,0.1158447265625,0.1875
8.704,311,826,1381,312,15.0,31.0,36.0,-4.82177734375,12.695311546325684,10.498045921325684,-1.15771484375,0.10498046875,0.1575927734375
8.711,310,763,1294,312,15.0,31.0,36.0,-1.4038084745407104,9.58251953125,9.1552734375,-1.0570068359375,0.0921630859375,0.1419677734375
8.722,311,698,1206,312,15.0,31.0,36.0,4.39453125,8.6669921875,5.371093273162842,-0.9339599609375,0.042724609375,0.1331787109375
8.734,311,588,1035,311,15.0,31.0,36.0,12.084959983825684,11.108397483825684,-0.4882812201976776,-0.83154296875,-0.028564453125,0.1007080078125
