time,compression0,compression1,compression2,compression3,magn_x,magn_y,magn_z,gyro_x,gyro_y,gyro_z,accel_x,accel_y,accel_z
0.004,308,338,402,309,-22.0,45.0,31.0,2.807616949081421,2.01416015625,-1.6479490995407104,-0.801513671875,0.4560546875,-0.41162109375
0.025,310,338,405,310,-22.0,45.0,31.0,3.356933355331421,2.685546636581421,-1.2817381620407104,-0.80224609375,0.449951171875,-0.407958984375
0.030,309,336,401,309,-22.0,45.0,31.0,3.173827886581421,3.417968511581421,-0.7324218153953552,-0.80224609375,0.449951171875,-0.407958984375
0.048,310,336,402,310,-22.0,45.0,31.0,2.3193359375,4.0283203125,-0.2441406100988388,-0.801513671875,0.449462890625,-0.4066162109375
0.048,308,336,402,310,-22.0,45.0,31.0,1.6479490995407104,4.57763671875,0.0610351525247097,-0.7891845703125,0.45263671875,-0.408447265625
0.054,309,331,402,308,-22.0,45.0,31.0,1.4038084745407104,4.94384765625,0.0,-0.7891845703125,0.45263671875,-0.408447265625
0.062,310,331,402,309,-22.0,45.0,31.0,1.2817381620407104,5.249022960662842,-0.30517578125,-0.78125,0.4539794921875,-0.408447265625
0.076,310,330,406,310,-22.0,45.0,31.0,1.2817381620407104,5.432128429412842,-0.4272460639476776,-0.7750244140625,0.45263671875,-0.4122314453125
0.084,308,328,402,310,-22.0,45.0,31.0,1.4648436307907104,5.493163585662842,-0.30517578125,-0.7750244140625,0.45263671875,-0.4122314453125
0.092,308,328,401,310,-22.0,45.0,31.0,1.7700194120407104,5.249022960662842,-0.1220703050494194,-0.7779541015625,0.45458984375,-0.4189453125
0.106,310,328,401,308,-19.0,45.0,34.0,2.13623046875,4.638671875,0.0,-0.78369140625,0.4554443359375,-0.42578125
0.133,310,326,401,309,-19.0,45.0,34.0,2.624511480331421,3.723144292831421,0.0,-0.78369140625,0.4554443359375,-0.42578125
0.133,310,326,402,309,-19.0,45.0,34.0,3.112792730331421,2.868652105331421,0.0,-0.787353515625,0.453125,-0.425537109375
0.136,309,326,399,311,-19.0,45.0,34.0,4.0283203125,1.5258787870407104,0.54931640625,-0.7838134765625,0.44384765625,-0.418701171875
0.146,310,323,401,310,-19.0,45.0,34.0,4.0283203125,1.5258787870407104,0.54931640625,-0.7781982421875,0.4388427734375,-0.416748046875
0.155,309,325,401,309,-19.0,45.0,34.0,4.33349609375,1.03759765625,0.7934569716453552,-0.7781982421875,0.4388427734375,-0.416748046875
0.182,308,325,400,310,-19.0,45.0,34.0,4.08935546875,0.30517578125,1.8920897245407104,-0.7705078125,0.436279296875,-0.4139404296875
0.194,310,323,401,310,-19.0,45.0,34.0,4.08935546875,0.30517578125,1.8920897245407104,-0.7734375,0.439208984375,-0.41259765625
0.207,309,322,401,308,-19.0,45.0,34.0,3.784179449081421,-0.2441406100988388,2.746581792831421,-0.7734375,0.439208984375,-0.41259765625
0.234,310,322,399,309,-19.0,42.0,32.0,3.234863042831421,-1.8310545682907104,4.08935546875,-0.8070068359375,0.4490966796875,-0.4151611328125
0.234,308,317,396,308,-19.0,42.0,32.0,3.234863042831421,-1.8310545682907104,4.08935546875,-0.8214111328125,0.44873046875,-0.4130859375
0.234,310,315,399,310,-19.0,42.0,32.0,3.356933355331421,-2.624511480331421,4.5166015625,-0.8214111328125,0.44873046875,-0.4130859375
0.234,310,317,396,308,-19.0,42.0,32.0,3.601073980331421,-3.906249761581421,5.981444835662842,-0.7813720703125,0.4293212890625,-0.3922119140625
0.239,310,317,394,310,-19.0,42.0,32.0,3.601073980331421,-3.906249761581421,5.981444835662842,-0.7462158203125,0.41162109375,-0.379150390625
0.242,310,322,396,308,-19.0,42.0,32.0,2.929687261581421,-3.662109136581421,7.629394054412842,-0.7462158203125,0.41162109375,-0.379150390625
0.257,310,323,399,310,-19.0,42.0,32.0,0.8544921278953552,-0.54931640625,12.756346702575684,-0.7174072265625,0.405517578125,-0.387939453125
0.268,310,325,399,310,-19.0,42.0,32.0,0.8544921278953552,-0.54931640625,12.756346702575684,-0.7216796875,0.4217529296875,-0.39892578125
0.275,309,326,401,308,-19.0,42.0,32.0,0.1831054538488388,1.8920897245407104,15.930174827575684,-0.7193603515625,0.43408203125,-0.4002685546875
0.286,310,328,398,308,-19.0,42.0,32.0,-1.7700194120407104,6.530761241912842,22.033689498901367,-0.713623046875,0.4364013671875,-0.3900146484375
0.294,306,328,400,310,-19.0,42.0,32.0,-3.906249761581421,8.36181640625,24.597166061401367,-0.6966552734375,0.4288330078125,-0.3665771484375
0.302,308,331,399,310,-21.0,45.0,34.0,-3.906249761581421,8.36181640625,24.597166061401367,-0.6475830078125,0.3997802734375,-0.312255859375
0.316,310,345,398,308,-21.0,45.0,34.0,-13.671874046325684,10.437010765075684,29.479978561401367,-0.56494140625,0.353271484375,-0.216064453125
0.337,309,356,396,310,-21.0,45.0,34.0,-24.414060592651367,10.681151390075684,31.677244186401367,-0.4359130859375,0.3094482421875,-0.07177734375
0.337,310,368,394,310,-21.0,45.0,34.0,-24.414060592651367,10.681151390075684,31.677244186401367,-0.2208251953125,0.2410888671875,0.1875
0.346,310,379,393,310,-21.0,45.0,34.0,-25.451658248901367,0.6103515625,24.475095748901367,0.11962890625,0.1763916015625,0.52001953125
0.359,310,414,391,309,-21.0,45.0,34.0,19.8974609375,-19.6533203125,7.568358898162842,0.439208984375,0.2200927734375,0.682861328125
0.363,310,449,386,310,-21.0,45.0,34.0,19.8974609375,-19.6533203125,7.568358898162842,0.518798828125,0.3240966796875,0.4544677734375
0.380,310,516,485,310,-21.0,45.0,34.0,155.517578125,-75.13427734375,-45.043941497802734,0.306396484375,0.572265625,-0.2330322265625
0.385,308,537,506,311,-21.0,45.0,34.0,128.47900390625,-98.75487518310547,-71.35009765625,-0.2073974609375,0.7294921875,-1.2353515625
0.392,310,558,527,310,-21.0,45.0,34.0,128.47900390625,-98.75487518310547,-71.35009765625,-0.96044921875,0.6534423828125,-2.2125244140625
0.413,310,601,579,312,-21.0,45.0,29.0,-0.0610351525247097,-47.058101654052734,-78.7353515625,-1.6514892578125,0.7972412109375,-2.521728515625
0.414,310,638,671,312,-21.0,45.0,29.0,-63.232418060302734,-39.48974609375,-59.692378997802734,-2.0780029296875,0.9503173828125,-1.8819580078125
0.428,311,689,793,312,-21.0,45.0,29.0,-146.8505859375,-70.556640625,-42.053218841552734,-2.254150390625,0.859130859375,-0.910888671875
0.436,310,710,858,312,-21.0,45.0,29.0,-210.81541442871094,-82.64159393310547,-24.597166061401367,-2.220947265625,0.5447998046875,-0.1083984375
0.445,310,710,871,312,-21.0,45.0,29.0,-208.19090270996094,-53.344722747802734,-7.873534679412842,-2.0406494140625,-0.1351318359375,0.44921875
0.452,310,711,875,312,-21.0,45.0,29.0,-135.009765625,-21.850584030151367,8.72802734375,-1.5914306640625,-0.50927734375,0.69287109375
0.466,310,697,813,311,-21.0,45.0,29.0,-39.4287109375,-14.465331077575684,26.733396530151367,-1.046875,-0.0439453125,0.5260009765625
0.474,310,678,771,311,-21.0,45.0,29.0,26.123044967651367,-17.7001953125,35.15625,-0.7601318359375,0.611083984375,0.0738525390625
0.483,310,673,780,312,-21.0,45.0,29.0,52.124019622802734,-15.502928733825684,23.010251998901367,-0.73388671875,0.9091796875,-0.3699951171875
0.496,311,668,805,312,-17.0,43.0,36.0,53.405757904052734,-3.723144292831421,0.1831054538488388,-0.975830078125,1.0377197265625,-0.7515869140625
0.504,310,654,794,312,-17.0,43.0,36.0,33.0810546875,11.718749046325684,-14.343260765075684,-1.3565673828125,1.1165771484375,-1.0067138671875
0.516,310,632,763,314,-17.0,43.0,36.0,-4.57763671875,22.338865280151367,-15.624999046325684,-1.543701171875,0.95458984375,-0.9696044921875
0.536,310,592,700,312,-17.0,43.0,36.0,-37.9638671875,28.198240280151367,-9.21630859375,-1.4554443359375,0.653564453125,-0.6859130859375
0.537,310,566,663,312,-17.0,43.0,36.0,-51.208492279052734,32.53173828125,0.3662109076976776,-1.246826171875,0.4744873046875,-0.3533935546875
0.544,310,546,631,312,-17.0,43.0,36.0,-46.508785247802734,33.5693359375,8.60595703125,-1.067626953125,0.44189453125,-0.166748046875
0.556,309,503,584,312,-17.0,43.0,36.0,-30.700681686401367,30.151365280151367,11.169432640075684,-0.9747314453125,0.4381103515625,-0.1553955078125
0.571,309,483,548,310,-17.0,43.0,36.0,-11.108397483825684,22.888181686401367,7.751464366912842,-0.92626953125,0.3851318359375,-0.174560546875
0.572,310,456,519,310,-17.0,43.0,36.0,7.568358898162842,14.282225608825684,0.54931640625,-0.87158203125,0.242431640625,-0.156494140625
0.586,310,424,424,310,-17.0,43.0,36.0,25.329587936401367,6.896972179412842,-9.27734375,-0.7734375,0.060546875,-0.1209716796875
0.598,310,395,402,310,-18.0,43.0,38.0,41.198726654052734,0.9765624403953552,-20.01953125,-0.63916015625,-0.0552978515625,-0.1068115234375
0.606,308,386,394,310,-18.0,43.0,38.0,51.391597747802734,-4.150390625,-27.160642623901367,-0.5404052734375,-0.058837890625,-0.1221923828125
0.619,310,370,393,309,-18.0,43.0,38.0,55.480953216552734,-8.056640625,-27.282712936401367,-0.530029296875,0.0601806640625,-0.162353515625
0.625,309,351,386,309,-18.0,43.0,38.0,59.875484466552734,-7.812499523162842,-22.949216842651367,-0.549072265625,0.261474609375,-0.2725830078125
0.639,309,337,399,310,-18.0,43.0,38.0,67.68798828125,-2.563476324081421,-20.446775436401367,-0.509765625,0.444091796875,-0.441650390625
0.646,308,322,396,310,-18.0,43.0,38.0,71.10595703125,4.82177734375,-19.775390625,-0.4710693359375,0.552490234375,-0.6029052734375
0.654,310,314,391,309,-18.0,43.0,38.0,64.0869140625,10.375975608825684,-14.587401390075684,-0.543212890625,0.603759765625,-0.712158203125
0.662,310,310,387,309,-18.0,43.0,38.0,49.377437591552734,10.192870140075684,-4.57763671875,-0.8438720703125,0.563232421875,-0.749755859375
0.678,310,310,386,309,-18.0,43.0,38.0,29.052732467651367,-3.417968511581421,-0.0610351525247097,-1.0369873046875,0.455078125,-0.60205078125
0.686,309,309,393,308,-18.0,43.0,38.0,4.82177734375,-30.700681686401367,-11.535643577575684,-0.746337890625,0.3875732421875,-0.2725830078125
0.693,310,311,391,310,-18.0,45.0,35.0,-10.803221702575684,-45.898433685302734,-26.428220748901367,-0.4339599609375,0.337646484375,-0.08251953125
0.706,310,311,387,310,-18.0,45.0,35.0,-7.629394054412842,-37.353515625,-25.939939498901367,-0.439208984375,0.2763671875,-0.127197265625
0.725,310,312,387,310,-18.0,45.0,35.0,6.164550304412842,-22.949216842651367,-13.854979515075684,-0.5654296875,0.2078857421875,-0.212646484375
0.726,310,310,385,308,-18.0,45.0,35.0,17.9443359375,-13.854979515075684,-2.197265625,-0.6219482421875,0.17919921875,-0.23486328125
0.741,310,310,387,309,-18.0,45.0,35.0,23.376462936401367,-9.09423828125,6.652831554412842,-0.4989013671875,0.3739013671875,-0.182373046875
0.746,308,310,391,308,-18.0,45.0,35.0,21.179197311401367,-5.187987804412842,18.12744140625,-0.4989013671875,0.3739013671875,-0.182373046875
0.753,308,311,386,310,-18.0,45.0,35.0,10.803221702575684,-2.624511480331421,33.69140625,-0.4698486328125,0.392333984375,-0.1695556640625
0.766,310,323,364,309,-18.0,45.0,35.0,-5.615233898162842,-4.57763671875,49.438472747802734,-0.4730224609375,0.3070068359375,-0.153564453125
0.774,309,328,364,310,-18.0,45.0,35.0,-23.498533248901367,-10.986327171325684,62.438961029052734,-0.4730224609375,0.3070068359375,-0.153564453125
0.787,309,345,364,311,-18.0,45.0,35.0,-37.65869140625,-14.526366233825684,71.83837890625,-0.279052734375,0.443603515625,-0.087890625
0.796,310,357,364,310,-21.0,42.0,38.0,-40.161128997802734,-7.263183116912842,73.486328125,0.302734375,0.41748046875,0.09619140625
0.804,310,367,365,310,-21.0,42.0,38.0,-26.428220748901367,7.568358898162842,66.71142578125,0.302734375,0.41748046875,0.09619140625
0.812,310,394,357,310,-21.0,42.0,38.0,-4.57763671875,16.2353515625,56.518550872802734,0.3270263671875,0.2730712890625,0.1907958984375
0.837,310,480,426,309,-21.0,42.0,38.0,27.404783248901367,5.615233898162842,39.1845703125,0.1409912109375,0.53369140625,0.3460693359375
0.837,310,531,558,312,-21.0,42.0,38.0,80.74950408935547,-23.742673873901367,4.638671875,0.1409912109375,0.53369140625,0.3460693359375
0.849,310,594,714,312,-21.0,42.0,38.0,121.03270721435547,-56.030269622802734,-47.851558685302734,-0.1639404296875,0.796630859375,-0.109619140625
0.856,310,698,883,312,-21.0,42.0,38.0,81.17675018310547,-76.23291015625,-98.38866424560547,-1.6741943359375,0.9041748046875,-1.212158203125
0.865,310,750,1039,313,-21.0,42.0,38.0,-19.4091796875,-75.50048828125,-124.69481658935547,-1.6741943359375,0.9041748046875,-1.212158203125
0.872,311,781,1159,314,-21.0,42.0,38.0,-91.79686737060547,-57.006832122802734,-124.32860565185547,-2.577392578125,0.78662109375,-1.6727294921875
0.894,310,784,1198,314,-21.0,42.0,38.0,-133.544921875,-38.9404296875,-108.58153533935547,-2.8741455078125,0.2706298828125,-0.8599853515625
0.897,310,777,1182,314,-15.0,43.0,35.0,-169.49461364746094,-25.207517623901367,-84.04540252685547,-2.4700927734375,-0.2369384765625,-0.012939453125
0.902,310,758,1131,314,-15.0,43.0,35.0,-167.23631286621094,-14.526366233825684,-47.302242279052734,-2.4700927734375,-0.2369384765625,-0.012939453125
0.916,310,750,1078,314,-15.0,43.0,35.0,-9.21630859375,-23.071287155151367,24.169919967651367,-0.93359375,0.2232666015625,0.518798828125
0.925,310,745,1069,314,-15.0,43.0,35.0,-9.21630859375,-23.071287155151367,24.169919967651367,-0.9886474609375,1.1649169921875,-0.3447265625
0.932,310,736,1055,313,-15.0,43.0,35.0,56.823726654052734,-19.10400390625,35.2783203125,-0.9886474609375,1.1649169921875,-0.3447265625
0.952,310,694,1017,312,-15.0,43.0,35.0,32.28759765625,15.502928733825684,-5.432128429412842,-1.8209228515625,1.264892578125,-1.313720703125
0.954,312,653,982,314,-15.0,43.0,35.0,32.28759765625,15.502928733825684,-5.432128429412842,-1.7601318359375,0.7481689453125,-0.9088134765625
0.962,311,617,937,313,-15.0,43.0,35.0,-20.935056686401367,23.864744186401367,-21.911619186401367,-1.7601318359375,0.7481689453125,-0.9088134765625
0.976,311,538,816,314,-15.0,43.0,35.0,-59.143062591552734,35.888671875,-6.835937023162842,-1.305419921875,0.3131103515625,-0.1207275390625
0.984,310,494,750,312,-15.0,43.0,35.0,-59.143062591552734,35.888671875,-6.835937023162842,-1.1131591796875,0.323974609375,0.076171875
1.000,310,454,691,314,-16.0,42.0,36.0,-43.823238372802734,47.607418060302734,7.263183116912842,-1.1131591796875,0.323974609375,0.076171875
1.006,310,406,584,311,-16.0,42.0,36.0,-7.873534679412842,53.833003997802734,7.690429210662842,-0.6842041015625,0.0169677734375,0.3551025390625
1.015,310,380,502,312,-16.0,42.0,36.0,-7.873534679412842,53.833003997802734,7.690429210662842,-0.48193359375,-0.1253662109375,0.3135986328125
1.029,310,363,481,311,-16.0,42.0,36.0,12.634276390075684,42.541500091552734,-6.042479991912842,-0.48193359375,-0.1253662109375,0.3135986328125
1.037,310,331,454,309,-16.0,42.0,36.0,43.090816497802734,8.9111328125,-27.160642623901367,-0.2652587890625,-0.1412353515625,0.137939453125
1.046,310,326,449,310,-16.0,42.0,36.0,55.053707122802734,0.1831054538488388,-34.11865234375,-0.2916259765625,-0.0198974609375,-0.12890625
1.060,310,324,452,312,-16.0,42.0,36.0,55.053707122802734,0.1831054538488388,-34.11865234375,-0.2835693359375,0.2281494140625,-0.443115234375
1.067,310,323,408,310,-16.0,42.0,36.0,75.8056640625,14.709471702575684,-35.94970703125,-0.3287353515625,0.5130615234375,-0.6689453125
1.074,310,315,394,310,-16.0,42.0,36.0,66.2841796875,24.108884811401367,-28.442380905151367,-0.4735107421875,0.7784423828125,-0.7943115234375
1.082,310,312,383,310,-16.0,42.0,36.0,66.2841796875,24.108884811401367,-28.442380905151367,-0.629150390625,0.8970947265625,-0.797119140625
1.107,310,312,372,310,-16.0,44.0,39.0,18.798828125,17.27294921875,-4.39453125,-0.743896484375,0.80712890625,-0.6900634765625
1.107,308,311,367,309,-16.0,44.0,39.0,-17.2119140625,0.54931640625,0.7324218153953552,-0.728759765625,0.6224365234375,-0.50146484375
1.113,310,311,364,309,-16.0,44.0,39.0,-17.2119140625,0.54931640625,0.7324218153953552,-0.6146240234375,0.46435546875,-0.30810546875
1.130,310,312,367,310,-16.0,44.0,39.0,-64.0869140625,-18.85986328125,1.3427733182907104,-0.5252685546875,0.3624267578125,-0.1761474609375
1.135,310,310,363,308,-16.0,44.0,39.0,-65.24658203125,-13.977049827575684,4.2724609375,-0.528564453125,0.2587890625,-0.10107421875
1.159,310,310,363,310,-16.0,44.0,39.0,-65.24658203125,-13.977049827575684,4.2724609375,-0.5941162109375,0.1400146484375,-0.065673828125
1.159,310,314,371,310,-16.0,44.0,39.0,-53.649898529052734,-2.197265625,8.1787109375,-0.6531982421875,0.02783203125,-0.0550537109375
1.170,310,325,368,310,-16.0,44.0,39.0,-43.090816497802734,-1.4648436307907104,6.896972179412842,-0.689697265625,-0.0533447265625,-0.079345703125
1.172,308,328,365,310,-16.0,44.0,39.0,-43.090816497802734,-1.4648436307907104,6.896972179412842,-0.6947021484375,-0.0360107421875,-0.14990234375
1.186,308,339,364,308,-16.0,44.0,39.0,-12.634276390075684,1.3427733182907104,15.991209983825684,-0.6671142578125,0.0865478515625,-0.240966796875
1.202,308,341,357,308,-15.0,43.0,35.0,-0.3662109076976776,6.103515148162842,31.249998092651367,-0.6312255859375,0.22509765625,-0.2943115234375
1.203,310,354,354,310,-15.0,43.0,35.0,-0.1220703050494194,9.21630859375,48.217769622802734,-0.5721435546875,0.32568359375,-0.275634765625
1.217,309,382,337,310,-15.0,43.0,35.0,-14.099120140075684,8.056640625,60.241695404052734,-0.4761962890625,0.383544921875,-0.1865234375
1.225,309,393,340,308,-15.0,43.0,35.0,-33.63037109375,3.356933355331421,64.02587890625,-0.398193359375,0.4072265625,-0.0718994140625
1.232,310,410,338,310,-15.0,43.0,35.0,-43.518062591552734,-2.01416015625,62.988277435302734,-0.3140869140625,0.4140625,0.0596923828125
1.248,310,469,353,310,-15.0,43.0,35.0,-30.334470748901367,-8.11767578125,58.898921966552734,-0.179443359375,0.377685546875,0.1727294921875
1.261,311,512,426,310,-15.0,43.0,35.0,7.446288585662842,-19.10400390625,45.166011810302734,0.014892578125,0.3360595703125,0.2864990234375
1.263,310,566,579,313,-15.0,43.0,35.0,66.58935546875,-38.330078125,14.282225608825684,0.250732421875,0.52197265625,0.3572998046875
1.282,311,676,925,312,-15.0,43.0,35.0,121.27684783935547,-62.805171966552734,-35.70556640625,0.1607666015625,0.7569580078125,-0.076904296875
1.285,310,723,986,314,-15.0,43.0,35.0,99.79247283935547,-79.65087890625,-88.13475799560547,-0.629638671875,0.492431640625,-1.0023193359375
1.293,311,770,1069,314,-15.0,43.0,37.0,-3.417968511581421,-73.974609375,-110.65673065185547,-1.702392578125,-0.089599609375,-1.7030029296875
1.306,310,847,1371,314,-15.0,43.0,37.0,-92.89550018310547,-46.386714935302734,-87.21923065185547,-2.3394775390625,-0.0123291015625,-1.600341796875
1.317,311,877,1464,315,-15.0,43.0,37.0,-133.4228515625,-21.606443405151367,-42.846675872802734,-2.524658203125,0.616943359375,-0.828125
1.324,312,876,1483,315,-15.0,43.0,37.0,-151.91650390625,-12.207030296325684,-9.94873046875,-2.6268310546875,0.9105224609375,-0.218505859375
1.337,310,853,1463,314,-15.0,43.0,37.0,-140.9912109375,-7.568358898162842,13.366698265075684,-2.413330078125,0.687255859375,0.046630859375
1.356,311,827,1413,314,-15.0,43.0,37.0,-90.57616424560547,-9.27734375,26.123044967651367,-1.611083984375,0.1962890625,0.4964599609375
1.361,296,813,1351,315,-15.0,43.0,37.0,-18.310546875,-17.578125,21.606443405151367,-0.887451171875,0.189208984375,0.747802734375
1.367,311,808,1351,315,-15.0,43.0,37.0,42.968746185302734,-18.98193359375,10.864256858825684,-0.73291015625,0.734619140625,0.2508544921875
1.374,312,793,1338,315,-15.0,43.0,37.0,70.556640625,-8.544921875,-0.54931640625,-1.0858154296875,1.25146484375,-0.6754150390625
1.383,311,756,1315,314,-15.0,43.0,37.0,58.105464935302734,8.36181640625,-11.718749046325684,-1.603759765625,1.3531494140625,-1.289306640625
1.396,312,685,1239,313,-13.0,43.0,38.0,14.343260765075684,20.935056686401367,-19.1650390625,-1.8216552734375,0.9425048828125,-1.205810546875
1.405,311,644,1176,314,-13.0,43.0,38.0,-28.991697311401367,26.306150436401367,-17.15087890625,-1.7718505859375,0.4481201171875,-0.676025390625
1.412,310,603,1094,314,-13.0,43.0,38.0,-46.936031341552734,29.357908248901367,-2.01416015625,-1.5845947265625,0.19189453125,-0.109619140625
1.429,311,547,973,313,-13.0,43.0,38.0,-36.0107421875,33.02001953125,19.71435546875,-1.3009033203125,0.1373291015625,0.1839599609375
1.444,310,510,871,314,-13.0,43.0,38.0,-10.131834983825684,34.60693359375,33.3251953125,-1.011962890625,0.1358642578125,0.2431640625
1.456,311,479,805,313,-13.0,43.0,38.0,14.099120140075684,30.090330123901367,29.541013717651367,-0.775634765625,0.1141357421875,0.1785888671875
1.459,310,414,662,313,-13.0,43.0,38.0,33.203125,23.864744186401367,14.160155296325684,-0.580078125,0.06201171875,0.04833984375
1.467,310,387,621,314,-13.0,43.0,38.0,45.776363372802734,18.00537109375,-0.9765624403953552,-0.41259765625,-0.0230712890625,0.0164794921875
1.472,310,372,592,312,-13.0,43.0,38.0,47.058101654052734,8.056640625,-10.498045921325684,-0.3238525390625,-0.057861328125,0.1162109375
1.486,310,356,591,312,-14.0,43.0,41.0,44.006343841552734,-3.662109136581421,-17.02880859375,-0.3077392578125,0.0003662109375,0.070068359375
1.494,310,343,564,311,-14.0,43.0,41.0,49.438472747802734,-7.080077648162842,-23.376462936401367,-0.315673828125,0.1326904296875,-0.2000732421875
1.508,310,336,545,310,-14.0,43.0,41.0,57.556148529052734,-1.4648436307907104,-26.489255905151367,-0.3177490234375,0.36767578125,-0.4622802734375
1.517,310,328,522,311,-14.0,43.0,41.0,55.786128997802734,7.507323741912842,-22.216794967651367,-0.510009765625,0.7598876953125,-0.6878662109375
1.532,310,322,488,310,-14.0,43.0,41.0,45.471187591552734,16.17431640625,-12.451170921325684,-0.510009765625,0.7598876953125,-0.6878662109375
1.539,310,317,467,312,-14.0,43.0,41.0,28.625486373901367,18.61572265625,-4.150390625,-0.6724853515625,0.7232666015625,-0.6688232421875
1.546,310,315,435,310,-14.0,43.0,41.0,2.01416015625,10.681151390075684,-2.01416015625,-0.689208984375,0.433837890625,-0.29541015625
1.561,310,315,449,310,-14.0,43.0,41.0,-25.939939498901367,-2.807616949081421,-5.249022960662842,-0.689208984375,0.433837890625,-0.29541015625
1.562,310,315,428,310,-14.0,43.0,41.0,-39.00146484375,-13.854979515075684,-9.70458984375,-0.6539306640625,0.2857666015625,-0.1064453125
1.577,310,317,442,310,-14.0,43.0,41.0,-35.0341796875,-19.95849609375,-10.253905296325684,-0.6798095703125,0.279541015625,-0.049072265625
1.584,309,315,430,310,-14.0,43.0,41.0,-24.291990280151367,-21.911619186401367,-5.371093273162842,-0.6798095703125,0.279541015625,-0.049072265625
1.592,310,323,423,310,-13.0,43.0,42.0,-13.366698265075684,-20.263669967651367,1.5258787870407104,-0.7490234375,0.3045654296875,-0.13330078125
1.616,309,329,420,310,-13.0,43.0,42.0,-5.737304210662842,-17.02880859375,7.812499523162842,-0.802734375,0.327392578125,-0.2086181640625
1.619,309,330,414,310,-13.0,43.0,42.0,-2.25830078125,-13.488768577575684,13.488768577575684,-0.802734375,0.327392578125,-0.2086181640625
1.624,310,328,402,311,-13.0,43.0,42.0,-1.0986328125,-9.58251953125,18.6767578125,-0.7236328125,0.3275146484375,-0.1630859375
1.643,308,357,399,310,-13.0,43.0,42.0,-1.5258787870407104,-5.554198741912842,23.925779342651367,-0.634765625,0.3349609375,-0.1358642578125
1.644,311,372,373,298,-13.0,43.0,42.0,-4.08935546875,-1.4648436307907104,29.907224655151367,-0.634765625,0.3349609375,-0.1358642578125
1.659,310,383,393,311,-13.0,43.0,42.0,-8.6669921875,2.25830078125,35.46142578125,-0.617431640625,0.3516845703125,-0.14990234375
1.670,310,408,411,311,-13.0,43.0,42.0,-14.587401390075684,6.042479991912842,39.794921875,-0.4854736328125,0.4405517578125,-0.086669921875
1.674,310,435,481,312,-13.0,43.0,42.0,-14.587401390075684,6.042479991912842,39.794921875,-0.33642578125,0.48779296875,0.125732421875
1.682,310,451,543,311,-13.0,43.0,42.0,-9.09423828125,2.25830078125,39.0625,-0.33642578125,0.48779296875,0.125732421875
1.696,311,513,687,312,-19.0,43.0,35.0,42.724605560302734,-22.460935592651367,17.4560546875,0.6883544921875,0.1947021484375,0.5152587890625
1.704,310,557,830,313,-19.0,43.0,35.0,42.724605560302734,-22.460935592651367,17.4560546875,0.7669677734375,0.19384765625,0.0574951171875
1.713,311,608,927,312,-19.0,43.0,35.0,57.861324310302734,-28.137205123901367,-9.58251953125,0.7669677734375,0.19384765625,0.0574951171875
1.732,310,712,1096,314,-19.0,43.0,35.0,-2.868652105331421,-40.0390625,-43.151851654052734,-0.5406494140625,0.2764892578125,-0.6058349609375
1.734,310,793,1234,313,-19.0,43.0,35.0,-2.868652105331421,-40.0390625,-43.151851654052734,-2.0330810546875,0.598388671875,-1.3721923828125
1.760,311,847,1380,314,-19.0,43.0,35.0,-4.33349609375,-21.362302780151367,-45.654293060302734,-2.0330810546875,0.598388671875,-1.3721923828125
1.761,310,922,1540,315,-19.0,43.0,35.0,-53.283687591552734,1.7089842557907104,-16.66259765625,-3.1275634765625,1.085205078125,-0.9658203125
1.779,312,943,1565,314,-19.0,43.0,35.0,-53.283687591552734,1.7089842557907104,-16.66259765625,-2.8037109375,0.5384521484375,-0.4034423828125
1.779,312,942,1588,315,-19.0,43.0,35.0,-87.09716033935547,5.310058116912842,1.15966796875,-2.8037109375,0.5384521484375,-0.4034423828125
1.787,311,907,1519,314,-15.0,42.0,44.0,-41.931148529052734,7.751464366912842,26.794431686401367,-1.356689453125,-0.3135986328125,0.4688720703125
1.799,312,858,1401,314,-15.0,42.0,44.0,-41.931148529052734,7.751464366912842,26.794431686401367,-0.864501953125,0.1502685546875,0.4752197265625
1.806,311,833,1349,315,-15.0,42.0,44.0,4.57763671875,0.54931640625,32.2265625,-0.762939453125,0.763427734375,-0.04052734375
1.820,310,822,1362,314,-15.0,42.0,44.0,54.077144622802734,17.27294921875,13.793944358825684,-1.0804443359375,1.2242431640625,-0.728759765625
1.827,310,799,1325,314,-15.0,42.0,44.0,45.288082122802734,29.663084030151367,-4.57763671875,-1.6644287109375,1.4852294921875,-1.2557373046875
1.832,312,764,1289,314,-15.0,42.0,44.0,45.288082122802734,29.663084030151367,-4.57763671875,-1.9554443359375,1.2742919921875,-1.3328857421875
1.854,311,693,1173,314,-15.0,42.0,44.0,-39.00146484375,20.385740280151367,-4.57763671875,-1.8553466796875,0.751220703125,-0.9554443359375
1.865,312,644,1096,314,-15.0,42.0,44.0,-59.204097747802734,16.9677734375,12.939452171325684,-1.5736083984375,0.3275146484375,-0.37890625
1.866,311,599,1025,314,-15.0,42.0,44.0,-59.204097747802734,16.9677734375,12.939452171325684,-1.257568359375,0.22314453125,0.0286865234375
1.876,310,529,904,312,-15.0,42.0,44.0,-19.1650390625,23.681638717651367,47.363277435302734,-0.946044921875,0.2647705078125,0.2252197265625
1.885,311,483,824,313,-16.0,41.0,41.0,8.23974609375,15.563963890075684,37.53662109375,-0.6572265625,0.1827392578125,0.31787109375
1.892,310,437,708,314,-16.0,41.0,41.0,8.23974609375,15.563963890075684,37.53662109375,-0.419189453125,0.019287109375,0.263427734375
1.906,310,396,636,312,-16.0,41.0,41.0,56.884761810302734,-5.065917491912842,-20.385740280151367,-0.2523193359375,-0.088134765625,0.1800537109375
1.918,310,377,601,312,-16.0,41.0,41.0,63.476558685302734,-15.747069358825684,-41.992183685302734,-0.187744140625,-0.1365966796875,0.1697998046875
1.922,308,368,601,312,-16.0,41.0,41.0,63.476558685302734,-15.747069358825684,-41.992183685302734,-0.2486572265625,-0.1126708984375,0.0657958984375
1.937,310,345,575,311,-16.0,41.0,41.0,74.40185546875,-11.352538108825684,-46.508785247802734,-0.3182373046875,0.09619140625,-0.2156982421875
1.979,310,343,552,310,-16.0,41.0,41.0,88.25682830810547,6.286620616912842,-34.3017578125,-0.3446044921875,0.4705810546875,-0.5206298828125
1.980,309,341,512,310,-16.0,41.0,41.0,88.25682830810547,6.286620616912842,-34.3017578125,-0.43603515625,0.775390625,-0.7127685546875
1.982,310,336,465,312,-16.0,41.0,41.0,55.480953216552734,24.597166061401367,-9.09423828125,-0.587890625,0.8284912109375,-0.7486572265625
1.983,310,333,423,310,-16.0,41.0,41.0,25.024412155151367,18.9208984375,-5.432128429412842,-0.730224609375,0.6622314453125,-0.655517578125
1.984,310,327,408,311,-20.0,43.0,40.0,-5.065917491912842,6.408690929412842,-6.286620616912842,-0.75146484375,0.454833984375,-0.467529296875
1.998,310,325,415,311,-20.0,43.0,40.0,-29.602048873901367,-5.615233898162842,-7.446288585662842,-0.6485595703125,0.3125,-0.2440185546875
2.005,310,326,417,310,-20.0,43.0,40.0,-41.442867279052734,-9.94873046875,-6.591796398162842,-0.611572265625,0.242431640625,-0.084228515625
2.019,310,326,421,310,-20.0,43.0,40.0,-42.114253997802734,-7.263183116912842,-0.9765624403953552,-0.6751708984375,0.2596435546875,-0.016845703125
2.029,310,328,423,311,-20.0,43.0,40.0,-37.53662109375,-3.051757574081421,8.30078125,-0.7498779296875,0.3001708984375,-0.0057373046875
2.038,308,329,423,310,-20.0,43.0,40.0,-28.869626998901367,-0.4882812201976776,16.4794921875,-0.77880859375,0.30126953125,-0.0150146484375
2.044,311,337,420,312,-20.0,43.0,40.0,-15.869139671325684,1.3427733182907104,21.789548873901367,-0.75341796875,0.2838134765625,-0.0538330078125
2.078,310,342,415,310,-20.0,43.0,40.0,-1.7700194120407104,4.8828125,26.306150436401367,-0.7052001953125,0.2869873046875,-0.127197265625
2.079,310,352,414,311,-20.0,43.0,40.0,7.995604991912842,10.437010765075684,32.53173828125,-0.6666259765625,0.325927734375,-0.1912841796875
2.079,310,357,407,310,-20.0,43.0,40.0,9.70458984375,16.2353515625,40.649410247802734,-0.6591796875,0.3817138671875,-0.2322998046875
2.089,309,391,419,310,-15.0,43.0,37.0,3.234863042831421,20.507810592651367,48.522945404052734,-0.64892578125,0.412353515625,-0.2432861328125
2.096,310,399,415,309,-15.0,43.0,37.0,-6.774901866912842,22.583005905151367,53.405757904052734,-0.586181640625,0.3968505859375,-0.1885986328125
2.103,310,418,409,311,-15.0,43.0,37.0,-14.282225608825684,23.315427780151367,54.077144622802734,-0.4676513671875,0.357666015625,-0.0701904296875
2.120,308,441,433,310,-15.0,43.0,37.0,-17.51708984375,22.949216842651367,51.147457122802734,-0.3018798828125,0.3250732421875,0.05615234375
2.126,310,450,469,310,-15.0,43.0,37.0,-17.39501953125,18.49365234375,45.410152435302734,-0.0931396484375,0.3187255859375,0.1341552734375
2.133,310,483,536,311,-15.0,43.0,37.0,-15.380858421325684,4.8828125,34.97314453125,0.151611328125,0.3265380859375,0.1695556640625
2.158,311,572,710,312,-15.0,43.0,37.0,-12.817381858825684,-18.9208984375,14.953612327575684,0.359619140625,0.3048095703125,0.157470703125
2.158,297,607,847,312,-15.0,43.0,37.0,-3.417968511581421,-44.494625091552734,-12.023924827575684,0.4388427734375,0.3116455078125,0.0732421875
2.184,310,689,913,314,-15.0,43.0,37.0,13.732909202575684,-56.213375091552734,-35.82763671875,0.26708984375,0.411376953125,-0.1185302734375
2.184,310,795,986,314,-15.0,43.0,37.0,25.512693405151367,-43.457027435302734,-49.438472747802734,-0.4385986328125,0.5013427734375,-0.61669921875
2.186,310,868,1143,314,-17.0,42.0,41.0,28.686521530151367,-8.7890625,-49.926753997802734,-1.75634765625,0.6932373046875,-1.4609375
2.193,312,913,1294,314,-17.0,42.0,41.0,1.9531248807907104,12.878417015075684,-37.9638671875,-2.8348388671875,1.054931640625,-1.7569580078125
2.210,310,947,1393,314,-17.0,42.0,41.0,-77.20947265625,-4.82177734375,-23.925779342651367,-2.6900634765625,0.7579345703125,-0.29833984375
2.219,310,933,1352,314,-17.0,42.0,41.0,-155.029296875,-22.888181686401367,-16.357421875,-2.6900634765625,0.7579345703125,-0.29833984375
2.225,311,891,1294,314,-17.0,42.0,41.0,-157.40966796875,-13.610838890075684,-7.507323741912842,-2.248046875,-0.001708984375,0.25390625
2.239,310,873,1166,314,-17.0,42.0,41.0,-83.06884002685547,-2.685546636581421,7.568358898162842,-0.7838134765625,0.2332763671875,0.3359375
2.249,312,868,1166,314,-17.0,42.0,41.0,6.347655773162842,-4.69970703125,22.521970748901367,-0.7838134765625,0.2332763671875,0.3359375
2.257,312,861,1209,314,-17.0,42.0,41.0,59.204097747802734,-6.835937023162842,23.925779342651367,-0.73681640625,1.0311279296875,-0.3245849609375
2.288,312,830,1226,314,-17.0,42.0,41.0,70.98388671875,0.1220703050494194,5.187987804412842,-1.815673828125,1.5118408203125,-1.2945556640625
2.296,314,772,1201,314,-17.0,42.0,41.0,48.583980560302734,9.09423828125,-20.446775436401367,-1.815673828125,1.5118408203125,-1.2945556640625
2.296,311,755,1214,314,-14.0,44.0,37.0,4.45556640625,11.230467796325684,-37.41455078125,-1.88720703125,1.040771484375,-1.0966796875
2.299,311,666,1108,314,-14.0,44.0,37.0,-34.36279296875,9.765625,-35.82763671875,-1.467041015625,0.33203125,-0.313720703125
2.306,310,618,1042,314,-14.0,44.0,37.0,-52.001949310302734,10.131834983825684,-16.78466796875,-1.467041015625,0.33203125,-0.313720703125
2.314,310,587,959,313,-14.0,44.0,37.0,-47.058101654052734,13.305663108825684,8.23974609375,-1.212890625,0.2152099609375,-0.02001953125
2.336,310,522,809,312,-14.0,44.0,37.0,-26.000974655151367,17.08984375,26.489255905151367,-0.641845703125,-0.009033203125,0.320068359375
2.337,297,466,671,314,-14.0,44.0,37.0,0.7934569716453552,16.4794921875,27.954099655151367,-0.370849609375,-0.10302734375,0.2528076171875
2.343,310,434,577,311,-14.0,44.0,37.0,27.404783248901367,11.535643577575684,12.390135765075684,-0.370849609375,-0.10302734375,0.2528076171875
2.360,310,420,549,312,-14.0,44.0,37.0,50.964351654052734,-7.690429210662842,-33.0810546875,-0.1224365234375,-0.0611572265625,0.0897216796875
2.365,310,398,513,310,-14.0,44.0,37.0,50.964351654052734,-7.690429210662842,-33.0810546875,-0.27978515625,0.0550537109375,0.04931640625
2.387,310,386,506,311,-14.0,44.0,37.0,40.771480560302734,-18.98193359375,-43.701168060302734,-0.27978515625,0.0550537109375,0.04931640625
2.391,310,367,473,310,-16.0,42.0,36.0,63.049312591552734,-5.249022960662842,-28.869626998901367,-0.5260009765625,0.527587890625,-0.381591796875
2.399,310,357,449,311,-16.0,42.0,36.0,63.049312591552734,-5.249022960662842,-28.869626998901367,-0.523193359375,0.721435546875,-0.5816650390625
2.408,310,352,415,310,-16.0,42.0,36.0,73.79150390625,8.36181640625,-17.4560546875,-0.523193359375,0.721435546875,-0.5816650390625
2.412,310,344,402,310,-16.0,42.0,36.0,67.68798828125,17.4560546875,-10.559081077575684,-0.6229248046875,0.747802734375,-0.663818359375
2.431,310,328,387,310,-16.0,42.0,36.0,29.235837936401367,9.33837890625,-7.751464366912842,-0.754150390625,0.5252685546875,-0.4825439453125
2.437,308,324,382,310,-16.0,42.0,36.0,29.235837936401367,9.33837890625,-7.751464366912842,-0.7076416015625,0.433837890625,-0.322021484375
2.442,309,314,382,310,-16.0,42.0,36.0,6.469726085662842,0.9155272841453552,-9.521484375,-0.7076416015625,0.433837890625,-0.322021484375
2.492,309,314,384,310,-16.0,42.0,36.0,-22.338865280151367,-6.713866710662842,-6.042479991912842,-0.6702880859375,0.327880859375,-0.0771484375
2.492,311,314,386,308,-16.0,42.0,36.0,-22.338865280151367,-6.713866710662842,-6.042479991912842,-0.6817626953125,0.3319091796875,-0.0479736328125
2.493,309,313,384,310,-16.0,42.0,36.0,-24.169919967651367,-6.774901866912842,-0.30517578125,-0.6817626953125,0.3319091796875,-0.0479736328125
2.493,310,315,386,308,-15.0,43.0,34.0,-12.695311546325684,-1.3427733182907104,12.145995140075684,-0.6995849609375,0.2730712890625,-0.1168212890625
2.494,311,319,383,310,-15.0,43.0,34.0,-12.695311546325684,-1.3427733182907104,12.145995140075684,-0.7113037109375,0.2001953125,-0.1510009765625
2.503,310,326,383,309,-15.0,43.0,34.0,-8.1787109375,2.50244140625,18.98193359375,-0.7113037109375,0.2001953125,-0.1510009765625
2.521,310,338,380,311,-15.0,43.0,34.0,-16.66259765625,4.21142578125,30.944822311401367,-0.569091796875,0.2398681640625,-0.1353759765625
2.531,309,349,371,310,-15.0,43.0,34.0,-16.66259765625,4.21142578125,30.944822311401367,-0.5743408203125,0.3121337890625,-0.1195068359375
2.533,309,360,344,310,-15.0,43.0,34.0,-30.578611373901367,2.25830078125,32.71484375,-0.5743408203125,0.3121337890625,-0.1195068359375
2.546,310,391,357,309,-15.0,43.0,34.0,-46.020503997802734,-1.2817381620407104,38.26904296875,-0.31787109375,0.3653564453125,0.0120849609375
2.565,310,414,351,310,-15.0,43.0,34.0,-46.020503997802734,-1.2817381620407104,38.26904296875,-0.0489501953125,0.4012451171875,0.02978515625
2.565,309,435,352,310,-15.0,43.0,34.0,-36.56005859375,-0.7934569716453552,43.151851654052734,0.223876953125,0.4569091796875,0.19140625
2.576,310,508,402,310,-15.0,43.0,34.0,8.056640625,-19.04296875,28.869626998901367,0.5472412109375,0.455078125,0.57763671875
2.599,310,562,506,310,-16.0,41.0,39.0,57.983394622802734,-45.593257904052734,-7.690429210662842,0.7518310546875,0.4027099609375,0.822265625
2.599,312,630,650,298,-16.0,41.0,39.0,57.983394622802734,-45.593257904052734,-7.690429210662842,0.447265625,0.4169921875,0.4713134765625
2.607,310,738,840,314,-16.0,41.0,39.0,115.60057830810547,-57.006832122802734,-99.30419158935547,-0.5115966796875,0.5230712890625,-0.50146484375
2.615,310,780,823,313,-16.0,41.0,39.0,51.208492279052734,-17.822265625,-111.02294158935547,-1.815673828125,0.5516357421875,-1.8116455078125
2.622,311,820,919,314,-16.0,41.0,39.0,51.208492279052734,-17.822265625,-111.02294158935547,-2.81982421875,0.4398193359375,-2.479736328125
2.636,312,878,1134,314,-16.0,41.0,39.0,-86.12059783935547,-0.9155272841453552,-64.208984375,-3.009033203125,0.3656005859375,-1.87109375
2.646,310,877,1166,314,-16.0,41.0,39.0,-156.73828125,-31.249998092651367,-20.080564498901367,-2.7467041015625,0.3729248046875,-0.7330322265625
2.655,312,849,1133,314,-16.0,41.0,39.0,-156.73828125,-31.249998092651367,-20.080564498901367,-2.4869384765625,0.249267578125,0.064697265625
2.666,311,823,1074,314,-16.0,41.0,39.0,-140.7470703125,-19.83642578125,47.729488372802734,-1.827880859375,-0.0455322265625,0.5941162109375
2.682,310,818,1051,314,-16.0,41.0,39.0,-54.992671966552734,-16.845703125,54.138179779052734,-1.01171875,0.0804443359375,0.8968505859375
2.689,310,814,1065,314,-14.0,42.0,41.0,-54.992671966552734,-16.845703125,54.138179779052734,-0.7711181640625,0.8587646484375,0.5408935546875
2.704,311,785,1074,314,-14.0,42.0,41.0,59.814449310302734,-2.38037109375,23.559568405151367,-1.15380859375,1.560546875,-0.36962890625
2.706,311,741,1078,312,-14.0,42.0,41.0,59.326168060302734,21.179197311401367,-0.7324218153953552,-1.680908203125,1.57666015625,-1.1229248046875
2.713,311,726,1078,314,-14.0,42.0,41.0,27.038572311401367,37.53662109375,-17.822265625,-1.8570556640625,1.1336669921875,-1.218017578125
2.727,312,662,1013,314,-14.0,42.0,41.0,-15.380858421325684,42.480464935302734,-18.5546875,-1.710693359375,0.65966796875,-0.7838134765625
2.739,312,628,947,314,-14.0,42.0,41.0,-38.75732421875,42.480464935302734,-6.591796398162842,-1.396484375,0.2593994140625,-0.2103271484375
2.746,312,594,878,314,-14.0,42.0,41.0,-30.273435592651367,41.809078216552734,10.742186546325684,-1.0440673828125,-0.0179443359375,0.146484375
2.760,310,545,771,313,-14.0,42.0,41.0,-2.25830078125,37.29248046875,26.123044967651367,-0.811767578125,-0.1192626953125,0.2418212890625
2.770,311,508,685,312,-14.0,42.0,41.0,25.939939498901367,25.573728561401367,32.71484375,-0.7017822265625,-0.067626953125,0.1888427734375
2.774,310,469,582,312,-14.0,42.0,41.0,47.119136810302734,11.840819358825684,28.869626998901367,-0.600341796875,0.00830078125,0.02978515625
2.798,296,428,499,310,-14.0,43.0,41.0,62.927242279052734,2.50244140625,15.502928733825684,-0.4788818359375,-0.0247802734375,-0.1624755859375
2.798,310,411,482,310,-14.0,43.0,41.0,69.64111328125,-2.197265625,-1.6479490995407104,-0.3939208984375,-0.1075439453125,-0.2327880859375
2.809,310,407,481,311,-14.0,43.0,41.0,63.171382904052734,-4.0283203125,-12.878417015075684,-0.4256591796875,-0.019287109375,-0.1873779296875
2.818,310,371,465,310,-14.0,43.0,41.0,55.786128997802734,-1.4038084745407104,-14.099120140075684,-0.51220703125,0.2545166015625,-0.2264404296875
2.838,309,353,427,310,-14.0,43.0,41.0,56.274410247802734,3.601073980331421,-11.413573265075684,-0.527099609375,0.52294921875,-0.3768310546875
2.858,310,342,418,310,-14.0,43.0,41.0,55.725093841552734,6.958007335662842,-9.70458984375,-0.507568359375,0.6954345703125,-0.5205078125
2.943,308,314,394,309,-14.0,43.0,41.0,27.893064498901367,8.1787109375,-4.21142578125,-0.5693359375,0.7276611328125,-0.527099609375
2.945,310,312,386,309,-14.0,43.0,41.0,8.23974609375,5.859374523162842,-2.929687261581421,-0.665283203125,0.6385498046875,-0.41552734375
2.945,294,312,391,310,-16.0,43.0,42.0,-9.21630859375,-0.54931640625,-3.662109136581421,-0.7537841796875,0.489013671875,-0.2442626953125
2.945,310,314,393,308,-16.0,43.0,42.0,-20.385740280151367,-10.559081077575684,-9.33837890625,-0.7294921875,0.354248046875,-0.0712890625
2.945,308,312,373,296,-16.0,43.0,42.0,-19.53125,-16.78466796875,-18.00537109375,-0.657470703125,0.307861328125,0.0067138671875
2.946,309,313,395,310,-16.0,43.0,42.0,-9.8876953125,-15.380858421325684,-21.118162155151367,-0.6370849609375,0.315185546875,-0.02392578125
2.946,296,314,399,308,-16.0,43.0,42.0,-1.2817381620407104,-9.8876953125,-15.380858421325684,-0.6680908203125,0.3106689453125,-0.08544921875
2.946,310,314,399,309,-16.0,43.0,42.0,1.8920897245407104,-4.8828125,-5.737304210662842,-0.688720703125,0.2952880859375,-0.11962890625
2.946,312,314,407,310,-16.0,43.0,42.0,1.2817381620407104,-2.0751953125,3.112792730331421,-0.67578125,0.294921875,-0.1297607421875
2.947,308,315,408,310,-16.0,43.0,42.0,-1.03759765625,-0.9765624403953552,9.58251953125,-0.657470703125,0.317626953125,-0.139892578125
2.957,308,322,410,311,-16.0,43.0,42.0,-4.5166015625,-0.9155272841453552,14.465331077575684,-0.6578369140625,0.3404541015625,-0.1468505859375
2.979,310,326,400,310,-16.0,43.0,42.0,-10.131834983825684,-2.3193359375,18.37158203125,-0.657470703125,0.3792724609375,-0.169677734375
2.979,294,331,371,297,-21.0,45.0,41.0,-17.15087890625,-4.45556640625,21.240232467651367,-0.657470703125,0.3792724609375,-0.169677734375
2.986,310,371,371,310,-21.0,45.0,41.0,-21.850584030151367,-5.065917491912842,22.399900436401367,-0.4884033203125,0.4072265625,-0.123291015625
3.006,310,396,387,311,-21.0,45.0,41.0,-22.583005905151367,-3.173827886581421,20.996091842651367,-0.111328125,0.43408203125,0.042236328125
3.006,295,426,420,310,-21.0,45.0,41.0,-17.9443359375,-1.15966796875,17.7001953125,-0.111328125,0.43408203125,0.042236328125
3.014,310,440,497,312,-21.0,45.0,41.0,-5.920409679412842,-3.173827886581421,11.962889671325684,0.048095703125,0.473388671875,0.2108154296875
3.028,310,500,685,313,-21.0,45.0,41.0,9.6435546875,-14.343260765075684,-2.868652105331421,0.5322265625,0.5159912109375,0.232421875
3.036,311,533,840,314,-21.0,45.0,41.0,16.17431640625,-39.36767578125,-34.5458984375,0.5322265625,0.5159912109375,0.232421875
3.048,310,588,966,313,-21.0,45.0,41.0,0.9155272841453552,-64.63623046875,-74.5849609375,0.44775390625,0.4598388671875,0.079833984375
3.057,310,671,1071,314,-21.0,45.0,41.0,-22.094724655151367,-67.44384765625,-100.95214080810547,-1.450927734375,0.4456787109375,-1.02001953125
3.067,311,723,1183,314,-21.0,45.0,41.0,-21.179197311401367,-41.687007904052734,-103.82079315185547,-1.450927734375,0.4456787109375,-1.02001953125
3.103,311,758,1311,314,-9.0,41.0,37.0,-3.479003667831421,-5.615233898162842,-93.01757049560547,-2.4747314453125,0.56591796875,-1.802978515625
3.104,312,795,1406,298,-9.0,41.0,37.0,-26.550291061401367,11.291502952575684,-80.62743377685547,-3.0811767578125,0.2855224609375,-0.6605224609375
3.104,312,763,1401,314,-9.0,41.0,37.0,-96.67967987060547,6.530761241912842,-63.171382904052734,-3.0811767578125,0.2855224609375,-0.6605224609375
3.104,311,767,1351,300,-9.0,41.0,37.0,-144.04296875,-3.356933355331421,-28.503416061401367,-2.7747802734375,-0.197021484375,0.0428466796875
3.117,312,730,1225,314,-9.0,41.0,37.0,-47.180171966552734,-9.21630859375,34.85107421875,-1.029541015625,-0.2454833984375,0.616455078125
3.129,312,717,1188,314,-9.0,41.0,37.0,-47.180171966552734,-9.21630859375,34.85107421875,-0.7708740234375,0.5294189453125,0.3092041015625
3.134,311,713,1189,314,-9.0,41.0,37.0,14.465331077575684,-4.0283203125,39.9169921875,-0.7708740234375,0.5294189453125,0.3092041015625
3.147,311,691,1204,314,-9.0,41.0,37.0,48.034664154052734,16.9677734375,5.065917491912842,-1.5284423828125,1.4327392578125,-0.8572998046875
3.167,310,661,1189,314,-9.0,41.0,37.0,48.034664154052734,16.9677734375,5.065917491912842,-1.8973388671875,1.1640625,-1.194580078125
3.167,298,629,1134,314,-9.0,41.0,37.0,33.203125,31.860349655151367,-7.995604991912842,-1.8973388671875,1.1640625,-1.194580078125
3.180,312,562,1022,313,-12.0,43.0,36.0,-26.916501998901367,51.818843841552734,12.023924827575684,-1.6783447265625,0.265869140625,-0.53515625
3.204,311,538,959,314,-12.0,43.0,36.0,-26.916501998901367,51.818843841552734,12.023924827575684,-1.34765625,0.0406494140625,0.0230712890625
3.207,315,512,895,315,-12.0,43.0,36.0,-42.358394622802734,53.771968841552734,33.26416015625,-1.34765625,0.0406494140625,0.0230712890625
3.207,297,469,740,314,-12.0,43.0,36.0,-1.220703125,30.090330123901367,43.029781341552734,-0.7427978515625,-0.016845703125,0.33056640625
3.216,310,423,628,310,-12.0,43.0,36.0,-1.220703125,30.090330123901367,43.029781341552734,-0.5816650390625,-0.0130615234375,0.1727294921875
3.224,311,402,558,312,-12.0,43.0,36.0,34.97314453125,8.11767578125,24.353025436401367,-0.5816650390625,-0.0130615234375,0.1727294921875
3.237,310,386,486,312,-12.0,43.0,36.0,78.61328125,-21.545408248901367,-10.498045921325684,-0.3248291015625,-0.0875244140625,-0.012451171875
3.248,310,380,499,311,-12.0,43.0,36.0,78.61328125,-21.545408248901367,-10.498045921325684,-0.291259765625,-0.0125732421875,-0.1192626953125
3.254,310,364,497,312,-12.0,43.0,36.0,86.24266815185547,-25.390623092651367,-14.404295921325684,-0.303466796875,0.1904296875,-0.3277587890625
3.267,310,343,454,310,-12.0,43.0,36.0,90.51512908935547,1.7700194120407104,-7.873534679412842,-0.3604736328125,0.4715576171875,-0.572509765625
3.282,310,337,437,310,-12.0,42.0,38.0,75.8056640625,17.27294921875,-3.479003667831421,-0.4710693359375,0.7440185546875,-0.7198486328125
3.284,310,329,430,308,-12.0,42.0,38.0,75.8056640625,17.27294921875,-3.479003667831421,-0.5621337890625,0.84765625,-0.6893310546875
3.312,308,326,409,311,-12.0,42.0,38.0,17.578125,18.4326171875,6.042479991912842,-0.6337890625,0.74951171875,-0.5567626953125
3.312,310,326,401,311,-12.0,42.0,38.0,-11.352538108825684,10.864256858825684,2.868652105331421,-0.6976318359375,0.5968017578125,-0.400146484375
3.314,326,317,391,310,-12.0,42.0,38.0,-11.352538108825684,10.864256858825684,2.868652105331421,-0.73193359375,0.459716796875,-0.2257080078125
3.327,309,322,393,310,-12.0,42.0,38.0,-50.781246185302734,-4.45556640625,-10.314940452575684,-0.7030029296875,0.3515625,-0.0589599609375
3.343,308,322,399,311,-12.0,42.0,38.0,-52.917476654052734,-6.469726085662842,-13.854979515075684,-0.668701171875,0.285888671875,0.049560546875
3.349,310,307,386,310,-12.0,42.0,38.0,-52.917476654052734,-6.469726085662842,-13.854979515075684,-0.69677734375,0.2432861328125,0.075927734375
3.357,309,326,393,310,-12.0,42.0,38.0,-37.2314453125,-1.5258787870407104,-2.990722417831421,-0.7547607421875,0.1973876953125,0.0419921875
3.366,310,328,391,311,-12.0,42.0,38.0,-25.207517623901367,0.7324218153953552,5.676269054412842,-0.79833984375,0.14404296875,-0.0230712890625
3.374,309,331,386,308,-13.0,42.0,43.0,-25.207517623901367,0.7324218153953552,5.676269054412842,-0.813232421875,0.1226806640625,-0.0982666015625
3.387,310,336,379,310,-13.0,42.0,43.0,0.2441406100988388,7.812499523162842,21.911619186401367,-0.798828125,0.166015625,-0.16650390625
3.404,309,340,376,310,-13.0,42.0,43.0,8.1787109375,12.329100608825684,31.433103561401367,-0.76123046875,0.246337890625,-0.1898193359375
3.404,310,356,371,308,-13.0,42.0,43.0,8.1787109375,12.329100608825684,31.433103561401367,-0.6925048828125,0.305908203125,-0.156494140625
3.422,308,367,360,310,-13.0,42.0,43.0,-3.845214605331421,14.892577171325684,45.043941497802734,-0.5567626953125,0.321044921875,-0.1031494140625
3.426,308,387,357,310,-13.0,42.0,43.0,-21.911619186401367,11.840819358825684,44.738765716552734,-0.3236083984375,0.3031005859375,-0.0281982421875
3.434,310,402,364,308,-13.0,42.0,43.0,-43.151851654052734,7.324218273162842,41.687007904052734,-0.0267333984375,0.3084716796875,0.0853271484375
3.453,310,446,377,310,-13.0,42.0,43.0,-50.720211029052734,1.5869139432907104,38.2080078125,0.195556640625,0.35986328125,0.2926025390625
3.457,312,490,426,310,-13.0,42.0,43.0,-18.37158203125,-17.333984375,31.005857467651367,0.4765625,0.3089599609375,0.744140625
3.464,312,545,594,312,-13.0,42.0,43.0,69.7021484375,-57.861324310302734,7.141112804412842,0.7698974609375,0.1937255859375,0.96337890625
3.478,311,657,884,312,-15.0,42.0,41.0,167.96873474121094,-83.25194549560547,-33.935546875,0.5382080078125,0.311767578125,0.326904296875
3.486,310,698,877,312,-15.0,42.0,41.0,176.51365661621094,-63.293453216552734,-71.4111328125,-0.4287109375,0.6627197265625,-1.0621337890625
3.517,312,742,887,313,-15.0,42.0,41.0,98.81591033935547,-16.845703125,-90.20995330810547,-1.7374267578125,0.884521484375,-2.520751953125
3.521,312,835,1139,314,-15.0,42.0,41.0,12.390135765075684,9.82666015625,-85.69335174560547,-2.6866455078125,0.8917236328125,-2.8372802734375
3.521,310,871,1282,314,-15.0,42.0,41.0,-79.58984375,-18.4326171875,-66.89453125,-2.75390625,0.7490234375,-1.7205810546875
3.524,311,886,1349,315,-15.0,42.0,41.0,-177.91746520996094,-64.3310546875,-51.696773529052734,-2.4647216796875,0.34521484375,-0.3189697265625
3.537,312,846,1300,314,-15.0,42.0,41.0,-219.36033630371094,-69.27490234375,-35.15625,-2.4954833984375,-0.1309814453125,0.3914794921875
3.546,312,832,1264,314,-15.0,42.0,41.0,-170.77635192871094,-42.785640716552734,-7.446288585662842,-2.177490234375,-0.50048828125,0.7325439453125
3.554,312,813,1204,314,-15.0,42.0,41.0,-76.171875,-26.000974655151367,15.197752952575684,-1.3441162109375,-0.376220703125,1.0103759765625
3.568,312,806,1185,314,-15.0,42.0,41.0,7.324218273162842,-18.5546875,22.705076217651367,-0.8262939453125,0.4110107421875,0.7362060546875
3.580,310,799,1188,313,-12.0,43.0,39.0,51.879878997802734,-4.57763671875,18.6767578125,-0.9237060546875,1.2210693359375,-0.121337890625
3.589,311,777,1188,314,-12.0,43.0,39.0,58.959957122802734,17.4560546875,6.896972179412842,-1.4229736328125,1.4559326171875,-0.9969482421875
3.619,311,713,1163,312,-12.0,43.0,39.0,31.921384811401367,37.7197265625,-4.0283203125,-1.8079833984375,1.11279296875,-1.28955078125
3.619,311,671,1104,314,-12.0,43.0,39.0,-13.854979515075684,47.790523529052734,-4.7607421875,-1.8470458984375,0.604248046875,-0.9560546875
3.619,312,632,1025,314,-12.0,43.0,39.0,-46.203609466552734,54.138179779052734,8.72802734375,-1.7288818359375,0.2176513671875,-0.392822265625
3.627,310,564,873,313,-12.0,43.0,39.0,-51.208492279052734,63.781734466552734,34.912109375,-1.5220947265625,0.08349609375,0.021484375
3.635,310,530,766,312,-12.0,43.0,39.0,-35.2783203125,74.8291015625,62.377925872802734,-1.2901611328125,0.1229248046875,0.1483154296875
3.647,312,493,669,314,-12.0,43.0,39.0,-10.742186546325684,76.96533203125,72.6318359375,-1.0528564453125,0.1412353515625,0.13134765625
3.670,310,418,475,311,-12.0,43.0,39.0,14.526366233825684,66.650390625,58.654781341552734,-0.750244140625,0.0325927734375,0.0770263671875
3.671,309,396,444,310,-12.0,43.0,39.0,37.29248046875,50.476070404052734,29.357908248901367,-0.433349609375,-0.1593017578125,0.08447265625
3.674,310,387,437,310,-14.0,41.0,43.0,48.339839935302734,29.907224655151367,0.30517578125,-0.2156982421875,-0.3095703125,0.215576171875
3.692,310,354,435,310,-14.0,41.0,43.0,47.607418060302734,5.0048828125,-19.775390625,-0.193115234375,-0.311279296875,0.2662353515625
3.697,309,343,427,310,-14.0,41.0,43.0,60.852046966552734,-12.573241233825684,-26.489255905151367,-0.31396484375,-0.1072998046875,0.063232421875
3.723,310,331,386,310,-14.0,41.0,43.0,98.14452362060547,-13.305663108825684,-15.136717796325684,-0.15087890625,0.291015625,-0.267578125
3.723,309,315,382,310,-14.0,41.0,43.0,132.32421875,6.286620616912842,5.310058116912842,-0.3343505859375,0.926025390625,-0.80517578125
3.726,310,314,379,308,-14.0,41.0,43.0,138.00048828125,36.43798828125,23.254392623901367,-0.3343505859375,0.926025390625,-0.80517578125
3.734,310,314,379,310,-14.0,41.0,43.0,108.88671112060547,42.358394622802734,33.02001953125,-0.92822265625,0.917236328125,-0.951416015625
3.748,308,313,373,310,-14.0,41.0,43.0,57.006832122802734,11.962889671325684,24.902341842651367,-0.728515625,0.722900390625,-0.58935546875
3.772,308,312,373,310,-14.0,41.0,43.0,11.596678733825684,-19.22607421875,4.45556640625,-0.728515625,0.722900390625,-0.58935546875
3.772,310,314,372,310,-14.0,41.0,43.0,-12.145995140075684,-27.709959030151367,-10.986327171325684,-0.675048828125,0.5379638671875,-0.399658203125
3.778,310,315,373,308,-16.0,42.0,39.0,-23.742673873901367,-22.949216842651367,-15.930174827575684,-0.615966796875,0.331787109375,-0.1171875
3.792,307,317,372,308,-16.0,42.0,39.0,-33.69140625,-14.648436546325684,-11.352538108825684,-0.615966796875,0.331787109375,-0.1171875
3.794,308,315,372,310,-16.0,42.0,39.0,-43.395992279052734,-7.202147960662842,0.4272460639476776,-0.60888671875,0.29296875,-0.0565185546875
3.811,308,314,372,310,-16.0,42.0,39.0,-49.316402435302734,-2.868652105331421,12.634276390075684,-0.718017578125,0.0469970703125,-0.0357666015625
3.822,309,314,372,309,-16.0,42.0,39.0,-46.447750091552734,-1.5258787870407104,19.71435546875,-0.718017578125,0.0469970703125,-0.0357666015625
3.824,310,315,373,310,-16.0,42.0,39.0,-34.5458984375,-1.2817381620407104,23.620603561401367,-0.73193359375,0.0413818359375,-0.03857421875
3.837,310,328,371,309,-16.0,42.0,39.0,-21.606443405151367,-0.7324218153953552,28.869626998901367,-0.6510009765625,0.304443359375,-0.0439453125
3.846,309,329,369,309,-16.0,42.0,39.0,-15.686034202575684,-0.4272460639476776,35.2783203125,-0.6510009765625,0.304443359375,-0.0439453125
3.854,308,342,363,310,-16.0,42.0,39.0,-18.73779296875,-1.03759765625,39.0625,-0.5966796875,0.404052734375,-0.0499267578125
3.882,310,390,352,310,-18.0,45.0,38.0,-28.503416061401367,-1.220703125,39.00146484375,-0.2393798828125,0.419677734375,0.0330810546875
3.882,311,393,337,310,-18.0,45.0,38.0,-39.00146484375,1.5869139432907104,37.2314453125,0.1014404296875,0.4521484375,0.20751953125
3.884,310,436,351,310,-18.0,45.0,38.0,-40.893550872802734,6.042479991912842,34.60693359375,0.1014404296875,0.4521484375,0.20751953125
3.898,310,517,483,311,-18.0,45.0,38.0,26.062009811401367,-23.803709030151367,6.713866710662842,0.82080078125,0.1593017578125,1.0096435546875
3.921,310,575,694,312,-18.0,45.0,38.0,26.062009811401367,-23.803709030151367,6.713866710662842,0.647216796875,0.0858154296875,0.5811767578125
3.921,311,632,854,314,-18.0,45.0,38.0,110.47362518310547,-57.250972747802734,-28.991697311401367,0.647216796875,0.0858154296875,0.5811767578125
3.927,309,707,818,313,-18.0,45.0,38.0,76.59912109375,-27.526853561401367,-85.81542205810547,-1.462646484375,0.736083984375,-2.0802001953125
3.936,312,741,905,314,-18.0,45.0,38.0,76.59912109375,-27.526853561401367,-85.81542205810547,-2.596923828125,0.8758544921875,-2.9169921875
3.944,312,793,1074,314,-18.0,45.0,38.0,10.070799827575684,13.732909202575684,-90.82030487060547,-2.596923828125,0.8758544921875,-2.9169921875
3.957,311,840,1295,314,-18.0,45.0,38.0,-147.3388671875,-33.3251953125,-48.767086029052734,-2.623046875,0.673583984375,-0.84521484375
3.965,310,827,1282,314,-18.0,45.0,38.0,-147.3388671875,-33.3251953125,-48.767086029052734,-2.4791259765625,0.061279296875,0.1317138671875
3.989,311,813,1268,314,-15.0,42.0,38.0,-208.98435974121094,-46.813961029052734,-24.047849655151367,-2.4791259765625,0.061279296875,0.1317138671875
3.990,311,780,1170,314,-15.0,42.0,38.0,-89.17235565185547,-19.59228515625,23.803709030151367,-1.3936767578125,-0.38232421875,0.9493408203125
3.999,311,778,1140,314,-15.0,42.0,38.0,-89.17235565185547,-19.59228515625,23.803709030151367,-0.896240234375,0.4783935546875,0.6658935546875
4.004,311,775,1137,314,-15.0,42.0,38.0,3.662109136581421,-22.766111373901367,32.16552734375,-0.896240234375,0.4783935546875,0.6658935546875
4.020,298,750,1143,314,-15.0,42.0,38.0,69.15283203125,-1.3427733182907104,1.220703125,-1.3900146484375,1.642578125,-1.05615234375
4.026,311,718,1139,314,-15.0,42.0,38.0,41.931148529052734,18.1884765625,-21.301267623901367,-1.8125,1.3143310546875,-1.4013671875
4.034,310,683,1109,314,-15.0,42.0,38.0,41.931148529052734,18.1884765625,-21.301267623901367,-1.859619140625,0.770263671875,-1.13916015625
4.047,311,603,1008,314,-15.0,42.0,38.0,-45.593257904052734,29.296873092651367,-14.221190452575684,-1.7579345703125,0.33154296875,-0.618408203125
4.056,310,562,913,314,-15.0,42.0,38.0,-54.016109466552734,34.11865234375,12.817381858825684,-1.574462890625,0.0771484375,-0.1458740234375
4.069,310,530,814,314,-15.0,42.0,38.0,-54.016109466552734,34.11865234375,12.817381858825684,-1.271484375,-0.0556640625,0.17431640625
4.077,311,457,644,312,-13.0,43.0,36.0,-10.559081077575684,55.236812591552734,55.236812591552734,-0.913818359375,-0.1485595703125,0.3304443359375
4.087,310,423,512,312,-13.0,43.0,36.0,17.9443359375,55.053707122802734,46.569820404052734,-0.52880859375,-0.23388671875,0.3416748046875
4.128,312,407,463,312,-13.0,43.0,36.0,17.9443359375,55.053707122802734,46.569820404052734,-0.2158203125,-0.2933349609375,0.3223876953125
4.128,310,373,451,312,-13.0,43.0,36.0,51.635738372802734,14.038084983825684,-5.371093273162842,-0.09375,-0.2530517578125,0.293701171875
4.128,310,356,455,311,-13.0,43.0,36.0,51.940914154052734,-15.014647483825684,-29.541013717651367,-0.212890625,-0.0797119140625,0.1259765625
4.128,310,329,433,309,-13.0,43.0,36.0,51.940914154052734,-15.014647483825684,-29.541013717651367,-0.4202880859375,0.1968994140625,-0.1517333984375
4.138,307,326,402,309,-13.0,43.0,36.0,89.47753143310547,-31.066892623901367,-28.869626998901367,-0.280517578125,0.5115966796875,-0.3896484375
4.146,310,314,381,310,-13.0,43.0,36.0,115.17333221435547,-9.09423828125,-5.493163585662842,-0.126953125,0.7545166015625,-0.5936279296875
4.154,309,314,382,310,-13.0,43.0,36.0,115.17333221435547,-9.09423828125,-5.493163585662842,-0.652099609375,0.79248046875,-0.8162841796875
4.167,309,314,379,310,-15.0,43.0,36.0,104.91942596435547,23.315427780151367,18.85986328125,-1.0618896484375,0.7767333984375,-0.871826171875
4.176,309,314,371,309,-15.0,43.0,36.0,59.570308685302734,-8.4228515625,2.563476324081421,-0.8443603515625,0.811767578125,-0.693359375
4.184,309,314,364,310,-15.0,43.0,36.0,15.869139671325684,-31.249998092651367,-17.76123046875,-0.639404296875,0.7349853515625,-0.485107421875
4.226,308,314,369,310,-15.0,43.0,36.0,-8.85009765625,-32.958984375,-27.221677780151367,-0.5985107421875,0.5697021484375,-0.3072509765625
4.231,310,312,367,309,-15.0,43.0,36.0,-20.446775436401367,-24.963376998901367,-25.695798873901367,-0.589599609375,0.443359375,-0.1844482421875
4.232,308,314,371,310,-15.0,43.0,36.0,-30.395505905151367,-14.953612327575684,-16.11328125,-0.599609375,0.363037109375,-0.1300048828125
4.232,310,312,370,309,-15.0,43.0,36.0,-42.236324310302734,-7.263183116912842,-2.0751953125,-0.6038818359375,0.2576904296875,-0.088134765625
4.236,310,314,371,308,-15.0,43.0,36.0,-49.743648529052734,-2.563476324081421,10.009765625,-0.5625,0.1160888671875,-0.03173828125
4.244,308,315,372,310,-15.0,43.0,36.0,-45.776363372802734,2.197265625,16.7236328125,-0.491455078125,-0.0040283203125,0.0198974609375
4.257,309,313,380,310,-15.0,43.0,36.0,-32.958984375,8.11767578125,19.83642578125,-0.44482421875,-0.0421142578125,0.062744140625
4.267,310,322,384,310,-15.0,43.0,42.0,-22.766111373901367,10.375975608825684,22.216794967651367,-0.5281982421875,0.0213623046875,0.077880859375
4.274,310,329,372,310,-15.0,43.0,42.0,-27.832029342651367,-0.1220703050494194,25.207517623901367,-0.6353759765625,0.14111328125,0.054931640625
4.287,310,370,353,310,-15.0,43.0,42.0,-46.874996185302734,-18.98193359375,28.076169967651367,-0.6336669921875,0.3292236328125,-0.028564453125
4.308,310,394,341,310,-15.0,43.0,42.0,-59.204097747802734,-25.695798873901367,31.982419967651367,-0.563232421875,0.6038818359375,-0.130126953125
4.309,310,420,342,311,-15.0,43.0,42.0,-45.776363372802734,-13.732909202575684,36.43798828125,-0.318359375,0.72314453125,-0.0428466796875
4.331,309,479,456,311,-15.0,43.0,42.0,-13.671874046325684,-2.25830078125,35.09521484375,0.0772705078125,0.5408935546875,0.297607421875
4.331,296,531,549,311,-15.0,43.0,42.0,18.5546875,-10.070799827575684,25.268552780151367,0.6917724609375,0.221923828125,0.7322998046875
4.334,310,576,749,312,-15.0,43.0,42.0,59.387203216552734,-34.72900390625,-0.4882812201976776,0.9349365234375,0.072265625,0.59228515625
4.348,310,674,980,314,-15.0,43.0,42.0,83.00780487060547,-56.640621185302734,-41.442867279052734,0.340087890625,0.2977294921875,-0.0113525390625
4.356,312,730,982,314,-15.0,43.0,42.0,55.419918060302734,-56.396480560302734,-77.20947265625,-0.7320556640625,0.66552734375,-0.7880859375
4.363,311,772,1122,314,-14.0,42.0,44.0,30.090330123901367,-24.658201217651367,-99.24315643310547,-2.1629638671875,0.7742919921875,-2.094970703125
4.377,312,862,1462,314,-14.0,42.0,44.0,8.36181640625,-0.2441406100988388,-98.08348846435547,-3.110107421875,0.7576904296875,-2.6038818359375
4.386,312,868,1511,315,-14.0,42.0,44.0,-73.974609375,-24.291990280151367,-64.75830078125,-3.099853515625,0.5111083984375,-1.560302734375
4.394,314,853,1509,315,-14.0,42.0,44.0,-160.2783203125,-46.142574310302734,-14.038084983825684,-2.94921875,0.0361328125,-0.3231201171875
4.413,311,822,1506,314,-14.0,42.0,44.0,-157.2265625,-34.1796875,30.700681686401367,-2.4508056640625,-0.3709716796875,0.493896484375
4.416,310,797,1441,314,-14.0,42.0,44.0,-83.00780487060547,-28.991697311401367,44.555660247802734,-1.48779296875,-0.3914794921875,1.0091552734375
4.427,311,799,1422,315,-14.0,42.0,44.0,-2.3193359375,-39.73388671875,31.494138717651367,-0.85693359375,0.321533203125,0.934814453125
4.437,310,780,1409,312,-14.0,42.0,44.0,50.659175872802734,-41.442867279052734,12.145995140075684,-0.775390625,1.244384765625,0.215576171875
4.446,312,742,1386,314,-14.0,42.0,44.0,71.2890625,-18.61572265625,-5.615233898162842,-1.25732421875,1.7213134765625,-0.7581787109375
4.455,311,707,1348,315,-14.0,42.0,44.0,49.499507904052734,15.319823265075684,-16.05224609375,-1.7760009765625,1.4044189453125,-1.2818603515625
4.468,312,629,1245,314,-16.0,41.0,42.0,-5.065917491912842,38.0859375,-15.686034202575684,-1.879150390625,0.5986328125,-1.028076171875
4.476,310,593,1159,315,-16.0,41.0,42.0,-48.278804779052734,49.682613372802734,0.1831054538488388,-1.7857666015625,0.0172119140625,-0.413818359375
4.484,311,562,1069,314,-16.0,41.0,42.0,-53.588863372802734,57.434078216552734,30.944822311401367,-1.6004638671875,-0.111328125,0.087158203125
4.498,310,513,913,314,-16.0,41.0,42.0,-30.578611373901367,64.39208984375,62.011714935302734,-0.8856201171875,0.0511474609375,0.3331298828125
4.536,310,478,796,313,-16.0,41.0,42.0,-1.8310545682907104,69.03076171875,73.66943359375,-0.8856201171875,0.0511474609375,0.3331298828125
4.537,310,437,687,312,-16.0,41.0,42.0,22.521970748901367,67.2607421875,61.706539154052734,-0.45751953125,0.025146484375,0.2103271484375
4.537,312,410,588,297,-16.0,41.0,42.0,37.353515625,54.016109466552734,34.85107421875,-0.039306640625,-0.1180419921875,0.297607421875
4.537,312,408,568,312,-16.0,41.0,42.0,36.0107421875,28.442380905151367,5.859374523162842,-0.039306640625,-0.1180419921875,0.297607421875
4.550,311,382,562,312,-16.0,41.0,42.0,30.883787155151367,2.38037109375,-14.831542015075684,-0.17822265625,-0.0123291015625,0.2294921875
4.557,310,357,533,310,-16.0,41.0,42.0,44.677730560302734,-9.82666015625,-25.024412155151367,-0.3489990234375,0.3941650390625,-0.46142578125
4.566,309,352,495,311,-19.0,42.0,34.0,72.32666015625,-5.676269054412842,-25.390623092651367,-0.3489990234375,0.3941650390625,-0.46142578125
4.577,310,349,469,312,-19.0,42.0,34.0,91.79686737060547,10.498045921325684,-14.770506858825684,-0.3939208984375,0.6466064453125,-0.732177734375
4.588,310,341,451,310,-19.0,42.0,34.0,96.19139862060547,28.381345748901367,1.5869139432907104,-0.735595703125,0.8480224609375,-0.9176025390625
4.596,310,338,440,311,-19.0,42.0,34.0,82.70262908935547,33.50830078125,12.878417015075684,-0.735595703125,0.8480224609375,-0.9176025390625
4.604,310,330,438,308,-19.0,42.0,34.0,47.790523529052734,22.033689498901367,13.977049827575684,-0.8251953125,0.7244873046875,-0.7725830078125
4.638,309,328,427,310,-19.0,42.0,34.0,2.868652105331421,2.01416015625,6.591796398162842,-0.733642578125,0.37890625,-0.2442626953125
4.639,310,328,411,310,-19.0,42.0,34.0,-30.212400436401367,-14.099120140075684,-4.08935546875,-0.733642578125,0.37890625,-0.2442626953125
4.639,298,328,411,310,-19.0,42.0,34.0,-40.954586029052734,-19.47021484375,-10.925292015075684,-0.7073974609375,0.3150634765625,-0.13671875
4.648,312,329,423,310,-19.0,42.0,34.0,-28.808591842651367,-17.39501953125,-3.662109136581421,-0.7642822265625,0.273193359375,-0.03662109375
4.661,310,329,428,310,-19.0,42.0,34.0,-28.808591842651367,-17.39501953125,-3.662109136581421,-0.759521484375,0.2728271484375,0.0059814453125
4.664,310,331,426,310,-15.0,42.0,37.0,-23.559568405151367,-18.73779296875,3.662109136581421,-0.759521484375,0.2728271484375,0.0059814453125
4.681,310,331,426,310,-15.0,42.0,37.0,-8.11767578125,-13.671874046325684,15.075682640075684,-0.724853515625,0.30859375,-0.1148681640625
4.686,309,337,423,310,-15.0,42.0,37.0,-8.11767578125,-13.671874046325684,15.075682640075684,-0.71728515625,0.331787109375,-0.1883544921875
4.694,309,341,411,308,-15.0,42.0,37.0,-0.9765624403953552,-7.080077648162842,20.751951217651367,-0.71728515625,0.331787109375,-0.1883544921875
4.714,309,370,382,308,-15.0,42.0,37.0,-10.620116233825684,4.7607421875,32.3486328125,-0.625,0.374755859375,-0.1383056640625
4.716,310,393,377,308,-15.0,42.0,37.0,-10.620116233825684,4.7607421875,32.3486328125,-0.4853515625,0.31689453125,-0.061767578125
4.743,310,410,369,310,-15.0,42.0,37.0,-20.629880905151367,7.629394054412842,36.2548828125,-0.4853515625,0.31689453125,-0.061767578125
4.743,308,452,372,310,-15.0,42.0,37.0,-27.709959030151367,0.4882812201976776,41.320796966552734,0.1494140625,0.171630859375,0.1043701171875
4.746,310,496,437,310,-15.0,42.0,37.0,-27.709959030151367,0.4882812201976776,41.320796966552734,0.5155029296875,0.107177734375,0.3131103515625
4.754,310,538,554,312,-15.0,42.0,37.0,-24.841306686401367,-16.11328125,39.1845703125,0.5155029296875,0.107177734375,0.3131103515625
4.774,310,622,849,314,-17.0,40.0,44.0,65.49072265625,-73.18115234375,-3.112792730331421,0.5498046875,0.2501220703125,0.385009765625
4.776,310,695,981,314,-17.0,40.0,44.0,65.49072265625,-73.18115234375,-3.112792730331421,-0.0281982421875,0.5615234375,-0.0975341796875
4.784,311,756,1020,315,-17.0,40.0,44.0,125.48827362060547,-77.2705078125,-39.73388671875,-0.0281982421875,0.5615234375,-0.0975341796875
4.797,312,846,1201,313,-17.0,40.0,44.0,107.97118377685547,-20.874021530151367,-87.89061737060547,-2.450927734375,1.0665283203125,-2.1556396484375
4.806,311,893,1387,315,-17.0,40.0,44.0,31.860349655151367,-11.169432640075684,-84.96092987060547,-3.318603515625,1.1954345703125,-2.3212890625
4.818,312,910,1471,315,-17.0,40.0,44.0,31.860349655151367,-11.169432640075684,-84.96092987060547,-3.2039794921875,0.8780517578125,-1.3270263671875
4.845,312,871,1457,314,-17.0,40.0,44.0,-201.72117614746094,-84.71678924560547,-37.65869140625,-2.6383056640625,-0.0660400390625,-0.009033203125
4.845,311,848,1392,313,-17.0,40.0,44.0,-190.12449645996094,-77.7587890625,-19.10400390625,-1.8597412109375,-0.9150390625,1.0506591796875
4.846,310,827,1352,315,-17.0,40.0,44.0,-190.12449645996094,-77.7587890625,-19.10400390625,-1.0689697265625,-0.596435546875,1.3570556640625
4.858,311,827,1297,314,-17.0,40.0,44.0,26.306150436401367,-37.4755859375,13.488768577575684,-0.6763916015625,0.57861328125,0.7750244140625
4.866,310,819,1295,314,-14.0,39.0,42.0,79.4677734375,-12.145995140075684,14.953612327575684,-0.9542236328125,1.5362548828125,-0.3292236328125
4.874,310,803,1281,314,-14.0,39.0,42.0,79.4677734375,-12.145995140075684,14.953612327575684,-1.6239013671875,1.6707763671875,-1.1983642578125
4.888,311,742,1219,314,-14.0,39.0,42.0,28.442380905151367,35.94970703125,-10.620116233825684,-1.9007568359375,1.0809326171875,-1.249267578125
4.896,310,689,1183,315,-14.0,39.0,42.0,-32.89794921875,33.02001953125,-11.474608421325684,-1.7392578125,0.4127197265625,-0.768310546875
4.904,311,639,1122,315,-14.0,39.0,42.0,-32.89794921875,33.02001953125,-11.474608421325684,-1.4862060546875,0.094482421875,-0.249755859375
4.920,310,576,984,314,-14.0,39.0,42.0,-72.44873046875,43.151851654052734,19.6533203125,-1.321044921875,0.1192626953125,0.0643310546875
4.926,312,545,891,313,-14.0,39.0,42.0,-58.593746185302734,57.739253997802734,34.11865234375,-1.1949462890625,0.173583984375,0.233642578125
4.951,310,516,805,314,-14.0,39.0,42.0,-58.593746185302734,57.739253997802734,34.11865234375,-1.0096435546875,0.06494140625,0.3302001953125
4.952,310,449,591,312,-14.0,39.0,42.0,-13.305663108825684,72.265625,32.28759765625,-0.69482421875,-0.1085205078125,0.32080078125
4.956,311,427,540,312,-14.0,39.0,42.0,17.08984375,62.316890716552734,20.263669967651367,-0.3551025390625,-0.20068359375,0.3094482421875
4.963,310,420,518,312,-15.0,42.0,39.0,36.62109375,38.39111328125,6.591796398162842,-0.187744140625,-0.208740234375,0.3294677734375
4.978,311,383,517,310,-15.0,42.0,39.0,46.997066497802734,8.97216796875,-6.408690929412842,-0.1820068359375,-0.1575927734375,0.2027587890625
4.986,311,361,495,312,-15.0,42.0,39.0,70.73974609375,-6.286620616912842,-14.404295921325684,-0.18896484375,-0.0084228515625,-0.1336669921875
5.000,310,345,479,311,-15.0,42.0,39.0,106.44530487060547,4.0283203125,-11.901854515075684,-0.1746826171875,0.305908203125,-0.5169677734375
5.008,308,328,447,310,-15.0,42.0,39.0,126.77001190185547,28.869626998901367,1.220703125,-0.2479248046875,0.6837158203125,-0.799072265625
5.024,310,329,452,310,-15.0,42.0,39.0,119.50682830810547,46.325679779052734,18.49365234375,-0.5235595703125,0.9017333984375,-0.9696044921875
5.024,310,325,465,310,-15.0,42.0,39.0,91.12548065185547,42.602535247802734,29.846189498901367,-0.8519287109375,0.9130859375,-1.0179443359375
5.052,308,323,451,309,-15.0,42.0,39.0,48.767086029052734,18.310546875,26.489255905151367,-0.9158935546875,0.8505859375,-0.8443603515625
5.052,310,323,442,309,-15.0,42.0,39.0,2.868652105331421,-10.253905296325684,10.864256858825684,-0.7923583984375,0.7218017578125,-0.520263671875
5.054,308,324,433,310,-15.0,42.0,39.0,-33.38623046875,-26.306150436401367,-6.652831554412842,-0.69189453125,0.51611328125,-0.247314453125
5.068,308,326,430,310,-17.0,43.0,42.0,-53.710933685302734,-27.770994186401367,-17.76123046875,-0.635498046875,0.3426513671875,-0.095947265625
5.076,308,328,434,310,-17.0,43.0,42.0,-60.974117279052734,-22.277830123901367,-19.47021484375,-0.6259765625,0.2470703125,-0.0076904296875
5.084,309,328,435,310,-17.0,43.0,42.0,-60.729976654052734,-18.1884765625,-14.526366233825684,-0.6435546875,0.2119140625,0.070556640625
5.097,310,329,431,310,-17.0,43.0,42.0,-54.931636810302734,-15.930174827575684,-7.019042491912842,-0.6826171875,0.1978759765625,0.09619140625
5.112,310,337,425,310,-17.0,43.0,42.0,-43.518062591552734,-13.061522483825684,1.2817381620407104,-0.712646484375,0.19287109375,0.0555419921875
5.114,308,343,409,310,-17.0,43.0,42.0,-29.602048873901367,-8.544921875,10.192870140075684,-0.6810302734375,0.1966552734375,0.00048828125
5.128,309,371,367,311,-17.0,43.0,42.0,-19.04296875,-2.746581792831421,19.53125,-0.6014404296875,0.210205078125,-0.03369140625
5.153,308,382,357,310,-17.0,43.0,42.0,-16.9677734375,2.38037109375,28.991697311401367,-0.50244140625,0.2618408203125,-0.0413818359375
5.153,310,424,332,299,-17.0,43.0,42.0,-23.315427780151367,6.164550304412842,36.865234375,-0.3370361328125,0.3458251953125,-0.0184326171875
5.157,310,476,420,310,-15.0,42.0,35.0,-34.3017578125,8.23974609375,39.48974609375,-0.0499267578125,0.427001953125,0.04052734375
5.166,311,509,546,311,-15.0,42.0,35.0,-44.799800872802734,4.94384765625,33.203125,0.38330078125,0.4656982421875,0.227783203125
5.174,310,546,684,312,-15.0,42.0,35.0,-38.6962890625,-12.084959983825684,13.977049827575684,0.77685546875,0.32958984375,0.5682373046875
5.188,311,642,982,312,-15.0,42.0,35.0,10.375975608825684,-42.236324310302734,-16.845703125,0.766845703125,-0.0238037109375,0.683837890625
5.196,311,711,1078,313,-15.0,42.0,35.0,87.09716033935547,-58.105464935302734,-42.236324310302734,0.17919921875,-0.060546875,0.21484375
5.204,309,766,1074,314,-15.0,42.0,35.0,124.51171112060547,-41.381832122802734,-52.917476654052734,-0.9508056640625,0.4627685546875,-0.8814697265625
5.232,311,861,1325,314,-15.0,42.0,35.0,102.96630096435547,-5.859374523162842,-64.39208984375,-2.2989501953125,1.005615234375,-2.1334228515625
5.233,311,904,1462,304,-15.0,42.0,35.0,36.865234375,11.535643577575684,-72.75390625,-3.1434326171875,1.255126953125,-2.4276123046875
5.239,311,918,1516,314,-15.0,42.0,35.0,-78.0029296875,-17.333984375,-61.096187591552734,-3.026123046875,0.99072265625,-1.4871826171875
5.248,311,889,1490,313,-15.0,42.0,35.0,-186.70652770996094,-52.124019622802734,-37.59765625,-2.6063232421875,0.216796875,-0.264404296875
5.264,312,878,1471,314,-15.0,42.0,35.0,-202.88084411621094,-49.682613372802734,-11.657713890075684,-2.15283203125,-0.5670166015625,0.647216796875
5.264,312,848,1406,299,-12.0,40.0,41.0,-124.14550018310547,-33.8134765625,10.986327171325684,-1.42822265625,-0.583251953125,1.0972900390625
5.278,312,832,1340,314,-12.0,40.0,41.0,-22.338865280151367,-26.123044967651367,23.620603561401367,-0.7178955078125,1.107421875,0.0360107421875
5.286,311,822,1352,314,-12.0,40.0,41.0,45.532222747802734,-18.5546875,19.53125,-0.7178955078125,1.107421875,0.0360107421875
5.295,312,810,1351,315,-12.0,40.0,41.0,72.998046875,-1.6479490995407104,0.0,-1.08740234375,1.4588623046875,-0.817626953125
5.308,308,749,1280,314,-12.0,40.0,41.0,57.556148529052734,19.10400390625,-18.1884765625,-1.8712158203125,0.912353515625,-1.1175537109375
5.315,310,704,1229,314,-12.0,40.0,41.0,6.286620616912842,30.517576217651367,-24.658201217651367,-1.8712158203125,0.912353515625,-1.1175537109375
5.347,312,648,1151,314,-12.0,40.0,41.0,-40.527339935302734,36.4990234375,-18.12744140625,-1.8621826171875,0.443603515625,-0.7147216796875
5.357,310,575,987,313,-12.0,40.0,41.0,-60.302730560302734,44.128414154052734,1.03759765625,-1.529052734375,0.1094970703125,0.066162109375
5.364,311,548,875,314,-12.0,40.0,41.0,-58.166500091552734,54.321285247802734,28.564451217651367,-1.529052734375,0.1094970703125,0.066162109375
5.364,311,519,766,312,-12.0,40.0,41.0,-43.640132904052734,67.138671875,50.598140716552734,-1.19384765625,-0.0648193359375,0.3800048828125
5.368,310,452,591,312,-15.0,43.0,41.0,-19.83642578125,75.62255859375,54.199214935302734,-0.466064453125,-0.120849609375,0.2984619140625
5.376,309,437,523,310,-15.0,43.0,41.0,12.390135765075684,71.59423828125,40.832515716552734,-0.466064453125,-0.120849609375,0.2984619140625
5.384,310,420,503,310,-15.0,43.0,41.0,35.5224609375,50.659175872802734,16.4794921875,-0.208251953125,-0.0455322265625,0.169921875
5.456,310,382,499,311,-15.0,43.0,41.0,32.470703125,15.502928733825684,-12.084959983825684,-0.2972412109375,-0.0562744140625,0.150146484375
5.456,310,356,497,311,-15.0,43.0,41.0,25.878904342651367,-17.51708984375,-34.85107421875,-0.415283203125,0.079833984375,-0.0802001953125
5.456,310,351,465,309,-15.0,43.0,41.0,51.208492279052734,-34.11865234375,-39.48974609375,-0.415283203125,0.079833984375,-0.0802001953125
5.456,309,329,428,310,-15.0,43.0,41.0,139.6484375,-5.249022960662842,2.0751953125,-0.127197265625,0.6614990234375,-0.6876220703125
5.456,310,328,423,310,-15.0,43.0,41.0,139.6484375,-5.249022960662842,2.0751953125,-0.44921875,0.878662109375,-0.9168701171875
5.459,309,322,433,310,-15.0,43.0,41.0,145.99609375,31.616209030151367,18.85986328125,-0.44921875,0.878662109375,-0.9168701171875
5.459,309,322,424,310,-18.0,45.0,42.0,57.373043060302734,16.7236328125,14.526366233825684,-0.90771484375,0.7880859375,-0.753662109375
5.472,310,322,411,309,-18.0,45.0,42.0,57.373043060302734,16.7236328125,14.526366233825684,-0.7587890625,0.6488037109375,-0.4273681640625
5.474,306,314,401,308,-18.0,45.0,42.0,2.0751953125,-14.404295921325684,-0.8544921278953552,-0.7587890625,0.6488037109375,-0.4273681640625
5.487,309,314,380,310,-18.0,45.0,42.0,-43.579097747802734,-24.597166061401367,-17.27294921875,-0.612060546875,0.3321533203125,-0.07080078125
5.499,310,314,379,311,-18.0,45.0,42.0,-43.579097747802734,-24.597166061401367,-17.27294921875,-0.6053466796875,0.273193359375,-0.019287109375
5.504,310,317,383,309,-18.0,45.0,42.0,-45.898433685302734,-13.732909202575684,-12.390135765075684,-0.6053466796875,0.273193359375,-0.019287109375
5.518,310,325,384,310,-18.0,45.0,42.0,-46.447750091552734,-0.54931640625,7.629394054412842,-0.739013671875,0.1741943359375,0.0516357421875
5.526,309,325,379,310,-18.0,45.0,42.0,-46.447750091552734,-0.54931640625,7.629394054412842,-0.7611083984375,0.1236572265625,0.0557861328125
5.533,310,331,384,310,-18.0,45.0,42.0,-41.870113372802734,-0.9765624403953552,12.512206077575684,-0.7611083984375,0.1236572265625,0.0557861328125
5.564,310,343,373,310,-18.0,45.0,42.0,-17.578125,1.8920897245407104,21.606443405151367,-0.68896484375,0.20458984375,-0.070556640625
5.565,310,353,364,310,-16.0,42.0,39.0,-7.934569835662842,7.690429210662842,30.456541061401367,-0.6739501953125,0.288818359375,-0.1500244140625
5.565,310,367,357,298,-16.0,42.0,39.0,-7.934569835662842,7.690429210662842,30.456541061401367,-0.6402587890625,0.3720703125,-0.1630859375
5.577,309,387,351,308,-16.0,42.0,39.0,-12.512206077575684,17.76123046875,44.616695404052734,-0.5760498046875,0.42822265625,-0.132568359375
5.586,309,420,349,310,-16.0,42.0,39.0,-27.893064498901367,21.728513717651367,45.166011810302734,-0.4661865234375,0.4400634765625,-0.08984375
5.594,309,444,352,310,-16.0,42.0,39.0,-27.893064498901367,21.728513717651367,45.166011810302734,-0.2545166015625,0.42431640625,0.0333251953125
5.608,310,499,438,311,-16.0,42.0,39.0,-36.07177734375,14.404295921325684,33.203125,0.115478515625,0.3736572265625,0.37353515625
5.616,310,543,574,312,-16.0,42.0,39.0,-2.25830078125,-9.46044921875,14.709471702575684,0.494384765625,0.1986083984375,0.71435546875
5.624,312,588,728,314,-16.0,42.0,39.0,-2.25830078125,-9.46044921875,14.709471702575684,0.53955078125,0.004638671875,0.540771484375
5.638,311,691,966,314,-16.0,42.0,39.0,108.39842987060547,-45.898433685302734,-44.982906341552734,0.111083984375,0.1319580078125,-0.1513671875
5.662,311,737,947,313,-16.0,42.0,39.0,88.68407440185547,-27.465818405151367,-59.875484466552734,-0.6815185546875,0.5533447265625,-1.3004150390625
5.662,310,771,994,313,-15.0,43.0,43.0,88.68407440185547,-27.465818405151367,-59.875484466552734,-1.6954345703125,0.8507080078125,-2.3311767578125
5.667,310,861,1319,314,-15.0,43.0,43.0,-2.990722417831421,16.9677734375,-64.0869140625,-2.54541015625,1.0079345703125,-2.37646484375
5.676,312,916,1424,314,-15.0,43.0,43.0,-83.37401580810547,-18.4326171875,-44.433589935302734,-2.693359375,1.005615234375,-1.4969482421875
5.684,311,910,1432,314,-15.0,43.0,43.0,-83.37401580810547,-18.4326171875,-44.433589935302734,-2.6346435546875,0.5823974609375,-0.389892578125
5.698,312,873,1431,314,-15.0,43.0,43.0,-194.70213317871094,-52.307125091552734,1.8310545682907104,-2.484619140625,-0.2021484375,0.4525146484375
5.707,312,859,1392,315,-15.0,43.0,43.0,-135.25390625,-40.161128997802734,17.39501953125,-1.7601318359375,-0.61767578125,1.0316162109375
5.714,312,848,1345,314,-15.0,43.0,43.0,-38.818359375,-36.19384765625,22.521970748901367,-1.05859375,-0.046630859375,1.0164794921875
5.727,312,840,1323,314,-15.0,43.0,43.0,36.376953125,-32.958984375,20.751951217651367,-0.7879638671875,0.95166015625,0.2796630859375
5.739,312,823,1323,314,-15.0,43.0,43.0,70.37353515625,-19.4091796875,13.427733421325684,-1.0382080078125,1.6031494140625,-0.7103271484375
5.744,310,795,1311,314,-15.0,43.0,43.0,60.180660247802734,6.286620616912842,1.4038084745407104,-1.5455322265625,1.5595703125,-1.2452392578125
5.767,310,728,1231,314,-13.0,40.0,36.0,13.977049827575684,27.282712936401367,-11.047362327575684,-1.7755126953125,0.9840087890625,-1.06689453125
5.767,312,673,1143,312,-13.0,40.0,36.0,-29.541013717651367,38.26904296875,-12.817381858825684,-1.770263671875,0.4197998046875,-0.6240234375
5.775,311,621,1029,314,-13.0,40.0,36.0,-48.278804779052734,46.752925872802734,3.173827886581421,-1.671875,0.151611328125,-0.2327880859375
5.795,311,591,939,314,-13.0,40.0,36.0,-47.912593841552734,55.664058685302734,29.418943405151367,-1.4652099609375,0.0726318359375,0.08251953125
5.797,312,530,780,312,-13.0,40.0,36.0,-33.02001953125,64.02587890625,47.363277435302734,-1.161376953125,0.039794921875,0.2696533203125
5.809,311,488,668,314,-13.0,40.0,36.0,-4.150390625,65.3076171875,44.128414154052734,-0.803466796875,0.0157470703125,0.2354736328125
5.813,310,449,566,312,-13.0,40.0,36.0,27.832029342651367,54.809566497802734,21.789548873901367,-0.4453125,-0.0562744140625,0.146240234375
5.827,310,415,518,311,-13.0,40.0,36.0,42.968746185302734,32.1044921875,-7.751464366912842,-0.2198486328125,-0.1529541015625,0.2200927734375
5.842,309,379,504,312,-13.0,40.0,36.0,39.12353515625,1.9531248807907104,-32.04345703125,-0.19921875,-0.1910400390625,0.3115234375
5.843,299,357,506,310,-13.0,40.0,36.0,47.241207122802734,-20.751951217651367,-44.738765716552734,-0.3204345703125,-0.0765380859375,0.1444091796875
5.862,309,336,475,309,-16.0,43.0,34.0,83.00780487060547,-26.733396530151367,-40.222164154052734,-0.2918701171875,0.190673828125,-0.16796875
5.875,308,322,444,310,-16.0,43.0,34.0,121.15477752685547,-14.953612327575684,-21.240232467651367,-0.05712890625,0.4912109375,-0.4434814453125
5.875,310,314,430,310,-16.0,43.0,34.0,141.41845703125,17.39501953125,0.8544921278953552,-0.271240234375,0.6878662109375,-0.7218017578125
5.887,310,314,439,309,-16.0,43.0,34.0,135.6201171875,40.10009765625,17.7001953125,-0.82666015625,0.734619140625,-0.89208984375
5.905,310,315,439,310,-16.0,43.0,34.0,98.32762908935547,20.996091842651367,17.822265625,-0.887451171875,0.7557373046875,-0.7933349609375
5.905,310,312,428,311,-16.0,43.0,34.0,48.706050872802734,-11.718749046325684,3.845214605331421,-0.6810302734375,0.74267578125,-0.595458984375
5.917,310,313,385,308,-16.0,43.0,34.0,14.160155296325684,-25.512693405151367,-6.408690929412842,-0.6376953125,0.6094970703125,-0.4449462890625
5.925,310,312,379,308,-16.0,43.0,34.0,-3.112792730331421,-23.681638717651367,-8.23974609375,-0.6429443359375,0.429443359375,-0.292236328125
5.933,310,314,382,310,-16.0,43.0,34.0,-15.319823265075684,-15.624999046325684,-6.103515148162842,-0.6337890625,0.3216552734375,-0.1639404296875
5.946,310,312,388,310,-16.0,43.0,34.0,-28.808591842651367,-7.568358898162842,-2.38037109375,-0.615966796875,0.30712890625,-0.0736083984375
5.973,310,314,393,308,-16.0,43.0,38.0,-40.954586029052734,-2.929687261581421,2.01416015625,-0.638671875,0.2940673828125,-0.0181884765625
5.973,309,313,394,310,-16.0,43.0,38.0,-46.264644622802734,-1.8310545682907104,5.676269054412842,-0.69189453125,0.244384765625,0.0032958984375
5.977,309,325,387,310,-16.0,43.0,38.0,-42.480464935302734,-2.38037109375,8.23974609375,-0.7257080078125,0.2115478515625,-0.0107421875
5.984,310,329,380,310,-16.0,43.0,38.0,-32.5927734375,-2.44140625,11.596678733825684,-0.7169189453125,0.228271484375,-0.048095703125
5.993,310,336,367,310,-16.0,43.0,38.0,-23.315427780151367,-1.3427733182907104,16.90673828125,-0.6614990234375,0.2694091796875,-0.0697021484375
6.012,309,372,354,310,-16.0,43.0,38.0,-19.83642578125,0.4882812201976776,22.216794967651367,-0.589111328125,0.306640625,-0.0721435546875
6.015,308,393,357,310,-16.0,43.0,38.0,-24.108884811401367,2.38037109375,26.062009811401367,-0.47265625,0.3486328125,-0.0570068359375
6.023,310,424,379,309,-16.0,43.0,38.0,-32.5927734375,3.173827886581421,27.099607467651367,-0.234619140625,0.392333984375,0.0538330078125
6.037,310,490,495,310,-16.0,43.0,38.0,-32.8369140625,0.6713866591453552,22.155759811401367,0.093017578125,0.3582763671875,0.408447265625
6.048,311,524,629,312,-16.0,43.0,38.0,-5.432128429412842,-11.962889671325684,8.60595703125,0.39697265625,0.30712890625,0.704345703125
6.063,310,578,806,312,-18.0,44.0,46.0,37.59765625,-32.470703125,-14.587401390075684,0.4111328125,0.3580322265625,0.460205078125
6.072,311,673,1022,314,-18.0,44.0,46.0,46.508785247802734,-51.635738372802734,-43.884273529052734,0.1268310546875,0.4783935546875,-0.011474609375
6.075,311,710,1013,314,-18.0,44.0,46.0,21.118162155151367,-55.236812591552734,-70.61767578125,-0.3624267578125,0.6195068359375,-0.7642822265625
6.083,310,754,1066,314,-18.0,44.0,46.0,18.73779296875,-23.864744186401367,-84.77782440185547,-1.1910400390625,0.6610107421875,-1.9129638671875
6.096,315,826,1336,314,-18.0,44.0,46.0,31.249998092651367,8.11767578125,-81.23778533935547,-2.162109375,0.5743408203125,-2.3817138671875
6.111,312,865,1462,314,-18.0,44.0,46.0,0.7934569716453552,-14.892577171325684,-64.63623046875,-2.6405029296875,0.39306640625,-1.7110595703125
6.113,299,890,1500,314,-18.0,44.0,46.0,-67.626953125,-73.2421875,-43.151851654052734,-2.5283203125,0.1556396484375,-0.6405029296875
6.126,312,868,1486,314,-18.0,44.0,46.0,-114.07469940185547,-104.24803924560547,-21.972654342651367,-2.277587890625,0.054443359375,0.3870849609375
6.135,311,854,1462,315,-18.0,44.0,46.0,-104.55321502685547,-93.99413299560547,-5.187987804412842,-2.277587890625,0.054443359375,0.3870849609375
6.150,312,826,1409,315,-18.0,44.0,46.0,-62.622066497802734,-76.47705078125,-0.7934569716453552,-1.5572509765625,0.068603515625,0.6680908203125
6.176,312,816,1393,314,-13.0,40.0,43.0,-17.4560546875,-63.964839935302734,-7.141112804412842,-0.674072265625,0.907958984375,0.2276611328125
6.176,312,805,1397,314,-13.0,40.0,43.0,21.240232467651367,-41.809078216552734,-13.366698265075684,-0.674072265625,0.907958984375,0.2276611328125
6.177,310,780,1381,314,-13.0,40.0,43.0,40.893550872802734,-8.1787109375,-16.05224609375,-1.137939453125,1.16064453125,-0.4420166015625
6.187,310,726,1282,314,-13.0,40.0,43.0,27.343748092651367,22.949216842651367,-16.11328125,-1.9027099609375,0.527587890625,-0.73486328125
6.195,311,689,1209,315,-13.0,40.0,43.0,-10.803221702575684,43.212886810302734,-10.437010765075684,-1.9027099609375,0.527587890625,-0.73486328125
6.203,311,644,1105,314,-13.0,40.0,43.0,-47.607418060302734,60.363765716552734,5.065917491912842,-1.8323974609375,0.236083984375,-0.43994140625
6.217,311,575,917,312,-13.0,40.0,43.0,-68.17626953125,81.66503143310547,30.456541061401367,-1.53125,0.1678466796875,0.066162109375
6.225,310,537,794,312,-13.0,40.0,43.0,-68.603515625,103.57665252685547,58.776851654052734,-1.53125,0.1678466796875,0.066162109375
6.239,310,504,694,314,-13.0,40.0,43.0,-48.278804779052734,116.21092987060547,75.37841796875,-1.2418212890625,0.115966796875,0.183349609375
6.251,310,426,469,311,-13.0,40.0,43.0,-13.427733421325684,112.85399627685547,69.091796875,-0.413330078125,-0.1270751953125,0.1949462890625
6.255,312,411,423,312,-15.0,40.0,35.0,21.240232467651367,93.68895721435547,43.273921966552734,-0.1170654296875,-0.26171875,0.2386474609375
6.271,310,391,415,311,-15.0,40.0,35.0,37.78076171875,63.171382904052734,11.657713890075684,-0.1170654296875,-0.26171875,0.2386474609375
6.278,309,360,424,310,-15.0,40.0,35.0,26.245115280151367,-2.929687261581421,-37.29248046875,-0.2274169921875,-0.025390625,0.0550537109375
6.285,310,326,385,310,-15.0,40.0,35.0,26.245115280151367,-2.929687261581421,-37.29248046875,-0.174072265625,0.2669677734375,-0.10498046875
6.293,308,332,373,308,-15.0,40.0,35.0,47.668453216552734,-21.179197311401367,-37.841796875,-0.174072265625,0.2669677734375,-0.10498046875
6.307,308,322,367,308,-15.0,40.0,35.0,139.16015625,30.090330123901367,32.2265625,-0.362060546875,0.8443603515625,-0.7445068359375
6.315,308,325,369,310,-15.0,40.0,35.0,139.16015625,30.090330123901367,32.2265625,-0.9749755859375,0.9569091796875,-0.952392578125
6.329,310,324,372,310,-15.0,40.0,35.0,134.70458984375,47.363277435302734,53.405757904052734,-0.9749755859375,0.9569091796875,-0.952392578125
6.337,310,326,367,310,-15.0,40.0,35.0,33.447265625,-12.084959983825684,6.896972179412842,-0.6976318359375,0.656982421875,-0.694091796875
6.359,310,323,367,310,-15.0,40.0,35.0,33.447265625,-12.084959983825684,6.896972179412842,-0.6728515625,0.5166015625,-0.5704345703125
6.359,308,325,367,310,-15.0,40.0,43.0,4.39453125,-21.545408248901367,-14.953612327575684,-0.6728515625,0.5166015625,-0.5704345703125
6.384,308,325,369,309,-15.0,40.0,43.0,-43.395992279052734,-17.2119140625,-16.7236328125,-0.680908203125,0.266357421875,-0.2078857421875
6.384,309,311,369,308,-15.0,40.0,43.0,-43.395992279052734,-17.2119140625,-16.7236328125,-0.6710205078125,0.19873046875,-0.0888671875
6.384,310,328,367,297,-15.0,40.0,43.0,-65.5517578125,-15.258788108825684,-7.568358898162842,-0.6710205078125,0.19873046875,-0.0888671875
6.397,310,337,360,308,-15.0,40.0,43.0,-66.95556640625,-12.023924827575684,7.751464366912842,-0.6953125,0.186279296875,-0.057373046875
6.405,310,337,363,310,-15.0,40.0,43.0,-49.255367279052734,-7.995604991912842,12.817381858825684,-0.730712890625,0.22998046875,-0.09619140625
6.413,310,339,364,310,-15.0,40.0,43.0,-49.255367279052734,-7.995604991912842,12.817381858825684,-0.7550048828125,0.293701171875,-0.1248779296875
6.430,310,356,356,311,-15.0,40.0,43.0,-18.310546875,3.540038824081421,26.489255905151367,-0.7601318359375,0.332763671875,-0.1240234375
6.435,310,373,354,309,-15.0,40.0,43.0,-17.4560546875,8.6669921875,33.50830078125,-0.726318359375,0.3350830078125,-0.111083984375
6.443,310,391,345,310,-15.0,40.0,43.0,-17.4560546875,8.6669921875,33.50830078125,-0.6563720703125,0.321533203125,-0.0850830078125
6.476,308,426,349,310,-16.0,42.0,41.0,-31.860349655151367,14.587401390075684,44.677730560302734,-0.545166015625,0.3111572265625,-0.0279541015625
6.483,310,438,343,310,-16.0,42.0,41.0,-38.6962890625,16.2353515625,48.645015716552734,-0.3746337890625,0.331787109375,0.02099609375
6.484,310,456,343,310,-16.0,42.0,41.0,-38.6962890625,16.2353515625,48.645015716552734,-0.09716796875,0.385986328125,0.1165771484375
6.487,311,535,557,312,-16.0,42.0,41.0,-40.649410247802734,1.4038084745407104,45.532222747802734,0.2891845703125,0.38037109375,0.3768310546875
6.495,311,587,739,313,-16.0,42.0,41.0,-18.798828125,-40.10009765625,21.362302780151367,0.7542724609375,0.17041015625,0.74169921875
6.503,310,636,966,314,-16.0,42.0,41.0,-18.798828125,-40.10009765625,21.362302780151367,0.7965087890625,-0.0775146484375,0.738037109375
6.517,312,756,1082,314,-16.0,42.0,41.0,95.58104705810547,-102.96630096435547,-72.6318359375,-0.0625,0.16259765625,-0.04736328125
6.526,311,799,1078,314,-16.0,42.0,41.0,100.95214080810547,-44.921871185302734,-87.40233612060547,-1.3985595703125,0.765625,-1.431884765625
6.536,311,837,1228,314,-16.0,42.0,41.0,100.95214080810547,-44.921871185302734,-87.40233612060547,-2.548095703125,1.2110595703125,-2.45068359375
6.547,312,889,1492,314,-15.0,43.0,41.0,15.258788108825684,24.108884811401367,-68.115234375,-2.93798828125,1.2677001953125,-2.22021484375
6.560,312,894,1533,315,-15.0,43.0,41.0,-98.75487518310547,-24.597166061401367,-48.950191497802734,-2.672119140625,0.74169921875,-1.1031494140625
6.563,312,875,1512,314,-15.0,43.0,41.0,-173.21775817871094,-56.945796966552734,-28.320310592651367,-2.4825439453125,-0.0706787109375,-0.0296630859375
6.587,312,854,1429,314,-15.0,43.0,41.0,-146.30126953125,-51.086421966552734,-4.7607421875,-2.1187744140625,-0.6221923828125,0.648193359375
6.587,310,840,1365,302,-15.0,43.0,41.0,-62.927242279052734,-40.527339935302734,18.49365234375,-1.3212890625,-0.416259765625,0.8941650390625
6.593,310,837,1380,314,-15.0,43.0,41.0,9.21630859375,-35.2783203125,33.87451171875,-0.789306640625,0.5445556640625,0.5047607421875
6.607,311,822,1377,314,-15.0,43.0,41.0,44.616695404052734,-21.179197311401367,33.8134765625,-0.9910888671875,1.486572265625,-0.335205078125
6.615,311,803,1346,314,-15.0,43.0,41.0,44.677730560302734,3.417968511581421,15.930174827575684,-1.546875,1.65576171875,-0.9940185546875
6.623,311,767,1294,314,-15.0,43.0,41.0,16.9677734375,25.512693405151367,-6.896972179412842,-1.844970703125,1.156982421875,-1.0657958984375
6.644,312,697,1137,313,-15.0,43.0,41.0,-17.08984375,38.330078125,-13.549803733825684,-1.842041015625,0.599609375,-0.716552734375
6.645,312,653,1054,312,-15.0,42.0,43.0,-35.21728515625,47.485347747802734,3.601073980331421,-1.670166015625,0.2313232421875,-0.271728515625
6.660,314,616,955,314,-15.0,42.0,43.0,-31.799314498901367,57.556148529052734,31.921384811401367,-1.36767578125,0.0958251953125,0.037841796875
6.667,310,558,803,313,-15.0,42.0,43.0,-16.357421875,65.185546875,51.330562591552734,-1.03759765625,0.0931396484375,0.1966552734375
6.689,310,519,691,314,-15.0,42.0,43.0,0.4882812201976776,61.889644622802734,47.302242279052734,-0.780029296875,0.0877685546875,0.2613525390625
6.690,311,473,547,313,-15.0,42.0,43.0,19.47021484375,48.645015716552734,23.376462936401367,-0.57275390625,0.046875,0.1778564453125
6.697,310,433,467,312,-15.0,42.0,43.0,38.14697265625,32.89794921875,-6.530761241912842,-0.373291015625,-0.026611328125,0.026611328125
6.705,310,415,439,311,-15.0,42.0,43.0,44.006343841552734,14.404295921325684,-33.0810546875,-0.2342529296875,-0.115234375,-0.0289306640625
6.713,310,386,441,310,-15.0,42.0,43.0,36.0107421875,-6.958007335662842,-51.818843841552734,-0.2911376953125,-0.1241455078125,-0.041259765625
6.727,310,364,430,310,-15.0,42.0,43.0,37.4755859375,-21.667478561401367,-55.053707122802734,-0.4560546875,0.02294921875,-0.135986328125
6.735,310,353,401,310,-15.0,42.0,43.0,62.744136810302734,-22.949216842651367,-38.2080078125,-0.435546875,0.294189453125,-0.3236083984375
6.750,310,338,380,310,-15.0,42.0,43.0,92.22411346435547,-11.047362327575684,-10.253905296325684,-0.28173828125,0.60791015625,-0.551025390625
6.764,310,323,372,310,-17.0,43.0,37.0,100.40282440185547,8.23974609375,12.756346702575684,-0.322509765625,0.8004150390625,-0.7056884765625
6.765,308,307,359,311,-17.0,43.0,37.0,83.98436737060547,19.775390625,21.789548873901367,-0.57763671875,0.7958984375,-0.75634765625
6.778,310,322,379,310,-17.0,43.0,37.0,50.598140716552734,13.122557640075684,20.141599655151367,-0.8167724609375,0.7076416015625,-0.6866455078125
6.793,309,315,367,310,-17.0,43.0,37.0,6.958007335662842,-7.995604991912842,12.451170921325684,-0.861083984375,0.6029052734375,-0.46435546875
6.802,310,322,367,310,-17.0,43.0,37.0,-30.639646530151367,-28.564451217651367,0.30517578125,-0.7276611328125,0.465087890625,-0.2142333984375
6.803,310,310,365,310,-17.0,43.0,37.0,-45.898433685302734,-34.66796875,-10.375975608825684,-0.60693359375,0.3232421875,-0.0787353515625
6.817,311,326,372,310,-17.0,43.0,37.0,-41.870113372802734,-28.686521530151367,-12.939452171325684,-0.564208984375,0.2586669921875,-0.0440673828125
6.825,310,325,374,310,-17.0,43.0,37.0,-35.09521484375,-20.935056686401367,-7.751464366912842,-0.5675048828125,0.2696533203125,-0.031982421875
6.833,310,331,377,310,-17.0,43.0,37.0,-34.7900390625,-15.869139671325684,0.1831054538488388,-0.6536865234375,0.26416015625,-0.00537109375
6.847,308,340,369,310,-15.0,42.0,41.0,-37.7197265625,-13.061522483825684,6.774901866912842,-0.742431640625,0.231201171875,0.0328369140625
6.855,310,355,364,310,-15.0,42.0,41.0,-36.31591796875,-10.986327171325684,11.291502952575684,-0.723388671875,0.232666015625,0.0469970703125
6.866,309,374,359,310,-15.0,42.0,41.0,-29.907224655151367,-7.263183116912842,14.526366233825684,-0.65673828125,0.2685546875,0.0208740234375
6.895,310,401,351,310,-15.0,42.0,41.0,-24.658201217651367,-1.4648436307907104,17.76123046875,-0.5001220703125,0.2900390625,-0.070556640625
6.896,311,428,343,310,-15.0,42.0,41.0,-25.817869186401367,4.150390625,23.193357467651367,-0.5001220703125,0.2900390625,-0.070556640625
6.896,310,439,342,310,-15.0,42.0,41.0,-35.7666015625,6.774901866912842,30.761716842651367,-0.3367919921875,0.332763671875,-0.0357666015625
6.914,311,504,497,311,-15.0,42.0,41.0,-45.654293060302734,4.57763671875,36.7431640625,0.014404296875,0.49267578125,0.260498046875
6.916,311,547,678,312,-15.0,42.0,41.0,-36.19384765625,-7.080077648162842,35.70556640625,0.014404296875,0.49267578125,0.260498046875
6.924,310,582,868,313,-15.0,42.0,41.0,0.54931640625,-36.7431640625,19.22607421875,0.5899658203125,0.384521484375,0.681396484375
6.938,313,696,1178,314,-15.0,42.0,41.0,65.185546875,-71.96044921875,-25.085447311401367,-0.1142578125,0.3074951171875,-0.20556640625
6.947,309,763,1246,315,-13.0,41.0,40.0,101.31835174560547,-75.3173828125,-72.509765625,-1.32666015625,0.611083984375,-1.0125732421875
6.968,311,809,1334,315,-13.0,41.0,40.0,62.194820404052734,-49.926753997802734,-90.08788299560547,-1.32666015625,0.611083984375,-1.0125732421875
6.969,310,852,1543,315,-13.0,41.0,40.0,-18.12744140625,3.601073980331421,-78.4912109375,-2.863037109375,0.569580078125,-1.8221435546875
6.984,312,873,1600,315,-13.0,41.0,40.0,-18.12744140625,3.601073980331421,-78.4912109375,-2.75634765625,0.24169921875,-0.830078125
6.994,312,861,1598,317,-13.0,41.0,40.0,-93.93309783935547,-17.27294921875,-49.011226654052734,-2.75634765625,0.24169921875,-0.830078125
6.998,312,846,1569,315,-13.0,41.0,40.0,-110.71776580810547,-24.169919967651367,46.264644622802734,-2.0648193359375,-0.3282470703125,0.566162109375
7.007,312,827,1529,315,-13.0,41.0,40.0,-110.71776580810547,-24.169919967651367,46.264644622802734,-1.156005859375,-0.089111328125,0.847412109375
7.014,312,816,1477,314,-13.0,41.0,40.0,-42.114253997802734,-18.73779296875,69.76318359375,-1.156005859375,-0.089111328125,0.847412109375
7.028,311,810,1471,314,-13.0,41.0,40.0,48.950191497802734,-11.413573265075684,35.82763671875,-0.6473388671875,1.28857421875,-0.1197509765625
7.036,310,799,1474,315,-13.0,41.0,40.0,48.950191497802734,-11.413573265075684,35.82763671875,-1.1376953125,1.4217529296875,-0.7462158203125
7.044,312,780,1457,315,-12.0,40.0,38.0,60.668941497802734,6.652831554412842,5.554198741912842,-1.1376953125,1.4217529296875,-0.7462158203125
7.058,310,728,1381,314,-12.0,40.0,38.0,5.493163585662842,27.893064498901367,-18.98193359375,-1.7471923828125,0.66162109375,-0.850341796875
7.076,310,694,1325,314,-12.0,40.0,38.0,5.493163585662842,27.893064498901367,-18.98193359375,-1.699462890625,0.3392333984375,-0.46484375
7.085,310,632,1225,314,-12.0,40.0,38.0,-26.977537155151367,30.212400436401367,-8.60595703125,-1.699462890625,0.3392333984375,-0.46484375
7.100,310,594,1079,314,-12.0,40.0,38.0,-37.53662109375,49.621578216552734,30.395505905151367,-1.3956298828125,0.2913818359375,0.0404052734375
7.100,310,561,981,314,-12.0,40.0,38.0,-23.254392623901367,59.082027435302734,41.748043060302734,-1.1966552734375,0.3104248046875,0.069580078125
7.104,311,523,884,314,-12.0,40.0,38.0,-23.254392623901367,59.082027435302734,41.748043060302734,-0.96044921875,0.241943359375,0.063720703125
7.118,310,451,664,312,-12.0,40.0,38.0,14.282225608825684,48.339839935302734,17.63916015625,-0.690673828125,0.1199951171875,0.0242919921875
7.127,311,428,574,312,-12.0,40.0,38.0,30.395505905151367,33.203125,-4.45556640625,-0.4176025390625,-0.076904296875,0.0535888671875
7.139,312,415,533,312,-12.0,40.0,38.0,30.395505905151367,33.203125,-4.45556640625,-0.2432861328125,-0.252197265625,0.129638671875
7.149,310,393,508,312,-16.0,42.0,39.0,36.07177734375,-7.873534679412842,-36.68212890625,-0.2603759765625,-0.25,0.1324462890625
7.156,311,373,485,311,-16.0,42.0,39.0,47.729488372802734,-19.287109375,-37.65869140625,-0.3961181640625,-0.0582275390625,0.00634765625
7.164,311,362,456,312,-16.0,42.0,39.0,47.729488372802734,-19.287109375,-37.65869140625,-0.4129638671875,0.2633056640625,-0.248779296875
7.200,310,340,435,311,-16.0,42.0,39.0,107.54393768310547,2.807616949081421,-4.638671875,-0.39501953125,0.618896484375,-0.5445556640625
7.200,310,315,402,310,-16.0,42.0,39.0,112.60985565185547,22.155759811401367,12.756346702575684,-0.5079345703125,0.8345947265625,-0.728515625
7.200,308,327,408,310,-16.0,42.0,39.0,112.60985565185547,22.155759811401367,12.756346702575684,-0.6810302734375,0.832763671875,-0.7777099609375
7.208,308,326,401,310,-16.0,42.0,39.0,58.837886810302734,20.935056686401367,20.690916061401367,-0.838134765625,0.71630859375,-0.7113037109375
7.216,310,322,388,309,-16.0,42.0,39.0,20.324705123901367,3.967284917831421,16.357421875,-0.867919921875,0.588134765625,-0.5113525390625
7.224,309,317,380,312,-16.0,42.0,39.0,20.324705123901367,3.967284917831421,16.357421875,-0.7694091796875,0.4747314453125,-0.2694091796875
7.241,308,314,370,309,-16.0,42.0,39.0,-30.517576217651367,-20.996091842651367,0.0610351525247097,-0.685302734375,0.364013671875,-0.119873046875
7.252,312,314,371,310,-16.0,44.0,33.0,-34.48486328125,-18.49365234375,-3.356933355331421,-0.680419921875,0.271484375,-0.0621337890625
7.254,308,315,378,310,-16.0,44.0,33.0,-33.447265625,-13.671874046325684,0.1831054538488388,-0.6834716796875,0.2330322265625,-0.015869140625
7.303,309,325,379,310,-16.0,44.0,33.0,-33.3251953125,-11.169432640075684,7.446288585662842,-0.6575927734375,0.22509765625,0.02734375
7.303,310,328,379,311,-16.0,44.0,33.0,-33.87451171875,-10.070799827575684,14.587401390075684,-0.6309814453125,0.203125,0.0322265625
7.303,309,330,380,310,-16.0,44.0,33.0,-32.3486328125,-8.97216796875,20.080564498901367,-0.616455078125,0.1805419921875,-0.0025634765625
7.303,310,338,343,310,-16.0,44.0,33.0,-29.785154342651367,-7.202147960662842,25.512693405151367,-0.5787353515625,0.18896484375,-0.0208740234375
7.307,310,384,353,310,-16.0,44.0,33.0,-30.273435592651367,-5.310058116912842,31.555173873901367,-0.490234375,0.2374267578125,0.0128173828125
7.314,311,411,340,311,-16.0,44.0,33.0,-34.11865234375,-4.57763671875,36.62109375,-0.3280029296875,0.31982421875,0.062255859375
7.328,308,465,420,310,-16.0,44.0,33.0,-32.470703125,-5.310058116912842,38.9404296875,-0.032470703125,0.415283203125,0.203857421875
7.336,315,499,577,311,-16.0,44.0,33.0,-10.620116233825684,-10.803221702575684,32.958984375,0.51611328125,0.37548828125,0.6951904296875
7.344,311,538,733,312,-16.0,40.0,44.0,54.138179779052734,-28.198240280151367,7.141112804412842,0.970947265625,0.0902099609375,1.0528564453125
7.364,310,629,1139,314,-16.0,40.0,44.0,136.3525390625,-44.372554779052734,-33.69140625,0.7196044921875,0.00390625,0.5570068359375
7.366,311,684,1156,314,-16.0,40.0,44.0,138.7939453125,-49.987789154052734,-63.354488372802734,-0.0338134765625,0.506103515625,-0.260498046875
7.405,312,728,1139,314,-16.0,40.0,44.0,74.89013671875,-37.53662109375,-74.52392578125,-1.108642578125,1.0946044921875,-1.46337890625
7.406,311,808,1349,314,-16.0,40.0,44.0,42.480464935302734,3.906249761581421,-74.03564453125,-2.4776611328125,1.3271484375,-2.7548828125
7.406,310,840,1463,315,-16.0,40.0,44.0,8.4228515625,18.6767578125,-62.194820404052734,-3.33642578125,1.0711669921875,-2.65380859375
7.406,312,848,1518,314,-16.0,40.0,44.0,-80.93260955810547,-29.968259811401367,-39.85595703125,-3.2091064453125,0.3809814453125,-1.2742919921875
7.418,310,827,1499,314,-16.0,40.0,44.0,-168.88426208496094,-82.70262908935547,-7.324218273162842,-2.5947265625,-0.406982421875,0.28076171875
7.426,311,816,1463,314,-16.0,40.0,44.0,-171.93601989746094,-86.05956268310547,23.132322311401367,-1.853271484375,-0.9610595703125,1.2294921875
7.434,311,806,1415,315,-16.0,40.0,44.0,-80.078125,-55.908199310302734,38.57421875,-1.0872802734375,-0.619873046875,1.2015380859375
7.448,310,797,1419,314,-14.0,40.0,33.0,27.770994186401367,-25.390623092651367,38.330078125,-0.6812744140625,0.5771484375,0.412841796875
7.456,310,785,1407,314,-14.0,40.0,33.0,82.94676971435547,0.3662109076976776,24.230955123901367,-0.951416015625,1.584716796875,-0.5462646484375
7.464,311,770,1386,315,-14.0,40.0,33.0,75.439453125,15.747069358825684,3.417968511581421,-1.506591796875,1.68603515625,-1.0650634765625
7.486,312,730,1306,314,-14.0,40.0,33.0,27.526853561401367,12.573241233825684,-12.817381858825684,-1.7667236328125,1.1181640625,-0.958251953125
7.486,296,698,1251,312,-14.0,40.0,33.0,-20.751951217651367,1.7700194120407104,-15.808104515075684,-1.6976318359375,0.5167236328125,-0.55810546875
7.511,312,664,1185,315,-14.0,40.0,33.0,-45.776363372802734,-3.356933355331421,-5.920409679412842,-1.462158203125,0.2105712890625,-0.2003173828125
7.511,310,594,1081,312,-14.0,40.0,33.0,-49.255367279052734,1.4038084745407104,9.033203125,-1.209716796875,0.2005615234375,-0.0174560546875
7.516,312,585,987,315,-14.0,40.0,33.0,-42.968746185302734,14.892577171325684,20.446775436401367,-1.0150146484375,0.25537109375,0.0908203125
7.524,312,558,907,314,-14.0,40.0,33.0,-36.56005859375,31.555173873901367,21.301267623901367,-0.88525390625,0.206787109375,0.2130126953125
7.538,310,497,732,312,-16.0,41.0,40.0,-28.259275436401367,45.776363372802734,11.840819358825684,-0.7694091796875,0.091552734375,0.278564453125
7.549,312,454,648,312,-16.0,41.0,40.0,-11.718749046325684,51.940914154052734,-1.8920897245407104,-0.6141357421875,-0.0030517578125,0.24072265625
7.556,312,440,575,314,-16.0,41.0,40.0,11.108397483825684,46.813961029052734,-14.831542015075684,-0.4530029296875,-0.071533203125,0.1546630859375
7.568,310,419,547,312,-16.0,41.0,40.0,30.639646530151367,33.69140625,-24.230955123901367,-0.475341796875,0.0069580078125,-0.06884765625
7.592,308,408,518,312,-16.0,41.0,40.0,45.410152435302734,20.01953125,-26.611326217651367,-0.475341796875,0.0069580078125,-0.06884765625
7.615,299,373,480,311,-16.0,41.0,40.0,61.828609466552734,13.610838890075684,-23.071287155151367,-0.514404296875,0.1785888671875,-0.2493896484375
7.615,310,351,441,294,-16.0,41.0,40.0,77.45361328125,17.2119140625,-18.00537109375,-0.61865234375,0.5992431640625,-0.689208984375
7.615,310,329,433,310,-16.0,41.0,40.0,81.60399627685547,24.353025436401367,-9.09423828125,-0.61865234375,0.5992431640625,-0.689208984375
7.615,298,336,423,298,-16.0,41.0,40.0,70.25146484375,25.817869186401367,2.624511480331421,-0.677001953125,0.6883544921875,-0.733154296875
7.628,308,328,396,310,-16.0,41.0,40.0,48.095699310302734,19.8974609375,9.58251953125,-0.752197265625,0.5823974609375,-0.51025390625
7.636,310,325,386,310,-16.0,41.0,40.0,20.935056686401367,9.33837890625,10.498045921325684,-0.752197265625,0.5823974609375,-0.51025390625
7.644,308,319,373,310,-15.0,42.0,37.0,-6.225585460662842,-2.868652105331421,8.85009765625,-0.737060546875,0.500732421875,-0.318115234375
7.657,310,315,371,310,-15.0,42.0,37.0,-25.939939498901367,-13.000487327575684,5.981444835662842,-0.6993408203125,0.327880859375,-0.066162109375
7.666,308,314,373,310,-15.0,42.0,37.0,-33.63037109375,-18.1884765625,4.39453125,-0.6993408203125,0.327880859375,-0.066162109375
7.674,308,314,374,310,-15.0,42.0,37.0,-31.921384811401367,-18.6767578125,6.347655773162842,-0.714111328125,0.26953125,-0.0093994140625
7.688,308,315,377,310,-15.0,42.0,37.0,-25.024412155151367,-16.2353515625,10.559081077575684,-0.6920166015625,0.1939697265625,0.0528564453125
7.712,310,322,379,310,-15.0,42.0,37.0,-15.686034202575684,-12.084959983825684,15.624999046325684,-0.6920166015625,0.1939697265625,0.0528564453125
7.713,310,325,379,309,-15.0,42.0,37.0,-6.042479991912842,-6.103515148162842,21.972654342651367,-0.6654052734375,0.1890869140625,0.0423583984375
7.718,310,337,379,309,-15.0,42.0,37.0,2.38037109375,6.225585460662842,38.39111328125,-0.6199951171875,0.2310791015625,0.0020751953125
7.726,310,340,369,310,-15.0,42.0,37.0,2.38037109375,6.225585460662842,38.39111328125,-0.5147705078125,0.2371826171875,0.035400390625
7.747,308,384,364,309,-15.0,42.0,37.0,-4.39453125,7.995604991912842,45.043941497802734,-0.5147705078125,0.2371826171875,0.035400390625
7.755,309,433,352,310,-16.0,42.0,43.0,-43.640132904052734,0.6103515625,43.212886810302734,0.01123046875,0.3599853515625,0.1666259765625
7.760,310,472,396,311,-16.0,42.0,43.0,-43.640132904052734,0.6103515625,43.212886810302734,0.371337890625,0.5023193359375,0.330810546875
7.792,310,508,549,312,-16.0,42.0,43.0,-50.781246185302734,-4.0283203125,32.2265625,0.371337890625,0.5023193359375,0.330810546875
7.792,310,593,938,312,-16.0,42.0,43.0,75.74462890625,-38.57421875,-30.151365280151367,0.75390625,0.2215576171875,0.8531494140625
7.793,310,654,1134,314,-16.0,42.0,43.0,75.74462890625,-38.57421875,-30.151365280151367,0.2303466796875,0.29638671875,0.080322265625
7.804,311,705,1160,313,-16.0,42.0,43.0,144.775390625,-50.964351654052734,-64.75830078125,0.2303466796875,0.29638671875,0.080322265625
7.822,311,781,1206,313,-16.0,42.0,43.0,80.62743377685547,-0.30517578125,-69.51904296875,-2.0382080078125,0.91455078125,-2.73291015625
7.822,311,823,1380,314,-16.0,42.0,43.0,80.62743377685547,-0.30517578125,-69.51904296875,-2.91357421875,0.852783203125,-2.5577392578125
7.824,312,864,1521,314,-16.0,42.0,43.0,19.95849609375,11.718749046325684,-60.913082122802734,-2.91357421875,0.852783203125,-2.5577392578125
7.839,312,907,1624,315,-15.0,37.0,42.0,-151.9775390625,-98.87694549560547,-35.2783203125,-2.53515625,0.052001953125,0.05810546875
7.846,311,875,1608,314,-15.0,37.0,42.0,-151.9775390625,-98.87694549560547,-35.2783203125,-2.277099609375,-0.1768798828125,0.6651611328125
7.856,312,858,1572,315,-15.0,37.0,42.0,-169.55564880371094,-110.53466033935547,-6.774901866912842,-1.822021484375,-0.2705078125,0.8111572265625
7.868,311,832,1486,314,-15.0,37.0,42.0,-31.005857467651367,-39.00146484375,28.381345748901367,-1.024658203125,-0.0042724609375,0.72705078125
7.876,310,830,1487,314,-15.0,37.0,42.0,36.376953125,-13.183592796325684,22.338865280151367,-0.6849365234375,0.7239990234375,0.25732421875
7.891,312,818,1499,314,-15.0,37.0,42.0,36.376953125,-13.183592796325684,22.338865280151367,-1.1026611328125,1.3258056640625,-0.4111328125
7.928,312,785,1452,314,-15.0,37.0,42.0,48.156734466552734,21.057126998901367,-0.6713866591453552,-1.7374267578125,1.3194580078125,-0.8302001953125
7.931,311,762,1415,314,-15.0,37.0,42.0,3.295898199081421,19.83642578125,-5.920409679412842,-2.003173828125,0.8990478515625,-0.8096923828125
7.931,298,725,1336,315,-15.0,37.0,42.0,3.295898199081421,19.83642578125,-5.920409679412842,-1.866943359375,0.52197265625,-0.553955078125
7.931,310,657,1162,314,-15.0,37.0,42.0,-65.673828125,25.878904342651367,16.54052734375,-1.5885009765625,0.2822265625,-0.24169921875
7.936,311,620,1050,315,-15.0,41.0,41.0,-70.98388671875,50.842281341552734,39.24560546875,-1.3560791015625,0.1895751953125,0.0010986328125
7.944,311,593,959,314,-15.0,41.0,41.0,-70.98388671875,50.842281341552734,39.24560546875,-1.1412353515625,0.224365234375,0.1212158203125
7.959,311,532,808,314,-15.0,41.0,41.0,-32.65380859375,94.97069549560547,58.715816497802734,-0.8961181640625,0.2154541015625,0.202392578125
7.966,310,477,689,313,-15.0,41.0,41.0,-9.27734375,86.18163299560547,33.447265625,-0.6009521484375,0.0537109375,0.2713623046875
7.974,310,449,603,314,-15.0,41.0,41.0,-9.27734375,86.18163299560547,33.447265625,-0.29833984375,-0.168212890625,0.318603515625
7.991,308,419,536,312,-15.0,41.0,41.0,27.770994186401367,32.04345703125,-31.066892623901367,-0.145263671875,-0.2713623046875,0.333984375
7.996,310,393,543,312,-15.0,41.0,41.0,36.19384765625,4.94384765625,-43.701168060302734,-0.2552490234375,-0.2020263671875,0.2802734375
8.009,310,369,508,312,-15.0,41.0,41.0,61.889644622802734,-7.873534679412842,-40.527339935302734,-0.3699951171875,-0.001953125,0.054443359375
8.027,310,338,439,312,-15.0,41.0,41.0,107.42186737060547,2.624511480331421,-27.099607467651367,-0.3038330078125,0.3406982421875,-0.36279296875
8.027,310,328,430,311,-15.0,41.0,41.0,133.30078125,27.893064498901367,-10.437010765075684,-0.2869873046875,0.6817626953125,-0.7503662109375
8.041,310,322,425,309,-16.0,42.0,36.0,120.97167205810547,45.959468841552734,5.920409679412842,-0.5006103515625,0.8223876953125,-0.9351806640625
8.048,308,322,423,310,-16.0,42.0,36.0,87.34130096435547,42.602535247802734,18.6767578125,-0.7755126953125,0.8017578125,-0.9193115234375
8.057,309,322,409,309,-16.0,42.0,36.0,44.250484466552734,20.263669967651367,21.362302780151367,-0.8443603515625,0.7142333984375,-0.7215576171875
8.064,310,321,399,310,-16.0,42.0,36.0,2.624511480331421,-4.69970703125,12.268065452575684,-0.78857421875,0.5750732421875,-0.4415283203125
8.079,309,323,386,310,-16.0,42.0,36.0,-25.268552780151367,-18.4326171875,-0.30517578125,-0.72216796875,0.4119873046875,-0.219482421875
8.086,311,323,391,310,-16.0,42.0,36.0,-40.893550872802734,-19.775390625,-6.958007335662842,-0.643310546875,0.275634765625,-0.0948486328125
8.094,310,324,395,310,-16.0,42.0,36.0,-51.391597747802734,-13.610838890075684,-4.21142578125,-0.604248046875,0.208740234375,-0.017578125
8.112,309,327,399,311,-16.0,42.0,36.0,-59.082027435302734,-6.774901866912842,4.8828125,-0.6287841796875,0.204833984375,0.0596923828125
8.121,310,326,391,310,-16.0,42.0,36.0,-61.889644622802734,-2.563476324081421,14.648436546325684,-0.6751708984375,0.2037353515625,0.1126708984375
8.124,309,328,381,309,-16.0,42.0,36.0,-56.030269622802734,0.7324218153953552,22.399900436401367,-0.6787109375,0.196044921875,0.109375
8.138,308,355,369,309,-15.0,43.0,39.0,-41.198726654052734,5.920409679412842,28.747556686401367,-0.64892578125,0.21337890625,0.0357666015625
8.146,310,382,363,310,-15.0,43.0,39.0,-25.817869186401367,12.207030296325684,35.0341796875,-0.6114501953125,0.2724609375,-0.0682373046875
8.154,310,406,364,312,-15.0,43.0,39.0,-21.728513717651367,15.502928733825684,40.344234466552734,-0.5067138671875,0.35693359375,-0.1158447265625
8.168,309,456,476,312,-15.0,43.0,39.0,-33.0810546875,13.977049827575684,41.076656341552734,-0.28515625,0.4443359375,-0.09375
8.176,310,496,631,312,-15.0,43.0,39.0,-49.865718841552734,12.207030296325684,34.24072265625,0.1173095703125,0.510986328125,0.064208984375
8.184,310,537,770,312,-15.0,43.0,39.0,-54.077144622802734,6.469726085662842,14.404295921325684,0.6512451171875,0.4378662109375,0.4259033203125
8.198,311,607,1094,312,-15.0,43.0,39.0,-38.51318359375,-19.10400390625,-22.766111373901367,0.8455810546875,0.1646728515625,0.6165771484375
8.225,310,673,1258,314,-15.0,43.0,39.0,-8.7890625,-54.504390716552734,-58.471675872802734,0.5384521484375,0.1212158203125,0.3804931640625
8.225,312,742,1333,314,-15.0,43.0,39.0,26.977537155151367,-71.59423828125,-75.74462890625,-0.2156982421875,0.5323486328125,-0.123046875
8.228,312,835,1428,315,-15.0,43.0,39.0,67.93212890625,-53.833003997802734,-80.26123046875,-1.513916015625,0.9478759765625,-1.2314453125
8.241,311,877,1565,315,-13.0,43.0,42.0,101.19628143310547,-7.263183116912842,-75.98876953125,-2.8421630859375,1.17578125,-2.40869140625
8.244,312,917,1640,315,-13.0,43.0,42.0,55.786128997802734,8.11767578125,-68.54248046875,-3.2391357421875,1.0159912109375,-2.0811767578125
8.265,311,912,1653,314,-13.0,43.0,42.0,-78.125,-21.423337936401367,-63.659664154052734,-2.9832763671875,0.269775390625,-0.6080322265625
8.266,311,900,1625,315,-13.0,43.0,42.0,-171.50877380371094,-35.82763671875,-48.217769622802734,-2.6168212890625,-0.637939453125,0.55322265625
8.274,312,873,1572,315,-13.0,43.0,42.0,-142.76123046875,-26.184080123901367,-16.357421875,-1.8736572265625,-1.065185546875,1.0450439453125
8.288,312,846,1477,315,-13.0,43.0,42.0,-39.97802734375,-17.9443359375,16.357421875,-1.1290283203125,-0.5001220703125,0.8653564453125
8.302,312,837,1492,315,-13.0,43.0,42.0,50.354000091552734,-16.90673828125,38.57421875,-0.7130126953125,0.666748046875,0.1611328125
8.304,312,824,1498,315,-13.0,43.0,42.0,89.59960174560547,-12.573241233825684,41.503902435302734,-0.8516845703125,1.5875244140625,-0.658447265625
8.326,311,784,1422,314,-13.0,43.0,42.0,78.4912109375,1.8920897245407104,24.169919967651367,-1.429931640625,1.8148193359375,-1.2113037109375
8.326,312,726,1338,315,-13.0,43.0,42.0,26.184080123901367,13.916014671325684,0.54931640625,-1.746826171875,1.311767578125,-1.2371826171875
8.334,312,705,1295,315,-14.0,43.0,40.0,-30.822751998901367,18.6767578125,-12.084959983825684,-1.71337890625,0.5654296875,-0.833984375
8.348,309,622,1149,314,-14.0,43.0,40.0,-59.265132904052734,22.644041061401367,-5.737304210662842,-1.4200439453125,-0.041015625,0.024169921875
8.356,311,587,1056,314,-14.0,43.0,40.0,-54.504390716552734,27.099607467651367,15.014647483825684,-1.4200439453125,-0.041015625,0.024169921875
8.365,310,558,986,314,-14.0,43.0,40.0,-30.456541061401367,32.3486328125,37.59765625,-1.2041015625,0.004150390625,0.1744384765625
8.378,311,493,840,310,-14.0,43.0,40.0,-6.408690929412842,37.59765625,47.790523529052734,-0.64501953125,-0.031494140625,0.2884521484375
8.386,311,456,740,314,-14.0,43.0,40.0,11.352538108825684,42.419429779052734,42.053218841552734,-0.64501953125,-0.031494140625,0.2884521484375
8.401,312,430,666,310,-14.0,43.0,40.0,22.216794967651367,42.724605560302734,26.428220748901367,-0.353515625,-0.0701904296875,0.306396484375
8.408,312,391,585,312,-14.0,43.0,40.0,20.385740280151367,31.738279342651367,6.652831554412842,-0.2196044921875,-0.0560302734375,0.270263671875
8.431,310,371,566,312,-14.0,43.0,40.0,14.831542015075684,13.427733421325684,-13.732909202575684,-0.2196044921875,-0.0560302734375,0.270263671875
8.432,310,340,543,310,-14.0,43.0,40.0,25.085447311401367,0.4272460639476776,-29.113767623901367,-0.3482666015625,0.1207275390625,-0.0194091796875
8.438,310,345,490,312,-15.0,40.0,44.0,45.898433685302734,-3.723144292831421,-31.494138717651367,-0.5072021484375,0.6282958984375,-0.527587890625
8.454,311,329,456,310,-15.0,40.0,44.0,60.424800872802734,-1.03759765625,-19.53125,-0.5072021484375,0.6282958984375,-0.527587890625
8.454,310,329,434,298,-15.0,40.0,44.0,65.00244140625,9.09423828125,0.1220703050494194,-0.5269775390625,0.7808837890625,-0.6510009765625
8.470,309,325,401,309,-15.0,40.0,44.0,58.532711029052734,20.996091842651367,16.05224609375,-0.71337890625,0.6602783203125,-0.5118408203125
8.476,310,325,388,310,-15.0,40.0,44.0,41.687007904052734,25.146482467651367,19.71435546875,-0.7200927734375,0.4952392578125,-0.33349609375
8.484,310,326,382,310,-15.0,40.0,44.0,20.568845748901367,20.01953125,13.793944358825684,-0.7200927734375,0.4952392578125,-0.33349609375
8.507,309,326,377,309,-15.0,40.0,44.0,-11.352538108825684,4.7607421875,-1.7089842557907104,-0.698974609375,0.334716796875,-0.0958251953125
8.507,310,328,378,295,-15.0,40.0,44.0,-11.352538108825684,4.7607421875,-1.7089842557907104,-0.7371826171875,0.303955078125,-0.0672607421875
8.524,309,328,381,310,-15.0,40.0,44.0,-16.78466796875,2.685546636581421,-3.112792730331421,-0.7371826171875,0.303955078125,-0.0672607421875
8.529,310,331,380,310,-15.0,40.0,44.0,-9.6435546875,5.676269054412842,4.8828125,-0.791259765625,0.25830078125,-0.0853271484375
8.536,310,329,381,308,-16.0,43.0,40.0,-9.6435546875,5.676269054412842,4.8828125,-0.790771484375,0.2657470703125,-0.1182861328125
8.544,310,336,380,310,-16.0,43.0,40.0,-4.21142578125,8.11767578125,12.145995140075684,-0.790771484375,0.2657470703125,-0.1182861328125
8.560,309,343,371,310,-16.0,43.0,40.0,0.9155272841453552,13.916014671325684,26.000974655151367,-0.741455078125,0.310302734375,-0.1973876953125
8.566,310,352,367,310,-16.0,43.0,40.0,0.9155272841453552,13.916014671325684,26.000974655151367,-0.7012939453125,0.3070068359375,-0.21337890625
8.574,310,363,364,310,-16.0,43.0,40.0,-1.03759765625,17.02880859375,31.494138717651367,-0.7012939453125,0.3070068359375,-0.21337890625
8.588,310,399,363,310,-16.0,43.0,40.0,-19.47021484375,17.2119140625,38.9404296875,-0.5194091796875,0.3209228515625,-0.1060791015625
8.596,310,420,372,309,-16.0,43.0,40.0,-19.47021484375,17.2119140625,38.9404296875,-0.2850341796875,0.33251953125,0.04833984375
8.633,312,454,414,312,-16.0,43.0,40.0,-31.188962936401367,13.793944358825684,37.90283203125,-0.2850341796875,0.33251953125,0.04833984375
8.634,310,522,604,312,-16.0,43.0,40.0,-8.6669921875,-11.169432640075684,12.207030296325684,0.4345703125,0.2691650390625,0.5760498046875
8.636,310,557,784,313,-16.0,43.0,40.0,31.677244186401367,-38.87939453125,-15.624999046325684,0.5296630859375,0.3780517578125,0.3934326171875
8.636,311,614,982,312,-15.0,42.0,39.0,31.677244186401367,-38.87939453125,-15.624999046325684,0.2960205078125,0.6009521484375,0.005126953125
8.648,311,708,1078,314,-15.0,42.0,39.0,16.7236328125,-71.71630859375,-64.14794921875,-0.2586669921875,0.83935546875,-0.6707763671875
