time,compression0,compression1,compression2,compression3,magn_x,magn_y,magn_z,gyro_x,gyro_y,gyro_z,accel_x,accel_y,accel_z
0.012,308,433,414,310,-9.0,46.0,33.0,12.268065452575684,-8.6669921875,-5.187987804412842,-0.8377685546875,0.468994140625,-0.2752685546875
0.013,294,433,414,310,-9.0,46.0,33.0,12.512206077575684,-8.7890625,-5.920409679412842,-0.8353271484375,0.462646484375,-0.2767333984375
0.018,310,433,419,310,-9.0,46.0,33.0,12.268065452575684,-9.09423828125,-6.469726085662842,-0.834228515625,0.4544677734375,-0.274658203125
0.026,309,433,420,310,-8.0,45.0,32.0,11.413573265075684,-9.3994140625,-6.652831554412842,-0.8355712890625,0.44580078125,-0.2701416015625
0.034,310,435,421,308,-8.0,45.0,32.0,10.192870140075684,-9.521484375,-6.591796398162842,-0.8387451171875,0.4400634765625,-0.264892578125
0.048,308,435,424,310,-8.0,45.0,32.0,8.9111328125,-9.27734375,-6.347655773162842,-0.84326171875,0.4373779296875,-0.2625732421875
0.117,310,435,425,310,-8.0,45.0,32.0,7.507323741912842,-8.7890625,-5.920409679412842,-0.8475341796875,0.437255859375,-0.26220703125
0.117,310,434,426,309,-8.0,45.0,32.0,5.981444835662842,-8.4228515625,-5.493163585662842,-0.849609375,0.4383544921875,-0.260498046875
0.117,308,435,428,310,-8.0,45.0,32.0,5.126952648162842,-8.056640625,-5.065917491912842,-0.852294921875,0.439453125,-0.258544921875
0.117,309,436,428,309,-8.0,45.0,32.0,5.371093273162842,-7.812499523162842,-4.7607421875,-0.852294921875,0.439453125,-0.258544921875
0.117,308,437,430,310,-8.0,45.0,32.0,6.408690929412842,-7.568358898162842,-4.39453125,-0.8526611328125,0.4361572265625,-0.259765625
0.118,309,437,428,310,-8.0,45.0,32.0,7.690429210662842,-7.446288585662842,-3.967284917831421,-0.8487548828125,0.43017578125,-0.257080078125
0.118,310,420,415,310,-8.0,45.0,32.0,8.7890625,-7.446288585662842,-3.601073980331421,-0.8487548828125,0.43017578125,-0.257080078125
0.124,309,437,428,309,-12.0,46.0,32.0,9.58251953125,-7.385253429412842,-3.234863042831421,-0.8472900390625,0.4298095703125,-0.253662109375
0.138,310,437,430,309,-12.0,46.0,32.0,9.82666015625,-7.202147960662842,-2.929687261581421,-0.8482666015625,0.4368896484375,-0.2530517578125
0.146,308,437,433,310,-12.0,46.0,32.0,9.33837890625,-6.835937023162842,-2.807616949081421,-0.8482666015625,0.4368896484375,-0.2530517578125
0.162,310,437,433,310,-12.0,46.0,32.0,8.11767578125,-6.469726085662842,-2.868652105331421,-0.849853515625,0.438720703125,-0.2591552734375
0.168,309,437,433,310,-12.0,46.0,32.0,6.530761241912842,-6.103515148162842,-2.929687261581421,-0.8525390625,0.4368896484375,-0.26513671875
0.176,310,437,435,309,-12.0,46.0,32.0,4.7607421875,-5.798339366912842,-2.929687261581421,-0.8525390625,0.4368896484375,-0.26513671875
0.188,310,438,435,309,-12.0,46.0,32.0,3.295898199081421,-5.493163585662842,-2.807616949081421,-0.8546142578125,0.4378662109375,-0.2642822265625
0.220,308,437,437,309,-12.0,46.0,32.0,2.38037109375,-5.432128429412842,-2.746581792831421,-0.8543701171875,0.44189453125,-0.262451171875
0.220,310,437,437,310,-12.0,46.0,32.0,2.0751953125,-5.554198741912842,-2.807616949081421,-0.8526611328125,0.4385986328125,-0.2586669921875
0.220,310,438,437,310,-12.0,46.0,32.0,2.38037109375,-5.737304210662842,-3.173827886581421,-0.8526611328125,0.4385986328125,-0.2586669921875
0.228,310,438,437,310,-9.0,46.0,33.0,4.21142578125,-6.103515148162842,-3.417968511581421,-0.855224609375,0.4273681640625,-0.2486572265625
0.236,308,437,438,310,-9.0,46.0,33.0,4.21142578125,-6.103515148162842,-3.417968511581421,-0.857177734375,0.42333984375,-0.2486572265625
0.244,310,438,439,310,-9.0,46.0,33.0,5.310058116912842,-6.164550304412842,-3.112792730331421,-0.857177734375,0.42333984375,-0.2486572265625
0.258,310,438,438,310,-9.0,46.0,33.0,6.774901866912842,-5.981444835662842,-2.01416015625,-0.8564453125,0.4189453125,-0.2559814453125
0.269,310,438,439,310,-9.0,46.0,33.0,6.774901866912842,-5.981444835662842,-2.01416015625,-0.8543701171875,0.421630859375,-0.258056640625
0.274,310,438,439,310,-9.0,46.0,33.0,6.469726085662842,-5.798339366912842,-1.4038084745407104,-0.8543701171875,0.421630859375,-0.258056640625
0.291,310,438,439,309,-9.0,46.0,33.0,4.5166015625,-5.981444835662842,-1.0986328125,-0.8526611328125,0.432861328125,-0.2562255859375
0.296,310,438,439,310,-9.0,46.0,33.0,4.5166015625,-5.981444835662842,-1.0986328125,-0.85546875,0.4378662109375,-0.2557373046875
0.327,310,439,439,309,-9.0,46.0,33.0,3.356933355331421,-6.225585460662842,-1.4038084745407104,-0.85546875,0.4378662109375,-0.2557373046875
0.327,310,438,444,310,-6.0,44.0,39.0,3.051757574081421,-6.713866710662842,-2.563476324081421,-0.865478515625,0.4393310546875,-0.25732421875
0.328,296,439,442,309,-6.0,44.0,39.0,3.723144292831421,-6.896972179412842,-3.051757574081421,-0.8687744140625,0.436279296875,-0.2596435546875
0.335,308,439,441,310,-6.0,44.0,39.0,3.723144292831421,-6.896972179412842,-3.051757574081421,-0.8677978515625,0.43408203125,-0.2637939453125
0.343,308,438,441,310,-6.0,44.0,39.0,3.845214605331421,-7.385253429412842,-3.356933355331421,-0.8677978515625,0.43408203125,-0.2637939453125
0.357,308,437,441,309,-6.0,44.0,39.0,1.7089842557907104,-8.85009765625,-3.845214605331421,-0.8612060546875,0.4156494140625,-0.2264404296875
0.365,310,437,442,310,-6.0,44.0,39.0,1.7089842557907104,-8.85009765625,-3.845214605331421,-0.8587646484375,0.41748046875,-0.2266845703125
0.373,309,437,444,310,-6.0,44.0,39.0,2.50244140625,-7.629394054412842,-3.479003667831421,-0.8587646484375,0.41748046875,-0.2266845703125
0.394,308,438,444,310,-6.0,44.0,39.0,3.662109136581421,-4.94384765625,-2.868652105331421,-0.8592529296875,0.4249267578125,-0.24462890625
0.395,310,437,444,310,-6.0,44.0,39.0,3.662109136581421,-4.94384765625,-2.868652105331421,-0.8602294921875,0.4293212890625,-0.251708984375
0.422,310,437,447,311,-6.0,44.0,39.0,3.112792730331421,-4.57763671875,-2.929687261581421,-0.8602294921875,0.4293212890625,-0.251708984375
0.422,309,438,449,310,-10.0,46.0,32.0,1.03759765625,-4.7607421875,-3.417968511581421,-0.8653564453125,0.4287109375,-0.25146484375
0.431,310,437,450,309,-10.0,46.0,32.0,1.03759765625,-4.7607421875,-3.417968511581421,-0.865478515625,0.4228515625,-0.2451171875
0.433,310,437,452,310,-10.0,46.0,32.0,0.30517578125,-5.0048828125,-3.662109136581421,-0.865478515625,0.416748046875,-0.2396240234375
0.447,310,437,452,310,-10.0,46.0,32.0,-0.0610351525247097,-5.126952648162842,-3.601073980331421,-0.8663330078125,0.4136962890625,-0.236572265625
0.455,309,437,452,310,-10.0,46.0,32.0,-0.1220703050494194,-5.0048828125,-3.356933355331421,-0.8675537109375,0.413330078125,-0.234619140625
0.463,310,437,453,310,-10.0,46.0,32.0,-0.1220703050494194,-5.0048828125,-3.356933355331421,-0.867919921875,0.416259765625,-0.234619140625
0.477,310,437,452,310,-10.0,46.0,32.0,0.0,-4.638671875,-3.051757574081421,-0.8665771484375,0.4224853515625,-0.238525390625
0.485,309,437,451,310,-10.0,46.0,32.0,0.0610351525247097,-4.69970703125,-3.173827886581421,-0.865234375,0.4271240234375,-0.244140625
0.501,309,436,452,310,-10.0,46.0,32.0,0.0610351525247097,-4.69970703125,-3.173827886581421,-0.8656005859375,0.4261474609375,-0.2474365234375
0.527,308,437,452,310,-10.0,46.0,32.0,-0.0610351525247097,-5.371093273162842,-3.906249761581421,-0.8662109375,0.4229736328125,-0.24609375
0.527,308,423,437,310,-10.0,46.0,32.0,-0.1220703050494194,-5.859374523162842,-4.2724609375,-0.86669921875,0.421630859375,-0.2423095703125
0.527,309,437,454,310,-6.0,45.0,41.0,-0.1220703050494194,-5.859374523162842,-4.2724609375,-0.8680419921875,0.423583984375,-0.2427978515625
0.537,310,437,465,310,-6.0,45.0,41.0,-0.7324218153953552,-7.019042491912842,-5.249022960662842,-0.8685302734375,0.427490234375,-0.2481689453125
0.545,310,437,472,310,-6.0,45.0,41.0,-2.13623046875,-7.629394054412842,-5.798339366912842,-0.866943359375,0.4298095703125,-0.250732421875
0.553,310,435,472,310,-6.0,45.0,41.0,-2.13623046875,-7.629394054412842,-5.798339366912842,-0.8651123046875,0.426513671875,-0.2454833984375
0.567,310,437,477,309,-6.0,45.0,41.0,-5.249022960662842,-9.09423828125,-6.896972179412842,-0.8646240234375,0.41943359375,-0.233642578125
0.575,310,437,481,309,-6.0,45.0,41.0,-5.737304210662842,-9.521484375,-7.141112804412842,-0.8638916015625,0.4134521484375,-0.2218017578125
0.583,310,437,484,310,-6.0,45.0,41.0,-5.737304210662842,-9.521484375,-7.141112804412842,-0.863037109375,0.4105224609375,-0.2177734375
0.598,310,437,488,310,-6.0,45.0,41.0,-5.0048828125,-9.6435546875,-7.324218273162842,-0.8656005859375,0.411376953125,-0.2210693359375
0.625,310,437,494,310,-6.0,45.0,41.0,-4.8828125,-9.82666015625,-7.629394054412842,-0.8704833984375,0.4136962890625,-0.226318359375
0.625,292,423,498,309,-6.0,45.0,41.0,-4.82177734375,-10.192870140075684,-8.056640625,-0.875732421875,0.41552734375,-0.230712890625
0.627,310,438,509,308,-9.0,43.0,40.0,-4.7607421875,-10.620116233825684,-8.36181640625,-0.882080078125,0.414794921875,-0.2298583984375
0.635,309,438,516,310,-9.0,43.0,40.0,-4.69970703125,-10.803221702575684,-8.30078125,-0.88720703125,0.4114990234375,-0.2252197265625
0.643,310,437,518,310,-9.0,43.0,40.0,-4.45556640625,-10.681151390075684,-7.873534679412842,-0.89013671875,0.406005859375,-0.220947265625
0.657,309,437,525,309,-9.0,43.0,40.0,-4.150390625,-10.437010765075684,-7.324218273162842,-0.891845703125,0.3980712890625,-0.2135009765625
0.665,310,435,530,310,-9.0,43.0,40.0,-3.723144292831421,-10.437010765075684,-6.713866710662842,-0.8897705078125,0.3914794921875,-0.1986083984375
0.673,310,437,530,309,-9.0,43.0,40.0,-2.929687261581421,-10.742186546325684,-6.042479991912842,-0.8853759765625,0.389892578125,-0.182373046875
0.687,308,435,533,310,-9.0,43.0,40.0,-1.8310545682907104,-10.864256858825684,-5.554198741912842,-0.8848876953125,0.3896484375,-0.1717529296875
0.701,310,433,531,310,-9.0,43.0,40.0,0.1831054538488388,-10.681151390075684,-5.187987804412842,-0.8870849609375,0.3917236328125,-0.1737060546875
0.703,310,435,531,310,-9.0,43.0,40.0,2.868652105331421,-9.94873046875,-4.82177734375,-0.88720703125,0.3978271484375,-0.1898193359375
0.728,310,435,535,309,-9.0,44.0,37.0,4.94384765625,-9.033203125,-4.5166015625,-0.885009765625,0.4041748046875,-0.20751953125
0.728,296,435,538,310,-9.0,44.0,37.0,5.615233898162842,-8.544921875,-4.5166015625,-0.8817138671875,0.4095458984375,-0.218505859375
0.733,310,436,537,310,-9.0,44.0,37.0,5.249022960662842,-8.72802734375,-4.82177734375,-0.87939453125,0.41162109375,-0.219970703125
0.751,310,437,539,310,-9.0,44.0,37.0,4.2724609375,-9.70458984375,-5.432128429412842,-0.8797607421875,0.412109375,-0.2158203125
0.755,310,435,543,310,-9.0,44.0,37.0,3.295898199081421,-11.108397483825684,-6.225585460662842,-0.8763427734375,0.409423828125,-0.21142578125
0.766,308,436,545,310,-9.0,44.0,37.0,2.01416015625,-12.634276390075684,-7.385253429412842,-0.87548828125,0.404541015625,-0.2103271484375
0.778,309,438,545,310,-9.0,44.0,37.0,0.1220703050494194,-14.160155296325684,-8.544921875,-0.8795166015625,0.4010009765625,-0.20458984375
0.785,308,437,553,310,-9.0,44.0,37.0,-1.4038084745407104,-15.136717796325684,-9.1552734375,-0.8775634765625,0.3975830078125,-0.1910400390625
0.793,310,438,557,310,-9.0,44.0,37.0,-1.2817381620407104,-15.319823265075684,-9.21630859375,-0.8751220703125,0.3935546875,-0.18310546875
0.807,308,439,566,310,-9.0,44.0,37.0,-0.1831054538488388,-15.136717796325684,-9.09423828125,-0.8770751953125,0.389404296875,-0.1849365234375
0.834,310,439,572,309,-6.0,43.0,35.0,0.8544921278953552,-15.197752952575684,-8.9111328125,-0.8819580078125,0.3865966796875,-0.185302734375
0.834,298,441,578,309,-6.0,43.0,35.0,1.8310545682907104,-15.624999046325684,-8.60595703125,-0.8861083984375,0.3861083984375,-0.1771240234375
0.837,308,439,579,310,-6.0,43.0,35.0,3.417968511581421,-16.11328125,-8.1787109375,-0.8836669921875,0.3887939453125,-0.1676025390625
0.846,310,441,578,310,-6.0,43.0,35.0,5.615233898162842,-16.17431640625,-7.324218273162842,-0.8748779296875,0.385009765625,-0.1666259765625
0.860,310,444,582,310,-6.0,43.0,35.0,7.385253429412842,-16.11328125,-6.347655773162842,-0.8648681640625,0.3707275390625,-0.1741943359375
0.868,309,451,591,309,-6.0,43.0,35.0,7.324218273162842,-16.17431640625,-5.432128429412842,-0.8507080078125,0.355712890625,-0.1817626953125
0.875,308,452,594,310,-6.0,43.0,35.0,5.920409679412842,-16.29638671875,-4.39453125,-0.8326416015625,0.348388671875,-0.1788330078125
0.883,309,456,601,310,-6.0,43.0,35.0,3.601073980331421,-16.29638671875,-3.051757574081421,-0.815673828125,0.354736328125,-0.1595458984375
0.897,308,465,607,310,-6.0,43.0,35.0,0.9155272841453552,-16.05224609375,-1.9531248807907104,-0.8001708984375,0.37060546875,-0.130859375
0.905,309,465,617,310,-6.0,43.0,35.0,-1.7700194120407104,-15.319823265075684,-1.5869139432907104,-0.78173828125,0.3841552734375,-0.1068115234375
0.932,310,475,616,310,-7.0,43.0,35.0,-3.662109136581421,-14.099120140075684,-2.13623046875,-0.75244140625,0.380859375,-0.095458984375
0.933,299,481,622,310,-7.0,43.0,35.0,-4.8828125,-12.756346702575684,-2.868652105331421,-0.624755859375,0.318359375,-0.0682373046875
0.935,308,496,664,308,-7.0,43.0,35.0,-6.042479991912842,-11.230467796325684,-3.356933355331421,-0.624755859375,0.318359375,-0.0682373046875
0.944,310,508,676,310,-7.0,43.0,35.0,-6.835937023162842,-9.3994140625,-4.21142578125,-0.5574951171875,0.316162109375,-0.0230712890625
0.964,310,536,725,310,-7.0,43.0,35.0,-5.065917491912842,-6.896972179412842,-5.126952648162842,-0.550048828125,0.445068359375,0.025634765625
0.965,310,551,756,310,-7.0,43.0,35.0,-2.685546636581421,-6.042479991912842,-4.8828125,-0.550048828125,0.445068359375,0.025634765625
0.974,310,566,813,311,-7.0,43.0,35.0,-3.723144292831421,-10.131834983825684,-6.652831554412842,-0.4404296875,0.4149169921875,0.0941162109375
0.989,310,605,929,298,-7.0,43.0,35.0,-3.173827886581421,-16.66259765625,-12.451170921325684,-0.265869140625,0.09716796875,0.141357421875
0.995,310,644,1034,310,-7.0,43.0,35.0,8.9111328125,-20.141599655151367,-16.6015625,-0.265869140625,0.09716796875,0.141357421875
1.011,309,676,1094,310,-7.0,43.0,35.0,33.14208984375,-18.1884765625,-16.29638671875,-0.4056396484375,0.153564453125,-0.0001220703125
1.031,310,730,1219,312,-4.0,42.0,39.0,54.321285247802734,-12.329100608825684,-16.7236328125,-1.40771484375,0.53271484375,-0.76025390625
1.031,310,765,1300,312,-4.0,42.0,39.0,52.368160247802734,-6.103515148162842,-22.766111373901367,-1.40771484375,0.53271484375,-0.76025390625
1.034,312,794,1355,312,-4.0,42.0,39.0,18.37158203125,-8.11767578125,-28.198240280151367,-1.804931640625,0.50244140625,-0.8211669921875
1.047,310,830,1432,311,-4.0,42.0,39.0,-33.5693359375,-21.667478561401367,-24.902341842651367,-1.709228515625,0.1138916015625,-0.1353759765625
1.057,310,846,1456,312,-4.0,42.0,39.0,-71.77734375,-35.94970703125,-14.099120140075684,-1.5093994140625,0.1407470703125,0.0438232421875
1.069,310,859,1473,312,-4.0,42.0,39.0,-72.8759765625,-38.0859375,0.0,-1.5093994140625,0.1407470703125,0.0438232421875
1.077,310,846,1458,311,-4.0,42.0,39.0,-12.145995140075684,-17.15087890625,20.935056686401367,-1.332763671875,0.6865234375,-0.0865478515625
1.085,310,827,1430,312,-4.0,42.0,39.0,-12.145995140075684,-17.15087890625,20.935056686401367,-1.1522216796875,0.6553955078125,-0.0694580078125
1.093,311,811,1391,312,-4.0,42.0,39.0,7.446288585662842,-9.27734375,17.9443359375,-1.1522216796875,0.6553955078125,-0.0694580078125
1.111,311,771,1316,310,-4.0,42.0,39.0,31.982419967651367,6.652831554412842,-5.187987804412842,-0.943359375,0.413330078125,-0.1300048828125
1.115,310,771,1316,312,-5.0,43.0,41.0,31.982419967651367,6.652831554412842,-5.187987804412842,-1.0863037109375,0.4205322265625,-0.240478515625
1.133,310,770,1311,312,-5.0,43.0,41.0,33.935546875,10.437010765075684,-10.864256858825684,-1.0863037109375,0.4205322265625,-0.240478515625
1.137,309,749,1266,311,-5.0,43.0,41.0,12.023924827575684,-0.7934569716453552,-8.36181640625,-1.746826171875,0.8046875,-0.446533203125
1.145,311,721,1228,311,-5.0,43.0,41.0,12.023924827575684,-0.7934569716453552,-8.36181640625,-1.7939453125,0.764892578125,-0.361328125
1.153,310,698,1183,311,-5.0,43.0,41.0,-7.507323741912842,-12.023924827575684,-4.0283203125,-1.7939453125,0.764892578125,-0.361328125
1.179,310,657,1091,310,-5.0,43.0,41.0,-12.329100608825684,-17.333984375,1.5258787870407104,-1.271484375,0.3388671875,0.020263671875
1.180,310,621,1035,312,-5.0,43.0,41.0,-12.329100608825684,-17.333984375,1.5258787870407104,-0.98583984375,0.227783203125,0.1236572265625
1.184,310,594,987,312,-5.0,43.0,41.0,2.624511480331421,-13.000487327575684,4.638671875,-0.98583984375,0.227783203125,0.1236572265625
1.197,310,551,899,311,-5.0,43.0,41.0,39.48974609375,-0.30517578125,2.38037109375,-0.5626220703125,0.09912109375,0.1136474609375
1.205,311,527,837,311,-5.0,43.0,41.0,52.734371185302734,7.080077648162842,-2.50244140625,-0.4766845703125,0.0855712890625,0.0257568359375
1.213,309,508,794,311,-7.0,42.0,33.0,52.734371185302734,7.080077648162842,-2.50244140625,-0.4403076171875,-0.0205078125,-0.0931396484375
1.241,308,479,745,310,-7.0,42.0,33.0,66.650390625,25.146482467651367,-14.892577171325684,-0.4822998046875,-0.0804443359375,-0.2158203125
1.242,294,472,725,310,-7.0,42.0,33.0,66.650390625,30.090330123901367,-14.343260765075684,-0.57373046875,0.1024169921875,-0.2852783203125
1.244,308,452,716,310,-7.0,42.0,33.0,66.650390625,30.090330123901367,-14.343260765075684,-0.667724609375,0.4091796875,-0.3258056640625
1.257,310,438,716,310,-7.0,42.0,33.0,34.36279296875,14.831542015075684,-1.8920897245407104,-0.71826171875,0.58935546875,-0.3333740234375
1.265,310,437,721,310,-7.0,42.0,33.0,15.869139671325684,2.807616949081421,-3.906249761581421,-0.7275390625,0.5345458984375,-0.2823486328125
1.273,308,433,721,309,-7.0,42.0,33.0,15.869139671325684,2.807616949081421,-3.906249761581421,-0.7486572265625,0.3955078125,-0.2073974609375
1.288,309,426,718,310,-7.0,42.0,33.0,-1.4038084745407104,-12.634276390075684,-14.038084983825684,-0.7581787109375,0.3499755859375,-0.134765625
1.295,310,425,718,310,-7.0,42.0,33.0,-3.784179449081421,-15.075682640075684,-14.648436546325684,-0.743896484375,0.3604736328125,-0.0675048828125
1.303,310,426,722,311,-7.0,42.0,33.0,-3.784179449081421,-15.075682640075684,-14.648436546325684,-0.739501953125,0.3375244140625,-0.01806640625
1.317,310,430,723,310,-4.0,42.0,44.0,-5.920409679412842,-12.939452171325684,-9.70458984375,-0.7655029296875,0.320068359375,-0.00439453125
1.343,310,434,728,311,-4.0,42.0,44.0,-4.94384765625,-10.314940452575684,-5.615233898162842,-0.813720703125,0.3468017578125,-0.0133056640625
1.343,310,437,713,310,-4.0,42.0,44.0,-4.94384765625,-10.314940452575684,-5.615233898162842,-0.84765625,0.372314453125,-0.006591796875
1.347,310,444,739,310,-4.0,42.0,44.0,-0.9155272841453552,-6.774901866912842,-0.2441406100988388,-0.849853515625,0.34033203125,0.00439453125
1.355,308,451,739,311,-4.0,42.0,44.0,1.8310545682907104,-3.601073980331421,1.5869139432907104,-0.840576171875,0.2613525390625,-0.021728515625
1.363,308,454,739,310,-4.0,42.0,44.0,5.065917491912842,1.220703125,5.187987804412842,-0.8348388671875,0.2064208984375,-0.0723876953125
1.377,310,473,741,310,-4.0,42.0,44.0,6.652831554412842,4.7607421875,10.986327171325684,-0.822265625,0.2176513671875,-0.1151123046875
1.412,310,480,741,310,-4.0,42.0,44.0,6.286620616912842,5.371093273162842,17.27294921875,-0.8076171875,0.2744140625,-0.1505126953125
1.412,310,488,750,310,-4.0,42.0,44.0,5.126952648162842,3.540038824081421,21.606443405151367,-0.7984619140625,0.3358154296875,-0.1810302734375
1.413,310,506,758,311,-4.0,42.0,44.0,3.479003667831421,0.54931640625,22.827146530151367,-0.7774658203125,0.3570556640625,-0.1915283203125
1.417,310,519,770,310,-7.0,42.0,39.0,0.9155272841453552,-2.38037109375,21.545408248901367,-0.73828125,0.31884765625,-0.17529296875
1.423,311,535,780,310,-7.0,42.0,39.0,-2.563476324081421,-4.2724609375,20.324705123901367,-0.6982421875,0.267822265625,-0.141845703125
1.445,310,556,822,310,-7.0,42.0,39.0,-6.469726085662842,-5.371093273162842,21.240232467651367,-0.6575927734375,0.2659912109375,-0.0902099609375
1.448,310,574,861,310,-7.0,42.0,39.0,-10.070799827575684,-6.530761241912842,23.254392623901367,-0.5914306640625,0.3177490234375,-0.0223388671875
1.454,312,594,927,310,-7.0,42.0,39.0,-13.122557640075684,-8.6669921875,22.888181686401367,-0.4832763671875,0.3485107421875,0.04931640625
1.468,310,644,1048,312,-7.0,42.0,39.0,-15.258788108825684,-12.329100608825684,17.7001953125,-0.3072509765625,0.2913818359375,0.1240234375
1.476,310,696,1118,312,-7.0,42.0,39.0,-12.756346702575684,-15.624999046325684,8.7890625,-0.0467529296875,0.179443359375,0.2303466796875
1.484,310,751,1185,311,-7.0,42.0,39.0,-0.7934569716453552,-16.17431640625,-1.8920897245407104,0.1455078125,0.1268310546875,0.3270263671875
1.498,310,832,1313,312,-7.0,42.0,39.0,22.888181686401367,-11.596678733825684,-13.244627952575684,-0.045166015625,0.212158203125,0.1536865234375
1.508,310,875,1407,311,-7.0,42.0,39.0,47.912593841552734,-1.8920897245407104,-24.475095748901367,-0.663818359375,0.3385009765625,-0.3341064453125
1.521,310,916,1474,312,-7.0,43.0,39.0,53.344722747802734,6.469726085662842,-34.912109375,-1.381591796875,0.4775390625,-0.7528076171875
1.542,311,973,1541,312,-7.0,43.0,39.0,28.869626998901367,6.225585460662842,-42.419429779052734,-1.938720703125,0.621826171875,-0.8455810546875
1.543,309,998,1569,312,-7.0,43.0,39.0,-19.34814453125,-4.69970703125,-43.457027435302734,-2.235595703125,0.5989990234375,-0.63916015625
1.547,311,1009,1573,312,-7.0,43.0,39.0,-66.5283203125,-18.12744140625,-34.48486328125,-2.35400390625,0.48388671875,-0.3817138671875
1.558,310,982,1533,311,-7.0,43.0,39.0,-86.60887908935547,-24.047849655151367,-14.709471702575684,-2.3057861328125,0.4122314453125,-0.181640625
1.566,310,963,1506,312,-7.0,43.0,39.0,-71.96044921875,-22.033689498901367,8.72802734375,-1.723876953125,0.142333984375,0.185791015625
1.574,310,933,1462,312,-7.0,43.0,39.0,-23.132322311401367,-9.8876953125,25.390623092651367,-0.9637451171875,0.02978515625,0.359375
1.589,310,927,1464,312,-7.0,43.0,39.0,31.433103561401367,8.48388671875,31.982419967651367,-0.9913330078125,0.96533203125,-0.5120849609375
1.601,310,920,1462,312,-7.0,43.0,39.0,49.865718841552734,17.15087890625,25.329587936401367,-0.9913330078125,0.96533203125,-0.5120849609375
1.604,310,912,1449,312,-7.0,43.0,39.0,28.930662155151367,9.1552734375,5.737304210662842,-1.4669189453125,1.1158447265625,-0.72998046875
1.629,310,875,1398,312,-6.0,40.0,43.0,-7.263183116912842,-9.1552734375,-15.380858421325684,-1.8321533203125,0.57470703125,-0.2763671875
1.631,311,848,1349,312,-6.0,40.0,43.0,-33.63037109375,-25.817869186401367,-24.902341842651367,-1.8321533203125,0.57470703125,-0.2763671875
1.649,311,816,1294,312,-6.0,40.0,43.0,-40.649410247802734,-32.65380859375,-19.71435546875,-1.713134765625,0.392333984375,-0.0311279296875
1.649,297,751,1185,313,-6.0,40.0,43.0,-33.69140625,-28.991697311401367,-6.530761241912842,-1.322998046875,0.362060546875,0.12158203125
1.656,310,703,1122,310,-6.0,40.0,43.0,-18.98193359375,-18.798828125,6.469726085662842,-1.322998046875,0.362060546875,0.12158203125
1.664,310,662,1042,312,-6.0,40.0,43.0,-1.7700194120407104,-6.530761241912842,13.732909202575684,-1.0821533203125,0.337158203125,0.133056640625
1.678,310,590,922,311,-6.0,40.0,43.0,13.977049827575684,3.906249761581421,13.671874046325684,-0.5263671875,-0.046875,0.15673828125
1.688,310,547,848,311,-6.0,40.0,43.0,28.808591842651367,11.962889671325684,8.544921875,-0.5263671875,-0.046875,0.15673828125
1.694,310,508,799,312,-6.0,40.0,43.0,45.288082122802734,20.935056686401367,2.38037109375,-0.3201904296875,-0.173828125,0.0904541015625
1.708,311,451,725,310,-9.0,41.0,44.0,61.645503997802734,31.188962936401367,-2.929687261581421,-0.3004150390625,-0.2149658203125,-0.1678466796875
1.717,310,439,718,310,-9.0,41.0,44.0,74.03564453125,40.344234466552734,-7.507323741912842,-0.3004150390625,-0.2149658203125,-0.1678466796875
1.753,309,428,711,310,-9.0,41.0,44.0,77.08740234375,44.738765716552734,-6.713866710662842,-0.448486328125,0.0013427734375,-0.2528076171875
1.760,308,413,702,310,-9.0,41.0,44.0,45.410152435302734,25.939939498901367,5.126952648162842,-0.6680908203125,0.6307373046875,-0.3682861328125
1.768,309,407,703,311,-9.0,41.0,44.0,45.410152435302734,25.939939498901367,5.126952648162842,-0.653076171875,0.6785888671875,-0.3424072265625
1.769,309,409,704,298,-9.0,41.0,44.0,23.132322311401367,9.46044921875,3.479003667831421,-0.653076171875,0.6785888671875,-0.3424072265625
1.770,310,408,710,310,-9.0,41.0,44.0,6.347655773162842,-3.112792730331421,-1.2817381620407104,-0.635986328125,0.5806884765625,-0.275390625
1.777,309,414,715,309,-9.0,41.0,44.0,-4.0283203125,-10.925292015075684,-5.798339366912842,-0.6800537109375,0.37109375,-0.1031494140625
1.785,310,423,724,310,-9.0,41.0,44.0,-11.108397483825684,-16.54052734375,-9.21630859375,-0.6800537109375,0.37109375,-0.1031494140625
1.794,310,433,725,310,-9.0,41.0,44.0,-16.7236328125,-20.080564498901367,-11.413573265075684,-0.706787109375,0.3280029296875,-0.0191650390625
1.807,310,441,738,310,-7.0,44.0,42.0,-19.34814453125,-19.59228515625,-11.596678733825684,-0.7969970703125,0.3756103515625,0.0015869140625
1.815,310,450,741,310,-7.0,44.0,42.0,-17.88330078125,-16.05224609375,-10.131834983825684,-0.803466796875,0.3397216796875,0.0068359375
1.827,310,456,742,310,-7.0,44.0,42.0,-14.404295921325684,-11.840819358825684,-8.60595703125,-0.803466796875,0.3397216796875,0.0068359375
1.847,310,469,749,310,-7.0,44.0,42.0,-7.263183116912842,-3.662109136581421,-4.2724609375,-0.8104248046875,0.27587890625,-0.008056640625
1.853,310,477,756,311,-7.0,44.0,42.0,-7.263183116912842,-3.662109136581421,-4.2724609375,-0.818603515625,0.2960205078125,-0.037353515625
1.854,310,484,756,310,-7.0,44.0,42.0,-3.845214605331421,-1.03759765625,-0.6713866591453552,-0.818603515625,0.2960205078125,-0.037353515625
1.867,310,499,779,311,-7.0,44.0,42.0,1.220703125,-0.54931640625,4.8828125,-0.8011474609375,0.319580078125,-0.10400390625
1.875,308,509,785,311,-7.0,44.0,42.0,1.220703125,-0.54931640625,4.8828125,-0.78564453125,0.312744140625,-0.137451171875
1.883,310,524,801,311,-7.0,44.0,42.0,1.8310545682907104,-1.8920897245407104,6.408690929412842,-0.78564453125,0.312744140625,-0.137451171875
1.897,310,548,824,311,-7.0,44.0,42.0,-1.5869139432907104,-7.446288585662842,8.7890625,-0.74755859375,0.290771484375,-0.1302490234375
1.905,310,564,846,311,-7.0,44.0,42.0,-1.5869139432907104,-7.446288585662842,8.7890625,-0.7313232421875,0.2908935546875,-0.1263427734375
1.913,311,585,875,311,-7.0,40.0,40.0,-3.906249761581421,-9.33837890625,10.009765625,-0.7313232421875,0.2908935546875,-0.1263427734375
1.930,309,620,938,312,-7.0,40.0,40.0,-10.559081077575684,-12.023924827575684,10.986327171325684,-0.6429443359375,0.303955078125,-0.1116943359375
1.935,310,657,987,312,-7.0,40.0,40.0,-10.559081077575684,-12.023924827575684,10.986327171325684,-0.48876953125,0.259765625,-0.0618896484375
1.960,310,695,1064,311,-7.0,40.0,40.0,-15.441893577575684,-14.526366233825684,9.94873046875,-0.48876953125,0.259765625,-0.0618896484375
1.961,310,784,1219,312,-7.0,40.0,40.0,-8.23974609375,-19.1650390625,1.4038084745407104,-0.0860595703125,0.1815185546875,0.1116943359375
1.966,310,830,1313,312,-7.0,40.0,40.0,6.896972179412842,-20.935056686401367,-9.8876953125,-0.1708984375,0.2137451171875,0.000732421875
1.973,310,878,1407,312,-7.0,40.0,40.0,6.896972179412842,-20.935056686401367,-9.8876953125,-0.5255126953125,0.1834716796875,-0.24609375
1.987,310,959,1528,311,-7.0,40.0,40.0,16.9677734375,-21.545408248901367,-42.541500091552734,-1.019775390625,0.2161865234375,-0.429443359375
1.998,311,999,1579,312,-7.0,40.0,40.0,3.295898199081421,-22.155759811401367,-47.119136810302734,-1.533447265625,0.3963623046875,-0.4254150390625
2.003,308,1037,1611,312,-7.0,40.0,40.0,3.295898199081421,-22.155759811401367,-47.119136810302734,-1.9368896484375,0.4991455078125,-0.29931640625
2.017,310,1078,1648,312,-8.0,40.0,41.0,-50.964351654052734,-30.700681686401367,-29.907224655151367,-2.1644287109375,0.453369140625,-0.18798828125
2.034,310,1081,1648,312,-8.0,40.0,41.0,-63.110347747802734,-29.479978561401367,-17.333984375,-2.277099609375,0.495849609375,-0.1771240234375
2.036,311,1064,1636,312,-8.0,40.0,41.0,-63.110347747802734,-29.479978561401367,-17.333984375,-2.075927734375,0.47802734375,-0.093017578125
2.050,310,1020,1598,312,-8.0,40.0,41.0,-36.80419921875,-19.95849609375,10.803221702575684,-1.3785400390625,0.1641845703125,0.218994140625
2.073,310,992,1579,312,-8.0,40.0,41.0,-2.0751953125,-9.521484375,19.71435546875,-0.79248046875,0.166259765625,0.3033447265625
2.073,310,988,1580,312,-8.0,40.0,41.0,-2.0751953125,-9.521484375,19.71435546875,-0.8155517578125,0.61962890625,-0.0438232421875
2.078,310,975,1561,312,-8.0,40.0,41.0,30.334470748901367,6.042479991912842,11.047362327575684,-1.2586669921875,0.947509765625,-0.4171142578125
2.086,311,959,1529,311,-8.0,40.0,41.0,8.544921875,0.2441406100988388,-7.629394054412842,-1.708251953125,0.8814697265625,-0.50146484375
2.097,311,935,1488,312,-8.0,40.0,41.0,-18.85986328125,-9.8876953125,-21.423337936401367,-1.871826171875,0.578369140625,-0.2960205078125
2.108,310,884,1400,311,-6.0,40.0,45.0,-32.28759765625,-16.54052734375,-21.606443405151367,-1.8172607421875,0.396484375,-0.0789794921875
2.116,310,853,1348,311,-6.0,40.0,45.0,-28.808591842651367,-16.54052734375,-11.657713890075684,-1.6708984375,0.376708984375,0.021484375
2.124,310,813,1279,314,-6.0,40.0,45.0,-15.319823265075684,-11.657713890075684,-0.7934569716453552,-1.4708251953125,0.426025390625,0.0693359375
2.149,310,737,1160,311,-6.0,40.0,45.0,0.9155272841453552,-4.45556640625,5.065917491912842,-1.2342529296875,0.4404296875,0.0794677734375
2.163,311,687,1079,312,-6.0,40.0,45.0,13.366698265075684,3.112792730331421,5.920409679412842,-0.9820556640625,0.3177490234375,0.0740966796875
2.163,310,631,994,312,-6.0,40.0,45.0,22.888181686401367,8.97216796875,3.784179449081421,-0.722412109375,0.0655517578125,0.09765625
2.168,310,540,902,311,-6.0,40.0,45.0,34.72900390625,13.427733421325684,0.9765624403953552,-0.4781494140625,-0.1710205078125,0.099853515625
2.177,310,504,858,311,-6.0,40.0,45.0,50.170894622802734,18.4326171875,-1.4038084745407104,-0.3211669921875,-0.2552490234375,0.07421875
2.184,310,469,819,311,-6.0,40.0,45.0,63.415523529052734,21.606443405151367,-3.784179449081421,-0.2816162109375,-0.251708984375,0.092529296875
2.199,308,435,794,309,-6.0,40.0,45.0,71.59423828125,23.864744186401367,-5.432128429412842,-0.3460693359375,-0.2269287109375,0.0284423828125
2.206,310,420,778,310,-9.0,42.0,47.0,76.5380859375,30.212400436401367,-3.295898199081421,-0.4940185546875,-0.0570068359375,-0.1728515625
2.214,309,396,756,310,-9.0,42.0,47.0,73.73046875,33.14208984375,3.784179449081421,-0.6422119140625,0.3143310546875,-0.349853515625
2.228,310,383,739,311,-9.0,42.0,47.0,59.143062591552734,24.658201217651367,11.108397483825684,-0.7210693359375,0.6710205078125,-0.4185791015625
2.244,310,364,730,311,-9.0,42.0,47.0,39.36767578125,9.82666015625,11.108397483825684,-0.7088623046875,0.73583984375,-0.3662109375
2.245,310,371,723,311,-9.0,42.0,47.0,23.864744186401367,-3.112792730331421,3.845214605331421,-0.6697998046875,0.5311279296875,-0.242919921875
2.258,309,391,723,310,-9.0,42.0,47.0,15.014647483825684,-11.169432640075684,-4.08935546875,-0.6468505859375,0.2852783203125,-0.08984375
2.266,310,402,729,311,-9.0,42.0,47.0,12.207030296325684,-14.709471702575684,-9.765625,-0.6207275390625,0.20556640625,0.04931640625
2.274,310,415,742,311,-9.0,42.0,47.0,11.474608421325684,-13.977049827575684,-10.620116233825684,-0.647216796875,0.34716796875,0.1002197265625
2.288,310,439,756,310,-9.0,42.0,47.0,7.080077648162842,-11.230467796325684,-6.469726085662842,-0.7181396484375,0.502685546875,0.0809326171875
2.296,310,452,764,310,-9.0,42.0,47.0,0.0610351525247097,-7.812499523162842,-4.0283203125,-0.7642822265625,0.47998046875,0.0399169921875
2.310,310,465,766,312,-7.0,40.0,42.0,-3.906249761581421,-3.417968511581421,-5.859374523162842,-0.7724609375,0.355224609375,0.00048828125
2.318,310,486,772,310,-7.0,40.0,42.0,-3.356933355331421,0.7324218153953552,-7.385253429412842,-0.7811279296875,0.291259765625,-0.0396728515625
2.326,310,497,778,310,-7.0,40.0,42.0,-1.3427733182907104,2.38037109375,-5.615233898162842,-0.8072509765625,0.3070068359375,-0.0802001953125
2.340,311,516,780,312,-7.0,40.0,42.0,-0.6713866591453552,0.7934569716453552,-2.25830078125,-0.8240966796875,0.3170166015625,-0.09814453125
2.361,310,540,803,310,-7.0,40.0,42.0,-1.6479490995407104,-2.01416015625,0.8544921278953552,-0.819091796875,0.256103515625,-0.1087646484375
2.367,310,557,822,311,-7.0,40.0,42.0,-4.21142578125,-3.479003667831421,3.417968511581421,-0.819091796875,0.256103515625,-0.1087646484375
2.367,310,571,832,311,-7.0,40.0,42.0,-7.995604991912842,-3.723144292831421,5.249022960662842,-0.8089599609375,0.232177734375,-0.10986328125
2.378,310,600,858,311,-7.0,40.0,42.0,-11.779784202575684,-4.5166015625,6.713866710662842,-0.7603759765625,0.22607421875,-0.1170654296875
2.386,310,620,888,311,-7.0,40.0,42.0,-14.221190452575684,-6.713866710662842,9.1552734375,-0.7603759765625,0.22607421875,-0.1170654296875
2.394,310,644,921,310,-7.0,40.0,42.0,-15.563963890075684,-10.253905296325684,12.268065452575684,-0.7431640625,0.261962890625,-0.1309814453125
2.417,311,684,982,312,-7.0,40.0,45.0,-16.9677734375,-14.465331077575684,14.282225608825684,-0.63916015625,0.2906494140625,-0.1375732421875
2.423,310,711,1013,311,-7.0,40.0,45.0,-20.141599655151367,-17.63916015625,14.343260765075684,-0.63916015625,0.2906494140625,-0.1375732421875
2.444,310,747,1071,312,-7.0,40.0,45.0,-25.024412155151367,-18.06640625,13.244627952575684,-0.49365234375,0.210205078125,-0.094970703125
2.444,310,834,1253,311,-7.0,40.0,45.0,-28.076169967651367,-15.624999046325684,12.573241233825684,-0.242919921875,0.112548828125,0.1002197265625
2.475,311,890,1352,312,-7.0,40.0,45.0,-27.038572311401367,-13.427733421325684,10.803221702575684,-0.242919921875,0.112548828125,0.1002197265625
2.475,310,939,1437,312,-7.0,40.0,45.0,-21.301267623901367,-14.282225608825684,2.25830078125,-0.3211669921875,0.051025390625,0.1688232421875
2.476,310,1029,1561,312,-7.0,40.0,45.0,-10.620116233825684,-16.357421875,-13.488768577575684,-1.047607421875,0.2066650390625,-0.0386962890625
2.476,310,1043,1610,310,-7.0,40.0,45.0,-0.3662109076976776,-16.11328125,-25.390623092651367,-1.047607421875,0.2066650390625,-0.0386962890625
2.484,310,1109,1640,312,-7.0,40.0,45.0,0.8544921278953552,-12.451170921325684,-26.062009811401367,-1.4539794921875,0.416748046875,-0.1846923828125
2.498,310,1155,1669,311,-7.0,40.0,45.0,-10.681151390075684,-7.568358898162842,-19.1650390625,-2.040771484375,0.5867919921875,-0.3399658203125
2.507,310,1170,1683,312,-7.0,39.0,42.0,-29.235837936401367,-4.21142578125,-9.33837890625,-2.234375,0.7171630859375,-0.3712158203125
2.514,310,1151,1677,312,-7.0,39.0,42.0,-44.433589935302734,-3.601073980331421,1.9531248807907104,-2.234375,0.7171630859375,-0.3712158203125
2.528,311,1116,1632,312,-7.0,39.0,42.0,-39.97802734375,-7.446288585662842,16.4794921875,-1.4410400390625,0.16552734375,0.2435302734375
2.536,312,1087,1591,312,-7.0,39.0,42.0,-39.97802734375,-7.446288585662842,16.4794921875,-0.8563232421875,0.137939453125,0.3101806640625
2.545,310,1076,1583,312,-7.0,39.0,42.0,-4.08935546875,-0.1831054538488388,19.8974609375,-0.8563232421875,0.137939453125,0.3101806640625
2.572,310,1066,1583,311,-7.0,39.0,42.0,33.14208984375,13.610838890075684,12.023924827575684,-1.2003173828125,0.90478515625,-0.4617919921875
2.572,310,1050,1566,312,-7.0,39.0,42.0,33.14208984375,13.610838890075684,12.023924827575684,-1.658203125,0.8916015625,-0.5140380859375
2.575,310,1034,1538,312,-7.0,39.0,42.0,7.324218273162842,5.554198741912842,-5.371093273162842,-1.658203125,0.8916015625,-0.5140380859375
2.588,311,988,1474,312,-7.0,39.0,42.0,-36.56005859375,-16.66259765625,-22.033689498901367,-1.8143310546875,0.365234375,-0.0380859375
2.596,310,946,1406,312,-7.0,39.0,42.0,-36.56005859375,-16.66259765625,-22.033689498901367,-1.66552734375,0.392822265625,0.0550537109375
2.604,311,905,1361,312,-4.0,40.0,46.0,-30.517576217651367,-17.578125,-12.695311546325684,-1.66552734375,0.392822265625,0.0550537109375
2.618,310,832,1260,311,-4.0,40.0,46.0,-1.220703125,-5.798339366912842,4.21142578125,-1.19580078125,0.4432373046875,0.0855712890625
2.626,310,797,1199,311,-4.0,40.0,46.0,-1.220703125,-5.798339366912842,4.21142578125,-0.9193115234375,0.3458251953125,0.086669921875
2.635,310,747,1129,311,-4.0,40.0,46.0,10.375975608825684,1.8310545682907104,3.540038824081421,-0.9193115234375,0.3458251953125,0.086669921875
2.651,310,660,1022,312,-4.0,40.0,46.0,27.282712936401367,10.742186546325684,-2.38037109375,-0.4952392578125,0.0244140625,0.1087646484375
2.674,310,614,960,312,-4.0,40.0,46.0,36.376953125,11.962889671325684,-5.126952648162842,-0.3438720703125,-0.0985107421875,0.109130859375
2.675,310,575,920,312,-4.0,40.0,46.0,36.376953125,11.962889671325684,-5.126952648162842,-0.308837890625,-0.106201171875,0.037841796875
2.678,310,545,873,311,-4.0,40.0,46.0,50.354000091552734,19.287109375,-9.3994140625,-0.3551025390625,-0.1322021484375,-0.030029296875
2.686,308,527,849,310,-4.0,40.0,46.0,50.903316497802734,22.766111373901367,-11.352538108825684,-0.4678955078125,-0.128173828125,-0.1072998046875
2.694,310,523,832,310,-4.0,40.0,46.0,50.903316497802734,22.766111373901367,-11.352538108825684,-0.5968017578125,0.08349609375,-0.1934814453125
2.708,310,519,818,312,-5.0,40.0,46.0,39.97802734375,19.1650390625,1.15966796875,-0.6710205078125,0.389404296875,-0.2584228515625
2.716,310,523,822,311,-5.0,40.0,46.0,26.123044967651367,9.27734375,7.141112804412842,-0.707275390625,0.5728759765625,-0.2928466796875
2.724,309,523,822,310,-5.0,40.0,46.0,26.123044967651367,9.27734375,7.141112804412842,-0.7159423828125,0.5552978515625,-0.253173828125
2.738,310,530,827,310,-5.0,40.0,46.0,1.2817381620407104,-11.413573265075684,-0.9155272841453552,-0.6937255859375,0.4488525390625,-0.158935546875
2.754,310,537,827,310,-5.0,40.0,46.0,-6.408690929412842,-15.136717796325684,-5.737304210662842,-0.6846923828125,0.377197265625,-0.064697265625
2.755,310,543,832,311,-5.0,40.0,46.0,-6.408690929412842,-15.136717796325684,-5.737304210662842,-0.72216796875,0.3433837890625,0.0159912109375
2.781,310,558,840,311,-5.0,40.0,46.0,-16.41845703125,-12.939452171325684,-7.446288585662842,-0.7515869140625,0.299072265625,0.080078125
2.782,310,571,846,310,-5.0,40.0,46.0,-16.2353515625,-10.437010765075684,-6.591796398162842,-0.7642822265625,0.253662109375,0.1002197265625
2.784,310,579,853,311,-5.0,40.0,46.0,-16.2353515625,-10.437010765075684,-6.591796398162842,-0.7828369140625,0.260986328125,0.0794677734375
2.798,310,600,865,311,-5.0,40.0,46.0,-7.324218273162842,-3.356933355331421,-1.4648436307907104,-0.810791015625,0.2889404296875,0.0380859375
2.806,310,608,873,312,-7.0,40.0,42.0,-2.929687261581421,-0.9155272841453552,1.15966796875,-0.84619140625,0.2958984375,-0.0208740234375
2.815,310,622,886,310,-7.0,40.0,42.0,-0.6103515625,0.1220703050494194,4.21142578125,-0.8568115234375,0.2784423828125,-0.063232421875
2.828,310,639,918,312,-7.0,40.0,42.0,-0.8544921278953552,-0.6103515625,7.873534679412842,-0.8280029296875,0.257080078125,-0.06689453125
2.836,310,652,933,312,-7.0,40.0,42.0,-2.0751953125,-2.44140625,10.986327171325684,-0.7923583984375,0.25341796875,-0.0625
2.872,310,664,959,310,-7.0,40.0,42.0,-3.112792730331421,-4.2724609375,13.000487327575684,-0.774169921875,0.2691650390625,-0.0701904296875
2.886,310,694,987,312,-7.0,40.0,42.0,-4.638671875,-5.310058116912842,14.465331077575684,-0.7813720703125,0.3143310546875,-0.0928955078125
2.887,310,711,1022,311,-7.0,40.0,42.0,-6.958007335662842,-6.286620616912842,14.709471702575684,-0.78466796875,0.3526611328125,-0.1075439453125
2.887,311,732,1050,311,-7.0,40.0,42.0,-9.70458984375,-7.690429210662842,13.061522483825684,-0.7623291015625,0.33740234375,-0.098388671875
2.889,308,778,1153,309,-7.0,40.0,42.0,-11.352538108825684,-7.751464366912842,11.474608421325684,-0.7327880859375,0.2857666015625,-0.077392578125
2.897,310,816,1219,312,-7.0,40.0,42.0,-11.230467796325684,-5.615233898162842,11.718749046325684,-0.6981201171875,0.2542724609375,-0.041748046875
2.905,310,858,1286,312,-6.0,40.0,44.0,-10.986327171325684,-3.845214605331421,12.573241233825684,-0.653564453125,0.2158203125,-0.0003662109375
2.913,311,901,1365,311,-6.0,40.0,44.0,-9.46044921875,-5.371093273162842,8.97216796875,-0.5400390625,0.0400390625,0.0830078125
2.927,310,980,1490,311,-6.0,40.0,44.0,0.1220703050494194,-9.765625,-0.7324218153953552,-0.36376953125,-0.182373046875,0.2061767578125
2.935,310,1027,1547,311,-6.0,40.0,44.0,22.033689498901367,-11.169432640075684,-10.009765625,-0.3341064453125,-0.150390625,0.1907958984375
2.943,310,1067,1588,311,-6.0,40.0,44.0,44.738765716552734,-7.629394054412842,-12.084959983825684,-0.5860595703125,0.2332763671875,-0.052490234375
2.957,310,1127,1662,311,-6.0,40.0,44.0,48.095699310302734,-4.39453125,-10.009765625,-1.05322265625,0.6800537109375,-0.3736572265625
2.987,309,1155,1689,312,-6.0,40.0,44.0,24.841306686401367,-5.126952648162842,-12.023924827575684,-1.5472412109375,0.8516845703125,-0.5274658203125
2.988,312,1178,1718,312,-6.0,40.0,44.0,-11.230467796325684,-9.521484375,-19.04296875,-1.944091796875,0.7843017578125,-0.4884033203125
2.989,310,1196,1742,311,-6.0,40.0,44.0,-39.36767578125,-15.930174827575684,-24.108884811401367,-2.1904296875,0.6849365234375,-0.326416015625
2.996,310,1175,1732,312,-6.0,40.0,44.0,-51.208492279052734,-22.583005905151367,-21.972654342651367,-2.1783447265625,0.526123046875,-0.064697265625
3.003,310,1160,1716,312,-7.0,37.0,45.0,-46.325679779052734,-25.573728561401367,-13.610838890075684,-1.687744140625,0.1429443359375,0.2728271484375
3.017,310,1112,1656,312,-7.0,37.0,45.0,-19.775390625,-17.4560546875,-2.25830078125,-1.0184326171875,-0.017822265625,0.3868408203125
3.026,311,1104,1653,312,-7.0,37.0,45.0,15.991209983825684,-0.7324218153953552,7.507323741912842,-0.7791748046875,0.361328125,0.0584716796875
3.033,309,1101,1649,312,-7.0,37.0,45.0,32.1044921875,9.46044921875,5.737304210662842,-1.0233154296875,0.7801513671875,-0.3231201171875
3.047,310,1079,1619,312,-7.0,37.0,45.0,21.301267623901367,5.554198741912842,-10.437010765075684,-1.4915771484375,0.90283203125,-0.429931640625
3.056,310,1063,1585,312,-7.0,37.0,45.0,-4.33349609375,-5.920409679412842,-29.602048873901367,-1.83154296875,0.71533203125,-0.29443359375
3.069,310,1035,1551,312,-7.0,37.0,45.0,-27.526853561401367,-14.892577171325684,-38.9404296875,-1.860107421875,0.4354248046875,-0.081298828125
3.087,310,973,1462,312,-7.0,37.0,45.0,-34.1796875,-15.930174827575684,-33.99658203125,-1.7012939453125,0.32373046875,0.0411376953125
3.087,310,931,1407,312,-7.0,37.0,45.0,-26.611326217651367,-10.314940452575684,-20.874021530151367,-1.5164794921875,0.342041015625,0.0367431640625
3.097,310,885,1353,311,-7.0,37.0,45.0,-15.258788108825684,-3.601073980331421,-8.97216796875,-1.3035888671875,0.3529052734375,0.026611328125
3.107,310,806,1241,311,-6.0,40.0,40.0,-6.652831554412842,1.3427733182907104,-2.197265625,-1.0504150390625,0.28564453125,0.0438232421875
3.116,310,763,1175,312,-6.0,40.0,40.0,-2.990722417831421,5.310058116912842,1.3427733182907104,-0.7967529296875,0.11181640625,0.076904296875
3.124,310,721,1117,310,-6.0,40.0,40.0,-0.1831054538488388,8.056640625,4.150390625,-0.5628662109375,-0.084228515625,0.1397705078125
3.137,310,646,1022,312,-6.0,40.0,40.0,8.544921875,11.352538108825684,6.896972179412842,-0.4124755859375,-0.1287841796875,0.145263671875
3.148,310,606,973,311,-6.0,40.0,40.0,21.911619186401367,16.17431640625,8.6669921875,-0.3939208984375,0.008544921875,0.0498046875
3.158,306,578,948,312,-6.0,40.0,40.0,30.456541061401367,18.00537109375,6.347655773162842,-0.4053955078125,0.076171875,0.0045166015625
3.189,310,551,910,310,-6.0,40.0,40.0,30.578611373901367,17.2119140625,-1.3427733182907104,-0.416015625,-0.0303955078125,0.0074462890625
3.191,310,545,902,312,-6.0,40.0,40.0,27.648923873901367,20.690916061401367,-7.934569835662842,-0.5048828125,-0.0340576171875,-0.0748291015625
3.193,308,543,894,314,-6.0,40.0,40.0,22.399900436401367,24.536130905151367,-6.225585460662842,-0.6383056640625,0.1868896484375,-0.189208984375
3.225,310,538,878,311,-10.0,40.0,41.0,13.427733421325684,20.629880905151367,1.0986328125,-0.7376708984375,0.54736328125,-0.2587890625
3.227,310,543,874,312,-10.0,40.0,41.0,3.662109136581421,9.58251953125,5.615233898162842,-0.7376708984375,0.54736328125,-0.2587890625
3.228,310,549,871,312,-10.0,40.0,41.0,-3.417968511581421,-2.44140625,3.906249761581421,-0.6968994140625,0.46240234375,-0.1806640625
3.257,308,566,873,310,-10.0,40.0,41.0,-7.080077648162842,-10.192870140075684,-0.3662109076976776,-0.7032470703125,0.3507080078125,-0.003173828125
3.340,310,576,873,310,-10.0,40.0,41.0,-8.85009765625,-12.817381858825684,-3.662109136581421,-0.7032470703125,0.3507080078125,-0.003173828125
3.349,310,586,877,311,-10.0,40.0,41.0,-10.620116233825684,-12.695311546325684,-5.981444835662842,-0.74951171875,0.3636474609375,0.052978515625
3.387,310,607,904,312,-10.0,40.0,41.0,-13.488768577575684,-7.751464366912842,-8.9111328125,-0.7784423828125,0.24755859375,0.0771484375
3.387,310,620,917,311,-10.0,40.0,41.0,-11.535643577575684,-4.33349609375,-6.958007335662842,-0.792724609375,0.2255859375,0.057861328125
3.424,310,644,939,310,-10.0,40.0,41.0,-7.202147960662842,-2.807616949081421,-3.784179449081421,-0.83837890625,0.25927734375,0.0206298828125
3.425,309,657,947,310,-6.0,41.0,45.0,-2.38037109375,-3.173827886581421,-0.3662109076976776,-0.83837890625,0.25927734375,0.0206298828125
3.426,310,669,966,310,-6.0,41.0,45.0,0.4272460639476776,-3.662109136581421,2.990722417831421,-0.83447265625,0.2635498046875,-0.0157470703125
3.429,310,697,992,311,-6.0,41.0,45.0,-0.2441406100988388,-3.479003667831421,6.225585460662842,-0.79736328125,0.2657470703125,-0.0635986328125
3.429,309,713,1011,311,-6.0,41.0,45.0,-3.601073980331421,-3.845214605331421,8.9111328125,-0.79736328125,0.2657470703125,-0.0635986328125
3.430,310,730,1025,311,-6.0,41.0,45.0,-6.774901866912842,-5.310058116912842,10.681151390075684,-0.7794189453125,0.2857666015625,-0.0567626953125
3.430,310,770,1091,311,-6.0,41.0,45.0,-8.30078125,-8.36181640625,10.803221702575684,-0.754150390625,0.2877197265625,-0.032470703125
3.433,311,805,1157,311,-6.0,41.0,45.0,-8.30078125,-8.36181640625,10.803221702575684,-0.7904052734375,0.2694091796875,-0.04248046875
3.434,311,835,1213,312,-6.0,41.0,45.0,-7.873534679412842,-8.544921875,10.437010765075684,-0.7904052734375,0.2694091796875,-0.04248046875
3.434,310,893,1308,312,-6.0,41.0,45.0,-7.385253429412842,-12.023924827575684,4.21142578125,-0.8330078125,0.104736328125,-0.018798828125
3.435,310,935,1369,310,-6.0,41.0,45.0,-7.385253429412842,-12.023924827575684,4.21142578125,-0.64501953125,-0.09228515625,0.0733642578125
3.436,310,976,1432,312,-6.0,41.0,45.0,-7.324218273162842,-15.014647483825684,-0.8544921278953552,-0.64501953125,-0.09228515625,0.0733642578125
3.436,310,1050,1557,312,-4.0,37.0,42.0,12.512206077575684,-13.183592796325684,-0.4882812201976776,-0.3167724609375,-0.0919189453125,0.1905517578125
3.437,310,1092,1607,312,-4.0,37.0,42.0,12.512206077575684,-13.183592796325684,-0.4882812201976776,-0.5418701171875,0.245361328125,0.010009765625
3.437,310,1123,1646,312,-4.0,37.0,42.0,24.475095748901367,-6.835937023162842,1.3427733182907104,-0.5418701171875,0.245361328125,0.010009765625
3.438,297,1173,1708,312,-4.0,37.0,42.0,0.6103515625,-2.746581792831421,-5.920409679412842,-1.4632568359375,0.7576904296875,-0.406005859375
3.445,312,1189,1730,312,-4.0,37.0,42.0,0.6103515625,-2.746581792831421,-5.920409679412842,-1.8779296875,0.7672119140625,-0.4261474609375
3.453,310,1206,1746,313,-4.0,37.0,42.0,-23.132322311401367,-7.690429210662842,-12.145995140075684,-1.8779296875,0.7672119140625,-0.4261474609375
3.467,311,1214,1746,312,-4.0,37.0,42.0,-45.166011810302734,-22.949216842651367,-10.681151390075684,-2.0487060546875,0.4599609375,0.078125
3.481,310,1204,1721,313,-4.0,37.0,42.0,-45.166011810302734,-22.949216842651367,-10.681151390075684,-1.6802978515625,0.199462890625,0.3271484375
3.489,311,1191,1695,312,-4.0,37.0,42.0,-34.1796875,-24.230955123901367,-2.929687261581421,-1.6802978515625,0.199462890625,0.3271484375
3.497,310,1142,1637,311,-5.0,38.0,43.0,19.71435546875,3.601073980331421,10.314940452575684,-0.856689453125,0.314208984375,0.0531005859375
3.506,311,1129,1632,312,-5.0,38.0,43.0,28.076169967651367,15.319823265075684,7.202147960662842,-0.9276123046875,0.587646484375,-0.2518310546875
3.522,310,1123,1627,312,-5.0,38.0,43.0,28.076169967651367,15.319823265075684,7.202147960662842,-1.201904296875,0.64111328125,-0.3284912109375
3.527,310,1103,1591,311,-5.0,38.0,43.0,-5.737304210662842,3.295898199081421,-17.7001953125,-1.5849609375,0.6126708984375,-0.23486328125
3.541,310,1085,1569,312,-5.0,38.0,43.0,-22.521970748901367,-6.896972179412842,-23.193357467651367,-1.8428955078125,0.5303955078125,-0.0821533203125
3.544,309,1056,1538,312,-5.0,38.0,43.0,-22.521970748901367,-6.896972179412842,-23.193357467651367,-1.865966796875,0.4329833984375,0.0472412109375
3.557,311,1000,1443,312,-5.0,38.0,43.0,-29.479978561401367,-7.751464366912842,-10.070799827575684,-1.7469482421875,0.370361328125,0.08740234375
3.573,310,957,1380,312,-5.0,38.0,43.0,-23.742673873901367,-1.0986328125,1.4038084745407104,-1.5125732421875,0.30322265625,0.10400390625
3.582,311,912,1323,311,-5.0,38.0,43.0,-23.742673873901367,-1.0986328125,1.4038084745407104,-1.1622314453125,0.24560546875,0.1639404296875
3.597,310,840,1211,312,-5.0,38.0,43.0,-5.249022960662842,9.94873046875,17.51708984375,-0.80908203125,0.1768798828125,0.20703125
3.598,310,803,1151,311,-6.0,38.0,44.0,3.723144292831421,15.563963890075684,19.6533203125,-0.564453125,0.0609130859375,0.214599609375
3.604,311,765,1094,311,-6.0,38.0,44.0,3.723144292831421,15.563963890075684,19.6533203125,-0.4166259765625,-0.007568359375,0.1842041015625
3.629,311,702,1011,311,-6.0,38.0,44.0,24.353025436401367,27.221677780151367,16.78466796875,-0.3631591796875,0.058837890625,0.0928955078125
3.636,310,659,964,311,-6.0,38.0,44.0,31.982419967651367,31.066892623901367,11.901854515075684,-0.4139404296875,0.1612548828125,-0.0260009765625
3.636,310,630,933,311,-6.0,38.0,44.0,31.982419967651367,31.066892623901367,11.901854515075684,-0.4852294921875,0.0899658203125,-0.119873046875
3.648,310,601,901,312,-6.0,38.0,44.0,28.930662155151367,29.663084030151367,-6.591796398162842,-0.56396484375,-0.0279541015625,-0.2044677734375
3.656,310,601,891,311,-6.0,38.0,44.0,22.399900436401367,28.686521530151367,-9.033203125,-0.652099609375,0.0452880859375,-0.259521484375
3.670,310,600,889,310,-6.0,38.0,44.0,13.854979515075684,23.071287155151367,-2.685546636581421,-0.7264404296875,0.2408447265625,-0.2725830078125
3.677,310,599,886,310,-6.0,38.0,44.0,5.249022960662842,12.939452171325684,5.737304210662842,-0.7486572265625,0.40673828125,-0.2591552734375
3.693,310,604,886,311,-6.0,38.0,44.0,-1.4038084745407104,2.13623046875,9.70458984375,-0.7144775390625,0.4345703125,-0.2022705078125
3.694,309,620,889,310,-4.0,39.0,43.0,-7.385253429412842,-6.225585460662842,9.33837890625,-0.6900634765625,0.3834228515625,-0.1112060546875
3.707,310,632,895,310,-4.0,39.0,43.0,-12.268065452575684,-11.352538108825684,8.23974609375,-0.69873046875,0.384765625,-0.01953125
3.715,310,642,902,311,-4.0,39.0,43.0,-14.404295921325684,-13.244627952575684,7.141112804412842,-0.724853515625,0.391845703125,0.05029296875
3.723,310,653,916,312,-4.0,39.0,43.0,-14.526366233825684,-12.329100608825684,5.432128429412842,-0.734375,0.3245849609375,0.10888671875
3.739,312,668,932,312,-4.0,39.0,43.0,-13.366698265075684,-9.1552734375,4.69970703125,-0.7227783203125,0.2474365234375,0.1502685546875
3.745,310,683,944,312,-4.0,39.0,43.0,-10.437010765075684,-5.0048828125,6.164550304412842,-0.7110595703125,0.24267578125,0.14892578125
3.753,310,694,962,312,-4.0,39.0,43.0,-5.249022960662842,-1.8310545682907104,7.751464366912842,-0.7127685546875,0.2841796875,0.107421875
3.773,309,714,995,311,-4.0,39.0,43.0,0.7324218153953552,-0.9155272841453552,7.019042491912842,-0.7232666015625,0.3170166015625,0.0599365234375
3.775,310,726,1024,311,-4.0,39.0,43.0,5.187987804412842,-1.4038084745407104,5.0048828125,-0.7513427734375,0.344970703125,0.0098876953125
3.803,310,741,1047,312,-4.0,39.0,43.0,6.225585460662842,-1.4648436307907104,3.906249761581421,-0.7935791015625,0.3834228515625,-0.0511474609375
3.804,310,780,1105,311,-6.0,39.0,42.0,2.990722417831421,-1.4038084745407104,3.356933355331421,-0.78857421875,0.3719482421875,-0.0673828125
3.806,310,809,1160,298,-6.0,39.0,42.0,-1.5869139432907104,-1.4648436307907104,2.25830078125,-0.7386474609375,0.2984619140625,-0.0389404296875
3.813,310,827,1204,312,-6.0,39.0,42.0,-1.7700194120407104,-0.0610351525247097,2.01416015625,-0.7099609375,0.23828125,-0.0238037109375
3.827,310,886,1300,310,-6.0,39.0,42.0,3.234863042831421,1.0986328125,3.173827886581421,-0.7193603515625,0.2493896484375,-0.0350341796875
3.839,310,923,1353,312,-6.0,39.0,42.0,8.97216796875,0.0,3.540038824081421,-0.7672119140625,0.2498779296875,-0.08642578125
3.844,310,966,1404,312,-6.0,39.0,42.0,12.329100608825684,-2.746581792831421,0.1220703050494194,-0.7962646484375,0.109130859375,-0.1121826171875
3.857,309,1035,1499,314,-6.0,39.0,42.0,13.916014671325684,-6.225585460662842,-4.2724609375,-0.730224609375,-0.058349609375,-0.0487060546875
3.865,310,1074,1555,312,-6.0,39.0,42.0,15.380858421325684,-9.82666015625,-5.065917491912842,-0.6151123046875,-0.0662841796875,0.041015625
3.881,312,1109,1592,311,-6.0,39.0,42.0,18.6767578125,-12.695311546325684,-3.967284917831421,-0.5938720703125,0.0831298828125,0.0548095703125
3.897,310,1159,1666,311,-6.0,39.0,42.0,21.606443405151367,-13.305663108825684,-3.906249761581421,-0.7530517578125,0.3409423828125,-0.064453125
3.908,310,1160,1694,284,-6.0,40.0,42.0,16.6015625,-11.535643577575684,-5.0048828125,-1.0780029296875,0.5965576171875,-0.240966796875
3.909,311,1206,1718,312,-6.0,40.0,42.0,0.2441406100988388,-11.169432640075684,-8.72802734375,-1.462158203125,0.6873779296875,-0.28515625
3.918,310,1239,1743,312,-6.0,40.0,42.0,-19.775390625,-12.878417015075684,-13.916014671325684,-1.9910888671875,0.5361328125,0.0009765625
3.926,310,1234,1739,313,-6.0,40.0,42.0,-33.87451171875,-14.526366233825684,-15.136717796325684,-1.9910888671875,0.5361328125,0.0009765625
3.934,311,1217,1704,311,-6.0,40.0,42.0,-36.62109375,-13.488768577575684,-10.070799827575684,-1.959228515625,0.4193115234375,0.166259765625
3.951,310,1188,1653,312,-6.0,40.0,42.0,-25.634763717651367,-6.958007335662842,-2.13623046875,-0.9884033203125,0.1405029296875,0.200439453125
3.956,310,1160,1625,312,-6.0,40.0,42.0,-1.4648436307907104,6.164550304412842,4.21142578125,-0.9884033203125,0.1405029296875,0.200439453125
3.964,312,1153,1632,313,-6.0,40.0,42.0,20.141599655151367,18.61572265625,6.530761241912842,-0.8375244140625,0.462890625,-0.1534423828125
3.993,310,1148,1625,312,-6.0,40.0,42.0,20.324705123901367,19.6533203125,0.4272460639476776,-1.40283203125,0.756591796875,-0.4185791015625
3.996,310,1134,1605,312,-6.0,40.0,42.0,3.234863042831421,9.09423828125,-13.366698265075684,-1.40283203125,0.756591796875,-0.4185791015625
4.009,311,1118,1572,312,-3.0,37.0,44.0,-18.98193359375,-5.554198741912842,-26.367185592651367,-1.7122802734375,0.6279296875,-0.2451171875
4.009,310,1067,1513,312,-3.0,37.0,44.0,-35.7666015625,-16.54052734375,-31.127927780151367,-1.712890625,0.3385009765625,0.105224609375
4.018,310,1029,1464,311,-3.0,37.0,44.0,-38.4521484375,-18.98193359375,-25.878904342651367,-1.712890625,0.3385009765625,0.105224609375
4.024,312,994,1419,312,-3.0,37.0,44.0,-30.029294967651367,-13.122557640075684,-14.160155296325684,-1.5810546875,0.3197021484375,0.12548828125
4.038,310,913,1319,312,-3.0,37.0,44.0,-5.310058116912842,3.295898199081421,5.554198741912842,-1.125244140625,0.2364501953125,0.145751953125
4.054,311,873,1255,312,-3.0,37.0,44.0,-5.310058116912842,3.295898199081421,5.554198741912842,-0.8448486328125,0.1495361328125,0.157958984375
4.055,310,830,1192,312,-3.0,37.0,44.0,4.82177734375,9.33837890625,10.131834983825684,-0.8448486328125,0.1495361328125,0.157958984375
4.068,309,758,1089,310,-3.0,37.0,44.0,20.141599655151367,18.6767578125,13.366698265075684,-0.464111328125,-0.0137939453125,0.146728515625
4.080,310,703,1029,312,-3.0,37.0,44.0,20.141599655151367,18.6767578125,13.366698265075684,-0.4102783203125,0.044677734375,0.0797119140625
4.084,310,660,976,312,-3.0,37.0,44.0,30.029294967651367,23.498533248901367,11.840819358825684,-0.4102783203125,0.044677734375,0.0797119140625
4.101,310,620,910,310,-6.0,39.0,44.0,37.17041015625,30.761716842651367,-0.2441406100988388,-0.4803466796875,-0.0225830078125,-0.10595703125
4.107,309,594,875,311,-6.0,39.0,44.0,37.17041015625,30.761716842651367,-0.2441406100988388,-0.5650634765625,-0.0545654296875,-0.1734619140625
4.114,310,582,861,311,-6.0,39.0,44.0,34.7900390625,33.69140625,-8.544921875,-0.5650634765625,-0.0545654296875,-0.1734619140625
4.130,309,568,840,311,-6.0,39.0,44.0,17.822265625,25.878904342651367,-1.9531248807907104,-0.7303466796875,0.3270263671875,-0.2376708984375
4.136,310,566,833,311,-6.0,39.0,44.0,17.822265625,25.878904342651367,-1.9531248807907104,-0.7333984375,0.451171875,-0.2574462890625
4.146,308,568,830,310,-6.0,39.0,44.0,7.080077648162842,14.953612327575684,5.065917491912842,-0.7333984375,0.451171875,-0.2574462890625
4.158,310,578,823,310,-6.0,39.0,44.0,-9.21630859375,-3.906249761581421,7.080077648162842,-0.692138671875,0.412841796875,-0.126953125
4.166,310,587,832,310,-6.0,39.0,44.0,-9.21630859375,-3.906249761581421,7.080077648162842,-0.688720703125,0.4188232421875,-0.037109375
4.174,309,594,837,312,-6.0,39.0,44.0,-13.610838890075684,-8.23974609375,5.0048828125,-0.718017578125,0.4310302734375,0.030029296875
4.188,310,608,853,310,-7.0,42.0,46.0,-15.563963890075684,-8.1787109375,1.2817381620407104,-0.7440185546875,0.3817138671875,0.0816650390625
4.204,310,620,860,312,-7.0,42.0,46.0,-15.747069358825684,-5.493163585662842,0.54931640625,-0.74755859375,0.2880859375,0.1148681640625
4.211,310,632,873,311,-7.0,42.0,46.0,-15.747069358825684,-5.493163585662842,0.54931640625,-0.7569580078125,0.237060546875,0.1220703125
4.218,309,650,890,311,-7.0,42.0,46.0,-9.1552734375,1.8920897245407104,3.845214605331421,-0.766845703125,0.246826171875,0.10595703125
4.226,310,662,910,310,-7.0,42.0,46.0,-4.5166015625,3.479003667831421,5.310058116912842,-0.7701416015625,0.28369140625,0.0643310546875
4.234,310,676,919,312,-7.0,42.0,46.0,-4.5166015625,3.479003667831421,5.310058116912842,-0.7762451171875,0.3138427734375,0.0064697265625
4.249,310,702,955,311,-7.0,42.0,46.0,1.8310545682907104,2.50244140625,5.615233898162842,-0.7723388671875,0.308349609375,-0.0338134765625
4.257,310,716,974,311,-7.0,42.0,46.0,2.929687261581421,0.7324218153953552,5.737304210662842,-0.777099609375,0.2939453125,-0.07080078125
4.264,310,739,990,312,-7.0,42.0,46.0,2.929687261581421,0.7324218153953552,5.737304210662842,-0.7869873046875,0.3031005859375,-0.108154296875
4.285,310,777,1039,311,-7.0,42.0,46.0,-1.15966796875,-1.15966796875,11.291502952575684,-0.7431640625,0.2899169921875,-0.0931396484375
4.286,310,809,1069,310,-7.0,42.0,46.0,-5.615233898162842,-2.868652105331421,13.793944358825684,-0.665771484375,0.271240234375,-0.0438232421875
4.300,310,846,1143,312,-7.0,38.0,41.0,-5.615233898162842,-2.868652105331421,13.793944358825684,-0.6343994140625,0.3309326171875,-0.0499267578125
4.311,311,912,1250,312,-7.0,38.0,41.0,-9.33837890625,-1.7700194120407104,16.17431640625,-0.659912109375,0.3594970703125,-0.1260986328125
4.316,311,959,1325,312,-7.0,38.0,41.0,-13.427733421325684,-2.3193359375,8.30078125,-0.6116943359375,0.1943359375,-0.141845703125
4.324,311,1014,1397,312,-7.0,38.0,41.0,-13.427733421325684,-2.3193359375,8.30078125,-0.421875,-0.1019287109375,-0.0037841796875
4.339,311,1082,1523,312,-7.0,38.0,41.0,-7.385253429412842,-14.526366233825684,-21.972654342651367,-0.3109130859375,-0.257080078125,0.1365966796875
4.346,311,1129,1592,312,-7.0,38.0,41.0,8.30078125,-15.747069358825684,-25.024412155151367,-0.505615234375,-0.053955078125,0.0286865234375
4.354,310,1160,1662,312,-7.0,38.0,41.0,18.9208984375,-13.305663108825684,-19.775390625,-0.9344482421875,0.3426513671875,-0.2442626953125
4.371,310,1211,1730,311,-7.0,38.0,41.0,12.084959983825684,-15.441893577575684,-16.9677734375,-1.4034423828125,0.623046875,-0.4251708984375
4.376,310,1239,1761,314,-7.0,38.0,41.0,-11.047362327575684,-22.705076217651367,-20.01953125,-1.810546875,0.7122802734375,-0.4176025390625
4.388,311,1253,1782,311,-7.0,38.0,41.0,-37.90283203125,-30.456541061401367,-23.193357467651367,-2.09619140625,0.68505859375,-0.20849609375
4.417,310,1251,1759,312,-4.0,37.0,44.0,-55.664058685302734,-35.82763671875,-19.34814453125,-2.2265625,0.572021484375,0.0975341796875
4.417,311,1239,1735,312,-4.0,37.0,44.0,-59.326168060302734,-35.0341796875,-7.202147960662842,-1.9876708984375,0.237548828125,0.43212890625
4.418,311,1217,1704,312,-4.0,37.0,44.0,-39.12353515625,-21.728513717651367,8.11767578125,-1.3028564453125,-0.178466796875,0.6717529296875
4.428,310,1183,1662,312,-4.0,37.0,44.0,9.33837890625,7.263183116912842,22.094724655151367,-0.803955078125,-0.0355224609375,0.407958984375
4.437,310,1178,1666,312,-4.0,37.0,44.0,49.499507904052734,35.400390625,29.235837936401367,-0.863525390625,0.56982421875,-0.2030029296875
4.444,310,1173,1666,311,-4.0,37.0,44.0,47.302242279052734,39.794921875,20.629880905151367,-1.2393798828125,0.97607421875,-0.5673828125
4.458,310,1153,1635,312,-4.0,37.0,44.0,15.075682640075684,21.728513717651367,-1.5869139432907104,-1.615966796875,0.933837890625,-0.5115966796875
4.466,311,1132,1598,312,-4.0,37.0,44.0,-19.47021484375,-0.3662109076976776,-21.362302780151367,-1.767333984375,0.5933837890625,-0.214111328125
4.477,310,1105,1564,312,-4.0,37.0,44.0,-38.2080078125,-12.329100608825684,-26.428220748901367,-1.70166015625,0.3243408203125,0.0565185546875
4.490,310,1043,1474,312,-4.0,40.0,40.0,-37.9638671875,-11.413573265075684,-17.2119140625,-1.56005859375,0.274658203125,0.1636962890625
4.496,310,1010,1422,312,-4.0,40.0,40.0,-27.099607467651367,-2.624511480331421,-2.868652105331421,-1.4210205078125,0.31494140625,0.1412353515625
4.519,311,966,1369,312,-4.0,40.0,40.0,-15.075682640075684,6.103515148162842,7.995604991912842,-1.2313232421875,0.31201171875,0.123291015625
4.520,310,889,1258,312,-4.0,40.0,40.0,-3.540038824081421,12.268065452575684,12.329100608825684,-0.9759521484375,0.2783203125,0.13330078125
4.526,311,853,1201,311,-4.0,40.0,40.0,7.507323741912842,17.578125,11.535643577575684,-0.7254638671875,0.2130126953125,0.125244140625
4.534,311,818,1143,312,-4.0,40.0,40.0,17.27294921875,21.606443405151367,7.873534679412842,-0.5538330078125,0.1246337890625,0.083984375
4.549,310,758,1064,312,-4.0,40.0,40.0,25.329587936401367,24.414060592651367,3.479003667831421,-0.48974609375,0.092041015625,-0.0008544921875
4.557,311,715,1010,310,-4.0,40.0,40.0,28.930662155151367,26.428220748901367,-0.4272460639476776,-0.5296630859375,0.155517578125,-0.0701904296875
4.564,311,685,953,312,-4.0,40.0,40.0,26.184080123901367,25.817869186401367,-4.94384765625,-0.5955810546875,0.1544189453125,-0.088134765625
4.584,310,644,904,310,-4.0,40.0,40.0,20.996091842651367,25.573728561401367,-12.084959983825684,-0.616455078125,0.0093994140625,-0.1317138671875
4.592,310,631,891,312,-5.0,39.0,45.0,18.61572265625,28.625486373901367,-17.08984375,-0.6201171875,-0.0616455078125,-0.1815185546875
4.594,302,621,871,310,-5.0,39.0,45.0,17.88330078125,29.174802780151367,-14.160155296325684,-0.6522216796875,0.0338134765625,-0.18310546875
4.620,310,607,848,310,-5.0,39.0,45.0,15.624999046325684,23.559568405151367,-5.432128429412842,-0.701904296875,0.2064208984375,-0.177001953125
4.620,310,608,846,310,-5.0,39.0,45.0,12.145995140075684,14.404295921325684,2.990722417831421,-0.71728515625,0.3497314453125,-0.1766357421875
4.624,310,614,846,311,-5.0,39.0,45.0,7.141112804412842,5.493163585662842,7.202147960662842,-0.7076416015625,0.3953857421875,-0.150146484375
4.639,310,622,841,310,-5.0,39.0,45.0,0.2441406100988388,-1.220703125,7.568358898162842,-0.697998046875,0.407470703125,-0.0908203125
4.646,310,631,849,310,-5.0,39.0,45.0,-5.187987804412842,-5.187987804412842,6.164550304412842,-0.694580078125,0.4407958984375,-0.032958984375
4.656,310,636,853,312,-5.0,39.0,45.0,-7.263183116912842,-6.408690929412842,3.784179449081421,-0.713623046875,0.45703125,0.0089111328125
4.668,310,654,861,310,-5.0,39.0,45.0,-8.60595703125,-6.286620616912842,1.03759765625,-0.7364501953125,0.317626953125,0.0810546875
4.676,310,662,869,312,-5.0,39.0,45.0,-9.46044921875,-4.94384765625,-1.03759765625,-0.7364501953125,0.317626953125,0.0810546875
4.699,311,673,875,312,-7.0,38.0,42.0,-7.629394054412842,-2.25830078125,-1.4038084745407104,-0.7568359375,0.2547607421875,0.0780029296875
4.699,310,694,889,311,-7.0,38.0,42.0,-3.356933355331421,0.0610351525247097,-0.2441406100988388,-0.8052978515625,0.2525634765625,0.0316162109375
4.721,311,703,912,310,-7.0,38.0,42.0,0.9765624403953552,1.4648436307907104,1.4648436307907104,-0.8052978515625,0.2525634765625,0.0316162109375
4.721,312,718,932,311,-7.0,38.0,42.0,4.2724609375,2.38037109375,3.356933355331421,-0.8153076171875,0.2703857421875,-0.0162353515625
4.728,310,749,976,311,-7.0,38.0,42.0,6.042479991912842,2.0751953125,5.371093273162842,-0.725341796875,0.2716064453125,-0.0191650390625
4.737,310,772,996,311,-7.0,38.0,42.0,7.080077648162842,-0.1831054538488388,6.469726085662842,-0.725341796875,0.2716064453125,-0.0191650390625
4.744,310,806,1035,312,-7.0,38.0,42.0,8.48388671875,-2.868652105331421,5.981444835662842,-0.63916015625,0.242431640625,-0.0003662109375
4.759,311,864,1133,312,-7.0,38.0,42.0,9.521484375,-4.94384765625,5.0048828125,-0.576171875,0.32373046875,-0.07958984375
4.766,310,902,1196,312,-7.0,38.0,42.0,8.72802734375,-5.249022960662842,5.187987804412842,-0.576171875,0.32373046875,-0.07958984375
4.775,310,947,1255,312,-7.0,38.0,42.0,4.8828125,-3.723144292831421,4.82177734375,-0.626708984375,0.378662109375,-0.2041015625
4.788,311,1035,1379,312,-4.0,38.0,41.0,-1.220703125,-3.723144292831421,-0.1831054538488388,-0.495361328125,-0.0272216796875,-0.128173828125
4.804,312,1076,1464,312,-4.0,38.0,41.0,-3.417968511581421,-7.629394054412842,-10.864256858825684,-0.3907470703125,-0.182861328125,-0.01123046875
4.825,310,1120,1529,299,-4.0,38.0,41.0,4.94384765625,-13.183592796325684,-22.644041061401367,-0.3907470703125,-0.182861328125,-0.01123046875
4.826,310,1175,1625,311,-4.0,38.0,41.0,21.057126998901367,-21.606443405151367,-26.000974655151367,-1.009765625,0.32275390625,-0.2091064453125
4.827,312,1206,1636,298,-4.0,38.0,41.0,21.057126998901367,-21.606443405151367,-26.000974655151367,-1.508544921875,0.566650390625,-0.3297119140625
4.835,312,1231,1704,312,-4.0,38.0,41.0,4.5166015625,-24.963376998901367,-23.193357467651367,-1.508544921875,0.566650390625,-0.3297119140625
4.848,310,1251,1735,311,-4.0,38.0,41.0,-49.560543060302734,-29.785154342651367,-19.59228515625,-2.1817626953125,0.6009521484375,-0.1473388671875
4.856,310,1251,1725,312,-4.0,38.0,41.0,-49.560543060302734,-29.785154342651367,-19.59228515625,-2.2130126953125,0.4163818359375,0.1002197265625
4.866,310,1241,1691,312,-4.0,38.0,41.0,-61.767574310302734,-30.029294967651367,-13.793944358825684,-2.2130126953125,0.4163818359375,0.1002197265625
4.878,310,1204,1634,311,-4.0,38.0,41.0,-27.099607467651367,-9.82666015625,10.498045921325684,-1.1053466796875,-0.16845703125,0.5350341796875
4.887,311,1184,1608,312,-3.0,39.0,44.0,-27.099607467651367,-9.82666015625,10.498045921325684,-0.7840576171875,0.2059326171875,0.177734375
4.927,312,1178,1611,314,-3.0,39.0,44.0,18.798828125,13.671874046325684,22.766111373901367,-0.7840576171875,0.2059326171875,0.177734375
4.927,308,1160,1593,311,-3.0,39.0,44.0,34.0576171875,21.484373092651367,10.864256858825684,-1.3118896484375,0.9229736328125,-0.49072265625
4.928,310,1157,1580,311,-3.0,39.0,44.0,34.0576171875,21.484373092651367,10.864256858825684,-1.6148681640625,0.7117919921875,-0.3861083984375
4.928,310,1137,1528,311,-3.0,39.0,44.0,4.21142578125,5.493163585662842,-9.94873046875,-1.6148681640625,0.7117919921875,-0.3861083984375
4.938,311,1091,1488,311,-3.0,39.0,44.0,-29.174802780151367,-13.977049827575684,-20.874021530151367,-1.677978515625,0.32177734375,0.0234375
4.946,310,1056,1443,312,-3.0,39.0,44.0,-24.169919967651367,-12.084959983825684,-10.986327171325684,-1.5693359375,0.3021240234375,0.0860595703125
4.955,310,1026,1386,312,-3.0,39.0,44.0,-24.169919967651367,-12.084959983825684,-10.986327171325684,-1.395751953125,0.2950439453125,0.1173095703125
4.969,312,958,1286,311,-3.0,39.0,44.0,-1.8310545682907104,0.3662109076976776,5.920409679412842,-1.1527099609375,0.279541015625,0.136474609375
4.976,310,919,1228,312,-3.0,39.0,44.0,9.21630859375,6.469726085662842,9.033203125,-0.883544921875,0.218994140625,0.126708984375
4.984,311,873,1163,312,-2.0,39.0,43.0,9.21630859375,6.469726085662842,9.033203125,-0.6444091796875,0.094970703125,0.1031494140625
5.035,311,819,1069,311,-2.0,39.0,43.0,26.489255905151367,13.916014671325684,9.58251953125,-0.48583984375,0.0069580078125,0.06298828125
5.035,310,782,1021,310,-2.0,39.0,43.0,35.888671875,17.15087890625,8.11767578125,-0.456787109375,0.0738525390625,0.0108642578125
5.036,311,756,975,299,-2.0,39.0,43.0,35.888671875,17.15087890625,8.11767578125,-0.5279541015625,0.1875,-0.0430908203125
5.036,310,710,927,310,-2.0,39.0,43.0,35.94970703125,19.71435546875,-0.0610351525247097,-0.5860595703125,0.107177734375,-0.0870361328125
5.037,308,683,895,298,-2.0,39.0,43.0,29.479978561401367,20.996091842651367,-7.141112804412842,-0.6292724609375,-0.032470703125,-0.12646484375
5.045,310,669,882,310,-2.0,39.0,43.0,24.169919967651367,21.484373092651367,-9.033203125,-0.6673583984375,0.00341796875,-0.1470947265625
5.053,310,664,868,311,-2.0,39.0,43.0,24.169919967651367,21.484373092651367,-9.033203125,-0.7044677734375,0.155029296875,-0.1678466796875
5.069,310,654,853,311,-2.0,39.0,43.0,10.009765625,9.1552734375,3.906249761581421,-0.7401123046875,0.3094482421875,-0.1912841796875
5.075,310,651,846,311,-2.0,39.0,43.0,2.25830078125,1.0986328125,10.314940452575684,-0.7381591796875,0.3709716796875,-0.174560546875
5.084,311,657,845,312,-7.0,41.0,44.0,2.25830078125,1.0986328125,10.314940452575684,-0.73193359375,0.3563232421875,-0.1190185546875
5.104,310,662,846,311,-7.0,41.0,44.0,-9.33837890625,-6.713866710662842,14.221190452575684,-0.73828125,0.362060546875,-0.0469970703125
5.105,310,671,846,312,-7.0,41.0,44.0,-11.596678733825684,-8.23974609375,14.526366233825684,-0.753662109375,0.381103515625,0.0152587890625
5.134,310,674,848,310,-7.0,41.0,44.0,-11.596678733825684,-8.23974609375,14.526366233825684,-0.773193359375,0.3785400390625,0.052001953125
5.134,310,688,864,310,-7.0,41.0,44.0,-12.145995140075684,-6.774901866912842,11.779784202575684,-0.7720947265625,0.3326416015625,0.0706787109375
5.136,311,697,872,310,-7.0,41.0,44.0,-11.474608421325684,-4.21142578125,10.253905296325684,-0.7569580078125,0.271484375,0.077880859375
5.144,310,710,886,311,-7.0,41.0,44.0,-11.474608421325684,-4.21142578125,10.253905296325684,-0.7535400390625,0.2445068359375,0.06689453125
5.157,310,725,907,310,-7.0,41.0,44.0,-4.0283203125,-0.7324218153953552,8.9111328125,-0.7562255859375,0.251953125,0.0377197265625
5.165,310,741,919,310,-7.0,41.0,44.0,1.0986328125,-1.220703125,8.36181640625,-0.7435302734375,0.277587890625,-0.004638671875
5.173,310,758,939,310,-7.0,41.0,44.0,5.249022960662842,-2.929687261581421,8.11767578125,-0.7132568359375,0.318115234375,-0.0489501953125
5.188,311,810,995,312,-7.0,38.0,42.0,6.652831554412842,-5.676269054412842,8.36181640625,-0.65771484375,0.3343505859375,-0.0533447265625
5.196,311,834,1050,311,-7.0,38.0,42.0,5.371093273162842,-9.033203125,8.23974609375,-0.595703125,0.31005859375,-0.0274658203125
5.206,310,873,1096,312,-7.0,38.0,42.0,2.685546636581421,-10.070799827575684,8.11767578125,-0.5654296875,0.2943115234375,-0.05126953125
5.239,310,934,1176,310,-7.0,38.0,42.0,-0.6713866591453552,-7.446288585662842,8.72802734375,-0.5638427734375,0.3055419921875,-0.1241455078125
5.240,310,978,1236,312,-7.0,38.0,42.0,-6.225585460662842,-4.8828125,8.72802734375,-0.5263671875,0.284423828125,-0.164794921875
5.240,310,1029,1302,312,-7.0,38.0,42.0,-13.427733421325684,-6.774901866912842,4.45556640625,-0.423828125,0.0946044921875,-0.1282958984375
5.247,310,1123,1444,312,-7.0,38.0,42.0,-13.061522483825684,-12.939452171325684,-5.310058116912842,-0.349853515625,-0.1759033203125,-0.05126953125
5.255,311,1157,1519,312,-7.0,38.0,42.0,3.112792730331421,-19.47021484375,-15.075682640075684,-0.4857177734375,-0.1737060546875,-0.0791015625
5.263,310,1192,1585,312,-7.0,38.0,42.0,22.705076217651367,-25.146482467651367,-18.73779296875,-0.8651123046875,0.1724853515625,-0.2105712890625
5.277,310,1243,1669,312,-7.0,38.0,42.0,23.254392623901367,-32.28759765625,-17.88330078125,-1.2940673828125,0.510498046875,-0.2861328125
5.285,310,1271,1708,312,-5.0,39.0,48.0,1.0986328125,-40.0390625,-18.24951171875,-1.6124267578125,0.692626953125,-0.2391357421875
5.293,311,1292,1732,312,-5.0,39.0,48.0,-27.404783248901367,-43.762203216552734,-19.6533203125,-1.851806640625,0.8216552734375,-0.145263671875
5.310,310,1323,1763,312,-5.0,39.0,48.0,-46.691890716552734,-43.823238372802734,-21.362302780151367,-2.0028076171875,0.76025390625,0.035888671875
5.342,310,1308,1732,312,-5.0,39.0,48.0,-38.57421875,-32.77587890625,-17.88330078125,-1.745361328125,0.0894775390625,0.5244140625
5.342,310,1281,1683,312,-5.0,39.0,48.0,-11.779784202575684,-13.793944358825684,-6.591796398162842,-1.206787109375,-0.16162109375,0.543212890625
5.345,310,1257,1655,312,-5.0,39.0,48.0,23.864744186401367,10.253905296325684,6.286620616912842,-0.8631591796875,0.0673828125,0.20556640625
5.354,310,1258,1666,312,-5.0,39.0,48.0,42.480464935302734,24.780271530151367,12.634276390075684,-0.9156494140625,0.5335693359375,-0.2410888671875
5.367,311,1253,1653,312,-5.0,39.0,48.0,32.1044921875,21.484373092651367,6.164550304412842,-1.2203369140625,0.8043212890625,-0.4351806640625
5.377,311,1239,1637,313,-5.0,39.0,48.0,5.554198741912842,7.080077648162842,-9.27734375,-1.5831298828125,0.8013916015625,-0.3350830078125
5.384,310,1216,1607,312,-4.0,40.0,49.0,-20.507810592651367,-6.469726085662842,-23.193357467651367,-1.7689208984375,0.5882568359375,-0.087646484375
5.397,312,1170,1543,312,-4.0,40.0,49.0,-32.53173828125,-11.291502952575684,-28.442380905151367,-1.72412109375,0.3369140625,0.1136474609375
5.414,311,1129,1503,312,-4.0,40.0,49.0,-28.686521530151367,-6.896972179412842,-23.742673873901367,-1.546142578125,0.2001953125,0.2137451171875
5.414,311,1089,1462,312,-4.0,40.0,49.0,-17.08984375,2.807616949081421,-11.291502952575684,-1.365966796875,0.2296142578125,0.2227783203125
5.454,311,999,1355,312,-4.0,40.0,49.0,-5.554198741912842,13.183592796325684,2.868652105331421,-1.201171875,0.252197265625,0.2086181640625
5.455,311,959,1282,312,-4.0,40.0,49.0,3.784179449081421,21.240232467651367,12.512206077575684,-1.0146484375,0.1807861328125,0.2144775390625
5.455,310,912,1204,312,-4.0,40.0,49.0,12.268065452575684,27.221677780151367,17.63916015625,-0.8216552734375,0.1016845703125,0.1861572265625
5.457,310,840,1099,312,-4.0,40.0,49.0,20.507810592651367,31.494138717651367,20.629880905151367,-0.6796875,0.0906982421875,0.106689453125
5.466,310,806,1065,312,-4.0,40.0,49.0,28.930662155151367,33.3251953125,20.935056686401367,-0.6180419921875,0.1458740234375,-0.0089111328125
5.475,310,772,1011,310,-4.0,40.0,49.0,35.64453125,33.02001953125,16.90673828125,-0.625244140625,0.183837890625,-0.1070556640625
5.487,310,705,918,310,-7.0,39.0,39.0,37.29248046875,30.273435592651367,8.4228515625,-0.654296875,0.0380859375,-0.11376953125
5.495,310,666,875,310,-7.0,39.0,39.0,34.48486328125,27.343748092651367,-1.6479490995407104,-0.654296875,0.0380859375,-0.11376953125
5.503,310,636,840,310,-7.0,39.0,39.0,30.578611373901367,28.198240280151367,-8.30078125,-0.648193359375,0.00537109375,-0.1778564453125
5.517,310,599,790,311,-7.0,39.0,39.0,25.939939498901367,28.747556686401367,-8.7890625,-0.66015625,0.1983642578125,-0.2001953125
5.543,310,578,772,310,-7.0,39.0,39.0,19.47021484375,24.230955123901367,-4.21142578125,-0.66015625,0.1983642578125,-0.2001953125
5.544,309,574,764,311,-7.0,39.0,39.0,13.610838890075684,17.08984375,1.5258787870407104,-0.66357421875,0.30126953125,-0.191650390625
5.547,311,574,767,311,-7.0,39.0,39.0,9.521484375,10.498045921325684,4.94384765625,-0.6483154296875,0.395751953125,-0.1114501953125
5.556,310,579,770,311,-7.0,39.0,39.0,5.493163585662842,4.638671875,6.591796398162842,-0.6483154296875,0.395751953125,-0.1114501953125
5.563,310,590,780,310,-7.0,39.0,39.0,0.7324218153953552,-1.03759765625,7.995604991912842,-0.6488037109375,0.439453125,-0.0609130859375
5.578,310,604,795,311,-7.0,39.0,40.0,-3.723144292831421,-5.920409679412842,8.60595703125,-0.6962890625,0.4276123046875,0.00830078125
5.585,310,613,803,310,-7.0,39.0,40.0,-7.141112804412842,-8.1787109375,7.507323741912842,-0.6962890625,0.4276123046875,0.00830078125
5.594,311,621,813,312,-7.0,39.0,40.0,-9.521484375,-7.263183116912842,5.0048828125,-0.7222900390625,0.35888671875,0.03271484375
5.607,312,644,840,310,-7.0,39.0,40.0,-10.498045921325684,-4.0283203125,2.685546636581421,-0.71142578125,0.228271484375,0.106689453125
5.616,310,659,854,311,-7.0,39.0,40.0,-9.521484375,-0.4272460639476776,1.8920897245407104,-0.71142578125,0.228271484375,0.106689453125
5.634,310,682,867,312,-7.0,39.0,40.0,-6.713866710662842,1.5258787870407104,2.197265625,-0.70458984375,0.22705078125,0.11474609375
5.638,310,712,895,312,-7.0,39.0,40.0,2.624511480331421,0.9765624403953552,4.0283203125,-0.7373046875,0.2742919921875,0.029541015625
5.651,310,741,927,311,-7.0,39.0,40.0,2.624511480331421,0.9765624403953552,4.0283203125,-0.7530517578125,0.3134765625,-0.028564453125
5.654,310,777,958,312,-7.0,39.0,40.0,4.45556640625,-0.30517578125,5.798339366912842,-0.7530517578125,0.3134765625,-0.028564453125
5.667,310,834,1014,312,-7.0,39.0,40.0,-6.591796398162842,0.30517578125,9.33837890625,-0.714599609375,0.2994384765625,-0.1165771484375
5.676,310,867,1065,311,-7.0,39.0,40.0,-6.591796398162842,0.30517578125,9.33837890625,-0.6859130859375,0.2681884765625,-0.1583251953125
5.686,311,901,1115,311,-8.0,39.0,40.0,-13.732909202575684,4.2724609375,11.535643577575684,-0.6859130859375,0.2681884765625,-0.1583251953125
5.697,311,985,1231,312,-8.0,39.0,40.0,-15.930174827575684,3.417968511581421,12.573241233825684,-0.6260986328125,0.2054443359375,-0.116943359375
5.705,311,1026,1294,312,-8.0,39.0,40.0,-15.930174827575684,3.417968511581421,12.573241233825684,-0.5576171875,0.0821533203125,-0.0953369140625
5.719,310,1074,1369,312,-8.0,39.0,40.0,-8.36181640625,-2.624511480331421,5.371093273162842,-0.5576171875,0.0821533203125,-0.0953369140625
5.742,310,1145,1488,312,-8.0,39.0,40.0,15.930174827575684,-13.549803733825684,-15.380858421325684,-0.411865234375,-0.076416015625,-0.0821533203125
5.745,310,1186,1567,311,-8.0,39.0,40.0,15.930174827575684,-13.549803733825684,-15.380858421325684,-0.6510009765625,0.13525390625,-0.148193359375
5.746,310,1216,1619,313,-8.0,39.0,40.0,22.888181686401367,-15.258788108825684,-20.996091842651367,-0.6510009765625,0.13525390625,-0.148193359375
5.809,310,1268,1689,312,-8.0,39.0,40.0,-8.7890625,-22.644041061401367,-21.972654342651367,-1.541259765625,0.5748291015625,-0.2030029296875
5.809,311,1290,1718,313,-8.0,39.0,40.0,-8.7890625,-22.644041061401367,-21.972654342651367,-1.972412109375,0.729736328125,-0.2064208984375
5.809,311,1309,1739,312,-8.0,39.0,40.0,-33.99658203125,-24.414060592651367,-21.057126998901367,-1.972412109375,0.729736328125,-0.2064208984375
5.810,311,1306,1718,312,-4.0,39.0,41.0,-63.232418060302734,-26.306150436401367,-13.854979515075684,-2.2830810546875,0.502197265625,0.1474609375
5.810,311,1289,1681,310,-4.0,39.0,41.0,-52.673336029052734,-22.094724655151367,-8.11767578125,-1.732177734375,0.0069580078125,0.51904296875
5.810,311,1267,1662,312,-4.0,39.0,41.0,-52.673336029052734,-22.094724655151367,-8.11767578125,-1.01220703125,-0.1627197265625,0.5386962890625
5.823,310,1239,1622,312,-4.0,39.0,41.0,36.2548828125,23.193357467651367,10.864256858825684,-0.7667236328125,0.281494140625,0.03564453125
5.826,310,1237,1627,312,-4.0,39.0,41.0,48.889156341552734,33.3251953125,11.352538108825684,-0.958251953125,0.748046875,-0.4598388671875
5.844,310,1231,1627,312,-4.0,39.0,41.0,48.889156341552734,33.3251953125,11.352538108825684,-1.333984375,0.8463134765625,-0.5706787109375
5.848,311,1214,1600,312,-4.0,39.0,41.0,-10.253905296325684,0.4882812201976776,-19.95849609375,-1.6591796875,0.656982421875,-0.358154296875
5.863,315,1196,1569,312,-4.0,39.0,41.0,-36.07177734375,-15.319823265075684,-29.602048873901367,-1.7840576171875,0.3985595703125,-0.05908203125
5.863,310,1175,1540,312,-4.0,39.0,41.0,-36.07177734375,-15.319823265075684,-29.602048873901367,-1.7376708984375,0.2347412109375,0.14208984375
5.877,311,1112,1457,312,-4.0,38.0,39.0,-29.479978561401367,-13.183592796325684,-14.648436546325684,-1.616455078125,0.22119140625,0.2135009765625
5.885,311,1071,1398,311,-4.0,38.0,39.0,-14.099120140075684,-1.6479490995407104,1.8920897245407104,-1.473388671875,0.289794921875,0.194580078125
5.893,310,1022,1321,312,-4.0,38.0,39.0,-14.099120140075684,-1.6479490995407104,1.8920897245407104,-1.265869140625,0.265869140625,0.1796875
5.907,310,933,1206,312,-4.0,38.0,39.0,7.629394054412842,16.78466796875,23.925779342651367,-0.9642333984375,0.156005859375,0.1954345703125
5.915,311,890,1141,312,-4.0,38.0,39.0,22.583005905151367,22.949216842651367,25.878904342651367,-0.646728515625,0.0579833984375,0.16455078125
5.923,310,848,1067,312,-4.0,38.0,39.0,22.583005905151367,22.949216842651367,25.878904342651367,-0.4542236328125,0.0386962890625,0.0528564453125
5.941,310,782,966,311,-4.0,38.0,39.0,58.166500091552734,32.65380859375,19.83642578125,-0.43994140625,0.12646484375,-0.1033935546875
5.947,309,749,907,311,-4.0,38.0,39.0,63.781734466552734,31.372068405151367,11.779784202575684,-0.524658203125,0.200927734375,-0.2054443359375
5.953,310,713,860,312,-4.0,38.0,39.0,54.565425872802734,25.756834030151367,1.0986328125,-0.6192626953125,0.1729736328125,-0.243408203125
5.969,310,654,803,312,-4.0,38.0,39.0,37.841796875,21.179197311401367,-8.60595703125,-0.689208984375,0.15625,-0.260009765625
5.975,312,607,763,311,-7.0,39.0,39.0,20.935056686401367,17.15087890625,-14.038084983825684,-0.6968994140625,0.1796875,-0.219482421875
5.983,310,607,766,310,-7.0,39.0,39.0,7.507323741912842,11.596678733825684,-14.709471702575684,-0.6829833984375,0.188720703125,-0.1708984375
5.997,310,583,754,311,-7.0,39.0,39.0,-0.1220703050494194,6.530761241912842,-11.352538108825684,-0.68505859375,0.21533203125,-0.16015625
6.005,310,574,751,310,-7.0,39.0,39.0,-1.9531248807907104,2.50244140625,-6.835937023162842,-0.6890869140625,0.2591552734375,-0.1392822265625
6.014,310,567,745,312,-7.0,39.0,39.0,-1.5869139432907104,-1.5869139432907104,-3.906249761581421,-0.7030029296875,0.316162109375,-0.096435546875
6.027,310,562,753,311,-7.0,39.0,39.0,-2.13623046875,-6.225585460662842,-2.685546636581421,-0.6998291015625,0.376708984375,-0.04931640625
6.050,310,572,763,311,-7.0,39.0,39.0,-3.234863042831421,-10.070799827575684,-2.44140625,-0.678466796875,0.4012451171875,-0.0146484375
6.053,310,580,770,310,-7.0,39.0,39.0,-5.065917491912842,-11.962889671325684,-2.0751953125,-0.6771240234375,0.3922119140625,0.0101318359375
6.057,310,594,780,311,-7.0,39.0,39.0,-7.690429210662842,-11.779784202575684,-1.220703125,-0.7169189453125,0.3831787109375,0.01904296875
6.065,310,605,784,311,-7.0,39.0,39.0,-10.375975608825684,-10.070799827575684,-0.6713866591453552,-0.75341796875,0.3385009765625,0.0194091796875
6.075,312,616,796,311,-3.0,39.0,42.0,-12.451170921325684,-7.507323741912842,-0.30517578125,-0.75439453125,0.2384033203125,0.0439453125
6.087,310,642,823,311,-3.0,39.0,42.0,-13.183592796325684,-4.8828125,1.2817381620407104,-0.7484130859375,0.1693115234375,0.07470703125
6.095,310,657,846,312,-3.0,39.0,42.0,-11.413573265075684,-3.051757574081421,4.0283203125,-0.755615234375,0.1734619140625,0.07275390625
6.103,311,669,861,311,-3.0,39.0,42.0,-7.019042491912842,-2.685546636581421,6.408690929412842,-0.771728515625,0.225341796875,0.0374755859375
6.117,311,710,901,311,-3.0,39.0,42.0,-2.25830078125,-3.967284917831421,7.873534679412842,-0.78173828125,0.2738037109375,-0.015380859375
6.135,310,736,927,311,-3.0,39.0,42.0,-0.30517578125,-6.408690929412842,9.58251953125,-0.7496337890625,0.282958984375,-0.0474853515625
6.140,311,778,973,310,-3.0,39.0,42.0,-2.25830078125,-9.09423828125,11.779784202575684,-0.65771484375,0.2596435546875,-0.0269775390625
6.152,310,840,1069,312,-3.0,39.0,42.0,-5.859374523162842,-11.047362327575684,13.610838890075684,-0.566162109375,0.2474365234375,-0.0020751953125
6.156,310,877,1129,312,-3.0,39.0,42.0,-8.4228515625,-11.108397483825684,14.587401390075684,-0.5313720703125,0.2760009765625,-0.0543212890625
6.164,310,932,1206,312,-3.0,39.0,42.0,-9.521484375,-9.09423828125,15.014647483825684,-0.5498046875,0.3118896484375,-0.1673583984375
6.184,310,1017,1325,311,-3.0,38.0,42.0,-12.939452171325684,-7.507323741912842,14.831542015075684,-0.535888671875,0.1455078125,-0.19140625
6.186,310,1064,1413,312,-3.0,38.0,42.0,-19.34814453125,-9.3994140625,11.535643577575684,-0.535888671875,0.1455078125,-0.19140625
6.195,310,1112,1492,311,-3.0,38.0,42.0,-20.935056686401367,-14.587401390075684,1.15966796875,-0.4222412109375,-0.0867919921875,-0.025390625
6.208,310,1189,1608,312,-3.0,38.0,42.0,-10.620116233825684,-18.85986328125,-13.122557640075684,-0.7139892578125,0.17822265625,-0.0074462890625
6.216,310,1234,1662,311,-3.0,38.0,42.0,4.82177734375,-20.141599655151367,-22.888181686401367,-0.7139892578125,0.17822265625,-0.0074462890625
6.231,310,1266,1705,311,-3.0,38.0,42.0,9.82666015625,-22.033689498901367,-27.832029342651367,-1.18408203125,0.5172119140625,-0.1400146484375
6.253,310,1309,1748,312,-3.0,38.0,42.0,-4.5166015625,-25.939939498901367,-31.982419967651367,-2.1278076171875,0.692626953125,-0.2337646484375
6.254,311,1323,1772,300,-3.0,38.0,42.0,-31.311033248901367,-28.991697311401367,-33.8134765625,-2.1278076171875,0.692626953125,-0.2337646484375
6.257,310,1323,1757,311,-3.0,38.0,42.0,-55.603023529052734,-31.433103561401367,-30.151365280151367,-2.347412109375,0.625732421875,-0.034423828125
6.268,310,1295,1727,312,-3.0,38.0,42.0,-63.232418060302734,-31.982419967651367,-22.705076217651367,-1.6046142578125,-0.123291015625,0.6085205078125
6.276,310,1281,1702,312,-4.0,40.0,44.0,-41.809078216552734,-22.399900436401367,-13.183592796325684,-1.6046142578125,-0.123291015625,0.6085205078125
6.289,310,1258,1674,312,-4.0,40.0,44.0,7.263183116912842,0.9155272841453552,-0.0610351525247097,-0.9306640625,-0.173828125,0.514892578125
6.304,310,1251,1669,314,-4.0,40.0,44.0,50.170894622802734,25.634763717651367,13.671874046325684,-1.0478515625,0.7591552734375,-0.49609375
6.306,310,1246,1666,312,-4.0,40.0,44.0,52.185054779052734,32.3486328125,16.11328125,-1.0478515625,0.7591552734375,-0.49609375
6.314,311,1241,1652,312,-4.0,40.0,44.0,22.216794967651367,18.37158203125,2.50244140625,-1.4425048828125,0.8134765625,-0.5494384765625
6.334,310,1215,1608,312,-4.0,40.0,44.0,-32.65380859375,-20.080564498901367,-26.428220748901367,-1.81103515625,0.3927001953125,0.0244140625
6.337,311,1186,1567,312,-4.0,40.0,44.0,-32.65380859375,-20.080564498901367,-26.428220748901367,-1.7197265625,0.2879638671875,0.2122802734375
6.361,310,1147,1518,312,-4.0,40.0,44.0,-30.822751998901367,-22.766111373901367,-24.963376998901367,-1.7197265625,0.2879638671875,0.2122802734375
6.361,310,1074,1422,312,-4.0,40.0,44.0,4.21142578125,-2.563476324081421,-3.784179449081421,-1.4364013671875,0.367431640625,0.188720703125
6.367,310,1022,1361,312,-4.0,40.0,44.0,4.21142578125,-2.563476324081421,-3.784179449081421,-1.250732421875,0.324951171875,0.1268310546875
6.374,310,968,1282,312,-4.0,38.0,43.0,18.12744140625,7.202147960662842,5.187987804412842,-1.250732421875,0.324951171875,0.1268310546875
6.398,310,879,1157,311,-4.0,38.0,43.0,30.578611373901367,20.690916061401367,12.756346702575684,-0.636962890625,-0.02197265625,0.150634765625
6.398,310,834,1078,296,-4.0,38.0,43.0,30.578611373901367,20.690916061401367,12.756346702575684,-0.4052734375,-0.18896484375,0.162109375
6.404,311,795,1034,312,-4.0,38.0,43.0,34.24072265625,27.038572311401367,15.075682640075684,-0.4052734375,-0.18896484375,0.162109375
6.418,310,725,923,311,-4.0,38.0,43.0,46.691890716552734,35.5224609375,18.61572265625,-0.4478759765625,0.056640625,-0.039306640625
6.427,310,697,868,311,-4.0,38.0,43.0,46.691890716552734,35.5224609375,18.61572265625,-0.5662841796875,0.134033203125,-0.1669921875
6.437,310,658,835,312,-4.0,38.0,43.0,42.358394622802734,35.46142578125,15.686034202575684,-0.5662841796875,0.134033203125,-0.1669921875
6.465,310,631,806,310,-4.0,38.0,43.0,18.98193359375,29.541013717651367,0.0,-0.6419677734375,0.12060546875,-0.21923828125
6.465,310,616,784,312,-4.0,38.0,43.0,18.98193359375,29.541013717651367,0.0,-0.651611328125,0.2056884765625,-0.226318359375
6.465,310,607,790,311,-4.0,38.0,43.0,8.60595703125,23.132322311401367,-1.220703125,-0.659423828125,0.3267822265625,-0.2418212890625
6.478,310,608,794,308,-7.0,40.0,45.0,-4.21142578125,6.958007335662842,7.629394054412842,-0.6719970703125,0.40869140625,-0.2130126953125
6.486,310,616,803,312,-7.0,40.0,45.0,-8.36181640625,-0.9765624403953552,9.09423828125,-0.6907958984375,0.4173583984375,-0.1346435546875
6.503,309,620,808,312,-7.0,40.0,45.0,-8.36181640625,-0.9765624403953552,9.09423828125,-0.7034912109375,0.4246826171875,-0.056640625
6.509,310,632,816,310,-7.0,40.0,45.0,-13.977049827575684,-10.803221702575684,7.263183116912842,-0.72705078125,0.438720703125,-0.0068359375
6.517,310,643,819,311,-7.0,40.0,45.0,-15.991209983825684,-11.169432640075684,6.835937023162842,-0.748779296875,0.3875732421875,0.0262451171875
6.524,310,648,823,311,-7.0,40.0,45.0,-15.991209983825684,-11.169432640075684,6.835937023162842,-0.746826171875,0.26416015625,0.052001953125
6.538,311,671,840,311,-7.0,40.0,45.0,-16.90673828125,-6.164550304412842,7.690429210662842,-0.730712890625,0.183349609375,0.0784912109375
6.567,310,688,859,312,-7.0,40.0,45.0,-13.916014671325684,-3.356933355331421,10.986327171325684,-0.7197265625,0.195556640625,0.1005859375
6.567,310,705,873,311,-7.0,40.0,45.0,-13.916014671325684,-3.356933355331421,10.986327171325684,-0.720947265625,0.2391357421875,0.0947265625
6.568,310,739,907,310,-7.0,40.0,45.0,-4.8828125,-2.3193359375,13.793944358825684,-0.720458984375,0.27197265625,0.0662841796875
6.577,310,766,935,312,-7.0,38.0,40.0,-2.50244140625,-3.051757574081421,12.451170921325684,-0.7086181640625,0.292236328125,0.0390625
6.584,310,799,976,311,-7.0,38.0,40.0,-2.50244140625,-3.051757574081421,12.451170921325684,-0.6932373046875,0.3045654296875,0.0093994140625
6.598,309,858,1039,312,-7.0,38.0,40.0,-5.798339366912842,-4.69970703125,8.544921875,-0.683837890625,0.324462890625,-0.0584716796875
6.614,310,890,1096,312,-7.0,38.0,40.0,-10.253905296325684,-3.112792730331421,7.202147960662842,-0.6771240234375,0.3526611328125,-0.149169921875
6.614,310,939,1160,312,-7.0,38.0,40.0,-10.253905296325684,-3.112792730331421,7.202147960662842,-0.6072998046875,0.373291015625,-0.1737060546875
6.628,310,1014,1273,313,-7.0,38.0,40.0,-19.22607421875,-2.44140625,0.7934569716453552,-0.4500732421875,0.3067626953125,-0.11474609375
6.641,310,1063,1351,312,-7.0,38.0,40.0,-17.333984375,-7.751464366912842,-9.70458984375,-0.3411865234375,0.1671142578125,-0.0806884765625
6.644,310,1108,1430,312,-7.0,38.0,40.0,-7.080077648162842,-14.465331077575684,-22.094724655151367,-0.4119873046875,0.1109619140625,-0.173583984375
6.663,311,1184,1557,312,-7.0,38.0,40.0,4.45556640625,-21.179197311401367,-33.14208984375,-0.7054443359375,0.2066650390625,-0.3634033203125
6.667,310,1226,1621,312,-7.0,38.0,40.0,4.57763671875,-29.785154342651367,-41.625972747802734,-1.128662109375,0.386962890625,-0.4508056640625
6.675,311,1253,1666,313,-4.0,39.0,41.0,-13.488768577575684,-42.358394622802734,-47.302242279052734,-1.508056640625,0.4755859375,-0.31982421875
6.690,310,1295,1718,312,-4.0,39.0,41.0,-41.625972747802734,-55.236812591552734,-50.415035247802734,-1.73388671875,0.384521484375,-0.021728515625
6.696,309,1308,1732,312,-4.0,39.0,41.0,-59.936519622802734,-61.157222747802734,-49.438472747802734,-1.8516845703125,0.2716064453125,0.26904296875
6.706,311,1323,1744,312,-4.0,39.0,41.0,-57.617183685302734,-55.419918060302734,-42.419429779052734,-1.9241943359375,0.2491455078125,0.4185791015625
6.718,311,1292,1698,312,-4.0,39.0,41.0,-40.0390625,-40.466304779052734,-30.334470748901367,-1.8917236328125,0.2490234375,0.458251953125
6.726,312,1268,1676,312,-4.0,39.0,41.0,-15.502928733825684,-19.83642578125,-16.54052734375,-1.5244140625,0.0517578125,0.483642578125
6.734,310,1248,1643,312,-4.0,39.0,41.0,13.366698265075684,4.82177734375,-3.540038824081421,-1.0010986328125,-0.122802734375,0.410400390625
6.748,310,1239,1635,312,-4.0,39.0,41.0,34.5458984375,26.000974655151367,8.72802734375,-0.833740234375,0.095703125,0.137451171875
6.757,312,1228,1627,312,-4.0,39.0,41.0,29.541013717651367,33.935546875,17.27294921875,-1.1060791015625,0.4713134765625,-0.1671142578125
6.769,312,1219,1608,310,-4.0,39.0,41.0,3.356933355331421,28.198240280151367,17.08984375,-1.5155029296875,0.6566162109375,-0.2967529296875
6.778,311,1186,1559,312,-3.0,38.0,46.0,-22.949216842651367,18.00537109375,10.253905296325684,-1.7496337890625,0.589111328125,-0.2203369140625
6.786,310,1159,1514,312,-3.0,38.0,46.0,-35.82763671875,10.498045921325684,3.906249761581421,-1.75048828125,0.470703125,-0.050048828125
6.794,311,1123,1457,312,-3.0,38.0,46.0,-33.69140625,7.019042491912842,2.868652105331421,-1.6241455078125,0.432861328125,0.0948486328125
6.808,311,1050,1355,312,-3.0,38.0,46.0,-22.399900436401367,7.812499523162842,6.103515148162842,-1.488037109375,0.411376953125,0.1612548828125
6.821,312,1000,1275,312,-3.0,38.0,46.0,-7.812499523162842,11.962889671325684,9.765625,-1.333740234375,0.3406982421875,0.1898193359375
6.824,310,958,1204,312,-3.0,38.0,46.0,6.896972179412842,17.88330078125,11.901854515075684,-1.131103515625,0.244384765625,0.179931640625
6.846,310,873,1083,312,-3.0,38.0,46.0,18.85986328125,24.536130905151367,13.427733421325684,-0.8631591796875,0.1219482421875,0.1705322265625
6.846,311,833,1042,311,-3.0,38.0,46.0,29.541013717651367,30.639646530151367,13.488768577575684,-0.58642578125,-0.0279541015625,0.1654052734375
6.874,310,797,973,311,-3.0,38.0,46.0,43.090816497802734,36.56005859375,10.864256858825684,-0.430908203125,-0.0836181640625,0.109375
6.874,310,716,856,310,-4.0,39.0,46.0,55.725093841552734,40.832515716552734,7.751464366912842,-0.4600830078125,0.007568359375,0.0003662109375
6.877,310,661,796,310,-4.0,39.0,46.0,59.692378997802734,41.076656341552734,4.0283203125,-0.5460205078125,0.0474853515625,-0.1153564453125
6.886,308,645,778,310,-4.0,39.0,46.0,55.541988372802734,40.344234466552734,-1.2817381620407104,-0.5902099609375,0.0035400390625,-0.2041015625
6.893,310,629,756,311,-4.0,39.0,46.0,47.668453216552734,39.306640625,-4.150390625,-0.6318359375,0.0247802734375,-0.25048828125
6.908,310,592,721,310,-4.0,39.0,46.0,36.62109375,33.26416015625,-1.4648436307907104,-0.6737060546875,0.12939453125,-0.2572021484375
6.929,310,587,712,311,-4.0,39.0,46.0,24.475095748901367,22.888181686401367,5.371093273162842,-0.6981201171875,0.281982421875,-0.2623291015625
6.929,310,588,713,296,-4.0,39.0,46.0,14.465331077575684,12.573241233825684,11.291502952575684,-0.70263671875,0.376220703125,-0.2362060546875
6.937,312,589,718,310,-4.0,39.0,46.0,7.446288585662842,3.845214605331421,12.512206077575684,-0.7020263671875,0.3853759765625,-0.1612548828125
6.950,310,592,732,311,-4.0,39.0,46.0,1.8920897245407104,-2.746581792831421,11.047362327575684,-0.693603515625,0.4136962890625,-0.07958984375
6.953,310,601,742,311,-4.0,39.0,46.0,-3.051757574081421,-6.713866710662842,9.82666015625,-0.6861572265625,0.467041015625,-0.0159912109375
6.971,309,618,754,310,-3.0,39.0,40.0,-8.60595703125,-8.056640625,8.9111328125,-0.710693359375,0.4771728515625,0.02001953125
6.976,310,622,756,310,-3.0,39.0,40.0,-14.221190452575684,-6.958007335662842,6.652831554412842,-0.7373046875,0.400390625,0.0389404296875
6.984,310,634,758,310,-3.0,39.0,40.0,-16.9677734375,-3.417968511581421,3.967284917831421,-0.7420654296875,0.2801513671875,0.0516357421875
6.997,310,660,770,311,-3.0,39.0,40.0,-15.930174827575684,1.15966796875,3.479003667831421,-0.754150390625,0.20556640625,0.0631103515625
7.005,310,677,782,312,-3.0,39.0,40.0,-12.451170921325684,3.784179449081421,5.249022960662842,-0.7716064453125,0.19140625,0.0699462890625
7.016,310,696,799,311,-3.0,39.0,40.0,-6.530761241912842,3.356933355331421,7.019042491912842,-0.786376953125,0.208251953125,0.049560546875
7.035,309,730,833,309,-3.0,39.0,40.0,0.7934569716453552,1.5869139432907104,7.751464366912842,-0.810546875,0.288330078125,-0.0577392578125
7.036,310,764,862,298,-3.0,39.0,40.0,5.859374523162842,-0.8544921278953552,7.934569835662842,-0.810546875,0.288330078125,-0.0577392578125
7.052,310,794,889,312,-3.0,39.0,40.0,6.408690929412842,-3.967284917831421,8.1787109375,-0.7857666015625,0.320068359375,-0.1025390625
7.079,308,846,959,312,-3.0,39.0,40.0,2.990722417831421,-6.286620616912842,8.48388671875,-0.6881103515625,0.29150390625,-0.136474609375
7.080,311,886,1010,312,-5.0,39.0,39.0,-1.2817381620407104,-6.591796398162842,8.544921875,-0.6881103515625,0.29150390625,-0.136474609375
7.081,295,904,1055,306,-5.0,39.0,39.0,-4.5166015625,-6.042479991912842,8.11767578125,-0.621826171875,0.2559814453125,-0.1075439453125
7.087,309,1011,1178,312,-5.0,39.0,39.0,-7.446288585662842,-6.347655773162842,7.202147960662842,-0.4554443359375,0.2652587890625,-0.0517578125
7.096,311,1054,1251,311,-5.0,39.0,39.0,-10.620116233825684,-7.995604991912842,5.371093273162842,-0.4554443359375,0.2652587890625,-0.0517578125
7.104,310,1096,1344,314,-5.0,39.0,39.0,-12.695311546325684,-10.009765625,-0.1831054538488388,-0.3828125,0.25537109375,-0.077880859375
7.118,312,1170,1470,312,-5.0,39.0,39.0,-10.437010765075684,-11.657713890075684,-11.718749046325684,-0.6431884765625,0.119140625,-0.2330322265625
7.125,310,1201,1540,312,-5.0,39.0,39.0,-3.967284917831421,-14.404295921325684,-26.794431686401367,-0.6431884765625,0.119140625,-0.2330322265625
7.154,311,1234,1592,313,-5.0,39.0,39.0,-0.0610351525247097,-19.775390625,-38.330078125,-1.0570068359375,0.2528076171875,-0.2637939453125
7.154,312,1268,1662,312,-5.0,39.0,39.0,-9.82666015625,-27.343748092651367,-41.198726654052734,-1.882080078125,0.45654296875,-0.0780029296875
7.157,307,1292,1678,312,-5.0,39.0,39.0,-37.41455078125,-35.46142578125,-38.63525390625,-2.052734375,0.3233642578125,0.0782470703125
7.166,310,1295,1691,312,-5.0,39.0,39.0,-65.7958984375,-38.57421875,-33.63037109375,-2.052734375,0.3233642578125,0.0782470703125
7.188,310,1279,1649,312,-4.0,39.0,42.0,-63.415523529052734,-20.507810592651367,-10.070799827575684,-1.8731689453125,0.1170654296875,0.324951171875
7.188,312,1257,1625,311,-4.0,39.0,42.0,-63.415523529052734,-20.507810592651367,-10.070799827575684,-1.27001953125,-0.135986328125,0.47802734375
7.194,310,1242,1596,311,-4.0,39.0,42.0,-31.616209030151367,-6.164550304412842,3.723144292831421,-1.27001953125,-0.135986328125,0.47802734375
7.208,310,1232,1588,312,-4.0,39.0,42.0,47.729488372802734,28.442380905151367,23.803709030151367,-0.928466796875,0.5308837890625,-0.076171875
7.218,311,1219,1573,312,-4.0,39.0,42.0,47.729488372802734,28.442380905151367,23.803709030151367,-1.3255615234375,0.9014892578125,-0.3863525390625
7.224,310,1211,1555,313,-4.0,39.0,42.0,45.471187591552734,28.503416061401367,19.287109375,-1.3255615234375,0.9014892578125,-0.3863525390625
7.238,310,1182,1514,312,-4.0,39.0,42.0,-10.070799827575684,2.44140625,-14.404295921325684,-1.687744140625,0.5111083984375,-0.1917724609375
7.260,311,1155,1473,312,-4.0,39.0,42.0,-10.070799827575684,2.44140625,-14.404295921325684,-1.61376953125,0.336181640625,0.0057373046875
7.261,310,1122,1424,312,-4.0,39.0,42.0,-21.301267623901367,-4.45556640625,-19.6533203125,-1.61376953125,0.336181640625,0.0057373046875
7.282,310,1063,1316,312,-2.0,40.0,40.0,-6.103515148162842,-0.3662109076976776,-5.859374523162842,-1.3575439453125,0.2677001953125,0.1131591796875
7.283,311,1020,1246,312,-2.0,40.0,40.0,-6.103515148162842,-0.3662109076976776,-5.859374523162842,-1.138916015625,0.2159423828125,0.1240234375
7.283,310,955,1162,311,-2.0,40.0,40.0,6.774901866912842,6.225585460662842,0.9765624403953552,-1.138916015625,0.2159423828125,0.1240234375
7.297,310,910,1078,312,-2.0,40.0,40.0,29.541013717651367,19.47021484375,8.97216796875,-0.6517333984375,0.0430908203125,0.119384765625
7.305,310,871,1029,312,-2.0,40.0,40.0,38.26904296875,25.512693405151367,10.620116233825684,-0.5130615234375,-0.019775390625,0.0621337890625
7.313,310,835,973,311,-2.0,40.0,40.0,38.26904296875,25.512693405151367,10.620116233825684,-0.5086669921875,0.042236328125,-0.0147705078125
7.327,310,780,889,310,-2.0,40.0,40.0,46.691890716552734,31.555173873901367,10.620116233825684,-0.5828857421875,0.1334228515625,-0.0799560546875
7.337,310,756,861,311,-2.0,40.0,40.0,42.175289154052734,29.663084030151367,6.530761241912842,-0.6531982421875,0.1046142578125,-0.1339111328125
7.344,310,726,840,312,-2.0,40.0,40.0,42.175289154052734,29.663084030151367,6.530761241912842,-0.699462890625,0.0672607421875,-0.1563720703125
7.380,310,700,827,311,-2.0,40.0,40.0,26.062009811401367,24.414060592651367,-1.7700194120407104,-0.70703125,0.123046875,-0.1427001953125
7.387,310,694,816,312,-4.0,39.0,43.0,16.6015625,18.98193359375,-0.4272460639476776,-0.68701171875,0.1806640625,-0.1376953125
7.387,310,685,799,310,-4.0,39.0,43.0,16.6015625,18.98193359375,-0.4272460639476776,-0.6806640625,0.2301025390625,-0.1412353515625
7.387,310,685,797,310,-4.0,39.0,43.0,4.0283203125,9.82666015625,6.713866710662842,-0.690673828125,0.3035888671875,-0.133544921875
7.395,315,684,803,310,-4.0,39.0,43.0,1.220703125,6.591796398162842,9.33837890625,-0.7091064453125,0.3612060546875,-0.114501953125
7.404,310,693,809,310,-4.0,39.0,43.0,1.220703125,6.591796398162842,9.33837890625,-0.7310791015625,0.39306640625,-0.080810546875
7.417,310,705,822,310,-4.0,39.0,43.0,-6.042479991912842,0.0,8.1787109375,-0.7657470703125,0.42724609375,-0.0576171875
7.426,309,705,826,310,-4.0,39.0,43.0,-10.009765625,-2.01416015625,6.774901866912842,-0.802978515625,0.4207763671875,-0.0426025390625
7.434,310,713,830,312,-4.0,39.0,43.0,-10.009765625,-2.01416015625,6.774901866912842,-0.822021484375,0.3292236328125,-0.0164794921875
7.448,311,728,837,311,-4.0,39.0,43.0,-11.352538108825684,-0.54931640625,3.051757574081421,-0.833251953125,0.230712890625,0.012451171875
7.482,310,750,849,311,-8.0,39.0,42.0,-3.601073980331421,1.7089842557907104,5.310058116912842,-0.8533935546875,0.2296142578125,0.0164794921875
7.486,309,770,874,311,-8.0,39.0,42.0,0.6103515625,0.8544921278953552,7.141112804412842,-0.8563232421875,0.2677001953125,-0.0340576171875
7.487,310,780,889,311,-8.0,39.0,42.0,4.08935546875,-0.3662109076976776,8.30078125,-0.873291015625,0.2958984375,-0.11669921875
7.493,310,793,902,310,-8.0,39.0,42.0,4.94384765625,-1.5258787870407104,9.27734375,-0.9019775390625,0.3004150390625,-0.19775390625
7.508,309,824,922,311,-8.0,39.0,42.0,1.03759765625,-2.990722417831421,11.108397483825684,-0.9039306640625,0.2601318359375,-0.22216796875
7.516,309,840,947,311,-8.0,39.0,42.0,-6.835937023162842,-5.187987804412842,15.136717796325684,-0.8548583984375,0.220458984375,-0.1639404296875
7.525,309,865,984,312,-8.0,39.0,42.0,-13.061522483825684,-7.934569835662842,19.83642578125,-0.7447509765625,0.2327880859375,-0.0521240234375
7.537,310,920,1067,312,-8.0,39.0,42.0,-10.437010765075684,-10.192870140075684,21.118162155151367,-0.62451171875,0.2677001953125,0.0208740234375
7.545,310,959,1120,311,-8.0,39.0,42.0,-0.9765624403953552,-11.169432640075684,18.37158203125,-0.562744140625,0.32080078125,-0.0135498046875
7.553,310,994,1173,312,-8.0,39.0,42.0,4.94384765625,-12.145995140075684,13.977049827575684,-0.51611328125,0.3519287109375,-0.0821533203125
7.579,310,1070,1295,311,-4.0,39.0,41.0,2.807616949081421,-14.343260765075684,7.263183116912842,-0.470458984375,0.3145751953125,-0.1048583984375
7.583,310,1105,1381,312,-4.0,39.0,41.0,-0.7324218153953552,-18.37158203125,-4.82177734375,-0.461669921875,0.23583984375,-0.0906982421875
7.590,311,1147,1452,313,-4.0,39.0,41.0,2.3193359375,-23.803709030151367,-22.583005905151367,-0.5224609375,0.1668701171875,-0.101806640625
7.598,311,1206,1562,312,-4.0,39.0,41.0,9.765625,-27.893064498901367,-39.1845703125,-0.7196044921875,0.19677734375,-0.187255859375
7.605,310,1239,1615,312,-4.0,39.0,41.0,9.58251953125,-30.822751998901367,-46.569820404052734,-1.0211181640625,0.305419921875,-0.229248046875
7.614,310,1266,1662,313,-4.0,39.0,41.0,-7.568358898162842,-35.70556640625,-44.677730560302734,-1.3182373046875,0.3265380859375,-0.118408203125
7.628,311,1295,1708,312,-4.0,39.0,41.0,-35.400390625,-39.73388671875,-38.2080078125,-1.556396484375,0.23046875,0.0506591796875
7.636,310,1309,1725,312,-4.0,39.0,41.0,-53.405757904052734,-37.29248046875,-29.418943405151367,-1.734130859375,0.17236328125,0.153564453125
7.644,312,1313,1732,312,-4.0,39.0,41.0,-49.682613372802734,-27.587888717651367,-18.24951171875,-1.873291015625,0.25634765625,0.1416015625
7.664,312,1302,1695,313,-4.0,39.0,41.0,-34.97314453125,-16.05224609375,-5.859374523162842,-1.8931884765625,0.359130859375,0.1036376953125
7.692,310,1286,1676,312,-3.0,38.0,41.0,-22.521970748901367,-6.774901866912842,5.493163585662842,-1.5576171875,0.2269287109375,0.195068359375
7.693,310,1266,1640,313,-3.0,38.0,41.0,-7.385253429412842,2.929687261581421,14.038084983825684,-1.036376953125,0.067626953125,0.2916259765625
7.693,310,1214,1610,311,-3.0,38.0,41.0,13.916014671325684,14.770506858825684,18.5546875,-0.8197021484375,0.2811279296875,0.130615234375
7.695,311,1236,1610,312,-3.0,38.0,41.0,25.512693405151367,21.911619186401367,15.563963890075684,-0.9666748046875,0.607421875,-0.1712646484375
7.704,310,1231,1588,312,-3.0,38.0,41.0,18.5546875,18.4326171875,3.417968511581421,-1.2921142578125,0.7286376953125,-0.3468017578125
7.717,310,1207,1546,312,-3.0,38.0,41.0,-1.5258787870407104,6.774901866912842,-11.535643577575684,-1.59130859375,0.6512451171875,-0.3140869140625
7.725,311,1182,1502,312,-3.0,38.0,41.0,-22.888181686401367,-5.310058116912842,-20.202634811401367,-1.711181640625,0.46484375,-0.1407470703125
7.733,311,1151,1453,312,-3.0,38.0,41.0,-32.40966796875,-11.108397483825684,-19.4091796875,-1.6885986328125,0.3345947265625,0.0048828125
7.747,310,1087,1363,312,-3.0,38.0,41.0,-28.198240280151367,-9.58251953125,-11.596678733825684,-1.6064453125,0.30517578125,0.0660400390625
7.755,310,1042,1294,312,-3.0,38.0,41.0,-16.66259765625,-4.57763671875,-2.01416015625,-1.4635009765625,0.2857666015625,0.1048583984375
7.766,310,994,1231,312,-3.0,38.0,45.0,-2.807616949081421,0.7934569716453552,5.310058116912842,-1.2335205078125,0.2254638671875,0.1307373046875
7.787,310,918,1123,312,-3.0,38.0,45.0,9.46044921875,6.042479991912842,10.742186546325684,-0.656494140625,-0.0181884765625,0.1629638671875
7.796,310,884,1078,312,-3.0,38.0,45.0,19.53125,10.681151390075684,14.709471702575684,-0.656494140625,-0.0181884765625,0.1629638671875
7.797,311,846,1039,312,-3.0,38.0,45.0,31.127927780151367,16.29638671875,16.11328125,-0.45361328125,-0.0689697265625,0.1522216796875
7.807,308,780,959,311,-3.0,38.0,45.0,43.212886810302734,23.376462936401367,15.319823265075684,-0.5107421875,0.1654052734375,-0.0357666015625
7.818,311,741,917,312,-3.0,38.0,45.0,46.997066497802734,27.832029342651367,12.207030296325684,-0.5107421875,0.1654052734375,-0.0357666015625
7.824,310,710,886,311,-3.0,38.0,45.0,40.954586029052734,28.015134811401367,5.126952648162842,-0.5802001953125,0.059814453125,-0.09619140625
7.837,310,659,849,310,-3.0,38.0,45.0,33.63037109375,27.526853561401367,-2.13623046875,-0.667724609375,0.0357666015625,-0.18701171875
7.845,310,646,837,310,-3.0,38.0,45.0,28.686521530151367,25.695798873901367,-2.807616949081421,-0.667724609375,0.0357666015625,-0.18701171875
7.853,311,636,832,312,-3.0,38.0,45.0,23.071287155151367,19.71435546875,3.112792730331421,-0.7259521484375,0.2132568359375,-0.2432861328125
7.870,310,638,832,310,-4.0,38.0,42.0,14.892577171325684,10.803221702575684,10.681151390075684,-0.7467041015625,0.4049072265625,-0.2083740234375
7.890,310,634,833,311,-4.0,38.0,42.0,5.126952648162842,2.25830078125,15.075682640075684,-0.7467041015625,0.4049072265625,-0.2083740234375
7.902,310,636,837,312,-4.0,38.0,42.0,-3.295898199081421,-4.45556640625,15.502928733825684,-0.744140625,0.384033203125,-0.121337890625
7.902,309,650,848,311,-4.0,38.0,42.0,-7.568358898162842,-9.33837890625,14.099120140075684,-0.7340087890625,0.3941650390625,0.0118408203125
7.905,310,660,858,311,-4.0,38.0,42.0,-8.36181640625,-11.779784202575684,12.634276390075684,-0.7340087890625,0.3941650390625,0.0118408203125
7.914,310,671,855,310,-4.0,38.0,42.0,-9.21630859375,-11.657713890075684,11.718749046325684,-0.7489013671875,0.399169921875,0.037109375
7.929,310,691,871,311,-4.0,38.0,42.0,-12.878417015075684,-7.446288585662842,10.437010765075684,-0.7313232421875,0.2569580078125,0.08740234375
7.938,310,703,885,310,-4.0,38.0,42.0,-12.878417015075684,-7.446288585662842,10.437010765075684,-0.714599609375,0.21435546875,0.106689453125
7.944,310,713,902,312,-4.0,38.0,42.0,-11.352538108825684,-5.0048828125,10.192870140075684,-0.714599609375,0.21435546875,0.106689453125
7.959,312,749,927,311,-4.0,38.0,42.0,1.4648436307907104,-4.21142578125,9.3994140625,-0.722412109375,0.265380859375,0.0279541015625
7.972,310,765,953,311,-6.0,39.0,39.0,1.4648436307907104,-4.21142578125,9.3994140625,-0.733642578125,0.3006591796875,-0.0361328125
7.973,310,790,982,311,-6.0,39.0,39.0,6.347655773162842,-6.286620616912842,9.21630859375,-0.733642578125,0.3006591796875,-0.0361328125
8.004,310,846,1047,311,-6.0,39.0,39.0,0.4272460639476776,-11.047362327575684,10.375975608825684,-0.7232666015625,0.321533203125,-0.078125
8.005,309,884,1074,311,-6.0,39.0,39.0,0.4272460639476776,-11.047362327575684,10.375975608825684,-0.711669921875,0.3038330078125,-0.10595703125
8.006,311,920,1145,312,-6.0,39.0,39.0,-6.958007335662842,-10.620116233825684,10.131834983825684,-0.711669921875,0.3038330078125,-0.10595703125
8.018,310,986,1231,312,-6.0,39.0,39.0,-17.08984375,-8.056640625,9.27734375,-0.5665283203125,0.2025146484375,-0.0499267578125
8.025,310,1034,1306,312,-6.0,39.0,39.0,-17.08984375,-8.056640625,9.27734375,-0.4697265625,0.12744140625,0.0140380859375
8.034,310,1081,1366,312,-6.0,39.0,39.0,-14.953612327575684,-9.3994140625,7.995604991912842,-0.4697265625,0.12744140625,0.0140380859375
8.048,311,1163,1457,311,-6.0,39.0,39.0,13.549803733825684,-10.986327171325684,-2.0751953125,-0.5267333984375,0.09912109375,-0.0013427734375
8.055,310,1206,1527,312,-6.0,39.0,39.0,13.549803733825684,-10.986327171325684,-2.0751953125,-0.791259765625,0.247314453125,-0.12890625
8.064,310,1243,1583,313,-6.0,37.0,43.0,29.663084030151367,-12.084959983825684,-8.48388671875,-0.791259765625,0.247314453125,-0.12890625
8.079,310,1280,1669,312,-6.0,37.0,43.0,16.845703125,-21.118162155151367,-18.00537109375,-1.5343017578125,0.5751953125,-0.3189697265625
8.101,311,1297,1700,312,-6.0,37.0,43.0,-11.169432640075684,-28.686521530151367,-23.254392623901367,-1.7196044921875,0.4588623046875,-0.22314453125
8.104,311,1311,1725,312,-6.0,37.0,43.0,-11.169432640075684,-28.686521530151367,-23.254392623901367,-1.7796630859375,0.3818359375,-0.0643310546875
8.107,311,1326,1743,314,-6.0,37.0,43.0,-34.48486328125,-35.400390625,-20.324705123901367,-1.8271484375,0.44091796875,0.073486328125
8.115,310,1319,1729,312,-6.0,37.0,43.0,-30.700681686401367,-32.77587890625,-11.352538108825684,-1.799560546875,0.44189453125,0.2177734375
8.124,310,1305,1709,312,-6.0,37.0,43.0,-30.700681686401367,-32.77587890625,-11.352538108825684,-1.4755859375,0.2066650390625,0.3594970703125
8.137,310,1267,1665,311,-6.0,37.0,43.0,-2.50244140625,-9.6435546875,0.9155272841453552,-1.022705078125,0.064208984375,0.3402099609375
8.145,310,1258,1662,312,-6.0,37.0,43.0,19.22607421875,6.469726085662842,2.990722417831421,-0.85986328125,0.2786865234375,0.0771484375
8.154,310,1251,1653,313,-6.0,37.0,43.0,19.22607421875,6.469726085662842,2.990722417831421,-1.0606689453125,0.5684814453125,-0.1981201171875
8.189,310,1232,1625,312,-5.0,36.0,44.0,11.291502952575684,8.544921875,-5.737304210662842,-1.4471435546875,0.691162109375,-0.29541015625
8.201,312,1215,1596,312,-5.0,36.0,44.0,-12.573241233825684,-0.4882812201976776,-13.000487327575684,-1.720947265625,0.587158203125,-0.1920166015625
8.216,310,1198,1566,310,-5.0,36.0,44.0,-12.573241233825684,-0.4882812201976776,-13.000487327575684,-1.7547607421875,0.4228515625,-0.0108642578125
8.217,311,1139,1468,312,-5.0,36.0,44.0,-34.85107421875,-9.6435546875,-11.474608421325684,-1.6527099609375,0.3714599609375,0.09326171875
8.217,310,1097,1415,312,-5.0,36.0,44.0,-28.991697311401367,-5.920409679412842,-2.38037109375,-1.496826171875,0.3658447265625,0.132080078125
8.217,310,1054,1352,314,-5.0,36.0,44.0,-28.991697311401367,-5.920409679412842,-2.38037109375,-1.2843017578125,0.314453125,0.1761474609375
8.243,311,972,1245,312,-5.0,36.0,44.0,-6.774901866912842,6.835937023162842,11.169432640075684,-1.0185546875,0.21142578125,0.2015380859375
8.243,310,928,1183,312,-5.0,36.0,44.0,4.7607421875,13.183592796325684,13.427733421325684,-0.7464599609375,0.10107421875,0.19677734375
8.245,310,886,1108,299,-5.0,36.0,44.0,16.4794921875,18.310546875,12.939452171325684,-0.535888671875,0.0404052734375,0.16455078125
8.270,310,830,1065,312,-4.0,37.0,45.0,27.893064498901367,22.277830123901367,9.58251953125,-0.423583984375,0.04345703125,0.103515625
8.284,310,795,1022,311,-4.0,37.0,45.0,35.33935546875,25.756834030151367,4.69970703125,-0.451904296875,0.114990234375,0.004638671875
8.289,310,767,982,312,-4.0,37.0,45.0,35.21728515625,26.794431686401367,-0.8544921278953552,-0.547607421875,0.137939453125,-0.083251953125
8.299,310,721,939,310,-4.0,37.0,45.0,29.479978561401367,25.756834030151367,-6.958007335662842,-0.6363525390625,0.0574951171875,-0.1458740234375
8.303,310,700,928,312,-4.0,37.0,45.0,22.583005905151367,24.169919967651367,-10.253905296325684,-0.709228515625,0.0367431640625,-0.1873779296875
8.318,310,695,917,311,-4.0,37.0,45.0,13.916014671325684,18.85986328125,-8.30078125,-0.7276611328125,0.0968017578125,-0.18603515625
8.319,310,676,910,311,-4.0,37.0,45.0,4.08935546875,10.681151390075684,-2.01416015625,-0.729736328125,0.208740234375,-0.188232421875
8.325,310,678,904,310,-4.0,37.0,45.0,-2.807616949081421,3.479003667831421,5.615233898162842,-0.7236328125,0.338623046875,-0.173095703125
8.334,310,683,902,311,-4.0,37.0,45.0,-5.249022960662842,-2.01416015625,9.70458984375,-0.6993408203125,0.3907470703125,-0.107666015625
8.348,308,697,904,310,-4.0,37.0,45.0,-5.249022960662842,-5.493163585662842,9.82666015625,-0.6846923828125,0.40576171875,-0.030029296875
8.356,310,703,912,311,-6.0,37.0,43.0,-5.126952648162842,-6.958007335662842,8.48388671875,-0.684814453125,0.43359375,0.0364990234375
8.387,310,712,910,311,-6.0,37.0,43.0,-6.591796398162842,-6.835937023162842,6.591796398162842,-0.6956787109375,0.4517822265625,0.08544921875
8.387,310,728,910,311,-6.0,37.0,43.0,-9.21630859375,-5.310058116912842,4.0283203125,-0.7027587890625,0.40087890625,0.1212158203125
8.387,309,740,917,312,-6.0,37.0,43.0,-9.521484375,-2.3193359375,1.0986328125,-0.7177734375,0.313232421875,0.133056640625
8.404,309,750,928,311,-6.0,37.0,43.0,-5.981444835662842,1.15966796875,-1.0986328125,-0.75146484375,0.2822265625,0.1143798828125
8.408,311,771,943,312,-6.0,37.0,43.0,-0.8544921278953552,3.112792730331421,-1.8310545682907104,-0.77880859375,0.293701171875,0.080078125
8.418,310,786,962,310,-6.0,37.0,43.0,3.723144292831421,3.234863042831421,-1.4038084745407104,-0.7928466796875,0.302734375,0.03955078125
8.424,310,810,980,312,-6.0,37.0,43.0,6.774901866912842,2.50244140625,-0.54931640625,-0.8052978515625,0.2999267578125,0.0045166015625
8.437,310,846,1014,312,-6.0,37.0,43.0,7.934569835662842,1.6479490995407104,0.2441406100988388,-0.8336181640625,0.2916259765625,-0.02685546875
8.446,311,867,1043,311,-6.0,37.0,43.0,7.019042491912842,0.7934569716453552,1.0986328125,-0.8675537109375,0.28271484375,-0.074462890625
8.454,310,891,1078,312,-6.0,37.0,43.0,4.7607421875,0.2441406100988388,1.8310545682907104,-0.8817138671875,0.25341796875,-0.1298828125
8.468,310,932,1139,312,-6.0,40.0,47.0,1.5869139432907104,-0.6713866591453552,2.990722417831421,-0.8763427734375,0.244873046875,-0.1572265625
8.476,310,960,1178,312,-6.0,40.0,47.0,-1.8920897245407104,-3.112792730331421,4.2724609375,-0.8304443359375,0.267578125,-0.1436767578125
8.483,310,1000,1219,311,-6.0,40.0,47.0,-4.2724609375,-6.530761241912842,3.540038824081421,-0.7490234375,0.2353515625,-0.0986328125
8.500,310,1056,1333,312,-6.0,40.0,47.0,-3.967284917831421,-9.1552734375,0.6713866591453552,-0.673828125,0.1553955078125,-0.04541015625
8.527,310,1108,1402,311,-6.0,40.0,47.0,-1.3427733182907104,-10.864256858825684,-4.150390625,-0.5885009765625,0.05224609375,0.00341796875
8.531,310,1143,1464,312,-6.0,40.0,47.0,1.5258787870407104,-12.695311546325684,-10.681151390075684,-0.5311279296875,-0.02099609375,0.0224609375
8.531,308,1206,1577,312,-6.0,40.0,47.0,1.3427733182907104,-15.747069358825684,-16.05224609375,-0.5526123046875,0.031982421875,-0.018310546875
8.536,310,1243,1637,312,-6.0,40.0,47.0,-2.868652105331421,-18.85986328125,-18.6767578125,-0.673095703125,0.2325439453125,-0.1182861328125
8.544,311,1271,1682,312,-6.0,40.0,47.0,-10.009765625,-21.606443405151367,-20.202634811401367,-0.898681640625,0.4609375,-0.174560546875
8.557,310,1308,1727,312,-4.0,38.0,45.0,-19.4091796875,-25.085447311401367,-22.155759811401367,-1.5517578125,0.538330078125,-0.017822265625
8.565,311,1319,1744,312,-4.0,38.0,45.0,-29.174802780151367,-28.015134811401367,-23.986814498901367,-1.5517578125,0.538330078125,-0.017822265625
8.576,310,1336,1761,312,-4.0,38.0,45.0,-36.56005859375,-28.625486373901367,-23.559568405151367,-1.814453125,0.4278564453125,0.1337890625
8.587,310,1320,1738,312,-4.0,38.0,45.0,-39.48974609375,-24.658201217651367,-18.61572265625,-1.8778076171875,0.23193359375,0.2435302734375
8.607,312,1306,1721,312,-4.0,38.0,45.0,-37.53662109375,-16.357421875,-9.765625,-1.8778076171875,0.23193359375,0.2435302734375
8.608,310,1289,1700,313,-4.0,38.0,45.0,-27.160642623901367,-5.310058116912842,0.0,-1.428955078125,0.015625,0.285888671875
8.617,310,1253,1666,312,-4.0,38.0,45.0,-4.150390625,7.690429210662842,8.60595703125,-0.8636474609375,0.353271484375,-0.0361328125
8.631,308,1246,1662,312,-4.0,38.0,45.0,19.4091796875,17.333984375,13.427733421325684,-0.8636474609375,0.353271484375,-0.0361328125
8.634,310,1239,1655,312,-4.0,38.0,45.0,25.573728561401367,18.00537109375,9.8876953125,-1.0469970703125,0.6427001953125,-0.225830078125
8.693,311,1219,1621,311,-4.0,38.0,45.0,14.404295921325684,10.986327171325684,-1.5869139432907104,-1.5911865234375,0.5916748046875,-0.0938720703125
8.693,311,1201,1583,312,-4.0,37.0,44.0,-4.21142578125,1.5869139432907104,-13.244627952575684,-1.5911865234375,0.5916748046875,-0.0938720703125
8.693,310,1175,1543,312,-4.0,37.0,44.0,-17.88330078125,-4.33349609375,-18.00537109375,-1.664794921875,0.4263916015625,0.0592041015625
8.693,310,1116,1449,312,-4.0,37.0,44.0,-19.53125,-3.601073980331421,-15.380858421325684,-1.5079345703125,0.32568359375,0.1287841796875
