time,compression0,compression1,compression2,compression3,magn_x,magn_y,magn_z,gyro_x,gyro_y,gyro_z,accel_x,accel_y,accel_z
0.001,310,420,401,310,-7.0,47.0,32.0,-0.54931640625,-0.1220703050494194,0.7934569716453552,-0.8424072265625,0.45263671875,-0.2733154296875
0.015,310,419,400,308,-7.0,47.0,32.0,-0.54931640625,-0.3662109076976776,0.6103515625,-0.8426513671875,0.4532470703125,-0.2696533203125
0.023,309,420,401,310,-8.0,45.0,36.0,-0.2441406100988388,-0.6103515625,0.3662109076976776,-0.8433837890625,0.455078125,-0.265380859375
0.036,310,421,399,310,-8.0,45.0,36.0,0.30517578125,-0.7324218153953552,0.0,-0.844482421875,0.4554443359375,-0.2645263671875
0.046,310,420,402,311,-8.0,45.0,36.0,1.03759765625,-0.7934569716453552,-0.30517578125,-0.844970703125,0.4525146484375,-0.26611328125
0.056,311,420,400,311,-8.0,45.0,36.0,1.7700194120407104,-0.9155272841453552,-0.4882812201976776,-0.8448486328125,0.44775390625,-0.26708984375
0.062,310,420,401,310,-8.0,45.0,36.0,2.25830078125,-1.0986328125,-0.4882812201976776,-0.8436279296875,0.4459228515625,-0.26806640625
0.078,309,423,400,310,-8.0,45.0,36.0,2.624511480331421,-1.2817381620407104,-0.3662109076976776,-0.8426513671875,0.4493408203125,-0.2711181640625
0.090,310,423,401,310,-8.0,45.0,36.0,2.929687261581421,-1.4038084745407104,-0.3662109076976776,-0.8419189453125,0.4547119140625,-0.275390625
0.099,308,421,400,310,-8.0,45.0,36.0,2.990722417831421,-1.6479490995407104,-0.4882812201976776,-0.8411865234375,0.457763671875,-0.27783203125
0.106,308,423,400,310,-8.0,45.0,36.0,2.807616949081421,-1.9531248807907104,-0.7324218153953552,-0.84130859375,0.456298828125,-0.276611328125
0.114,310,423,401,310,-8.0,45.0,36.0,2.0751953125,-2.01416015625,-0.8544921278953552,-0.8426513671875,0.45263671875,-0.271728515625
0.122,309,423,401,310,-9.0,45.0,34.0,1.15966796875,-1.8920897245407104,-0.9765624403953552,-0.8441162109375,0.4478759765625,-0.265869140625
0.138,309,423,401,310,-9.0,45.0,34.0,0.4882812201976776,-1.5869139432907104,-1.03759765625,-0.84423828125,0.442138671875,-0.2611083984375
0.144,310,420,401,310,-9.0,45.0,34.0,0.1220703050494194,-1.3427733182907104,-0.9765624403953552,-0.8433837890625,0.438720703125,-0.259521484375
0.152,307,424,400,310,-9.0,45.0,34.0,0.1220703050494194,-1.03759765625,-0.6713866591453552,-0.8431396484375,0.4385986328125,-0.2608642578125
0.165,309,424,399,310,-9.0,45.0,34.0,0.30517578125,-0.8544921278953552,-0.2441406100988388,-0.8450927734375,0.4478759765625,-0.26513671875
0.175,310,424,401,310,-9.0,45.0,34.0,0.4882812201976776,-0.6713866591453552,0.1220703050494194,-0.8450927734375,0.4478759765625,-0.26513671875
0.197,310,424,399,310,-9.0,45.0,34.0,0.4882812201976776,-0.54931640625,0.3662109076976776,-0.84521484375,0.4532470703125,-0.2646484375
0.198,309,424,398,309,-9.0,45.0,34.0,0.4882812201976776,-0.3662109076976776,0.3662109076976776,-0.843505859375,0.4482421875,-0.2606201171875
0.204,308,425,399,310,-9.0,45.0,34.0,0.4882812201976776,-0.1220703050494194,0.3662109076976776,-0.843505859375,0.4482421875,-0.2606201171875
0.212,310,423,398,310,-9.0,45.0,34.0,0.3662109076976776,0.1831054538488388,0.3662109076976776,-0.8443603515625,0.446533203125,-0.2620849609375
0.226,308,423,401,310,-10.0,47.0,36.0,0.2441406100988388,0.4882812201976776,0.30517578125,-0.8448486328125,0.4508056640625,-0.2744140625
0.234,310,424,401,310,-10.0,47.0,36.0,0.1831054538488388,0.6713866591453552,0.2441406100988388,-0.8448486328125,0.4508056640625,-0.2744140625
0.243,310,425,400,310,-10.0,47.0,36.0,0.1220703050494194,0.4882812201976776,0.2441406100988388,-0.84423828125,0.4521484375,-0.2796630859375
0.256,308,424,398,310,-10.0,47.0,36.0,-0.1831054538488388,0.1831054538488388,0.30517578125,-0.8421630859375,0.4537353515625,-0.280517578125
0.270,310,426,398,308,-10.0,47.0,36.0,-0.6713866591453552,-0.1831054538488388,0.3662109076976776,-0.8421630859375,0.4537353515625,-0.280517578125
0.278,308,426,399,310,-10.0,47.0,36.0,-1.15966796875,-0.54931640625,0.30517578125,-0.8419189453125,0.4530029296875,-0.2760009765625
0.298,310,426,399,310,-10.0,47.0,36.0,-1.4038084745407104,-0.9765624403953552,0.1831054538488388,-0.84375,0.4482421875,-0.262451171875
0.308,310,425,398,311,-10.0,47.0,36.0,-1.4038084745407104,-1.3427733182907104,0.0610351525247097,-0.84375,0.4482421875,-0.262451171875
0.308,309,424,399,310,-10.0,47.0,36.0,-1.03759765625,-1.5869139432907104,-0.1220703050494194,-0.844482421875,0.4466552734375,-0.2586669921875
0.316,310,424,399,310,-10.0,47.0,36.0,0.4882812201976776,-1.7700194120407104,-0.3662109076976776,-0.8448486328125,0.449462890625,-0.2607421875
0.324,310,426,399,310,-7.0,45.0,34.0,0.4882812201976776,-1.7700194120407104,-0.3662109076976776,-0.8448486328125,0.4522705078125,-0.2646484375
0.336,310,426,399,309,-7.0,45.0,34.0,1.03759765625,-1.7089842557907104,-0.3662109076976776,-0.8448486328125,0.4522705078125,-0.2646484375
0.346,309,426,401,309,-7.0,45.0,34.0,1.4648436307907104,-1.3427733182907104,-0.4272460639476776,-0.843505859375,0.4556884765625,-0.2664794921875
0.354,310,426,399,310,-7.0,45.0,34.0,1.4648436307907104,-1.3427733182907104,-0.4272460639476776,-0.84423828125,0.4539794921875,-0.26416015625
0.362,308,426,401,311,-7.0,45.0,34.0,1.5258787870407104,-1.15966796875,-0.6103515625,-0.84423828125,0.4539794921875,-0.26416015625
0.383,309,426,400,310,-7.0,45.0,34.0,1.7089842557907104,-1.03759765625,-0.9765624403953552,-0.84716796875,0.4512939453125,-0.2664794921875
0.384,309,426,400,296,-7.0,45.0,34.0,1.7089842557907104,-1.03759765625,-0.9765624403953552,-0.8468017578125,0.449462890625,-0.27099609375
0.410,310,424,399,311,-7.0,45.0,34.0,1.7700194120407104,-1.15966796875,-1.15966796875,-0.8468017578125,0.449462890625,-0.27099609375
0.411,309,424,400,310,-7.0,45.0,34.0,2.197265625,-1.8920897245407104,-1.4648436307907104,-0.843017578125,0.4498291015625,-0.276123046875
0.414,308,424,401,308,-7.0,45.0,34.0,2.197265625,-1.8920897245407104,-1.4648436307907104,-0.8411865234375,0.451904296875,-0.2752685546875
0.422,310,424,401,310,-9.0,46.0,38.0,2.44140625,-2.44140625,-1.7089842557907104,-0.8411865234375,0.451904296875,-0.2752685546875
0.436,310,424,401,310,-9.0,46.0,38.0,2.50244140625,-3.723144292831421,-2.197265625,-0.8402099609375,0.4549560546875,-0.27099609375
0.448,310,424,400,310,-9.0,46.0,38.0,2.50244140625,-3.723144292831421,-2.197265625,-0.841552734375,0.45263671875,-0.2679443359375
0.452,310,423,400,310,-9.0,46.0,38.0,2.0751953125,-4.150390625,-2.50244140625,-0.8436279296875,0.447998046875,-0.26416015625
0.466,310,424,399,309,-9.0,46.0,38.0,1.5869139432907104,-4.5166015625,-2.807616949081421,-0.8458251953125,0.4434814453125,-0.2606201171875
0.474,309,424,399,310,-9.0,46.0,38.0,1.8310545682907104,-4.638671875,-2.746581792831421,-0.8475341796875,0.440673828125,-0.2591552734375
0.510,310,423,401,308,-9.0,46.0,38.0,1.8310545682907104,-4.638671875,-2.746581792831421,-0.8485107421875,0.439697265625,-0.259033203125
0.510,310,424,399,308,-9.0,46.0,38.0,2.3193359375,-4.82177734375,-2.50244140625,-0.846923828125,0.438720703125,-0.2572021484375
0.510,310,424,401,310,-9.0,46.0,38.0,2.44140625,-4.94384765625,-2.3193359375,-0.844482421875,0.4378662109375,-0.2557373046875
0.512,310,424,400,310,-9.0,46.0,38.0,2.44140625,-4.94384765625,-2.3193359375,-0.84326171875,0.4390869140625,-0.2554931640625
0.526,310,426,402,310,-6.0,45.0,37.0,2.685546636581421,-5.0048828125,-2.13623046875,-0.843505859375,0.4415283203125,-0.255615234375
0.534,309,426,402,310,-6.0,45.0,37.0,2.868652105331421,-5.126952648162842,-2.197265625,-0.844970703125,0.443359375,-0.2557373046875
0.542,310,426,402,310,-6.0,45.0,37.0,2.868652105331421,-5.126952648162842,-2.197265625,-0.84814453125,0.443115234375,-0.255126953125
0.556,308,428,402,310,-6.0,45.0,37.0,3.540038824081421,-5.432128429412842,-2.38037109375,-0.8514404296875,0.44140625,-0.25439453125
0.564,309,430,402,309,-6.0,45.0,37.0,4.2724609375,-5.554198741912842,-2.25830078125,-0.8525390625,0.4384765625,-0.254150390625
0.572,308,433,402,308,-6.0,45.0,37.0,4.2724609375,-5.554198741912842,-2.25830078125,-0.851806640625,0.436279296875,-0.254638671875
0.657,308,430,402,310,-6.0,45.0,37.0,5.187987804412842,-5.737304210662842,-1.8310545682907104,-0.8497314453125,0.4368896484375,-0.256591796875
0.657,311,428,402,310,-6.0,45.0,37.0,5.065917491912842,-5.920409679412842,-1.5869139432907104,-0.846923828125,0.4388427734375,-0.2586669921875
0.658,308,430,402,310,-6.0,45.0,37.0,4.69970703125,-6.103515148162842,-1.5258787870407104,-0.8466796875,0.438720703125,-0.2601318359375
0.658,310,433,402,310,-6.0,45.0,37.0,4.45556640625,-6.347655773162842,-1.5869139432907104,-0.84765625,0.4361572265625,-0.260009765625
0.658,310,435,402,310,-8.0,46.0,27.0,4.2724609375,-6.469726085662842,-1.4648436307907104,-0.847900390625,0.4322509765625,-0.256591796875
0.658,310,435,402,311,-8.0,46.0,27.0,4.150390625,-6.469726085662842,-1.0986328125,-0.8477783203125,0.4281005859375,-0.2486572265625
0.658,309,435,401,310,-8.0,46.0,27.0,4.21142578125,-6.530761241912842,-0.6103515625,-0.8487548828125,0.42431640625,-0.239013671875
0.658,310,435,402,310,-8.0,46.0,27.0,4.57763671875,-6.652831554412842,-0.1220703050494194,-0.849365234375,0.4212646484375,-0.23291015625
0.662,308,435,402,310,-8.0,46.0,27.0,5.065917491912842,-6.958007335662842,0.4272460639476776,-0.8487548828125,0.4267578125,-0.23486328125
0.675,310,437,402,310,-8.0,46.0,27.0,5.737304210662842,-7.019042491912842,0.8544921278953552,-0.850830078125,0.4404296875,-0.24560546875
0.687,309,437,402,311,-8.0,46.0,27.0,6.164550304412842,-6.896972179412842,0.8544921278953552,-0.8560791015625,0.4530029296875,-0.2596435546875
0.710,310,437,402,310,-8.0,46.0,27.0,5.676269054412842,-6.896972179412842,0.54931640625,-0.860107421875,0.4586181640625,-0.2691650390625
0.710,308,438,407,309,-8.0,46.0,27.0,4.39453125,-7.202147960662842,0.2441406100988388,-0.8582763671875,0.4520263671875,-0.269287109375
0.714,310,439,410,310,-8.0,46.0,27.0,2.807616949081421,-7.507323741912842,0.0,-0.8519287109375,0.4371337890625,-0.2623291015625
0.722,310,441,410,311,-7.0,43.0,34.0,1.4648436307907104,-7.690429210662842,0.1220703050494194,-0.844970703125,0.4232177734375,-0.249267578125
0.736,310,444,410,310,-7.0,43.0,34.0,1.0986328125,-7.995604991912842,0.54931640625,-0.8367919921875,0.4124755859375,-0.2318115234375
0.747,308,442,414,310,-7.0,43.0,34.0,1.7089842557907104,-8.48388671875,1.220703125,-0.825439453125,0.4072265625,-0.2178955078125
0.754,309,444,411,310,-7.0,43.0,34.0,2.624511480331421,-8.97216796875,1.9531248807907104,-0.8133544921875,0.4071044921875,-0.2132568359375
0.766,310,450,414,310,-7.0,43.0,34.0,3.112792730331421,-9.6435546875,2.624511480331421,-0.8018798828125,0.399169921875,-0.211181640625
0.774,310,451,415,310,-7.0,43.0,34.0,2.868652105331421,-10.498045921325684,3.295898199081421,-0.78076171875,0.37841796875,-0.195068359375
0.782,309,466,415,310,-7.0,43.0,34.0,2.563476324081421,-11.047362327575684,4.5166015625,-0.7586669921875,0.3624267578125,-0.169677734375
0.817,308,495,423,310,-7.0,43.0,34.0,2.624511480331421,-10.986327171325684,7.202147960662842,-0.7437744140625,0.3533935546875,-0.147216796875
0.818,308,509,426,310,-7.0,43.0,34.0,2.990722417831421,-10.253905296325684,11.047362327575684,-0.7197265625,0.3380126953125,-0.116455078125
0.818,310,523,437,310,-7.0,43.0,34.0,4.638671875,-9.033203125,14.831542015075684,-0.6861572265625,0.32275390625,-0.073974609375
0.826,310,552,438,310,-10.0,46.0,32.0,8.6669921875,-7.507323741912842,18.06640625,-0.638427734375,0.31201171875,-0.03466796875
0.834,310,579,444,310,-10.0,46.0,32.0,13.732909202575684,-5.798339366912842,20.324705123901367,-0.5714111328125,0.2919921875,-0.00439453125
0.842,309,613,465,310,-10.0,46.0,32.0,17.39501953125,-4.8828125,21.240232467651367,-0.50048828125,0.24755859375,0.0234375
0.863,310,684,505,310,-10.0,46.0,32.0,19.95849609375,-5.981444835662842,20.263669967651367,-0.441650390625,0.194091796875,0.0655517578125
0.864,310,718,519,309,-10.0,46.0,32.0,22.766111373901367,-9.765625,16.357421875,-0.4326171875,0.21728515625,0.0845947265625
0.872,310,767,530,311,-10.0,46.0,32.0,26.184080123901367,-14.343260765075684,9.521484375,-0.4522705078125,0.3349609375,-0.0052490234375
0.892,310,826,557,310,-10.0,46.0,32.0,28.930662155151367,-12.878417015075684,0.9155272841453552,-0.52490234375,0.514892578125,-0.2098388671875
0.894,310,873,591,311,-10.0,46.0,32.0,29.907224655151367,-4.21142578125,-7.568358898162842,-0.6361083984375,0.755615234375,-0.4696044921875
0.918,310,904,614,311,-10.0,46.0,32.0,25.817869186401367,5.310058116912842,-16.17431640625,-0.6583251953125,0.80517578125,-0.6422119140625
0.919,310,948,661,310,-8.0,45.0,32.0,9.3994140625,8.6669921875,-25.329587936401367,-0.7318115234375,0.428466796875,-0.4432373046875
0.924,311,978,698,311,-8.0,45.0,32.0,-16.41845703125,2.38037109375,-31.066892623901367,-0.7318115234375,0.428466796875,-0.4432373046875
0.932,310,1008,713,310,-8.0,45.0,32.0,-37.65869140625,-7.080077648162842,-31.982419967651367,-0.8829345703125,0.3492431640625,-0.279296875
0.946,310,1050,739,310,-8.0,45.0,32.0,-44.921871185302734,-11.535643577575684,-29.357908248901367,-1.5562744140625,0.8046875,-0.447021484375
0.955,310,1064,767,310,-8.0,45.0,32.0,-45.043941497802734,-9.58251953125,-23.742673873901367,-1.5562744140625,0.8046875,-0.447021484375
0.962,310,1069,810,310,-8.0,45.0,32.0,-51.696773529052734,-7.202147960662842,-17.333984375,-1.8890380859375,0.943359375,-0.59130859375
0.976,310,1081,799,310,-8.0,45.0,32.0,-66.46728515625,-9.33837890625,-11.230467796325684,-1.67822265625,0.1544189453125,-0.1307373046875
0.984,310,1082,790,310,-8.0,45.0,32.0,-75.62255859375,-13.366698265075684,-5.065917491912842,-1.67822265625,0.1544189453125,-0.1307373046875
0.995,310,1070,778,311,-8.0,45.0,32.0,-50.476070404052734,-8.9111328125,3.295898199081421,-1.08837890625,-0.18359375,0.1734619140625
1.022,310,1050,742,311,-8.0,45.0,32.0,6.164550304412842,5.493163585662842,15.380858421325684,-0.7574462890625,0.6932373046875,-0.475341796875
1.022,309,1050,779,310,-7.0,49.0,34.0,53.588863372802734,16.357421875,23.254392623901367,-0.7574462890625,0.6932373046875,-0.475341796875
1.023,310,1050,799,310,-7.0,49.0,34.0,66.58935546875,14.953612327575684,18.4326171875,-0.9293212890625,0.968017578125,-0.7578125
1.036,310,1035,780,310,-7.0,49.0,34.0,42.968746185302734,0.9155272841453552,4.69970703125,-1.699462890625,0.93408203125,-0.709716796875
1.044,310,1022,756,310,-7.0,49.0,34.0,-2.990722417831421,-19.10400390625,-6.042479991912842,-1.699462890625,0.93408203125,-0.709716796875
1.052,310,998,739,310,-7.0,49.0,34.0,-45.715328216552734,-34.36279296875,-5.0048828125,-1.869140625,0.6795654296875,-0.4010009765625
1.066,310,953,700,310,-7.0,49.0,34.0,-63.049312591552734,-37.65869140625,6.469726085662842,-1.1953125,0.1690673828125,0.2686767578125
1.074,309,905,662,310,-7.0,49.0,34.0,-47.302242279052734,-29.357908248901367,19.34814453125,-0.6942138671875,0.010498046875,0.3299560546875
1.085,310,853,630,311,-7.0,49.0,34.0,-7.751464366912842,-16.6015625,23.681638717651367,-0.6942138671875,0.010498046875,0.3299560546875
1.096,310,794,629,310,-7.0,49.0,34.0,78.7353515625,10.681151390075684,8.36181640625,-0.298828125,0.2550048828125,-0.2332763671875
1.111,310,778,640,310,-7.0,49.0,34.0,78.7353515625,10.681151390075684,8.36181640625,-0.48779296875,0.697265625,-0.5833740234375
1.120,310,767,644,310,-7.0,49.0,34.0,96.31346893310547,19.95849609375,2.25830078125,-0.48779296875,0.697265625,-0.5833740234375
1.126,309,748,628,310,-7.0,45.0,37.0,37.17041015625,-0.9155272841453552,-11.474608421325684,-0.9400634765625,1.072998046875,-0.73876953125
1.144,311,728,616,311,-7.0,45.0,37.0,37.17041015625,-0.9155272841453552,-11.474608421325684,-0.9840087890625,0.8402099609375,-0.5113525390625
1.144,310,710,601,311,-7.0,45.0,37.0,-9.3994140625,-20.690916061401367,-21.972654342651367,-0.9840087890625,0.8402099609375,-0.5113525390625
1.156,310,662,574,310,-7.0,45.0,37.0,-37.53662109375,-34.60693359375,-32.470703125,-0.82177734375,0.147705078125,-0.0360107421875
1.165,309,629,572,310,-7.0,45.0,37.0,-37.53662109375,-34.60693359375,-32.470703125,-0.7188720703125,-0.006103515625,0.0673828125
1.172,311,593,558,310,-7.0,45.0,37.0,-21.423337936401367,-29.357908248901367,-29.296873092651367,-0.7188720703125,-0.006103515625,0.0673828125
1.186,308,548,547,310,-7.0,45.0,37.0,25.268552780151367,-13.793944358825684,-18.1884765625,-0.5506591796875,0.068359375,-0.0167236328125
1.227,310,526,543,312,-7.0,45.0,37.0,25.268552780151367,-13.793944358825684,-18.1884765625,-0.540771484375,0.2178955078125,-0.0882568359375
1.228,309,508,545,310,-7.0,45.0,37.0,43.579097747802734,-9.82666015625,-15.624999046325684,-0.540771484375,0.2178955078125,-0.0882568359375
1.228,310,499,538,310,-8.0,45.0,35.0,48.706050872802734,-12.756346702575684,-10.986327171325684,-0.6168212890625,0.5267333984375,-0.1302490234375
1.228,310,504,540,310,-8.0,45.0,35.0,38.02490234375,-15.075682640075684,-10.192870140075684,-0.6705322265625,0.5733642578125,-0.1512451171875
1.232,311,507,540,309,-8.0,45.0,35.0,38.02490234375,-15.075682640075684,-10.192870140075684,-0.704345703125,0.5380859375,-0.15478515625
1.246,310,518,542,309,-8.0,45.0,35.0,10.742186546325684,-17.51708984375,-15.441893577575684,-0.7413330078125,0.4656982421875,-0.15087890625
1.254,308,525,551,310,-8.0,45.0,35.0,1.7089842557907104,-17.7001953125,-18.798828125,-0.77490234375,0.375732421875,-0.1226806640625
1.266,309,533,554,312,-8.0,45.0,35.0,1.7089842557907104,-17.7001953125,-18.798828125,-0.8006591796875,0.29638671875,-0.0928955078125
1.276,310,542,564,308,-8.0,45.0,35.0,-4.8828125,-18.06640625,-19.34814453125,-0.8150634765625,0.2545166015625,-0.0926513671875
1.284,310,549,568,310,-8.0,45.0,35.0,-4.33349609375,-15.991209983825684,-15.624999046325684,-0.824951171875,0.2557373046875,-0.113037109375
1.292,310,554,566,310,-8.0,45.0,35.0,-4.33349609375,-15.991209983825684,-15.624999046325684,-0.84228515625,0.3023681640625,-0.1416015625
1.311,310,572,554,310,-8.0,45.0,35.0,-1.5258787870407104,-9.8876953125,-5.432128429412842,-0.8538818359375,0.348388671875,-0.16357421875
1.322,310,586,553,310,-7.0,43.0,35.0,-2.624511480331421,-7.934569835662842,-0.7324218153953552,-0.8349609375,0.3427734375,-0.156005859375
1.335,308,601,557,310,-7.0,43.0,35.0,-2.624511480331421,-7.934569835662842,-0.7324218153953552,-0.7706298828125,0.293701171875,-0.110107421875
1.335,310,634,561,310,-7.0,43.0,35.0,-9.09423828125,-5.859374523162842,8.1787109375,-0.6666259765625,0.242919921875,-0.0401611328125
1.344,310,653,558,311,-7.0,43.0,35.0,-7.873534679412842,-5.676269054412842,10.864256858825684,-0.554443359375,0.213134765625,0.017822265625
1.352,310,688,559,311,-7.0,43.0,35.0,-7.873534679412842,-5.676269054412842,10.864256858825684,-0.4581298828125,0.2001953125,0.0443115234375
1.369,310,763,584,309,-7.0,43.0,35.0,6.469726085662842,-10.375975608825684,8.1787109375,-0.3709716796875,0.18359375,0.080322265625
1.374,310,816,601,310,-7.0,43.0,35.0,15.014647483825684,-15.136717796325684,3.845214605331421,-0.27587890625,0.1512451171875,0.14990234375
1.382,309,877,642,310,-7.0,43.0,35.0,21.789548873901367,-19.34814453125,-2.0751953125,-0.1861572265625,0.1328125,0.193603515625
1.396,310,982,749,310,-7.0,43.0,35.0,29.907224655151367,-19.34814453125,-9.33837890625,-0.2244873046875,0.2484130859375,0.0675048828125
1.404,310,1026,806,310,-7.0,43.0,35.0,41.320796966552734,-12.573241233825684,-17.9443359375,-0.5111083984375,0.525390625,-0.3192138671875
1.425,310,1064,861,310,-5.0,43.0,33.0,41.870113372802734,-7.263183116912842,-26.550291061401367,-0.8048095703125,0.70751953125,-0.6519775390625
1.426,310,1122,932,310,-5.0,43.0,33.0,22.827146530151367,-11.596678733825684,-34.60693359375,-0.9052734375,0.642822265625,-0.6156005859375
1.442,310,1139,1011,312,-5.0,43.0,33.0,-0.4882812201976776,-18.9208984375,-41.503902435302734,-1.037841796875,0.5921630859375,-0.41748046875
1.443,296,1166,1047,311,-5.0,43.0,33.0,-15.502928733825684,-22.949216842651367,-43.823238372802734,-1.3594970703125,0.747314453125,-0.3216552734375
1.456,309,1211,1132,311,-5.0,43.0,33.0,-23.376462936401367,-25.024412155151367,-41.442867279052734,-1.76025390625,0.918212890625,-0.361083984375
1.464,311,1216,1134,310,-5.0,43.0,33.0,-29.663084030151367,-26.672361373901367,-38.818359375,-2.16357421875,0.8358154296875,-0.443603515625
1.474,310,1196,1122,311,-5.0,43.0,33.0,-35.7666015625,-29.846189498901367,-39.0625,-2.3172607421875,0.4693603515625,-0.3841552734375
1.486,309,1185,1120,313,-5.0,43.0,33.0,-35.09521484375,-30.517576217651367,-38.02490234375,-1.7957763671875,-0.118408203125,-0.02490234375
1.494,310,1185,1129,310,-5.0,43.0,33.0,-16.357421875,-20.751951217651367,-28.991697311401367,-1.1466064453125,-0.35986328125,0.2523193359375
1.510,310,1178,1129,311,-5.0,43.0,33.0,7.141112804412842,-4.33349609375,-9.765625,-1.174072265625,0.2467041015625,-0.015869140625
1.520,308,1155,1065,311,-6.0,42.0,40.0,10.375975608825684,5.737304210662842,8.60595703125,-1.5889892578125,0.9530029296875,-0.464599609375
1.527,310,1141,1029,311,-6.0,42.0,40.0,-2.197265625,3.662109136581421,10.864256858825684,-1.8162841796875,1.000244140625,-0.5904541015625
1.538,310,1105,987,312,-6.0,42.0,40.0,-13.061522483825684,-4.69970703125,2.0751953125,-1.759033203125,0.6737060546875,-0.4154052734375
1.548,310,1029,921,310,-6.0,42.0,40.0,-13.854979515075684,-11.474608421325684,-2.44140625,-1.5579833984375,0.4429931640625,-0.1585693359375
1.554,310,981,875,312,-6.0,42.0,40.0,-7.019042491912842,-12.939452171325684,0.6103515625,-1.307861328125,0.2889404296875,0.0262451171875
1.562,310,933,835,310,-6.0,42.0,40.0,2.563476324081421,-7.934569835662842,6.530761241912842,-1.045166015625,0.1474609375,0.1021728515625
1.576,308,833,732,311,-6.0,42.0,40.0,12.939452171325684,0.4882812201976776,12.084959983825684,-0.792236328125,0.076171875,0.0977783203125
1.589,310,780,710,312,-6.0,42.0,40.0,22.338865280151367,8.11767578125,13.427733421325684,-0.5665283203125,0.064697265625,0.025146484375
1.592,310,728,671,311,-6.0,42.0,40.0,30.273435592651367,14.160155296325684,9.70458984375,-0.4154052734375,0.1124267578125,-0.0848388671875
1.674,310,592,614,312,-6.0,42.0,36.0,42.541500091552734,16.17431640625,0.0,-0.3834228515625,0.23193359375,-0.2037353515625
1.674,310,566,616,310,-6.0,42.0,36.0,47.546382904052734,14.221190452575684,-3.906249761581421,-0.394287109375,0.2156982421875,-0.3095703125
1.674,310,547,622,312,-6.0,42.0,36.0,49.316402435302734,13.366698265075684,-6.103515148162842,-0.4329833984375,0.2784423828125,-0.402099609375
1.674,310,533,621,310,-6.0,42.0,36.0,42.785640716552734,7.934569835662842,-7.934569835662842,-0.5400390625,0.4222412109375,-0.3909912109375
1.682,310,525,620,310,-6.0,42.0,36.0,28.381345748901367,-4.08935546875,-10.559081077575684,-0.6533203125,0.53955078125,-0.2960205078125
1.687,310,527,621,310,-6.0,42.0,36.0,10.192870140075684,-17.08984375,-13.366698265075684,-0.6895751953125,0.5045166015625,-0.1552734375
1.692,309,533,628,310,-6.0,42.0,36.0,-6.958007335662842,-25.024412155151367,-15.930174827575684,-0.6865234375,0.353515625,-0.0367431640625
1.693,310,540,628,310,-6.0,42.0,36.0,-16.78466796875,-26.550291061401367,-17.27294921875,-0.7186279296875,0.2357177734375,0.0035400390625
1.701,310,548,634,311,-6.0,42.0,36.0,-17.333984375,-24.047849655151367,-16.845703125,-0.8638916015625,0.2869873046875,-0.0457763671875
1.714,310,552,629,311,-6.0,42.0,36.0,-13.916014671325684,-20.141599655151367,-14.526366233825684,-0.8638916015625,0.2869873046875,-0.0457763671875
1.752,309,561,629,310,-6.0,41.0,40.0,-12.756346702575684,-16.7236328125,-11.169432640075684,-0.8797607421875,0.297119140625,-0.0289306640625
1.752,309,568,630,310,-6.0,41.0,40.0,-14.587401390075684,-14.038084983825684,-7.934569835662842,-0.8453369140625,0.21240234375,0.0396728515625
1.767,309,580,639,308,-6.0,41.0,40.0,-15.624999046325684,-11.657713890075684,-4.7607421875,-0.8453369140625,0.21240234375,0.0396728515625
1.768,309,589,642,310,-6.0,41.0,40.0,-14.404295921325684,-8.7890625,-1.220703125,-0.8470458984375,0.2349853515625,-0.0040283203125
1.769,310,601,643,310,-6.0,41.0,40.0,-14.709471702575684,-5.0048828125,2.197265625,-0.8779296875,0.3055419921875,-0.1441650390625
1.769,310,612,644,312,-6.0,41.0,40.0,-19.8974609375,-2.25830078125,4.57763671875,-0.8779296875,0.3055419921875,-0.1441650390625
1.773,310,620,647,311,-6.0,41.0,40.0,-27.587888717651367,-1.8310545682907104,6.469726085662842,-0.873046875,0.314208984375,-0.14404296875
1.786,310,642,657,310,-6.0,41.0,40.0,-34.0576171875,-2.38037109375,8.97216796875,-0.8369140625,0.3121337890625,-0.0694580078125
1.794,310,657,663,310,-6.0,41.0,40.0,-37.841796875,-3.417968511581421,11.108397483825684,-0.8369140625,0.3121337890625,-0.0694580078125
1.803,311,674,671,310,-6.0,41.0,40.0,-37.841796875,-4.39453125,12.145995140075684,-0.7952880859375,0.279296875,-0.0201416015625
1.816,309,711,674,310,-3.0,40.0,34.0,-33.8134765625,-4.57763671875,12.390135765075684,-0.6900634765625,0.2449951171875,0.00244140625
1.836,310,740,694,310,-3.0,40.0,34.0,-25.695798873901367,-3.784179449081421,12.329100608825684,-0.675537109375,0.2703857421875,-0.0516357421875
1.837,311,764,711,310,-3.0,40.0,34.0,-16.11328125,-2.746581792831421,12.634276390075684,-0.675537109375,0.2703857421875,-0.0516357421875
1.846,310,833,772,310,-3.0,40.0,34.0,-17.02880859375,-4.150390625,13.793944358825684,-0.5665283203125,0.3182373046875,-0.0150146484375
1.857,310,864,824,312,-3.0,40.0,34.0,-17.02880859375,-4.150390625,13.793944358825684,-0.405517578125,0.28076171875,0.125244140625
1.873,308,917,886,310,-3.0,40.0,34.0,-23.681638717651367,-5.126952648162842,10.498045921325684,-0.405517578125,0.28076171875,0.125244140625
1.881,310,998,1018,310,-3.0,40.0,34.0,-5.615233898162842,-4.33349609375,-9.6435546875,-0.1798095703125,0.2908935546875,0.2569580078125
1.884,310,1042,1074,311,-3.0,40.0,34.0,-5.615233898162842,-4.33349609375,-9.6435546875,-0.3724365234375,0.4010009765625,0.018310546875
1.893,310,1083,1130,312,-3.0,40.0,34.0,15.991209983825684,-1.8920897245407104,-22.705076217651367,-0.3724365234375,0.4010009765625,0.018310546875
1.906,310,1139,1239,310,-3.0,40.0,34.0,29.724119186401367,8.11767578125,-37.9638671875,-1.1248779296875,0.50244140625,-0.6578369140625
1.938,310,1170,1306,310,-7.0,41.0,38.0,29.724119186401367,8.11767578125,-37.9638671875,-1.5244140625,0.5164794921875,-0.6856689453125
1.950,310,1201,1336,310,-7.0,41.0,38.0,17.15087890625,6.225585460662842,-41.564937591552734,-1.5244140625,0.5164794921875,-0.6856689453125
1.954,309,1231,1413,312,-7.0,41.0,38.0,-17.2119140625,-16.90673828125,-44.677730560302734,-2.218994140625,0.6231689453125,-0.4669189453125
1.954,310,1215,1387,312,-7.0,41.0,38.0,-17.2119140625,-16.90673828125,-44.677730560302734,-2.2655029296875,0.4959716796875,-0.2803955078125
1.954,310,1173,1365,309,-7.0,41.0,38.0,-36.31591796875,-30.456541061401367,-41.870113372802734,-2.2655029296875,0.4959716796875,-0.2803955078125
1.965,311,1189,1366,311,-7.0,41.0,38.0,-27.893064498901367,-28.991697311401367,-23.986814498901367,-1.14501953125,-0.028564453125,0.3212890625
1.974,310,1188,1348,312,-7.0,41.0,38.0,5.737304210662842,-11.718749046325684,-12.268065452575684,-1.02392578125,0.2935791015625,0.1844482421875
1.991,310,1173,1302,312,-7.0,41.0,38.0,5.737304210662842,-11.718749046325684,-12.268065452575684,-1.41259765625,0.7056884765625,-0.1375732421875
1.996,310,1139,1234,311,-7.0,41.0,38.0,1.7700194120407104,4.82177734375,-0.9155272841453552,-1.725830078125,0.6607666015625,-0.2841796875
2.004,311,1117,1211,311,-7.0,41.0,38.0,-18.1884765625,5.371093273162842,-1.8920897245407104,-1.7530517578125,0.4136962890625,-0.2200927734375
2.023,311,1085,1157,312,-3.0,39.0,42.0,-18.1884765625,5.371093273162842,-1.8920897245407104,-1.5924072265625,0.3314208984375,-0.0645751953125
2.049,310,1025,1063,312,-3.0,39.0,42.0,-30.273435592651367,6.896972179412842,11.352538108825684,-1.346923828125,0.3294677734375,0.0672607421875
2.058,310,982,1012,311,-3.0,39.0,42.0,-21.667478561401367,11.169432640075684,17.15087890625,-1.0491943359375,0.2625732421875,0.14453125
2.058,310,939,960,311,-3.0,39.0,42.0,-21.667478561401367,11.169432640075684,17.15087890625,-0.7347412109375,0.195556640625,0.158203125
2.059,310,861,877,312,-3.0,39.0,42.0,14.038084983825684,24.169919967651367,10.314940452575684,-0.4869384765625,0.1497802734375,0.0826416015625
2.064,310,827,859,311,-3.0,39.0,42.0,30.822751998901367,26.245115280151367,1.5869139432907104,-0.376953125,0.1240234375,-0.0667724609375
2.072,310,806,834,310,-3.0,39.0,42.0,30.822751998901367,26.245115280151367,1.5869139432907104,-0.4283447265625,0.1920166015625,-0.234130859375
2.089,310,755,784,310,-3.0,39.0,42.0,41.076656341552734,19.22607421875,-9.21630859375,-0.574462890625,0.327880859375,-0.317138671875
2.099,312,739,756,311,-3.0,39.0,42.0,32.04345703125,10.986327171325684,-9.521484375,-0.6964111328125,0.333984375,-0.3525390625
2.102,311,721,750,311,-3.0,39.0,42.0,32.04345703125,10.986327171325684,-9.521484375,-0.76416015625,0.2335205078125,-0.4158935546875
2.120,310,697,729,310,-3.0,40.0,41.0,16.17431640625,2.807616949081421,-10.498045921325684,-0.7652587890625,0.2025146484375,-0.380859375
2.124,311,689,725,310,-3.0,40.0,41.0,10.314940452575684,-3.479003667831421,-9.94873046875,-0.71337890625,0.2276611328125,-0.2244873046875
2.144,310,685,716,310,-3.0,40.0,41.0,6.713866710662842,-11.718749046325684,-8.85009765625,-0.67822265625,0.2528076171875,-0.0928955078125
2.147,310,685,710,310,-3.0,40.0,41.0,7.507323741912842,-17.2119140625,-7.995604991912842,-0.67236328125,0.258056640625,-0.026123046875
2.154,310,689,714,311,-3.0,40.0,41.0,8.97216796875,-19.287109375,-8.23974609375,-0.68505859375,0.2579345703125,0.030517578125
2.162,310,698,713,311,-3.0,40.0,41.0,7.263183116912842,-18.6767578125,-8.36181640625,-0.72802734375,0.27685546875,0.08154296875
2.175,309,713,724,310,-3.0,40.0,41.0,2.990722417831421,-16.05224609375,-7.812499523162842,-0.788818359375,0.2998046875,0.09619140625
2.189,310,723,728,310,-3.0,40.0,41.0,-1.220703125,-12.451170921325684,-7.507323741912842,-0.82275390625,0.28515625,0.0791015625
2.193,310,728,742,311,-3.0,40.0,41.0,-2.746581792831421,-8.72802734375,-7.263183116912842,-0.821044921875,0.2376708984375,0.053955078125
2.212,310,750,749,310,-4.0,40.0,40.0,-0.9765624403953552,-5.432128429412842,-6.408690929412842,-0.8270263671875,0.2197265625,0.02490234375
2.214,310,758,758,312,-4.0,40.0,40.0,2.3193359375,-3.173827886581421,-4.39453125,-0.8599853515625,0.246826171875,-0.012939453125
2.223,310,770,764,312,-4.0,40.0,40.0,3.967284917831421,-1.7700194120407104,-1.8310545682907104,-0.9000244140625,0.261474609375,-0.054443359375
2.239,309,782,771,310,-4.0,40.0,40.0,2.929687261581421,-0.1220703050494194,0.6103515625,-0.923828125,0.2369384765625,-0.091064453125
2.244,310,796,780,311,-4.0,40.0,40.0,0.2441406100988388,1.9531248807907104,3.356933355331421,-0.930908203125,0.21044921875,-0.110107421875
2.253,310,809,785,311,-4.0,40.0,40.0,-2.50244140625,3.173827886581421,6.774901866912842,-0.9227294921875,0.2078857421875,-0.104736328125
2.266,310,833,809,310,-4.0,40.0,40.0,-4.0283203125,2.746581792831421,10.437010765075684,-0.9010009765625,0.2330322265625,-0.092041015625
2.274,310,853,826,311,-4.0,40.0,40.0,-2.746581792831421,0.8544921278953552,13.427733421325684,-0.8812255859375,0.2742919921875,-0.091796875
2.282,310,865,837,310,-4.0,40.0,40.0,1.7700194120407104,-1.6479490995407104,15.319823265075684,-0.8658447265625,0.3084716796875,-0.1112060546875
2.299,310,891,861,311,-4.0,40.0,40.0,6.042479991912842,-3.845214605331421,16.66259765625,-0.845458984375,0.3148193359375,-0.1353759765625
2.304,310,913,875,311,-4.0,40.0,40.0,5.920409679412842,-5.065917491912842,18.310546875,-0.81689453125,0.2977294921875,-0.1329345703125
2.313,310,932,884,310,-3.0,40.0,43.0,1.2817381620407104,-5.126952648162842,19.59228515625,-0.7708740234375,0.259765625,-0.1021728515625
2.331,309,978,928,311,-3.0,40.0,43.0,-5.249022960662842,-3.845214605331421,19.59228515625,-0.693115234375,0.2022705078125,-0.0538330078125
2.348,310,1020,960,311,-3.0,40.0,43.0,-10.437010765075684,-2.01416015625,18.85986328125,-0.5595703125,0.146240234375,0.031494140625
2.352,310,1054,998,312,-3.0,40.0,43.0,-10.131834983825684,-1.2817381620407104,16.9677734375,-0.3822021484375,0.0958251953125,0.1160888671875
2.356,310,1112,1082,312,-3.0,40.0,43.0,1.5258787870407104,-2.13623046875,12.145995140075684,-0.2686767578125,0.086669921875,0.087646484375
2.364,310,1143,1120,312,-3.0,40.0,43.0,25.390623092651367,-3.356933355331421,3.784179449081421,-0.3253173828125,0.1497802734375,-0.10205078125
2.372,310,1159,1173,312,-3.0,40.0,43.0,45.959468841552734,-5.126952648162842,-5.676269054412842,-0.5528564453125,0.3424072265625,-0.351318359375
2.386,311,1206,1284,311,-3.0,40.0,43.0,43.945308685302734,-9.6435546875,-13.854979515075684,-0.8548583984375,0.6065673828125,-0.4942626953125
2.402,310,1220,1355,312,-3.0,40.0,43.0,17.15087890625,-17.08984375,-21.362302780151367,-1.1466064453125,0.779296875,-0.4512939453125
2.402,311,1255,1404,311,-3.0,40.0,43.0,-15.319823265075684,-24.169919967651367,-28.015134811401367,-1.4478759765625,0.800537109375,-0.3184814453125
2.416,309,1282,1457,311,-3.0,38.0,38.0,-35.46142578125,-29.357908248901367,-33.50830078125,-1.7796630859375,0.6898193359375,-0.2122802734375
2.452,311,1267,1419,310,-3.0,38.0,38.0,-41.687007904052734,-38.87939453125,-38.02490234375,-2.111572265625,0.2613525390625,0.0626220703125
2.452,311,1253,1391,312,-3.0,38.0,38.0,-31.616209030151367,-35.82763671875,-30.090330123901367,-0.9527587890625,-0.12255859375,0.3359375
2.457,310,1250,1387,312,-3.0,38.0,38.0,-2.807616949081421,-20.385740280151367,-17.02880859375,-0.9527587890625,-0.12255859375,0.3359375
2.463,311,1243,1367,312,-3.0,38.0,38.0,26.855466842651367,-1.7700194120407104,-3.906249761581421,-0.8504638671875,0.3236083984375,0.031005859375
2.476,310,1232,1308,312,-3.0,38.0,38.0,31.860349655151367,6.896972179412842,0.9765624403953552,-1.6654052734375,0.71142578125,-0.4093017578125
2.484,312,1213,1281,312,-3.0,38.0,38.0,12.695311546325684,5.126952648162842,-4.33349609375,-1.6654052734375,0.71142578125,-0.4093017578125
2.493,310,1196,1253,311,-3.0,38.0,38.0,-12.329100608825684,0.0610351525247097,-10.253905296325684,-1.8565673828125,0.4481201171875,-0.26416015625
2.506,310,1153,1196,311,-1.0,40.0,42.0,-26.245115280151367,-2.807616949081421,-8.1787109375,-1.5439453125,0.1591796875,0.192626953125
2.514,309,1118,1153,312,-1.0,40.0,42.0,-23.437498092651367,-1.4038084745407104,1.9531248807907104,-1.5439453125,0.1591796875,0.192626953125
2.522,310,1078,1105,312,-1.0,40.0,42.0,-10.070799827575684,4.33349609375,14.709471702575684,-1.2479248046875,0.19189453125,0.26611328125
2.536,310,1008,984,312,-1.0,40.0,42.0,5.249022960662842,11.657713890075684,23.376462936401367,-0.624755859375,0.2098388671875,0.100830078125
2.554,312,959,935,311,-1.0,40.0,42.0,20.446775436401367,18.24951171875,24.780271530151367,-0.624755859375,0.2098388671875,0.100830078125
2.557,310,920,891,311,-1.0,40.0,42.0,33.203125,23.071287155151367,19.34814453125,-0.4482421875,0.23046875,-0.0711669921875
2.566,310,868,832,309,-1.0,40.0,42.0,39.85595703125,24.475095748901367,9.8876953125,-0.577392578125,0.31298828125,-0.328369140625
2.574,310,846,805,311,-1.0,40.0,42.0,38.330078125,22.644041061401367,0.9765624403953552,-0.577392578125,0.31298828125,-0.328369140625
2.582,310,823,799,310,-1.0,40.0,42.0,28.686521530151367,18.24951171875,-4.638671875,-0.724853515625,0.3681640625,-0.3458251953125
2.597,310,784,777,310,-1.0,40.0,42.0,2.685546636581421,4.45556640625,-7.690429210662842,-0.7762451171875,0.227783203125,-0.2288818359375
2.604,310,763,771,310,-3.0,40.0,42.0,2.685546636581421,4.45556640625,-7.690429210662842,-0.7333984375,0.1356201171875,-0.1973876953125
2.612,310,742,764,310,-3.0,40.0,42.0,-2.25830078125,1.2817381620407104,-7.873534679412842,-0.7333984375,0.1356201171875,-0.1973876953125
2.632,310,725,748,310,-3.0,40.0,42.0,2.197265625,-5.493163585662842,-7.751464366912842,-0.657470703125,0.16357421875,-0.0723876953125
2.634,310,721,750,310,-3.0,40.0,42.0,2.197265625,-5.493163585662842,-7.751464366912842,-0.6790771484375,0.2509765625,-0.0489501953125
2.642,309,723,750,312,-3.0,40.0,42.0,5.554198741912842,-9.3994140625,-6.286620616912842,-0.6790771484375,0.2509765625,-0.0489501953125
2.662,308,737,761,310,-3.0,40.0,42.0,2.807616949081421,-14.587401390075684,-4.2724609375,-0.7218017578125,0.277587890625,0.039306640625
2.664,310,742,756,310,-3.0,40.0,42.0,2.807616949081421,-14.587401390075684,-4.2724609375,-0.7662353515625,0.2601318359375,0.052978515625
2.672,310,751,763,312,-3.0,40.0,42.0,-2.685546636581421,-14.099120140075684,-4.5166015625,-0.7662353515625,0.2601318359375,0.052978515625
2.686,310,764,771,310,-3.0,40.0,42.0,-7.507323741912842,-8.9111328125,-3.295898199081421,-0.8380126953125,0.2613525390625,0.0177001953125
2.694,309,771,772,310,-3.0,40.0,42.0,-7.507323741912842,-8.9111328125,-3.295898199081421,-0.8570556640625,0.228759765625,0.007080078125
2.702,310,780,778,311,-6.0,40.0,41.0,-6.042479991912842,-6.103515148162842,-2.929687261581421,-0.8570556640625,0.228759765625,0.007080078125
2.719,310,795,794,311,-6.0,40.0,41.0,-2.25830078125,-1.5869139432907104,0.6713866591453552,-0.8970947265625,0.217041015625,-0.0126953125
2.724,310,806,803,311,-6.0,40.0,41.0,-2.25830078125,-1.5869139432907104,0.6713866591453552,-0.8936767578125,0.191650390625,-0.0184326171875
2.735,310,818,811,311,-6.0,40.0,41.0,-2.624511480331421,-0.3662109076976776,4.0283203125,-0.8936767578125,0.191650390625,-0.0184326171875
2.756,310,844,833,311,-6.0,40.0,41.0,-2.50244140625,1.3427733182907104,11.657713890075684,-0.8631591796875,0.1981201171875,-0.02392578125
2.764,310,861,848,310,-6.0,40.0,41.0,0.0,1.4648436307907104,14.526366233825684,-0.841796875,0.244384765625,-0.036376953125
2.765,310,877,859,311,-6.0,40.0,41.0,0.0,1.4648436307907104,14.526366233825684,-0.8175048828125,0.2783203125,-0.0458984375
2.776,309,920,884,310,-6.0,40.0,41.0,3.601073980331421,-0.4272460639476776,16.17431640625,-0.8035888671875,0.2967529296875,-0.060791015625
2.784,310,944,906,311,-6.0,40.0,41.0,2.25830078125,-0.4272460639476776,16.2353515625,-0.7984619140625,0.2928466796875,-0.081787109375
2.792,310,963,932,310,-6.0,40.0,41.0,2.25830078125,-0.4272460639476776,16.2353515625,-0.782470703125,0.263427734375,-0.0855712890625
2.806,310,1010,986,312,-4.0,38.0,42.0,-4.69970703125,0.9155272841453552,17.2119140625,-0.7427978515625,0.2283935546875,-0.069091796875
2.814,310,1035,1022,312,-4.0,38.0,42.0,-5.126952648162842,1.2817381620407104,17.02880859375,-0.6763916015625,0.2041015625,-0.04833984375
2.826,310,1067,1065,311,-4.0,38.0,42.0,-5.126952648162842,1.2817381620407104,17.02880859375,-0.58447265625,0.212890625,-0.0238037109375
2.840,311,1122,1141,311,-4.0,38.0,42.0,1.5869139432907104,1.0986328125,13.610838890075684,-0.4818115234375,0.2099609375,0.0001220703125
2.849,310,1151,1185,311,-4.0,38.0,42.0,8.72802734375,-1.15966796875,6.896972179412842,-0.42333984375,0.1900634765625,-0.0281982421875
2.865,310,1178,1241,311,-4.0,38.0,42.0,8.72802734375,-1.15966796875,6.896972179412842,-0.4859619140625,0.2421875,-0.1500244140625
2.866,310,1215,1348,311,-4.0,38.0,42.0,24.230955123901367,-5.310058116912842,-11.230467796325684,-0.6949462890625,0.4207763671875,-0.32470703125
2.874,311,1241,1392,311,-4.0,38.0,42.0,15.014647483825684,-8.72802734375,-17.63916015625,-0.9705810546875,0.63720703125,-0.3797607421875
2.887,310,1259,1430,312,-4.0,38.0,42.0,15.014647483825684,-8.72802734375,-17.63916015625,-1.2574462890625,0.7568359375,-0.30615234375
2.896,310,1294,1488,311,-4.0,38.0,42.0,-24.719236373901367,-20.507810592651367,-25.024412155151367,-1.5596923828125,0.7110595703125,-0.22509765625
2.906,311,1316,1514,311,-3.0,39.0,45.0,-31.188962936401367,-24.475095748901367,-29.846189498901367,-1.858642578125,0.5377197265625,-0.1444091796875
2.916,310,1315,1511,312,-3.0,39.0,45.0,-32.1044921875,-28.137205123901367,-33.99658203125,-2.09033203125,0.3721923828125,-0.043212890625
2.932,311,1282,1464,310,-3.0,39.0,45.0,-34.1796875,-29.541013717651367,-31.616209030151367,-1.9193115234375,0.132080078125,0.1513671875
2.941,310,1274,1453,311,-3.0,39.0,45.0,-27.587888717651367,-21.850584030151367,-22.521970748901367,-1.2945556640625,-0.124755859375,0.3382568359375
2.942,311,1274,1449,311,-3.0,39.0,45.0,-4.8828125,-4.21142578125,-9.94873046875,-0.8798828125,0.0489501953125,0.2528076171875
2.967,311,1266,1412,312,-3.0,39.0,45.0,15.136717796325684,10.498045921325684,0.2441406100988388,-1.065673828125,0.5198974609375,-0.0933837890625
2.968,310,1248,1371,311,-3.0,39.0,45.0,14.831542015075684,12.756346702575684,0.30517578125,-1.498291015625,0.724853515625,-0.350830078125
2.973,310,1239,1325,312,-3.0,39.0,45.0,1.4648436307907104,7.019042491912842,-6.958007335662842,-1.765625,0.5877685546875,-0.322265625
2.986,310,1204,1255,310,-3.0,39.0,45.0,-11.962889671325684,0.7934569716453552,-11.596678733825684,-1.7821044921875,0.3541259765625,-0.13525390625
3.000,310,1170,1219,312,-3.0,39.0,45.0,-15.869139671325684,-1.3427733182907104,-8.544921875,-1.6300048828125,0.2528076171875,0.0540771484375
3.002,312,1130,1175,311,-4.0,38.0,40.0,-9.09423828125,1.5258787870407104,-0.3662109076976776,-1.42236328125,0.282958984375,0.135009765625
3.016,310,1055,1087,310,-4.0,38.0,40.0,-1.3427733182907104,7.629394054412842,8.30078125,-1.1683349609375,0.25439453125,0.1434326171875
3.024,310,1000,1029,311,-4.0,38.0,40.0,3.417968511581421,14.526366233825684,14.465331077575684,-0.859130859375,0.155029296875,0.1455078125
3.045,310,964,981,311,-4.0,38.0,40.0,8.4228515625,20.812986373901367,16.90673828125,-0.5823974609375,0.080078125,0.1094970703125
3.046,312,893,916,310,-4.0,38.0,40.0,15.624999046325684,24.963376998901367,15.197752952575684,-0.4422607421875,0.0733642578125,0.02587890625
3.071,310,861,865,311,-4.0,38.0,40.0,23.864744186401367,25.939939498901367,10.437010765075684,-0.4586181640625,0.1387939453125,-0.1131591796875
3.071,310,827,830,310,-4.0,38.0,40.0,29.052732467651367,24.414060592651367,4.7607421875,-0.57080078125,0.2503662109375,-0.2403564453125
3.076,310,780,794,311,-4.0,38.0,40.0,27.404783248901367,19.83642578125,-0.0610351525247097,-0.6728515625,0.3123779296875,-0.2867431640625
3.084,310,753,780,311,-4.0,38.0,40.0,19.83642578125,14.648436546325684,-3.112792730331421,-0.7164306640625,0.274658203125,-0.3179931640625
3.092,310,725,770,309,-4.0,38.0,40.0,12.023924827575684,11.596678733825684,-4.0283203125,-0.722412109375,0.263671875,-0.32763671875
3.113,310,703,766,310,-5.0,40.0,43.0,6.774901866912842,7.080077648162842,-4.150390625,-0.6888427734375,0.2718505859375,-0.2530517578125
3.114,311,694,766,300,-5.0,40.0,43.0,3.234863042831421,0.1831054538488388,-5.126952648162842,-0.65869140625,0.236572265625,-0.1453857421875
3.122,310,689,758,310,-5.0,40.0,43.0,1.4038084745407104,-6.286620616912842,-5.920409679412842,-0.669921875,0.2352294921875,-0.0570068359375
3.136,310,694,766,310,-5.0,40.0,43.0,0.9155272841453552,-10.742186546325684,-6.164550304412842,-0.6988525390625,0.2686767578125,0.0152587890625
3.157,310,707,772,310,-5.0,40.0,43.0,-0.2441406100988388,-13.305663108825684,-6.591796398162842,-0.727783203125,0.2716064453125,0.069091796875
3.164,310,713,777,311,-5.0,40.0,43.0,-2.197265625,-13.427733421325684,-6.591796398162842,-0.769287109375,0.257568359375,0.0850830078125
3.172,310,726,790,310,-5.0,40.0,43.0,-4.150390625,-11.169432640075684,-5.493163585662842,-0.8111572265625,0.260986328125,0.0745849609375
3.174,311,740,796,312,-5.0,40.0,43.0,-5.432128429412842,-7.751464366912842,-4.0283203125,-0.8277587890625,0.248046875,0.055419921875
3.182,311,750,797,311,-5.0,40.0,43.0,-5.0048828125,-4.33349609375,-3.234863042831421,-0.8336181640625,0.2177734375,0.0355224609375
3.196,310,764,810,310,-5.0,40.0,43.0,-3.295898199081421,-1.3427733182907104,-2.25830078125,-0.8521728515625,0.228515625,0.01611328125
3.204,310,779,832,310,-3.0,39.0,38.0,-2.50244140625,0.8544921278953552,-0.3662109076976776,-0.8756103515625,0.257080078125,0.0020751953125
3.213,309,790,838,311,-3.0,39.0,38.0,-3.173827886581421,2.38037109375,1.5869139432907104,-0.8831787109375,0.240478515625,-0.0032958984375
3.281,310,816,854,312,-3.0,39.0,38.0,-4.57763671875,3.784179449081421,3.540038824081421,-0.863525390625,0.1636962890625,-0.0186767578125
3.286,310,835,861,311,-3.0,39.0,38.0,-5.493163585662842,5.249022960662842,6.347655773162842,-0.863525390625,0.1636962890625,-0.0186767578125
3.286,311,856,868,311,-3.0,39.0,38.0,-4.2724609375,5.737304210662842,9.70458984375,-0.8414306640625,0.1859130859375,-0.031494140625
3.287,310,901,907,310,-3.0,39.0,38.0,-1.15966796875,4.5166015625,12.207030296325684,-0.802978515625,0.2901611328125,-0.0716552734375
3.287,310,921,913,312,-3.0,39.0,38.0,1.7700194120407104,2.197265625,13.061522483825684,-0.802978515625,0.2901611328125,-0.0716552734375
3.288,309,943,931,312,-3.0,39.0,38.0,1.8310545682907104,0.54931640625,12.756346702575684,-0.832275390625,0.3314208984375,-0.123046875
3.288,309,986,963,310,-3.0,39.0,38.0,-2.624511480331421,0.30517578125,12.023924827575684,-0.8505859375,0.274169921875,-0.1285400390625
3.294,310,1008,992,310,-3.0,39.0,38.0,-9.521484375,0.9765624403953552,11.108397483825684,-0.8505859375,0.274169921875,-0.1285400390625
3.303,310,1029,1038,311,-4.0,38.0,41.0,-14.099120140075684,1.7089842557907104,10.192870140075684,-0.786376953125,0.2303466796875,-0.0830078125
3.316,309,1091,1116,310,-4.0,38.0,41.0,-12.817381858825684,1.6479490995407104,9.09423828125,-0.550537109375,0.195068359375,0.0177001953125
3.324,310,1125,1146,312,-4.0,38.0,41.0,-6.896972179412842,0.1831054538488388,6.896972179412842,-0.550537109375,0.195068359375,0.0177001953125
3.338,310,1147,1198,310,-4.0,38.0,41.0,0.4272460639476776,-2.38037109375,3.417968511581421,-0.4810791015625,0.1571044921875,0.0074462890625
3.350,310,1189,1294,312,-4.0,38.0,41.0,8.4228515625,-4.8828125,-0.2441406100988388,-0.662109375,0.3590087890625,-0.2213134765625
3.373,309,1216,1346,311,-4.0,38.0,41.0,16.845703125,-7.141112804412842,-5.187987804412842,-0.8646240234375,0.514892578125,-0.3212890625
3.376,311,1236,1392,311,-4.0,38.0,41.0,19.8974609375,-10.253905296325684,-13.061522483825684,-0.8646240234375,0.514892578125,-0.3212890625
3.377,310,1281,1455,311,-4.0,38.0,41.0,-3.540038824081421,-19.47021484375,-28.320310592651367,-1.333984375,0.6141357421875,-0.261962890625
3.385,310,1309,1484,310,-4.0,38.0,41.0,-3.540038824081421,-19.47021484375,-28.320310592651367,-1.611083984375,0.5494384765625,-0.2098388671875
3.392,310,1323,1502,312,-4.0,38.0,41.0,-18.310546875,-23.376462936401367,-30.517576217651367,-1.611083984375,0.5494384765625,-0.2098388671875
3.406,310,1338,1514,311,-3.0,40.0,37.0,-26.489255905151367,-31.433103561401367,-30.883787155151367,-1.9210205078125,0.250732421875,0.0721435546875
3.414,310,1323,1502,311,-3.0,40.0,37.0,-26.489255905151367,-31.433103561401367,-30.883787155151367,-1.657958984375,0.0400390625,0.230224609375
3.423,310,1309,1477,312,-3.0,40.0,37.0,-20.507810592651367,-30.517576217651367,-25.756834030151367,-1.657958984375,0.0400390625,0.230224609375
3.436,309,1282,1435,310,-3.0,40.0,37.0,13.183592796325684,-4.8828125,-6.896972179412842,-0.8582763671875,0.1629638671875,0.088623046875
3.470,311,1281,1422,310,-3.0,40.0,37.0,13.183592796325684,-4.8828125,-6.896972179412842,-0.97412109375,0.475830078125,-0.1806640625
3.481,309,1281,1392,312,-3.0,40.0,37.0,20.507810592651367,5.981444835662842,-0.7934569716453552,-0.97412109375,0.475830078125,-0.1806640625
3.482,310,1268,1363,310,-3.0,40.0,37.0,12.878417015075684,7.446288585662842,-2.929687261581421,-1.3529052734375,0.6041259765625,-0.33642578125
3.482,310,1213,1269,312,-3.0,40.0,37.0,-15.258788108825684,-5.432128429412842,-12.084959983825684,-1.8740234375,0.3819580078125,-0.1585693359375
3.483,310,1196,1292,310,-3.0,40.0,37.0,-15.258788108825684,-5.432128429412842,-12.084959983825684,-1.75048828125,0.2857666015625,0.0521240234375
3.491,310,1183,1245,310,-3.0,40.0,37.0,-17.27294921875,-9.33837890625,-9.70458984375,-1.75048828125,0.2857666015625,0.0521240234375
3.505,311,1112,1162,310,-2.0,39.0,42.0,0.3662109076976776,-2.0751953125,2.929687261581421,-1.21240234375,0.290771484375,0.2269287109375
3.513,310,1074,1096,310,-2.0,39.0,42.0,0.3662109076976776,-2.0751953125,2.929687261581421,-0.9263916015625,0.2335205078125,0.186767578125
3.522,309,1029,1022,311,-2.0,39.0,42.0,3.417968511581421,6.652831554412842,7.629394054412842,-0.9263916015625,0.2335205078125,0.186767578125
3.535,310,948,927,310,-2.0,39.0,42.0,1.0986328125,22.399900436401367,10.803221702575684,-0.5828857421875,0.123046875,-0.0018310546875
3.543,310,913,885,312,-2.0,39.0,42.0,1.0986328125,22.399900436401367,10.803221702575684,-0.5809326171875,0.1094970703125,-0.0889892578125
3.554,310,867,853,310,-2.0,39.0,42.0,6.774901866912842,24.414060592651367,8.48388671875,-0.5809326171875,0.1094970703125,-0.0889892578125
3.583,310,813,808,310,-2.0,39.0,42.0,22.888181686401367,20.629880905151367,2.01416015625,-0.691162109375,0.1617431640625,-0.1717529296875
3.583,294,770,782,310,-2.0,39.0,42.0,24.475095748901367,17.08984375,0.0610351525247097,-0.71875,0.0843505859375,-0.175048828125
3.584,310,712,780,311,-2.0,39.0,42.0,24.475095748901367,17.08984375,0.0610351525247097,-0.714111328125,0.0194091796875,-0.212890625
3.595,311,647,770,310,-2.0,41.0,42.0,21.972654342651367,12.695311546325684,-0.0610351525247097,-0.6690673828125,0.0245361328125,-0.204833984375
3.604,309,622,763,310,-2.0,41.0,42.0,16.4794921875,7.324218273162842,3.417968511581421,-0.643798828125,0.0865478515625,-0.1553955078125
3.611,310,614,765,310,-2.0,41.0,42.0,16.4794921875,7.324218273162842,3.417968511581421,-0.665283203125,0.2037353515625,-0.116943359375
3.625,310,604,764,310,-2.0,41.0,42.0,6.225585460662842,-2.929687261581421,12.451170921325684,-0.697021484375,0.310546875,-0.08740234375
3.633,310,606,764,310,-2.0,41.0,42.0,2.563476324081421,-5.676269054412842,13.366698265075684,-0.731201171875,0.3824462890625,-0.0576171875
3.641,310,607,767,311,-2.0,41.0,42.0,2.563476324081421,-5.676269054412842,13.366698265075684,-0.754150390625,0.430908203125,-0.0218505859375
3.657,309,627,770,309,-2.0,41.0,42.0,-3.906249761581421,-7.812499523162842,9.3994140625,-0.766357421875,0.4337158203125,0.021728515625
3.683,310,634,767,310,-2.0,41.0,42.0,-6.713866710662842,-7.080077648162842,5.737304210662842,-0.791015625,0.3809814453125,0.059814453125
3.687,310,644,771,310,-2.0,41.0,42.0,-6.713866710662842,-7.080077648162842,5.737304210662842,-0.8106689453125,0.3037109375,0.0792236328125
3.687,310,666,785,311,-2.0,41.0,42.0,-11.901854515075684,-2.13623046875,1.3427733182907104,-0.804931640625,0.2293701171875,0.0810546875
3.693,310,683,796,310,-2.0,41.0,42.0,-11.596678733825684,0.9155272841453552,1.8920897245407104,-0.8023681640625,0.189208984375,0.072265625
3.701,310,697,800,311,-3.0,42.0,40.0,-11.596678733825684,0.9155272841453552,1.8920897245407104,-0.821533203125,0.2003173828125,0.0484619140625
3.715,310,726,818,310,-3.0,42.0,40.0,-4.7607421875,4.94384765625,6.103515148162842,-0.849365234375,0.2274169921875,0.016357421875
3.724,310,749,824,310,-3.0,42.0,40.0,-2.13623046875,5.615233898162842,8.1787109375,-0.8565673828125,0.234130859375,-0.0037841796875
3.731,310,766,837,310,-3.0,42.0,40.0,-0.9765624403953552,5.310058116912842,9.6435546875,-0.8287353515625,0.219970703125,-0.0107421875
3.745,310,809,864,310,-3.0,42.0,40.0,-1.15966796875,4.33349609375,11.230467796325684,-0.7755126953125,0.189453125,-0.00732421875
3.759,310,830,883,311,-3.0,42.0,40.0,-2.563476324081421,2.929687261581421,13.305663108825684,-0.7203369140625,0.16796875,-0.0008544921875
3.761,308,868,912,311,-3.0,42.0,40.0,-2.0751953125,1.0986328125,15.502928733825684,-0.687255859375,0.1981201171875,-0.005615234375
3.792,310,932,958,310,-3.0,42.0,40.0,1.4648436307907104,-1.03759765625,16.66259765625,-0.6861572265625,0.27685546875,-0.039794921875
3.793,310,974,994,311,-3.0,42.0,40.0,3.479003667831421,-2.38037109375,16.41845703125,-0.7169189453125,0.349609375,-0.10400390625
3.793,310,1012,1025,311,-3.0,42.0,40.0,0.54931640625,-1.8310545682907104,14.587401390075684,-0.735595703125,0.3448486328125,-0.1434326171875
3.805,310,1089,1125,312,-3.0,40.0,37.0,-6.103515148162842,-0.4882812201976776,10.803221702575684,-0.6810302734375,0.25244140625,-0.116455078125
3.813,311,1125,1175,311,-3.0,40.0,37.0,-10.498045921325684,-0.7324218153953552,5.615233898162842,-0.5867919921875,0.1658935546875,-0.0657958984375
3.822,309,1159,1219,312,-3.0,40.0,37.0,-5.798339366912842,-4.2724609375,-0.6713866591453552,-0.5404052734375,0.1866455078125,-0.0811767578125
3.835,310,1213,1323,310,-3.0,40.0,37.0,7.080077648162842,-10.314940452575684,-8.1787109375,-0.60107421875,0.3050537109375,-0.2099609375
3.843,310,1232,1369,311,-3.0,40.0,37.0,17.333984375,-16.66259765625,-15.563963890075684,-0.78125,0.455810546875,-0.3790283203125
3.851,310,1255,1409,310,-3.0,40.0,37.0,14.953612327575684,-22.827146530151367,-21.362302780151367,-1.0135498046875,0.5723876953125,-0.3968505859375
3.865,310,1300,1483,312,-3.0,40.0,37.0,-0.2441406100988388,-28.442380905151367,-24.963376998901367,-1.2708740234375,0.616943359375,-0.2734375
3.891,308,1323,1511,311,-3.0,40.0,37.0,-18.798828125,-32.04345703125,-27.954099655151367,-1.585205078125,0.5445556640625,-0.13818359375
3.892,310,1338,1533,312,-3.0,40.0,37.0,-32.53173828125,-33.935546875,-31.555173873901367,-1.888427734375,0.408203125,0.0277099609375
3.901,310,1325,1492,312,-3.0,37.0,42.0,-41.931148529052734,-33.8134765625,-31.188962936401367,-2.0572509765625,0.2601318359375,0.2005615234375
3.903,310,1320,1472,312,-3.0,37.0,42.0,-44.250484466552734,-28.015134811401367,-22.583005905151367,-1.83056640625,0.0078125,0.3634033203125
3.911,310,1306,1452,312,-3.0,37.0,42.0,-26.000974655151367,-12.939452171325684,-8.6669921875,-1.224853515625,-0.1719970703125,0.4307861328125
3.925,310,1305,1447,311,-3.0,37.0,42.0,11.291502952575684,7.873534679412842,5.187987804412842,-0.820556640625,0.0908203125,0.2200927734375
3.934,312,1294,1447,312,-3.0,37.0,42.0,39.9169921875,23.193357467651367,11.169432640075684,-0.93212890625,0.5511474609375,-0.197998046875
3.941,310,1292,1445,312,-3.0,37.0,42.0,35.888671875,23.986814498901367,5.065917491912842,-1.310302734375,0.72021484375,-0.45361328125
3.955,308,1266,1401,312,-3.0,37.0,42.0,5.737304210662842,13.427733421325684,-5.615233898162842,-1.624267578125,0.573974609375,-0.3729248046875
3.964,310,1242,1365,311,-3.0,37.0,42.0,-25.024412155151367,3.112792730331421,-9.94873046875,-1.7413330078125,0.314697265625,-0.126953125
3.981,312,1226,1346,312,-3.0,37.0,42.0,-39.1845703125,0.3662109076976776,-3.967284917831421,-1.6943359375,0.161376953125,0.094482421875
3.998,310,1163,1246,311,-3.0,37.0,42.0,-35.15625,5.0048828125,8.6669921875,-1.5535888671875,0.2034912109375,0.2318115234375
3.999,310,1125,1175,312,-5.0,39.0,43.0,-21.667478561401367,12.878417015075684,21.484373092651367,-1.330078125,0.30517578125,0.26806640625
4.001,310,1079,1103,312,-5.0,39.0,43.0,-7.080077648162842,20.263669967651367,28.198240280151367,-1.0166015625,0.270751953125,0.23291015625
4.015,311,1013,994,311,-5.0,39.0,43.0,8.1787109375,25.146482467651367,26.855466842651367,-0.676025390625,0.1688232421875,0.1558837890625
4.025,310,973,953,310,-5.0,39.0,43.0,25.695798873901367,28.625486373901367,20.507810592651367,-0.4547119140625,0.148681640625,-0.0068359375
4.031,310,931,928,311,-5.0,39.0,43.0,40.588375091552734,30.761716842651367,12.512206077575684,-0.448974609375,0.2396240234375,-0.2164306640625
4.045,310,889,902,311,-5.0,39.0,43.0,44.433589935302734,27.893064498901367,3.967284917831421,-0.748046875,0.4405517578125,-0.405517578125
4.054,310,865,877,311,-5.0,39.0,43.0,33.447265625,18.9208984375,-4.08935546875,-0.748046875,0.4405517578125,-0.405517578125
4.066,310,840,865,311,-5.0,39.0,43.0,13.549803733825684,7.629394054412842,-9.33837890625,-0.82568359375,0.39794921875,-0.313232421875
4.086,310,806,830,309,-5.0,39.0,43.0,-3.173827886581421,0.1831054538488388,-11.108397483825684,-0.832275390625,0.12939453125,-0.2021484375
4.089,310,782,827,310,-5.0,39.0,43.0,-8.85009765625,-1.4648436307907104,-10.131834983825684,-0.832275390625,0.12939453125,-0.2021484375
4.093,310,758,824,310,-5.0,39.0,43.0,-5.676269054412842,-2.44140625,-7.812499523162842,-0.7982177734375,0.154052734375,-0.1214599609375
4.105,310,737,796,310,-4.0,39.0,41.0,-0.4882812201976776,-5.676269054412842,-6.164550304412842,-0.677490234375,0.16552734375,0.0118408203125
4.113,310,725,784,310,-4.0,39.0,41.0,3.906249761581421,-8.97216796875,-5.126952648162842,-0.677490234375,0.16552734375,0.0118408203125
4.126,310,725,784,311,-4.0,39.0,41.0,7.690429210662842,-10.864256858825684,-3.479003667831421,-0.65625,0.1961669921875,0.0517578125
4.135,308,739,794,310,-4.0,39.0,41.0,9.033203125,-11.657713890075684,-2.25830078125,-0.6876220703125,0.2672119140625,0.1142578125
4.143,310,749,799,310,-4.0,39.0,41.0,6.713866710662842,-11.352538108825684,-2.3193359375,-0.6876220703125,0.2672119140625,0.1142578125
4.151,310,754,805,310,-4.0,39.0,41.0,2.807616949081421,-8.7890625,-2.50244140625,-0.749755859375,0.31396484375,0.0751953125
4.169,309,771,813,310,-4.0,39.0,41.0,-0.4882812201976776,-5.126952648162842,-2.25830078125,-0.8194580078125,0.25927734375,-0.000732421875
4.174,309,780,819,311,-4.0,39.0,41.0,-2.563476324081421,-2.13623046875,-2.25830078125,-0.8194580078125,0.25927734375,-0.000732421875
4.196,310,796,823,310,-4.0,39.0,41.0,-2.868652105331421,-0.1220703050494194,-1.8920897245407104,-0.832275390625,0.1954345703125,-0.0028076171875
4.197,310,816,837,311,-3.0,40.0,40.0,-1.6479490995407104,0.7934569716453552,2.929687261581421,-0.877197265625,0.2052001953125,0.0050048828125
4.211,310,833,846,312,-3.0,40.0,40.0,-1.6479490995407104,0.7934569716453552,2.929687261581421,-0.88818359375,0.20751953125,-0.005615234375
4.211,309,846,833,297,-3.0,40.0,40.0,-2.0751953125,0.6713866591453552,5.859374523162842,-0.88818359375,0.20751953125,-0.005615234375
4.225,308,879,882,309,-3.0,40.0,40.0,-2.38037109375,1.8310545682907104,11.718749046325684,-0.84716796875,0.214599609375,-0.005615234375
4.234,310,910,891,310,-3.0,40.0,40.0,-2.38037109375,1.8310545682907104,11.718749046325684,-0.8170166015625,0.2542724609375,-0.008056640625
4.241,310,933,913,310,-3.0,40.0,40.0,0.1831054538488388,1.4038084745407104,14.038084983825684,-0.8170166015625,0.2542724609375,-0.008056640625
4.255,309,981,935,310,-3.0,40.0,40.0,7.873534679412842,-1.5869139432907104,14.831542015075684,-0.800048828125,0.3155517578125,-0.101318359375
4.263,310,1001,958,311,-3.0,40.0,40.0,7.873534679412842,-1.5869139432907104,14.831542015075684,-0.760009765625,0.280029296875,-0.1229248046875
4.271,310,1034,980,312,-3.0,40.0,40.0,5.615233898162842,-2.3193359375,14.038084983825684,-0.760009765625,0.280029296875,-0.1229248046875
4.285,310,1091,1029,310,-3.0,40.0,40.0,-7.751464366912842,-1.3427733182907104,10.742186546325684,-0.6365966796875,0.173583984375,-0.060302734375
4.320,310,1127,1076,311,-8.0,40.0,42.0,-7.751464366912842,-1.3427733182907104,10.742186546325684,-0.5787353515625,0.1854248046875,-0.0234375
4.320,298,1157,1103,310,-8.0,40.0,42.0,-8.9111328125,-1.6479490995407104,7.995604991912842,-0.5787353515625,0.1854248046875,-0.0234375
4.320,310,1199,1191,311,-8.0,40.0,42.0,5.859374523162842,-6.958007335662842,-1.5258787870407104,-0.59033203125,0.3128662109375,-0.13720703125
4.323,311,1226,1255,312,-8.0,40.0,42.0,5.859374523162842,-6.958007335662842,-1.5258787870407104,-0.6527099609375,0.3660888671875,-0.22900390625
4.331,310,1253,1309,312,-8.0,40.0,42.0,11.596678733825684,-10.375975608825684,-7.812499523162842,-0.6527099609375,0.3660888671875,-0.22900390625
4.352,310,1295,1381,310,-8.0,40.0,42.0,0.1831054538488388,-18.73779296875,-21.057126998901367,-0.91357421875,0.353515625,-0.16162109375
4.353,298,1315,1432,311,-8.0,40.0,42.0,-9.033203125,-22.766111373901367,-24.536130905151367,-1.190673828125,0.4373779296875,-0.09326171875
4.361,311,1346,1470,312,-8.0,40.0,42.0,-9.033203125,-22.766111373901367,-24.536130905151367,-1.5667724609375,0.59033203125,-0.0943603515625
4.375,311,1374,1518,310,-8.0,40.0,42.0,-21.728513717651367,-26.550291061401367,-27.893064498901367,-1.889404296875,0.59375,-0.067138671875
4.402,310,1373,1508,311,-8.0,40.0,42.0,-29.418943405151367,-27.709959030151367,-30.090330123901367,-2.065185546875,0.45068359375,0.014404296875
4.403,298,1351,1486,312,-2.0,38.0,45.0,-29.418943405151367,-27.709959030151367,-30.090330123901367,-1.857177734375,0.177978515625,0.1717529296875
4.405,310,1325,1445,312,-2.0,38.0,45.0,-23.925779342651367,-15.380858421325684,-18.6767578125,-1.2547607421875,-0.111083984375,0.3282470703125
4.413,310,1323,1437,311,-2.0,38.0,45.0,-2.929687261581421,0.6103515625,-6.408690929412842,-0.8302001953125,-0.0052490234375,0.2491455078125
4.424,310,1323,1434,311,-2.0,38.0,45.0,-2.929687261581421,0.6103515625,-6.408690929412842,-0.935302734375,0.3990478515625,-0.0806884765625
4.435,310,1311,1404,312,-2.0,38.0,45.0,11.596678733825684,15.014647483825684,5.249022960662842,-1.3507080078125,0.6402587890625,-0.3365478515625
4.443,309,1295,1379,311,-2.0,38.0,45.0,-2.868652105331421,8.36181640625,-0.8544921278953552,-1.70263671875,0.582275390625,-0.318603515625
4.451,310,1271,1342,312,-2.0,38.0,45.0,-2.868652105331421,8.36181640625,-0.8544921278953552,-1.8131103515625,0.371337890625,-0.1336669921875
4.465,310,1236,1292,311,-2.0,38.0,45.0,-23.132322311401367,-3.540038824081421,-2.0751953125,-1.7188720703125,0.2281494140625,0.0810546875
4.479,310,1204,1245,312,-2.0,38.0,45.0,-16.9677734375,-1.15966796875,6.774901866912842,-1.5159912109375,0.233642578125,0.2550048828125
4.481,299,1153,1184,312,-2.0,38.0,45.0,-16.9677734375,-1.15966796875,6.774901866912842,-1.26318359375,0.275390625,0.307373046875
4.507,310,1085,1078,312,-4.0,39.0,43.0,3.417968511581421,14.587401390075684,22.766111373901367,-0.9847412109375,0.2435302734375,0.2401123046875
4.508,311,1043,1010,310,-4.0,39.0,43.0,10.620116233825684,21.972654342651367,23.742673873901367,-0.7296142578125,0.211669921875,0.095947265625
4.513,310,989,966,310,-4.0,39.0,43.0,17.27294921875,26.611326217651367,20.263669967651367,-0.5767822265625,0.21484375,-0.07373046875
4.532,310,927,894,311,-4.0,39.0,43.0,22.033689498901367,26.977537155151367,14.221190452575684,-0.5660400390625,0.2451171875,-0.2005615234375
4.534,310,889,871,311,-4.0,39.0,43.0,22.644041061401367,23.742673873901367,7.385253429412842,-0.64013671875,0.27197265625,-0.26513671875
4.543,308,853,835,311,-4.0,39.0,43.0,18.1884765625,18.37158203125,1.220703125,-0.7171630859375,0.247802734375,-0.238525390625
4.556,309,793,790,310,-4.0,39.0,43.0,12.084959983825684,12.939452171325684,-2.563476324081421,-0.763427734375,0.16796875,-0.2061767578125
4.564,310,750,780,312,-4.0,39.0,43.0,8.97216796875,10.681151390075684,-3.356933355331421,-0.771240234375,0.0966796875,-0.2357177734375
4.606,310,715,767,311,-4.0,39.0,43.0,9.3994140625,9.8876953125,-1.8920897245407104,-0.7354736328125,0.113525390625,-0.228271484375
4.606,310,676,754,310,-4.0,39.0,43.0,9.58251953125,6.286620616912842,-0.1831054538488388,-0.671142578125,0.1536865234375,-0.1590576171875
4.606,312,654,755,297,-2.0,40.0,42.0,7.446288585662842,1.220703125,1.4648436307907104,-0.64111328125,0.1954345703125,-0.087158203125
4.606,311,629,731,311,-2.0,40.0,42.0,4.82177734375,-3.967284917831421,3.295898199081421,-0.6439208984375,0.24951171875,-0.0086669921875
4.616,310,644,754,310,-2.0,40.0,42.0,2.3193359375,-8.60595703125,3.479003667831421,-0.6485595703125,0.278564453125,0.060302734375
4.624,310,653,758,310,-2.0,40.0,42.0,-0.6103515625,-10.559081077575684,2.807616949081421,-0.6708984375,0.320556640625,0.0814208984375
4.640,310,666,767,311,-2.0,40.0,42.0,-2.929687261581421,-9.58251953125,2.50244140625,-0.708740234375,0.374267578125,0.07275390625
4.646,311,684,771,310,-2.0,40.0,42.0,-4.45556640625,-7.324218273162842,1.8920897245407104,-0.7564697265625,0.3985595703125,0.0645751953125
4.654,310,694,780,310,-2.0,40.0,42.0,-5.859374523162842,-5.187987804412842,0.54931640625,-0.7841796875,0.3486328125,0.06689453125
4.662,310,707,785,310,-2.0,40.0,42.0,-6.225585460662842,-3.417968511581421,-0.9765624403953552,-0.784912109375,0.2557373046875,0.072021484375
4.682,308,737,799,310,-2.0,40.0,42.0,-4.7607421875,-2.38037109375,-1.2817381620407104,-0.7923583984375,0.206787109375,0.0631103515625
4.709,310,751,803,310,-2.0,40.0,42.0,-2.13623046875,-1.9531248807907104,-0.3662109076976776,-0.8150634765625,0.1961669921875,0.0357666015625
4.709,298,766,813,294,-6.0,39.0,41.0,0.0610351525247097,-1.3427733182907104,1.4038084745407104,-0.845458984375,0.202880859375,0.0013427734375
4.710,310,785,814,310,-6.0,39.0,41.0,0.3662109076976776,-0.30517578125,4.2724609375,-0.8670654296875,0.2188720703125,-0.0225830078125
4.714,310,826,848,310,-6.0,39.0,41.0,-0.9765624403953552,0.54931640625,7.690429210662842,-0.8575439453125,0.2264404296875,-0.0203857421875
4.723,310,853,865,310,-6.0,39.0,41.0,-2.01416015625,0.3662109076976776,10.498045921325684,-0.8077392578125,0.22314453125,0.004150390625
4.744,309,917,893,310,-6.0,39.0,41.0,-0.1831054538488388,-0.9155272841453552,11.718749046325684,-0.6756591796875,0.2071533203125,0.02490234375
4.746,311,955,927,311,-6.0,39.0,41.0,3.967284917831421,-3.051757574081421,12.023924827575684,-0.6756591796875,0.2071533203125,0.02490234375
4.752,309,989,960,312,-6.0,39.0,41.0,8.056640625,-5.0048828125,12.756346702575684,-0.6630859375,0.2503662109375,-0.014892578125
4.766,310,1050,1048,312,-6.0,39.0,41.0,9.70458984375,-5.065917491912842,12.756346702575684,-0.7166748046875,0.351806640625,-0.1431884765625
4.774,310,1096,1098,310,-6.0,39.0,41.0,5.981444835662842,-3.601073980331421,9.82666015625,-0.7166748046875,0.351806640625,-0.1431884765625
4.783,311,1129,1141,312,-6.0,39.0,41.0,-2.01416015625,-2.3193359375,4.82177734375,-0.64013671875,0.257080078125,-0.1134033203125
4.803,310,1188,1241,310,-3.0,38.0,39.0,-7.019042491912842,-2.929687261581421,0.0610351525247097,-0.4857177734375,0.1649169921875,-0.031982421875
4.807,310,1225,1268,310,-3.0,38.0,39.0,-3.417968511581421,-6.042479991912842,-4.0283203125,-0.4857177734375,0.1649169921875,-0.031982421875
4.813,311,1250,1355,312,-3.0,38.0,39.0,6.958007335662842,-10.314940452575684,-8.7890625,-0.5711669921875,0.2686767578125,-0.137451171875
4.822,311,1273,1401,311,-3.0,38.0,39.0,15.380858421325684,-14.587401390075684,-15.747069358825684,-0.8101806640625,0.4644775390625,-0.336669921875
4.835,310,1325,1471,312,-3.0,38.0,39.0,10.742186546325684,-20.507810592651367,-23.986814498901367,-1.4818115234375,0.7684326171875,-0.393310546875
4.849,310,1361,1502,311,-3.0,38.0,39.0,-6.469726085662842,-29.235837936401367,-32.2265625,-1.4818115234375,0.7684326171875,-0.393310546875
4.852,310,1370,1514,311,-3.0,38.0,39.0,-25.878904342651367,-39.4287109375,-40.527339935302734,-1.86181640625,0.596435546875,-0.1925048828125
4.865,311,1365,1501,311,-3.0,38.0,39.0,-40.0390625,-47.424312591552734,-44.738765716552734,-2.09521484375,0.0546875,0.3541259765625
4.873,310,1349,1498,312,-3.0,38.0,39.0,-46.691890716552734,-47.790523529052734,-38.75732421875,-2.09521484375,0.0546875,0.3541259765625
4.886,310,1334,1478,312,-3.0,38.0,39.0,-39.55078125,-35.888671875,-23.742673873901367,-1.5230712890625,-0.244384765625,0.571533203125
4.898,311,1326,1457,311,-2.0,38.0,39.0,-13.122557640075684,-11.840819358825684,-5.0048828125,-0.7745361328125,0.25732421875,0.17822265625
4.903,311,1325,1456,311,-2.0,38.0,39.0,16.2353515625,13.122557640075684,12.023924827575684,-0.7745361328125,0.25732421875,0.17822265625
4.920,310,1320,1437,312,-2.0,38.0,39.0,25.085447311401367,25.207517623901367,18.5546875,-1.1412353515625,0.674072265625,-0.2608642578125
4.925,308,1300,1401,311,-2.0,38.0,39.0,12.207030296325684,21.789548873901367,11.535643577575684,-1.7254638671875,0.493408203125,-0.2373046875
4.933,311,1279,1363,312,-2.0,38.0,39.0,-6.469726085662842,10.681151390075684,0.7934569716453552,-1.7254638671875,0.493408203125,-0.2373046875
4.941,310,1259,1334,312,-2.0,38.0,39.0,-17.76123046875,2.197265625,-3.356933355331421,-1.6917724609375,0.281005859375,0.0096435546875
4.961,310,1204,1267,311,-2.0,38.0,39.0,-8.85009765625,6.530761241912842,10.070799827575684,-1.3431396484375,0.2518310546875,0.258544921875
4.963,308,1162,1209,312,-2.0,38.0,39.0,-8.85009765625,6.530761241912842,10.070799827575684,-1.1192626953125,0.2880859375,0.212646484375
4.971,310,1123,1140,311,-2.0,38.0,39.0,-0.1831054538488388,13.610838890075684,18.310546875,-1.1192626953125,0.2880859375,0.212646484375
5.030,310,1064,1038,312,-4.0,39.0,50.0,7.812499523162842,23.864744186401367,22.399900436401367,-0.6934814453125,0.2589111328125,0.0213623046875
5.031,310,1034,1000,310,-4.0,39.0,50.0,7.812499523162842,23.864744186401367,22.399900436401367,-0.6082763671875,0.2532958984375,-0.093017578125
5.032,310,985,960,312,-4.0,39.0,50.0,11.291502952575684,26.062009811401367,17.08984375,-0.6082763671875,0.2532958984375,-0.093017578125
5.032,310,933,920,311,-4.0,39.0,50.0,19.59228515625,20.080564498901367,0.7324218153953552,-0.7147216796875,0.2647705078125,-0.2244873046875
5.033,310,912,888,311,-4.0,39.0,50.0,19.59228515625,20.080564498901367,0.7324218153953552,-0.7646484375,0.2515869140625,-0.2142333984375
5.034,311,877,871,310,-4.0,39.0,50.0,18.98193359375,15.075682640075684,-5.0048828125,-0.7646484375,0.2515869140625,-0.2142333984375
5.045,310,826,849,310,-4.0,39.0,50.0,11.169432640075684,7.385253429412842,-6.652831554412842,-0.765380859375,0.137451171875,-0.158203125
5.061,310,794,846,310,-4.0,39.0,50.0,11.169432640075684,7.385253429412842,-6.652831554412842,-0.735595703125,0.1019287109375,-0.16259765625
5.062,310,778,823,311,-4.0,39.0,50.0,8.97216796875,6.530761241912842,-5.187987804412842,-0.735595703125,0.1019287109375,-0.16259765625
5.075,308,756,799,310,-4.0,39.0,50.0,7.690429210662842,1.4038084745407104,-0.9155272841453552,-0.677734375,0.207763671875,-0.0477294921875
5.090,310,742,790,311,-4.0,39.0,50.0,7.690429210662842,1.4038084745407104,-0.9155272841453552,-0.68017578125,0.281494140625,0.005859375
5.091,309,739,790,311,-3.0,39.0,39.0,7.324218273162842,-2.25830078125,1.5869139432907104,-0.68017578125,0.281494140625,0.005859375
5.120,308,749,808,310,-3.0,39.0,39.0,4.08935546875,-6.896972179412842,0.7324218153953552,-0.6993408203125,0.302978515625,0.0648193359375
5.120,310,740,810,310,-3.0,39.0,39.0,0.7934569716453552,-5.920409679412842,0.0610351525247097,-0.740966796875,0.3399658203125,0.0556640625
5.125,312,766,810,310,-3.0,39.0,39.0,0.7934569716453552,-5.920409679412842,0.0610351525247097,-0.7921142578125,0.3642578125,0.0474853515625
5.142,310,780,819,311,-3.0,39.0,39.0,-4.0283203125,-2.990722417831421,-2.563476324081421,-0.8275146484375,0.3199462890625,0.0450439453125
5.143,310,794,832,309,-3.0,39.0,39.0,-3.723144292831421,-1.4648436307907104,-3.967284917831421,-0.847412109375,0.2410888671875,0.043212890625
5.151,310,803,840,310,-3.0,39.0,39.0,-3.723144292831421,-1.4648436307907104,-3.967284917831421,-0.86962890625,0.21142578125,0.034423828125
5.169,309,823,858,310,-3.0,39.0,39.0,0.0,0.1831054538488388,-2.197265625,-0.8914794921875,0.219482421875,0.01416015625
5.173,310,830,864,311,-3.0,39.0,39.0,0.9155272841453552,0.6103515625,0.1831054538488388,-0.9034423828125,0.2325439453125,-0.0084228515625
5.181,310,840,868,312,-3.0,39.0,39.0,0.9155272841453552,0.6103515625,0.1831054538488388,-0.8956298828125,0.2320556640625,-0.0164794921875
5.195,309,865,877,312,-3.0,37.0,42.0,-0.54931640625,2.563476324081421,5.187987804412842,-0.8675537109375,0.2164306640625,-0.0068359375
5.211,310,878,889,311,-3.0,37.0,42.0,-1.8920897245407104,3.417968511581421,7.263183116912842,-0.8211669921875,0.205322265625,0.0166015625
5.214,310,904,888,312,-3.0,37.0,42.0,-1.8920897245407104,3.417968511581421,7.263183116912842,-0.7596435546875,0.2049560546875,0.0364990234375
5.225,310,954,917,310,-3.0,37.0,42.0,0.9765624403953552,1.8920897245407104,9.8876953125,-0.7091064453125,0.2178955078125,0.0322265625
5.233,310,986,944,310,-3.0,37.0,42.0,5.0048828125,0.1220703050494194,10.620116233825684,-0.6981201171875,0.254150390625,-0.0069580078125
5.241,310,1013,959,311,-3.0,37.0,42.0,5.0048828125,0.1220703050494194,10.620116233825684,-0.724853515625,0.298828125,-0.0679931640625
5.258,309,1064,1022,311,-3.0,37.0,42.0,2.13623046875,0.7324218153953552,11.169432640075684,-0.7396240234375,0.2969970703125,-0.0992431640625
5.263,310,1097,1073,311,-3.0,37.0,42.0,-7.385253429412842,3.234863042831421,9.6435546875,-0.708740234375,0.2451171875,-0.070556640625
5.276,310,1129,1109,310,-3.0,37.0,42.0,-16.9677734375,6.286620616912842,7.385253429412842,-0.6478271484375,0.21533203125,-0.01171875
5.285,310,1182,1192,312,-3.0,38.0,44.0,-21.850584030151367,7.934569835662842,4.8828125,-0.5706787109375,0.179931640625,0.0423583984375
5.296,310,1215,1245,311,-3.0,38.0,44.0,-18.310546875,6.591796398162842,1.4648436307907104,-0.4986572265625,0.09912109375,0.0517578125
5.301,309,1245,1294,312,-3.0,38.0,44.0,-5.615233898162842,3.356933355331421,-2.0751953125,-0.514892578125,0.09716796875,-0.03759765625
5.329,310,1295,1373,313,-3.0,38.0,44.0,8.72802734375,-0.3662109076976776,-5.737304210662842,-0.6934814453125,0.2734375,-0.200439453125
5.329,310,1323,1406,311,-3.0,38.0,44.0,13.305663108825684,-5.065917491912842,-11.108397483825684,-1.007080078125,0.5887451171875,-0.337158203125
5.331,310,1349,1447,310,-3.0,38.0,44.0,2.563476324081421,-10.864256858825684,-18.1884765625,-1.3870849609375,0.8695068359375,-0.4014892578125
5.345,310,1391,1506,311,-3.0,38.0,44.0,-18.61572265625,-17.63916015625,-25.817869186401367,-1.7615966796875,0.8707275390625,-0.35546875
5.353,310,1400,1528,310,-3.0,38.0,44.0,-37.53662109375,-24.963376998901367,-33.69140625,-1.9945068359375,0.546875,-0.1356201171875
5.371,310,1400,1521,312,-3.0,38.0,44.0,-46.813961029052734,-29.907224655151367,-36.865234375,-2.0111083984375,0.1513671875,0.1754150390625
5.382,311,1369,1486,311,-3.0,38.0,44.0,-42.236324310302734,-27.526853561401367,-29.235837936401367,-1.692138671875,-0.135498046875,0.4169921875
5.383,310,1353,1460,311,-2.0,39.0,42.0,-18.5546875,-14.648436546325684,-14.038084983825684,-1.1580810546875,-0.150634765625,0.4049072265625
5.398,310,1352,1462,311,-2.0,39.0,42.0,14.892577171325684,2.868652105331421,-0.0610351525247097,-0.8931884765625,0.239990234375,0.078125
5.421,310,1348,1447,312,-2.0,39.0,42.0,31.982419967651367,12.756346702575684,3.967284917831421,-1.09814453125,0.68701171875,-0.31494140625
5.427,312,1334,1422,311,-2.0,39.0,42.0,20.263669967651367,9.765625,-4.21142578125,-1.526611328125,0.791748046875,-0.448486328125
5.427,309,1309,1400,310,-2.0,39.0,42.0,-5.737304210662842,-0.2441406100988388,-15.624999046325684,-1.8228759765625,0.5767822265625,-0.2808837890625
5.436,310,1271,1341,311,-2.0,39.0,42.0,-26.000974655151367,-8.056640625,-19.8974609375,-1.8558349609375,0.2840576171875,-0.0150146484375
5.444,311,1234,1289,311,-2.0,39.0,42.0,-29.052732467651367,-8.9111328125,-13.977049827575684,-1.6748046875,0.134033203125,0.2315673828125
5.452,311,1204,1239,312,-2.0,39.0,42.0,-16.41845703125,-3.417968511581421,-1.7089842557907104,-1.391357421875,0.1668701171875,0.3642578125
5.466,310,1111,1118,310,-2.0,39.0,42.0,-1.0986328125,5.798339366912842,10.314940452575684,-1.06884765625,0.1934814453125,0.352294921875
5.478,310,1078,1056,312,-2.0,39.0,42.0,8.30078125,15.930174827575684,17.333984375,-0.765625,0.1654052734375,0.2340087890625
5.488,310,1037,1000,310,-1.0,40.0,41.0,14.221190452575684,24.536130905151367,18.24951171875,-0.56005859375,0.154541015625,0.048095703125
5.500,310,975,953,310,-1.0,40.0,41.0,19.59228515625,28.686521530151367,14.160155296325684,-0.568115234375,0.2064208984375,-0.2415771484375
5.504,310,933,916,310,-1.0,40.0,41.0,23.376462936401367,26.916501998901367,8.056640625,-0.568115234375,0.2064208984375,-0.2415771484375
5.527,312,902,891,311,-1.0,40.0,41.0,23.193357467651367,21.118162155151367,2.197265625,-0.6728515625,0.2484130859375,-0.2705078125
5.527,310,846,871,310,-1.0,40.0,41.0,18.5546875,13.977049827575684,-2.3193359375,-0.8046875,0.171875,-0.2496337890625
5.534,311,806,846,310,-1.0,40.0,41.0,12.756346702575684,9.27734375,-4.8828125,-0.8046875,0.171875,-0.2496337890625
5.542,310,769,824,310,-1.0,40.0,41.0,9.1552734375,7.751464366912842,-5.249022960662842,-0.82421875,0.1644287109375,-0.259033203125
5.556,309,718,809,311,-1.0,40.0,41.0,7.202147960662842,4.57763671875,-4.5166015625,-0.711669921875,0.184814453125,-0.09423828125
5.566,310,691,794,310,-1.0,40.0,41.0,5.310058116912842,-0.2441406100988388,-3.967284917831421,-0.711669921875,0.184814453125,-0.09423828125
5.572,308,673,785,310,-1.0,40.0,41.0,3.845214605331421,-3.906249761581421,-2.868652105331421,-0.6790771484375,0.198974609375,-0.02197265625
5.606,310,661,780,309,-1.0,37.0,42.0,2.38037109375,-7.202147960662842,-1.8310545682907104,-0.665771484375,0.2359619140625,0.1026611328125
5.607,309,663,785,311,-1.0,37.0,42.0,0.0610351525247097,-9.70458984375,-1.8310545682907104,-0.665771484375,0.2359619140625,0.1026611328125
5.608,310,657,794,310,-1.0,37.0,42.0,-2.624511480331421,-9.765625,-1.6479490995407104,-0.6881103515625,0.27392578125,0.1016845703125
5.619,311,694,799,310,-1.0,37.0,42.0,-5.126952648162842,-7.751464366912842,-1.03759765625,-0.7821044921875,0.3726806640625,0.060302734375
5.631,310,700,805,310,-1.0,37.0,42.0,-7.202147960662842,-5.371093273162842,-0.9765624403953552,-0.7821044921875,0.3726806640625,0.060302734375
5.636,310,716,809,310,-1.0,37.0,42.0,-7.690429210662842,-3.906249761581421,-2.3193359375,-0.8087158203125,0.34912109375,0.0595703125
5.646,310,741,814,310,-1.0,37.0,42.0,-6.774901866912842,-1.0986328125,-4.94384765625,-0.8311767578125,0.20458984375,0.0537109375
5.654,308,756,823,310,-1.0,37.0,42.0,-6.774901866912842,-1.0986328125,-4.94384765625,-0.8577880859375,0.1795654296875,0.0262451171875
5.662,310,771,832,311,-1.0,37.0,42.0,-6.713866710662842,1.220703125,-3.479003667831421,-0.8577880859375,0.1795654296875,0.0262451171875
5.676,306,796,846,310,-1.0,37.0,42.0,-8.30078125,5.187987804412842,2.746581792831421,-0.8936767578125,0.1888427734375,-0.0037841796875
5.684,310,818,859,311,-1.0,40.0,43.0,-8.30078125,5.187987804412842,2.746581792831421,-0.867919921875,0.203369140625,0.0074462890625
5.692,310,840,873,310,-1.0,40.0,43.0,-8.72802734375,5.737304210662842,5.432128429412842,-0.867919921875,0.203369140625,0.0074462890625
5.708,309,882,889,310,-1.0,40.0,43.0,-4.21142578125,2.685546636581421,7.019042491912842,-0.759033203125,0.2177734375,0.0301513671875
5.718,310,907,902,311,-1.0,40.0,43.0,-4.21142578125,2.685546636581421,7.019042491912842,-0.710205078125,0.214599609375,0.0216064453125
5.733,309,933,921,312,-1.0,40.0,43.0,-0.1831054538488388,-0.1831054538488388,6.774901866912842,-0.710205078125,0.214599609375,0.0216064453125
5.736,309,989,963,310,-1.0,40.0,43.0,2.563476324081421,-3.112792730331421,8.056640625,-0.7181396484375,0.2847900390625,-0.0208740234375
5.744,309,1025,994,311,-1.0,40.0,43.0,2.563476324081421,-3.112792730331421,8.056640625,-0.783935546875,0.35498046875,-0.07421875
5.752,310,1065,1055,312,-1.0,40.0,43.0,-1.0986328125,-1.5258787870407104,8.1787109375,-0.783935546875,0.35498046875,-0.07421875
5.766,310,1125,1132,311,-1.0,40.0,43.0,-11.901854515075684,3.234863042831421,3.906249761581421,-0.8187255859375,0.3345947265625,-0.1134033203125
5.774,310,1157,1184,312,-1.0,40.0,43.0,-11.901854515075684,3.234863042831421,3.906249761581421,-0.70849609375,0.227783203125,-0.0655517578125
5.782,310,1196,1251,311,-2.0,40.0,38.0,-13.000487327575684,2.25830078125,0.1831054538488388,-0.5592041015625,0.089111328125,-0.015625
5.796,312,1245,1338,310,-2.0,40.0,38.0,3.356933355331421,-8.30078125,-9.521484375,-0.519775390625,0.0428466796875,-0.05615234375
5.825,309,1275,1381,310,-2.0,40.0,38.0,10.498045921325684,-13.549803733825684,-14.160155296325684,-0.7049560546875,0.2191162109375,-0.219970703125
5.831,310,1281,1415,311,-2.0,40.0,38.0,10.498045921325684,-13.549803733825684,-14.160155296325684,-1.046630859375,0.47998046875,-0.38525390625
5.836,317,1309,1474,310,-2.0,40.0,38.0,-4.0283203125,-23.071287155151367,-24.963376998901367,-1.4033203125,0.58056640625,-0.4111328125
5.836,310,1357,1503,312,-2.0,40.0,38.0,-17.2119140625,-29.724119186401367,-31.372068405151367,-1.69091796875,0.5576171875,-0.25244140625
5.842,310,1374,1521,312,-2.0,40.0,38.0,-17.2119140625,-29.724119186401367,-31.372068405151367,-1.8807373046875,0.48681640625,0.00439453125
5.856,310,1369,1506,311,-2.0,40.0,38.0,-31.127927780151367,-37.41455078125,-30.822751998901367,-1.9306640625,0.2939453125,0.249755859375
5.864,310,1363,1506,312,-2.0,40.0,38.0,-30.456541061401367,-30.944822311401367,-23.559568405151367,-1.6541748046875,-0.0303955078125,0.4735107421875
5.873,310,1351,1478,312,-2.0,40.0,38.0,-30.456541061401367,-30.944822311401367,-23.559568405151367,-1.11669921875,-0.2294921875,0.5640869140625
5.886,311,1340,1468,310,0.0,39.0,45.0,-2.01416015625,8.6669921875,4.21142578125,-0.8134765625,0.010498046875,0.3482666015625
5.894,310,1344,1463,312,0.0,39.0,45.0,11.962889671325684,24.658201217651367,14.648436546325684,-0.9837646484375,0.46337890625,-0.0703125
5.902,310,1336,1450,311,0.0,39.0,45.0,11.962889671325684,24.658201217651367,14.648436546325684,-1.3536376953125,0.6556396484375,-0.3436279296875
5.937,310,1308,1413,311,0.0,39.0,45.0,0.6103515625,17.88330078125,3.417968511581421,-1.5994873046875,0.5380859375,-0.311279296875
5.938,312,1292,1381,312,0.0,39.0,45.0,-9.27734375,7.690429210662842,-3.479003667831421,-1.651611328125,0.336669921875,-0.1165771484375
5.938,310,1269,1349,312,0.0,39.0,45.0,-9.27734375,7.690429210662842,-3.479003667831421,-1.5758056640625,0.2469482421875,0.0743408203125
5.946,310,1220,1271,311,0.0,39.0,45.0,-7.507323741912842,3.723144292831421,3.051757574081421,-1.436279296875,0.266357421875,0.169189453125
5.987,310,1196,1204,312,0.0,39.0,45.0,0.2441406100988388,8.48388671875,9.033203125,-1.2398681640625,0.274169921875,0.1754150390625
5.992,310,1160,1145,311,0.0,39.0,45.0,8.11767578125,13.793944358825684,11.901854515075684,-1.00634765625,0.27001953125,0.147705078125
6.002,310,1098,1067,311,0.0,39.0,45.0,14.038084983825684,18.24951171875,11.291502952575684,-0.7996826171875,0.2825927734375,0.06640625
6.002,310,1069,1009,311,-3.0,40.0,43.0,16.357421875,21.057126998901367,7.568358898162842,-0.6845703125,0.2674560546875,-0.0596923828125
6.002,310,1035,968,310,-3.0,40.0,43.0,16.17431640625,20.446775436401367,2.38037109375,-0.6737060546875,0.2374267578125,-0.1590576171875
6.013,310,984,929,311,-3.0,40.0,43.0,15.441893577575684,16.66259765625,-2.01416015625,-0.7200927734375,0.23486328125,-0.20947265625
6.044,310,944,895,310,-3.0,40.0,43.0,14.160155296325684,11.718749046325684,-4.69970703125,-0.76708984375,0.2474365234375,-0.2060546875
6.045,310,927,886,310,-3.0,40.0,43.0,12.268065452575684,6.408690929412842,-6.286620616912842,-0.777099609375,0.208740234375,-0.153564453125
6.045,310,882,848,311,-3.0,40.0,43.0,10.742186546325684,2.197265625,-7.324218273162842,-0.7557373046875,0.091064453125,-0.110107421875
6.046,312,861,833,310,-3.0,40.0,43.0,12.023924827575684,1.220703125,-7.141112804412842,-0.726318359375,0.0191650390625,-0.1162109375
6.052,310,840,816,312,-3.0,40.0,43.0,15.441893577575684,1.7089842557907104,-5.371093273162842,-0.701416015625,0.066162109375,-0.115966796875
6.066,310,826,784,310,-3.0,40.0,43.0,16.66259765625,-0.1220703050494194,-2.929687261581421,-0.681640625,0.1378173828125,-0.0579833984375
6.076,309,822,771,310,-3.0,40.0,43.0,13.610838890075684,-4.0283203125,-0.6713866591453552,-0.6759033203125,0.1702880859375,0.0177001953125
6.082,310,827,767,311,-3.0,40.0,46.0,8.85009765625,-7.080077648162842,1.5258787870407104,-0.685791015625,0.20361328125,0.06005859375
6.096,310,846,770,312,-3.0,40.0,46.0,4.7607421875,-8.11767578125,3.295898199081421,-0.705322265625,0.259521484375,0.0556640625
6.104,310,856,757,310,-3.0,40.0,46.0,2.746581792831421,-8.11767578125,3.784179449081421,-0.7449951171875,0.32373046875,0.031494140625
6.115,310,865,763,310,-3.0,40.0,46.0,2.929687261581421,-8.4228515625,3.356933355331421,-0.7816162109375,0.347900390625,0.0233154296875
6.142,310,883,767,310,-3.0,40.0,46.0,3.906249761581421,-8.544921875,1.9531248807907104,-0.7977294921875,0.296630859375,0.033203125
6.142,310,891,775,310,-3.0,40.0,46.0,4.33349609375,-7.263183116912842,0.4272460639476776,-0.82080078125,0.2227783203125,0.049560546875
6.143,310,905,780,296,-3.0,40.0,46.0,3.540038824081421,-5.0048828125,-0.1831054538488388,-0.85595703125,0.1732177734375,0.0615234375
6.156,311,928,796,310,-3.0,40.0,46.0,2.197265625,-2.50244140625,0.54931640625,-0.8924560546875,0.1646728515625,0.0535888671875
6.164,310,944,803,311,-3.0,40.0,46.0,1.6479490995407104,-0.9765624403953552,2.685546636581421,-0.91455078125,0.1939697265625,0.0369873046875
6.172,310,960,813,309,-3.0,40.0,46.0,2.868652105331421,-0.9765624403953552,5.493163585662842,-0.9195556640625,0.224853515625,0.0179443359375
6.187,309,982,830,310,-1.0,39.0,43.0,5.126952648162842,-1.4038084745407104,7.751464366912842,-0.914306640625,0.2281494140625,-0.0029296875
6.195,310,1000,845,310,-1.0,39.0,43.0,6.530761241912842,-1.5869139432907104,9.33837890625,-0.9014892578125,0.2059326171875,-0.0086669921875
6.202,310,1025,858,310,-1.0,39.0,43.0,7.202147960662842,-2.38037109375,10.864256858825684,-0.88134765625,0.195068359375,-0.0020751953125
6.217,310,1051,884,312,-1.0,39.0,43.0,9.58251953125,-4.638671875,11.962889671325684,-0.8636474609375,0.219970703125,-0.0045166015625
6.246,310,1069,891,311,-1.0,39.0,43.0,14.038084983825684,-7.446288585662842,12.207030296325684,-0.87646484375,0.2696533203125,-0.0400390625
6.247,310,1091,912,310,-1.0,39.0,43.0,16.78466796875,-9.1552734375,11.962889671325684,-0.900146484375,0.3052978515625,-0.093505859375
6.248,306,1129,944,311,-1.0,39.0,43.0,14.526366233825684,-9.3994140625,11.474608421325684,-0.817626953125,0.2318115234375,-0.0550537109375
6.255,308,1148,975,311,-1.0,39.0,43.0,8.9111328125,-9.09423828125,10.681151390075684,-0.817626953125,0.2318115234375,-0.0550537109375
6.266,312,1183,1017,312,-1.0,39.0,43.0,5.676269054412842,-8.544921875,10.192870140075684,-0.7509765625,0.21044921875,-0.0184326171875
6.276,311,1219,1094,311,0.0,38.0,45.0,7.324218273162842,-8.056640625,9.82666015625,-0.672607421875,0.2415771484375,-0.03076171875
6.286,310,1243,1134,311,0.0,38.0,45.0,10.437010765075684,-8.97216796875,8.7890625,-0.672607421875,0.2415771484375,-0.03076171875
6.292,310,1260,1219,311,0.0,38.0,45.0,11.474608421325684,-11.230467796325684,5.676269054412842,-0.617919921875,0.22216796875,-0.0406494140625
6.306,310,1297,1328,312,0.0,38.0,45.0,9.765625,-13.793944358825684,-0.6103515625,-0.66552734375,0.3006591796875,-0.1361083984375
6.320,311,1320,1373,312,0.0,38.0,45.0,6.286620616912842,-16.41845703125,-9.33837890625,-0.66552734375,0.3006591796875,-0.1361083984375
6.323,311,1346,1413,311,0.0,38.0,45.0,0.9155272841453552,-19.34814453125,-17.9443359375,-0.844970703125,0.4228515625,-0.2020263671875
6.350,311,1383,1483,312,0.0,38.0,45.0,-7.385253429412842,-22.766111373901367,-24.536130905151367,-1.361083984375,0.502685546875,-0.103515625
6.351,310,1375,1514,309,0.0,38.0,45.0,-16.54052734375,-26.367185592651367,-28.442380905151367,-1.361083984375,0.502685546875,-0.103515625
6.353,311,1413,1498,311,0.0,38.0,45.0,-22.583005905151367,-29.907224655151367,-29.602048873901367,-1.617431640625,0.4537353515625,0.00390625
6.366,310,1422,1538,312,0.0,38.0,45.0,-22.277830123901367,-32.3486328125,-28.503416061401367,-1.801513671875,0.1629638671875,0.22265625
6.379,310,1415,1533,312,0.0,38.0,45.0,-16.05224609375,-31.066892623901367,-24.353025436401367,-1.801513671875,0.1629638671875,0.22265625
6.384,310,1409,1523,312,-2.0,37.0,48.0,-7.934569835662842,-24.719236373901367,-15.991209983825684,-1.51708984375,0.0159912109375,0.3201904296875
6.396,310,1387,1485,310,-2.0,37.0,48.0,1.220703125,-12.695311546325684,-5.432128429412842,-0.8516845703125,0.2940673828125,0.1060791015625
6.404,310,1382,1486,311,-2.0,37.0,48.0,10.620116233825684,1.2817381620407104,2.746581792831421,-0.971923828125,0.5247802734375,-0.124755859375
6.412,310,1379,1464,312,-2.0,37.0,48.0,12.268065452575684,10.070799827575684,3.295898199081421,-0.971923828125,0.5247802734375,-0.124755859375
6.426,311,1363,1419,312,-2.0,37.0,48.0,-10.681151390075684,5.920409679412842,-11.413573265075684,-1.607177734375,0.4053955078125,-0.0927734375
6.455,310,1344,1379,312,-2.0,37.0,48.0,-10.681151390075684,5.920409679412842,-11.413573265075684,-1.7554931640625,0.2421875,0.0504150390625
6.455,311,1323,1318,312,-2.0,37.0,48.0,-21.423337936401367,2.197265625,-11.962889671325684,-1.7554931640625,0.2421875,0.0504150390625
6.456,295,1273,1239,312,-2.0,37.0,48.0,-19.1650390625,8.7890625,8.11767578125,-1.560302734375,0.2235107421875,0.27490234375
6.467,310,1236,1189,311,-2.0,37.0,48.0,-19.1650390625,8.7890625,8.11767578125,-1.3182373046875,0.2882080078125,0.296142578125
6.474,310,1199,1146,312,-2.0,37.0,48.0,-10.192870140075684,15.319823265075684,18.9208984375,-1.0316162109375,0.2530517578125,0.2376708984375
6.481,311,1160,1100,310,-1.0,37.0,39.0,0.3662109076976776,20.996091842651367,22.827146530151367,-1.0316162109375,0.2530517578125,0.2376708984375
6.497,310,1081,1010,312,-1.0,37.0,39.0,20.996091842651367,27.282712936401367,14.343260765075684,-0.6202392578125,0.255859375,-0.10107421875
6.503,310,1043,963,311,-1.0,37.0,39.0,20.996091842651367,27.282712936401367,14.343260765075684,-0.5982666015625,0.24365234375,-0.2166748046875
6.511,310,1013,927,310,-1.0,37.0,39.0,22.399900436401367,25.512693405151367,7.995604991912842,-0.5982666015625,0.24365234375,-0.2166748046875
6.525,310,959,889,312,-1.0,37.0,39.0,9.46044921875,16.6015625,-1.0986328125,-0.7196044921875,0.1964111328125,-0.2193603515625
6.553,310,928,867,310,-1.0,37.0,39.0,9.46044921875,16.6015625,-1.0986328125,-0.772216796875,0.175048828125,-0.16259765625
6.554,310,885,847,311,-1.0,37.0,39.0,2.929687261581421,13.061522483825684,-2.25830078125,-0.772216796875,0.175048828125,-0.16259765625
6.556,310,809,818,310,-1.0,37.0,39.0,0.3662109076976776,6.958007335662842,-1.5258787870407104,-0.741943359375,0.0423583984375,-0.114990234375
6.563,310,796,805,311,-1.0,37.0,39.0,0.3662109076976776,6.958007335662842,-1.5258787870407104,-0.698974609375,0.0546875,-0.0924072265625
6.572,310,771,797,311,-1.0,37.0,39.0,1.8310545682907104,5.859374523162842,0.0610351525247097,-0.698974609375,0.0546875,-0.0924072265625
6.585,310,751,794,311,0.0,37.0,48.0,0.4882812201976776,-0.4272460639476776,6.286620616912842,-0.6851806640625,0.1634521484375,0.01708984375
6.593,310,750,784,312,0.0,37.0,48.0,0.4882812201976776,-0.4272460639476776,6.286620616912842,-0.70263671875,0.259765625,0.03955078125
6.604,310,749,780,311,0.0,37.0,48.0,0.6713866591453552,-3.173827886581421,9.09423828125,-0.70263671875,0.259765625,0.03955078125
6.615,310,756,777,310,0.0,37.0,48.0,0.1831054538488388,-4.7607421875,8.85009765625,-0.73974609375,0.41162109375,0.0499267578125
6.626,310,766,780,310,0.0,37.0,48.0,-1.2817381620407104,-4.21142578125,6.530761241912842,-0.7674560546875,0.40869140625,0.0743408203125
6.631,302,777,780,310,0.0,37.0,48.0,-1.2817381620407104,-4.21142578125,6.530761241912842,-0.7886962890625,0.3201904296875,0.104248046875
6.649,310,803,793,310,0.0,37.0,48.0,-4.39453125,-0.4882812201976776,0.9765624403953552,-0.791015625,0.1922607421875,0.12353515625
6.660,309,818,803,312,0.0,37.0,48.0,-4.21142578125,2.50244140625,1.220703125,-0.7950439453125,0.1192626953125,0.1243896484375
6.661,310,834,813,310,0.0,37.0,48.0,-4.21142578125,2.50244140625,1.220703125,-0.8145751953125,0.1314697265625,0.10400390625
6.675,310,861,827,310,-2.0,38.0,40.0,2.685546636581421,4.82177734375,7.080077648162842,-0.8380126953125,0.179443359375,0.0714111328125
6.683,311,878,840,311,-2.0,38.0,40.0,6.164550304412842,4.8828125,9.94873046875,-0.8551025390625,0.22802734375,0.0325927734375
6.693,310,901,856,311,-2.0,38.0,40.0,6.164550304412842,4.8828125,9.94873046875,-0.85205078125,0.252197265625,0.007568359375
6.705,310,935,873,311,-2.0,38.0,40.0,6.896972179412842,5.432128429412842,12.451170921325684,-0.8115234375,0.2279052734375,0.01806640625
6.717,310,959,889,311,-2.0,38.0,40.0,4.2724609375,5.554198741912842,13.183592796325684,-0.7470703125,0.16552734375,0.0516357421875
6.721,310,987,913,312,-2.0,38.0,40.0,4.2724609375,5.554198741912842,13.183592796325684,-0.7010498046875,0.13720703125,0.072021484375
6.743,310,1050,960,310,-2.0,38.0,40.0,4.150390625,4.8828125,18.37158203125,-0.685302734375,0.1829833984375,0.0596923828125
6.756,310,1089,1000,311,-2.0,38.0,40.0,9.033203125,4.39453125,21.606443405151367,-0.71533203125,0.279296875,-0.013916015625
6.757,308,1122,1043,310,-2.0,38.0,40.0,9.033203125,4.39453125,21.606443405151367,-0.7618408203125,0.346923828125,-0.1258544921875
6.766,310,1191,1129,312,-2.0,38.0,40.0,9.21630859375,8.30078125,22.460935592651367,-0.7275390625,0.3001708984375,-0.15966796875
6.774,310,1225,1189,312,-4.0,39.0,45.0,2.3193359375,8.1787109375,18.12744140625,-0.582763671875,0.168212890625,-0.0645751953125
6.782,310,1260,1232,312,-4.0,39.0,45.0,0.3662109076976776,4.21142578125,10.864256858825684,-0.4296875,0.059326171875,0.0299072265625
6.797,310,1313,1302,312,-4.0,39.0,45.0,9.8876953125,-1.03759765625,1.8310545682907104,-0.4541015625,0.156494140625,-0.0733642578125
6.804,310,1344,1349,312,-4.0,39.0,45.0,21.606443405151367,-5.0048828125,-6.713866710662842,-0.7012939453125,0.5303955078125,-0.3243408203125
6.812,311,1365,1397,311,-4.0,39.0,45.0,17.39501953125,-9.94873046875,-14.404295921325684,-1.0540771484375,0.9095458984375,-0.50537109375
6.837,311,1397,1469,311,-4.0,39.0,45.0,-6.408690929412842,-18.1884765625,-23.437498092651367,-1.3756103515625,0.97705078125,-0.4600830078125
6.837,311,1415,1504,314,-4.0,39.0,45.0,-31.555173873901367,-27.832029342651367,-33.935546875,-1.6695556640625,0.7313232421875,-0.2322998046875
6.858,310,1432,1524,311,-4.0,39.0,45.0,-42.236324310302734,-35.94970703125,-44.128414154052734,-1.92724609375,0.3441162109375,0.0565185546875
6.859,310,1415,1499,311,-4.0,39.0,45.0,-40.466304779052734,-39.73388671875,-47.607418060302734,-2.0684814453125,0.035888671875,0.3116455078125
6.864,311,1400,1477,312,-4.0,39.0,45.0,-33.447265625,-35.15625,-37.4755859375,-1.857421875,-0.1683349609375,0.4437255859375
6.872,310,1392,1464,311,0.0,37.0,40.0,-18.00537109375,-18.37158203125,-17.822265625,-1.2705078125,-0.23779296875,0.4100341796875
6.886,310,1399,1464,312,0.0,37.0,40.0,6.042479991912842,3.906249761581421,1.7700194120407104,-0.9063720703125,0.0936279296875,0.1827392578125
6.895,310,1386,1457,312,0.0,37.0,40.0,18.5546875,16.7236328125,12.817381858825684,-1.0953369140625,0.57568359375,-0.1170654296875
6.902,312,1380,1437,312,0.0,37.0,40.0,8.85009765625,15.991209983825684,10.437010765075684,-1.48681640625,0.695068359375,-0.230224609375
6.916,310,1351,1380,312,0.0,37.0,40.0,-8.11767578125,9.94873046875,1.7089842557907104,-1.7042236328125,0.4873046875,-0.10791015625
6.924,311,1311,1334,312,0.0,37.0,40.0,-19.83642578125,7.019042491912842,-1.8310545682907104,-1.7056884765625,0.25341796875,0.0556640625
6.934,310,1289,1294,312,0.0,37.0,40.0,-22.644041061401367,9.033203125,3.723144292831421,-1.576171875,0.1458740234375,0.169921875
6.962,312,1219,1196,310,0.0,37.0,40.0,-15.686034202575684,14.099120140075684,14.343260765075684,-1.4005126953125,0.216064453125,0.240234375
6.962,310,1178,1120,309,0.0,37.0,40.0,-4.5166015625,19.95849609375,24.108884811401367,-1.2095947265625,0.3515625,0.2235107421875
6.965,310,1138,1050,310,0.0,37.0,40.0,3.356933355331421,24.963376998901367,27.587888717651367,-0.9688720703125,0.32373046875,0.142333984375
6.979,311,1071,963,312,-3.0,40.0,45.0,10.864256858825684,28.442380905151367,23.071287155151367,-0.7086181640625,0.17138671875,0.03662109375
6.984,310,1034,927,311,-3.0,40.0,45.0,20.935056686401367,30.395505905151367,14.892577171325684,-0.555908203125,0.1094970703125,-0.1024169921875
6.992,310,994,902,312,-3.0,40.0,45.0,27.587888717651367,28.930662155151367,7.812499523162842,-0.5692138671875,0.197998046875,-0.228759765625
7.006,311,932,865,311,-3.0,40.0,45.0,26.367185592651367,23.315427780151367,2.44140625,-0.66650390625,0.316162109375,-0.3104248046875
7.014,310,904,838,311,-3.0,40.0,45.0,18.4326171875,16.17431640625,-1.7089842557907104,-0.746337890625,0.36572265625,-0.3033447265625
7.023,310,868,816,310,-3.0,40.0,45.0,7.934569835662842,8.72802734375,-3.784179449081421,-0.76806640625,0.3228759765625,-0.2110595703125
7.036,310,808,771,310,-3.0,40.0,45.0,-0.3662109076976776,3.112792730331421,-3.967284917831421,-0.7200927734375,0.1259765625,-0.1473388671875
7.076,308,778,764,310,-3.0,40.0,45.0,-2.746581792831421,1.8310545682907104,-3.356933355331421,-0.7200927734375,0.1259765625,-0.1473388671875
7.077,310,750,750,311,-3.0,40.0,45.0,0.4882812201976776,2.44140625,-2.3193359375,-0.6800537109375,0.148681640625,-0.112060546875
7.077,309,721,749,310,-3.0,40.0,45.0,5.0048828125,1.2817381620407104,-1.7089842557907104,-0.6629638671875,0.269287109375,0.0279541015625
7.077,310,714,741,310,-4.0,36.0,45.0,8.544921875,-2.624511480331421,-2.0751953125,-0.6629638671875,0.269287109375,0.0279541015625
7.086,308,714,741,311,-4.0,36.0,45.0,9.21630859375,-7.751464366912842,-3.173827886581421,-0.6707763671875,0.308837890625,0.109130859375
7.096,308,728,755,310,-4.0,36.0,45.0,5.798339366912842,-10.192870140075684,-4.82177734375,-0.7098388671875,0.2698974609375,0.138671875
7.105,310,740,758,311,-4.0,36.0,45.0,0.4272460639476776,-8.056640625,-5.798339366912842,-0.7098388671875,0.2698974609375,0.138671875
7.112,310,745,763,311,-4.0,36.0,45.0,-3.417968511581421,-3.540038824081421,-5.310058116912842,-0.7734375,0.30078125,0.0899658203125
7.126,308,766,780,311,-4.0,36.0,45.0,-4.5166015625,-0.0610351525247097,-4.69970703125,-0.8388671875,0.239990234375,0.04052734375
7.139,310,778,780,311,-4.0,36.0,45.0,-2.868652105331421,1.2817381620407104,-4.57763671875,-0.8388671875,0.239990234375,0.04052734375
7.143,310,784,782,312,-4.0,36.0,45.0,0.0610351525247097,1.5258787870407104,-3.601073980331421,-0.8458251953125,0.201416015625,0.043212890625
7.168,310,814,793,311,-4.0,36.0,45.0,2.44140625,1.7089842557907104,-1.15966796875,-0.8758544921875,0.177978515625,0.030517578125
7.168,309,827,799,312,-4.0,36.0,45.0,3.295898199081421,2.38037109375,1.8310545682907104,-0.888671875,0.18408203125,0.0128173828125
7.172,310,846,806,310,-4.0,41.0,42.0,2.44140625,3.845214605331421,5.126952648162842,-0.888671875,0.18408203125,0.0128173828125
7.195,309,875,830,310,-4.0,41.0,42.0,-0.1220703050494194,6.225585460662842,11.108397483825684,-0.8621826171875,0.2481689453125,-0.0072021484375
7.197,310,904,846,310,-4.0,41.0,42.0,-0.1220703050494194,6.225585460662842,11.108397483825684,-0.837890625,0.263671875,-0.0159912109375
7.204,310,929,860,311,-4.0,41.0,42.0,0.7934569716453552,5.676269054412842,11.901854515075684,-0.837890625,0.263671875,-0.0159912109375
7.216,310,980,885,310,-4.0,41.0,42.0,5.798339366912842,1.4648436307907104,11.413573265075684,-0.8134765625,0.297607421875,-0.0528564453125
7.224,310,1008,904,310,-4.0,41.0,42.0,5.798339366912842,1.4648436307907104,11.413573265075684,-0.8040771484375,0.30322265625,-0.0577392578125
7.233,310,1029,922,312,-4.0,41.0,42.0,5.126952648162842,-0.1831054538488388,12.268065452575684,-0.8040771484375,0.30322265625,-0.0577392578125
7.246,310,1081,966,311,-4.0,41.0,42.0,0.54931640625,2.624511480331421,11.535643577575684,-0.763916015625,0.24365234375,-0.077392578125
7.264,310,1129,998,310,-4.0,41.0,42.0,0.54931640625,2.624511480331421,11.535643577575684,-0.7227783203125,0.226806640625,-0.070556640625
7.264,308,1155,1029,310,-4.0,41.0,42.0,-1.8920897245407104,4.21142578125,11.047362327575684,-0.7227783203125,0.226806640625,-0.070556640625
7.280,311,1206,1107,312,-5.0,38.0,42.0,-0.7934569716453552,1.7700194120407104,8.4228515625,-0.586669921875,0.18505859375,0.0052490234375
7.284,312,1236,1173,311,-5.0,38.0,42.0,-0.7934569716453552,1.7700194120407104,8.4228515625,-0.541748046875,0.1524658203125,0.005615234375
7.298,310,1267,1217,312,-5.0,38.0,42.0,2.868652105331421,-1.4648436307907104,4.150390625,-0.541748046875,0.1524658203125,0.005615234375
7.309,310,1311,1297,312,-5.0,38.0,42.0,16.90673828125,-7.263183116912842,-7.751464366912842,-0.7152099609375,0.39404296875,-0.229248046875
7.314,310,1338,1338,311,-5.0,38.0,42.0,15.563963890075684,-10.498045921325684,-14.099120140075684,-0.9229736328125,0.587158203125,-0.3031005859375
7.322,311,1361,1377,312,-5.0,38.0,42.0,15.563963890075684,-10.498045921325684,-14.099120140075684,-1.17236328125,0.704345703125,-0.289306640625
7.343,310,1393,1434,311,-5.0,38.0,42.0,-18.98193359375,-19.95849609375,-25.573728561401367,-1.4249267578125,0.674560546875,-0.2239990234375
7.344,311,1409,1464,311,-5.0,38.0,42.0,-34.24072265625,-22.766111373901367,-30.517576217651367,-1.6805419921875,0.5123291015625,-0.0985107421875
7.367,310,1417,1486,312,-5.0,38.0,42.0,-34.24072265625,-22.766111373901367,-30.517576217651367,-1.874267578125,0.2685546875,0.0843505859375
7.371,312,1377,1428,311,-5.0,38.0,42.0,-42.663570404052734,-25.268552780151367,-32.1044921875,-1.89453125,0.0577392578125,0.2669677734375
7.374,310,1383,1422,312,-1.0,40.0,43.0,-34.423828125,-17.76123046875,-21.545408248901367,-1.5665283203125,-0.1124267578125,0.35986328125
7.382,309,1380,1406,312,-1.0,40.0,43.0,-34.423828125,-17.76123046875,-21.545408248901367,-1.087890625,-0.077880859375,0.2701416015625
7.396,310,1374,1400,312,-1.0,40.0,43.0,14.343260765075684,14.282225608825684,5.432128429412842,-1.0247802734375,0.3341064453125,-0.02490234375
7.405,310,1365,1387,312,-1.0,40.0,43.0,19.8974609375,17.822265625,9.6435546875,-1.35888671875,0.6878662109375,-0.28662109375
7.412,310,1352,1359,311,-1.0,40.0,43.0,19.8974609375,17.822265625,9.6435546875,-1.667724609375,0.67138671875,-0.296875
7.426,311,1312,1292,312,-1.0,40.0,43.0,-11.901854515075684,3.967284917831421,-3.234863042831421,-1.744384765625,0.435791015625,-0.1126708984375
7.434,310,1290,1260,312,-1.0,40.0,43.0,-20.324705123901367,0.6713866591453552,-4.2724609375,-1.6214599609375,0.229248046875,0.0948486328125
7.445,311,1254,1211,312,-1.0,40.0,43.0,-20.324705123901367,0.6713866591453552,-4.2724609375,-1.428955078125,0.2252197265625,0.221923828125
7.474,310,1188,1098,312,-1.0,40.0,43.0,-6.774901866912842,9.09423828125,11.413573265075684,-1.2421875,0.2861328125,0.2213134765625
7.474,310,1141,1035,312,-1.0,40.0,43.0,1.8310545682907104,15.808104515075684,16.9677734375,-1.0303955078125,0.2254638671875,0.1435546875
7.475,310,1096,996,312,-2.0,39.0,38.0,9.521484375,22.155759811401367,17.822265625,-0.8017578125,0.132568359375,0.049072265625
7.487,310,1026,895,310,-2.0,39.0,38.0,17.2119140625,26.855466842651367,15.808104515075684,-0.65283203125,0.1124267578125,-0.049072265625
7.495,310,974,865,311,-2.0,39.0,38.0,21.911619186401367,27.648923873901367,11.779784202575684,-0.623779296875,0.150146484375,-0.12548828125
7.512,311,933,828,312,-2.0,39.0,38.0,23.315427780151367,24.963376998901367,6.713866710662842,-0.655517578125,0.2030029296875,-0.173095703125
7.518,310,835,770,312,-2.0,39.0,38.0,22.033689498901367,20.935056686401367,2.50244140625,-0.6759033203125,0.2293701171875,-0.1849365234375
7.524,310,799,739,311,-2.0,39.0,38.0,18.85986328125,17.02880859375,0.3662109076976776,-0.67822265625,0.2020263671875,-0.2259521484375
7.532,308,762,721,310,-2.0,39.0,38.0,16.17431640625,15.319823265075684,0.0610351525247097,-0.6865234375,0.183837890625,-0.2969970703125
7.548,310,710,688,310,-2.0,39.0,38.0,14.953612327575684,13.061522483825684,0.8544921278953552,-0.6929931640625,0.2335205078125,-0.2740478515625
7.555,310,676,689,311,-2.0,39.0,38.0,12.756346702575684,7.324218273162842,0.9765624403953552,-0.68603515625,0.2666015625,-0.1712646484375
7.563,310,653,689,310,-2.0,39.0,38.0,9.21630859375,0.7324218153953552,-0.4272460639476776,-0.6680908203125,0.252197265625,-0.085205078125
7.577,310,636,691,309,-5.0,42.0,41.0,6.713866710662842,-4.45556640625,-1.5258787870407104,-0.657470703125,0.2764892578125,-0.0108642578125
7.585,310,634,700,310,-5.0,42.0,41.0,4.638671875,-9.033203125,-1.4038084745407104,-0.650390625,0.3226318359375,0.08544921875
7.595,310,645,711,310,-5.0,42.0,41.0,1.7089842557907104,-12.145995140075684,-1.7700194120407104,-0.65478515625,0.3232421875,0.14111328125
7.601,309,654,714,311,-5.0,42.0,41.0,-1.6479490995407104,-11.108397483825684,-2.807616949081421,-0.71142578125,0.33056640625,0.1085205078125
7.632,308,668,725,310,-5.0,42.0,41.0,-5.0048828125,-7.324218273162842,-3.356933355331421,-0.7967529296875,0.3699951171875,0.039794921875
7.633,309,683,726,310,-5.0,42.0,41.0,-7.507323741912842,-3.601073980331421,-4.08935546875,-0.84326171875,0.3426513671875,0.001220703125
7.633,309,691,732,310,-5.0,42.0,41.0,-8.544921875,-1.03759765625,-4.5166015625,-0.8406982421875,0.24560546875,0.024169921875
7.651,309,716,747,311,-5.0,42.0,41.0,-8.23974609375,0.0,-2.746581792831421,-0.8145751953125,0.166748046875,0.08251953125
7.654,310,737,756,310,-5.0,42.0,41.0,-6.652831554412842,0.6103515625,1.2817381620407104,-0.7908935546875,0.1348876953125,0.1165771484375
7.670,312,754,766,311,-5.0,42.0,41.0,-4.0283203125,1.220703125,5.615233898162842,-0.78173828125,0.1365966796875,0.1094970703125
7.680,310,793,794,310,-4.0,39.0,45.0,0.0610351525247097,1.7089842557907104,8.23974609375,-0.784912109375,0.1669921875,0.072265625
7.683,310,827,806,312,-4.0,39.0,45.0,4.7607421875,2.25830078125,9.033203125,-0.7884521484375,0.2222900390625,0.0159912109375
7.691,310,861,819,312,-4.0,39.0,45.0,8.30078125,2.624511480331421,8.72802734375,-0.8037109375,0.2724609375,-0.0362548828125
7.715,310,928,854,311,-4.0,39.0,45.0,8.7890625,2.3193359375,8.72802734375,-0.8143310546875,0.3160400390625,-0.063232421875
7.735,310,966,873,311,-4.0,39.0,45.0,4.08935546875,1.0986328125,10.192870140075684,-0.7918701171875,0.307861328125,-0.064208984375
7.735,310,1000,904,311,-4.0,39.0,45.0,-2.807616949081421,0.0,12.329100608825684,-0.7557373046875,0.253173828125,-0.0625
7.736,310,1065,958,311,-4.0,39.0,45.0,-5.126952648162842,0.2441406100988388,13.244627952575684,-0.722412109375,0.203369140625,-0.083984375
7.743,310,1107,990,310,-4.0,39.0,45.0,-3.051757574081421,1.0986328125,12.878417015075684,-0.692138671875,0.1834716796875,-0.1153564453125
7.753,310,1142,1029,312,-4.0,39.0,45.0,0.3662109076976776,1.3427733182907104,12.023924827575684,-0.6553955078125,0.210205078125,-0.1170654296875
7.783,310,1199,1112,310,-6.0,39.0,40.0,3.173827886581421,0.30517578125,9.82666015625,-0.6212158203125,0.24169921875,-0.0762939453125
7.783,310,1231,1162,311,-6.0,39.0,40.0,4.21142578125,-2.197265625,5.249022960662842,-0.6143798828125,0.2470703125,-0.02880859375
7.783,309,1232,1202,310,-6.0,39.0,40.0,5.065917491912842,-4.7607421875,-0.3662109076976776,-0.6673583984375,0.2777099609375,-0.036865234375
7.795,311,1309,1260,310,-6.0,39.0,40.0,6.774901866912842,-5.493163585662842,-4.5166015625,-0.8184814453125,0.413818359375,-0.134765625
7.803,311,1323,1297,312,-6.0,39.0,40.0,5.0048828125,-5.737304210662842,-7.629394054412842,-1.0460205078125,0.583251953125,-0.22119140625
7.812,311,1345,1344,311,-6.0,39.0,40.0,-4.0283203125,-7.873534679412842,-12.207030296325684,-1.2896728515625,0.6754150390625,-0.245849609375
7.833,311,1380,1396,311,-6.0,39.0,40.0,-18.12744140625,-11.047362327575684,-18.49365234375,-1.5189208984375,0.62451171875,-0.244873046875
7.833,311,1390,1416,311,-6.0,39.0,40.0,-31.127927780151367,-14.770506858825684,-24.108884811401367,-1.713623046875,0.43115234375,-0.1632080078125
7.843,310,1395,1411,312,-6.0,39.0,40.0,-38.330078125,-18.6767578125,-26.428220748901367,-1.82373046875,0.2178955078125,0.006103515625
7.856,310,1371,1380,311,-6.0,39.0,40.0,-39.4287109375,-19.1650390625,-22.094724655151367,-1.3939208984375,-0.040771484375,0.2962646484375
7.879,310,1357,1361,312,-6.0,39.0,40.0,-30.578611373901367,-12.634276390075684,-11.840819358825684,-1.3939208984375,-0.040771484375,0.2962646484375
7.882,310,1342,1336,310,-1.0,43.0,43.0,-6.286620616912842,0.4882812201976776,-1.5258787870407104,-0.9873046875,0.0404052734375,0.2098388671875
7.885,310,1340,1345,311,-1.0,43.0,43.0,19.59228515625,11.962889671325684,4.94384765625,-1.1864013671875,0.6728515625,-0.3690185546875
7.893,311,1335,1336,311,-1.0,43.0,43.0,26.489255905151367,13.671874046325684,4.2724609375,-1.1864013671875,0.6728515625,-0.3690185546875
7.901,310,1316,1311,312,-1.0,43.0,43.0,12.695311546325684,5.554198741912842,-3.479003667831421,-1.5450439453125,0.697998046875,-0.3994140625
7.915,310,1286,1255,311,-1.0,43.0,43.0,-8.85009765625,-4.8828125,-11.230467796325684,-1.734619140625,0.2696533203125,-0.000244140625
7.923,311,1260,1213,312,-1.0,43.0,43.0,-23.437498092651367,-10.742186546325684,-12.329100608825684,-1.734619140625,0.2696533203125,-0.000244140625
7.939,312,1231,1163,312,-1.0,43.0,43.0,-24.047849655151367,-10.437010765075684,-5.126952648162842,-1.6009521484375,0.245361328125,0.1741943359375
7.946,310,1148,1042,313,-1.0,43.0,43.0,-14.465331077575684,-5.798339366912842,5.676269054412842,-1.13427734375,0.2296142578125,0.246337890625
7.963,310,1098,998,311,-1.0,43.0,43.0,-2.807616949081421,0.54931640625,13.061522483825684,-1.13427734375,0.2296142578125,0.246337890625
7.975,310,1055,947,310,-1.0,43.0,43.0,9.94873046875,8.30078125,15.258788108825684,-0.84228515625,0.123291015625,0.1668701171875
7.980,310,986,861,311,-3.0,39.0,43.0,23.193357467651367,16.17431640625,14.404295921325684,-0.5892333984375,0.1544189453125,-0.1058349609375
7.985,310,932,826,311,-3.0,39.0,43.0,33.14208984375,20.874021530151367,11.230467796325684,-0.5892333984375,0.1544189453125,-0.1058349609375
7.992,311,884,784,310,-3.0,39.0,43.0,36.80419921875,21.301267623901367,6.042479991912842,-0.6375732421875,0.2222900390625,-0.1978759765625
8.005,310,802,730,310,-3.0,39.0,43.0,25.390623092651367,12.878417015075684,-2.13623046875,-0.6951904296875,0.20068359375,-0.2218017578125
8.013,310,757,700,310,-3.0,39.0,43.0,25.390623092651367,12.878417015075684,-2.13623046875,-0.6898193359375,0.1474609375,-0.2823486328125
8.022,310,725,683,310,-3.0,39.0,43.0,17.88330078125,10.803221702575684,-2.50244140625,-0.6898193359375,0.1474609375,-0.2823486328125
8.035,310,664,667,310,-3.0,39.0,43.0,13.427733421325684,5.554198741912842,-0.1220703050494194,-0.683837890625,0.24072265625,-0.2042236328125
8.045,310,644,666,310,-3.0,39.0,43.0,13.427733421325684,5.554198741912842,-0.1220703050494194,-0.66845703125,0.2713623046875,-0.1090087890625
8.093,310,629,673,310,-3.0,39.0,43.0,11.169432640075684,-1.2817381620407104,-1.15966796875,-0.66845703125,0.2713623046875,-0.1090087890625
8.118,309,620,689,310,-1.0,41.0,39.0,5.920409679412842,-14.343260765075684,-3.417968511581421,-0.6328125,0.2825927734375,0.0999755859375
8.125,309,629,694,310,-1.0,41.0,39.0,5.920409679412842,-14.343260765075684,-3.417968511581421,-0.6402587890625,0.30615234375,0.1307373046875
8.126,312,640,705,310,-1.0,41.0,39.0,3.601073980331421,-16.90673828125,-3.479003667831421,-0.6402587890625,0.30615234375,0.1307373046875
8.132,310,654,707,296,-1.0,41.0,39.0,-2.746581792831421,-12.023924827575684,-3.234863042831421,-0.7679443359375,0.4202880859375,0.0361328125
8.133,310,664,714,311,-1.0,41.0,39.0,-2.746581792831421,-12.023924827575684,-3.234863042831421,-0.8028564453125,0.3787841796875,0.024169921875
8.133,310,674,718,310,-1.0,41.0,39.0,-6.408690929412842,-9.521484375,-5.432128429412842,-0.8028564453125,0.3787841796875,0.024169921875
8.147,310,703,731,310,-1.0,41.0,39.0,-6.652831554412842,-6.652831554412842,-7.507323741912842,-0.7821044921875,0.17822265625,0.099853515625
8.157,314,698,721,310,-1.0,41.0,39.0,-6.652831554412842,-6.652831554412842,-7.507323741912842,-0.798583984375,0.1558837890625,0.1068115234375
8.165,309,739,753,312,-1.0,41.0,39.0,-3.601073980331421,-5.371093273162842,-4.638671875,-0.798583984375,0.1558837890625,0.1068115234375
8.166,310,772,769,312,-1.0,41.0,39.0,0.4272460639476776,-2.01416015625,3.295898199081421,-0.8651123046875,0.173828125,0.0556640625
8.166,308,794,790,310,-3.0,39.0,44.0,0.30517578125,0.4882812201976776,6.408690929412842,-0.87451171875,0.1787109375,0.0421142578125
8.197,310,823,794,310,-3.0,39.0,44.0,0.30517578125,0.4882812201976776,6.408690929412842,-0.8526611328125,0.17529296875,0.0450439453125
8.218,310,875,820,310,-3.0,39.0,44.0,0.0,4.21142578125,11.108397483825684,-0.810791015625,0.166748046875,0.0489501953125
8.219,310,885,838,312,-3.0,39.0,44.0,3.356933355331421,3.967284917831421,13.549803733825684,-0.787109375,0.2020263671875,0.0284423828125
8.219,310,953,859,311,-3.0,39.0,44.0,3.356933355331421,3.967284917831421,13.549803733825684,-0.7899169921875,0.2760009765625,-0.023193359375
8.219,310,1013,910,312,-3.0,39.0,44.0,9.521484375,0.30517578125,19.34814453125,-0.815673828125,0.339111328125,-0.0965576171875
8.223,310,1042,948,311,-3.0,39.0,44.0,7.446288585662842,0.8544921278953552,19.10400390625,-0.8358154296875,0.3538818359375,-0.1756591796875
8.231,310,1078,994,311,-3.0,39.0,44.0,7.446288585662842,0.8544921278953552,19.10400390625,-0.8040771484375,0.3165283203125,-0.215576171875
8.246,310,1130,1082,310,-3.0,39.0,44.0,-7.812499523162842,5.920409679412842,14.160155296325684,-0.7030029296875,0.272216796875,-0.1533203125
8.266,311,1162,1120,312,-3.0,39.0,44.0,-15.319823265075684,5.0048828125,11.535643577575684,-0.5567626953125,0.1884765625,0.0120849609375
8.266,311,1196,1163,311,-3.0,37.0,43.0,-15.319823265075684,5.0048828125,11.535643577575684,-0.4635009765625,0.0921630859375,0.1429443359375
8.339,311,1245,1231,311,-3.0,37.0,43.0,-12.939452171325684,-1.8920897245407104,4.82177734375,-0.50732421875,0.14111328125,0.0916748046875
8.339,310,1279,1266,312,-3.0,37.0,43.0,0.1220703050494194,-2.01416015625,2.197265625,-0.7030029296875,0.39794921875,-0.1435546875
8.339,309,1308,1306,312,-3.0,37.0,43.0,0.1220703050494194,-2.01416015625,2.197265625,-0.939453125,0.658447265625,-0.3416748046875
8.339,310,1351,1373,312,-3.0,37.0,43.0,1.8920897245407104,-5.920409679412842,-13.732909202575684,-1.16162109375,0.7578125,-0.3677978515625
8.340,310,1374,1406,311,-3.0,37.0,43.0,-16.2353515625,-12.695311546325684,-24.108884811401367,-1.4293212890625,0.688232421875,-0.2923583984375
8.340,310,1387,1428,312,-3.0,37.0,43.0,-34.1796875,-19.47021484375,-30.700681686401367,-1.731689453125,0.490478515625,-0.1553955078125
8.340,310,1404,1449,312,-3.0,37.0,43.0,-42.846675872802734,-25.024412155151367,-32.65380859375,-1.9405517578125,0.2430419921875,0.02978515625
8.343,311,1395,1428,311,-3.0,37.0,43.0,-42.968746185302734,-26.611326217651367,-27.465818405151367,-1.9285888671875,0.044921875,0.2117919921875
8.351,310,1379,1401,314,-3.0,37.0,43.0,-33.5693359375,-20.507810592651367,-14.648436546325684,-1.5440673828125,-0.0897216796875,0.33642578125
8.370,310,1355,1371,311,-3.0,41.0,41.0,-9.21630859375,-5.737304210662842,-0.54931640625,-1.029541015625,-0.001953125,0.2705078125
8.373,309,1357,1383,311,-3.0,41.0,41.0,20.874021530151367,9.94873046875,8.30078125,-0.8909912109375,0.377197265625,-0.0531005859375
8.390,310,1348,1386,312,-3.0,41.0,41.0,33.87451171875,14.953612327575684,7.568358898162842,-1.176513671875,0.70654296875,-0.3795166015625
8.395,311,1326,1363,312,-3.0,41.0,41.0,20.996091842651367,5.432128429412842,-2.38037109375,-1.5679931640625,0.7532958984375,-0.41552734375
8.407,310,1311,1336,313,-3.0,41.0,41.0,-2.685546636581421,-8.72802734375,-13.366698265075684,-1.7747802734375,0.5516357421875,-0.2032470703125
8.411,310,1284,1305,312,-3.0,41.0,41.0,-19.95849609375,-15.808104515075684,-17.51708984375,-1.7589111328125,0.3048095703125,0.0245361328125
8.425,312,1231,1234,311,-3.0,41.0,41.0,-23.132322311401367,-13.732909202575684,-12.084959983825684,-1.6258544921875,0.24560546875,0.167236328125
8.434,311,1191,1175,312,-3.0,41.0,41.0,-14.770506858825684,-7.446288585662842,-0.6103515625,-1.4727783203125,0.3497314453125,0.2119140625
8.441,310,1143,1108,312,-3.0,41.0,41.0,-4.57763671875,-1.4648436307907104,9.1552734375,-1.2603759765625,0.3338623046875,0.20849609375
8.455,310,1056,982,312,-3.0,41.0,41.0,4.82177734375,4.69970703125,13.183592796325684,-0.96337890625,0.1888427734375,0.1871337890625
8.498,311,1008,920,311,-3.0,40.0,41.0,15.014647483825684,12.084959983825684,13.488768577575684,-0.6885986328125,0.0841064453125,0.1253662109375
8.498,299,959,882,311,-3.0,40.0,41.0,24.047849655151367,18.9208984375,11.901854515075684,-0.52880859375,0.052978515625,0.0308837890625
8.498,294,861,755,311,-3.0,40.0,41.0,31.982419967651367,23.254392623901367,8.4228515625,-0.4849853515625,0.099853515625,-0.0555419921875
8.498,310,799,723,312,-3.0,40.0,41.0,37.17041015625,23.376462936401367,3.601073980331421,-0.517822265625,0.123046875,-0.1068115234375
8.501,310,747,683,310,-3.0,40.0,41.0,36.9873046875,21.545408248901367,-1.5258787870407104,-0.575439453125,0.060791015625,-0.1954345703125
8.520,310,678,653,310,-3.0,40.0,41.0,34.423828125,22.277830123901367,-4.150390625,-0.6165771484375,0.075927734375,-0.3038330078125
8.524,310,648,654,311,-3.0,40.0,41.0,29.663084030151367,21.301267623901367,-2.563476324081421,-0.6446533203125,0.1993408203125,-0.31591796875
8.532,309,628,654,309,-3.0,40.0,41.0,21.667478561401367,13.977049827575684,0.0,-0.6734619140625,0.2923583984375,-0.23828125
8.545,308,607,661,310,-3.0,40.0,41.0,13.061522483825684,3.356933355331421,0.2441406100988388,-0.6802978515625,0.29443359375,-0.12548828125
8.553,310,601,664,310,-3.0,40.0,41.0,5.798339366912842,-5.432128429412842,-0.7324218153953552,-0.6734619140625,0.267822265625,-0.023681640625
8.561,310,603,668,310,-4.0,39.0,41.0,0.3662109076976776,-9.765625,-0.2441406100988388,-0.6822509765625,0.3125,0.032958984375
8.600,310,618,685,310,-4.0,39.0,41.0,-2.929687261581421,-11.047362327575684,0.7934569716453552,-0.707763671875,0.396240234375,0.0518798828125
8.600,310,628,694,311,-4.0,39.0,41.0,-4.7607421875,-11.352538108825684,0.0610351525247097,-0.748046875,0.434326171875,0.05126953125
8.601,311,634,700,310,-4.0,39.0,41.0,-6.591796398162842,-11.169432640075684,-2.624511480331421,-0.79345703125,0.41796875,0.05712890625
8.605,310,649,705,310,-4.0,39.0,41.0,-9.033203125,-10.192870140075684,-5.249022960662842,-0.7978515625,0.255859375,0.1031494140625
8.613,310,668,712,310,-4.0,39.0,41.0,-10.192870140075684,-7.751464366912842,-6.225585460662842,-0.7978515625,0.255859375,0.1031494140625
8.621,312,683,714,310,-4.0,39.0,41.0,-8.60595703125,-3.967284917831421,-5.065917491912842,-0.7855224609375,0.18994140625,0.1241455078125
8.638,310,707,725,310,-4.0,39.0,41.0,-4.82177734375,-0.3662109076976776,-2.13623046875,-0.8172607421875,0.2005615234375,0.11181640625
8.643,308,726,728,310,-4.0,39.0,41.0,-1.4648436307907104,2.197265625,1.7700194120407104,-0.8172607421875,0.2005615234375,0.11181640625
8.651,310,747,740,310,-4.0,39.0,41.0,-0.1220703050494194,3.784179449081421,5.0048828125,-0.8353271484375,0.1953125,0.0831298828125
8.665,309,779,767,310,-4.0,43.0,43.0,0.30517578125,5.187987804412842,7.263183116912842,-0.8531494140625,0.1888427734375,0.039794921875
8.674,310,809,780,310,-4.0,43.0,43.0,1.15966796875,6.530761241912842,9.21630859375,-0.8531494140625,0.1888427734375,0.039794921875
8.702,310,838,794,310,-4.0,43.0,43.0,3.173827886581421,7.385253429412842,11.047362327575684,-0.8555908203125,0.191650390625,0.019775390625
8.702,309,894,827,310,-4.0,43.0,43.0,5.249022960662842,8.056640625,13.549803733825684,-0.9202880859375,0.3133544921875,-0.0789794921875
8.704,310,921,858,310,-4.0,43.0,43.0,4.5166015625,8.30078125,17.39501953125,-0.9202880859375,0.3133544921875,-0.0789794921875
8.711,310,944,882,312,-4.0,43.0,43.0,-0.1831054538488388,8.4228515625,20.507810592651367,-0.9425048828125,0.34130859375,-0.14697265625
