time,compression0,compression1,compression2,compression3,accel_x,accel_y,accel_z
1753242263,309,310,308,757,0.837646484375,0.38525390625,-0.328369140625
1753242263,308,308,299,757,0.837646484375,0.38525390625,-0.328369140625
1753242263,308,309,310,757,0.841064453125,0.39111328125,-0.3399658203125
1753242263,310,308,308,754,0.84033203125,0.3984375,-0.348876953125
1753242263,309,307,308,757,0.84033203125,0.3984375,-0.348876953125
1753242263,308,310,313,756,0.8367919921875,0.397705078125,-0.3502197265625
1753242263,309,309,308,758,0.8369140625,0.3956298828125,-0.344970703125
1753242263,309,308,308,759,0.8369140625,0.3956298828125,-0.344970703125
1753242263,308,310,308,761,0.8377685546875,0.3836669921875,-0.3336181640625
1753242263,308,308,308,763,0.83837890625,0.3780517578125,-0.3306884765625
1753242263,308,308,308,764,0.83837890625,0.3780517578125,-0.3306884765625
1753242263,308,310,313,766,0.8319091796875,0.38720703125,-0.3311767578125
1753242263,310,308,307,765,0.8267822265625,0.3895263671875,-0.335693359375
1753242263,310,308,311,767,0.8267822265625,0.3895263671875,-0.335693359375
1753242263,308,308,308,767,0.8079833984375,0.3812255859375,-0.32763671875
1753242263,308,308,308,767,0.79248046875,0.3709716796875,-0.309326171875
1753242263,308,308,309,772,0.79248046875,0.3709716796875,-0.309326171875
1753242263,309,310,308,777,0.760986328125,0.3536376953125,-0.283447265625
1753242263,308,308,304,778,0.7525634765625,0.344970703125,-0.2794189453125
1753242263,309,310,309,788,0.7525634765625,0.344970703125,-0.2794189453125
1753242263,308,308,313,813,0.7486572265625,0.35205078125,-0.288330078125
1753242263,308,308,315,814,0.7486572265625,0.35205078125,-0.288330078125
1753242263,308,312,308,832,0.7503662109375,0.3662109375,-0.2962646484375
1753242263,308,309,313,865,0.74560546875,0.375,-0.3175048828125
1753242263,308,308,308,879,0.74560546875,0.375,-0.3175048828125
1753242263,308,308,308,907,0.71533203125,0.3541259765625,-0.30419921875
1753242263,309,308,313,958,0.5787353515625,0.223388671875,-0.213623046875
1753242263,308,308,306,992,0.5787353515625,0.223388671875,-0.213623046875
1753242263,309,306,306,1010,0.501953125,0.156494140625,-0.1788330078125
1753242264,308,308,308,1067,0.411376953125,0.2991943359375,-0.181884765625
1753242264,309,310,305,1132,0.411376953125,0.2991943359375,-0.181884765625
1753242264,308,308,306,1182,0.4114990234375,0.44189453125,-0.241943359375
1753242264,308,308,302,1303,0.7115478515625,0.4136962890625,-0.3018798828125
1753242264,293,307,306,1366,0.7115478515625,0.4136962890625,-0.3018798828125
1753242264,294,299,306,1429,1.0013427734375,0.3631591796875,-0.309814453125
1753242264,309,310,313,1487,1.5294189453125,0.4063720703125,-0.315185546875
1753242264,308,307,308,1521,1.5294189453125,0.4063720703125,-0.315185546875
1753242264,310,299,306,1537,1.5760498046875,0.4439697265625,-0.4073486328125
1753242264,309,308,308,1546,1.5137939453125,0.544189453125,-0.6527099609375
1753242264,308,308,308,1557,1.5137939453125,0.544189453125,-0.6527099609375
1753242264,308,309,310,1560,1.459716796875,0.4185791015625,-0.591796875
1753242264,308,308,296,1588,1.086669921875,0.4027099609375,-0.1307373046875
1753242264,308,307,295,1560,1.086669921875,0.4027099609375,-0.1307373046875
1753242264,310,308,310,1588,1.085693359375,0.8477783203125,-0.263427734375
1753242264,308,313,307,1569,1.5169677734375,0.9376220703125,-0.66796875
1753242264,309,308,309,1543,1.5169677734375,0.9376220703125,-0.66796875
1753242264,308,308,308,1506,1.4342041015625,0.5958251953125,-0.527587890625
1753242264,309,308,310,1452,1.246337890625,0.4166259765625,-0.3570556640625
1753242264,308,308,310,1366,1.080322265625,0.3819580078125,-0.25634765625
1753242264,308,308,316,1306,0.950439453125,0.3663330078125,-0.1890869140625
1753242264,308,308,308,1236,0.85400390625,0.342041015625,-0.1329345703125
1753242264,310,308,310,1108,0.7962646484375,0.3028564453125,-0.101806640625
1753242264,308,308,308,1039,0.771728515625,0.2332763671875,-0.086669921875
1753242264,308,308,308,998,0.7608642578125,0.1656494140625,-0.087158203125
1753242264,308,310,308,898,0.7303466796875,0.14013671875,-0.0789794921875
1753242264,308,308,308,820,0.6751708984375,0.1566162109375,-0.067626953125
1753242264,308,307,308,746,0.6298828125,0.1915283203125,-0.1064453125
1753242264,307,308,309,628,0.607421875,0.2359619140625,-0.1768798828125
1753242264,308,308,309,564,0.589111328125,0.260986328125,-0.24462890625
1753242264,309,308,313,517,0.5791015625,0.288818359375,-0.267578125
1753242264,308,308,308,445,0.5711669921875,0.3212890625,-0.258544921875
1753242264,308,309,312,401,0.567138671875,0.3116455078125,-0.2733154296875
1753242264,308,308,310,361,0.575439453125,0.3092041015625,-0.3118896484375
1753242264,308,309,306,404,0.5794677734375,0.334716796875,-0.3388671875
1753242264,308,310,310,423,0.589599609375,0.377197265625,-0.311767578125
1753242264,309,308,308,439,0.61376953125,0.40966796875,-0.2471923828125
1753242264,310,308,308,490,0.6339111328125,0.3990478515625,-0.1973876953125
1753242264,308,308,309,526,0.6126708984375,0.34375,-0.1767578125
1753242264,308,307,311,548,0.5697021484375,0.2830810546875,-0.155029296875
1753242264,308,308,308,614,0.5732421875,0.2874755859375,-0.1077880859375
1753242264,308,308,308,636,0.5894775390625,0.33251953125,-0.0560302734375
1753242264,308,308,306,683,0.5858154296875,0.3349609375,-0.0255126953125
1753242264,308,309,308,766,0.589599609375,0.3148193359375,-0.0377197265625
1753242264,308,309,309,803,0.595458984375,0.299560546875,-0.1044921875
1753242264,308,310,300,871,0.5911865234375,0.26220703125,-0.166015625
1753242264,308,310,306,957,0.5706787109375,0.184814453125,-0.16162109375
1753242264,307,310,307,1021,0.5712890625,0.1572265625,-0.0782470703125
1753242264,308,308,306,1067,0.6240234375,0.2203369140625,0.1043701171875
1753242264,310,309,306,1199,0.6107177734375,0.2012939453125,0.236572265625
1753242264,308,310,305,1243,0.5400390625,0.1666259765625,0.1322021484375
1753242264,295,308,304,1320,0.64697265625,0.2950439453125,-0.12939453125
1753242264,308,308,302,1396,0.96435546875,0.5252685546875,-0.4229736328125
1753242264,308,309,302,1444,1.3084716796875,0.6585693359375,-0.6654052734375
1753242264,308,309,304,1483,1.5230712890625,0.5570068359375,-0.7799072265625
1753242264,308,309,307,1529,1.6556396484375,0.4942626953125,-0.7734375
1753242264,308,309,306,1561,1.795166015625,0.623779296875,-0.6226806640625
1753242264,308,307,310,1585,1.870849609375,0.6717529296875,-0.44140625
1753242264,308,310,307,1613,1.74169921875,0.601318359375,-0.3221435546875
1753242264,310,310,323,1627,1.408447265625,0.5531005859375,-0.1956787109375
1753242264,308,310,308,1638,1.2247314453125,0.7578125,-0.2193603515625
1753242264,309,311,309,1637,1.3992919921875,0.943603515625,-0.3958740234375
1753242264,308,308,308,1624,1.6234130859375,0.8126220703125,-0.5045166015625
1753242264,309,308,304,1602,1.64599609375,0.6707763671875,-0.5020751953125
1753242264,308,309,311,1546,1.510009765625,0.586181640625,-0.435546875
1753242264,308,308,310,1509,1.2991943359375,0.4969482421875,-0.34423828125
1753242264,310,307,313,1472,1.0880126953125,0.3955078125,-0.2510986328125
1753242264,308,308,310,1345,0.927734375,0.314208984375,-0.1832275390625
1753242264,308,309,313,1276,0.828125,0.262939453125,-0.149169921875
1753242264,308,310,308,1191,0.748779296875,0.23828125,-0.128173828125
1753242264,308,310,310,1067,0.6712646484375,0.2423095703125,-0.1199951171875
1753242264,309,308,310,987,0.6068115234375,0.2529296875,-0.1217041015625
1753242264,308,307,310,922,0.5411376953125,0.2362060546875,-0.1119384765625
1753242264,308,308,308,809,0.4813232421875,0.1947021484375,-0.09033203125
1753242264,308,308,308,757,0.4559326171875,0.1600341796875,-0.0770263671875
1753242264,308,310,308,691,0.4744873046875,0.1602783203125,-0.0740966796875
1753242264,308,309,308,625,0.5032958984375,0.1761474609375,-0.079345703125
1753242264,308,307,308,604,0.521240234375,0.184326171875,-0.0877685546875
1753242264,308,308,306,594,0.5325927734375,0.2193603515625,-0.089599609375
1753242264,308,308,306,603,0.5299072265625,0.266357421875,-0.1051025390625
1753242264,308,308,308,620,0.53857421875,0.305419921875,-0.160888671875
1753242264,308,308,302,643,0.5909423828125,0.3397216796875,-0.232177734375
1753242264,308,308,308,684,0.6612548828125,0.34716796875,-0.2706298828125
1753242264,308,308,308,702,0.6708984375,0.2867431640625,-0.258056640625
1753242264,309,308,310,733,0.6160888671875,0.19091796875,-0.1881103515625
1753242264,310,311,306,815,0.5576171875,0.1531982421875,-0.1011962890625
1753242264,308,310,302,864,0.5198974609375,0.1995849609375,-0.07080078125
1753242264,308,308,308,917,0.507080078125,0.27294921875,-0.093017578125
1753242264,310,309,308,1009,0.5098876953125,0.3193359375,-0.124267578125
1753242264,308,294,308,1058,0.51513671875,0.32275390625,-0.1463623046875
1753242264,310,292,304,1091,0.5174560546875,0.25732421875,-0.1363525390625
1753242264,310,291,290,1189,0.48779296875,0.1376953125,-0.0963134765625
1753242264,308,310,305,1229,0.431396484375,0.0537109375,-0.0673828125
1753242264,308,310,307,1351,0.431396484375,0.0537109375,-0.0673828125
1753242264,308,308,304,1450,0.65380859375,0.3218994140625,-0.0101318359375
1753242264,309,310,305,1508,0.86474609375,0.4554443359375,-0.0452880859375
1753242264,310,309,304,1557,0.86474609375,0.4554443359375,-0.0452880859375
1753242264,308,308,304,1624,1.1641845703125,0.455078125,-0.4576416015625
1753242264,310,310,308,1653,1.372802734375,0.3642578125,-0.5533447265625
1753242264,308,308,306,1695,1.372802734375,0.3642578125,-0.5533447265625
1753242265,308,310,308,1790,2.142822265625,1.24755859375,-0.5445556640625
1753242265,309,308,310,1794,2.552001953125,0.927490234375,-0.642333984375
1753242265,309,309,282,1798,2.552001953125,0.927490234375,-0.642333984375
1753242265,310,309,308,1796,1.8140869140625,-0.071533203125,-0.5042724609375
1753242265,308,309,308,1815,0.484130859375,0.7596435546875,-0.0028076171875
1753242265,309,308,311,1819,0.484130859375,0.7596435546875,-0.0028076171875
1753242265,308,308,309,1815,0.9852294921875,1.0325927734375,-0.1768798828125
1753242265,310,310,310,1789,1.9993896484375,0.76123046875,-0.7039794921875
1753242265,308,308,308,1757,1.9993896484375,0.76123046875,-0.7039794921875
1753242265,308,308,308,1719,1.841552734375,0.5693359375,-0.6500244140625
1753242265,308,309,311,1648,1.1064453125,0.365478515625,-0.28955078125
1753242265,294,294,310,1603,1.1064453125,0.365478515625,-0.28955078125
1753242265,294,298,304,1533,0.838134765625,0.2667236328125,-0.1448974609375
1753242265,310,308,310,1411,0.6578369140625,0.2750244140625,-0.0643310546875
1753242265,310,310,313,1336,0.6578369140625,0.2750244140625,-0.0643310546875
1753242265,308,307,310,1278,0.6512451171875,0.237548828125,-0.093017578125
1753242265,309,310,308,1167,0.60693359375,0.2042236328125,-0.089599609375
1753242265,308,308,309,1117,0.60693359375,0.2042236328125,-0.089599609375
1753242265,308,307,305,1056,0.5687255859375,0.1846923828125,-0.0648193359375
1753242265,308,309,308,986,0.47900390625,0.2257080078125,-0.050537109375
1753242265,310,308,313,949,0.47900390625,0.2257080078125,-0.050537109375
1753242265,308,308,308,929,0.470947265625,0.2459716796875,-0.04345703125
1753242265,308,307,308,897,0.5648193359375,0.3214111328125,-0.1015625
1753242265,307,308,308,890,0.5648193359375,0.3214111328125,-0.1015625
1753242265,308,308,308,897,0.6207275390625,0.3167724609375,-0.16015625
1753242265,308,308,308,907,0.6595458984375,0.2783203125,-0.22021484375
1753242265,309,310,308,927,0.6834716796875,0.2476806640625,-0.2763671875
1753242265,308,310,310,934,0.725830078125,0.2542724609375,-0.335205078125
1753242265,308,308,308,958,0.7724609375,0.2724609375,-0.375244140625
1753242265,308,308,306,963,0.7672119140625,0.244873046875,-0.35009765625
1753242265,309,307,307,989,0.720458984375,0.207275390625,-0.2625732421875
1753242265,308,310,308,1029,0.677001953125,0.2259521484375,-0.177001953125
1753242265,310,308,304,1054,0.6517333984375,0.3018798828125,-0.1383056640625
1753242265,308,309,310,1082,0.62353515625,0.3765869140625,-0.140380859375
1753242265,308,308,306,1149,0.5714111328125,0.37646484375,-0.1551513671875
1753242265,307,310,308,1191,0.506103515625,0.2974853515625,-0.1771240234375
1753242265,308,309,294,1224,0.4537353515625,0.2130126953125,-0.2056884765625
1753242265,308,309,304,1313,0.4666748046875,0.231689453125,-0.223876953125
1753242265,308,308,306,1362,0.631103515625,0.3350830078125,-0.08935546875
1753242265,309,308,306,1422,0.7867431640625,0.2618408203125,0.1524658203125
1753242265,308,308,304,1506,0.7216796875,0.0096435546875,0.237060546875
1753242265,308,310,304,1560,0.5789794921875,-0.0264892578125,0.08349609375
1753242265,310,308,304,1604,0.6053466796875,0.24169921875,-0.2244873046875
1753242265,310,298,304,1681,0.8743896484375,0.575927734375,-0.511962890625
1753242265,308,308,308,1705,1.262939453125,0.772216796875,-0.70166015625
1753242265,308,308,310,1735,1.619384765625,0.810791015625,-0.7740478515625
1753242265,308,309,310,1759,1.8780517578125,0.783203125,-0.701171875
1753242265,308,309,308,1761,2.0128173828125,0.695556640625,-0.5023193359375
1753242265,292,294,306,1769,1.8380126953125,0.46533203125,-0.2154541015625
1753242265,308,309,308,1775,1.373046875,0.4669189453125,-0.0384521484375
1753242265,308,310,308,1770,1.1627197265625,0.8966064453125,-0.266357421875
1753242265,302,308,310,1750,1.4091796875,1.0904541015625,-0.639892578125
1753242265,310,308,309,1735,1.6749267578125,0.8519287109375,-0.731689453125
1753242265,310,306,310,1653,1.6710205078125,0.605224609375,-0.630859375
1753242265,292,308,306,1588,1.4886474609375,0.482421875,-0.516845703125
1753242265,307,308,310,1521,1.258544921875,0.423095703125,-0.4296875
1753242265,308,308,310,1387,1.0400390625,0.405029296875,-0.356689453125
1753242265,308,306,311,1292,0.857177734375,0.3634033203125,-0.270263671875
1753242265,308,308,310,1191,0.7093505859375,0.2900390625,-0.180908203125
1753242265,309,309,310,1005,0.608154296875,0.2216796875,-0.1009521484375
1753242265,308,308,310,913,0.54296875,0.135986328125,0.0010986328125
1753242265,308,308,308,813,0.4931640625,0.0556640625,0.0867919921875
1753242265,308,310,308,667,0.4644775390625,0.0484619140625,0.0965576171875
1753242265,308,307,307,605,0.466552734375,0.1123046875,0.0565185546875
1753242265,313,308,308,551,0.4764404296875,0.2015380859375,0.016845703125
1753242265,309,308,308,470,0.47314453125,0.2823486328125,-0.0386962890625
1753242265,308,308,316,473,0.468505859375,0.3226318359375,-0.11669921875
1753242265,308,308,306,466,0.4600830078125,0.3023681640625,-0.19482421875
1753242265,308,310,307,493,0.44970703125,0.251708984375,-0.2696533203125
1753242265,310,308,308,521,0.4666748046875,0.232421875,-0.34521484375
1753242265,308,306,308,551,0.54296875,0.278564453125,-0.4107666015625
1753242265,308,310,308,586,0.6544189453125,0.344482421875,-0.43896484375
1753242265,308,308,313,617,0.7078857421875,0.3448486328125,-0.4136962890625
1753242265,310,308,306,639,0.6885986328125,0.2816162109375,-0.3245849609375
1753242265,308,310,308,725,0.656494140625,0.2467041015625,-0.237060546875
1753242265,308,308,307,763,0.641845703125,0.2626953125,-0.2265625
1753242265,308,307,306,808,0.6488037109375,0.2984619140625,-0.2447509765625
1753242265,308,309,308,853,0.658447265625,0.324951171875,-0.236083984375
1753242265,308,308,302,891,0.6507568359375,0.3388671875,-0.2198486328125
1753242265,308,309,302,932,0.6268310546875,0.343017578125,-0.2034912109375
1753242265,309,307,304,1014,0.623779296875,0.3416748046875,-0.190673828125
1753242265,308,308,306,1078,0.6591796875,0.34130859375,-0.16064453125
1753242265,308,308,306,1131,0.744140625,0.265625,-0.0274658203125
1753242265,310,308,307,1219,0.7998046875,0.066162109375,0.1322021484375
1753242265,308,310,306,1280,0.7003173828125,-0.10791015625,0.16259765625
1753242265,308,308,301,1340,0.5726318359375,-0.100341796875,0.0643310546875
1753242265,310,308,304,1439,0.6141357421875,0.1309814453125,-0.04931640625
1753242265,308,308,292,1497,0.8050537109375,0.49365234375,-0.185546875
1753242265,308,315,304,1545,1.0347900390625,0.8082275390625,-0.44482421875
1753242265,308,309,304,1610,1.2762451171875,0.900390625,-0.764892578125
1753242265,309,307,306,1640,1.5577392578125,0.7711181640625,-0.94677734375
1753242265,309,310,308,1656,1.8343505859375,0.6431884765625,-0.8729248046875
1753242265,308,308,308,1686,1.974365234375,0.6434326171875,-0.64501953125
1753242265,308,308,310,1689,1.80419921875,0.5374755859375,-0.300537109375
1753242265,308,308,292,1705,1.80419921875,0.5374755859375,-0.300537109375
1753242265,308,310,308,1709,1.154296875,0.7518310546875,-0.1175537109375
1753242265,307,307,310,1697,1.402587890625,0.90771484375,-0.5103759765625
1753242265,308,306,308,1669,1.402587890625,0.90771484375,-0.5103759765625
1753242265,292,308,308,1624,1.681640625,0.5997314453125,-0.7039794921875
1753242265,304,310,311,1572,1.47412109375,0.466064453125,-0.5648193359375
1753242266,309,310,312,1529,1.1949462890625,0.3619384765625,-0.380615234375
1753242266,307,306,310,1428,0.9317626953125,0.316162109375,-0.2216796875
1753242266,308,310,308,1373,0.7528076171875,0.3245849609375,-0.135986328125
1753242266,308,308,299,1282,0.6632080078125,0.2899169921875,-0.1143798828125
1753242266,308,310,309,1149,0.6329345703125,0.248046875,-0.1085205078125
1753242266,308,308,308,1083,0.6318359375,0.2188720703125,-0.0838623046875
1753242266,308,308,312,1014,0.6318359375,0.2188720703125,-0.0838623046875
1753242266,308,309,309,922,0.56787109375,0.1202392578125,-0.029296875
1753242266,310,308,308,872,0.510986328125,0.1026611328125,-0.0338134765625
1753242266,308,308,313,818,0.510986328125,0.1026611328125,-0.0338134765625
1753242266,308,310,306,759,0.475341796875,0.178466796875,-0.11279296875
1753242266,308,308,306,749,0.4835205078125,0.2445068359375,-0.1737060546875
1753242266,310,308,307,740,0.4835205078125,0.2445068359375,-0.1737060546875
1753242266,308,308,308,742,0.4874267578125,0.36181640625,-0.28369140625
1753242266,310,308,307,778,0.5218505859375,0.3563232421875,-0.3360595703125
1753242266,308,316,304,801,0.5218505859375,0.3563232421875,-0.3360595703125
1753242266,310,308,308,830,0.63427734375,0.2529296875,-0.3785400390625
1753242266,308,308,313,853,0.613525390625,0.1878662109375,-0.3179931640625
1753242266,308,308,305,872,0.613525390625,0.1878662109375,-0.3179931640625
1753242266,310,309,307,931,0.54345703125,0.2584228515625,-0.21728515625
1753242266,308,309,313,966,0.5302734375,0.3570556640625,-0.2491455078125
1753242266,308,307,308,1000,0.5302734375,0.3570556640625,-0.2491455078125
1753242266,310,310,308,1079,0.51611328125,0.352783203125,-0.2894287109375
1753242266,309,308,306,1134,0.49072265625,0.2506103515625,-0.2562255859375
1753242266,310,308,308,1185,0.49072265625,0.2506103515625,-0.2562255859375
1753242266,308,308,306,1287,0.4683837890625,0.1802978515625,-0.159423828125
1753242266,308,308,306,1370,0.578369140625,0.2420654296875,-0.0997314453125
1753242266,307,297,306,1434,0.578369140625,0.2420654296875,-0.0997314453125
1753242266,308,308,304,1514,0.8631591796875,0.222412109375,0.096435546875
1753242266,308,309,304,1557,0.8631591796875,0.222412109375,0.096435546875
1753242266,307,308,304,1604,0.8892822265625,0.12744140625,-0.017333984375
1753242266,309,308,306,1667,1.2349853515625,0.5379638671875,-0.4818115234375
1753242266,294,309,307,1704,1.2349853515625,0.5379638671875,-0.4818115234375
1753242266,310,300,306,1695,1.4688720703125,0.7801513671875,-0.712158203125
1753242266,308,310,309,1762,1.8126220703125,0.89892578125,-0.704833984375
1753242266,306,309,308,1770,1.8126220703125,0.89892578125,-0.704833984375
1753242266,308,308,308,1742,1.82666015625,0.6986083984375,-0.4951171875
1753242266,308,308,308,1786,1.28271484375,0.6026611328125,-0.2088623046875
1753242266,308,309,308,1774,1.28271484375,0.6026611328125,-0.2088623046875
1753242266,310,299,308,1769,1.406005859375,0.9827880859375,-0.54443359375
1753242266,308,308,309,1745,1.7484130859375,1.00830078125,-0.7913818359375
1753242266,308,308,309,1677,1.845703125,0.8033447265625,-0.7540283203125
1753242266,312,310,312,1615,1.6234130859375,0.556884765625,-0.5582275390625
1753242266,309,307,321,1561,1.263427734375,0.3726806640625,-0.349365234375
1753242266,309,309,310,1440,0.9395751953125,0.291015625,-0.2210693359375
1753242266,308,308,313,1359,0.746337890625,0.2833251953125,-0.1512451171875
1753242266,308,308,310,1268,0.68115234375,0.2587890625,-0.115966796875
1753242266,308,309,310,1134,0.6942138671875,0.198486328125,-0.130859375
1753242266,309,312,313,1029,0.732177734375,0.124267578125,-0.1273193359375
1753242266,308,310,312,932,0.7191162109375,0.024658203125,-0.02880859375
1753242266,309,308,310,790,0.6053466796875,-0.0291748046875,0.082763671875
1753242266,308,311,307,725,0.4527587890625,0.048583984375,0.1015625
1753242266,308,309,308,644,0.3642578125,0.206298828125,0.037353515625
1753242266,309,308,306,584,0.3653564453125,0.3143310546875,-0.050048828125
1753242266,309,308,308,558,0.3851318359375,0.34375,-0.1153564453125
1753242266,308,308,307,546,0.3726806640625,0.3563232421875,-0.1807861328125
1753242266,310,308,308,573,0.3846435546875,0.366943359375,-0.2828369140625
1753242266,308,308,306,594,0.44873046875,0.3734130859375,-0.380859375
1753242266,309,308,308,621,0.5281982421875,0.3658447265625,-0.43701171875
1753242266,310,310,307,654,0.5933837890625,0.3460693359375,-0.4603271484375
1753242266,308,308,308,682,0.602294921875,0.291259765625,-0.4359130859375
1753242266,308,308,308,723,0.5743408203125,0.2110595703125,-0.350830078125
1753242266,309,309,304,787,0.5640869140625,0.172607421875,-0.268798828125
1753242266,307,308,308,826,0.5772705078125,0.2161865234375,-0.255615234375
1753242266,309,310,313,888,0.611328125,0.3009033203125,-0.2899169921875
1753242266,308,308,306,943,0.651123046875,0.3565673828125,-0.3199462890625
1753242266,308,308,308,1012,0.66552734375,0.3531494140625,-0.32861328125
1753242266,308,308,306,1092,0.6390380859375,0.294189453125,-0.3173828125
1753242266,308,308,307,1173,0.5926513671875,0.2244873046875,-0.29443359375
1753242266,306,308,306,1264,0.56689453125,0.22216796875,-0.2635498046875
1753242266,308,308,308,1323,0.6510009765625,0.2125244140625,-0.1103515625
1753242266,309,310,304,1440,0.7852783203125,0.1326904296875,0.176025390625
1753242266,308,296,306,1494,0.7686767578125,0.075927734375,0.3455810546875
1753242266,307,310,304,1557,0.6553955078125,0.033203125,0.2476806640625
1753242266,308,311,304,1640,0.677001953125,0.1124267578125,-0.0157470703125
1753242266,309,310,306,1686,0.8916015625,0.4132080078125,-0.3221435546875
1753242266,310,308,306,1713,1.2127685546875,0.691162109375,-0.6103515625
1753242266,300,308,306,1757,1.547607421875,0.8392333984375,-0.788330078125
1753242266,308,309,305,1786,1.7996826171875,0.9283447265625,-0.7943115234375
1753242266,308,308,306,1800,1.9140625,0.91455078125,-0.6748046875
1753242266,309,310,308,1813,1.868896484375,0.7364501953125,-0.5052490234375
1753242266,308,308,308,1823,1.562744140625,0.414306640625,-0.2257080078125
1753242266,309,309,308,1828,1.208251953125,0.4764404296875,-0.1063232421875
1753242266,309,299,308,1815,1.2987060546875,0.839599609375,-0.40478515625
1753242266,309,309,307,1800,1.66357421875,0.9058837890625,-0.6959228515625
1753242266,310,308,310,1770,1.8001708984375,0.7862548828125,-0.71240234375
1753242266,308,308,309,1711,1.6441650390625,0.621337890625,-0.5758056640625
1753242266,308,310,310,1650,1.3470458984375,0.4720458984375,-0.396240234375
1753242266,308,308,312,1588,1.04248046875,0.3719482421875,-0.2529296875
1753242266,308,308,309,1480,0.82080078125,0.333251953125,-0.1734619140625
1753242266,309,309,318,1399,0.7158203125,0.2952880859375,-0.13427734375
1753242266,308,308,308,1323,0.6732177734375,0.193603515625,-0.1160888671875
1753242266,309,309,308,1173,0.643310546875,0.10595703125,-0.117919921875
1753242266,307,308,319,1093,0.6195068359375,0.0750732421875,-0.0947265625
1753242266,308,308,302,1014,0.5689697265625,0.078125,-0.0302734375
1753242266,308,310,308,905,0.4898681640625,0.107666015625,0.017578125
1753242266,308,308,308,844,0.412109375,0.1763916015625,0.009033203125
1753242266,308,306,306,794,0.370849609375,0.2529296875,-0.0318603515625
1753242266,308,310,308,767,0.378173828125,0.3077392578125,-0.07958984375
1753242266,308,308,308,765,0.4122314453125,0.317626953125,-0.1302490234375
1753242267,309,308,308,780,0.451171875,0.3016357421875,-0.1795654296875
1753242267,308,308,308,827,0.4837646484375,0.2972412109375,-0.227294921875
1753242267,310,309,310,846,0.5244140625,0.3236083984375,-0.2928466796875
1753242267,308,310,308,865,0.5426025390625,0.3203125,-0.366455078125
1753242267,308,308,308,910,0.5321044921875,0.267333984375,-0.39013671875
1753242267,310,309,308,943,0.52294921875,0.2286376953125,-0.3543701171875
1753242267,310,308,306,984,0.52294921875,0.2286376953125,-0.3543701171875
1753242267,308,310,308,1045,0.5283203125,0.25244140625,-0.3001708984375
1753242267,308,307,300,1112,0.558349609375,0.2724609375,-0.29638671875
1753242267,307,308,321,1163,0.558349609375,0.2724609375,-0.29638671875
1753242267,309,309,307,1258,0.5223388671875,0.297607421875,-0.2918701171875
1753242267,308,308,304,1317,0.544189453125,0.3231201171875,-0.251220703125
1753242267,308,308,307,1409,0.544189453125,0.3231201171875,-0.251220703125
1753242267,308,308,306,1490,0.850341796875,0.0733642578125,0.257568359375
1753242267,310,309,304,1545,0.7158203125,-0.138916015625,0.305419921875
1753242267,310,308,306,1588,0.7158203125,-0.138916015625,0.305419921875
1753242267,307,312,302,1656,0.674560546875,0.2862548828125,-0.198486328125
1753242267,309,309,304,1700,0.9737548828125,0.6259765625,-0.4659423828125
1753242267,308,308,292,1744,0.9737548828125,0.6259765625,-0.4659423828125
1753242267,308,310,306,1781,1.7442626953125,0.8875732421875,-0.7611083984375
1753242267,310,308,308,1794,1.9610595703125,0.9248046875,-0.776611328125
1753242267,309,308,308,1813,1.9610595703125,0.9248046875,-0.776611328125
1753242267,308,308,310,1826,1.84326171875,0.60302734375,-0.493408203125
1753242267,308,308,308,1840,1.1982421875,0.3604736328125,-0.09912109375
1753242267,308,307,308,1850,1.1982421875,0.3604736328125,-0.09912109375
1753242267,310,308,310,1837,1.3818359375,0.9512939453125,-0.564697265625
1753242267,308,308,310,1820,1.710693359375,0.805908203125,-0.6893310546875
1753242267,310,309,308,1791,1.710693359375,0.805908203125,-0.6893310546875
1753242267,309,308,309,1705,1.5489501953125,0.5455322265625,-0.546875
1753242267,308,308,310,1648,1.5489501953125,0.5455322265625,-0.546875
1753242267,307,308,310,1588,1.300048828125,0.4500732421875,-0.43408203125
1753242267,306,310,310,1453,0.85546875,0.3084716796875,-0.201171875
1753242267,308,309,310,1372,0.85546875,0.3084716796875,-0.201171875
1753242267,308,308,311,1287,0.7156982421875,0.2550048828125,-0.12744140625
1753242267,308,308,308,1143,0.569580078125,0.1065673828125,-0.0435791015625
1753242267,308,308,308,1042,0.569580078125,0.1065673828125,-0.0435791015625
1753242267,308,308,308,939,0.5401611328125,0.0751953125,0.0321044921875
1753242267,308,306,308,823,0.448974609375,0.11083984375,0.100341796875
1753242267,308,308,308,772,0.448974609375,0.11083984375,0.100341796875
1753242267,308,309,308,700,0.4263916015625,0.180908203125,0.0341796875
1753242267,308,309,307,654,0.4110107421875,0.2509765625,-0.1319580078125
1753242267,309,308,310,639,0.4110107421875,0.2509765625,-0.1319580078125
1753242267,308,307,310,654,0.405029296875,0.278076171875,-0.1983642578125
1753242267,308,308,306,707,0.4481201171875,0.3221435546875,-0.3355712890625
1753242267,307,308,302,737,0.4481201171875,0.3221435546875,-0.3355712890625
1753242267,308,306,307,759,0.53759765625,0.338623046875,-0.41162109375
1753242267,309,310,308,814,0.604736328125,0.20068359375,-0.404541015625
1753242267,308,310,314,842,0.604736328125,0.20068359375,-0.404541015625
1753242267,310,308,308,868,0.602783203125,0.1614990234375,-0.328125
1753242267,308,309,307,947,0.5810546875,0.244384765625,-0.2996826171875
1753242267,310,310,300,987,0.5810546875,0.244384765625,-0.2996826171875
1753242267,308,310,310,1074,0.564208984375,0.2894287109375,-0.326171875
1753242267,308,308,306,1163,0.53271484375,0.2806396484375,-0.3331298828125
1753242267,307,308,306,1236,0.4920654296875,0.2421875,-0.3116455078125
1753242267,308,310,306,1282,0.4696044921875,0.261474609375,-0.275634765625
1753242267,308,309,305,1422,0.5416259765625,0.2974853515625,-0.1795654296875
1753242267,308,309,292,1452,0.7613525390625,0.2144775390625,0.0313720703125
1753242267,308,309,304,1523,0.91748046875,0.0672607421875,0.2637939453125
1753242267,308,308,304,1604,0.8646240234375,-0.0399169921875,0.267578125
1753242267,308,308,304,1649,0.8544921875,0.0806884765625,0.013671875
1753242267,310,308,315,1691,1.038818359375,0.4893798828125,-0.3643798828125
1753242267,310,308,306,1753,1.33056640625,0.8387451171875,-0.756591796875
1753242267,310,310,309,1762,1.63916015625,0.95068359375,-0.9566650390625
1753242267,310,310,306,1785,1.888671875,0.921142578125,-0.8626708984375
1753242267,307,308,299,1786,1.939208984375,0.7822265625,-0.59033203125
1753242267,309,308,306,1800,1.648193359375,0.5419921875,-0.256103515625
1753242267,308,308,318,1808,1.2275390625,0.5689697265625,-0.0860595703125
1753242267,308,308,308,1798,1.1580810546875,0.8662109375,-0.325439453125
1753242267,308,298,308,1781,1.4713134765625,0.9315185546875,-0.6429443359375
1753242267,298,306,308,1739,1.75146484375,0.7625732421875,-0.717529296875
1753242267,310,309,310,1643,1.7484130859375,0.58642578125,-0.641845703125
1753242267,308,308,312,1588,1.536376953125,0.493896484375,-0.5308837890625
1753242267,307,308,310,1518,1.2567138671875,0.4261474609375,-0.4107666015625
1753242267,308,309,312,1424,1.002685546875,0.357666015625,-0.28564453125
1753242267,308,308,310,1260,0.8265380859375,0.28076171875,-0.167236328125
1753242267,308,308,313,1178,0.7069091796875,0.1864013671875,-0.0863037109375
1753242267,308,310,317,1055,0.6375732421875,0.12109375,-0.042724609375
1753242267,308,308,308,879,0.6053466796875,0.0609130859375,0.03271484375
1753242267,308,308,308,785,0.5687255859375,0.01708984375,0.093994140625
1753242267,308,308,308,692,0.5081787109375,0.04150390625,0.0869140625
1753242267,308,309,308,559,0.4312744140625,0.10693359375,0.0333251953125
1753242267,308,308,309,497,0.3765869140625,0.19140625,-0.0458984375
1753242267,308,308,308,467,0.3621826171875,0.29638671875,-0.12060546875
1753242267,307,308,308,446,0.35205078125,0.375732421875,-0.189453125
1753242267,308,308,308,473,0.34326171875,0.4112548828125,-0.2650146484375
1753242267,309,308,307,501,0.37158203125,0.420166015625,-0.33251953125
1753242267,308,308,308,548,0.4417724609375,0.4036865234375,-0.3809814453125
1753242267,308,308,308,584,0.5284423828125,0.3636474609375,-0.4261474609375
1753242267,308,310,308,603,0.572509765625,0.28466796875,-0.455322265625
1753242267,309,309,308,648,0.5699462890625,0.168701171875,-0.402587890625
1753242267,308,307,310,721,0.565673828125,0.11376953125,-0.312255859375
1753242267,308,310,313,750,0.5712890625,0.1661376953125,-0.2847900390625
1753242267,308,310,307,833,0.5899658203125,0.2930908203125,-0.2972412109375
1753242267,308,308,309,883,0.610595703125,0.4066162109375,-0.3070068359375
1753242267,308,308,306,920,0.6131591796875,0.4342041015625,-0.2991943359375
1753242267,308,310,308,1014,0.60205078125,0.390625,-0.2750244140625
1753242267,308,309,305,1070,0.583984375,0.3046875,-0.243408203125
1753242267,308,308,313,1125,0.5885009765625,0.23779296875,-0.17822265625
1753242267,309,310,316,1224,0.711669921875,0.15966796875,0.02978515625
1753242267,308,308,305,1287,0.83203125,-0.0107421875,0.2706298828125
1753242268,309,309,304,1365,0.78369140625,-0.128662109375,0.2879638671875
1753242268,308,306,304,1474,0.7303466796875,0.015869140625,0.0858154296875
1753242268,308,308,302,1531,0.7974853515625,0.3704833984375,-0.19970703125
1753242268,308,308,302,1579,0.9556884765625,0.6646728515625,-0.46484375
1753242268,308,308,306,1653,1.206298828125,0.7808837890625,-0.6275634765625
1753242268,308,307,308,1691,1.5152587890625,0.822509765625,-0.694580078125
1753242268,308,306,308,1681,1.778564453125,0.82373046875,-0.6942138671875
1753242268,308,308,307,1743,1.8939208984375,0.79345703125,-0.6187744140625
1753242268,308,308,304,1747,1.7757568359375,0.708251953125,-0.4755859375
1753242268,313,308,308,1762,1.4107666015625,0.5570068359375,-0.23046875
1753242268,308,309,308,1769,1.14208984375,0.698486328125,-0.2266845703125
1753242268,308,308,321,1762,1.3057861328125,0.982421875,-0.5784912109375
1753242268,308,312,314,1753,1.64306640625,0.9342041015625,-0.7796630859375
1753242268,308,308,309,1721,1.7578125,0.72802734375,-0.7030029296875
1753242268,310,308,323,1689,1.6163330078125,0.5615234375,-0.5513916015625
1753242268,308,308,310,1635,1.3726806640625,0.4608154296875,-0.4217529296875
1753242268,294,308,313,1535,1.1153564453125,0.3861083984375,-0.3148193359375
1753242268,308,292,313,1426,0.888427734375,0.337158203125,-0.234375
1753242268,310,308,313,1370,0.7291259765625,0.303466796875,-0.177978515625
1753242268,310,308,310,1201,0.630615234375,0.23486328125,-0.1409912109375
1753242268,308,309,310,1108,0.5767822265625,0.1573486328125,-0.112548828125
1753242268,308,307,308,1018,0.5767822265625,0.1573486328125,-0.112548828125
1753242268,308,308,308,879,0.4993896484375,0.1085205078125,0.0009765625
1753242268,310,308,308,816,0.4471435546875,0.1358642578125,0.0040283203125
1753242268,308,308,308,735,0.4471435546875,0.1358642578125,0.0040283203125
1753242268,308,308,309,651,0.4285888671875,0.2587890625,-0.0782470703125
1753242268,308,308,317,630,0.4390869140625,0.2716064453125,-0.129638671875
1753242268,308,308,308,627,0.4390869140625,0.2716064453125,-0.129638671875
1753242268,308,308,308,646,0.44775390625,0.202880859375,-0.19970703125
1753242268,310,310,307,666,0.468505859375,0.2080078125,-0.233154296875
1753242268,308,310,321,678,0.468505859375,0.2080078125,-0.233154296875
1753242268,308,310,306,711,0.5576171875,0.263671875,-0.3409423828125
1753242268,310,308,302,740,0.56591796875,0.2642822265625,-0.3702392578125
1753242268,308,308,308,785,0.56591796875,0.2642822265625,-0.3702392578125
1753242268,308,311,307,853,0.5611572265625,0.2691650390625,-0.31103515625
1753242268,308,309,306,900,0.561279296875,0.296875,-0.2794189453125
1753242268,308,308,307,944,0.561279296875,0.296875,-0.2794189453125
1753242268,308,308,308,998,0.565185546875,0.36962890625,-0.2843017578125
1753242268,308,308,306,1056,0.5445556640625,0.3233642578125,-0.2947998046875
1753242268,309,306,309,1129,0.5445556640625,0.3233642578125,-0.2947998046875
1753242268,308,309,307,1243,0.6279296875,0.249267578125,-0.072509765625
1753242268,308,308,306,1283,0.6279296875,0.249267578125,-0.072509765625
1753242268,308,308,304,1336,0.7742919921875,0.0389404296875,0.1708984375
1753242268,308,309,306,1468,0.700927734375,-0.1275634765625,0.2945556640625
1753242268,309,308,304,1518,0.700927734375,-0.1275634765625,0.2945556640625
1753242268,310,309,304,1580,0.629150390625,0.113037109375,0.0562744140625
1753242268,308,309,305,1656,1.13037109375,0.8917236328125,-0.6959228515625
1753242268,308,308,306,1689,1.13037109375,0.8917236328125,-0.6959228515625
1753242268,309,304,308,1718,1.5374755859375,0.9808349609375,-0.9542236328125
1753242268,308,310,308,1762,1.953369140625,0.7818603515625,-0.8165283203125
1753242268,308,310,310,1775,1.953369140625,0.7818603515625,-0.8165283203125
1753242268,310,310,309,1785,1.859375,0.6728515625,-0.4991455078125
1753242268,308,308,308,1801,1.1610107421875,0.6790771484375,-0.0626220703125
1753242268,308,310,310,1801,1.1610107421875,0.6790771484375,-0.0626220703125
1753242268,309,309,308,1792,1.2969970703125,1.014404296875,-0.47509765625
1753242268,307,298,298,1755,1.79443359375,0.7530517578125,-0.7664794921875
1753242268,309,309,316,1715,1.79443359375,0.7530517578125,-0.7664794921875
1753242268,315,308,308,1669,1.6728515625,0.5711669921875,-0.627685546875
1753242268,310,310,310,1573,1.17333984375,0.4095458984375,-0.3944091796875
1753242268,308,293,311,1490,1.17333984375,0.4095458984375,-0.3944091796875
1753242268,310,308,310,1380,0.93359375,0.3590087890625,-0.287109375
1753242268,308,308,310,1201,0.630859375,0.187255859375,-0.0560302734375
1753242268,308,308,308,1103,0.630859375,0.187255859375,-0.0560302734375
1753242268,309,309,309,989,0.573486328125,0.1153564453125,0.01708984375
1753242268,308,310,310,838,0.534912109375,0.0894775390625,0.07958984375
1753242268,308,310,308,707,0.4810791015625,0.1104736328125,0.0975341796875
1753242268,308,309,307,633,0.424560546875,0.1566162109375,0.0465087890625
1753242268,308,308,308,533,0.392822265625,0.1827392578125,-0.0328369140625
1753242268,308,310,308,493,0.3985595703125,0.2105712890625,-0.1072998046875
1753242268,310,307,305,473,0.41845703125,0.2568359375,-0.1788330078125
1753242268,310,309,308,465,0.42578125,0.284912109375,-0.2232666015625
1753242268,308,308,309,481,0.420166015625,0.3001708984375,-0.2474365234375
1753242268,308,307,308,499,0.435302734375,0.303955078125,-0.282958984375
1753242268,308,308,309,533,0.4871826171875,0.3214111328125,-0.335693359375
1753242268,308,309,308,557,0.552490234375,0.3642578125,-0.3851318359375
1753242268,308,314,309,574,0.57080078125,0.359619140625,-0.40283203125
1753242268,309,308,307,639,0.5565185546875,0.287353515625,-0.3525390625
1753242268,308,308,306,678,0.5457763671875,0.2259521484375,-0.2784423828125
1753242268,310,308,308,730,0.5389404296875,0.22119140625,-0.2603759765625
1753242268,308,309,306,785,0.558349609375,0.2822265625,-0.2923583984375
1753242268,308,310,305,835,0.59375,0.3631591796875,-0.3250732421875
1753242268,308,308,308,893,0.60546875,0.396484375,-0.3350830078125
1753242268,309,308,308,1010,0.58544921875,0.3839111328125,-0.3232421875
1753242268,307,308,304,1071,0.59130859375,0.380859375,-0.2940673828125
1753242268,308,308,314,1163,0.728271484375,0.3370361328125,-0.0977783203125
1753242268,308,309,306,1264,0.9150390625,0.0152587890625,0.1885986328125
1753242268,308,308,305,1339,0.915283203125,-0.3184814453125,0.3328857421875
1753242268,309,310,304,1399,0.732177734375,-0.268310546875,0.30712890625
1753242268,308,310,304,1494,0.5955810546875,0.0555419921875,0.1151123046875
1753242268,308,310,304,1550,0.662353515625,0.468505859375,-0.1612548828125
1753242268,308,310,308,1588,0.9156494140625,0.796142578125,-0.4893798828125
1753242268,310,308,306,1675,1.25146484375,0.9166259765625,-0.8116455078125
1753242268,310,310,306,1693,1.5634765625,0.8935546875,-0.985595703125
1753242268,308,309,306,1713,1.7716064453125,0.8497314453125,-0.91943359375
1753242268,308,308,307,1748,1.8326416015625,0.7734375,-0.6624755859375
1753242268,310,309,309,1759,1.696044921875,0.6317138671875,-0.357177734375
1753242268,309,310,304,1766,1.3460693359375,0.4857177734375,-0.1085205078125
1753242268,308,308,295,1769,1.0726318359375,0.6085205078125,-0.1527099609375
1753242268,308,307,305,1762,1.197265625,0.8629150390625,-0.5087890625
1753242268,308,308,308,1746,1.5369873046875,0.86083984375,-0.752685546875
1753242269,308,311,310,1700,1.722412109375,0.7083740234375,-0.73095703125
1753242269,308,310,313,1662,1.6614990234375,0.5894775390625,-0.6185302734375
1753242269,308,308,302,1602,1.4617919921875,0.5150146484375,-0.5047607421875
1753242269,308,309,313,1514,1.214599609375,0.438232421875,-0.3739013671875
1753242269,308,309,310,1429,0.971435546875,0.3699951171875,-0.23388671875
1753242269,308,308,310,1341,0.7822265625,0.3125,-0.1318359375
1753242269,308,310,310,1198,0.646728515625,0.24755859375,-0.0972900390625
1753242269,309,308,313,1129,0.5650634765625,0.2037353515625,-0.0938720703125
1753242269,309,308,310,1022,0.5289306640625,0.184326171875,-0.0565185546875
1753242269,308,309,308,887,0.4949951171875,0.164794921875,-0.01123046875
1753242269,308,310,309,820,0.458251953125,0.1480712890625,-0.0001220703125
1753242269,308,310,315,751,0.4306640625,0.1612548828125,-0.03369140625
1753242269,309,308,308,660,0.4306640625,0.1990966796875,-0.0919189453125
1753242269,310,308,307,632,0.45751953125,0.235107421875,-0.1409912109375
1753242269,308,310,308,625,0.4847412109375,0.247802734375,-0.1749267578125
1753242269,309,308,306,631,0.492431640625,0.2415771484375,-0.20166015625
1753242269,308,308,308,658,0.4910888671875,0.2452392578125,-0.2451171875
1753242269,308,308,310,683,0.522216796875,0.2955322265625,-0.32177734375
1753242269,308,308,308,720,0.562744140625,0.3546142578125,-0.4185791015625
1753242269,308,307,308,731,0.565673828125,0.338134765625,-0.4581298828125
1753242269,309,310,306,754,0.5341796875,0.252685546875,-0.3970947265625
1753242269,308,309,308,827,0.4923095703125,0.158935546875,-0.2982177734375
1753242269,308,309,308,874,0.469970703125,0.1409912109375,-0.243408203125
1753242269,308,309,304,933,0.476318359375,0.2357177734375,-0.266845703125
1753242269,310,308,308,1013,0.501953125,0.365234375,-0.307861328125
1753242269,309,308,313,1066,0.5225830078125,0.4210205078125,-0.298095703125
1753242269,308,308,308,1157,0.5576171875,0.38037109375,-0.2073974609375
1753242269,308,308,307,1242,0.689697265625,0.250244140625,0.01220703125
1753242269,308,310,306,1306,0.8291015625,0.0042724609375,0.213134765625
1753242269,308,308,306,1382,0.804931640625,-0.114013671875,0.2437744140625
1753242269,306,308,307,1478,0.667724609375,-0.002685546875,0.106201171875
1753242269,310,308,292,1529,0.673828125,0.1910400390625,-0.134521484375
1753242269,310,310,306,1604,0.9013671875,0.447265625,-0.376220703125
1753242269,308,308,306,1659,1.211669921875,0.678466796875,-0.623291015625
1753242269,308,309,305,1700,1.499267578125,0.8341064453125,-0.8245849609375
1753242269,308,308,308,1715,1.692626953125,0.9156494140625,-0.884521484375
1753242269,308,308,307,1762,1.787109375,0.9219970703125,-0.7978515625
1753242269,309,308,294,1773,1.7603759765625,0.8387451171875,-0.5946044921875
1753242269,309,308,308,1783,1.484130859375,0.5767822265625,-0.24755859375
1753242269,308,309,308,1796,1.1334228515625,0.5311279296875,-0.0550537109375
1753242269,308,308,308,1789,1.1597900390625,0.834716796875,-0.3651123046875
1753242269,308,308,308,1782,1.4932861328125,0.93994140625,-0.744140625
1753242269,308,308,310,1755,1.702392578125,0.7940673828125,-0.7962646484375
1753242269,308,308,308,1711,1.6517333984375,0.6492919921875,-0.6807861328125
1753242269,308,308,310,1669,1.6517333984375,0.6492919921875,-0.6807861328125
1753242269,308,310,308,1573,1.24365234375,0.4727783203125,-0.4271240234375
1753242269,309,310,304,1487,1.025634765625,0.4100341796875,-0.3116455078125
1753242269,308,310,313,1375,1.025634765625,0.4100341796875,-0.3116455078125
1753242269,308,306,311,1231,0.712646484375,0.2490234375,-0.1175537109375
1753242269,308,309,308,1148,0.625244140625,0.169677734375,-0.06494140625
1753242269,310,310,310,1050,0.625244140625,0.169677734375,-0.06494140625
1753242269,309,308,307,888,0.543701171875,0.0928955078125,0.0577392578125
1753242269,308,309,308,794,0.4739990234375,0.1107177734375,0.08154296875
1753242269,308,309,308,723,0.4739990234375,0.1107177734375,0.08154296875
1753242269,308,308,308,630,0.375244140625,0.250732421875,-0.039306640625
1753242269,308,307,308,567,0.405029296875,0.2996826171875,-0.1192626953125
1753242269,308,308,308,540,0.405029296875,0.2996826171875,-0.1192626953125
1753242269,309,308,308,526,0.466796875,0.2818603515625,-0.2484130859375
1753242269,309,308,308,539,0.4534912109375,0.2626953125,-0.2900390625
1753242269,308,308,304,564,0.4534912109375,0.2626953125,-0.2900390625
1753242269,308,307,309,601,0.4609375,0.2666015625,-0.3443603515625
1753242269,308,310,308,619,0.5570068359375,0.30419921875,-0.4718017578125
1753242269,309,310,308,643,0.5570068359375,0.30419921875,-0.4718017578125
1753242269,308,306,308,667,0.5804443359375,0.25634765625,-0.4429931640625
1753242269,306,309,308,735,0.5853271484375,0.21533203125,-0.317626953125
1753242269,309,308,307,766,0.5853271484375,0.21533203125,-0.317626953125
1753242269,308,308,308,820,0.5487060546875,0.282470703125,-0.311767578125
1753242269,308,308,307,907,0.42431640625,0.369873046875,-0.3409423828125
1753242269,309,308,309,962,0.42431640625,0.369873046875,-0.3409423828125
1753242269,308,308,307,1038,0.416015625,0.3182373046875,-0.3472900390625
1753242269,298,308,306,1183,0.449951171875,0.2215576171875,-0.2469482421875
1753242269,308,310,306,1292,0.449951171875,0.2215576171875,-0.2469482421875
1753242269,306,309,306,1357,0.53076171875,0.257080078125,-0.1025390625
1753242269,308,308,306,1488,0.9886474609375,0.0836181640625,0.23681640625
1753242269,308,310,304,1541,0.9886474609375,0.0836181640625,0.23681640625
1753242269,307,308,304,1597,1.033447265625,0.0284423828125,0.0999755859375
1753242269,308,306,304,1687,1.2479248046875,0.527099609375,-0.4080810546875
1753242269,308,310,302,1715,1.2479248046875,0.527099609375,-0.4080810546875
1753242269,308,308,302,1750,1.3553466796875,0.7742919921875,-0.6732177734375
1753242269,309,307,308,1786,1.7147216796875,0.99365234375,-0.82666015625
1753242269,308,308,308,1796,1.7147216796875,0.99365234375,-0.82666015625
1753242269,310,309,307,1798,1.780517578125,0.8280029296875,-0.620361328125
1753242269,306,308,308,1810,1.2864990234375,0.6019287109375,-0.218994140625
1753242269,308,308,311,1806,1.2864990234375,0.6019287109375,-0.218994140625
1753242269,308,308,310,1798,1.3248291015625,0.898193359375,-0.549072265625
1753242269,308,311,310,1770,1.671142578125,0.7672119140625,-0.76904296875
1753242269,308,308,310,1739,1.671142578125,0.7672119140625,-0.76904296875
1753242269,308,308,309,1695,1.5531005859375,0.6190185546875,-0.6248779296875
1753242269,308,308,312,1598,1.33642578125,0.5244140625,-0.4927978515625
1753242269,308,308,307,1504,1.1158447265625,0.4459228515625,-0.39501953125
1753242269,308,308,312,1422,0.9161376953125,0.3818359375,-0.3104248046875
1753242269,308,308,313,1278,0.7581787109375,0.302490234375,-0.2069091796875
1753242269,308,308,310,1163,0.645751953125,0.1788330078125,-0.100341796875
1753242269,308,308,306,1070,0.5770263671875,0.094482421875,-0.0462646484375
1753242269,308,309,308,947,0.54931640625,0.0745849609375,-0.005126953125
1753242269,308,308,308,868,0.5147705078125,0.08203125,0.05615234375
1753242269,308,308,308,800,0.4537353515625,0.12060546875,0.0740966796875
1753242269,310,308,306,707,0.40087890625,0.1866455078125,0.027587890625
1753242269,308,308,308,678,0.3858642578125,0.2471923828125,-0.03955078125
1753242269,308,308,308,666,0.4005126953125,0.285888671875,-0.1151123046875
1753242270,309,308,306,678,0.4317626953125,0.2900390625,-0.192138671875
1753242270,310,310,308,697,0.465576171875,0.275390625,-0.2520751953125
1753242270,308,309,306,714,0.4971923828125,0.2867431640625,-0.30517578125
1753242270,306,308,308,748,0.5411376953125,0.3243408203125,-0.371826171875
1753242270,308,308,313,772,0.570068359375,0.3079833984375,-0.42626953125
1753242270,308,309,313,811,0.58056640625,0.2620849609375,-0.4281005859375
1753242270,310,308,307,878,0.5802001953125,0.2515869140625,-0.37890625
1753242270,308,310,308,922,0.5611572265625,0.25048828125,-0.3150634765625
1753242270,310,308,304,968,0.5589599609375,0.2432861328125,-0.2669677734375
1753242270,309,308,308,1058,0.576416015625,0.245361328125,-0.247314453125
1753242270,309,308,306,1108,0.576171875,0.265869140625,-0.2484130859375
1753242270,308,308,308,1185,0.5467529296875,0.3131103515625,-0.2606201171875
1753242270,308,310,306,1294,0.5399169921875,0.3765869140625,-0.2777099609375
1753242270,308,308,304,1367,0.6583251953125,0.39306640625,-0.0946044921875
1753242270,308,308,306,1429,0.74462890625,0.102294921875,0.222900390625
1753242270,307,308,304,1552,0.645751953125,-0.286376953125,0.3427734375
1753242270,308,309,305,1615,0.560302734375,-0.20068359375,0.225830078125
1753242270,308,310,306,1662,0.6455078125,0.2564697265625,-0.0330810546875
1753242270,310,310,304,1739,0.8831787109375,0.6790771484375,-0.3568115234375
1753242270,308,310,313,1779,1.2012939453125,0.864990234375,-0.6873779296875
1753242270,310,310,308,1798,1.5537109375,0.84033203125,-0.915771484375
1753242270,302,308,310,1830,1.8389892578125,0.7650146484375,-0.9442138671875
1753242270,308,308,308,1848,2.2076416015625,1.011474609375,-0.9281005859375
1753242270,308,309,304,1850,2.1439208984375,0.682861328125,-0.598876953125
1753242270,308,308,308,1865,1.3839111328125,0.198974609375,0.03515625
1753242270,309,308,309,1867,0.9349365234375,0.692626953125,0.013916015625
1753242270,308,308,308,1861,1.223388671875,1.13720703125,-0.5634765625
1753242270,308,308,308,1828,1.72607421875,1.007568359375,-0.85498046875
1753242270,308,308,312,1790,1.8887939453125,0.6961669921875,-0.79931640625
1753242270,294,308,310,1727,1.716064453125,0.5404052734375,-0.6500244140625
1753242270,310,292,321,1670,1.43115234375,0.4683837890625,-0.5113525390625
1753242270,308,309,308,1536,1.14794921875,0.4119873046875,-0.397216796875
1753242270,308,308,308,1437,0.893310546875,0.3597412109375,-0.291015625
1753242270,309,308,314,1331,0.6883544921875,0.279052734375,-0.177001953125
1753242270,308,308,308,1149,0.5582275390625,0.1546630859375,-0.06103515625
1753242270,308,309,308,1012,0.514404296875,0.0311279296875,0.0460205078125
1753242270,309,308,304,914,0.489013671875,-0.0369873046875,0.148681640625
1753242270,309,309,302,720,0.4188232421875,0.00048828125,0.177978515625
1753242270,308,306,308,644,0.3414306640625,0.1243896484375,0.1014404296875
1753242270,308,308,304,576,0.318115234375,0.2177734375,-0.0283203125
1753242270,310,308,304,526,0.3427734375,0.23876953125,-0.125
1753242270,308,308,310,519,0.3582763671875,0.222900390625,-0.1590576171875
1753242270,309,307,308,523,0.3612060546875,0.20263671875,-0.1903076171875
1753242270,308,309,307,576,0.389892578125,0.238525390625,-0.261962890625
1753242270,308,308,308,594,0.4642333984375,0.3211669921875,-0.3564453125
1753242270,308,313,308,620,0.4642333984375,0.3211669921875,-0.3564453125
1753242270,308,308,308,673,0.546875,0.2862548828125,-0.466552734375
1753242270,308,308,308,711,0.541748046875,0.2091064453125,-0.4232177734375
1753242270,308,308,308,758,0.541748046875,0.2091064453125,-0.4232177734375
1753242270,310,308,308,830,0.529541015625,0.1517333984375,-0.2862548828125
1753242270,308,309,308,899,0.53369140625,0.2322998046875,-0.2696533203125
1753242270,308,308,307,952,0.53369140625,0.2322998046875,-0.2696533203125
1753242270,308,310,306,1078,0.475830078125,0.3900146484375,-0.313232421875
1753242270,308,309,305,1173,0.43359375,0.393310546875,-0.30322265625
1753242270,308,308,309,1265,0.43359375,0.393310546875,-0.30322265625
1753242270,308,309,307,1399,0.7301025390625,0.11181640625,0.158447265625
1753242270,308,307,304,1474,0.8785400390625,-0.1748046875,0.3946533203125
1753242270,309,308,318,1536,0.8785400390625,-0.1748046875,0.3946533203125
1753242270,308,308,304,1632,0.76806640625,0.127685546875,-0.04052734375
1753242270,308,308,310,1686,0.9189453125,0.5184326171875,-0.3870849609375
1753242270,308,310,304,1733,0.9189453125,0.5184326171875,-0.3870849609375
1753242270,308,309,305,1792,1.581298828125,0.8485107421875,-0.7996826171875
1753242270,296,310,300,1809,1.8126220703125,0.857177734375,-0.8271484375
1753242270,310,308,310,1823,1.8126220703125,0.857177734375,-0.8271484375
1753242270,308,308,310,1840,1.88671875,0.806640625,-0.569091796875
1753242270,308,308,308,1849,1.4632568359375,0.589599609375,-0.2110595703125
1753242270,308,310,309,1852,1.4632568359375,0.589599609375,-0.2110595703125
1753242270,309,308,309,1855,1.333984375,1.0306396484375,-0.664306640625
1753242270,308,308,301,1840,1.333984375,1.0306396484375,-0.664306640625
1753242270,310,310,308,1819,1.6885986328125,0.95166015625,-0.89208984375
1753242270,307,308,310,1748,1.6239013671875,0.614990234375,-0.6473388671875
1753242270,308,306,308,1693,1.6239013671875,0.614990234375,-0.6473388671875
1753242270,308,310,310,1622,1.3721923828125,0.52978515625,-0.5146484375
1753242270,309,310,310,1464,0.86181640625,0.3388671875,-0.2735595703125
1753242270,310,310,310,1369,0.86181640625,0.3388671875,-0.2735595703125
1753242270,309,310,310,1251,0.6759033203125,0.2451171875,-0.129150390625
1753242270,308,309,309,1081,0.5533447265625,0.0467529296875,0.102783203125
1753242270,308,310,309,973,0.5533447265625,0.0467529296875,0.102783203125
1753242270,308,308,308,871,0.542236328125,-0.016845703125,0.193603515625
1753242270,307,310,308,714,0.4105224609375,0.0999755859375,0.1387939453125
1753242270,309,310,308,654,0.4105224609375,0.0999755859375,0.1387939453125
1753242270,308,308,308,614,0.371826171875,0.223876953125,-0.009765625
1753242270,308,308,308,552,0.39990234375,0.267822265625,-0.2255859375
1753242270,308,310,308,536,0.39990234375,0.267822265625,-0.2255859375
1753242270,307,308,307,548,0.3953857421875,0.276611328125,-0.300048828125
1753242270,308,310,308,590,0.44580078125,0.3365478515625,-0.4942626953125
1753242270,309,309,308,620,0.44580078125,0.3365478515625,-0.4942626953125
1753242270,310,308,308,633,0.5250244140625,0.362548828125,-0.576171875
1753242270,308,308,309,682,0.5850830078125,0.23828125,-0.544189453125
1753242270,308,308,309,712,0.5850830078125,0.23828125,-0.544189453125
1753242270,309,310,310,744,0.578369140625,0.162353515625,-0.452880859375
1753242270,308,310,308,806,0.552001953125,0.210693359375,-0.3299560546875
1753242270,308,309,308,858,0.552001953125,0.210693359375,-0.3299560546875
1753242270,308,308,306,899,0.5458984375,0.311767578125,-0.3448486328125
1753242270,310,308,307,987,0.534423828125,0.441162109375,-0.3909912109375
1753242270,308,308,309,1037,0.534423828125,0.441162109375,-0.3909912109375
1753242270,310,309,310,1091,0.5166015625,0.4169921875,-0.3909912109375
1753242270,308,308,307,1224,0.7646484375,0.302001953125,-0.1143798828125
1753242270,308,310,306,1294,0.7646484375,0.302001953125,-0.1143798828125
1753242270,309,308,307,1369,0.968017578125,0.0218505859375,0.20556640625
1753242271,308,309,306,1483,0.9757080078125,-0.21240234375,0.34375
1753242271,309,307,305,1547,0.853271484375,-0.14990234375,0.3392333984375
1753242271,310,309,305,1596,0.7325439453125,0.1217041015625,0.23388671875
1753242271,308,308,306,1666,0.73974609375,0.42138671875,-0.049072265625
1753242271,307,308,306,1689,0.947509765625,0.707763671875,-0.426513671875
1753242271,309,308,307,1732,1.244384765625,0.828369140625,-0.7811279296875
1753242271,308,310,308,1757,1.53125,0.828125,-0.952880859375
1753242271,308,310,308,1775,1.7288818359375,0.812255859375,-0.9005126953125
1753242271,308,309,308,1790,1.77587890625,0.799560546875,-0.7120361328125
1753242271,304,309,308,1803,1.6177978515625,0.715087890625,-0.4423828125
1753242271,308,310,308,1808,1.302978515625,0.6453857421875,-0.2142333984375
1753242271,308,308,310,1813,1.1610107421875,0.801025390625,-0.32958984375
1753242271,308,308,310,1803,1.3382568359375,0.9124755859375,-0.6396484375
1753242271,308,309,310,1781,1.5791015625,0.7843017578125,-0.7554931640625
1753242271,309,308,316,1748,1.6544189453125,0.6463623046875,-0.6993408203125
1753242271,309,308,310,1666,1.5367431640625,0.546875,-0.5828857421875
1753242271,309,306,308,1604,1.32080078125,0.4429931640625,-0.449951171875
1753242271,310,308,312,1529,1.0762939453125,0.335693359375,-0.30517578125
1753242271,308,309,311,1387,0.8653564453125,0.25439453125,-0.178955078125
1753242271,308,308,323,1290,0.72216796875,0.2000732421875,-0.1016845703125
1753242271,308,306,309,1198,0.63671875,0.150146484375,-0.0548095703125
1753242271,308,310,310,1012,0.5963134765625,0.120849609375,0.005615234375
1753242271,308,310,310,933,0.543701171875,0.124267578125,0.0587158203125
1753242271,308,309,308,846,0.4588623046875,0.1563720703125,0.0611572265625
1753242271,308,310,308,754,0.373046875,0.2117919921875,0.00244140625
1753242271,309,308,308,711,0.332763671875,0.2489013671875,-0.0938720703125
1753242271,310,310,304,693,0.35400390625,0.2657470703125,-0.1668701171875
1753242271,310,309,308,693,0.3997802734375,0.2889404296875,-0.2261962890625
1753242271,308,308,310,695,0.43603515625,0.3148193359375,-0.282958984375
1753242271,309,308,306,721,0.4637451171875,0.333740234375,-0.335205078125
1753242271,299,310,306,751,0.52001953125,0.338623046875,-0.393798828125
1753242271,308,308,308,777,0.570556640625,0.322265625,-0.450439453125
1753242271,308,308,308,799,0.566162109375,0.2535400390625,-0.45166015625
1753242271,308,310,308,859,0.5443115234375,0.1861572265625,-0.3876953125
1753242271,310,312,307,891,0.5150146484375,0.1719970703125,-0.305419921875
1753242271,309,310,304,934,0.47607421875,0.2166748046875,-0.2462158203125
1753242271,309,309,308,1042,0.4515380859375,0.289306640625,-0.25146484375
1753242271,309,309,306,1095,0.4429931640625,0.3319091796875,-0.2906494140625
1753242271,310,310,296,1157,0.445068359375,0.33544921875,-0.3125
1753242271,308,310,306,1302,0.4676513671875,0.338134765625,-0.2989501953125
1753242271,308,308,307,1351,0.63134765625,0.30810546875,-0.104248046875
1753242271,308,308,306,1474,0.8095703125,0.0594482421875,0.224853515625
1753242271,309,308,304,1569,0.7694091796875,-0.2322998046875,0.3746337890625
1753242271,308,307,306,1625,0.68408203125,-0.1390380859375,0.267333984375
1753242271,309,308,305,1681,0.749755859375,0.2606201171875,0.00048828125
1753242271,308,309,304,1755,0.981689453125,0.6202392578125,-0.3365478515625
1753242271,308,306,304,1783,1.3206787109375,0.79736328125,-0.645751953125
1753242271,308,309,308,1770,1.6644287109375,0.858642578125,-0.83447265625
1753242271,309,308,306,1850,2.078857421875,1.2314453125,-1.0308837890625
1753242271,308,308,324,1855,2.3839111328125,1.1097412109375,-1.01904296875
1753242271,310,309,308,1864,1.81494140625,0.2686767578125,-0.3251953125
1753242271,308,310,304,1877,0.8743896484375,0.2650146484375,0.176513671875
1753242271,309,309,308,1878,0.6513671875,0.8642578125,-0.157470703125
1753242271,308,308,309,1869,1.091064453125,1.017578125,-0.616455078125
1753242271,309,309,311,1848,1.628173828125,0.765625,-0.7835693359375
1753242271,308,306,310,1821,1.79443359375,0.5545654296875,-0.7244873046875
1753242271,308,310,308,1792,1.64453125,0.4998779296875,-0.60888671875
1753242271,295,308,310,1716,1.3909912109375,0.4761962890625,-0.4976806640625
1753242271,308,308,310,1666,1.1512451171875,0.451904296875,-0.3907470703125
1753242271,308,308,310,1598,0.9569091796875,0.393798828125,-0.2808837890625
1753242271,308,308,309,1452,0.81591796875,0.3355712890625,-0.1676025390625
1753242271,308,309,326,1372,0.7242431640625,0.278564453125,-0.0858154296875
1753242271,308,309,312,1268,0.6639404296875,0.216796875,-0.06591796875
1753242271,310,308,310,1104,0.626953125,0.1910400390625,-0.0810546875
1753242271,308,310,311,1024,0.5987548828125,0.1685791015625,-0.0531005859375
1753242271,308,308,308,947,0.5626220703125,0.137451171875,0.0059814453125
1753242271,308,308,308,818,0.5167236328125,0.13525390625,0.0155029296875
1753242271,308,310,316,753,0.491455078125,0.184814453125,-0.0355224609375
1753242271,308,309,306,707,0.491455078125,0.184814453125,-0.0355224609375
1753242271,308,309,309,642,0.50390625,0.2734375,-0.15234375
1753242271,308,308,306,634,0.5078125,0.246826171875,-0.20361328125
1753242271,308,308,309,639,0.5078125,0.246826171875,-0.20361328125
1753242271,309,308,308,660,0.486083984375,0.1815185546875,-0.317626953125
1753242271,308,308,307,683,0.509033203125,0.2259521484375,-0.3961181640625
1753242271,309,308,308,702,0.509033203125,0.2259521484375,-0.3961181640625
1753242271,308,308,308,742,0.563232421875,0.2633056640625,-0.4658203125
1753242271,309,309,308,778,0.5447998046875,0.200927734375,-0.376220703125
1753242271,308,310,308,827,0.5447998046875,0.200927734375,-0.376220703125
1753242271,309,308,308,907,0.4764404296875,0.1981201171875,-0.2401123046875
1753242271,308,308,307,989,0.4508056640625,0.310791015625,-0.2650146484375
1753242271,308,310,310,1062,0.4508056640625,0.310791015625,-0.2650146484375
1753242271,309,308,307,1170,0.4149169921875,0.43798828125,-0.36474609375
1753242271,309,308,310,1248,0.4349365234375,0.3843994140625,-0.3404541015625
1753242271,308,309,306,1308,0.4349365234375,0.3843994140625,-0.3404541015625
1753242271,308,308,304,1437,0.977294921875,-0.1182861328125,0.20068359375
1753242271,308,308,304,1497,1.031982421875,-0.2408447265625,0.31494140625
1753242271,292,307,291,1550,1.031982421875,-0.2408447265625,0.31494140625
1753242271,309,308,304,1650,1.008544921875,0.476806640625,-0.2247314453125
1753242271,310,312,304,1686,1.2139892578125,0.77001953125,-0.4669189453125
1753242271,309,308,304,1704,1.2139892578125,0.77001953125,-0.4669189453125
1753242271,310,310,306,1745,1.69287109375,0.77392578125,-0.5899658203125
1753242271,308,308,308,1762,1.69287109375,0.77392578125,-0.5899658203125
1753242271,308,310,310,1766,1.85986328125,0.741943359375,-0.5543212890625
1753242271,308,308,313,1785,1.4501953125,0.630859375,-0.2659912109375
1753242271,308,310,308,1786,1.4501953125,0.630859375,-0.2659912109375
1753242271,308,308,310,1773,1.299560546875,0.879150390625,-0.3709716796875
1753242271,309,308,313,1718,1.682861328125,0.798095703125,-0.7802734375
1753242271,308,308,310,1681,1.682861328125,0.798095703125,-0.7802734375
1753242271,309,308,310,1632,1.6656494140625,0.5933837890625,-0.6923828125
1753242271,308,308,310,1474,1.205078125,0.4405517578125,-0.4744873046875
1753242272,308,313,308,1387,1.205078125,0.4405517578125,-0.4744873046875
1753242272,308,310,315,1278,0.9708251953125,0.3670654296875,-0.3570556640625
1753242272,308,310,309,1098,0.6368408203125,0.1953125,-0.121826171875
1753242272,308,310,313,943,0.6368408203125,0.1953125,-0.121826171875
1753242272,308,308,315,829,0.5623779296875,0.17919921875,-0.0587158203125
1753242272,308,310,308,636,0.50732421875,0.0618896484375,0.1173095703125
1753242272,308,308,308,540,0.50732421875,0.0618896484375,0.1173095703125
1753242272,308,308,308,463,0.4852294921875,0.0687255859375,0.1434326171875
1753242272,308,308,316,404,0.48974609375,0.1846923828125,0.015380859375
1753242272,309,310,310,383,0.48974609375,0.1846923828125,0.015380859375
1753242272,309,308,310,364,0.5086669921875,0.26513671875,-0.1082763671875
1753242272,308,308,308,371,0.508056640625,0.305908203125,-0.16015625
1753242272,310,308,308,381,0.4764404296875,0.288818359375,-0.1732177734375
1753242272,308,308,304,402,0.4361572265625,0.2501220703125,-0.2154541015625
1753242272,310,308,308,434,0.4296875,0.2381591796875,-0.2974853515625
1753242272,310,308,308,466,0.4749755859375,0.2884521484375,-0.3763427734375
1753242272,309,310,306,482,0.542724609375,0.344482421875,-0.416748046875
1753242272,308,310,308,539,0.5784912109375,0.2958984375,-0.4029541015625
1753242272,310,308,308,572,0.5838623046875,0.170166015625,-0.3294677734375
1753242272,308,310,308,604,0.580810546875,0.13427734375,-0.266845703125
1753242272,300,310,308,682,0.5777587890625,0.2301025390625,-0.28857421875
1753242272,308,309,306,739,0.5968017578125,0.38818359375,-0.34716796875
1753242272,308,299,306,827,0.6142578125,0.486083984375,-0.36669921875
1753242272,308,309,308,927,0.6075439453125,0.4332275390625,-0.3321533203125
1753242272,308,308,306,1009,0.574462890625,0.2838134765625,-0.279296875
1753242272,308,310,304,1108,0.5836181640625,0.200439453125,-0.269287109375
1753242272,310,310,306,1211,0.78564453125,0.2559814453125,-0.1884765625
1753242272,296,294,306,1278,1.0469970703125,0.2259521484375,0.0323486328125
1753242272,308,309,306,1341,1.0494384765625,0.0853271484375,0.1357421875
1753242272,309,308,304,1440,0.899169921875,0.0731201171875,0.0400390625
1753242272,308,308,305,1494,0.8726806640625,0.21533203125,-0.13525390625
1753242272,318,309,306,1518,1.0025634765625,0.4627685546875,-0.326904296875
1753242272,309,308,301,1549,1.2335205078125,0.7061767578125,-0.531494140625
1753242272,308,309,307,1608,1.4891357421875,0.8343505859375,-0.7139892578125
1753242272,309,308,310,1624,1.6861572265625,0.8760986328125,-0.7716064453125
1753242272,309,310,308,1646,1.7490234375,0.79736328125,-0.660888671875
1753242272,308,313,293,1650,1.56005859375,0.55224609375,-0.337890625
1753242272,308,308,308,1656,1.2767333984375,0.547607421875,-0.1220703125
1753242272,307,310,313,1650,1.2567138671875,0.807861328125,-0.339111328125
1753242272,308,308,308,1636,1.461181640625,0.8572998046875,-0.64794921875
1753242272,308,308,307,1622,1.5933837890625,0.7115478515625,-0.7376708984375
1753242272,308,308,310,1553,1.54736328125,0.57861328125,-0.6893310546875
1753242272,308,308,308,1499,1.3753662109375,0.4847412109375,-0.580810546875
1753242272,295,296,313,1411,1.15673828125,0.4322509765625,-0.47314453125
1753242272,308,309,308,1267,0.9561767578125,0.399658203125,-0.37841796875
1753242272,308,309,304,1166,0.7838134765625,0.3089599609375,-0.2574462890625
1753242272,310,310,315,1079,0.6593017578125,0.2269287109375,-0.138427734375
1753242272,309,310,309,917,0.5927734375,0.1982421875,-0.0570068359375
1753242272,308,308,309,841,0.5531005859375,0.1636962890625,0.0152587890625
1753242272,309,310,308,761,0.508544921875,0.13232421875,0.0736083984375
1753242272,308,308,308,673,0.47509765625,0.14990234375,0.0587158203125
1753242272,310,308,308,617,0.4713134765625,0.1849365234375,0.0008544921875
1753242272,308,308,306,582,0.4842529296875,0.2264404296875,-0.071044921875
1753242272,308,309,306,525,0.5023193359375,0.2545166015625,-0.15869140625
1753242272,310,309,318,530,0.5135498046875,0.258056640625,-0.23046875
1753242272,308,308,308,538,0.513671875,0.2540283203125,-0.265869140625
1753242272,308,308,308,582,0.518310546875,0.2427978515625,-0.2911376953125
1753242272,309,310,308,607,0.5489501953125,0.2647705078125,-0.330078125
1753242272,308,309,308,628,0.584716796875,0.32666015625,-0.3739013671875
1753242272,300,308,308,678,0.58251953125,0.3441162109375,-0.37744140625
1753242272,307,308,307,711,0.552978515625,0.300537109375,-0.318603515625
1753242272,308,309,306,740,0.527587890625,0.2496337890625,-0.2503662109375
1753242272,307,310,308,806,0.5269775390625,0.24072265625,-0.2255859375
1753242272,308,308,307,858,0.546875,0.2828369140625,-0.24755859375
1753242272,310,310,308,934,0.5540771484375,0.3211669921875,-0.27587890625
1753242272,308,310,308,1010,0.525146484375,0.3121337890625,-0.2755126953125
1753242272,308,308,310,1089,0.4805908203125,0.2857666015625,-0.244873046875
1753242272,309,307,308,1173,0.512939453125,0.2911376953125,-0.1885986328125
1753242272,308,310,305,1318,0.672607421875,0.2896728515625,0.0269775390625
1753242272,308,308,305,1398,0.7977294921875,0.0274658203125,0.25927734375
1753242272,309,308,305,1463,0.7833251953125,-0.2489013671875,0.2174072265625
1753242272,310,309,304,1543,0.781005859375,-0.0389404296875,-0.0557861328125
1753242272,306,308,301,1582,0.913330078125,0.4818115234375,-0.4100341796875
1753242272,308,308,305,1615,1.1785888671875,0.908447265625,-0.7269287109375
1753242272,308,294,310,1669,1.4866943359375,1.010986328125,-0.9195556640625
1753242272,308,308,316,1689,1.74560546875,0.87841796875,-0.917236328125
1753242272,306,310,308,1679,1.883544921875,0.6943359375,-0.728759765625
1753242272,308,308,306,1730,1.883544921875,0.6943359375,-0.728759765625
1753242272,308,309,308,1739,1.4384765625,0.4844970703125,-0.145263671875
1753242272,308,308,310,1746,1.156982421875,0.7249755859375,-0.171142578125
1753242272,310,294,310,1746,1.156982421875,0.7249755859375,-0.171142578125
1753242272,310,308,310,1733,1.5682373046875,0.9822998046875,-0.8408203125
1753242272,308,308,310,1702,1.7054443359375,0.740234375,-0.79638671875
1753242272,309,309,310,1681,1.7054443359375,0.740234375,-0.79638671875
1753242272,308,309,310,1598,1.3704833984375,0.485107421875,-0.5181884765625
1753242272,309,308,310,1529,1.1207275390625,0.424072265625,-0.4195556640625
1753242272,308,309,312,1429,1.1207275390625,0.424072265625,-0.4195556640625
1753242272,308,311,313,1274,0.7198486328125,0.2882080078125,-0.196044921875
1753242272,308,308,308,1163,0.5982666015625,0.197509765625,-0.08447265625
1753242272,309,308,308,1050,0.5982666015625,0.197509765625,-0.08447265625
1753242272,309,310,309,899,0.5115966796875,0.041015625,0.108154296875
1753242272,308,307,308,816,0.5115966796875,0.041015625,0.108154296875
1753242272,308,308,308,740,0.4656982421875,0.0274658203125,0.165283203125
1753242272,308,310,310,644,0.4559326171875,0.203369140625,0.0179443359375
1753242272,308,311,308,584,0.4559326171875,0.203369140625,0.0179443359375
1753242272,310,308,307,540,0.485107421875,0.2890625,-0.111083984375
1753242272,308,309,307,518,0.4918212890625,0.320556640625,-0.298095703125
1753242272,308,310,318,525,0.4918212890625,0.320556640625,-0.298095703125
1753242272,310,308,309,536,0.46630859375,0.29833984375,-0.3260498046875
1753242272,308,310,308,598,0.51611328125,0.27783203125,-0.3812255859375
1753242273,308,310,308,620,0.51611328125,0.27783203125,-0.3812255859375
1753242273,309,308,308,646,0.5810546875,0.2725830078125,-0.40625
1753242273,308,308,308,698,0.575439453125,0.202392578125,-0.3173828125
1753242273,308,310,307,744,0.575439453125,0.202392578125,-0.3173828125
1753242273,309,310,308,771,0.561279296875,0.201904296875,-0.251953125
1753242273,309,308,308,871,0.5263671875,0.3560791015625,-0.2315673828125
1753242273,310,309,313,922,0.5263671875,0.3560791015625,-0.2315673828125
1753242273,308,310,308,986,0.521240234375,0.3909912109375,-0.248046875
1753242273,310,310,306,1079,0.53662109375,0.275634765625,-0.28369140625
1753242273,308,309,304,1185,0.53662109375,0.275634765625,-0.28369140625
1753242273,308,308,306,1260,0.554443359375,0.2261962890625,-0.3057861328125
1753242273,308,308,306,1383,0.8780517578125,0.328857421875,0.0557861328125
1753242273,310,310,305,1450,0.8780517578125,0.328857421875,0.0557861328125
1753242273,292,299,304,1516,0.931884765625,0.0618896484375,0.182373046875
1753242273,309,308,302,1582,0.924072265625,-0.037109375,0.0411376953125
1753242273,307,308,306,1611,0.9600830078125,0.1998291015625,-0.2265625
1753242273,292,307,304,1641,1.07861328125,0.5313720703125,-0.498779296875
1753242273,308,307,308,1691,1.2730712890625,0.7861328125,-0.6951904296875
1753242273,307,308,308,1704,1.4798583984375,0.8695068359375,-0.7454833984375
1753242273,307,308,307,1730,1.6234130859375,0.8275146484375,-0.6844482421875
1753242273,310,310,308,1748,1.6640625,0.7313232421875,-0.5616455078125
1753242273,306,308,308,1748,1.5147705078125,0.5723876953125,-0.3529052734375
1753242273,309,309,313,1755,1.2540283203125,0.5609130859375,-0.227783203125
1753242273,292,309,315,1744,1.2244873046875,0.7828369140625,-0.4541015625
1753242273,308,308,309,1739,1.4569091796875,0.89453125,-0.7760009765625
1753242273,308,310,299,1683,1.626220703125,0.7603759765625,-0.8233642578125
1753242273,308,308,308,1648,1.57666015625,0.6007080078125,-0.693359375
1753242273,308,308,310,1610,1.3890380859375,0.53369140625,-0.5601806640625
1753242273,310,306,310,1548,1.166748046875,0.4793701171875,-0.4561767578125
1753242273,309,310,310,1411,0.96044921875,0.43115234375,-0.361572265625
1753242273,308,310,319,1323,0.7943115234375,0.3497314453125,-0.2552490234375
1753242273,308,308,306,1211,0.6732177734375,0.2393798828125,-0.136962890625
1753242273,308,308,310,1054,0.61181640625,0.1748046875,-0.0206298828125
1753242273,309,308,308,944,0.5931396484375,0.1312255859375,0.079345703125
1753242273,308,308,309,879,0.5635986328125,0.08984375,0.1248779296875
1753242273,308,308,309,761,0.5125732421875,0.096923828125,0.087646484375
1753242273,308,308,313,702,0.479248046875,0.1651611328125,-0.005126953125
1753242273,308,308,307,666,0.4739990234375,0.2452392578125,-0.1055908203125
1753242273,308,309,310,616,0.49462890625,0.287109375,-0.2130126953125
1753242273,308,309,310,614,0.5299072265625,0.29443359375,-0.3026123046875
1753242273,308,308,308,593,0.54052734375,0.296142578125,-0.359375
1753242273,308,308,308,625,0.5225830078125,0.2880859375,-0.3946533203125
1753242273,310,308,308,656,0.51123046875,0.2874755859375,-0.4228515625
1753242273,308,306,308,679,0.5443115234375,0.3214111328125,-0.461181640625
1753242273,308,308,308,707,0.5928955078125,0.3612060546875,-0.484619140625
1753242273,308,309,306,737,0.593017578125,0.322265625,-0.4456787109375
1753242273,308,306,308,767,0.5721435546875,0.2269287109375,-0.3499755859375
1753242273,310,309,308,832,0.5601806640625,0.1905517578125,-0.267822265625
1753242273,310,309,308,871,0.5484619140625,0.25634765625,-0.248046875
1753242273,308,308,308,923,0.5408935546875,0.377197265625,-0.292724609375
1753242273,307,308,306,1003,0.5478515625,0.4500732421875,-0.361083984375
1753242273,308,308,313,1063,0.57421875,0.4205322265625,-0.3909912109375
1753242273,308,310,308,1115,0.603515625,0.323974609375,-0.3572998046875
1753242273,308,306,306,1225,0.6463623046875,0.302734375,-0.3046875
1753242273,308,308,306,1282,0.79638671875,0.349609375,-0.133056640625
1753242273,308,308,308,1331,0.9552001953125,0.183349609375,0.1463623046875
1753242273,310,308,306,1443,0.9100341796875,-0.1043701171875,0.288330078125
1753242273,308,308,306,1504,0.7427978515625,-0.15380859375,0.279052734375
1753242273,310,308,304,1545,0.662841796875,0.0364990234375,0.1539306640625
1753242273,308,309,306,1615,0.7271728515625,0.3427734375,-0.1402587890625
1753242273,308,308,306,1643,0.912841796875,0.7049560546875,-0.59375
1753242273,308,308,306,1675,1.206298828125,1.001953125,-1.033203125
1753242273,308,310,307,1698,1.506591796875,1.1029052734375,-1.1788330078125
1753242273,308,309,313,1722,1.721435546875,0.9818115234375,-0.9639892578125
1753242273,308,308,306,1739,1.7689208984375,0.71533203125,-0.556640625
1753242273,308,308,308,1753,1.54541015625,0.4371337890625,-0.140380859375
1753242273,308,309,308,1759,1.2197265625,0.465576171875,-0.0128173828125
1753242273,310,308,310,1759,1.1707763671875,0.8115234375,-0.3956298828125
1753242273,308,308,310,1743,1.4156494140625,0.9891357421875,-0.8486328125
1753242273,308,308,308,1732,1.6126708984375,0.8367919921875,-0.9168701171875
1753242273,308,309,310,1704,1.56494140625,0.6185302734375,-0.733642578125
1753242273,308,310,310,1636,1.367919921875,0.518310546875,-0.53759765625
