time,compression0,compression1,compression2,compression3,accel_x,accel_y,accel_z
0.008,300,811,487,328,-0.7652587890625,0.6434326171875,-0.0946044921875
0.015,300,806,485,328,-0.7635498046875,0.6424560546875,-0.098876953125
0.029,300,793,479,327,-0.758056640625,0.635498046875,-0.098388671875
0.051,299,788,475,327,-0.7515869140625,0.6248779296875,-0.09521484375
0.053,298,787,482,328,-0.74755859375,0.6156005859375,-0.09033203125
0.059,300,785,478,324,-0.7491455078125,0.613525390625,-0.0853271484375
0.070,300,787,475,327,-0.756591796875,0.61865234375,-0.081787109375
0.076,299,763,473,328,-0.7659912109375,0.626708984375,-0.0802001953125
0.095,299,723,464,327,-0.7725830078125,0.634521484375,-0.08056640625
0.097,299,692,468,326,-0.7745361328125,0.6402587890625,-0.082763671875
0.105,299,645,470,327,-0.771484375,0.6407470703125,-0.0855712890625
0.119,300,623,496,324,-0.7655029296875,0.6339111328125,-0.08740234375
0.129,300,642,497,327,-0.7581787109375,0.6234130859375,-0.0870361328125
0.135,299,630,487,327,-0.752685546875,0.615478515625,-0.0841064453125
0.153,299,625,473,326,-0.7523193359375,0.614990234375,-0.0794677734375
0.158,300,625,464,324,-0.7562255859375,0.62255859375,-0.0758056640625
0.165,299,631,465,326,-0.763427734375,0.634033203125,-0.07568359375
0.179,299,619,466,324,-0.7698974609375,0.6414794921875,-0.0797119140625
0.187,300,632,461,325,-0.7696533203125,0.639892578125,-0.0869140625
0.201,296,644,437,327,-0.76171875,0.627685546875,-0.0928955078125
0.209,300,645,461,327,-0.7523193359375,0.607421875,-0.0943603515625
0.273,300,652,458,326,-0.7469482421875,0.5860595703125,-0.0926513671875
0.273,300,682,446,325,-0.7481689453125,0.5711669921875,-0.0869140625
0.273,300,687,455,324,-0.7547607421875,0.5736083984375,-0.0777587890625
0.273,299,723,458,327,-0.7635498046875,0.6016845703125,-0.0679931640625
0.274,300,744,481,328,-0.77490234375,0.6463623046875,-0.0640869140625
0.282,300,780,481,327,-0.787353515625,0.682373046875,-0.0709228515625
0.292,300,778,482,327,-0.7940673828125,0.68603515625,-0.0849609375
0.292,282,785,479,328,-0.791259765625,0.6522216796875,-0.098876953125
0.306,299,780,456,327,-0.7833251953125,0.599365234375,-0.10498046875
0.308,282,800,490,324,-0.77490234375,0.559326171875,-0.095703125
0.320,299,815,499,328,-0.767822265625,0.5523681640625,-0.074951171875
0.335,300,864,498,328,-0.762939453125,0.5732421875,-0.05615234375
0.338,299,883,508,327,-0.763671875,0.594970703125,-0.0477294921875
0.363,300,938,519,328,-0.7716064453125,0.5968017578125,-0.0537109375
0.363,300,959,533,334,-0.7808837890625,0.580078125,-0.066650390625
0.367,300,984,519,332,-0.7874755859375,0.550048828125,-0.074951171875
0.376,300,1013,513,330,-0.7874755859375,0.550048828125,-0.074951171875
0.390,299,1123,526,328,-0.794189453125,0.4925537109375,-0.0777587890625
0.399,300,1156,526,328,-0.798828125,0.49072265625,-0.0712890625
0.415,299,1201,517,331,-0.798828125,0.49072265625,-0.0712890625
0.421,300,1313,517,334,-0.805908203125,0.5245361328125,-0.0540771484375
0.441,300,1344,519,332,-0.8095703125,0.53759765625,-0.046630859375
0.441,301,1317,501,328,-0.8095703125,0.53759765625,-0.046630859375
0.460,300,1455,539,332,-0.8018798828125,0.524658203125,-0.048095703125
0.468,294,1483,531,327,-0.794677734375,0.513671875,-0.060546875
0.471,300,1543,531,331,-0.794677734375,0.513671875,-0.060546875
0.481,299,1640,535,334,-0.7987060546875,0.520751953125,-0.058837890625
0.488,300,1701,533,336,-0.810302734375,0.5189208984375,-0.0487060546875
0.498,300,1766,538,336,-0.810302734375,0.5189208984375,-0.0487060546875
0.523,300,1816,539,334,-0.859375,0.483642578125,-0.0311279296875
0.523,283,1927,537,315,-0.862548828125,0.4556884765625,-0.01513671875
0.528,300,2039,508,342,-0.862548828125,0.4556884765625,-0.01513671875
0.565,302,2293,518,336,-0.80224609375,0.4381103515625,0.0364990234375
0.565,299,2464,539,346,-0.761962890625,0.448486328125,0.056640625
0.566,300,2621,599,348,-0.761962890625,0.448486328125,0.056640625
0.571,298,3012,639,351,-0.670166015625,0.4383544921875,0.0765380859375
0.579,300,3147,648,391,-0.5753173828125,0.3714599609375,0.0947265625
0.590,299,3147,642,673,-0.5753173828125,0.3714599609375,0.0947265625
0.602,302,3147,656,1349,-0.176025390625,0.14990234375,0.092041015625
0.608,300,3147,661,1747,-0.176025390625,0.14990234375,0.092041015625
0.627,302,3147,695,1953,0.05712890625,0.152587890625,0.0390625
0.630,306,3147,741,2284,0.111328125,0.648681640625,0.2166748046875
0.644,299,3147,788,2507,0.111328125,0.648681640625,0.2166748046875
0.646,298,3147,898,2700,-0.214599609375,1.111572265625,0.2254638671875
0.669,304,3147,1025,3011,-1.4688720703125,1.75390625,-0.2066650390625
0.669,306,3147,1064,3121,-1.4688720703125,1.75390625,-0.2066650390625
0.675,310,3147,1122,3147,-1.97998046875,1.743408203125,-0.1436767578125
0.691,305,3147,1198,3147,-2.464599609375,-0.047119140625,-0.105712890625
0.698,306,3147,1228,3147,-2.464599609375,-0.047119140625,-0.105712890625
0.705,305,3147,1231,3147,-2.0836181640625,-1.0455322265625,-0.1519775390625
0.719,304,3147,1172,3147,-1.0943603515625,-0.2615966796875,0.280517578125
0.732,304,3147,1184,3147,-1.0943603515625,-0.2615966796875,0.280517578125
0.736,304,3147,1185,3147,-0.9686279296875,0.6563720703125,0.4251708984375
0.749,302,3147,1163,3127,-1.3638916015625,1.1944580078125,0.325927734375
0.775,300,3147,1155,2978,-1.3638916015625,1.1944580078125,0.325927734375
0.775,302,3147,1107,2769,-1.4136962890625,0.773681640625,0.2236328125
0.780,302,3147,1071,2415,-1.15380859375,0.0638427734375,0.096435546875
0.788,302,3147,1054,2287,-1.15380859375,0.0638427734375,0.096435546875
0.797,300,3147,1018,2141,-1.02490234375,-0.1297607421875,0.050048828125
0.810,300,3147,936,1735,-0.9345703125,-0.1483154296875,0.0445556640625
0.818,299,3147,912,1546,-0.8704833984375,-0.046875,0.07421875
0.825,294,3147,855,1283,-0.82666015625,0.0164794921875,0.082275390625
0.848,300,3147,797,887,-0.78759765625,0.04443359375,0.0460205078125
0.848,300,3147,761,644,-0.7078857421875,0.127685546875,-0.0029296875
0.872,299,3147,772,424,-0.621826171875,0.290771484375,-0.0452880859375
0.873,300,2769,725,344,-0.5806884765625,0.5030517578125,-0.056884765625
0.883,301,2492,710,375,-0.5689697265625,0.6851806640625,-0.024169921875
0.888,300,2254,653,359,-0.56787109375,0.7872314453125,0.0279541015625
0.899,299,1801,620,336,-0.5904541015625,0.7994384765625,0.0611572265625
0.909,298,1508,629,347,-0.6370849609375,0.749267578125,0.068359375
0.915,294,1340,578,336,-0.6798095703125,0.6751708984375,0.0672607421875
0.929,294,1092,589,336,-0.7041015625,0.5989990234375,0.0689697265625
0.952,299,1029,578,329,-0.71875,0.5361328125,0.0767822265625
0.952,300,958,604,328,-0.7310791015625,0.473876953125,0.0718994140625
0.962,296,813,621,324,-0.7615966796875,0.4129638671875,0.034423828125
0.974,300,739,617,327,-0.807861328125,0.379150390625,0.0040283203125
0.977,300,725,599,327,-0.8397216796875,0.373046875,0.001708984375
1.000,300,759,600,323,-0.849365234375,0.3846435546875,0.0037841796875
1.000,300,733,593,319,-0.844970703125,0.3984375,0.0140380859375
1.005,302,753,567,323,-0.824462890625,0.3857421875,0.040771484375
1.020,304,750,603,321,-0.796142578125,0.33447265625,0.06640625
1.027,301,788,628,323,-0.7783203125,0.2679443359375,0.0750732421875
1.035,304,853,642,322,-0.7708740234375,0.2305908203125,0.0799560546875
1.076,302,1170,682,323,-0.7677001953125,0.2442626953125,0.099365234375
1.076,300,1331,673,324,-0.7701416015625,0.2835693359375,0.1376953125
1.077,302,1540,679,328,-0.781005859375,0.31494140625,0.1724853515625
1.080,302,2000,710,336,-0.793212890625,0.312255859375,0.1783447265625
1.088,300,2257,702,338,-0.7908935546875,0.265869140625,0.1448974609375
1.097,302,2505,706,344,-0.778564453125,0.2130126953125,0.07763671875
1.113,302,3137,710,346,-0.769775390625,0.204833984375,0.0218505859375
1.118,302,3147,735,548,-0.7540283203125,0.253173828125,0.002685546875
1.125,302,3147,739,869,-0.711181640625,0.2984619140625,0.01025390625
1.139,296,3147,689,1380,-0.6275634765625,0.2760009765625,0.01904296875
1.181,294,3147,721,1735,-0.447265625,0.16552734375,0.046630859375
1.182,298,3147,766,1925,-0.153076171875,-0.0123291015625,0.0789794921875
1.182,300,3147,840,2249,0.09423828125,-0.0616455078125,0.091064453125
1.182,299,3147,834,2456,0.0843505859375,0.1607666015625,0.1708984375
1.185,300,3147,951,2736,-0.2821044921875,0.640380859375,0.2611083984375
1.201,302,3147,1095,3059,-0.9114990234375,1.1585693359375,0.1546630859375
1.208,302,3147,1160,3147,-1.5042724609375,1.452880859375,-0.0894775390625
1.221,304,3147,1278,3147,-1.840576171875,1.521240234375,-0.207763671875
1.230,299,3147,1315,3147,-2.04541015625,1.2584228515625,-0.1304931640625
1.237,304,3147,1280,3147,-2.3096923828125,0.6541748046875,-0.0118408203125
1.245,304,3147,1280,3147,-2.3787841796875,-0.13525390625,0.0528564453125
1.263,302,3147,1294,3147,-1.949462890625,-0.8067626953125,0.137939453125
1.282,304,3147,1316,3147,-1.410888671875,-0.5794677734375,0.2607421875
1.282,302,3147,1317,3147,-1.2646484375,0.424560546875,0.3193359375
1.289,302,3147,1267,3147,-1.417236328125,0.9896240234375,0.239501953125
1.298,302,3147,1233,3147,-1.5379638671875,0.828125,0.10498046875
1.305,304,3147,1222,3147,-1.4974365234375,0.5406494140625,0.0526123046875
1.319,300,3147,1107,2886,-1.354248046875,0.3931884765625,0.0628662109375
1.334,302,3147,1091,2647,-1.1781005859375,0.2679443359375,0.0670166015625
1.336,299,3147,1050,2419,-0.9998779296875,0.05419921875,0.072509765625
1.349,299,3147,944,2018,-0.83984375,-0.15185546875,0.07861328125
1.360,300,3147,900,1765,-0.7249755859375,-0.203125,0.063720703125
1.385,300,3147,853,1533,-0.6531982421875,-0.0703125,0.0594482421875
1.386,300,3147,834,966,-0.60302734375,0.2313232421875,0.046142578125
1.388,300,3147,800,572,-0.5577392578125,0.5814208984375,-0.06982421875
1.398,302,3064,799,348,-0.530029296875,0.8648681640625,-0.2244873046875
1.410,301,2246,757,336,-0.514404296875,1.0245361328125,-0.2685546875
1.417,300,1874,732,334,-0.5072021484375,1.00341796875,-0.2125244140625
1.426,300,1580,695,333,-0.529541015625,0.8173828125,-0.1427001953125
1.439,296,1067,658,328,-0.572021484375,0.5782470703125,-0.08154296875
1.447,300,830,639,325,-0.6187744140625,0.3895263671875,-0.013916015625
1.462,299,773,592,324,-0.604248046875,0.25341796875,0.065673828125
1.489,299,761,577,326,-0.595458984375,0.1732177734375,0.09130859375
1.489,300,750,593,325,-0.6732177734375,0.174560546875,0.0882568359375
1.489,300,738,601,324,-0.7587890625,0.2227783203125,0.1302490234375
1.501,299,751,625,326,-0.8150634765625,0.27099609375,0.1580810546875
1.507,300,748,625,324,-0.84814453125,0.304443359375,0.1575927734375
1.517,301,748,631,324,-0.84814453125,0.304443359375,0.1575927734375
1.529,299,788,661,324,-0.8851318359375,0.2672119140625,0.1959228515625
1.537,302,848,673,327,-0.8980712890625,0.2266845703125,0.1707763671875
1.546,300,906,669,321,-0.8980712890625,0.2266845703125,0.1707763671875
1.567,301,1097,696,327,-0.903076171875,0.2423095703125,0.0064697265625
1.568,300,1217,684,330,-0.89990234375,0.2945556640625,-0.0621337890625
1.592,301,1399,731,330,-0.89990234375,0.2945556640625,-0.0621337890625
1.592,301,1739,710,334,-0.8922119140625,0.4005126953125,-0.10888671875
1.598,300,1941,721,332,-0.8868408203125,0.4251708984375,-0.0916748046875
1.606,302,2093,720,333,-0.8868408203125,0.4251708984375,-0.0916748046875
1.619,304,2379,740,334,-0.871337890625,0.4383544921875,-0.0360107421875
1.628,300,2494,750,344,-0.8592529296875,0.426025390625,-0.0076904296875
1.636,300,2648,759,346,-0.8592529296875,0.426025390625,-0.0076904296875
1.649,300,3017,739,345,-0.82861328125,0.3583984375,0.039794921875
1.665,300,3147,725,351,-0.795166015625,0.292236328125,0.0335693359375
1.672,294,3147,713,548,-0.795166015625,0.292236328125,0.0335693359375
1.692,300,3147,683,1004,-0.637451171875,0.19140625,0.01611328125
1.693,294,3147,683,1318,-0.5084228515625,0.1688232421875,0.0179443359375
1.699,298,3147,720,1642,-0.5084228515625,0.1688232421875,0.0179443359375
1.711,298,3147,763,2087,-0.057861328125,0.080322265625,0.085205078125
1.719,296,3147,788,2308,0.21435546875,0.198486328125,0.151611328125
1.726,298,3147,842,2497,0.21435546875,0.198486328125,0.151611328125
1.740,299,3147,973,2937,-0.1005859375,0.721435546875,0.2642822265625
1.748,300,3147,1043,3110,-0.1005859375,0.721435546875,0.2642822265625
1.756,300,3147,1097,3147,-0.7403564453125,0.96728515625,0.0733642578125
1.769,301,3147,1204,3147,-1.69677734375,1.3685302734375,-0.2154541015625
1.786,304,3147,1236,3147,-1.69677734375,1.3685302734375,-0.2154541015625
1.786,306,3147,1336,3147,-1.9771728515625,1.1561279296875,-0.1409912109375
1.802,304,3147,1357,3147,-2.509765625,0.0797119140625,0.0701904296875
1.808,306,3147,1377,3147,-2.509765625,0.0797119140625,0.0701904296875
1.818,304,3147,1369,3147,-2.209228515625,-0.490966796875,0.0916748046875
1.830,304,3147,1323,3147,-1.07470703125,-0.28369140625,0.2779541015625
1.838,302,3147,1343,3147,-1.07470703125,-0.28369140625,0.2779541015625
1.846,306,3147,1336,3147,-1.0675048828125,0.7841796875,0.2833251953125
1.859,304,3147,1225,3147,-1.558837890625,1.0682373046875,0.061279296875
1.871,302,3147,1202,3147,-1.558837890625,1.0682373046875,0.061279296875
1.876,298,3147,1166,3147,-1.526611328125,0.5147705078125,0.0748291015625
1.910,301,3147,1156,3147,-1.2054443359375,-0.0399169921875,0.216796875
1.911,300,3147,1122,3147,-1.2054443359375,-0.0399169921875,0.216796875
1.911,302,3147,1108,3121,-1.0972900390625,-0.0133056640625,0.2237548828125
1.921,302,3147,1037,2763,-0.8812255859375,0.1910400390625,0.1741943359375
1.929,302,3147,1026,2492,-0.8812255859375,0.1910400390625,0.1741943359375
1.936,301,3147,999,2266,-0.7587890625,0.2288818359375,0.097900390625
1.950,300,3147,918,1823,-0.6422119140625,0.1256103515625,0.0389404296875
1.957,302,3147,882,1572,-0.536865234375,0.006103515625,0.01708984375
1.975,299,3147,808,1343,-0.4715576171875,0.0462646484375,-0.02197265625
1.980,300,3147,725,978,-0.471435546875,0.2467041015625,-0.1011962890625
2.017,300,3147,667,765,-0.521484375,0.51123046875,-0.1512451171875
2.018,296,3147,658,555,-0.565185546875,0.731689453125,-0.1070556640625
2.018,299,3147,619,414,-0.5887451171875,0.798095703125,-0.024169921875
2.018,296,3147,644,348,-0.6180419921875,0.692138671875,0.008056640625
2.026,298,3146,667,390,-0.662353515625,0.5234375,-0.0126953125
2.040,292,3131,675,371,-0.7227783203125,0.404296875,-0.0296630859375
2.048,296,3084,682,385,-0.77734375,0.3507080078125,-0.0164794921875
2.056,299,3063,684,383,-0.804443359375,0.33447265625,0.015625
2.077,296,3107,697,371,-0.8082275390625,0.327880859375,0.05712890625
2.078,299,3147,715,359,-0.8033447265625,0.328125,0.1004638671875
2.103,300,3147,708,399,-0.8048095703125,0.341796875,0.125732421875
2.103,299,3147,714,446,-0.825439453125,0.3607177734375,0.1126708984375
2.126,299,3147,720,526,-0.8580322265625,0.3668212890625,0.0701904296875
2.126,298,3147,735,575,-0.8846435546875,0.34912109375,0.0225830078125
2.130,299,3147,735,675,-0.9000244140625,0.3248291015625,-0.01123046875
2.138,299,3147,739,746,-0.9056396484375,0.3216552734375,-0.02490234375
2.146,299,3147,737,793,-0.899658203125,0.34375,-0.0218505859375
2.160,299,3147,711,918,-0.87841796875,0.3682861328125,-0.0003662109375
2.168,296,3147,725,996,-0.8394775390625,0.37158203125,0.0362548828125
2.177,299,3147,723,1098,-0.793212890625,0.3558349609375,0.06640625
2.206,299,3147,725,1294,-0.7540283203125,0.3463134765625,0.0906982421875
2.206,299,3147,733,1397,-0.7213134765625,0.3670654296875,0.130615234375
2.206,300,3147,706,1514,-0.6917724609375,0.387939453125,0.1690673828125
2.223,289,3147,687,1774,-0.653564453125,0.3282470703125,0.153564453125
2.228,294,3147,687,2012,-0.59521484375,0.181396484375,0.0811767578125
2.235,298,3147,659,2230,-0.4949951171875,0.0491943359375,0.052490234375
2.250,299,3147,647,2593,-0.3509521484375,0.011962890625,0.0885009765625
2.258,298,3147,695,2843,-0.1746826171875,0.0484619140625,0.1082763671875
2.266,296,3147,736,3147,-0.012939453125,0.1241455078125,0.1217041015625
2.280,298,3147,772,3147,-0.0196533203125,0.3504638671875,0.1494140625
2.288,299,3147,808,3147,-0.4188232421875,0.67333984375,-0.0328369140625
2.309,299,3147,823,3147,-1.1270751953125,0.783935546875,-0.428466796875
2.310,290,3147,944,3147,-1.658447265625,0.5887451171875,-0.6177978515625
2.320,299,3147,959,3147,-1.79931640625,0.4195556640625,-0.4736328125
2.329,292,3147,998,3147,-1.78564453125,0.5517578125,-0.2030029296875
2.340,301,3147,999,3147,-1.8370361328125,0.843994140625,0.089111328125
2.348,300,3147,938,3147,-1.9423828125,1.05859375,0.388671875
2.356,298,3147,936,3147,-1.875244140625,0.800537109375,0.60888671875
2.370,300,3147,925,3147,-1.422119140625,0.044921875,0.6680908203125
2.385,296,3147,963,3147,-0.8826904296875,-0.23046875,0.6043701171875
2.386,289,3147,996,3147,-0.760986328125,0.393798828125,0.468994140625
2.411,302,3147,933,3147,-1.0438232421875,0.9908447265625,0.2353515625
2.412,298,3147,890,3147,-1.3514404296875,1.0230712890625,0.0081787109375
2.416,299,3147,946,3147,-1.4669189453125,0.8173828125,-0.08154296875
2.435,298,3147,920,3147,-1.4375,0.64892578125,-0.0732421875
2.438,299,3147,900,3147,-1.366943359375,0.551025390625,-0.0234375
2.446,300,3147,905,3147,-1.302001953125,0.490478515625,0.0625
2.461,299,3147,827,3147,-1.2313232421875,0.4359130859375,0.13623046875
2.468,300,3147,808,3147,-1.12939453125,0.369384765625,0.146484375
2.476,300,3147,826,3147,-0.9942626953125,0.3035888671875,0.127197265625
2.489,296,3147,790,3078,-0.8487548828125,0.236328125,0.1126708984375
2.498,300,3147,774,2810,-0.7261962890625,0.124267578125,0.0841064453125
2.510,298,3147,748,2514,-0.648681640625,0.0135498046875,0.044189453125
2.519,299,3147,683,1934,-0.6063232421875,0.0042724609375,0.0242919921875
2.528,298,3147,649,1604,-0.5858154296875,0.09423828125,0.0048828125
2.542,299,3147,648,1223,-0.58056640625,0.2183837890625,-0.0379638671875
2.550,296,3147,621,600,-0.583251953125,0.3670654296875,-0.0673828125
2.558,299,3147,592,378,-0.59130859375,0.5394287109375,-0.05224609375
2.566,299,2769,572,372,-0.6048583984375,0.6431884765625,-0.0169677734375
2.587,292,1835,568,346,-0.6182861328125,0.6142578125,-0.0091552734375
2.588,299,1545,573,349,-0.6318359375,0.5247802734375,-0.0257568359375
2.595,294,1516,548,354,-0.6470947265625,0.450439453125,-0.0068359375
2.613,296,1476,576,344,-0.657958984375,0.4041748046875,0.0772705078125
2.618,299,1580,591,356,-0.67578125,0.396240234375,0.1737060546875
2.627,296,1640,598,356,-0.67578125,0.396240234375,0.1737060546875
2.640,296,1715,593,349,-0.7755126953125,0.4129638671875,0.192138671875
2.648,298,1798,607,359,-0.834228515625,0.3709716796875,0.1343994140625
2.655,298,1852,625,361,-0.834228515625,0.3709716796875,0.1343994140625
2.669,296,2048,605,359,-0.8992919921875,0.3052978515625,0.04443359375
2.678,296,2192,633,371,-0.9022216796875,0.3045654296875,0.019287109375
2.691,299,2284,642,371,-0.9022216796875,0.3045654296875,0.019287109375
2.699,299,2486,648,356,-0.868408203125,0.2720947265625,0.0037841796875
2.718,299,2598,658,373,-0.8406982421875,0.2685546875,0.0130615234375
2.719,299,2781,661,363,-0.8406982421875,0.2685546875,0.0130615234375
2.730,299,3025,673,360,-0.8250732421875,0.3179931640625,0.047119140625
2.738,300,3147,691,376,-0.8345947265625,0.3743896484375,0.087158203125
2.753,300,3147,702,416,-0.8345947265625,0.3743896484375,0.087158203125
2.760,300,3147,702,675,-0.7777099609375,0.401611328125,0.150146484375
2.768,300,3147,707,840,-0.7310791015625,0.3370361328125,0.1124267578125
2.776,299,3147,721,1034,-0.7310791015625,0.3370361328125,0.1124267578125
2.799,298,3147,759,1318,-0.69189453125,0.2252197265625,0.0013427734375
2.799,299,3147,767,1487,-0.6466064453125,0.2047119140625,0.018310546875
2.806,300,3147,806,1735,-0.6466064453125,0.2047119140625,0.018310546875
2.827,299,3147,803,2110,-0.425537109375,0.1241455078125,0.1395263671875
2.828,299,3147,826,2268,-0.282470703125,0.0390625,0.1962890625
2.852,299,3147,853,2489,-0.282470703125,0.0390625,0.1962890625
2.853,299,3147,912,2978,-0.2139892578125,0.075439453125,0.162109375
2.862,302,3147,947,3147,-0.4222412109375,0.357177734375,-0.032470703125
2.866,292,3147,987,3147,-0.4222412109375,0.357177734375,-0.032470703125
2.879,302,3147,1083,3147,-1.117431640625,0.89599609375,-0.5074462890625
2.894,302,3147,1085,3147,-1.117431640625,0.89599609375,-0.5074462890625
2.897,302,3147,1103,3147,-1.3828125,0.88232421875,-0.449462890625
2.919,304,3147,1206,3147,-1.9483642578125,0.7197265625,0.0440673828125
2.920,304,3147,1216,3147,-1.9483642578125,0.7197265625,0.0440673828125
2.926,304,3147,1209,3147,-2.2039794921875,0.730712890625,0.28662109375
2.940,302,3147,1112,3147,-1.9013671875,0.024658203125,0.4796142578125
2.948,302,3147,1125,3147,-1.9013671875,0.024658203125,0.4796142578125
2.956,304,3147,1159,3147,-1.2801513671875,-0.3739013671875,0.518310546875
2.969,302,3147,1160,3147,-1.2210693359375,0.736328125,0.405029296875
2.978,302,3147,1125,3147,-1.2210693359375,0.736328125,0.405029296875
2.986,304,3147,1093,3147,-1.568603515625,0.8489990234375,0.1754150390625
2.999,302,3147,1067,3147,-1.5308837890625,0.5399169921875,0.0531005859375
3.030,304,3147,1065,3147,-1.5308837890625,0.5399169921875,0.0531005859375
3.037,300,3147,1054,3147,-1.3316650390625,0.5313720703125,0.1153564453125
3.052,301,3147,964,3147,-1.0914306640625,0.2767333984375,0.12060546875
3.052,302,3147,939,3147,-1.0914306640625,0.2767333984375,0.12060546875
3.053,300,3147,907,3133,-1.0069580078125,0.1614990234375,0.0977783203125
3.060,302,3147,912,2627,-0.7601318359375,0.0750732421875,0.0447998046875
3.076,301,3147,934,2293,-0.7601318359375,0.0750732421875,0.0447998046875
3.076,304,3147,922,1959,-0.6466064453125,0.00146484375,0.0072021484375
3.090,300,3147,891,1499,-0.5709228515625,-0.066162109375,0.02685546875
3.099,302,3147,883,1143,-0.5411376953125,-0.0521240234375,0.042236328125
3.106,300,3147,849,811,-0.5418701171875,0.05126953125,-0.0172119140625
3.127,299,3147,799,383,-0.548583984375,0.2213134765625,-0.0943603515625
3.128,299,2991,757,373,-0.56201171875,0.424072265625,-0.08740234375
3.137,299,2676,758,388,-0.5853271484375,0.5648193359375,0.004150390625
3.151,299,1914,726,359,-0.609619140625,0.5604248046875,0.084228515625
3.158,296,1569,738,360,-0.6456298828125,0.4674072265625,0.090576171875
3.166,298,1490,731,363,-0.6873779296875,0.386474609375,0.082275390625
3.180,299,1584,750,351,-0.70263671875,0.316162109375,0.1168212890625
3.188,300,1733,769,364,-0.7052001953125,0.2459716796875,0.1552734375
3.201,299,1840,774,370,-0.7322998046875,0.2186279296875,0.16357421875
3.210,300,2119,811,360,-0.7913818359375,0.2373046875,0.1400146484375
3.228,298,2279,829,378,-0.8603515625,0.2646484375,0.0975341796875
3.228,299,2361,833,384,-0.909912109375,0.2784423828125,0.0565185546875
3.250,300,2561,846,371,-0.927978515625,0.275390625,0.0260009765625
3.251,300,2677,871,388,-0.921630859375,0.25537109375,0.0064697265625
3.257,300,2785,894,391,-0.906005859375,0.2327880859375,-0.0006103515625
3.270,300,3022,891,376,-0.89794921875,0.2376708984375,0.0078125
3.278,300,3115,917,396,-0.89697265625,0.271240234375,0.0228271484375
3.289,301,3147,920,409,-0.8900146484375,0.3013916015625,0.0311279296875
3.304,302,3147,933,548,-0.8680419921875,0.3126220703125,0.0367431640625
3.308,294,3147,947,682,-0.82958984375,0.3157958984375,0.0506591796875
3.317,302,3147,963,799,-0.7913818359375,0.31298828125,0.0635986328125
3.331,302,3147,963,1103,-0.771240234375,0.3056640625,0.0557861328125
3.338,302,3147,991,1241,-0.7591552734375,0.2965087890625,0.0303955078125
3.346,301,3147,996,1393,-0.7408447265625,0.267822265625,0.018798828125
3.362,304,3147,968,1715,-0.6871337890625,0.220947265625,0.0458984375
3.368,302,3147,986,1970,-0.56005859375,0.169921875,0.1072998046875
3.376,301,3147,975,2197,-0.3802490234375,0.099609375,0.171630859375
3.396,302,3147,996,2587,-0.2098388671875,0.00048828125,0.187255859375
3.398,304,3147,1041,2828,-0.1376953125,-0.06640625,0.1339111328125
3.406,304,3147,1111,3035,-0.1929931640625,0.0321044921875,0.059326171875
3.422,306,3147,1224,3147,-0.3651123046875,0.3109130859375,0.020751953125
3.435,304,3147,1271,3147,-0.6485595703125,0.6678466796875,0.07666015625
3.436,308,3147,1343,3147,-1.031494140625,0.94580078125,0.1483154296875
3.453,310,3147,1450,3147,-1.5308837890625,0.889404296875,0.087646484375
3.459,308,3147,1494,3147,-1.995361328125,0.5830078125,-0.03662109375
3.466,307,3147,1524,3147,-2.29345703125,0.3226318359375,-0.0272216796875
3.479,308,3147,1498,3147,-2.4346923828125,0.2066650390625,0.1260986328125
3.488,308,3147,1453,3147,-2.2813720703125,0.126220703125,0.242919921875
3.500,307,3147,1422,3147,-1.6934814453125,-0.1339111328125,0.3084716796875
3.510,308,3147,1468,3147,-1.0230712890625,-0.1864013671875,0.4337158203125
3.518,306,3147,1490,3147,-0.8470458984375,0.3795166015625,0.4913330078125
3.535,308,3147,1499,3147,-1.152587890625,0.9185791015625,0.3282470703125
3.540,308,3147,1488,3147,-1.4757080078125,0.8597412109375,0.10009765625
3.549,306,3147,1483,3147,-1.557373046875,0.5889892578125,0.01611328125
3.557,308,3147,1455,3147,-1.453125,0.51318359375,0.0599365234375
3.570,307,3147,1390,3147,-1.3001708984375,0.5164794921875,0.1044921875
3.578,306,3147,1348,3147,-1.191162109375,0.4212646484375,0.1097412109375
3.587,308,3147,1310,3147,-1.1497802734375,0.251708984375,0.1112060546875
3.614,304,3147,1184,3147,-1.120361328125,0.1285400390625,0.1168212890625
3.614,305,3147,1123,3039,-1.038818359375,0.123046875,0.10986328125
3.616,304,3147,1054,2741,-0.900634765625,0.146484375,0.099609375
3.643,304,3147,1018,2260,-0.746826171875,0.08349609375,0.078369140625
3.643,304,3147,999,1945,-0.6275634765625,-0.0537109375,0.07275390625
3.646,304,3147,989,1704,-0.564208984375,-0.1514892578125,0.1063232421875
3.661,302,3147,906,1229,-0.55517578125,-0.1173095703125,0.115966796875
3.668,300,3147,844,905,-0.5743408203125,0.0234375,0.0313720703125
3.676,304,3147,834,642,-0.609130859375,0.20166015625,-0.0848388671875
3.690,300,3133,767,371,-0.6485595703125,0.37548828125,-0.101806640625
3.700,300,2559,766,385,-0.69140625,0.50634765625,-0.0335693359375
3.720,299,2117,750,371,-0.72412109375,0.5604248046875,0.02392578125
3.720,300,1595,725,351,-0.7276611328125,0.5390625,0.0316162109375
3.738,296,1531,683,359,-0.7266845703125,0.4747314453125,0.021240234375
3.739,299,1306,679,351,-0.724853515625,0.4013671875,0.03955078125
3.750,298,1263,671,355,-0.721923828125,0.360595703125,0.090576171875
3.759,299,1282,678,354,-0.748291015625,0.396484375,0.15234375
3.766,299,1306,678,356,-0.748291015625,0.396484375,0.15234375
3.780,299,1348,692,348,-0.8193359375,0.4622802734375,0.1788330078125
3.788,299,1400,711,359,-0.8363037109375,0.38330078125,0.1185302734375
3.796,299,1492,746,360,-0.8363037109375,0.38330078125,0.1185302734375
3.820,299,1643,775,351,-0.866943359375,0.2850341796875,0.0491943359375
3.820,299,1772,794,362,-0.8695068359375,0.27197265625,0.033935546875
3.826,299,1934,808,369,-0.8695068359375,0.27197265625,0.033935546875
3.844,300,2153,815,360,-0.8516845703125,0.248291015625,-0.013427734375
3.849,300,2328,834,382,-0.8377685546875,0.2445068359375,-0.0186767578125
3.856,301,2494,855,382,-0.8377685546875,0.2445068359375,-0.0186767578125
3.871,300,2879,858,371,-0.793212890625,0.2044677734375,-0.0093994140625
3.878,300,3107,888,401,-0.771484375,0.1917724609375,0.010498046875
3.886,301,3147,890,464,-0.771484375,0.1917724609375,0.010498046875
3.900,300,3147,887,767,-0.693603515625,0.1839599609375,0.022216796875
3.909,302,3147,869,1014,-0.6485595703125,0.16357421875,0.0006103515625
3.948,302,3147,888,1215,-0.6485595703125,0.16357421875,0.0006103515625
3.948,304,3147,910,1610,-0.457763671875,0.1441650390625,0.03662109375
3.949,300,3147,905,1877,-0.307373046875,0.0921630859375,0.0633544921875
3.950,302,3147,922,2104,-0.307373046875,0.0921630859375,0.0633544921875
3.960,300,3147,938,2456,-0.1802978515625,-0.03466796875,0.11865234375
3.969,302,3147,1003,2673,-0.285400390625,0.1480712890625,0.2254638671875
3.976,306,3147,1026,2955,-0.285400390625,0.1480712890625,0.2254638671875
3.990,306,3147,1172,3147,-0.8660888671875,0.7252197265625,0.313720703125
3.998,306,3147,1276,3147,-0.8660888671875,0.7252197265625,0.313720703125
4.006,306,3147,1318,3147,-1.263916015625,0.9232177734375,0.203857421875
4.020,306,3147,1496,3147,-2.158447265625,0.81201171875,0.0164794921875
4.049,310,3147,1543,3147,-2.158447265625,0.81201171875,0.0164794921875
4.050,315,3147,1492,3147,-2.535888671875,0.4754638671875,-0.0234375
4.052,294,3147,1411,3147,-2.0501708984375,-0.227294921875,0.219482421875
4.058,306,3147,1411,3147,-2.0501708984375,-0.227294921875,0.219482421875
4.066,301,3147,1441,3147,-1.224609375,-0.252685546875,0.3807373046875
4.080,306,3147,1452,3147,-1.1005859375,1.141845703125,0.322509765625
4.088,308,3147,1467,3147,-1.1005859375,1.141845703125,0.322509765625
4.096,310,3147,1474,3147,-1.557373046875,1.0718994140625,0.072021484375
4.110,308,3147,1444,3147,-1.57373046875,0.364990234375,0.0430908203125
4.123,307,3147,1395,3147,-1.57373046875,0.364990234375,0.0430908203125
4.126,308,3147,1290,3147,-1.338134765625,0.3670654296875,0.1055908203125
4.154,304,3147,1104,3147,-1.012451171875,0.222412109375,0.1566162109375
4.154,304,3147,1063,3034,-1.012451171875,0.222412109375,0.1566162109375
4.156,302,3147,1018,2769,-0.915771484375,0.156982421875,0.1859130859375
4.171,304,3147,958,2312,-0.716552734375,0.084716796875,0.13525390625
4.178,302,3147,963,2024,-0.716552734375,0.084716796875,0.13525390625
4.186,302,3147,963,1683,-0.6363525390625,-0.02294921875,0.083251953125
4.200,302,3147,944,1260,-0.594482421875,-0.0794677734375,0.0692138671875
4.208,302,3147,939,978,-0.5965576171875,-0.0377197265625,0.0904541015625
4.217,302,3147,918,818,-0.6163330078125,0.0911865234375,0.0960693359375
4.230,304,3147,829,482,-0.632080078125,0.2425537109375,0.0362548828125
4.256,300,3147,816,389,-0.641357421875,0.3568115234375,-0.0516357421875
4.263,300,3118,790,344,-0.6361083984375,0.4288330078125,-0.0849609375
4.263,304,2921,736,348,-0.63720703125,0.4564208984375,-0.0562744140625
4.270,301,2788,713,370,-0.66552734375,0.43994140625,-0.0057373046875
4.276,302,2652,734,361,-0.7034912109375,0.408935546875,0.0281982421875
4.291,299,2458,694,354,-0.737548828125,0.3892822265625,0.0408935546875
4.298,300,2445,733,369,-0.758544921875,0.3885498046875,0.06640625
4.306,299,2494,732,371,-0.762939453125,0.4049072265625,0.1199951171875
4.320,300,2647,739,363,-0.7698974609375,0.4219970703125,0.168212890625
4.330,300,2741,757,378,-0.7987060546875,0.417724609375,0.170654296875
4.336,300,2809,767,387,-0.8511962890625,0.38671875,0.12548828125
4.359,300,2948,785,371,-0.907958984375,0.34326171875,0.0684814453125
4.359,299,3020,800,376,-0.947021484375,0.306396484375,0.02392578125
4.368,300,3058,815,391,-0.9591064453125,0.2880859375,-0.00439453125
4.380,300,3128,826,378,-0.944580078125,0.2843017578125,-0.0142822265625
4.388,300,3147,842,404,-0.914794921875,0.279541015625,-0.005126953125
4.396,301,3147,846,411,-0.8839111328125,0.2655029296875,0.013916015625
4.410,300,3147,853,455,-0.8631591796875,0.258056640625,0.0306396484375
4.418,300,3147,865,521,-0.85546875,0.265869140625,0.040283203125
4.432,300,3147,873,628,-0.8564453125,0.2718505859375,0.0347900390625
4.442,302,3147,871,803,-0.857177734375,0.259033203125,0.013671875
4.462,302,3147,853,913,-0.8424072265625,0.2310791015625,-0.0118408203125
4.463,300,3147,841,1055,-0.8023681640625,0.209228515625,-0.0269775390625
4.470,300,3147,860,1351,-0.72900390625,0.199951171875,-0.017578125
4.489,300,3147,859,1490,-0.623779296875,0.189208984375,0.010986328125
4.489,300,3147,853,1640,-0.4832763671875,0.1678466796875,0.042236328125
4.505,302,3147,879,2009,-0.296875,0.1116943359375,0.0474853515625
4.534,302,3147,936,2249,-0.125,0.00732421875,0.025146484375
4.534,293,3147,977,2503,-0.054443359375,-0.0491943359375,0.0596923828125
4.535,304,3147,1091,2944,-0.126953125,0.0311279296875,0.19677734375
4.541,304,3147,1148,3147,-0.344482421875,0.22509765625,0.3564453125
4.566,305,3147,1204,3147,-0.6680908203125,0.52685546875,0.429443359375
4.583,302,3147,1260,3147,-1.0228271484375,0.9150390625,0.3807373046875
4.584,305,3147,1328,3147,-1.335693359375,1.2369384765625,0.2674560546875
4.584,308,3147,1428,3147,-1.610595703125,1.252197265625,0.2265625
4.591,309,3147,1529,3147,-1.95556640625,0.8349609375,0.31298828125
4.608,310,3147,1569,3147,-2.3690185546875,0.318603515625,0.3201904296875
4.608,308,3147,1497,3147,-2.524169921875,0.0458984375,0.161865234375
4.620,309,3147,1531,3147,-2.0714111328125,-0.1898193359375,0.0078125
4.635,310,3147,1564,3147,-1.3345947265625,-0.207763671875,0.1080322265625
4.636,310,3147,1577,3147,-1.075927734375,0.370849609375,0.327880859375
4.662,310,3147,1536,3147,-1.362548828125,0.8931884765625,0.313232421875
4.662,309,3147,1516,3147,-1.6544189453125,0.77099609375,0.15234375
4.672,308,3147,1514,3147,-1.6688232421875,0.4461669921875,0.07763671875
4.680,307,3147,1441,3147,-1.493408203125,0.33154296875,0.1241455078125
4.688,310,3147,1373,3147,-1.284912109375,0.2972412109375,0.1837158203125
4.696,306,3147,1243,3147,-1.10546875,0.1981201171875,0.22314453125
4.714,304,3147,1116,2877,-0.9566650390625,0.0919189453125,0.26953125
4.718,304,3147,1067,2579,-0.84228515625,0.0462646484375,0.2742919921875
4.726,304,3147,1025,2312,-0.755859375,0.0137939453125,0.1937255859375
4.740,300,3147,986,1742,-0.6688232421875,-0.0489501953125,0.08544921875
4.762,305,3147,963,1509,-0.590576171875,-0.0906982421875,0.018310546875
4.767,292,3147,977,1156,-0.5504150390625,-0.046142578125,0.01171875
4.778,304,3147,837,694,-0.5343017578125,0.0794677734375,0.0107421875
4.779,302,3147,748,423,-0.534912109375,0.231201171875,-0.025146484375
4.787,298,2936,698,386,-0.5396728515625,0.3670654296875,-0.03076171875
4.800,298,1895,605,351,-0.5433349609375,0.460693359375,0.0091552734375
4.808,298,1504,555,360,-0.572509765625,0.5091552734375,0.0511474609375
4.816,292,1357,584,352,-0.6248779296875,0.5101318359375,0.09375
4.830,299,1229,617,344,-0.6771240234375,0.453125,0.130615234375
4.840,296,1183,627,351,-0.731689453125,0.38037109375,0.1324462890625
4.846,296,1222,645,348,-0.794677734375,0.3626708984375,0.1124267578125
4.869,298,1206,646,344,-0.8414306640625,0.3990478515625,0.1072998046875
4.869,296,1216,648,348,-0.8638916015625,0.440185546875,0.117919921875
4.876,299,1278,631,347,-0.869140625,0.448486328125,0.12890625
4.902,300,1255,630,346,-0.8638916015625,0.41162109375,0.12744140625
4.902,297,1340,656,356,-0.8565673828125,0.3477783203125,0.1123046875
4.925,296,1480,658,359,-0.8565673828125,0.3477783203125,0.1123046875
4.950,296,1695,669,360,-0.848876953125,0.2474365234375,0.0546875
4.950,300,1791,710,364,-0.85791015625,0.24462890625,0.0164794921875
4.950,300,1973,721,373,-0.85791015625,0.24462890625,0.0164794921875
4.960,299,2139,707,344,-0.869384765625,0.2818603515625,-0.03466796875
5.048,298,2308,777,385,-0.863037109375,0.28466796875,-0.0328369140625
5.052,300,2397,800,385,-0.863037109375,0.28466796875,-0.0328369140625
5.052,302,2576,834,385,-0.862548828125,0.3099365234375,0.013671875
5.052,299,2689,855,382,-0.8642578125,0.3350830078125,0.041748046875
5.052,300,2840,872,388,-0.8642578125,0.3350830078125,0.041748046875
5.052,302,3099,895,400,-0.8133544921875,0.2957763671875,0.0491943359375
5.053,302,3147,922,426,-0.7576904296875,0.234130859375,0.0372314453125
5.053,300,3147,910,555,-0.7576904296875,0.234130859375,0.0372314453125
5.053,304,3147,905,899,-0.62744140625,0.06982421875,0.0418701171875
5.053,302,3147,946,1120,-0.4739990234375,0.01318359375,0.0924072265625
5.104,300,3147,944,1365,-0.4739990234375,0.01318359375,0.0924072265625
5.106,302,3147,947,1796,-0.0023193359375,-0.1427001953125,0.13427734375
5.106,304,3147,958,2039,0.071044921875,-0.1729736328125,0.199462890625
5.106,304,3147,1050,2277,0.071044921875,-0.1729736328125,0.199462890625
5.106,305,3147,1209,2769,-0.449462890625,0.428955078125,0.4456787109375
5.108,307,3147,1260,3065,-0.9102783203125,0.8785400390625,0.32177734375
5.116,306,3147,1312,3147,-0.9102783203125,0.8785400390625,0.32177734375
5.130,304,3147,1382,3147,-1.641357421875,1.6351318359375,-0.14306640625
5.138,310,3147,1476,3147,-1.641357421875,1.6351318359375,-0.14306640625
5.148,311,3147,1598,3147,-2.078369140625,1.5557861328125,-0.2857666015625
5.176,309,3147,1516,3147,-2.7464599609375,-0.0111083984375,-0.0181884765625
5.177,310,3147,1523,3147,-2.7464599609375,-0.0111083984375,-0.0181884765625
5.177,313,3147,1492,3147,-2.09130859375,-0.8883056640625,0.115966796875
5.190,317,3147,1582,3147,-0.9581298828125,0.2415771484375,0.5947265625
5.204,313,3147,1569,3147,-0.9581298828125,0.2415771484375,0.5947265625
5.206,310,3147,1534,3147,-1.243896484375,1.0738525390625,0.4456787109375
5.220,310,3147,1464,3147,-1.6396484375,0.7110595703125,-0.013671875
5.228,308,3147,1434,3147,-1.6396484375,0.7110595703125,-0.013671875
5.236,309,3147,1357,3147,-1.4906005859375,0.495361328125,0.0174560546875
5.249,306,3147,1172,3130,-1.1185302734375,0.191162109375,0.1611328125
5.258,306,3147,1100,2899,-1.1185302734375,0.191162109375,0.1611328125
5.281,306,3147,1067,2597,-0.9873046875,0.12841796875,0.166015625
5.283,306,3147,986,2068,-0.76025390625,0.0958251953125,0.1116943359375
5.291,304,3147,966,1704,-0.76025390625,0.0958251953125,0.1116943359375
5.297,304,3147,951,1323,-0.6412353515625,-0.013916015625,0.1051025390625
5.311,304,3147,842,859,-0.5059814453125,0.0003662109375,0.096923828125
5.318,298,3147,808,630,-0.5059814453125,0.0003662109375,0.096923828125
5.326,301,3147,793,428,-0.522216796875,0.150390625,-0.005126953125
5.340,302,2887,746,373,-0.5782470703125,0.317626953125,-0.140625
5.352,299,2622,750,387,-0.6424560546875,0.4954833984375,-0.18994140625
5.356,296,2418,759,384,-0.6864013671875,0.664794921875,-0.1279296875
5.376,299,1960,718,359,-0.6976318359375,0.7283935546875,-0.0426025390625
5.392,299,1757,732,363,-0.6859130859375,0.6451416015625,-0.0135498046875
5.394,299,1584,725,363,-0.6800537109375,0.5137939453125,-0.0303955078125
5.400,299,1306,693,359,-0.705810546875,0.4251708984375,-0.029296875
5.408,295,1239,677,360,-0.75390625,0.381103515625,0.0096435546875
5.417,295,1206,673,347,-0.7938232421875,0.361572265625,0.073974609375
5.430,299,1157,666,346,-0.8074951171875,0.346923828125,0.1519775390625
5.438,294,1101,679,352,-0.8094482421875,0.3212890625,0.2115478515625
5.446,296,1155,689,353,-0.8292236328125,0.29638671875,0.219970703125
5.460,300,1176,706,346,-0.8597412109375,0.289794921875,0.1927490234375
5.468,299,1290,726,354,-0.87353515625,0.2843017578125,0.157958984375
5.482,299,1385,725,361,-0.8714599609375,0.255859375,0.1181640625
5.490,300,1580,758,346,-0.8629150390625,0.21435546875,0.070556640625
5.503,299,1689,763,370,-0.8519287109375,0.1756591796875,0.015380859375
5.506,300,1854,782,371,-0.846435546875,0.142578125,-0.0384521484375
5.525,300,2104,790,361,-0.839599609375,0.1248779296875,-0.0682373046875
5.528,301,2337,787,373,-0.8223876953125,0.13427734375,-0.064208984375
5.536,300,2514,803,387,-0.801513671875,0.166748046875,-0.0345458984375
5.557,300,3024,827,375,-0.787353515625,0.197509765625,0.0030517578125
5.558,300,3147,861,464,-0.7840576171875,0.203125,0.0206298828125
5.571,301,3147,885,642,-0.7860107421875,0.1884765625,0.0096435546875
5.585,304,3147,937,1003,-0.7833251953125,0.1942138671875,0.0042724609375
5.588,304,3147,947,1222,-0.7509765625,0.23876953125,0.032470703125
5.597,302,3147,957,1401,-0.6639404296875,0.278076171875,0.0460205078125
5.658,304,3147,992,1779,-0.515625,0.2525634765625,-0.0174560546875
5.658,304,3147,986,2028,-0.3465576171875,0.185546875,-0.153076171875
5.658,304,3147,986,2230,-0.2335205078125,0.1241455078125,-0.1895751953125
5.658,304,3147,1029,2624,-0.2313232421875,0.1048583984375,0.031982421875
5.658,306,3147,1101,2912,-0.3436279296875,0.19775390625,0.3634033203125
5.663,306,3147,1184,3147,-0.5565185546875,0.345458984375,0.5897216796875
5.686,306,3147,1306,3147,-0.8272705078125,0.48583984375,0.6142578125
5.695,310,3147,1340,3147,-1.0745849609375,0.73095703125,0.46435546875
5.695,310,3147,1430,3147,-1.27734375,1.042724609375,0.3272705078125
5.701,316,3147,1490,3147,-1.560302734375,1.0841064453125,0.240966796875
5.709,313,3147,1580,3147,-1.9967041015625,0.78466796875,0.089599609375
5.717,310,3147,1577,3147,-2.4476318359375,0.373779296875,-0.102783203125
5.728,310,3147,1533,3147,-2.5120849609375,-0.0838623046875,-0.221923828125
5.739,281,3147,1499,3147,-1.9053955078125,-0.5133056640625,-0.130859375
5.748,308,3147,1518,3147,-1.093017578125,-0.377197265625,0.177001953125
5.761,310,3147,1541,3147,-0.8548583984375,0.5013427734375,0.3878173828125
5.769,310,3147,1543,3147,-1.2303466796875,1.140869140625,0.3013916015625
5.777,309,3147,1531,3147,-1.628173828125,0.950927734375,0.1114501953125
5.797,308,3147,1523,3147,-1.71728515625,0.5125732421875,0.027099609375
5.799,308,3147,1468,3147,-1.5633544921875,0.34326171875,0.0638427734375
5.807,308,3147,1428,3147,-1.3453369140625,0.37841796875,0.13427734375
5.816,308,3147,1320,3147,-1.1817626953125,0.4107666015625,0.1793212890625
5.829,304,3147,1085,3140,-1.074951171875,0.3419189453125,0.1903076171875
5.848,302,3147,1004,2918,-0.9803466796875,0.19287109375,0.16552734375
5.848,300,3147,949,2627,-0.8719482421875,0.0484619140625,0.1226806640625
5.865,304,3147,905,2014,-0.7423095703125,-0.0345458984375,0.0909423828125
5.867,289,3147,934,1634,-0.6146240234375,-0.0703125,0.066650390625
5.890,302,3147,912,1386,-0.5257568359375,-0.0775146484375,0.0653076171875
5.892,302,3147,894,786,-0.4959716796875,-0.0272216796875,0.090576171875
5.897,300,3147,841,411,-0.514892578125,0.0919189453125,0.078125
5.906,301,2859,808,385,-0.544921875,0.2406005859375,0.0179443359375
5.920,298,2247,667,360,-0.56591796875,0.358642578125,-0.0205078125
5.928,300,1996,667,365,-0.5987548828125,0.4053955078125,-0.0040283203125
5.936,299,1730,621,360,-0.652587890625,0.393310546875,0.038818359375
5.955,298,1439,598,348,-0.70166015625,0.3551025390625,0.0633544921875
5.958,298,1367,588,359,-0.7325439453125,0.3125,0.06884765625
5.966,295,1336,600,356,-0.75048828125,0.2882080078125,0.0849609375
5.996,296,1411,590,347,-0.763916015625,0.3092041015625,0.111572265625
5.996,298,1506,607,354,-0.7811279296875,0.376953125,0.1337890625
5.997,299,1607,625,361,-0.8021240234375,0.4346923828125,0.14990234375
6.009,299,1785,687,354,-0.8287353515625,0.4261474609375,0.15625
6.019,299,1874,695,365,-0.865234375,0.3660888671875,0.1434326171875
6.027,299,1968,707,363,-0.865234375,0.3660888671875,0.1434326171875
6.039,299,2072,725,360,-0.9234619140625,0.26806640625,0.0592041015625
6.048,299,2142,754,374,-0.9222412109375,0.2618408203125,0.013427734375
6.056,299,2244,780,377,-0.9222412109375,0.2618408203125,0.013427734375
6.073,299,2435,793,364,-0.895751953125,0.3048095703125,-0.0128173828125
6.081,301,2530,827,386,-0.887451171875,0.3206787109375,-0.00927734375
6.092,300,2613,840,387,-0.887451171875,0.3206787109375,-0.00927734375
6.101,302,2843,858,371,-0.88232421875,0.3077392578125,0.0068359375
6.109,302,2984,872,391,-0.8902587890625,0.29150390625,0.018310546875
6.117,300,3076,869,401,-0.8902587890625,0.29150390625,0.018310546875
6.130,302,3147,853,428,-0.9150390625,0.295166015625,0.0438232421875
6.138,302,3147,856,553,-0.8895263671875,0.290771484375,0.0570068359375
6.146,302,3147,844,695,-0.8895263671875,0.290771484375,0.0570068359375
6.162,300,3147,794,957,-0.704833984375,0.1640625,0.0665283203125
6.178,299,3147,800,1183,-0.545654296875,0.0673828125,0.103759765625
6.179,299,3147,782,1399,-0.545654296875,0.0673828125,0.103759765625
6.197,300,3147,739,1803,-0.057373046875,-0.1390380859375,0.1522216796875
6.199,286,3147,761,2086,0.1644287109375,-0.2276611328125,0.1676025390625
6.207,300,3147,786,2295,0.1644287109375,-0.2276611328125,0.1676025390625
6.221,300,3147,1004,2769,-0.0167236328125,0.0726318359375,0.2122802734375
6.230,306,3147,1120,3093,-0.5439453125,0.5185546875,0.18017578125
6.237,305,3147,1188,3147,-0.5439453125,0.5185546875,0.18017578125
6.250,306,3147,1283,3147,-1.581787109375,1.6851806640625,0.09033203125
6.258,308,3147,1386,3147,-1.581787109375,1.6851806640625,0.09033203125
6.301,310,3147,1531,3147,-1.8221435546875,1.7723388671875,0.0386962890625
6.301,310,3147,1562,3147,-2.6204833984375,0.2481689453125,0.1571044921875
6.303,310,3147,1483,3147,-2.6204833984375,0.2481689453125,0.1571044921875
6.303,309,3147,1464,3147,-2.702392578125,-0.514404296875,0.1031494140625
6.317,310,3147,1527,3147,-1.144775390625,-0.493896484375,0.3037109375
6.321,310,3147,1498,3147,-1.144775390625,-0.493896484375,0.3037109375
6.327,310,3147,1534,3147,-0.8521728515625,0.521240234375,0.462646484375
6.340,307,3147,1490,3147,-1.4898681640625,0.814208984375,0.19091796875
6.348,305,3147,1481,3147,-1.4898681640625,0.814208984375,0.19091796875
6.359,308,3147,1463,3147,-1.5574951171875,0.363037109375,0.074462890625
6.382,306,3147,1375,3147,-1.2747802734375,0.333251953125,0.1470947265625
6.383,304,3147,1323,3147,-1.2747802734375,0.333251953125,0.1470947265625
6.405,306,3147,1262,3147,-1.1387939453125,0.3978271484375,0.209716796875
6.407,304,3147,1133,2981,-0.9464111328125,0.299072265625,0.2423095703125
6.409,296,3147,1097,2679,-0.9464111328125,0.299072265625,0.2423095703125
6.417,302,3147,1056,2386,-0.87255859375,0.1900634765625,0.1915283203125
6.426,300,3147,1029,2115,-0.8118896484375,0.0953369140625,0.136962890625
6.439,304,3147,986,1534,-0.745361328125,0.0146484375,0.1029052734375
6.447,302,3147,984,1260,-0.682861328125,-0.0526123046875,0.08740234375
6.455,302,3147,966,952,-0.64013671875,-0.0726318359375,0.0966796875
6.469,300,3147,888,493,-0.6160888671875,-0.0057373046875,0.097412109375
6.485,300,3085,843,400,-0.6121826171875,0.13623046875,0.0556640625
6.485,300,2800,809,390,-0.6119384765625,0.295654296875,0.0115966796875
6.506,299,2320,710,363,-0.611328125,0.411376953125,-0.008544921875
6.508,300,1904,693,364,-0.635498046875,0.4638671875,-0.0074462890625
6.519,299,1474,661,357,-0.6756591796875,0.4735107421875,0.0218505859375
6.530,300,1156,586,344,-0.706298828125,0.451904296875,0.052978515625
6.537,296,1134,588,356,-0.7249755859375,0.396484375,0.0723876953125
6.545,296,1096,568,348,-0.741455078125,0.332763671875,0.0926513671875
6.559,296,1163,582,346,-0.768798828125,0.3045654296875,0.1162109375
6.567,298,1211,590,349,-0.803466796875,0.3240966796875,0.1363525390625
6.605,299,1266,582,356,-0.8319091796875,0.35791015625,0.138916015625
6.605,296,1353,590,352,-0.843505859375,0.3594970703125,0.12060546875
6.608,295,1412,634,359,-0.8438720703125,0.330810546875,0.09326171875
6.608,299,1548,646,359,-0.8468017578125,0.3099365234375,0.07470703125
6.621,299,1840,723,359,-0.8538818359375,0.3056640625,0.0703125
6.629,299,1945,739,371,-0.858642578125,0.301025390625,0.0672607421875
6.636,299,2039,746,372,-0.8582763671875,0.2943115234375,0.0526123046875
6.649,300,2192,759,361,-0.849853515625,0.290283203125,0.034423828125
6.657,300,2316,784,378,-0.834716796875,0.28564453125,0.0260009765625
6.665,299,2456,790,387,-0.8232421875,0.2862548828125,0.0350341796875
6.684,300,2758,801,371,-0.8197021484375,0.296142578125,0.0545654296875
6.687,301,3010,834,401,-0.8157958984375,0.291015625,0.0693359375
6.710,302,3147,820,404,-0.7960205078125,0.2471923828125,0.0614013671875
6.711,302,3147,830,574,-0.762939453125,0.1846923828125,0.0252685546875
6.717,296,3147,895,806,-0.7138671875,0.1414794921875,0.0029296875
6.726,302,3147,897,1022,-0.62744140625,0.157470703125,0.03466796875
6.741,302,3147,996,1380,-0.4852294921875,0.20263671875,0.106689453125
6.747,306,3147,1065,1622,-0.30322265625,0.1697998046875,0.13134765625
6.755,309,3147,1157,1853,-0.170654296875,0.0106201171875,0.0455322265625
6.769,309,3147,1282,2277,-0.18359375,-0.156494140625,-0.0484619140625
6.777,306,3147,1348,2472,-0.358154296875,-0.1085205078125,-0.0264892578125
6.786,309,3147,1383,2679,-0.6116943359375,0.1927490234375,0.1143798828125
6.813,309,3147,1372,3099,-0.87646484375,0.648193359375,0.2830810546875
6.814,308,3147,1434,3147,-1.159423828125,1.2518310546875,0.375244140625
6.818,300,3147,1521,3147,-1.431396484375,1.770263671875,0.38916015625
6.837,313,3147,1641,3147,-1.7288818359375,1.6904296875,0.396728515625
6.841,310,3147,1604,3147,-2.1185302734375,1.0595703125,0.4007568359375
6.855,313,3147,1596,3147,-2.4019775390625,0.2269287109375,0.283203125
6.866,311,3147,1616,3147,-2.1597900390625,-0.720458984375,0.0355224609375
6.868,310,3147,1604,3147,-1.500732421875,-1.1370849609375,-0.0694580078125
6.878,313,3147,1642,3147,-1.1329345703125,-0.4102783203125,0.038330078125
6.890,313,3147,1627,3147,-1.2908935546875,0.7392578125,0.1224365234375
6.898,316,3147,1636,3147,-1.5787353515625,1.190673828125,0.1173095703125
6.916,310,3147,1610,3147,-1.6578369140625,0.9385986328125,0.1097412109375
6.920,312,3147,1582,3147,-1.53369140625,0.6363525390625,0.1439208984375
6.931,312,3147,1549,3147,-1.3619384765625,0.497802734375,0.175537109375
6.937,313,3147,1521,2996,-1.209716796875,0.3739013671875,0.176025390625
6.950,310,3147,1399,2517,-1.056396484375,0.2127685546875,0.1646728515625
6.958,310,3147,1353,2253,-0.882080078125,0.073974609375,0.1859130859375
6.969,308,3147,1241,1943,-0.6947021484375,-0.0185546875,0.2410888671875
6.980,304,3147,1186,1341,-0.5428466796875,-0.0357666015625,0.2474365234375
6.990,308,3147,1163,1132,-0.4715576171875,-0.002197265625,0.1876220703125
6.997,306,3147,1155,912,-0.474365234375,0.0458984375,0.1123046875
7.021,306,3147,1100,517,-0.520263671875,0.140380859375,0.0230712890625
7.021,306,3147,1043,401,-0.5599365234375,0.2911376953125,-0.0743408203125
7.026,305,3010,1010,360,-0.568603515625,0.4578857421875,-0.10498046875
7.041,304,2662,932,360,-0.5712890625,0.5855712890625,-0.043212890625
7.049,302,2479,891,372,-0.60205078125,0.622802734375,0.046142578125
7.056,302,2299,849,372,-0.6641845703125,0.555419921875,0.097412109375
7.070,302,2078,819,359,-0.719970703125,0.431884765625,0.1002197265625
7.080,300,1959,793,369,-0.753173828125,0.3231201171875,0.091064453125
7.093,301,1943,793,364,-0.775146484375,0.27978515625,0.1129150390625
7.100,301,2063,787,356,-0.79052734375,0.29296875,0.1646728515625
7.124,300,2135,780,369,-0.807373046875,0.317626953125,0.2012939453125
7.125,302,2190,782,373,-0.8338623046875,0.328857421875,0.1995849609375
7.130,302,2284,751,369,-0.8642578125,0.3258056640625,0.1728515625
7.139,300,2364,766,371,-0.8856201171875,0.3160400390625,0.13818359375
7.146,302,2478,793,361,-0.8983154296875,0.3048095703125,0.1043701171875
7.160,301,2593,799,363,-0.9049072265625,0.301513671875,0.0771484375
7.168,302,2713,787,364,-0.897216796875,0.3150634765625,0.058349609375
7.176,302,2820,780,382,-0.897216796875,0.3150634765625,0.058349609375
7.200,302,3017,766,371,-0.8485107421875,0.3514404296875,0.03173828125
7.200,302,3104,803,398,-0.8311767578125,0.35986328125,0.0213623046875
7.212,300,3147,827,390,-0.8311767578125,0.35986328125,0.0213623046875
7.228,304,3147,865,402,-0.8350830078125,0.396240234375,0.0252685546875
7.228,302,3147,913,487,-0.843505859375,0.4022216796875,0.0374755859375
7.237,304,3147,973,629,-0.843505859375,0.4022216796875,0.0374755859375
7.250,306,3147,1067,780,-0.8485107421875,0.3336181640625,0.0330810546875
7.258,304,3147,1093,909,-0.8280029296875,0.2945556640625,-0.0035400390625
7.266,308,3147,1095,1055,-0.8280029296875,0.2945556640625,-0.0035400390625
7.280,304,3147,1057,1289,-0.722900390625,0.3779296875,0.0548095703125
7.288,306,3147,1074,1450,-0.6060791015625,0.4111328125,0.1517333984375
7.297,304,3147,1078,1613,-0.6060791015625,0.4111328125,0.1517333984375
7.325,306,3147,1103,2084,-0.1663818359375,0.0792236328125,0.121826171875
7.325,293,3147,1155,2370,0.087158203125,-0.2203369140625,0.073486328125
7.336,290,3147,1198,2653,0.087158203125,-0.2203369140625,0.073486328125
7.345,308,3147,1323,3032,-0.0238037109375,-0.153076171875,0.1988525390625
7.349,306,3147,1370,3147,-0.0238037109375,-0.153076171875,0.1988525390625
7.357,308,3147,1434,3147,-0.4951171875,0.446533203125,0.323486328125
7.369,314,3147,1607,3147,-1.6309814453125,1.7064208984375,0.273681640625
7.377,314,3147,1627,3147,-1.6309814453125,1.7064208984375,0.273681640625
7.386,299,3147,1649,3147,-2.06787109375,1.64599609375,0.1669921875
7.401,315,3147,1615,3147,-2.6614990234375,0.2012939453125,-0.010498046875
7.407,313,3147,1575,3147,-2.6614990234375,0.2012939453125,-0.010498046875
7.427,313,3147,1550,3147,-2.252197265625,-0.56689453125,0.0003662109375
7.444,310,3147,1527,3147,-0.894775390625,-0.3316650390625,0.2454833984375
7.444,313,3147,1560,3147,-0.894775390625,-0.3316650390625,0.2454833984375
7.449,313,3147,1497,3147,-0.9873046875,0.8028564453125,0.253662109375
7.460,310,3147,1497,3147,-1.730224609375,1.0859375,0.0841064453125
7.468,310,3147,1471,3147,-1.730224609375,1.0859375,0.0841064453125
7.476,313,3147,1466,3147,-1.7044677734375,0.596923828125,0.0924072265625
7.490,310,3147,1411,3147,-1.259521484375,0.2935791015625,0.1983642578125
7.504,308,3147,1342,3035,-1.259521484375,0.2935791015625,0.1983642578125
7.506,306,3147,1289,2746,-1.059814453125,0.2174072265625,0.20263671875
7.533,308,3147,1173,2258,-0.7222900390625,0.076171875,0.1805419921875
7.534,308,3147,1170,1929,-0.7222900390625,0.076171875,0.1805419921875
7.536,307,3147,1107,1551,-0.5927734375,0.0966796875,0.18017578125
7.550,308,3147,1085,1151,-0.48681640625,0.121337890625,0.128662109375
7.558,308,3147,1070,846,-0.48681640625,0.121337890625,0.128662109375
7.566,306,3147,1025,654,-0.5079345703125,0.1484375,0.0911865234375
7.580,306,3147,874,361,-0.5576171875,0.399658203125,-0.08203125
7.588,306,2970,871,383,-0.5576171875,0.399658203125,-0.08203125
7.596,304,2782,824,388,-0.54345703125,0.52880859375,-0.1019287109375
7.610,300,2624,774,369,-0.5364990234375,0.583740234375,-0.0421142578125
7.634,302,2530,778,383,-0.578125,0.568115234375,0.009521484375
7.635,300,2456,767,382,-0.651123046875,0.5177001953125,0.0107421875
7.642,302,2449,763,382,-0.71240234375,0.460205078125,0.00048828125
7.656,301,2504,757,378,-0.753662109375,0.418212890625,0.027587890625
7.657,302,2519,777,382,-0.78271484375,0.399658203125,0.0941162109375
7.670,302,2560,766,365,-0.8040771484375,0.3865966796875,0.158203125
7.678,302,2599,803,388,-0.831298828125,0.3575439453125,0.189453125
7.686,300,2620,805,387,-0.86962890625,0.3121337890625,0.194580078125
7.707,302,2710,815,364,-0.912109375,0.2799072265625,0.1827392578125
7.708,302,2754,830,377,-0.9439697265625,0.2845458984375,0.15625
7.716,299,2778,832,378,-0.9517822265625,0.32177734375,0.1180419921875
7.739,302,2875,806,376,-0.937744140625,0.3670654296875,0.0731201171875
7.768,302,2935,816,391,-0.9144287109375,0.3900146484375,0.026611328125
7.772,302,2991,827,401,-0.892578125,0.3858642578125,-0.0093994140625
7.777,302,3130,828,378,-0.8665771484375,0.366943359375,-0.0167236328125
7.785,302,3147,849,409,-0.827392578125,0.3411865234375,0.001220703125
7.788,304,3147,855,454,-0.7823486328125,0.318359375,0.021728515625
7.790,300,3147,788,721,-0.7235107421875,0.3101806640625,0.0421142578125
7.801,302,3147,793,873,-0.6441650390625,0.3116455078125,0.072021484375
7.813,304,3147,766,1047,-0.572265625,0.317626953125,0.1048583984375
7.837,300,3147,738,1348,-0.517578125,0.3360595703125,0.1368408203125
7.837,282,3147,740,1494,-0.4637451171875,0.3546142578125,0.1793212890625
7.837,302,3147,759,1686,-0.4007568359375,0.329833984375,0.2252197265625
7.850,300,3147,780,2076,-0.318115234375,0.1953125,0.2186279296875
7.858,302,3147,814,2364,-0.25634765625,-0.0350341796875,0.1495361328125
7.875,302,3147,883,2578,-0.265869140625,-0.161376953125,0.076171875
7.880,308,3147,953,3084,-0.3597412109375,0.019287109375,0.002685546875
7.889,306,3147,1063,3147,-0.5606689453125,0.44677734375,-0.04541015625
7.896,307,3147,1122,3147,-0.8310546875,0.927001953125,-0.0042724609375
7.912,308,3147,1267,3147,-1.1414794921875,1.3514404296875,0.032470703125
7.919,313,3147,1401,3147,-1.523681640625,1.5274658203125,0.001220703125
7.941,308,3147,1453,3147,-1.9708251953125,1.22314453125,0.0
7.941,304,3147,1492,3147,-2.3436279296875,0.6192626953125,0.082763671875
7.948,315,3147,1494,3147,-2.391357421875,0.0484619140625,0.19580078125
7.956,313,3147,1504,3147,-1.94580078125,-0.4735107421875,0.28369140625
7.980,316,3147,1468,3147,-1.2333984375,-0.719482421875,0.4178466796875
7.980,315,3147,1487,3147,-0.8077392578125,-0.312255859375,0.521484375
7.987,315,3147,1472,3147,-0.9559326171875,0.4053955078125,0.419189453125
8.000,314,3147,1450,3147,-1.39111328125,0.74658203125,0.1771240234375
8.016,315,3147,1411,3147,-1.6661376953125,0.6295166015625,-0.0196533203125
8.018,313,3147,1334,3147,-1.6678466796875,0.454345703125,-0.074462890625
8.046,310,3147,1303,3147,-1.5228271484375,0.4276123046875,-0.0244140625
8.046,310,3147,1183,3147,-1.3704833984375,0.4761962890625,0.049560546875
8.046,300,3147,1108,3147,-1.2625732421875,0.51123046875,0.1097412109375
8.060,306,3147,963,2818,-1.14794921875,0.4617919921875,0.1607666015625
8.068,306,3147,891,2619,-0.964599609375,0.2808837890625,0.22607421875
8.080,300,3147,815,2233,-0.7215576171875,0.05029296875,0.271728515625
8.096,302,3147,707,1697,-0.51171875,-0.1094970703125,0.2203369140625
8.098,300,3147,702,1439,-0.4149169921875,-0.17529296875,0.1280517578125
8.107,300,3147,725,1225,-0.4185791015625,-0.12841796875,0.098388671875
8.120,296,3147,659,869,-0.4857177734375,0.02880859375,0.091064453125
8.145,302,3147,603,673,-0.570556640625,0.2325439453125,0.034912109375
8.146,295,3147,586,487,-0.6214599609375,0.41845703125,-0.0225830078125
8.150,299,3135,499,363,-0.6424560546875,0.5341796875,-0.034912109375
8.158,296,3017,469,371,-0.6661376953125,0.566162109375,-0.033447265625
8.167,296,2921,509,378,-0.702880859375,0.5396728515625,-0.043701171875
8.175,299,2868,468,378,-0.702880859375,0.5396728515625,-0.043701171875
8.189,293,2788,470,363,-0.7724609375,0.46875,-0.0513916015625
8.197,298,2756,479,377,-0.7919921875,0.4652099609375,-0.0072021484375
8.206,291,2703,470,376,-0.7919921875,0.4652099609375,-0.0072021484375
8.219,299,2677,495,364,-0.8004150390625,0.4505615234375,0.1121826171875
8.227,300,2679,530,385,-0.809326171875,0.42529296875,0.1357421875
8.249,299,2695,540,378,-0.809326171875,0.42529296875,0.1357421875
8.250,299,2739,553,364,-0.8548583984375,0.3612060546875,0.1441650390625
8.259,299,2798,601,376,-0.885498046875,0.311279296875,0.1259765625
8.265,300,2813,601,371,-0.885498046875,0.311279296875,0.1259765625
8.279,300,2859,607,361,-0.9334716796875,0.238037109375,0.06640625
8.287,298,2891,632,373,-0.9342041015625,0.2265625,0.0401611328125
8.295,300,2919,642,371,-0.9342041015625,0.2265625,0.0401611328125
8.309,300,3035,636,369,-0.903564453125,0.2491455078125,0.0166015625
8.327,299,3112,651,387,-0.89794921875,0.2764892578125,0.01513671875
8.328,299,3147,651,391,-0.89794921875,0.2764892578125,0.01513671875
8.351,300,3147,666,413,-0.90625,0.3382568359375,0.0389404296875
8.351,300,3147,682,466,-0.8963623046875,0.34228515625,0.055419921875
8.355,300,3147,705,586,-0.8963623046875,0.34228515625,0.055419921875
8.371,300,3147,713,740,-0.837158203125,0.25537109375,0.0291748046875
8.377,298,3147,682,846,-0.803466796875,0.226318359375,-0.0084228515625
8.385,300,3147,697,995,-0.803466796875,0.226318359375,-0.0084228515625
8.400,299,3147,680,1251,-0.682373046875,0.2945556640625,0.059326171875
8.407,300,3147,678,1398,-0.682373046875,0.2945556640625,0.059326171875
8.415,301,3147,667,1580,-0.5621337890625,0.3289794921875,0.1292724609375
8.431,299,3147,607,1954,-0.1170654296875,0.03662109375,0.0535888671875
8.452,302,3147,572,2155,-0.1170654296875,0.03662109375,0.0535888671875
8.452,295,3147,555,2310,0.0106201171875,-0.16796875,-0.037109375
8.459,306,3147,779,2645,-0.36962890625,0.42236328125,0.12939453125
8.467,304,3147,891,3103,-0.36962890625,0.42236328125,0.12939453125
8.475,306,3147,1009,3147,-0.7603759765625,1.0308837890625,0.279296875
8.490,308,3147,1137,3147,-1.33544921875,1.4842529296875,0.1751708984375
8.497,305,3147,1206,3147,-1.33544921875,1.4842529296875,0.1751708984375
8.505,312,3147,1271,3147,-1.4854736328125,1.228271484375,0.1090087890625
8.526,313,3147,1456,3147,-1.885009765625,-0.067626953125,0.3958740234375
8.527,316,3147,1504,3147,-1.885009765625,-0.067626953125,0.3958740234375
8.535,315,3147,1455,3147,-2.13525390625,-0.3450927734375,0.3746337890625
8.554,314,3147,1370,3147,-1.55029296875,-0.364501953125,0.0479736328125
8.557,315,3147,1399,3147,-1.55029296875,-0.364501953125,0.0479736328125
8.567,316,3147,1413,3147,-1.13818359375,0.0040283203125,0.149169921875
8.579,315,3147,1341,3147,-1.512451171875,0.779541015625,0.1231689453125
8.587,313,3147,1294,3147,-1.512451171875,0.779541015625,0.1231689453125
8.595,312,3147,1213,3147,-1.6680908203125,0.56005859375,0.035888671875
8.614,308,3147,1050,3147,-1.3157958984375,0.238037109375,0.20458984375
8.617,307,3147,963,3147,-1.3157958984375,0.238037109375,0.20458984375
8.629,306,3147,853,3147,-1.0850830078125,0.2271728515625,0.2392578125
8.661,305,3147,722,2939,-0.9224853515625,0.2666015625,0.2366943359375
8.661,292,3147,692,2658,-0.820068359375,0.308837890625,0.2166748046875
8.661,294,3147,654,2449,-0.753662109375,0.3079833984375,0.1673583984375
8.669,300,3147,601,1946,-0.69775390625,0.2467041015625,0.1207275390625
8.680,300,3147,634,1656,-0.633544921875,0.1456298828125,0.1011962890625
8.685,296,3147,600,1412,-0.5888671875,0.052490234375,0.0902099609375
8.700,299,3147,537,1065,-0.5882568359375,0.0224609375,0.0989990234375
8.707,296,3147,526,895,-0.6126708984375,0.0640869140625,0.0977783203125
8.719,292,3147,521,750,-0.653076171875,0.14404296875,0.0457763671875
8.732,299,3147,500,495,-0.6922607421875,0.2408447265625,0.01708984375
8.737,299,3147,509,402,-0.7183837890625,0.34912109375,0.0333251953125
8.758,298,3135,512,398,-0.742919921875,0.441162109375,0.040771484375
8.770,296,2876,497,382,-0.7625732421875,0.484130859375,0.041259765625
8.770,296,2782,496,365,-0.7705078125,0.4873046875,0.052734375
8.779,296,2665,484,376,-0.768310546875,0.46240234375,0.0697021484375
8.789,296,2504,473,359,-0.7691650390625,0.4324951171875,0.0859375
8.797,294,2447,473,374,-0.783447265625,0.4339599609375,0.107666015625
8.807,296,2407,473,378,-0.8006591796875,0.46923828125,0.1297607421875
8.836,295,2410,473,363,-0.812255859375,0.50927734375,0.1378173828125
8.836,294,2435,481,354,-0.819580078125,0.5155029296875,0.1263427734375
8.836,294,2469,464,346,-0.832763671875,0.47607421875,0.09814453125
8.861,296,2516,470,370,-0.8536376953125,0.4122314453125,0.0723876953125
8.861,298,2608,481,382,-0.866455078125,0.3406982421875,0.05810546875
8.870,294,2717,479,385,-0.8641357421875,0.2752685546875,0.0390625
8.885,299,2905,483,373,-0.8609619140625,0.246337890625,0.013671875
8.889,296,3081,493,398,-0.85498046875,0.265869140625,0.0
8.895,296,3147,493,401,-0.8367919921875,0.3172607421875,0.0042724609375
8.911,296,3147,531,480,-0.8187255859375,0.3714599609375,0.026123046875
8.917,293,3147,666,576,-0.80224609375,0.3876953125,0.050537109375
8.939,300,3147,732,685,-0.783935546875,0.346923828125,0.0552978515625
8.939,304,3147,806,900,-0.75830078125,0.2684326171875,0.0467529296875
8.964,302,3147,815,1091,-0.7073974609375,0.1859130859375,0.006591796875
8.964,300,3147,766,1320,-0.6368408203125,0.129150390625,-0.0914306640625
8.969,304,3147,646,1744,-0.5179443359375,0.112060546875,-0.2119140625
8.977,300,3147,617,1954,-0.2939453125,0.130615234375,-0.253662109375
8.995,296,3147,571,2178,-0.01708984375,0.1099853515625,-0.14892578125
8.999,300,3147,578,2654,0.0609130859375,0.0634765625,0.0567626953125
9.009,299,3147,832,2921,-0.2432861328125,0.2021484375,0.311279296875
9.015,304,3147,968,3147,-0.755126953125,0.4869384765625,0.5235595703125
9.044,304,3147,1045,3147,-1.2034912109375,0.6671142578125,0.5400390625
9.047,307,3147,1063,3147,-1.4522705078125,0.749755859375,0.390869140625
9.055,307,3147,1117,3147,-1.5015869140625,0.8846435546875,0.2808837890625
9.075,308,3147,1185,3147,-1.4923095703125,0.9393310546875,0.2994384765625
9.075,289,3147,1262,3147,-1.579345703125,0.7420654296875,0.36328125
9.075,299,3147,1290,3147,-1.7777099609375,0.5299072265625,0.38623046875
9.089,306,3147,1175,3147,-1.923095703125,0.3565673828125,0.2999267578125
9.097,308,3147,1202,3147,-1.737548828125,0.024169921875,0.083251953125
9.107,310,3147,1262,3147,-1.3125,-0.0762939453125,0.0103759765625
9.119,310,3147,1289,3147,-1.1407470703125,0.3800048828125,0.1510009765625
9.127,309,3147,1290,3147,-1.3416748046875,0.81884765625,0.2060546875
9.147,309,3147,1264,3147,-1.5614013671875,0.7906494140625,0.1500244140625
9.168,310,3147,1202,3147,-1.546875,0.544921875,0.1451416015625
9.168,307,3147,1134,3147,-1.338623046875,0.3544921875,0.2001953125
9.168,306,3147,1107,3147,-1.10546875,0.233642578125,0.2308349609375
9.181,306,3147,1063,3147,-0.94873046875,0.1622314453125,0.2125244140625
9.187,306,3147,939,3147,-0.8577880859375,0.19189453125,0.17529296875
9.195,305,3147,910,3028,-0.8062744140625,0.30712890625,0.1361083984375
9.209,304,3147,815,2601,-0.7674560546875,0.3787841796875,0.10595703125
9.219,302,3147,841,2345,-0.7216796875,0.3419189453125,0.0865478515625
9.225,304,3147,847,2050,-0.6861572265625,0.24560546875,0.0596923828125
9.271,302,3147,808,1653,-0.678955078125,0.1478271484375,0.04833984375
9.271,306,3147,778,1424,-0.6904296875,0.09521484375,0.0618896484375
9.271,300,3147,738,1172,-0.7078857421875,0.0986328125,0.050537109375
9.271,302,3147,678,867,-0.7283935546875,0.140869140625,0.001708984375
9.277,300,3147,660,590,-0.7430419921875,0.2083740234375,-0.0186767578125
9.285,292,3147,617,411,-0.737548828125,0.27294921875,0.006591796875
9.301,300,3014,588,373,-0.7216796875,0.3204345703125,0.0343017578125
9.307,302,2833,509,378,-0.7149658203125,0.361572265625,0.0531005859375
9.315,299,2658,482,379,-0.7149658203125,0.361572265625,0.0531005859375
9.332,300,2396,484,362,-0.7452392578125,0.427490234375,0.0906982421875
9.347,298,2293,501,373,-0.76318359375,0.4227294921875,0.0994873046875
9.348,298,2190,498,371,-0.76318359375,0.4227294921875,0.0994873046875
9.372,299,2133,470,356,-0.8173828125,0.4134521484375,0.1087646484375
9.372,299,2133,473,369,-0.8514404296875,0.4515380859375,0.1087646484375
9.378,299,2175,481,349,-0.8514404296875,0.4515380859375,0.1087646484375
9.390,299,2254,485,347,-0.88623046875,0.482421875,0.072021484375
9.398,300,2266,525,356,-0.8807373046875,0.4346923828125,0.0582275390625
9.406,298,2309,640,338,-0.86767578125,0.373291015625,0.046875
9.420,300,2404,684,361,-0.8558349609375,0.3331298828125,0.0302734375
9.428,299,2489,722,378,-0.8538818359375,0.3240966796875,0.0108642578125
9.436,294,2576,725,385,-0.8538818359375,0.3240966796875,0.0108642578125
9.453,302,2739,748,371,-0.8509521484375,0.34814453125,-0.0068359375
9.481,302,2830,763,387,-0.8341064453125,0.3406982421875,-0.007080078125
9.482,302,2991,780,390,-0.8341064453125,0.3406982421875,-0.007080078125
9.482,302,3147,800,385,-0.783935546875,0.2933349609375,0.006103515625
9.493,302,3147,814,548,-0.738525390625,0.2587890625,0.025634765625
9.498,302,3147,808,748,-0.738525390625,0.2587890625,0.025634765625
9.510,304,3147,838,1148,-0.583740234375,0.1700439453125,0.0548095703125
9.518,304,3147,913,1377,-0.4659423828125,0.18896484375,0.04248046875
9.526,301,3147,897,1638,-0.4659423828125,0.18896484375,0.04248046875
9.541,306,3147,966,2068,-0.0650634765625,0.210693359375,-0.1025390625
9.557,308,3147,1064,2367,0.0902099609375,0.1494140625,-0.20458984375
9.578,309,3147,1131,2632,0.0902099609375,0.1494140625,-0.20458984375
9.579,313,3147,1320,3147,-0.419921875,0.5726318359375,0.0123291015625
9.579,316,3147,1422,3147,-0.9747314453125,0.995849609375,0.33251953125
9.586,315,3147,1463,3147,-0.9747314453125,0.995849609375,0.33251953125
9.601,315,3147,1545,3147,-1.6298828125,0.99658203125,0.7462158203125
9.609,316,3147,1634,3147,-1.7724609375,0.45068359375,0.623779296875
9.616,321,3147,1693,3147,-1.7724609375,0.45068359375,0.623779296875
9.631,319,3147,1762,3147,-2.0589599609375,-0.2900390625,0.1368408203125
9.638,317,3147,1730,3147,-2.091552734375,-0.0960693359375,-0.020263671875
9.654,318,3147,1651,3147,-2.091552734375,-0.0960693359375,-0.020263671875
9.660,322,3147,1592,3147,-1.2889404296875,-0.1302490234375,0.04638671875
9.681,317,3147,1608,3147,-1.2889404296875,-0.1302490234375,0.04638671875
9.681,330,3147,1627,3147,-0.7886962890625,0.087646484375,0.3607177734375
9.690,318,3147,1641,3147,-1.1195068359375,1.03125,0.388427734375
9.698,318,3147,1637,3147,-1.1195068359375,1.03125,0.388427734375
9.706,318,3147,1616,3147,-1.434814453125,0.9154052734375,0.1187744140625
9.720,316,3147,1534,3147,-1.3433837890625,0.4056396484375,0.01220703125
9.729,315,3147,1504,3147,-1.3433837890625,0.4056396484375,0.01220703125
9.736,315,3147,1426,3147,-1.1929931640625,0.325927734375,0.109619140625
9.756,314,3147,1282,3147,-1.0616455078125,0.2886962890625,0.234130859375
9.758,311,3147,1214,3147,-1.0616455078125,0.2886962890625,0.234130859375
9.787,310,3147,1160,3058,-1.0238037109375,0.27001953125,0.2598876953125
9.787,308,3147,1115,2689,-0.8992919921875,0.147216796875,0.2001953125
9.790,310,3147,1104,2400,-0.8992919921875,0.147216796875,0.2001953125
9.796,307,3147,1045,2110,-0.841064453125,0.10302734375,0.146240234375
9.810,306,3147,968,1648,-0.7586669921875,0.0557861328125,0.0797119140625
9.818,306,3147,958,1380,-0.7586669921875,0.0557861328125,0.0797119140625
9.826,306,3147,938,1123,-0.735107421875,0.011962890625,0.0606689453125
9.840,302,3147,846,793,-0.7158203125,0.09814453125,-0.025634765625
9.850,304,3147,797,601,-0.7158203125,0.09814453125,-0.025634765625
9.857,299,3147,767,431,-0.6898193359375,0.233154296875,-0.041748046875
9.897,299,3062,707,375,-0.660400390625,0.364013671875,-0.02099609375
9.900,300,2890,707,391,-0.647216796875,0.4644775390625,0.0186767578125
9.900,300,2667,714,363,-0.6541748046875,0.5223388671875,0.0675048828125
9.900,301,2284,710,364,-0.6627197265625,0.535888671875,0.0987548828125
9.908,300,2100,746,374,-0.6622314453125,0.5145263671875,0.0885009765625
9.916,299,2021,761,376,-0.6622314453125,0.4930419921875,0.048095703125
9.930,300,2030,744,363,-0.6864013671875,0.5189208984375,0.0162353515625
9.938,300,2091,765,375,-0.7320556640625,0.5806884765625,0.0050048828125
9.946,299,2161,761,371,-0.7708740234375,0.5897216796875,0.00439453125
9.960,302,2337,758,361,-0.8218994140625,0.48974609375,0.0430908203125
9.968,302,2468,780,381,-0.866455078125,0.3504638671875,0.08154296875
9.986,294,2621,778,387,-0.884033203125,0.2442626953125,0.0654296875
9.997,292,2778,765,389,-0.9031982421875,0.1640625,0.057373046875
9.998,300,2901,774,356,-0.895751953125,0.1162109375,0.0906982421875
10.010,300,3056,740,402,-0.8460693359375,0.1240234375,0.109619140625
10.020,300,3147,766,404,-0.8109130859375,0.1630859375,0.0860595703125
10.028,300,3147,777,495,-0.8359375,0.2039794921875,0.072265625
10.036,298,3147,779,614,-0.887939453125,0.26318359375,0.09912109375
10.050,301,3147,759,858,-0.912841796875,0.344482421875,0.1109619140625
10.062,300,3147,735,1004,-0.8966064453125,0.361083984375,0.07421875
10.066,300,3147,725,1156,-0.8310546875,0.244384765625,0.01025390625
10.094,299,3147,658,1443,-0.72998046875,0.1090087890625,-0.0389404296875
10.094,293,3147,684,1650,-0.60400390625,0.0703125,-0.030517578125
10.104,301,3147,735,1853,-0.446044921875,0.146728515625,0.0228271484375
10.113,305,3147,932,2217,-0.2635498046875,0.2952880859375,0.1060791015625
10.121,308,3147,1018,2448,-0.1103515625,0.4111328125,0.1898193359375
10.126,310,3147,1129,2677,-0.0762939453125,0.47412109375,0.1422119140625
10.140,310,3147,1268,3056,-0.2384033203125,0.5738525390625,-0.0711669921875
10.148,313,3147,1366,3147,-0.553466796875,0.729736328125,-0.1717529296875
10.156,313,3147,1429,3147,-0.9029541015625,0.9488525390625,0.0787353515625
10.170,313,3147,1468,3147,-1.17236328125,1.207763671875,0.5367431640625
10.189,316,3147,1548,3147,-1.3077392578125,1.203125,0.8829345703125
10.190,299,3147,1653,3147,-1.474853515625,0.753662109375,0.9132080078125
10.238,318,3147,1715,3147,-1.8197021484375,0.2850341796875,0.653564453125
10.246,318,3147,1681,3147,-2.1800537109375,0.12646484375,0.3197021484375
10.248,318,3147,1662,3147,-2.1776123046875,-0.1279296875,-0.041748046875
10.248,316,3147,1682,3147,-1.7103271484375,-0.515380859375,-0.2373046875
10.248,318,3147,1715,3147,-1.2017822265625,-0.369140625,-0.0010986328125
10.248,321,3147,1730,3147,-1.1317138671875,0.38818359375,0.34326171875
10.267,319,3147,1713,3147,-1.456787109375,1.0140380859375,0.3341064453125
10.271,319,3147,1691,3147,-1.721435546875,1.0167236328125,0.0877685546875
10.294,316,3147,1662,3147,-1.68115234375,0.6617431640625,-0.00244140625
10.294,316,3147,1597,3147,-1.4600830078125,0.3792724609375,0.087158203125
10.298,316,3147,1545,3147,-1.2239990234375,0.2451171875,0.2027587890625
10.308,315,3147,1472,3147,-0.989501953125,0.1676025390625,0.2420654296875
10.334,313,3147,1312,2993,-0.749755859375,0.165283203125,0.2288818359375
10.338,313,3147,1228,2777,-0.548583984375,0.23046875,0.2396240234375
10.338,312,3147,1202,2563,-0.4208984375,0.3121337890625,0.24755859375
10.374,310,3147,1120,2180,-0.383544921875,0.329345703125,0.189453125
10.374,310,3147,1074,1960,-0.4246826171875,0.229248046875,0.087890625
10.374,309,3147,1055,1815,-0.50927734375,0.1328125,0.0230712890625
10.396,306,3147,1000,1584,-0.610595703125,0.143798828125,-0.0150146484375
10.397,308,3147,986,1445,-0.707763671875,0.2410888671875,-0.060546875
10.398,308,3147,944,1372,-0.76904296875,0.3551025390625,-0.06494140625
10.412,306,3147,936,1184,-0.78759765625,0.41748046875,-0.01904296875
10.424,306,3147,918,1078,-0.7830810546875,0.412109375,0.01806640625
10.426,304,3147,913,1014,-0.7774658203125,0.3621826171875,0.0411376953125
10.440,307,3147,922,906,-0.7880859375,0.294921875,0.082275390625
10.448,307,3147,922,853,-0.8145751953125,0.248291015625,0.1346435546875
10.458,306,3147,923,829,-0.84716796875,0.2393798828125,0.1741943359375
10.475,305,3147,922,860,-0.8685302734375,0.243408203125,0.1898193359375
10.478,306,3147,949,894,-0.86962890625,0.2554931640625,0.1806640625
10.503,306,3147,960,934,-0.85595703125,0.2899169921875,0.1666259765625
10.503,306,3147,998,1031,-0.835693359375,0.3419189453125,0.15673828125
10.508,306,3147,1010,1067,-0.8250732421875,0.3839111328125,0.1431884765625
10.516,309,3147,1029,1091,-0.8311767578125,0.3839111328125,0.12060546875
10.532,307,3147,1039,1183,-0.8455810546875,0.351318359375,0.0966796875
10.538,308,3147,1064,1229,-0.8599853515625,0.321533203125,0.08447265625
10.546,302,3147,1078,1278,-0.874267578125,0.3011474609375,0.0782470703125
10.560,308,3147,1070,1386,-0.887451171875,0.2857666015625,0.0687255859375
10.579,309,3147,1093,1464,-0.8936767578125,0.279052734375,0.0614013671875
10.580,306,3147,1091,1499,-0.8936767578125,0.279052734375,0.0614013671875
10.601,309,3147,1100,1666,-0.8643798828125,0.2860107421875,0.0665283203125
10.601,309,3147,1085,1730,-0.8323974609375,0.2947998046875,0.0821533203125
10.608,308,3147,1108,1790,-0.8323974609375,0.2947998046875,0.0821533203125
10.620,309,3147,1097,1934,-0.766357421875,0.2550048828125,0.1217041015625
10.636,308,3147,1091,2076,-0.74169921875,0.2203369140625,0.109375
10.637,306,3147,1039,2178,-0.74169921875,0.2203369140625,0.109375
10.651,307,3147,1017,2517,-0.643310546875,0.1563720703125,0.095703125
10.659,308,3147,989,2638,-0.4669189453125,0.1044921875,0.0855712890625
10.668,304,3147,1003,2807,-0.4669189453125,0.1044921875,0.0855712890625
10.684,308,3147,1026,3147,0.026611328125,0.084228515625,0.12109375
10.706,310,3147,1091,3147,0.0321044921875,0.17333984375,0.258056640625
10.706,316,3147,1182,3147,0.0321044921875,0.17333984375,0.258056640625
10.712,315,3147,1422,3147,-0.7615966796875,0.75732421875,0.3812255859375
10.720,316,3147,1480,3147,-1.2557373046875,1.1427001953125,0.342529296875
10.727,316,3147,1529,3147,-1.2557373046875,1.1427001953125,0.342529296875
10.742,317,3147,1616,3147,-1.9072265625,1.0938720703125,0.3583984375
10.748,317,3147,1703,3147,-2.2110595703125,0.545166015625,0.25244140625
10.756,314,3147,1651,3147,-2.2110595703125,0.545166015625,0.25244140625
10.770,317,3147,1557,3147,-2.00927734375,-0.3924560546875,-0.01416015625
10.779,318,3147,1598,3147,-2.00927734375,-0.3924560546875,-0.01416015625
10.786,310,3147,1610,3147,-1.27685546875,-0.479736328125,0.1171875
10.808,317,3147,1611,3147,-1.051513671875,0.7755126953125,0.476806640625
10.809,316,3147,1613,3147,-1.051513671875,0.7755126953125,0.476806640625
10.816,317,3147,1592,3147,-1.4439697265625,1.044921875,0.3271484375
10.830,316,3147,1534,3147,-1.4619140625,0.538818359375,0.1943359375
10.838,316,3147,1483,3147,-1.4619140625,0.538818359375,0.1943359375
10.852,313,3147,1416,3147,-1.2423095703125,0.403076171875,0.203369140625
10.860,310,3147,1292,3147,-0.9852294921875,0.3292236328125,0.1903076171875
10.868,315,3147,1255,3147,-0.9852294921875,0.3292236328125,0.1903076171875
10.881,310,3147,1199,3147,-0.932861328125,0.3629150390625,0.184326171875
10.898,309,3147,1117,3000,-0.829833984375,0.3515625,0.119384765625
10.912,308,3147,1092,2717,-0.829833984375,0.3515625,0.119384765625
10.913,308,3147,1067,2442,-0.755859375,0.2044677734375,0.077880859375
10.922,306,3147,992,1914,-0.6507568359375,-0.0089111328125,0.048828125
10.930,306,3147,991,1608,-0.6507568359375,-0.0089111328125,0.048828125
10.936,310,3147,995,1362,-0.645263671875,-0.0032958984375,0.05859375
10.954,305,3147,912,1004,-0.66796875,0.165283203125,0.0067138671875
10.958,304,3147,910,754,-0.66796875,0.165283203125,0.0067138671875
10.966,309,3147,884,481,-0.687255859375,0.283935546875,0.0037841796875
10.987,301,2909,765,372,-0.6854248046875,0.44677734375,0.1341552734375
10.988,302,2517,753,364,-0.6854248046875,0.44677734375,0.1341552734375
11.013,302,2113,748,365,-0.6956787109375,0.453369140625,0.1483154296875
11.013,304,1643,739,334,-0.7169189453125,0.4254150390625,0.15380859375
11.021,301,1478,731,346,-0.7398681640625,0.3603515625,0.1693115234375
11.026,302,1490,746,346,-0.7635498046875,0.29248046875,0.1767578125
11.041,304,1508,748,344,-0.7930908203125,0.2742919921875,0.17724609375
11.048,304,1574,763,338,-0.8253173828125,0.3138427734375,0.1876220703125
11.115,304,1641,778,359,-0.8470458984375,0.363525390625,0.1951904296875
11.116,302,1781,826,351,-0.85107421875,0.3746337890625,0.1741943359375
11.117,302,1918,858,369,-0.8436279296875,0.3475341796875,0.132568359375
11.117,302,2039,865,371,-0.8331298828125,0.314697265625,0.104248046875
11.117,304,2275,858,360,-0.823974609375,0.299072265625,0.097900390625
11.117,302,2409,906,359,-0.816162109375,0.2998046875,0.09228515625
11.117,306,2578,920,387,-0.7999267578125,0.29833984375,0.0755615234375
11.136,305,2863,957,371,-0.776611328125,0.2889404296875,0.060302734375
11.140,305,3147,1010,385,-0.7589111328125,0.27587890625,0.0694580078125
11.147,306,3147,1050,473,-0.73779296875,0.251220703125,0.0894775390625
11.160,308,3147,1104,826,-0.702392578125,0.2022705078125,0.1015625
11.168,308,3147,1167,1071,-0.6353759765625,0.120849609375,0.0848388671875
11.176,309,3147,1178,1316,-0.5321044921875,0.0440673828125,-0.01904296875
11.190,313,3147,1260,1825,-0.41162109375,-0.005126953125,-0.1650390625
11.198,309,3147,1264,2188,-0.3009033203125,-0.0377197265625,-0.175537109375
11.217,310,3147,1306,2504,-0.184814453125,0.00341796875,0.001708984375
11.221,313,3147,1503,3089,-0.0628662109375,0.14599609375,0.241943359375
11.231,316,3147,1610,3147,-0.0135498046875,0.33984375,0.4483642578125
11.238,318,3147,1678,3147,-0.1942138671875,0.638671875,0.533447265625
11.250,321,3147,1815,3147,-0.7064208984375,1.032470703125,0.4453125
11.258,323,3147,1943,3147,-1.4080810546875,1.349609375,0.3602294921875
11.266,323,3147,2100,3147,-2.1212158203125,1.3292236328125,0.419677734375
11.280,323,3147,2138,3147,-2.723388671875,0.8289794921875,0.445068359375
11.291,323,3147,2004,3147,-2.9715576171875,0.1431884765625,0.2869873046875
11.296,321,3147,1935,3147,-2.5009765625,-0.4122314453125,0.01611328125
11.314,321,3147,1909,3147,-1.48974609375,-0.5986328125,-0.0205078125
11.322,323,3147,1929,3147,-0.7205810546875,-0.2740478515625,0.2781982421875
11.326,321,3147,1944,3147,-0.6859130859375,0.30224609375,0.5667724609375
11.342,323,3147,1894,3147,-1.1627197265625,0.6722412109375,0.5692138671875
11.350,318,3147,1850,3147,-1.551025390625,0.625244140625,0.3516845703125
11.361,319,3147,1816,3147,-1.5802001953125,0.389892578125,0.19287109375
11.371,318,3147,1753,3147,-1.3768310546875,0.262939453125,0.1673583984375
11.384,318,3147,1702,3147,-1.1287841796875,0.2945556640625,0.2091064453125
11.394,318,3147,1629,3147,-0.9508056640625,0.391845703125,0.240234375
11.400,316,3147,1545,3147,-0.8621826171875,0.4832763671875,0.2349853515625
11.428,316,3147,1516,3147,-0.8367919921875,0.5240478515625,0.1990966796875
11.428,315,3147,1443,3147,-0.841796875,0.49462890625,0.13671875
11.428,316,3147,1415,3039,-0.849853515625,0.418212890625,0.080078125
11.439,313,3147,1303,2569,-0.8526611328125,0.3253173828125,0.066162109375
11.460,313,3147,1260,2303,-0.847900390625,0.235107421875,0.09619140625
11.462,314,3147,1236,1987,-0.83984375,0.1754150390625,0.129150390625
11.472,313,3147,1178,1483,-0.842041015625,0.1407470703125,0.128173828125
11.477,311,3147,1149,1219,-0.8450927734375,0.0904541015625,0.1119384765625
11.487,310,3147,1125,968,-0.837646484375,0.026611328125,0.1021728515625
11.499,307,3147,1032,598,-0.827392578125,-0.0235595703125,0.074951171875
11.523,306,3147,998,411,-0.8111572265625,-0.0233154296875,0.0400390625
11.523,305,2919,971,401,-0.7862548828125,0.04736328125,0.0400390625
11.529,306,2461,891,344,-0.7572021484375,0.1461181640625,0.0777587890625
11.537,305,2104,840,363,-0.736572265625,0.237548828125,0.126953125
11.545,302,1702,788,338,-0.7313232421875,0.3140869140625,0.1717529296875
11.559,302,1336,689,334,-0.7335205078125,0.367431640625,0.2080078125
11.567,300,1024,625,346,-0.7430419921875,0.385498046875,0.2359619140625
11.575,300,932,605,342,-0.7430419921875,0.385498046875,0.2359619140625
11.603,300,992,546,328,-0.7821044921875,0.3277587890625,0.2154541015625
11.603,300,957,537,313,-0.795654296875,0.328125,0.167236328125
11.605,299,942,567,336,-0.795654296875,0.328125,0.167236328125
11.622,304,975,574,330,-0.8046875,0.4176025390625,0.15380859375
11.627,304,1025,590,328,-0.7872314453125,0.44287109375,0.1739501953125
11.635,302,1082,621,333,-0.7872314453125,0.44287109375,0.1739501953125
11.649,302,1271,666,330,-0.780029296875,0.3853759765625,0.1417236328125
11.657,302,1348,679,332,-0.80908203125,0.333984375,0.139892578125
11.665,304,1424,697,344,-0.80908203125,0.333984375,0.139892578125
11.679,304,1588,753,346,-0.8507080078125,0.24169921875,0.119140625
11.687,302,1674,778,356,-0.8472900390625,0.2220458984375,0.08154296875
11.706,304,1867,802,344,-0.8472900390625,0.2220458984375,0.08154296875
11.722,302,2178,840,378,-0.8228759765625,0.2147216796875,0.0263671875
11.729,304,2347,884,371,-0.8245849609375,0.2213134765625,0.037841796875
11.730,294,2633,888,355,-0.8245849609375,0.2213134765625,0.037841796875
11.741,307,3098,984,364,-0.8175048828125,0.209228515625,0.0762939453125
11.748,304,3147,984,458,-0.7646484375,0.174560546875,0.0357666015625
11.756,306,3147,951,737,-0.7646484375,0.174560546875,0.0357666015625
11.770,300,3147,914,1179,-0.4876708984375,0.090576171875,-0.004638671875
11.778,306,3147,952,1573,-0.303466796875,0.086669921875,0.0458984375
11.786,307,3147,987,1912,-0.303466796875,0.086669921875,0.0458984375
11.829,309,3147,1057,2354,-0.1112060546875,0.0406494140625,0.0145263671875
11.830,309,3147,1172,2664,-0.2540283203125,0.1583251953125,0.061279296875
11.830,313,3147,1305,2963,-0.2540283203125,0.1583251953125,0.061279296875
11.832,315,3147,1401,3147,-0.948974609375,0.86279296875,0.4815673828125
11.838,316,3147,1469,3147,-1.280029296875,1.168701171875,0.631591796875
11.846,316,3147,1557,3147,-1.280029296875,1.168701171875,0.631591796875
11.860,316,3147,1553,3147,-1.6881103515625,0.9281005859375,0.6051025390625
11.868,318,3147,1669,3147,-1.920166015625,0.40576171875,0.4798583984375
11.876,313,3147,1709,3147,-1.920166015625,0.40576171875,0.4798583984375
11.891,318,3147,1552,3147,-2.1329345703125,-0.169921875,-0.090576171875
11.905,316,3147,1537,3147,-1.6202392578125,-0.4427490234375,-0.2139892578125
11.913,316,3147,1557,3147,-1.6202392578125,-0.4427490234375,-0.2139892578125
11.949,316,3147,1568,3147,-1.12255859375,0.246337890625,0.392578125
11.949,316,3147,1557,3147,-1.12255859375,0.246337890625,0.392578125
11.949,316,3147,1550,3147,-1.435791015625,0.696044921875,0.4171142578125
11.950,299,3147,1483,3147,-1.59228515625,0.5538330078125,0.176513671875
11.958,316,3147,1462,3147,-1.59228515625,0.5538330078125,0.176513671875
11.966,315,3147,1419,3147,-1.3858642578125,0.46240234375,0.1976318359375
11.980,313,3147,1263,3147,-0.999755859375,0.39013671875,0.2840576171875
11.988,313,3147,1204,2997,-0.999755859375,0.39013671875,0.2840576171875
11.996,314,3147,1185,2766,-0.8548583984375,0.3419189453125,0.2962646484375
12.010,313,3147,1149,2347,-0.6077880859375,0.329345703125,0.2794189453125
12.039,310,3147,1107,2072,-0.6077880859375,0.329345703125,0.2794189453125
12.040,308,3147,1101,1806,-0.5379638671875,0.2396240234375,0.2337646484375
12.040,308,3147,1069,1116,-0.53466796875,0.0989990234375,0.090576171875
12.049,308,3147,1056,900,-0.53466796875,0.0989990234375,0.090576171875
12.059,308,3147,1045,695,-0.593505859375,0.13232421875,0.0491943359375
12.070,308,3147,1018,382,-0.709716796875,0.29833984375,-0.0428466796875
12.078,308,3086,1022,387,-0.709716796875,0.29833984375,-0.0428466796875
12.086,306,2906,1005,382,-0.7581787109375,0.330810546875,-0.0672607421875
12.100,304,2703,978,360,-0.799072265625,0.2760009765625,-0.0198974609375
12.111,307,2584,973,363,-0.799072265625,0.2760009765625,-0.0198974609375
12.116,306,2526,958,359,-0.8021240234375,0.2625732421875,0.028076171875
12.137,306,2424,918,364,-0.79736328125,0.2662353515625,0.08740234375
12.138,304,2430,931,369,-0.80322265625,0.2705078125,0.132080078125
12.151,304,2379,920,362,-0.825927734375,0.27294921875,0.1591796875
12.161,304,2318,906,361,-0.85693359375,0.2822265625,0.1761474609375
12.168,304,2318,907,373,-0.8876953125,0.2935791015625,0.1842041015625
12.176,305,2263,912,372,-0.9122314453125,0.289794921875,0.1806640625
12.190,304,2176,894,363,-0.923828125,0.2725830078125,0.165771484375
12.198,304,2194,905,375,-0.92138671875,0.261474609375,0.140869140625
12.214,300,2215,889,371,-0.9111328125,0.2633056640625,0.106689453125
12.221,304,2418,891,361,-0.8984375,0.268310546875,0.0687255859375
12.242,304,2576,897,362,-0.8829345703125,0.264892578125,0.03369140625
12.242,304,2683,897,364,-0.864990234375,0.2596435546875,0.0028076171875
12.250,304,2863,922,359,-0.8511962890625,0.274658203125,-0.0018310546875
12.262,305,2949,966,373,-0.8406982421875,0.3157958984375,0.046142578125
12.267,304,3056,992,375,-0.8336181640625,0.3648681640625,0.1163330078125
12.280,306,3147,1038,371,-0.8370361328125,0.382080078125,0.156982421875
12.288,307,3147,1082,406,-0.8446044921875,0.34423828125,0.1534423828125
12.296,308,3147,1104,479,-0.8389892578125,0.275634765625,0.120361328125
12.317,308,3147,1143,774,-0.79150390625,0.206298828125,0.068359375
12.318,292,3147,1162,1027,-0.660888671875,0.1461181640625,-0.0035400390625
12.335,310,3147,1155,1316,-0.4534912109375,0.11669921875,-0.0572509765625
12.364,310,3147,1096,1775,-0.2325439453125,0.113525390625,-0.0240478515625
12.366,312,3147,1136,2058,-0.036376953125,0.071533203125,0.0595703125
12.366,310,3147,1191,2367,0.0904541015625,0.0166015625,0.0899658203125
12.376,315,3147,1413,2844,0.043701171875,0.1077880859375,0.13134765625
12.378,316,3147,1487,3126,-0.2215576171875,0.3541259765625,0.26708984375
12.386,315,3147,1575,3147,-0.65625,0.6309814453125,0.395751953125
12.400,317,3147,1662,3147,-1.155517578125,0.8717041015625,0.4571533203125
12.408,318,3147,1757,3147,-1.6160888671875,1.0697021484375,0.49267578125
12.419,319,3147,1838,3147,-2.0362548828125,1.129150390625,0.4964599609375
12.444,321,3147,1894,3147,-2.4453125,0.885498046875,0.365478515625
12.445,321,3147,1813,3147,-2.65087890625,0.3419189453125,0.1209716796875
12.446,316,3147,1744,3147,-2.23095703125,-0.3548583984375,-0.06689453125
12.461,319,3147,1769,3147,-1.399169921875,-0.6259765625,0.018310546875
12.468,321,3147,1773,3147,-1.0093994140625,-0.0491943359375,0.271484375
12.476,317,3147,1732,3147,-1.26953125,0.7376708984375,0.3155517578125
12.490,317,3147,1655,3147,-1.6419677734375,0.97314453125,0.18359375
12.498,316,3147,1610,3147,-1.7252197265625,0.724365234375,0.09521484375
12.506,316,3147,1541,3147,-1.5384521484375,0.4541015625,0.11865234375
12.522,315,3147,1411,3147,-1.2552490234375,0.2978515625,0.2115478515625
12.528,313,3147,1313,3147,-1.0087890625,0.1495361328125,0.2705078125
12.555,310,3147,1264,3010,-0.853759765625,0.0802001953125,0.2347412109375
12.555,310,3147,1214,2514,-0.77001953125,0.1500244140625,0.169677734375
12.561,312,3147,1183,2190,-0.6966552734375,0.2249755859375,0.1317138671875
12.567,313,3147,1148,1848,-0.6029052734375,0.2314453125,0.0938720703125
12.580,311,3147,1131,1357,-0.512939453125,0.189453125,0.0360107421875
12.588,308,3147,1120,1145,-0.466064453125,0.150634765625,-0.017333984375
12.599,309,3147,1105,931,-0.480712890625,0.185791015625,-0.034423828125
12.610,304,3147,1032,555,-0.5391845703125,0.2835693359375,-0.0537109375
12.625,308,3147,1018,382,-0.615478515625,0.39697265625,-0.084716796875
12.626,306,3137,976,347,-0.6749267578125,0.4969482421875,-0.048583984375
12.661,306,2898,936,359,-0.718017578125,0.540283203125,0.0673828125
12.662,308,2683,933,336,-0.771484375,0.4949951171875,0.1654052734375
12.662,306,2461,917,347,-0.8277587890625,0.3909912109375,0.17822265625
12.670,308,2228,921,342,-0.8724365234375,0.286865234375,0.144775390625
12.678,306,2141,894,357,-0.89599609375,0.215576171875,0.1236572265625
12.686,304,2063,890,353,-0.8997802734375,0.1903076171875,0.11376953125
12.700,306,1973,846,352,-0.889404296875,0.1986083984375,0.1002197265625
12.712,304,1960,832,371,-0.86865234375,0.2137451171875,0.099853515625
12.717,302,1918,835,370,-0.8466796875,0.226806640625,0.1226806640625
12.730,304,2068,849,346,-0.8331298828125,0.24169921875,0.153076171875
12.751,305,2160,865,354,-0.833251953125,0.2633056640625,0.1761474609375
12.751,290,2194,869,349,-0.852294921875,0.3001708984375,0.1796875
12.766,304,2296,865,361,-0.8851318359375,0.3359375,0.1556396484375
12.769,304,2372,891,378,-0.9111328125,0.34033203125,0.1143798828125
12.776,304,2484,902,385,-0.912353515625,0.314697265625,0.07958984375
12.834,304,2683,899,375,-0.89013671875,0.2821044921875,0.062744140625
12.834,304,2809,922,390,-0.8577880859375,0.259765625,0.05419921875
12.834,304,2965,947,402,-0.8316650390625,0.251953125,0.04541015625
12.834,306,3147,1000,375,-0.8150634765625,0.2578125,0.040771484375
12.834,306,3147,1031,435,-0.8079833984375,0.2791748046875,0.05029296875
12.839,306,3147,1050,579,-0.8079833984375,0.2791748046875,0.05029296875
12.861,308,3147,1078,811,-0.804443359375,0.3419189453125,0.0947265625
12.861,308,3147,1123,897,-0.7919921875,0.3477783203125,0.0927734375
12.872,309,3147,1163,1083,-0.7919921875,0.3477783203125,0.0927734375
12.880,313,3147,1226,1336,-0.738037109375,0.232177734375,0.0528564453125
12.888,310,3147,1236,1541,-0.659912109375,0.17138671875,0.0081787109375
12.896,307,3147,1258,1809,-0.659912109375,0.17138671875,0.0081787109375
12.911,310,3147,1251,2337,-0.265625,0.0911865234375,-0.040283203125
12.919,300,3147,1323,2584,-0.0379638671875,0.1075439453125,0.0301513671875
12.938,315,3147,1424,2843,-0.0379638671875,0.1075439453125,0.0301513671875
12.958,306,3147,1553,3147,-0.1517333984375,0.275634765625,0.392578125
12.958,318,3147,1648,3147,-0.6715087890625,0.4853515625,0.442138671875
12.958,321,3147,1700,3147,-0.6715087890625,0.4853515625,0.442138671875
12.970,321,3147,1812,3147,-1.82666015625,0.8292236328125,0.445556640625
12.978,321,3147,1900,3147,-2.0980224609375,0.755126953125,0.5057373046875
12.986,323,3147,1987,3147,-2.0980224609375,0.755126953125,0.5057373046875
13.000,321,3147,1957,3147,-2.2562255859375,0.19677734375,0.1634521484375
13.008,321,3147,1939,3147,-1.951416015625,-0.09326171875,-0.1297607421875
13.016,321,3147,1894,3147,-1.951416015625,-0.09326171875,-0.1297607421875
13.032,322,3147,1908,3147,-0.9066162109375,-0.3585205078125,0.0352783203125
13.038,321,3147,1927,3147,-0.9066162109375,-0.3585205078125,0.0352783203125
13.061,321,3147,1904,3147,-0.9234619140625,0.200439453125,0.3114013671875
13.061,319,3147,1840,3147,-1.459716796875,0.8326416015625,0.304443359375
13.068,319,3147,1798,3147,-1.459716796875,0.8326416015625,0.304443359375
13.076,318,3147,1775,3147,-1.463623046875,0.6485595703125,0.1978759765625
13.091,318,3147,1730,3147,-1.1334228515625,0.33837890625,0.1640625
13.098,317,3147,1705,3147,-1.1334228515625,0.33837890625,0.1640625
13.108,317,3147,1676,3147,-1.0145263671875,0.2789306640625,0.183837890625
13.114,318,3147,1653,3147,-0.967041015625,0.2769775390625,0.216796875
13.136,316,3147,1560,3042,-0.9605712890625,0.302001953125,0.244384765625
13.136,316,3147,1474,2780,-0.9605712890625,0.32470703125,0.2318115234375
13.171,315,3147,1424,2341,-0.8919677734375,0.245849609375,0.14111328125
13.171,316,3147,1373,2047,-0.8919677734375,0.245849609375,0.14111328125
13.171,315,3147,1330,1742,-0.8299560546875,0.14013671875,0.099853515625
13.180,316,3147,1292,1340,-0.7474365234375,-0.0391845703125,0.0379638671875
13.191,315,3147,1265,1083,-0.7474365234375,-0.0391845703125,0.0379638671875
13.196,313,3147,1236,859,-0.7357177734375,-0.043701171875,0.0245361328125
13.210,304,3147,1162,442,-0.72998046875,0.16259765625,-0.0023193359375
13.219,310,3094,1133,376,-0.72998046875,0.16259765625,-0.0023193359375
13.226,308,2733,1074,373,-0.7332763671875,0.3082275390625,0.021728515625
13.240,308,2280,1000,354,-0.73583984375,0.4696044921875,0.11083984375
13.263,305,2083,966,364,-0.73583984375,0.4696044921875,0.11083984375
13.263,304,1927,933,354,-0.716552734375,0.455810546875,0.140869140625
13.275,306,1755,905,353,-0.6993408203125,0.3984375,0.1563720703125
13.279,308,1750,906,363,-0.69384765625,0.33837890625,0.1585693359375
13.286,305,1806,913,363,-0.705322265625,0.3111572265625,0.1546630859375
13.300,306,1936,917,360,-0.7381591796875,0.329833984375,0.1534423828125
13.308,306,2037,933,356,-0.7884521484375,0.3721923828125,0.156494140625
13.316,302,2113,931,364,-0.8409423828125,0.39697265625,0.1549072265625
13.330,306,2247,933,356,-0.8758544921875,0.37841796875,0.1370849609375
13.339,306,2364,949,373,-0.8826904296875,0.3192138671875,0.1053466796875
13.347,306,2573,966,378,-0.861328125,0.242431640625,0.07568359375
13.366,308,2961,1039,373,-0.8262939453125,0.1781005859375,0.059814453125
13.372,306,3147,1074,398,-0.796875,0.148681640625,0.06396484375
13.376,308,3147,1098,465,-0.783203125,0.15234375,0.0770263671875
13.391,308,3147,1136,774,-0.7869873046875,0.1815185546875,0.0732421875
13.406,310,3147,1184,968,-0.8006591796875,0.224609375,0.0657958984375
13.407,280,3147,1216,1112,-0.8192138671875,0.2745361328125,0.0828857421875
13.420,313,3147,1251,1372,-0.8536376953125,0.320556640625,0.1112060546875
13.428,313,3147,1255,1523,-0.880126953125,0.3128662109375,0.1217041015625
13.441,313,3147,1233,1825,-0.8380126953125,0.2242431640625,0.088134765625
13.451,312,3147,1224,2306,-0.678466796875,0.0709228515625,0.0091552734375
13.473,314,3147,1231,2613,-0.3912353515625,-0.1231689453125,-0.0509033203125
13.473,314,3147,1243,2870,-0.047607421875,-0.3359375,-0.0074462890625
13.476,315,3147,1375,3147,0.1680908203125,-0.4166259765625,0.1312255859375
13.491,317,3147,1543,3147,0.0516357421875,-0.1494140625,0.32763671875
13.502,316,3147,1611,3147,-0.44189453125,0.4945068359375,0.466064453125
13.512,315,3147,1679,3147,-1.0982666015625,1.2486572265625,0.367431640625
13.519,319,3147,1775,3147,-1.63330078125,1.755615234375,0.1163330078125
13.527,323,3147,1927,3147,-1.9818115234375,1.7703857421875,0.024658203125
13.536,324,3147,1981,3147,-2.287109375,1.1524658203125,0.1138916015625
13.550,323,3147,1890,3147,-2.4930419921875,0.2586669921875,0.1038818359375
13.573,321,3147,1869,3147,-2.2091064453125,-0.457275390625,0.0333251953125
13.573,310,3147,1852,3147,-1.4571533203125,-0.74560546875,0.1463623046875
13.579,323,3147,1896,3147,-0.92724609375,-0.39013671875,0.3184814453125
13.587,323,3147,1864,3147,-1.05517578125,0.288818359375,0.3050537109375
13.595,322,3147,1837,3147,-1.5047607421875,0.688720703125,0.1673583984375
13.620,321,3147,1735,3147,-1.7486572265625,0.69189453125,0.087646484375
13.622,317,3147,1695,3147,-1.66015625,0.5843505859375,0.1036376953125
13.626,318,3147,1617,3147,-1.414306640625,0.4951171875,0.13427734375
13.646,316,3147,1585,3147,-1.18017578125,0.3638916015625,0.14892578125
13.648,316,3147,1572,3147,-1.0224609375,0.2215576171875,0.1624755859375
13.655,316,3147,1497,3130,-0.925048828125,0.1591796875,0.1839599609375
13.675,316,3147,1393,2601,-0.839599609375,0.186279296875,0.207763671875
13.677,315,3147,1341,2284,-0.729248046875,0.225830078125,0.2086181640625
13.687,314,3147,1280,1934,-0.6158447265625,0.169677734375,0.1717529296875
13.700,313,3147,1236,1443,-0.531982421875,0.03955078125,0.12158203125
13.707,313,3147,1229,1076,-0.4930419921875,-0.0101318359375,0.0750732421875
13.715,313,3147,1173,780,-0.5096435546875,0.085205078125,0.01171875
13.732,304,3102,1067,375,-0.563720703125,0.2578125,-0.052734375
13.737,310,2810,1026,388,-0.6142578125,0.4200439453125,-0.0633544921875
13.752,308,2505,1004,383,-0.65673828125,0.501220703125,-0.0172119140625
13.774,306,2124,963,360,-0.7171630859375,0.4830322265625,0.03564453125
13.774,305,1894,917,343,-0.7860107421875,0.41064453125,0.058837890625
13.778,305,1597,905,352,-0.84423828125,0.340576171875,0.0552978515625
13.790,306,1294,846,352,-0.8800048828125,0.3056640625,0.064697265625
13.798,302,1209,827,348,-0.89111328125,0.310302734375,0.1048583984375
13.805,301,1108,803,351,-0.886962890625,0.336181640625,0.1556396484375
13.819,302,1005,764,344,-0.8779296875,0.3583984375,0.188720703125
13.838,302,931,750,346,-0.8736572265625,0.367919921875,0.196044921875
13.839,301,907,744,344,-0.8736572265625,0.367919921875,0.196044921875
13.853,300,846,695,337,-0.856201171875,0.33935546875,0.17138671875
13.858,302,887,693,343,-0.8365478515625,0.30810546875,0.146484375
13.882,301,910,693,343,-0.8365478515625,0.30810546875,0.146484375
13.882,304,963,711,342,-0.81396484375,0.267822265625,0.0863037109375
13.888,302,1025,735,347,-0.808837890625,0.2587890625,0.0723876953125
13.895,302,1172,754,352,-0.808837890625,0.2587890625,0.0723876953125
13.909,300,1456,780,354,-0.7939453125,0.251220703125,0.0589599609375
13.917,304,1667,814,364,-0.799560546875,0.2652587890625,0.0714111328125
13.925,304,1819,827,363,-0.799560546875,0.2652587890625,0.0714111328125
13.939,304,2194,837,363,-0.8082275390625,0.3272705078125,0.08154296875
13.959,304,2503,879,382,-0.7838134765625,0.323974609375,0.0355224609375
13.959,306,2733,917,384,-0.7838134765625,0.323974609375,0.0355224609375
13.980,306,3147,962,493,-0.6954345703125,0.2783203125,-0.06689453125
13.980,306,3147,962,815,-0.58203125,0.25341796875,-0.065673828125
13.986,308,3147,973,1081,-0.58203125,0.25341796875,-0.065673828125
14.000,306,3147,998,1695,-0.2452392578125,0.236328125,0.0350341796875
14.007,313,3147,1078,2053,-0.1148681640625,0.1650390625,-0.040283203125
14.015,312,3147,1170,2384,-0.1148681640625,0.1650390625,-0.040283203125
14.029,315,3147,1386,2890,-0.275634765625,0.0887451171875,0.0523681640625
14.043,316,3147,1483,3147,-0.5401611328125,0.30126953125,0.3817138671875
14.045,315,3147,1569,3147,-0.5401611328125,0.30126953125,0.3817138671875
14.063,318,3147,1662,3147,-1.322509765625,0.614990234375,0.7452392578125
14.086,306,3147,1708,3147,-1.322509765625,0.614990234375,0.7452392578125
14.086,319,3147,1704,3147,-1.7197265625,0.4893798828125,0.598388671875
14.090,321,3147,1809,3147,-2.25048828125,0.3494873046875,0.290283203125
14.098,318,3147,1733,3147,-2.25048828125,0.3494873046875,0.290283203125
14.105,316,3147,1611,3147,-2.382568359375,0.1510009765625,0.147705078125
14.119,317,3147,1604,3147,-1.3876953125,-0.15283203125,0.0328369140625
14.127,317,3147,1643,3147,-1.3876953125,-0.15283203125,0.0328369140625
14.136,316,3147,1669,3147,-0.9613037109375,0.339599609375,0.4005126953125
14.151,318,3147,1588,3147,-1.379150390625,0.9696044921875,0.409912109375
14.161,301,3147,1559,3147,-1.379150390625,0.9696044921875,0.409912109375
14.165,316,3147,1529,3147,-1.515380859375,0.6727294921875,0.2110595703125
14.186,316,3147,1393,3147,-1.2816162109375,0.3651123046875,0.1214599609375
14.188,313,3147,1344,3147,-1.2816162109375,0.3651123046875,0.1214599609375
14.195,315,3147,1328,3130,-1.1422119140625,0.3238525390625,0.1221923828125
14.209,313,3147,1202,2709,-0.92626953125,0.06884765625,0.1051025390625
14.218,311,3147,1175,2372,-0.92626953125,0.06884765625,0.1051025390625
14.225,310,3147,1132,2176,-0.8372802734375,-0.0751953125,0.06298828125
14.239,310,3147,1107,1676,-0.6624755859375,0.028564453125,0.0557861328125
14.247,310,3147,1091,1456,-0.6624755859375,0.028564453125,0.0557861328125
14.266,310,3147,1078,1185,-0.6199951171875,0.1807861328125,0.0670166015625
14.269,305,3147,1038,706,-0.6622314453125,0.3133544921875,0.006103515625
14.296,308,3147,1001,360,-0.6622314453125,0.3133544921875,0.006103515625
14.296,307,2935,936,344,-0.6998291015625,0.3514404296875,-0.0399169921875
14.302,308,2111,846,344,-0.73046875,0.405517578125,-0.015380859375
14.307,304,1744,787,334,-0.741455078125,0.4423828125,0.063232421875
14.315,305,1480,694,330,-0.7413330078125,0.44091796875,0.1265869140625
14.329,302,1265,634,336,-0.75,0.4122314453125,0.150634765625
14.337,302,1143,567,330,-0.7630615234375,0.3724365234375,0.1495361328125
14.345,294,939,435,328,-0.77099609375,0.3404541015625,0.1326904296875
14.371,300,871,369,324,-0.77783203125,0.332763671875,0.117919921875
14.372,306,784,387,324,-0.7950439453125,0.343017578125,0.1197509765625
14.391,299,784,361,324,-0.8194580078125,0.331787109375,0.1146240234375
14.391,280,749,406,323,-0.8564453125,0.32177734375,0.0875244140625
14.404,299,766,363,324,-0.8953857421875,0.36474609375,0.0911865234375
14.405,299,777,371,330,-0.90869140625,0.407470703125,0.12646484375
14.419,296,753,338,328,-0.89453125,0.40234375,0.125732421875
14.427,296,739,343,334,-0.8572998046875,0.375244140625,0.098388671875
14.436,293,750,359,334,-0.8011474609375,0.3453369140625,0.08154296875
14.449,296,816,361,334,-0.73828125,0.3057861328125,0.068115234375
14.458,296,905,430,343,-0.6954345703125,0.23828125,0.0528564453125
14.474,298,1188,468,348,-0.687255859375,0.15576171875,0.046142578125
14.490,298,1603,518,356,-0.70849609375,0.1151123046875,0.0537109375
14.490,296,1855,578,348,-0.7554931640625,0.1533203125,0.08154296875
14.496,300,2170,588,359,-0.8128662109375,0.2447509765625,0.11376953125
14.516,300,2677,601,359,-0.8541259765625,0.324462890625,0.112060546875
14.518,302,3054,661,342,-0.8594970703125,0.345947265625,0.072998046875
14.525,304,3147,679,419,-0.818115234375,0.3138427734375,0.018798828125
14.540,306,3147,692,872,-0.737548828125,0.2490234375,-0.021484375
14.548,308,3147,740,1149,-0.63232421875,0.18017578125,-0.0400390625
14.556,307,3147,813,1422,-0.52490234375,0.1556396484375,-0.0496826171875
14.575,306,3147,966,1934,-0.4163818359375,0.1685791015625,-0.044677734375
14.593,308,3147,1053,2258,-0.3033447265625,0.15185546875,0.034423828125
14.594,313,3147,1172,2524,-0.1829833984375,0.0711669921875,0.1802978515625
14.603,299,3147,1366,3010,-0.1287841796875,0.0167236328125,0.2689208984375
14.611,315,3147,1452,3147,-0.287109375,0.1531982421875,0.3184814453125
14.616,313,3147,1494,3147,-0.657470703125,0.5615234375,0.3853759765625
14.629,316,3147,1534,3147,-1.1083984375,1.19384765625,0.4173583984375
14.637,310,3147,1588,3147,-1.54296875,1.6773681640625,0.43310546875
14.645,316,3147,1656,3147,-1.9888916015625,1.51611328125,0.4803466796875
14.660,321,3147,1744,3147,-2.4451904296875,0.797119140625,0.400390625
14.672,321,3147,1732,3147,-2.6748046875,-0.045654296875,0.06103515625
14.700,318,3147,1730,3147,-2.2584228515625,-0.680419921875,-0.2587890625
14.700,306,3147,1769,3147,-1.3765869140625,-0.7589111328125,-0.1322021484375
14.700,304,3147,1785,3147,-0.914794921875,-0.19482421875,0.2935791015625
14.706,321,3147,1769,3147,-1.175537109375,0.4752197265625,0.498291015625
14.721,321,3147,1665,3147,-1.5970458984375,0.684814453125,0.408935546875
14.728,316,3147,1615,3147,-1.7061767578125,0.5135498046875,0.25830078125
14.742,316,3147,1580,3147,-1.5382080078125,0.330078125,0.1724853515625
14.752,316,3147,1501,3147,-1.2840576171875,0.244140625,0.1634521484375
14.759,308,3147,1416,3147,-1.0633544921875,0.1956787109375,0.1781005859375
14.802,304,3147,1398,3098,-0.9068603515625,0.2286376953125,0.1583251953125
14.803,308,3147,1274,2679,-0.79736328125,0.3505859375,0.134521484375
14.803,313,3147,1228,2432,-0.7191162109375,0.4644775390625,0.1270751953125
14.805,314,3147,1157,2114,-0.64794921875,0.495361328125,0.0911865234375
14.811,310,3147,1120,1569,-0.586181640625,0.3831787109375,0.0093994140625
14.818,313,3147,1097,1348,-0.5472412109375,0.1832275390625,-0.053466796875
14.826,309,3147,1105,1063,-0.5361328125,0.06689453125,-0.0501708984375
14.841,308,3147,1047,682,-0.5626220703125,0.09228515625,-0.0390625
14.853,308,3147,1029,468,-0.6239013671875,0.191650390625,-0.0491943359375
14.856,307,3147,1012,391,-0.6966552734375,0.291015625,-0.0361328125
14.877,306,2683,905,365,-0.751708984375,0.3536376953125,0.0181884765625
14.877,308,2412,860,361,-0.78173828125,0.375244140625,0.102783203125
14.904,305,2224,849,360,-0.7979736328125,0.3515625,0.1837158203125
14.905,306,2008,846,360,-0.81982421875,0.302978515625,0.21435546875
14.907,304,1904,858,360,-0.852783203125,0.2713623046875,0.1962890625
14.916,304,1786,830,347,-0.88525390625,0.26611328125,0.162841796875
14.930,304,1596,785,347,-0.9053955078125,0.2764892578125,0.1365966796875
14.944,304,1497,767,355,-0.902099609375,0.29638671875,0.1229248046875
14.945,304,1453,763,332,-0.8770751953125,0.315673828125,0.120849609375
14.965,304,1401,732,345,-0.849853515625,0.3243408203125,0.12109375
14.968,304,1464,720,342,-0.8331298828125,0.321533203125,0.108642578125
14.980,304,1546,712,334,-0.8331298828125,0.321533203125,0.108642578125
15.011,304,1681,735,330,-0.828369140625,0.2955322265625,0.0625
15.013,305,1796,765,346,-0.831298828125,0.2760009765625,0.062255859375
15.014,304,1869,773,346,-0.831298828125,0.2760009765625,0.062255859375
15.020,304,2141,808,346,-0.83154296875,0.2679443359375,0.0928955078125
15.028,304,2261,828,338,-0.814697265625,0.2615966796875,0.1053466796875
15.035,308,2356,859,354,-0.814697265625,0.2615966796875,0.1053466796875
15.050,306,2769,899,359,-0.7724609375,0.2666015625,0.089599609375
15.057,307,3034,951,344,-0.7708740234375,0.2906494140625,0.0731201171875
15.065,309,3147,989,345,-0.7708740234375,0.2906494140625,0.0731201171875
15.086,310,3147,1065,607,-0.789306640625,0.3343505859375,0.0634765625
15.088,310,3147,1101,834,-0.783203125,0.297119140625,0.070068359375
15.111,310,3147,1156,1064,-0.783203125,0.297119140625,0.070068359375
15.122,310,3147,1146,1572,-0.610107421875,0.089599609375,0.046630859375
15.125,310,3147,1118,1858,-0.431640625,0.0128173828125,0.0487060546875
15.152,315,3147,1138,2261,-0.431640625,0.0128173828125,0.0487060546875
15.152,313,3147,1236,2758,-0.0638427734375,0.022705078125,0.1993408203125
15.156,315,3147,1358,3046,-0.0157470703125,0.0804443359375,0.3623046875
15.165,315,3147,1429,3147,-0.0157470703125,0.0804443359375,0.3623046875
15.185,317,3147,1610,3147,-0.6607666015625,0.6077880859375,0.5184326171875
15.190,318,3147,1669,3147,-1.246337890625,1.0941162109375,0.286376953125
15.190,321,3147,1762,3147,-1.246337890625,1.0941162109375,0.286376953125
15.224,323,3147,1855,3147,-2.2025146484375,1.0841064453125,0.03662109375
15.225,323,3147,1899,3147,-2.2025146484375,1.0841064453125,0.03662109375
15.225,318,3147,1894,3147,-2.544677734375,0.4671630859375,-0.0140380859375
15.230,321,3147,1795,3147,-2.00830078125,-0.638427734375,-0.0574951171875
15.238,318,3147,1762,3147,-2.00830078125,-0.638427734375,-0.0574951171875
15.245,321,3147,1785,3147,-1.1400146484375,-0.7076416015625,0.150390625
15.260,321,3147,1791,3147,-1.1025390625,0.603271484375,0.425048828125
15.268,321,3147,1759,3147,-1.1025390625,0.603271484375,0.425048828125
15.275,321,3147,1695,3147,-1.5006103515625,0.9830322265625,0.2896728515625
15.290,316,3147,1580,3147,-1.4476318359375,0.5064697265625,0.15234375
15.312,317,3147,1504,3147,-1.4476318359375,0.5064697265625,0.15234375
15.328,318,3147,1441,3147,-1.2119140625,0.28955078125,0.2183837890625
15.329,310,3147,1306,3147,-0.9840087890625,0.26806640625,0.2264404296875
15.336,315,3147,1202,3147,-0.9840087890625,0.26806640625,0.2264404296875
15.342,314,3147,1115,3066,-0.9710693359375,0.3673095703125,0.160400390625
15.350,310,3147,1064,2538,-0.8822021484375,0.4002685546875,0.0185546875
15.359,313,3147,1012,2202,-0.8822021484375,0.4002685546875,0.0185546875
15.366,308,3147,1017,1700,-0.802001953125,0.222412109375,0.0191650390625
15.387,308,3147,996,1163,-0.664306640625,-0.0618896484375,0.0556640625
15.388,308,3147,978,867,-0.664306640625,-0.0618896484375,0.0556640625
15.401,306,3147,918,536,-0.6279296875,-0.0421142578125,0.073974609375
15.417,302,3016,809,356,-0.650146484375,0.165283203125,-0.0001220703125
15.418,304,2712,778,356,-0.650146484375,0.165283203125,-0.0001220703125
15.431,302,2407,700,382,-0.669677734375,0.26806640625,-0.0198974609375
15.441,300,2151,639,354,-0.6553955078125,0.3743896484375,0.1259765625
15.448,299,2056,614,371,-0.6553955078125,0.3743896484375,0.1259765625
15.456,296,2009,533,361,-0.669189453125,0.35546875,0.19140625
15.470,299,1880,533,351,-0.7528076171875,0.3109130859375,0.1790771484375
15.478,296,1850,567,363,-0.7528076171875,0.3109130859375,0.1790771484375
15.491,299,1900,537,361,-0.7989501953125,0.338623046875,0.1805419921875
15.504,299,1914,546,349,-0.870849609375,0.4332275390625,0.200927734375
15.518,298,1978,589,361,-0.870849609375,0.4332275390625,0.200927734375
15.518,293,2024,588,353,-0.9000244140625,0.432373046875,0.1737060546875
15.536,302,2080,588,334,-0.91943359375,0.3919677734375,0.1312255859375
15.540,299,2128,591,357,-0.92041015625,0.333740234375,0.0892333984375
15.548,300,2190,620,359,-0.9049072265625,0.28173828125,0.0567626953125
15.560,302,2379,631,347,-0.88330078125,0.2501220703125,0.042724609375
15.569,300,2519,607,359,-0.868896484375,0.2423095703125,0.0479736328125
15.576,300,2619,625,360,-0.864013671875,0.2452392578125,0.0618896484375
15.592,302,2820,642,354,-0.859619140625,0.2479248046875,0.068115234375
15.599,300,2888,648,364,-0.8568115234375,0.2552490234375,0.064208984375
15.607,302,2981,682,371,-0.865478515625,0.2640380859375,0.067138671875
15.621,304,3147,666,378,-0.881591796875,0.253662109375,0.0802001953125
15.628,300,3147,678,598,-0.8638916015625,0.198974609375,0.064208984375
15.647,300,3147,666,794,-0.7740478515625,0.1138916015625,-0.0084228515625
15.651,307,3147,725,1166,-0.6282958984375,0.052978515625,-0.0703125
15.659,308,3147,733,1531,-0.442626953125,0.0677490234375,-0.0384521484375
15.666,302,3147,794,1892,-0.227783203125,0.171875,0.0570068359375
15.680,308,3147,952,2435,-0.00146484375,0.244140625,0.090576171875
15.694,311,3147,1101,2621,0.121826171875,0.2332763671875,-0.011474609375
15.696,312,3147,1189,3007,-0.0213623046875,0.2957763671875,-0.0875244140625
15.725,315,3147,1419,3147,-0.453857421875,0.6119384765625,-0.0345458984375
15.730,317,3147,1529,3147,-1.0020751953125,1.0986328125,0.1407470703125
15.731,302,3147,1589,3147,-1.4420166015625,1.419677734375,0.394775390625
15.737,316,3147,1640,3147,-1.6910400390625,1.3328857421875,0.5697021484375
15.754,316,3147,1748,3147,-1.8536376953125,0.8350830078125,0.630615234375
15.758,318,3147,1730,3147,-2.075439453125,0.1773681640625,0.5870361328125
15.766,317,3147,1590,3147,-2.2763671875,-0.374267578125,0.3922119140625
15.779,316,3147,1453,3147,-2.0869140625,-0.7376708984375,0.090087890625
15.787,309,3147,1488,3147,-1.50048828125,-0.74365234375,0.02099609375
15.797,316,3147,1476,3147,-1.15966796875,-0.1689453125,0.3250732421875
15.826,317,3147,1433,3147,-1.3701171875,0.6484375,0.5753173828125
15.827,316,3147,1382,3147,-1.724609375,1.0062255859375,0.4541015625
15.828,316,3147,1292,3147,-1.7808837890625,0.778076171875,0.146484375
15.839,313,3147,1173,3147,-1.5205078125,0.443359375,-0.0260009765625
15.855,310,3147,1138,3126,-1.1773681640625,0.2886962890625,0.0264892578125
15.855,310,3147,1153,2833,-0.9202880859375,0.2198486328125,0.1573486328125
15.869,310,3147,1064,2235,-0.7633056640625,0.136962890625,0.200927734375
15.878,310,3147,1063,1834,-0.654052734375,0.0745849609375,0.1302490234375
15.885,308,3147,1014,1546,-0.574951171875,0.0576171875,0.0338134765625
15.900,308,3147,957,883,-0.5457763671875,0.0732421875,-0.0107421875
15.907,305,3147,927,493,-0.5560302734375,0.101318359375,-0.0225830078125
15.925,300,2988,899,383,-0.58154296875,0.1290283203125,-0.04345703125
15.929,302,2280,832,361,-0.60107421875,0.1993408203125,-0.0372314453125
15.940,304,2085,788,371,-0.596923828125,0.2825927734375,0.0364990234375
15.945,300,1837,698,361,-0.615234375,0.31982421875,0.1192626953125
15.960,298,1441,644,346,-0.6748046875,0.32958984375,0.170654296875
15.967,300,1236,614,354,-0.7396240234375,0.3377685546875,0.1976318359375
15.978,300,1071,579,328,-0.7965087890625,0.3489990234375,0.2099609375
15.989,300,895,482,323,-0.8345947265625,0.3563232421875,0.213134765625
16.003,299,816,385,330,-0.849609375,0.352783203125,0.193359375
16.005,299,808,400,334,-0.852294921875,0.350341796875,0.1495361328125
16.028,299,838,388,326,-0.847900390625,0.3623046875,0.112060546875
16.030,302,837,401,328,-0.8402099609375,0.3822021484375,0.099365234375
16.036,301,883,388,327,-0.8345947265625,0.39599609375,0.1005859375
16.051,298,920,389,328,-0.8310546875,0.3939208984375,0.105712890625
16.058,298,922,480,342,-0.8292236328125,0.375244140625,0.102294921875
16.067,299,991,535,336,-0.829345703125,0.3482666015625,0.0865478515625
16.080,299,1175,590,334,-0.8291015625,0.321044921875,0.0684814453125
16.091,299,1348,617,344,-0.829833984375,0.3031005859375,0.0574951171875
16.095,300,1441,642,347,-0.829833984375,0.3031005859375,0.0574951171875
16.110,300,1617,682,348,-0.84326171875,0.3304443359375,0.05615234375
16.132,300,1681,732,360,-0.852294921875,0.3487548828125,0.05810546875
16.133,300,1820,753,364,-0.852294921875,0.3487548828125,0.05810546875
16.140,304,2102,761,337,-0.884521484375,0.3367919921875,0.055908203125
16.148,304,2233,769,348,-0.9139404296875,0.317138671875,0.0548095703125
16.156,304,2368,788,347,-0.9139404296875,0.317138671875,0.0548095703125
16.175,302,2636,826,369,-0.957763671875,0.2462158203125,0.07421875
16.178,300,2864,849,390,-0.9310302734375,0.203369140625,0.062744140625
16.185,304,3027,891,400,-0.9310302734375,0.203369140625,0.062744140625
16.211,304,3147,987,400,-0.7744140625,0.1890869140625,0.00390625
16.211,308,3147,1004,591,-0.726318359375,0.24951171875,0.046630859375
16.235,307,3147,1038,744,-0.726318359375,0.24951171875,0.046630859375
16.237,308,3147,1070,1108,-0.690185546875,0.4476318359375,0.1231689453125
16.239,308,3147,1145,1348,-0.6358642578125,0.4395751953125,0.1121826171875
16.247,312,3147,1173,1755,-0.6358642578125,0.4395751953125,0.1121826171875
16.261,313,3147,1260,2268,-0.391357421875,0.1448974609375,-0.0081787109375
16.268,313,3147,1343,2532,-0.176513671875,-0.0584716796875,0.009765625
16.280,314,3147,1383,2821,-0.176513671875,-0.0584716796875,0.009765625
16.290,316,3147,1516,3147,-0.1058349609375,0.2376708984375,0.3251953125
16.298,316,3147,1575,3147,-0.4862060546875,0.7388916015625,0.5177001953125
16.317,317,3147,1667,3147,-0.4862060546875,0.7388916015625,0.5177001953125
16.334,318,3147,1744,3147,-1.3988037109375,1.323486328125,0.447265625
16.342,307,3147,1880,3147,-1.765380859375,1.149169921875,0.2392578125
16.343,324,3147,1931,3147,-1.765380859375,1.149169921875,0.2392578125
16.346,323,3147,1973,3147,-2.1383056640625,0.6129150390625,0.0950927734375
16.361,323,3147,1899,3147,-2.446044921875,-0.3861083984375,-0.089111328125
16.368,322,3147,1850,3147,-2.446044921875,-0.3861083984375,-0.089111328125
16.375,323,3147,1790,3147,-1.765625,-0.6785888671875,0.000732421875
16.390,319,3147,1775,3147,-0.6220703125,-0.2427978515625,0.5714111328125
16.397,322,3147,1787,3147,-0.6220703125,-0.2427978515625,0.5714111328125
16.417,318,3147,1786,3147,-0.9718017578125,0.36083984375,0.586669921875
16.419,321,3147,1681,3147,-1.67724609375,0.7706298828125,0.1767578125
16.446,318,3147,1635,3147,-1.67724609375,0.7706298828125,0.1767578125
16.446,317,3147,1604,3147,-1.5673828125,0.6534423828125,0.062744140625
16.452,316,3147,1529,3147,-1.1041259765625,0.4598388671875,0.161865234375
16.464,316,3147,1478,3147,-1.1041259765625,0.4598388671875,0.161865234375
16.467,315,3147,1393,3147,-0.982421875,0.4915771484375,0.237060546875
16.479,312,3147,1328,2953,-0.903076171875,0.539306640625,0.1990966796875
16.493,315,3147,1280,2632,-0.903076171875,0.539306640625,0.1990966796875
16.496,313,3147,1195,2284,-0.8565673828125,0.41162109375,0.1353759765625
16.515,308,3147,1101,1655,-0.6978759765625,0.01220703125,0.0399169921875
16.518,310,3147,1070,1365,-0.6978759765625,0.01220703125,0.0399169921875
16.530,310,3147,1051,1067,-0.652099609375,-0.073974609375,0.0208740234375
16.545,308,3147,948,603,-0.6666259765625,-0.0582275390625,0.0218505859375
16.548,306,3147,949,400,-0.7093505859375,-0.0069580078125,0.0189208984375
16.556,306,2946,917,370,-0.73876953125,0.05029296875,-0.0107421875
16.571,304,2532,815,347,-0.736572265625,0.1422119140625,-0.019775390625
16.577,304,2306,793,347,-0.7174072265625,0.2562255859375,0.0252685546875
16.586,300,2087,693,361,-0.708984375,0.3448486328125,0.0888671875
16.599,304,1770,673,342,-0.7177734375,0.3914794921875,0.14453125
16.607,302,1629,675,332,-0.723876953125,0.3983154296875,0.18212890625
16.617,301,1523,630,332,-0.7232666015625,0.3802490234375,0.182861328125
16.642,302,1529,607,334,-0.7286376953125,0.37353515625,0.1666259765625
16.643,300,1580,623,347,-0.7423095703125,0.4052734375,0.1649169921875
16.654,300,1638,636,346,-0.7601318359375,0.475341796875,0.173828125
16.660,304,1732,654,344,-0.780029296875,0.54541015625,0.176513671875
16.668,302,1792,677,346,-0.8023681640625,0.5577392578125,0.164794921875
16.675,302,1840,684,347,-0.82568359375,0.5047607421875,0.14501953125
16.689,302,1981,707,336,-0.8499755859375,0.4212646484375,0.1278076171875
16.698,302,2047,739,351,-0.871826171875,0.336181640625,0.1136474609375
16.706,304,2111,754,354,-0.8824462890625,0.267822265625,0.094482421875
16.719,302,2306,787,353,-0.866455078125,0.214111328125,0.0634765625
16.727,304,2525,815,364,-0.816650390625,0.17822265625,0.0213623046875
16.748,302,2746,834,371,-0.76123046875,0.1812744140625,0.0054931640625
16.752,291,3147,860,371,-0.7244873046875,0.2216796875,0.03955078125
16.759,304,3147,865,523,-0.703369140625,0.2672119140625,0.0701904296875
