time,compression0,compression1,compression2,compression3,accel_x,accel_y,accel_z
0.028,300,951,562,328,-0.8228759765625,0.6251220703125,-0.096923828125
0.028,286,932,555,323,-0.83251953125,0.62060546875,-0.1021728515625
0.030,300,907,548,323,-0.8309326171875,0.6064453125,-0.105712890625
0.040,299,900,564,323,-0.818359375,0.58837890625,-0.1068115234375
0.047,300,899,561,323,-0.797607421875,0.568603515625,-0.107421875
0.059,300,883,567,323,-0.77490234375,0.5533447265625,-0.1085205078125
0.067,300,894,568,324,-0.75830078125,0.544677734375,-0.1090087890625
0.075,299,883,563,323,-0.7633056640625,0.541015625,-0.105224609375
0.089,300,883,576,323,-0.7843017578125,0.5557861328125,-0.095703125
0.103,300,872,580,323,-0.8050537109375,0.5831298828125,-0.0875244140625
0.123,299,871,586,323,-0.8209228515625,0.5946044921875,-0.0877685546875
0.130,300,852,576,323,-0.824462890625,0.587646484375,-0.0946044921875
0.130,300,829,582,300,-0.81591796875,0.5733642578125,-0.1025390625
0.136,300,832,588,323,-0.799560546875,0.561279296875,-0.1065673828125
0.144,300,832,578,323,-0.77978515625,0.5523681640625,-0.10205078125
0.158,300,814,588,323,-0.764892578125,0.5399169921875,-0.0877685546875
0.166,300,811,588,323,-0.7608642578125,0.529296875,-0.0697021484375
0.174,300,806,594,323,-0.7701416015625,0.5260009765625,-0.0557861328125
0.188,299,887,591,322,-0.793212890625,0.5274658203125,-0.0487060546875
0.206,300,897,597,324,-0.82373046875,0.53369140625,-0.045166015625
0.206,289,922,588,323,-0.851806640625,0.543212890625,-0.042724609375
0.235,302,910,584,323,-0.8648681640625,0.552734375,-0.04638671875
0.235,283,883,579,321,-0.8585205078125,0.5572509765625,-0.0582275390625
0.235,300,871,598,323,-0.8377685546875,0.5574951171875,-0.072265625
0.248,301,871,590,323,-0.8115234375,0.5577392578125,-0.0843505859375
0.256,302,879,584,323,-0.7908935546875,0.556884765625,-0.09228515625
0.264,300,895,582,323,-0.7908935546875,0.556884765625,-0.09228515625
0.278,300,910,576,321,-0.78076171875,0.555908203125,-0.095458984375
0.288,300,918,567,323,-0.7879638671875,0.55810546875,-0.095947265625
0.294,300,944,579,323,-0.7879638671875,0.55810546875,-0.095947265625
0.308,300,1000,576,323,-0.7962646484375,0.55126953125,-0.0894775390625
0.331,300,998,562,327,-0.790283203125,0.536865234375,-0.0828857421875
0.332,300,1018,551,323,-0.790283203125,0.536865234375,-0.0828857421875
0.343,300,1065,572,325,-0.77685546875,0.5283203125,-0.0767822265625
0.346,300,1091,576,324,-0.7781982421875,0.54052734375,-0.0787353515625
0.356,300,1131,578,324,-0.7781982421875,0.54052734375,-0.0787353515625
0.368,300,1183,590,327,-0.818115234375,0.5863037109375,-0.08349609375
0.376,299,1209,607,327,-0.8524169921875,0.6107177734375,-0.0904541015625
0.384,299,1282,620,328,-0.8524169921875,0.6107177734375,-0.0904541015625
0.398,301,1336,639,324,-0.8507080078125,0.5626220703125,-0.0908203125
0.409,300,1413,656,328,-0.7939453125,0.5233154296875,-0.0474853515625
0.414,300,1588,667,327,-0.7939453125,0.5233154296875,-0.0474853515625
0.441,300,1900,660,332,-0.620361328125,0.48193359375,0.097900390625
0.441,300,2263,649,332,-0.54052734375,0.3851318359375,0.0806884765625
0.444,300,2645,675,334,-0.54052734375,0.3851318359375,0.0806884765625
0.459,300,3147,684,332,-0.4415283203125,0.13916015625,-0.09521484375
0.466,300,3147,711,406,-0.39990234375,0.14111328125,-0.1185302734375
0.474,299,3147,705,562,-0.39990234375,0.14111328125,-0.1185302734375
0.488,300,3147,777,814,-0.2247314453125,0.41943359375,0.083740234375
0.496,304,3147,788,1031,-0.2247314453125,0.41943359375,0.083740234375
0.511,302,3147,803,1146,-0.1630859375,0.619873046875,0.13037109375
0.518,300,3147,856,1390,-0.32275390625,0.609375,-0.1048583984375
0.541,302,3147,872,1569,-0.32275390625,0.609375,-0.1048583984375
0.542,289,3147,932,1675,-0.6259765625,0.730712890625,-0.189208984375
0.550,304,3147,1050,1914,-1.5357666015625,1.4588623046875,0.0946044921875
0.556,302,3147,1100,2104,-1.5357666015625,1.4588623046875,0.0946044921875
0.568,302,3147,1107,2418,-2.0439453125,1.22216796875,0.1015625
0.578,304,3147,1103,2306,-2.4129638671875,-0.353759765625,-0.150146484375
0.586,302,3147,1063,2195,-2.4129638671875,-0.353759765625,-0.150146484375
0.594,300,3147,973,2012,-2.0140380859375,-0.8204345703125,-0.1329345703125
0.615,304,3147,932,1987,-1.1634521484375,-0.10986328125,0.1370849609375
0.616,302,3147,913,1948,-1.1634521484375,-0.10986328125,0.1370849609375
0.636,304,3147,917,1840,-1.2137451171875,0.818603515625,0.2476806640625
0.646,290,3147,897,1611,-1.4613037109375,1.160888671875,0.2366943359375
0.647,304,3147,898,1509,-1.4613037109375,1.160888671875,0.2366943359375
0.654,304,3147,895,1437,-1.308349609375,0.4793701171875,0.1983642578125
0.668,296,3147,869,1185,-0.9239501953125,-0.5269775390625,0.070556640625
0.681,301,3147,858,1013,-0.9239501953125,-0.5269775390625,0.070556640625
0.684,302,3147,815,884,-0.8233642578125,-0.445068359375,-0.0186767578125
0.698,302,3147,744,708,-0.775390625,-0.1168212890625,0.0
0.706,344,3147,691,562,-0.754150390625,0.205078125,0.0714111328125
0.716,304,3147,666,345,-0.7374267578125,0.41943359375,0.05810546875
0.728,302,2921,660,332,-0.714111328125,0.5416259765625,-0.040283203125
0.737,302,2659,660,331,-0.696044921875,0.6209716796875,-0.12841796875
0.744,302,2296,600,328,-0.665283203125,0.66650390625,-0.1422119140625
0.759,300,1786,580,324,-0.6290283203125,0.659423828125,-0.1063232421875
0.769,300,1508,555,327,-0.6292724609375,0.6519775390625,-0.0687255859375
0.775,300,1400,526,324,-0.6546630859375,0.6590576171875,-0.02197265625
0.794,300,1178,433,322,-0.703857421875,0.4837646484375,0.029541015625
0.797,299,1051,414,327,-0.703857421875,0.4837646484375,0.029541015625
0.805,300,944,416,323,-0.7296142578125,0.4080810546875,-0.0050048828125
0.819,300,867,411,323,-0.7667236328125,0.4180908203125,-0.0133056640625
0.844,300,816,411,324,-0.8037109375,0.4471435546875,-0.000732421875
0.844,301,805,405,321,-0.8284912109375,0.449951171875,-0.0106201171875
0.849,301,816,438,324,-0.8380126953125,0.431640625,-0.040771484375
0.858,300,842,432,323,-0.83642578125,0.41259765625,-0.06689453125
0.868,300,800,442,326,-0.841552734375,0.4039306640625,-0.08203125
0.879,300,749,442,322,-0.848876953125,0.409423828125,-0.09130859375
0.887,300,750,464,322,-0.8397216796875,0.4134521484375,-0.0963134765625
0.895,299,759,462,321,-0.816162109375,0.4017333984375,-0.08447265625
0.910,300,797,465,321,-0.7850341796875,0.378173828125,-0.0487060546875
0.919,300,878,461,323,-0.7542724609375,0.3521728515625,-0.0135498046875
0.925,300,949,455,324,-0.7288818359375,0.32763671875,-0.0068359375
0.945,301,1050,465,324,-0.7166748046875,0.3016357421875,-0.0213623046875
0.947,299,1207,470,322,-0.72216796875,0.2843017578125,-0.0299072265625
0.955,300,1453,497,330,-0.7376708984375,0.2823486328125,-0.019775390625
0.972,301,1959,531,324,-0.75341796875,0.29443359375,-0.00244140625
0.977,300,2195,537,330,-0.7681884765625,0.316650390625,0.0118408203125
0.985,300,2484,541,332,-0.771484375,0.321533203125,0.019287109375
0.999,300,2976,571,331,-0.7569580078125,0.3009033203125,0.0126953125
1.007,302,3147,614,334,-0.73681640625,0.3123779296875,-0.0155029296875
1.028,302,3147,636,430,-0.713134765625,0.394775390625,-0.048828125
1.029,304,3147,683,735,-0.6739501953125,0.481689453125,-0.0211181640625
1.048,302,3147,668,867,-0.588134765625,0.4862060546875,0.096435546875
1.049,304,3147,731,975,-0.421142578125,0.3895263671875,0.1744384765625
1.059,304,3147,815,1243,-0.2244873046875,0.2247314453125,0.1456298828125
1.073,304,3147,888,1359,-0.1177978515625,0.091796875,0.1180419921875
1.075,302,3147,910,1467,-0.15380859375,0.032470703125,0.1395263671875
1.130,302,3147,966,1548,-0.352294921875,0.04931640625,0.19921875
1.130,302,3147,1000,1656,-0.6875,0.2340087890625,0.2928466796875
1.130,296,3147,1018,1733,-1.083251953125,0.580078125,0.3494873046875
1.134,304,3147,1083,1925,-1.537353515625,0.97314453125,0.26171875
1.150,304,3147,1143,2053,-2.0054931640625,1.2255859375,0.023681640625
1.151,292,3147,1170,2128,-2.401611328125,1.1142578125,-0.2249755859375
1.151,302,3147,1172,2127,-2.5841064453125,0.724365234375,-0.3892822265625
1.157,304,3147,1167,2144,-2.21435546875,0.075439453125,-0.364990234375
1.166,302,3147,1191,2190,-1.46484375,-0.393310546875,-0.04150390625
1.179,304,3147,1175,2218,-1.0859375,0.077880859375,0.3258056640625
1.187,302,3147,1156,2190,-1.2537841796875,0.8988037109375,0.3907470703125
1.195,302,3147,1137,2155,-1.5159912109375,1.104736328125,0.19189453125
1.209,304,3147,1083,2028,-1.5670166015625,0.843994140625,0.0341796875
1.217,302,3147,1029,1914,-1.4407958984375,0.5955810546875,0.051025390625
1.227,302,3147,978,1796,-1.2657470703125,0.4351806640625,0.1116943359375
1.254,302,3147,922,1519,-1.126953125,0.2698974609375,0.115966796875
1.254,299,3147,894,1386,-1.017333984375,0.0767822265625,0.0963134765625
1.255,297,3147,868,1130,-0.898681640625,-0.113525390625,0.0928955078125
1.269,300,3147,840,711,-0.78271484375,-0.2420654296875,0.0509033203125
1.286,302,3147,827,499,-0.7015380859375,-0.271484375,-0.001953125
1.286,300,3147,811,334,-0.6529541015625,-0.19970703125,0.0086669921875
1.299,300,2866,739,328,-0.62158203125,-0.030029296875,0.0299072265625
1.307,306,2526,714,332,-0.60205078125,0.2012939453125,-0.00634765625
1.315,300,2215,646,328,-0.58740234375,0.431640625,-0.0537109375
1.329,298,1676,562,324,-0.5732421875,0.5911865234375,-0.0386962890625
1.337,300,1441,532,325,-0.569091796875,0.6480712890625,0.0184326171875
1.364,300,1133,524,327,-0.5933837890625,0.58935546875,0.083740234375
1.364,300,986,439,300,-0.63427734375,0.5601806640625,0.083251953125
1.376,299,923,437,324,-0.653076171875,0.5552978515625,0.0306396484375
1.376,298,920,469,323,-0.6722412109375,0.473876953125,-0.0115966796875
1.390,300,906,469,323,-0.72900390625,0.4354248046875,-0.020263671875
1.397,300,900,465,323,-0.787841796875,0.4554443359375,0.0177001953125
1.405,302,858,485,324,-0.8245849609375,0.4561767578125,0.0460205078125
1.419,300,815,497,323,-0.84912109375,0.425048828125,0.0469970703125
1.433,299,820,495,324,-0.876708984375,0.389892578125,0.0318603515625
1.435,300,811,497,323,-0.9078369140625,0.3612060546875,0.0089111328125
1.458,300,805,521,321,-0.92626953125,0.3353271484375,-0.010986328125
1.458,300,787,513,319,-0.924560546875,0.3114013671875,-0.020263671875
1.469,300,829,513,323,-0.9072265625,0.291015625,-0.0179443359375
1.479,302,871,522,323,-0.8790283203125,0.27294921875,-0.00634765625
1.487,300,907,531,323,-0.8470458984375,0.2667236328125,0.0078125
1.499,300,912,540,324,-0.816650390625,0.2789306640625,0.013427734375
1.509,302,1038,543,323,-0.7958984375,0.2972412109375,0.00634765625
1.517,300,1211,539,326,-0.786376953125,0.3131103515625,-0.002685546875
1.525,294,1422,539,327,-0.786376953125,0.3131103515625,-0.002685546875
1.539,300,1739,543,330,-0.7847900390625,0.3426513671875,0.0146484375
1.559,296,1941,577,336,-0.7889404296875,0.35986328125,0.0400390625
1.560,299,2137,598,338,-0.7889404296875,0.35986328125,0.0400390625
1.569,300,2394,653,333,-0.7783203125,0.3638916015625,0.0616455078125
1.584,299,2587,684,345,-0.7523193359375,0.3369140625,0.0260009765625
1.585,300,2844,689,337,-0.7523193359375,0.3369140625,0.0260009765625
1.613,300,3147,697,343,-0.6466064453125,0.27587890625,-0.137939453125
1.613,282,3147,705,473,-0.5357666015625,0.277587890625,-0.1226806640625
1.617,300,3147,738,629,-0.5357666015625,0.277587890625,-0.1226806640625
1.629,302,3147,793,958,-0.202880859375,0.149169921875,0.1416015625
1.637,301,3147,855,1118,-0.0902099609375,0.0506591796875,0.1942138671875
1.645,305,3147,883,1274,-0.0902099609375,0.0506591796875,0.1942138671875
1.665,301,3147,960,1445,-0.3033447265625,0.208984375,0.2108154296875
1.667,300,3147,996,1519,-0.642822265625,0.543212890625,0.2015380859375
1.677,300,3147,1025,1611,-0.642822265625,0.543212890625,0.2015380859375
1.695,302,3147,1081,1775,-1.3564453125,1.1934814453125,0.1878662109375
1.697,304,3147,1123,1914,-1.67333984375,1.29736328125,0.2391357421875
1.705,299,3147,1091,2076,-1.67333984375,1.29736328125,0.2391357421875
1.719,302,3147,1098,2153,-2.480224609375,0.48583984375,0.1502685546875
1.727,304,3147,1163,2113,-2.4461669921875,-0.110107421875,-0.064208984375
1.742,304,3147,1163,2060,-2.4461669921875,-0.110107421875,-0.064208984375
1.766,300,3147,1160,2165,-1.164794921875,-0.459228515625,0.1136474609375
1.767,280,3147,1166,2183,-1.164794921875,-0.459228515625,0.1136474609375
1.767,302,3147,1160,2180,-1.0562744140625,0.5472412109375,0.313720703125
1.779,302,3147,1148,2118,-1.4906005859375,1.3248291015625,0.0234375
1.788,302,3147,1157,2053,-1.4906005859375,1.3248291015625,0.0234375
1.797,301,3147,1129,1954,-1.46923828125,0.8875732421875,-0.0853271484375
1.809,301,3147,1050,1762,-1.246826171875,0.438232421875,0.041259765625
1.817,300,3147,1012,1622,-1.246826171875,0.438232421875,0.041259765625
1.825,292,3147,951,1447,-1.15185546875,0.3546142578125,0.03662109375
1.843,300,3147,917,1155,-0.83154296875,0.005615234375,0.1131591796875
1.847,300,3147,894,937,-0.83154296875,0.005615234375,0.1131591796875
1.870,302,3147,865,731,-0.667236328125,-0.1541748046875,0.133544921875
1.870,302,3147,830,475,-0.549560546875,-0.0682373046875,0.047607421875
1.877,304,3147,800,349,-0.549560546875,-0.0682373046875,0.047607421875
1.885,300,3115,767,346,-0.55126953125,0.0267333984375,0.0323486328125
1.900,302,2797,753,332,-0.5875244140625,0.4027099609375,-0.04931640625
1.907,300,2616,725,332,-0.5875244140625,0.4027099609375,-0.04931640625
1.927,300,2430,713,338,-0.5941162109375,0.619140625,-0.041015625
1.929,296,2111,682,332,-0.645263671875,0.702880859375,0.0382080078125
1.943,299,1989,689,336,-0.645263671875,0.702880859375,0.0382080078125
1.945,300,1837,673,329,-0.691650390625,0.6060791015625,0.051025390625
1.969,299,1557,675,331,-0.742919921875,0.489013671875,0.0648193359375
1.970,302,1447,656,313,-0.7982177734375,0.3997802734375,0.07421875
1.975,300,1404,682,328,-0.83984375,0.354248046875,0.0826416015625
1.989,300,1268,667,328,-0.8592529296875,0.335693359375,0.081298828125
1.998,299,1214,656,331,-0.8670654296875,0.332763671875,0.064453125
2.005,300,1228,648,330,-0.8658447265625,0.3367919921875,0.0472412109375
2.019,300,1211,645,328,-0.8648681640625,0.340576171875,0.0325927734375
2.047,300,1216,673,329,-0.87158203125,0.346923828125,0.0211181640625
2.048,294,1211,675,328,-0.8778076171875,0.3531494140625,0.015869140625
2.050,300,1239,684,328,-0.8770751953125,0.3514404296875,0.012939453125
2.073,300,1261,691,330,-0.8702392578125,0.3441162109375,0.012939453125
2.074,300,1286,694,330,-0.8665771484375,0.3431396484375,0.021728515625
2.079,300,1382,705,327,-0.8729248046875,0.3486328125,0.0360107421875
2.087,296,1428,702,331,-0.8863525390625,0.345947265625,0.0440673828125
2.097,300,1509,710,332,-0.8944091796875,0.326171875,0.0341796875
2.109,301,1646,720,330,-0.8863525390625,0.2994384765625,0.0145263671875
2.117,300,1789,728,334,-0.8592529296875,0.28515625,0.005859375
2.125,302,1966,736,336,-0.8203125,0.288818359375,0.0098876953125
2.154,300,2230,738,338,-0.7762451171875,0.2926025390625,0.0164794921875
2.155,298,2386,744,343,-0.7232666015625,0.2852783203125,0.0159912109375
2.156,300,2627,761,334,-0.6737060546875,0.2764892578125,0.007568359375
2.175,300,3056,772,338,-0.6435546875,0.2801513671875,0.004150390625
2.180,302,3147,775,356,-0.6116943359375,0.3006591796875,-0.0108642578125
2.191,300,3147,800,532,-0.5333251953125,0.3265380859375,-0.0308837890625
2.199,300,3147,860,907,-0.3695068359375,0.3250732421875,-0.0025634765625
2.207,302,3147,899,1109,-0.152099609375,0.25830078125,0.06494140625
2.216,302,3147,917,1289,0.0245361328125,0.096435546875,0.1080322265625
2.229,301,3147,963,1502,0.0328369140625,-0.0355224609375,0.08935546875
2.251,302,3147,1009,1624,-0.1866455078125,0.081787109375,0.09912109375
2.278,302,3147,1043,1664,-0.5894775390625,0.468017578125,0.1820068359375
2.279,304,3147,1081,1732,-1.09130859375,0.963134765625,0.264404296875
2.279,304,3147,1066,1800,-1.5113525390625,1.3961181640625,0.2978515625
2.279,304,3147,1081,1882,-1.736328125,1.5286865234375,0.292236328125
2.291,304,3147,1120,2240,-1.894775390625,1.1611328125,0.36669921875
2.297,304,3147,1129,2272,-2.19775390625,0.3876953125,0.4073486328125
2.305,304,3147,1151,2223,-2.4449462890625,-0.352783203125,0.162353515625
2.319,304,3147,1178,2290,-2.1827392578125,-0.6898193359375,-0.175048828125
2.327,304,3147,1191,2287,-1.665283203125,-0.2410888671875,-0.10986328125
2.336,304,3147,1183,2244,-1.469482421875,0.72119140625,0.1829833984375
2.356,304,3147,1160,2180,-1.5467529296875,1.146728515625,0.22607421875
2.357,302,3147,1132,2048,-1.5701904296875,0.9268798828125,0.11474609375
2.380,302,3147,1104,1931,-1.44384765625,0.6138916015625,0.07666015625
2.381,304,3147,1029,1714,-1.2559814453125,0.4063720703125,0.119873046875
2.387,300,3147,952,1552,-1.0941162109375,0.27099609375,0.1080322265625
2.395,302,3147,906,1386,-0.9560546875,0.150146484375,0.0474853515625
2.409,295,3147,874,1070,-0.8133544921875,-0.0018310546875,0.042236328125
2.417,302,3147,849,803,-0.6685791015625,-0.1229248046875,0.0601806640625
2.426,302,3147,829,540,-0.5579833984375,-0.111572265625,0.023193359375
2.442,301,3147,778,337,-0.508056640625,-0.0074462890625,0.0084228515625
2.487,300,2859,731,347,-0.499267578125,0.10595703125,0.052978515625
2.490,290,2458,695,333,-0.5054931640625,0.237548828125,0.04443359375
2.490,300,2030,628,332,-0.50341796875,0.43115234375,0.003662109375
2.490,300,1755,631,336,-0.4989013671875,0.627197265625,0.02783203125
2.490,299,1536,620,333,-0.531005859375,0.7108154296875,0.0926513671875
2.499,299,1224,579,328,-0.5897216796875,0.659912109375,0.1231689453125
2.508,298,1156,607,330,-0.651123046875,0.5364990234375,0.0941162109375
2.515,296,1078,603,328,-0.724365234375,0.425537109375,0.0462646484375
2.529,302,1045,553,327,-0.7984619140625,0.3692626953125,0.026611328125
2.537,299,1014,587,327,-0.8553466796875,0.350341796875,0.0361328125
2.545,300,984,586,324,-0.8900146484375,0.3380126953125,0.0570068359375
2.589,300,963,580,327,-0.90478515625,0.3258056640625,0.0733642578125
2.596,298,933,568,328,-0.906982421875,0.3216552734375,0.075439453125
2.596,300,890,576,324,-0.9029541015625,0.3206787109375,0.059814453125
2.600,287,920,588,327,-0.8997802734375,0.315185546875,0.02783203125
2.600,298,938,582,327,-0.8983154296875,0.3077392578125,-0.0069580078125
2.605,300,951,586,328,-0.896484375,0.2989501953125,-0.0325927734375
2.619,300,1005,598,327,-0.8968505859375,0.28955078125,-0.0443115234375
2.627,300,1043,614,328,-0.8966064453125,0.2845458984375,-0.039306640625
2.635,299,1107,620,328,-0.887939453125,0.2891845703125,-0.0233154296875
2.649,299,1220,632,328,-0.86865234375,0.2989501953125,-0.0111083984375
2.697,299,1362,658,332,-0.8463134765625,0.305908203125,-0.00927734375
2.698,299,1534,649,310,-0.8463134765625,0.305908203125,-0.00927734375
2.698,292,1773,678,313,-0.8199462890625,0.31591796875,0.0020751953125
2.698,300,1943,705,334,-0.8134765625,0.3187255859375,0.01513671875
2.702,300,2065,713,334,-0.8134765625,0.3187255859375,0.01513671875
2.712,300,2359,736,334,-0.7781982421875,0.311279296875,0.0511474609375
2.718,300,2587,748,345,-0.75146484375,0.3221435546875,0.0697021484375
2.728,302,2853,740,347,-0.75146484375,0.3221435546875,0.0697021484375
2.742,300,3147,720,355,-0.646484375,0.3897705078125,0.0634765625
2.750,300,3147,744,525,-0.5711669921875,0.3935546875,0.0274658203125
2.765,300,3147,759,735,-0.5711669921875,0.3935546875,0.0274658203125
2.824,302,3147,820,1069,-0.3463134765625,0.2305908203125,-0.067138671875
2.825,302,3147,871,1213,-0.212158203125,0.0382080078125,-0.0828857421875
2.825,289,3147,938,1373,-0.212158203125,0.0382080078125,-0.0828857421875
2.826,304,3147,982,1596,-0.302734375,-0.1199951171875,0.0977783203125
2.826,293,3147,1038,1733,-0.5399169921875,0.0233154296875,0.197998046875
2.827,302,3147,1055,1869,-0.5399169921875,0.0233154296875,0.197998046875
2.830,304,3147,1064,1973,-1.060791015625,0.692138671875,0.3670654296875
2.841,302,3147,1085,2032,-1.3116455078125,1.156005859375,0.3917236328125
2.853,302,3147,1125,2113,-1.3116455078125,1.156005859375,0.3917236328125
2.866,302,3147,1129,2364,-1.772216796875,0.9522705078125,0.46630859375
2.867,296,3147,1156,2527,-1.772216796875,0.9522705078125,0.46630859375
2.893,304,3147,1148,2543,-2.03857421875,0.594970703125,0.5023193359375
2.894,302,3147,1131,2519,-2.141845703125,-0.3057861328125,-0.0318603515625
2.897,304,3147,1172,2566,-2.141845703125,-0.3057861328125,-0.0318603515625
2.906,304,3147,1189,2576,-1.6544189453125,-0.296875,-0.224609375
2.920,304,3147,1182,2504,-1.547119140625,0.848388671875,0.0570068359375
2.935,305,3147,1185,2445,-1.547119140625,0.848388671875,0.0570068359375
2.936,304,3147,1132,2337,-1.6866455078125,0.7662353515625,0.03125
2.949,304,3147,1116,2190,-1.448974609375,0.404296875,0.1434326171875
2.959,302,3147,1078,2073,-1.448974609375,0.404296875,0.1434326171875
2.968,304,3147,1018,1912,-1.24951171875,0.2943115234375,0.2054443359375
2.995,302,3147,902,1560,-0.9466552734375,0.1871337890625,0.18017578125
2.999,302,3147,867,1404,-0.9466552734375,0.1871337890625,0.18017578125
2.999,302,3147,855,1169,-0.78955078125,0.09228515625,0.165771484375
3.010,302,3147,820,601,-0.5286865234375,-0.10595703125,0.08251953125
3.019,304,3147,787,348,-0.5286865234375,-0.10595703125,0.08251953125
3.028,302,2991,737,331,-0.484130859375,-0.0582275390625,0.03076171875
3.035,302,2624,712,330,-0.4742431640625,0.051025390625,0.021484375
3.048,300,2035,658,327,-0.4892578125,0.21435546875,0.00732421875
3.056,300,1636,653,328,-0.507080078125,0.419921875,0.018798828125
3.070,299,1384,625,331,-0.516357421875,0.5965576171875,0.0714111328125
3.078,299,1012,594,327,-0.5460205078125,0.6541748046875,0.11328125
3.104,300,921,568,327,-0.6031494140625,0.5775146484375,0.1219482421875
3.104,299,906,566,327,-0.6842041015625,0.429931640625,0.0933837890625
3.108,300,894,571,327,-0.770263671875,0.3056640625,0.0506591796875
3.118,299,874,564,328,-0.8287353515625,0.2489013671875,0.0252685546875
3.125,299,853,559,327,-0.856201171875,0.241943359375,0.03662109375
3.138,298,864,572,328,-0.86962890625,0.24951171875,0.070556640625
3.172,300,846,576,323,-0.8768310546875,0.2474365234375,0.0909423828125
3.174,299,853,579,327,-0.880615234375,0.2401123046875,0.0848388671875
3.184,299,890,568,324,-0.8887939453125,0.245361328125,0.0562744140625
3.202,299,883,553,327,-0.904541015625,0.27099609375,0.0263671875
3.208,300,918,573,327,-0.91845703125,0.3023681640625,0.009033203125
3.209,306,987,594,327,-0.92333984375,0.3187255859375,-0.00439453125
3.210,300,1029,606,328,-0.91943359375,0.31689453125,-0.018310546875
3.215,300,1109,619,327,-0.9105224609375,0.30517578125,-0.0283203125
3.228,300,1216,636,327,-0.901611328125,0.2947998046875,-0.03076171875
3.236,300,1330,646,329,-0.8916015625,0.293701171875,-0.0196533203125
3.245,300,1443,661,332,-0.8743896484375,0.304443359375,-0.0003662109375
3.258,300,1743,673,330,-0.84912109375,0.3172607421875,0.013427734375
3.279,300,1896,678,333,-0.8177490234375,0.3192138671875,0.02099609375
3.279,298,2024,697,351,-0.7821044921875,0.31201171875,0.0289306640625
3.291,298,2407,711,346,-0.7486572265625,0.294189453125,0.045166015625
3.309,300,2626,725,342,-0.7208251953125,0.2725830078125,0.0570068359375
3.309,299,2880,725,348,-0.697265625,0.2611083984375,0.05126953125
3.318,299,3147,723,428,-0.6678466796875,0.2664794921875,0.0390625
3.327,300,3147,728,642,-0.6116943359375,0.2808837890625,0.0257568359375
3.334,300,3147,733,855,-0.5018310546875,0.266845703125,0.0230712890625
3.348,302,3147,772,1189,-0.32080078125,0.182861328125,0.0286865234375
3.358,301,3147,788,1328,-0.119140625,0.052734375,0.0247802734375
3.366,302,3147,864,1467,-0.00634765625,-0.0584716796875,0.04248046875
3.385,304,3147,986,1652,-0.1005859375,-0.0731201171875,0.0628662109375
3.404,304,3147,1042,1722,-0.444091796875,0.1048583984375,0.075439453125
3.404,302,3147,1065,1753,-0.920166015625,0.4737548828125,0.1490478515625
3.414,302,3147,1101,1894,-1.3636474609375,0.9639892578125,0.26171875
3.418,304,3147,1092,2047,-1.6903076171875,1.36279296875,0.4102783203125
3.425,304,3147,1125,2207,-1.9339599609375,1.364990234375,0.569580078125
3.438,304,3147,1175,2388,-2.1533203125,0.8780517578125,0.6361083984375
3.446,304,3147,1101,2303,-2.35400390625,0.1314697265625,0.4349365234375
3.454,304,3147,1112,2308,-2.2100830078125,-0.5125732421875,-0.0166015625
3.468,304,3147,1125,2347,-1.722900390625,-0.5914306640625,-0.189453125
3.480,302,3147,1117,2310,-1.455810546875,0.0916748046875,0.042724609375
3.485,304,3147,1109,2279,-1.5169677734375,0.8533935546875,0.221923828125
3.508,304,3147,1129,2161,-1.6123046875,1.010498046875,0.2005615234375
3.508,304,3147,1108,2074,-1.5460205078125,0.75927734375,0.14599609375
3.525,304,3147,1071,1985,-1.353271484375,0.52734375,0.16748046875
3.530,302,3147,971,1715,-1.1552734375,0.38525390625,0.1781005859375
3.536,302,3147,905,1519,-0.993408203125,0.2652587890625,0.11865234375
3.548,302,3147,894,1343,-0.8507080078125,0.1485595703125,0.081787109375
3.558,302,3147,853,1063,-0.7320556640625,0.0357666015625,0.1044921875
3.566,302,3147,816,777,-0.6409912109375,-0.0235595703125,0.1317138671875
3.575,301,3147,790,570,-0.581787109375,-0.0113525390625,0.10107421875
3.589,302,3147,780,330,-0.55712890625,0.0084228515625,0.051025390625
3.612,301,2935,746,334,-0.5609130859375,0.0333251953125,0.0318603515625
3.612,302,2608,721,330,-0.5809326171875,0.1162109375,-0.0028076171875
3.618,300,2180,687,324,-0.5928955078125,0.2672119140625,-0.043701171875
3.628,299,1989,632,336,-0.590087890625,0.42578125,-0.0333251953125
3.635,301,1792,631,334,-0.5899658203125,0.5377197265625,0.01806640625
3.648,300,1508,605,328,-0.6060791015625,0.5897216796875,0.07275390625
3.656,300,1365,601,330,-0.6397705078125,0.551025390625,0.10498046875
3.665,301,1292,614,328,-0.6397705078125,0.551025390625,0.10498046875
3.685,299,1274,625,328,-0.7655029296875,0.3585205078125,0.07861328125
3.687,282,1281,619,328,-0.819580078125,0.3145751953125,0.0616455078125
3.701,300,1294,621,327,-0.819580078125,0.3145751953125,0.0616455078125
3.710,298,1278,621,334,-0.89013671875,0.2825927734375,0.0684814453125
3.723,298,1303,631,336,-0.9190673828125,0.2979736328125,0.07421875
3.726,289,1313,642,334,-0.9190673828125,0.2979736328125,0.07421875
3.738,296,1339,625,334,-0.9359130859375,0.322265625,0.031982421875
3.746,297,1387,639,344,-0.92626953125,0.2957763671875,0.001220703125
3.754,299,1422,645,343,-0.92626953125,0.2957763671875,0.001220703125
3.768,299,1574,654,342,-0.8922119140625,0.251953125,-0.0137939453125
3.776,296,1678,659,347,-0.8743896484375,0.2628173828125,-0.01025390625
3.787,299,1824,661,348,-0.8743896484375,0.2628173828125,-0.01025390625
3.801,298,2019,683,345,-0.8603515625,0.34423828125,0.010009765625
3.813,297,2137,694,359,-0.8614501953125,0.3765869140625,0.0311279296875
3.818,281,2233,707,353,-0.8614501953125,0.3765869140625,0.0311279296875
3.842,300,2428,713,336,-0.853515625,0.3670654296875,0.043212890625
3.843,300,2519,725,342,-0.844970703125,0.3441162109375,0.0416259765625
3.845,300,2636,707,316,-0.844970703125,0.3441162109375,0.0416259765625
3.858,300,2908,748,338,-0.8128662109375,0.297119140625,0.0380859375
3.866,302,3057,761,344,-0.7840576171875,0.2723388671875,0.0194091796875
3.875,299,3147,767,361,-0.7840576171875,0.2723388671875,0.0194091796875
3.890,300,3147,778,531,-0.710205078125,0.2784423828125,0.0087890625
3.896,300,3147,788,706,-0.710205078125,0.2784423828125,0.0087890625
3.916,299,3147,777,883,-0.625244140625,0.275390625,0.0589599609375
3.933,300,3147,803,1220,-0.2532958984375,0.1236572265625,0.0767822265625
3.955,302,3147,853,1380,-0.2532958984375,0.1236572265625,0.0767822265625
3.955,287,3147,891,1521,-0.0406494140625,0.0133056640625,0.084228515625
3.955,304,3147,1025,1659,-0.1015625,0.000732421875,0.1065673828125
3.967,300,3147,1103,1805,-0.1015625,0.000732421875,0.1065673828125
3.971,306,3147,1131,1867,-0.4874267578125,0.3084716796875,0.1414794921875
3.979,309,3147,1129,2032,-1.4595947265625,1.15380859375,0.2562255859375
3.995,304,3147,1149,2155,-1.8013916015625,1.3060302734375,0.3837890625
3.995,304,3147,1186,2299,-1.8013916015625,1.3060302734375,0.3837890625
4.020,304,3147,1236,2469,-2.0555419921875,0.9967041015625,0.534912109375
4.034,292,3147,1137,2461,-2.3170166015625,-0.3072509765625,0.2989501953125
4.035,304,3147,1129,2409,-2.3170166015625,-0.3072509765625,0.2989501953125
4.035,304,3147,1125,2407,-1.918212890625,-0.651123046875,0.00634765625
4.061,301,3147,1134,2430,-1.16748046875,0.60205078125,0.2222900390625
4.062,306,3147,1138,2404,-1.16748046875,0.60205078125,0.2222900390625
4.065,304,3147,1148,2379,-1.38671875,1.3218994140625,0.3009033203125
4.078,304,3147,1103,2230,-1.629638671875,0.8428955078125,0.0606689453125
4.087,304,3147,1079,2142,-1.629638671875,0.8428955078125,0.0606689453125
4.101,304,3147,1034,1983,-1.4603271484375,0.5411376953125,0.0916748046875
4.121,304,3147,957,1735,-1.06787109375,0.2147216796875,0.11474609375
4.122,304,3147,936,1555,-1.06787109375,0.2147216796875,0.11474609375
4.127,302,3147,922,1351,-0.921142578125,0.1126708984375,0.1090087890625
4.138,302,3147,883,994,-0.7855224609375,-0.0184326171875,0.1221923828125
4.147,296,3147,846,799,-0.6708984375,-0.1610107421875,0.10205078125
4.161,296,3147,829,636,-0.573974609375,-0.2099609375,0.058837890625
4.173,302,3147,777,351,-0.51171875,-0.119873046875,0.0555419921875
4.176,302,3085,722,333,-0.5076904296875,0.059814453125,0.0697021484375
4.185,301,2759,671,330,-0.544189453125,0.255126953125,0.0323486328125
4.199,302,2275,625,328,-0.5701904296875,0.4437255859375,-0.0081787109375
4.206,300,2021,604,327,-0.5645751953125,0.5933837890625,0.015869140625
4.221,301,1846,588,325,-0.5538330078125,0.6690673828125,0.067626953125
4.228,300,1574,588,322,-0.563720703125,0.66650390625,0.1041259765625
4.238,300,1490,606,324,-0.5966796875,0.5784912109375,0.1148681640625
4.245,300,1533,607,324,-0.6561279296875,0.46826171875,0.0902099609375
4.258,302,1494,607,326,-0.732666015625,0.415771484375,0.0489501953125
4.268,302,1523,620,324,-0.8055419921875,0.404052734375,0.0252685546875
4.274,302,1509,625,325,-0.8623046875,0.37939453125,0.03271484375
4.289,301,1534,578,324,-0.8956298828125,0.3411865234375,0.0537109375
4.299,301,1557,594,327,-0.90869140625,0.3211669921875,0.0621337890625
4.305,300,1608,576,327,-0.9102783203125,0.316162109375,0.056640625
4.327,300,1691,579,325,-0.9085693359375,0.3155517578125,0.04248046875
4.329,300,1773,570,327,-0.90576171875,0.324951171875,0.0220947265625
4.335,301,1828,576,328,-0.9027099609375,0.347412109375,0.00048828125
4.348,300,1931,561,330,-0.89794921875,0.3787841796875,-0.015869140625
4.356,300,1973,567,334,-0.888427734375,0.4024658203125,-0.0216064453125
4.364,299,2047,585,337,-0.87646484375,0.4124755859375,-0.0216064453125
4.378,299,2139,594,332,-0.8687744140625,0.4063720703125,-0.0155029296875
4.387,300,2190,598,336,-0.8656005859375,0.3817138671875,-0.0040283203125
4.407,300,2229,601,334,-0.865478515625,0.3648681640625,0.002685546875
4.408,300,2286,607,328,-0.8680419921875,0.374267578125,0.000244140625
4.425,300,2379,594,338,-0.869384765625,0.386474609375,-0.007568359375
4.426,298,2445,628,342,-0.8663330078125,0.3839111328125,-0.014404296875
4.438,299,2581,645,338,-0.8558349609375,0.3721923828125,-0.011962890625
4.446,299,2698,661,344,-0.8355712890625,0.35302734375,0.0023193359375
4.455,300,2830,667,346,-0.8046875,0.323974609375,0.022705078125
4.469,300,3079,677,338,-0.7674560546875,0.302001953125,0.03466796875
4.480,299,3147,695,361,-0.724609375,0.300537109375,0.0325927734375
4.485,296,3147,711,526,-0.6712646484375,0.322021484375,0.01513671875
4.504,300,3147,748,802,-0.5986328125,0.3533935546875,-0.0013427734375
4.512,300,3147,774,975,-0.470947265625,0.3443603515625,-0.000732421875
4.518,300,3147,762,1204,-0.2667236328125,0.2645263671875,0.0052490234375
4.539,300,3147,763,1453,-0.049072265625,0.1358642578125,-0.001953125
4.567,301,3147,843,1533,0.06787109375,0.0350341796875,-0.0118408203125
4.568,300,3147,917,1665,-0.03759765625,0.10546875,0.028076171875
4.568,302,3147,1005,1874,-0.404052734375,0.41259765625,0.1158447265625
4.568,302,3147,1018,1983,-0.9326171875,0.836181640625,0.190673828125
4.575,302,3147,1022,2110,-1.4794921875,1.195068359375,0.2684326171875
4.588,302,3147,1112,2395,-1.9237060546875,1.191650390625,0.419921875
4.598,302,3147,1149,2527,-2.2337646484375,0.6729736328125,0.53125
4.611,300,3147,1160,2578,-2.416015625,0.047119140625,0.47119140625
4.636,302,3147,1085,2409,-2.2540283203125,-0.411376953125,0.286865234375
4.636,300,3147,1081,2472,-1.6802978515625,-0.6832275390625,0.1241455078125
4.642,302,3147,1091,2479,-1.1787109375,-0.3145751953125,0.168701171875
4.649,302,3147,1073,2435,-1.1552734375,0.6922607421875,0.2945556640625
4.665,301,3147,1043,2347,-1.4229736328125,1.3375244140625,0.2452392578125
4.665,302,3147,1025,2341,-1.5831298828125,1.1578369140625,0.0784912109375
4.679,302,3147,978,2141,-1.519775390625,0.718994140625,0.015380859375
4.693,300,3147,921,2008,-1.3526611328125,0.4744873046875,0.10107421875
4.695,300,3147,867,1865,-1.2149658203125,0.3782958984375,0.18115234375
4.709,300,3147,832,1569,-1.119384765625,0.2559814453125,0.1781005859375
4.717,300,3147,816,1351,-1.019287109375,0.0452880859375,0.132080078125
4.750,304,3147,788,1103,-0.8861083984375,-0.162109375,0.1019287109375
4.751,302,3147,748,786,-0.726318359375,-0.272705078125,0.09228515625
4.753,300,3147,721,614,-0.5819091796875,-0.26904296875,0.103515625
4.756,299,3147,684,398,-0.4892578125,-0.1434326171875,0.1070556640625
4.770,300,2935,490,336,-0.4754638671875,0.0908203125,0.049072265625
4.779,299,2530,494,344,-0.508056640625,0.40478515625,-0.0186767578125
4.788,296,2235,505,337,-0.526123046875,0.7071533203125,-0.0302734375
4.870,300,1665,521,327,-0.5255126953125,0.879638671875,0.0159912109375
4.871,300,1382,499,327,-0.5491943359375,0.8861083984375,0.073974609375
4.871,282,1229,470,306,-0.6068115234375,0.7518310546875,0.090087890625
4.871,299,1045,462,324,-0.692138671875,0.5362548828125,0.06005859375
4.871,289,996,482,327,-0.7669677734375,0.3507080078125,0.0172119140625
4.871,299,929,527,328,-0.7987060546875,0.2886962890625,-0.0098876953125
4.871,297,888,518,322,-0.8162841796875,0.3160400390625,-0.018798828125
4.871,300,872,506,324,-0.8341064453125,0.35498046875,-0.0206298828125
4.875,300,858,497,327,-0.8443603515625,0.3890380859375,-0.0325927734375
4.890,299,867,512,325,-0.8433837890625,0.4189453125,-0.062744140625
4.897,299,883,499,327,-0.8428955078125,0.421630859375,-0.07958984375
4.905,296,900,497,328,-0.8551025390625,0.38037109375,-0.06396484375
4.921,300,976,501,324,-0.8677978515625,0.3331298828125,-0.037841796875
4.929,299,1010,470,328,-0.867919921875,0.3248291015625,-0.0224609375
4.941,296,1050,481,327,-0.867919921875,0.3248291015625,-0.0224609375
4.949,299,1132,424,328,-0.8447265625,0.3807373046875,-0.0242919921875
4.965,298,1184,457,329,-0.82763671875,0.413330078125,-0.0235595703125
4.967,282,1292,442,328,-0.82763671875,0.413330078125,-0.0235595703125
4.979,300,1404,454,327,-0.8232421875,0.4437255859375,-0.038330078125
4.989,300,1516,465,332,-0.8328857421875,0.441650390625,-0.0408935546875
4.997,299,1624,458,330,-0.8328857421875,0.441650390625,-0.0408935546875
5.021,300,1800,464,332,-0.8193359375,0.4051513671875,-0.0576171875
5.021,299,1894,455,328,-0.8070068359375,0.386474609375,-0.07080078125
5.029,292,2034,481,334,-0.8070068359375,0.386474609375,-0.07080078125
5.046,300,2310,466,334,-0.8170166015625,0.37451171875,-0.074462890625
5.050,299,2493,456,334,-0.8133544921875,0.3768310546875,-0.070556640625
5.057,296,2647,470,344,-0.8133544921875,0.3768310546875,-0.070556640625
5.075,300,3028,442,337,-0.7664794921875,0.3546142578125,-0.03857421875
5.078,300,3147,493,359,-0.7352294921875,0.34228515625,-0.0452880859375
5.087,300,3147,546,521,-0.7352294921875,0.34228515625,-0.0452880859375
5.099,304,3147,759,871,-0.62841796875,0.3494873046875,-0.02978515625
5.107,304,3147,784,1004,-0.50048828125,0.32763671875,0.027099609375
5.146,304,3147,853,1155,-0.50048828125,0.32763671875,0.027099609375
5.148,304,3147,912,1429,-0.196044921875,0.2615966796875,0.1497802734375
5.148,306,3147,974,1561,-0.196044921875,0.2615966796875,0.1497802734375
5.148,304,3147,1034,1655,-0.157958984375,0.24853515625,0.0982666015625
5.160,306,3147,1251,1905,-0.5823974609375,0.63427734375,-0.06591796875
5.169,306,3147,1348,1980,-0.5823974609375,0.63427734375,-0.06591796875
5.175,307,3147,1409,2054,-0.92529296875,0.9852294921875,-0.0498046875
5.189,308,3147,1398,2228,-1.7073974609375,1.08349609375,0.0787353515625
5.197,310,3147,1387,2308,-1.7073974609375,1.08349609375,0.0787353515625
5.205,308,3147,1268,2364,-2.154541015625,0.53076171875,0.198486328125
5.255,310,3147,1334,2345,-2.2471923828125,-0.6336669921875,0.2000732421875
5.256,306,3147,1358,2299,-2.2471923828125,-0.6336669921875,0.2000732421875
5.256,310,3147,1346,2335,-1.5958251953125,-0.8878173828125,0.212890625
5.257,292,3147,1411,2370,-0.907470703125,0.6302490234375,0.482666015625
5.258,307,3147,1369,2306,-0.907470703125,0.6302490234375,0.482666015625
5.268,308,3147,1341,2295,-1.1954345703125,1.284912109375,0.3260498046875
5.274,306,3147,1312,2233,-1.435546875,1.1522216796875,0.041748046875
5.288,307,3147,1229,2127,-1.44287109375,0.7481689453125,-0.099365234375
5.300,306,3147,1178,2028,-1.3228759765625,0.500732421875,-0.04296875
5.304,306,3147,1138,1914,-1.190673828125,0.42236328125,0.0592041015625
5.324,304,3147,1079,1641,-1.0792236328125,0.3765869140625,0.11962890625
5.349,305,3147,1051,1452,-0.990234375,0.2923583984375,0.1505126953125
5.350,304,3147,1027,1167,-0.9215087890625,0.24853515625,0.146240234375
5.350,304,3147,927,750,-0.8572998046875,0.2255859375,0.0823974609375
5.356,302,3147,855,623,-0.7855224609375,0.1053466796875,0.003662109375
5.364,304,3147,813,411,-0.7139892578125,-0.0382080078125,-0.0087890625
5.378,300,3064,737,338,-0.6561279296875,-0.0321044921875,0.0435791015625
5.386,302,2863,723,347,-0.6134033203125,0.11962890625,0.0828857421875
5.395,302,2662,707,344,-0.59033203125,0.3035888671875,0.07763671875
5.412,300,2284,689,342,-0.5877685546875,0.4642333984375,0.0682373046875
5.416,300,2113,679,338,-0.60498046875,0.5750732421875,0.0670166015625
5.427,300,1935,682,334,-0.650390625,0.615234375,0.0677490234375
5.455,300,1669,667,331,-0.70947265625,0.579345703125,0.0665283203125
5.456,300,1528,631,332,-0.7618408203125,0.4959716796875,0.0523681640625
5.456,300,1447,605,313,-0.798583984375,0.4130859375,0.0361328125
5.469,300,1229,559,326,-0.8170166015625,0.3656005859375,0.0289306640625
5.478,300,1201,571,330,-0.8277587890625,0.3626708984375,0.03173828125
5.486,300,1170,567,327,-0.8343505859375,0.3848876953125,0.0478515625
5.499,300,1146,584,327,-0.8323974609375,0.40283203125,0.063232421875
5.508,300,1162,598,330,-0.83056640625,0.405029296875,0.0628662109375
5.515,300,1166,614,324,-0.8350830078125,0.39208984375,0.048095703125
5.533,302,1201,629,327,-0.8409423828125,0.3658447265625,0.028076171875
5.571,300,1253,642,328,-0.842041015625,0.3289794921875,0.014404296875
5.571,299,1334,653,328,-0.8388671875,0.2908935546875,0.0107421875
5.571,302,1487,678,332,-0.83544921875,0.2681884765625,0.01416015625
5.571,300,1632,684,336,-0.832763671875,0.2703857421875,0.02001953125
5.575,302,1750,695,332,-0.8302001953125,0.29150390625,0.0216064453125
5.589,301,2000,707,332,-0.8251953125,0.315673828125,0.016357421875
5.597,302,2190,714,338,-0.819091796875,0.33154296875,0.010986328125
5.605,302,2356,721,342,-0.81884765625,0.3406982421875,0.01123046875
5.620,302,2671,728,343,-0.82763671875,0.345947265625,0.016357421875
5.638,301,2863,734,346,-0.8348388671875,0.3470458984375,0.025390625
5.639,300,2964,738,346,-0.822509765625,0.3470458984375,0.03515625
5.658,302,3147,754,409,-0.78759765625,0.3450927734375,0.0399169921875
5.658,304,3147,763,603,-0.743896484375,0.3348388671875,0.0533447265625
5.665,302,3147,816,800,-0.6697998046875,0.31103515625,0.0858154296875
5.679,302,3147,897,1132,-0.5377197265625,0.2664794921875,0.0989990234375
5.688,304,3147,963,1352,-0.3609619140625,0.197998046875,0.082763671875
5.695,305,3147,1003,1533,-0.17578125,0.126708984375,0.06884765625
5.709,305,3147,1120,1785,-0.0599365234375,0.0850830078125,0.083740234375
5.717,306,3147,1204,1895,-0.107177734375,0.1412353515625,0.134033203125
5.725,308,3147,1222,1960,-0.3775634765625,0.346435546875,0.1650390625
5.739,305,3147,1282,2118,-0.800537109375,0.625244140625,0.19140625
5.767,306,3147,1312,2161,-1.1956787109375,0.869384765625,0.2850341796875
5.767,291,3147,1359,2223,-1.49072265625,0.9647216796875,0.3822021484375
5.770,308,3147,1494,2391,-1.7708740234375,0.814208984375,0.3856201171875
5.777,306,3147,1540,2477,-2.144287109375,0.4600830078125,0.2633056640625
5.785,307,3147,1483,2449,-2.472412109375,0.1710205078125,0.05322265625
5.799,306,3147,1441,2443,-2.3399658203125,-0.0701904296875,-0.134521484375
5.808,308,3147,1468,2467,-1.7015380859375,-0.31884765625,-0.1156005859375
5.816,306,3147,1470,2449,-1.1749267578125,-0.041015625,0.1793212890625
5.837,308,3147,1383,2428,-1.1900634765625,0.62060546875,0.4002685546875
5.838,316,3147,1328,2337,-1.4476318359375,0.8651123046875,0.3040771484375
5.881,306,3147,1278,2319,-1.5665283203125,0.6820068359375,0.1239013671875
5.881,306,3147,1204,2158,-1.5128173828125,0.5091552734375,0.0853271484375
5.881,304,3147,1173,2060,-1.379638671875,0.4530029296875,0.1358642578125
5.882,306,3147,1100,1844,-1.228271484375,0.3818359375,0.1513671875
5.891,304,3147,1018,1632,-1.052734375,0.2127685546875,0.13330078125
5.897,304,3147,973,1411,-0.8570556640625,-0.021484375,0.1268310546875
5.905,304,3147,937,1151,-0.6710205078125,-0.185302734375,0.150390625
5.919,304,3147,818,679,-0.5260009765625,-0.1602783203125,0.1689453125
5.929,302,3147,784,514,-0.44873046875,0.005859375,0.1820068359375
5.939,301,3147,799,359,-0.43017578125,0.203369140625,0.1695556640625
5.961,300,2938,767,338,-0.4561767578125,0.3553466796875,0.0732421875
5.961,302,2765,769,343,-0.5140380859375,0.4625244140625,-0.0428466796875
5.981,302,2579,765,344,-0.5892333984375,0.5750732421875,-0.0716552734375
5.981,301,2261,723,332,-0.648681640625,0.65771484375,-0.0313720703125
5.988,300,2012,706,336,-0.682861328125,0.6279296875,-0.0123291015625
5.996,302,1850,706,334,-0.70849609375,0.492919921875,-0.0244140625
6.009,300,1715,689,330,-0.7421875,0.3514404296875,-0.02392578125
6.017,300,1659,693,334,-0.797119140625,0.28076171875,0.0001220703125
6.026,301,1624,689,332,-0.858642578125,0.283935546875,0.019775390625
6.041,301,1533,682,332,-0.9036865234375,0.322509765625,0.0274658203125
6.048,300,1519,680,332,-0.9212646484375,0.3424072265625,0.046875
6.112,302,1487,682,332,-0.9212646484375,0.3424072265625,0.046875
6.126,301,1434,673,313,-0.904052734375,0.287109375,0.1207275390625
6.126,302,1441,683,334,-0.8876953125,0.249267578125,0.1343994140625
6.127,301,1483,694,332,-0.8876953125,0.249267578125,0.1343994140625
6.127,302,1600,695,330,-0.8636474609375,0.2127685546875,0.085693359375
6.127,300,1656,707,333,-0.8740234375,0.259033203125,0.0579833984375
6.169,300,1750,713,334,-0.8740234375,0.259033203125,0.0579833984375
6.169,280,1842,721,329,-0.9049072265625,0.3612060546875,0.0050048828125
6.170,304,1943,723,336,-0.9100341796875,0.3597412109375,-0.0152587890625
6.170,302,2012,728,334,-0.9100341796875,0.3597412109375,-0.0152587890625
6.170,308,2175,740,333,-0.8880615234375,0.3096923828125,-0.005126953125
6.170,301,2287,746,334,-0.8692626953125,0.3033447265625,0.0098876953125
6.176,300,2417,758,343,-0.8692626953125,0.3033447265625,0.0098876953125
6.203,302,2638,763,336,-0.8377685546875,0.34521484375,0.0345458984375
6.204,300,2744,790,344,-0.8408203125,0.366943359375,0.0372314453125
6.206,301,2897,797,342,-0.8408203125,0.366943359375,0.0372314453125
6.220,302,3033,828,342,-0.891357421875,0.3897705078125,0.051025390625
6.229,300,3106,846,348,-0.9207763671875,0.387451171875,0.0582275390625
6.236,301,3147,846,348,-0.9207763671875,0.387451171875,0.0582275390625
6.249,302,3147,864,454,-0.880615234375,0.3306884765625,-0.0076904296875
6.258,302,3147,927,593,-0.797607421875,0.272705078125,-0.043701171875
6.267,304,3147,977,737,-0.797607421875,0.272705078125,-0.043701171875
6.291,300,3147,1056,1195,-0.4127197265625,0.175537109375,-0.0015869140625
6.291,299,3147,1129,1419,-0.4127197265625,0.175537109375,-0.0015869140625
6.297,306,3147,1188,1613,-0.133544921875,0.127197265625,0.073486328125
6.316,308,3147,1381,1882,0.132568359375,-0.0528564453125,0.1795654296875
6.318,306,3147,1439,2032,0.132568359375,-0.0528564453125,0.1795654296875
6.325,309,3147,1569,2223,-0.086181640625,0.101318359375,0.193359375
6.339,310,3147,1681,2392,-0.96728515625,0.9498291015625,0.2952880859375
6.347,310,3147,1748,2514,-0.96728515625,0.9498291015625,0.2952880859375
6.355,310,3147,1686,2741,-1.412841796875,1.25146484375,0.3702392578125
6.375,310,3147,1675,2840,-2.310791015625,0.226318359375,0.4290771484375
6.378,309,3147,1662,2850,-2.310791015625,0.226318359375,0.4290771484375
6.388,310,3147,1656,2753,-2.6551513671875,-0.5050048828125,0.198974609375
6.398,308,3147,1636,2703,-2.53515625,-0.6544189453125,-0.09765625
6.407,310,3147,1704,2744,-1.84619140625,-0.548583984375,-0.240966796875
6.415,310,3147,1730,2724,-1.1597900390625,-0.0631103515625,-0.066162109375
6.429,310,3147,1711,2660,-1.4058837890625,1.1573486328125,0.298828125
6.438,308,3147,1652,2598,-1.4058837890625,1.1573486328125,0.298828125
6.452,308,3147,1610,2532,-1.649658203125,0.868896484375,0.1649169921875
6.476,307,3147,1506,2357,-1.3743896484375,0.2120361328125,0.1170654296875
6.477,306,3147,1445,2238,-1.3743896484375,0.2120361328125,0.1170654296875
6.477,295,3147,1380,2118,-1.15380859375,0.1146240234375,0.1690673828125
6.490,306,3147,1266,1826,-1.0028076171875,0.156494140625,0.1990966796875
6.505,306,3147,1214,1508,-0.887451171875,0.2310791015625,0.2186279296875
6.506,292,3147,1157,1196,-0.79931640625,0.200927734375,0.19873046875
6.519,305,3147,1042,682,-0.72412109375,0.0758056640625,0.1112060546875
6.527,306,3147,1014,508,-0.64892578125,-0.04931640625,0.0340576171875
6.539,304,3147,951,344,-0.5772705078125,-0.076416015625,0.0408935546875
6.553,304,2636,865,330,-0.528076171875,0.029052734375,0.0654296875
6.558,302,2392,794,330,-0.5203857421875,0.1934814453125,0.034423828125
6.576,304,2111,778,330,-0.5435791015625,0.3411865234375,-0.002197265625
6.579,300,1772,728,328,-0.57763671875,0.464599609375,0.0125732421875
6.594,302,1637,713,328,-0.6280517578125,0.532958984375,0.05615234375
6.596,302,1580,682,324,-0.6817626953125,0.504150390625,0.0889892578125
6.609,302,1523,673,327,-0.7293701171875,0.414306640625,0.0911865234375
6.618,301,1488,669,328,-0.774658203125,0.3447265625,0.0689697265625
6.626,304,1494,668,327,-0.8154296875,0.3328857421875,0.048095703125
6.639,304,1500,673,324,-0.8486328125,0.354248046875,0.053466796875
6.660,302,1503,669,327,-0.8707275390625,0.365234375,0.0828857421875
6.661,287,1483,658,324,-0.888671875,0.3538818359375,0.11083984375
6.681,302,1456,639,324,-0.9066162109375,0.328857421875,0.121337890625
6.682,301,1450,631,327,-0.9205322265625,0.3016357421875,0.1126708984375
6.685,304,1483,625,328,-0.931640625,0.292724609375,0.091796875
6.700,304,1499,604,327,-0.9395751953125,0.3076171875,0.0692138671875
6.707,301,1555,620,328,-0.936279296875,0.326171875,0.0440673828125
6.715,302,1588,625,327,-0.9205322265625,0.32763671875,0.015869140625
6.729,295,1669,639,327,-0.8978271484375,0.3131103515625,-0.00439453125
6.737,302,1786,648,328,-0.87353515625,0.2952880859375,-0.0078125
6.745,302,1855,661,328,-0.8607177734375,0.2840576171875,0.0029296875
6.764,302,2076,695,327,-0.8619384765625,0.285400390625,0.02099609375
6.773,302,2190,697,330,-0.8665771484375,0.296142578125,0.03857421875
6.782,300,2296,698,332,-0.8648681640625,0.3004150390625,0.05126953125
6.798,304,2538,712,332,-0.8524169921875,0.28466796875,0.0616455078125
6.799,302,2700,710,330,-0.8363037109375,0.2554931640625,0.0765380859375
6.806,302,2861,723,334,-0.8240966796875,0.2252197265625,0.0960693359375
6.827,302,3117,733,338,-0.8189697265625,0.215087890625,0.0950927734375
6.828,304,3147,731,323,-0.80517578125,0.2274169921875,0.06005859375
6.836,302,3147,737,466,-0.7655029296875,0.224853515625,0.015380859375
6.850,302,3147,813,837,-0.6868896484375,0.192626953125,0.003662109375
6.860,302,3147,890,1043,-0.5604248046875,0.1552734375,0.06201171875
6.866,304,3147,949,1323,-0.37939453125,0.108642578125,0.1998291015625
6.893,304,3147,1069,1652,-0.186767578125,0.0718994140625,0.34521484375
6.895,306,3147,1156,1838,-0.0369873046875,0.0650634765625,0.3917236328125
6.896,307,3147,1265,2014,-0.0189208984375,0.0703125,0.3121337890625
6.909,308,3147,1422,2150,-0.2303466796875,0.2540283203125,0.12890625
6.918,310,3147,1494,2261,-0.6370849609375,0.6871337890625,-0.0836181640625
6.929,308,3147,1590,2312,-1.110595703125,1.09423828125,-0.2354736328125
6.940,310,3147,1757,2504,-1.5252685546875,1.1202392578125,-0.234375
6.947,310,3147,1845,2534,-1.8519287109375,0.805908203125,-0.0970458984375
6.963,315,3147,1904,2608,-2.1265869140625,0.4827880859375,0.0411376953125
6.970,312,3147,1936,2665,-2.3497314453125,0.2689208984375,0.1531982421875
6.996,308,3147,1892,2576,-2.352294921875,0.1451416015625,0.236328125
6.997,309,3147,1904,2619,-1.9046630859375,-0.09814453125,0.27197265625
6.999,313,3147,1954,2637,-1.2613525390625,-0.148193359375,0.3939208984375
7.009,313,3147,1944,2638,-1.013916015625,0.2767333984375,0.551513671875
7.016,306,3147,1900,2633,-1.20556640625,0.5665283203125,0.4990234375
7.036,310,3147,1820,2534,-1.4364013671875,0.534912109375,0.2882080078125
7.037,312,3147,1759,2445,-1.497802734375,0.4554443359375,0.1319580078125
7.046,315,3147,1746,2341,-1.4324951171875,0.3935546875,0.0859375
7.065,308,3147,1534,2180,-1.33447265625,0.3895263671875,0.0849609375
7.068,308,3147,1464,2087,-1.2269287109375,0.4300537109375,0.1065673828125
7.092,308,3147,1361,1900,-1.0953369140625,0.3682861328125,0.1405029296875
7.093,292,3147,1229,1602,-0.951416015625,0.1822509765625,0.1378173828125
7.106,304,3147,1160,1382,-0.80322265625,0.0240478515625,0.1038818359375
7.106,304,3147,1070,1162,-0.64794921875,-0.0081787109375,0.069091796875
7.119,302,3147,942,837,-0.5191650390625,0.0596923828125,-0.0137939453125
7.127,304,3147,902,625,-0.48095703125,0.169677734375,-0.14013671875
7.148,304,3147,871,427,-0.528076171875,0.2958984375,-0.19677734375
7.150,302,2964,800,328,-0.586181640625,0.42333984375,-0.14599609375
7.158,304,2725,790,336,-0.612060546875,0.531005859375,-0.0408935546875
7.167,296,2554,767,332,-0.6053466796875,0.5504150390625,0.077392578125
7.185,304,2375,735,328,-0.6011962890625,0.43994140625,0.148681640625
7.192,302,2333,739,334,-0.6444091796875,0.2974853515625,0.1405029296875
7.199,304,2333,720,332,-0.6444091796875,0.2974853515625,0.1405029296875
7.216,304,2233,713,329,-0.80517578125,0.1956787109375,0.1197509765625
7.218,302,2155,706,327,-0.8607177734375,0.218017578125,0.11669921875
7.225,302,2188,693,331,-0.8607177734375,0.218017578125,0.11669921875
7.239,302,2162,683,330,-0.903564453125,0.32275390625,0.1488037109375
7.249,302,2161,688,332,-0.90869140625,0.3331298828125,0.170166015625
7.257,304,2180,687,330,-0.90869140625,0.3331298828125,0.170166015625
7.270,304,2176,689,328,-0.912353515625,0.2689208984375,0.121337890625
7.298,302,2197,691,331,-0.91455078125,0.2442626953125,0.075927734375
7.298,281,2244,661,308,-0.91455078125,0.2442626953125,0.075927734375
7.300,292,2311,689,328,-0.914794921875,0.28515625,0.0321044921875
7.310,302,2419,695,331,-0.9071044921875,0.31689453125,0.0224609375
7.317,302,2507,702,332,-0.9071044921875,0.31689453125,0.0224609375
7.358,304,2689,702,330,-0.8841552734375,0.3316650390625,0.017822265625
7.369,304,2818,706,334,-0.8695068359375,0.3291015625,0.02978515625
7.369,300,2928,706,334,-0.8695068359375,0.3291015625,0.02978515625
7.377,304,3070,725,333,-0.82568359375,0.3128662109375,0.0609130859375
7.378,302,3139,731,336,-0.8017578125,0.29931640625,0.0701904296875
7.386,302,3147,737,338,-0.8017578125,0.29931640625,0.0701904296875
7.399,302,3147,749,390,-0.8226318359375,0.3271484375,0.0828857421875
7.399,304,3147,777,499,-0.8411865234375,0.3260498046875,0.0894775390625
7.405,302,3147,785,591,-0.8411865234375,0.3260498046875,0.0894775390625
7.421,300,3147,813,813,-0.80908203125,0.175537109375,0.070068359375
7.428,302,3147,853,957,-0.80908203125,0.175537109375,0.070068359375
7.440,304,3147,891,1131,-0.7574462890625,0.1163330078125,0.088134765625
7.449,304,3147,971,1503,-0.47802734375,0.0849609375,0.2236328125
7.465,304,3147,1004,1742,-0.47802734375,0.0849609375,0.2236328125
7.476,304,3147,1085,1905,-0.235595703125,-0.00146484375,0.2857666015625
7.480,305,3147,1222,2167,0.086181640625,-0.244384765625,0.340087890625
7.501,306,3147,1290,2296,0.086181640625,-0.244384765625,0.340087890625
7.501,293,3147,1464,2354,-0.01416015625,-0.17333984375,0.35400390625
7.510,307,3147,1589,2491,-0.9300537109375,0.96435546875,0.1463623046875
7.518,309,3147,1691,2584,-0.9300537109375,0.96435546875,0.1463623046875
7.527,308,3147,1727,2683,-1.4730224609375,1.67529296875,-0.1693115234375
7.539,310,3147,1934,2869,-2.1607666015625,0.957763671875,-0.0042724609375
7.552,313,3147,2026,3010,-2.1607666015625,0.957763671875,-0.0042724609375
7.557,308,3147,2021,3012,-2.449462890625,0.1810302734375,0.176025390625
7.578,310,3147,1880,2864,-2.0101318359375,-0.353271484375,0.263671875
7.578,310,3147,1864,2877,-2.0101318359375,-0.353271484375,0.263671875
7.586,310,3147,1953,2912,-1.2125244140625,-0.2677001953125,0.2568359375
7.606,308,3147,1955,2898,-1.1661376953125,0.854736328125,0.3736572265625
7.608,310,3147,1922,2879,-1.1661376953125,0.854736328125,0.3736572265625
7.617,310,3147,1855,2840,-1.5469970703125,0.7076416015625,0.255615234375
7.629,308,3147,1742,2651,-1.68115234375,0.345458984375,0.1995849609375
7.637,307,3147,1592,2543,-1.6055908203125,0.158203125,0.227783203125
7.647,306,3147,1503,2430,-1.453125,0.1949462890625,0.2532958984375
7.665,306,3147,1429,2175,-1.305419921875,0.3072509765625,0.2513427734375
7.684,304,3147,1320,1981,-1.1744384765625,0.3651123046875,0.253662109375
7.684,304,3147,1224,1742,-1.0496826171875,0.301513671875,0.237060546875
7.706,304,3147,1093,1275,-0.9197998046875,0.1402587890625,0.1553955078125
7.707,291,3147,1004,992,-0.755859375,-0.0113525390625,0.0616455078125
7.708,302,3147,912,749,-0.56494140625,-0.0877685546875,-0.014404296875
7.723,304,3147,840,345,-0.443603515625,-0.033447265625,-0.140869140625
7.729,300,2827,780,344,-0.4434814453125,0.13916015625,-0.23974609375
7.736,300,2473,750,338,-0.4970703125,0.33544921875,-0.185546875
7.750,300,1899,688,334,-0.54541015625,0.4898681640625,-0.0257568359375
7.758,300,1217,644,328,-0.56689453125,0.5548095703125,0.120361328125
7.766,301,963,617,323,-0.5716552734375,0.5076904296875,0.1766357421875
7.785,300,815,593,324,-0.607421875,0.42578125,0.15771484375
7.788,300,790,586,328,-0.6798095703125,0.3553466796875,0.1519775390625
7.808,299,828,513,327,-0.719970703125,0.262939453125,0.187744140625
7.809,281,867,496,327,-0.740234375,0.1973876953125,0.2191162109375
7.818,300,893,499,327,-0.7823486328125,0.22119140625,0.2398681640625
7.826,300,899,531,324,-0.814208984375,0.2789306640625,0.2572021484375
7.839,300,910,506,324,-0.828857421875,0.296630859375,0.2498779296875
7.847,299,900,495,327,-0.8360595703125,0.2723388671875,0.2132568359375
7.857,300,946,486,327,-0.8409423828125,0.247802734375,0.16748046875
7.870,300,1109,481,327,-0.849609375,0.2342529296875,0.1298828125
7.908,300,1274,506,328,-0.8658447265625,0.22607421875,0.097900390625
7.911,300,1373,546,331,-0.8880615234375,0.2344970703125,0.069091796875
7.912,298,1595,614,304,-0.9088134765625,0.2608642578125,0.042236328125
7.913,300,1719,631,330,-0.92529296875,0.2906494140625,0.0157470703125
7.916,300,1838,643,334,-0.9351806640625,0.3162841796875,-0.0013427734375
7.930,300,2024,658,333,-0.931396484375,0.335693359375,-0.0003662109375
7.938,300,2145,659,337,-0.9102783203125,0.338134765625,0.0184326171875
7.946,300,2247,669,338,-0.874755859375,0.3248291015625,0.044921875
7.960,300,2424,678,336,-0.8341064453125,0.3143310546875,0.0673828125
7.968,301,2576,679,344,-0.7938232421875,0.3125,0.069091796875
7.976,300,2635,689,344,-0.768798828125,0.31689453125,0.049560546875
8.005,300,2916,683,332,-0.7613525390625,0.328125,0.04052734375
8.015,302,3110,682,348,-0.7498779296875,0.337646484375,0.058837890625
8.031,302,3147,679,342,-0.71630859375,0.3052978515625,0.0811767578125
8.031,302,3147,631,661,-0.6591796875,0.2305908203125,0.0740966796875
8.040,299,3147,673,840,-0.5723876953125,0.1717529296875,0.0787353515625
8.041,301,3147,712,1050,-0.3934326171875,0.116455078125,0.159423828125
8.050,307,3147,844,1313,-0.151123046875,0.0006103515625,0.26708984375
8.058,304,3147,958,1453,0.00830078125,-0.16015625,0.3553466796875
8.066,295,3147,1078,1627,-0.022705078125,-0.2210693359375,0.391357421875
8.080,306,3147,1236,1774,-0.2840576171875,-0.066650390625,0.3951416015625
8.088,306,3147,1255,1925,-0.723388671875,0.2872314453125,0.4112548828125
8.118,304,3147,1292,2014,-1.2274169921875,0.8858642578125,0.296875
8.119,294,3147,1398,2167,-1.6990966796875,1.5047607421875,0.0413818359375
8.120,306,3147,1440,2230,-2.03515625,1.519287109375,-0.09130859375
8.126,308,3147,1499,2317,-2.2493896484375,0.8956298828125,-0.02587890625
8.140,305,3147,1476,2337,-2.40185546875,0.2593994140625,0.12451171875
8.148,306,3147,1452,2266,-2.1981201171875,-0.18310546875,0.194580078125
8.156,308,3147,1480,2281,-1.5367431640625,-0.3509521484375,0.1890869140625
8.170,308,3147,1516,2279,-1.0224609375,0.1051025390625,0.3590087890625
8.178,306,3147,1506,2284,-1.0933837890625,0.8074951171875,0.467041015625
8.190,306,3147,1492,2238,-1.448486328125,0.9930419921875,0.3016357421875
8.214,306,3147,1417,2155,-1.660888671875,0.707275390625,0.1202392578125
8.214,306,3147,1351,2058,-1.645263671875,0.4432373046875,0.0794677734375
8.232,304,3147,1282,1961,-1.4886474609375,0.37646484375,0.1512451171875
8.238,304,3147,1243,1786,-1.4886474609375,0.37646484375,0.1512451171875
8.245,305,3147,1132,1468,-1.125244140625,0.3668212890625,0.18408203125
8.254,304,3147,1024,1316,-0.97900390625,0.3389892578125,0.15087890625
8.262,304,3147,860,1004,-0.826904296875,0.2904052734375,0.1048583984375
8.273,300,3147,756,634,-0.668212890625,0.2176513671875,0.056640625
8.279,302,3147,733,399,-0.5335693359375,0.1268310546875,-0.017822265625
8.294,301,3059,706,347,-0.4896240234375,0.108642578125,-0.163330078125
8.300,302,2271,678,342,-0.532958984375,0.213134765625,-0.251220703125
8.316,300,1800,648,336,-0.5694580078125,0.3563232421875,-0.1749267578125
8.327,300,1184,638,332,-0.5947265625,0.47021484375,-0.035888671875
8.329,299,963,537,328,-0.6282958984375,0.5201416015625,0.063232421875
8.342,294,853,442,328,-0.6273193359375,0.4727783203125,0.0697021484375
8.346,296,745,376,328,-0.6273193359375,0.4727783203125,0.0697021484375
8.359,296,682,319,324,-0.638671875,0.3602294921875,-0.0936279296875
8.368,298,705,321,324,-0.696533203125,0.3218994140625,-0.09814453125
8.376,296,694,322,324,-0.696533203125,0.3218994140625,-0.09814453125
8.396,299,683,321,323,-0.8389892578125,0.280029296875,0.09130859375
8.398,296,693,318,323,-0.8828125,0.3018798828125,0.1907958984375
8.427,296,695,321,324,-0.8828125,0.3018798828125,0.1907958984375
8.427,299,706,319,324,-0.8682861328125,0.3150634765625,0.2750244140625
8.428,297,705,319,323,-0.81640625,0.3009033203125,0.3175048828125
8.437,298,710,321,324,-0.81640625,0.3009033203125,0.3175048828125
8.454,296,723,321,323,-0.6986083984375,0.2420654296875,0.3658447265625
8.458,298,725,319,324,-0.65869140625,0.177001953125,0.326416015625
8.466,299,731,319,324,-0.65869140625,0.177001953125,0.326416015625
8.479,299,738,321,324,-0.6041259765625,0.0867919921875,0.2222900390625
8.503,300,742,363,324,-0.595703125,0.08154296875,0.1763916015625
8.530,299,1029,399,328,-0.595703125,0.08154296875,0.1763916015625
8.531,301,1816,763,336,-0.6856689453125,0.1422119140625,-0.0126953125
8.532,300,2207,772,337,-0.873046875,0.3035888671875,-0.132080078125
8.532,300,2552,813,316,-0.873046875,0.3035888671875,-0.132080078125
8.540,302,2968,849,337,-1.1175537109375,0.6163330078125,-0.259765625
8.549,300,3144,865,346,-1.1175537109375,0.6163330078125,-0.259765625
8.556,302,3147,871,383,-1.0960693359375,0.5985107421875,-0.2584228515625
8.569,302,3147,895,518,-1.0816650390625,0.50732421875,-0.071533203125
8.577,304,3147,938,572,-1.0816650390625,0.50732421875,-0.071533203125
8.585,304,3147,958,642,-1.07421875,0.4017333984375,-0.03662109375
8.601,302,3147,971,725,-1.103759765625,0.2047119140625,-0.040771484375
8.608,302,3147,951,759,-1.103759765625,0.2047119140625,-0.040771484375
8.636,304,3147,980,790,-1.101806640625,0.2001953125,-0.00244140625
8.651,300,3147,1005,860,-0.9967041015625,0.3046875,0.0384521484375
8.662,302,3147,1029,873,-0.9967041015625,0.3046875,0.0384521484375
8.663,302,3147,1043,946,-0.904296875,0.3421630859375,0.078125
8.682,302,3147,1034,1010,-0.5675048828125,0.2760009765625,0.18603515625
8.689,302,3147,1004,1039,-0.5675048828125,0.2760009765625,0.18603515625
8.690,304,3147,978,1125,-0.3486328125,0.1900634765625,0.15966796875
8.705,302,3147,907,1323,0.1300048828125,0.071044921875,0.218017578125
8.707,302,3147,944,1441,0.1300048828125,0.071044921875,0.218017578125
8.707,290,3147,1050,1580,0.230712890625,0.1083984375,0.296630859375
8.740,302,3147,1123,1904,-0.36376953125,0.39208984375,0.2869873046875
8.743,308,3147,1170,2053,-0.36376953125,0.39208984375,0.2869873046875
8.744,306,3147,1213,2225,-0.874267578125,0.705322265625,0.1981201171875
8.758,306,3147,1264,2634,-1.7547607421875,1.3958740234375,0.0804443359375
8.758,310,3147,1348,2912,-1.7547607421875,1.3958740234375,0.0804443359375
8.766,308,3147,1487,3095,-2.2294921875,1.238525390625,0.1090087890625
8.779,304,3147,1439,3115,-2.7152099609375,0.6199951171875,0.126220703125
8.792,306,3147,1386,3112,-2.6485595703125,-0.207763671875,0.066162109375
8.795,308,3147,1428,3121,-1.8382568359375,-0.849853515625,0.0595703125
8.809,306,3147,1521,3114,-1.03662109375,-0.6771240234375,0.278076171875
8.826,306,3147,1546,3147,-0.8935546875,0.234130859375,0.49365234375
8.828,306,3147,1547,3124,-1.2357177734375,0.835205078125,0.446044921875
8.846,308,3147,1531,2993,-1.56494140625,0.7518310546875,0.2481689453125
8.850,304,3147,1529,2833,-1.6580810546875,0.499755859375,0.113525390625
8.856,306,3147,1492,2668,-1.545166015625,0.3795166015625,0.1085205078125
8.869,306,3147,1395,2372,-1.3399658203125,0.293212890625,0.1556396484375
8.878,306,3147,1362,2222,-1.1292724609375,0.199951171875,0.185302734375
8.886,306,3147,1323,2041,-0.935791015625,0.165283203125,0.1981201171875
8.912,305,3147,1236,1732,-0.771484375,0.2373046875,0.2034912109375
8.912,304,3147,1201,1550,-0.6600341796875,0.318359375,0.1800537109375
8.935,305,3147,1147,1345,-0.5977783203125,0.27685546875,0.1259765625
8.937,302,3147,1053,1064,-0.5689697265625,0.18212890625,0.07568359375
8.938,304,3147,1083,918,-0.58056640625,0.156005859375,0.0413818359375
8.958,304,3147,1056,785,-0.6187744140625,0.1962890625,0.0242919921875
8.960,287,3147,1034,532,-0.6492919921875,0.253662109375,0.0186767578125
8.968,304,3147,1012,409,-0.6712646484375,0.3170166015625,0.015625
8.976,304,3147,975,348,-0.685302734375,0.38427734375,0.032470703125
8.990,302,2859,963,342,-0.6923828125,0.437744140625,0.0728759765625
8.998,304,2741,922,346,-0.7003173828125,0.4569091796875,0.127685546875
9.017,302,2621,895,346,-0.716552734375,0.4381103515625,0.1728515625
9.033,304,2471,860,336,-0.7467041015625,0.392578125,0.1767578125
9.039,302,2364,838,344,-0.783935546875,0.3460693359375,0.154296875
9.041,301,2268,815,342,-0.8118896484375,0.3157958984375,0.147705078125
9.051,302,2113,764,334,-0.823486328125,0.3077392578125,0.1630859375
9.060,302,2021,749,337,-0.8277587890625,0.328857421875,0.176513671875
9.066,299,1996,712,338,-0.8265380859375,0.3646240234375,0.1756591796875
9.080,302,2024,731,333,-0.8280029296875,0.3916015625,0.1585693359375
9.088,302,2032,722,336,-0.844482421875,0.398193359375,0.12646484375
9.095,302,2076,730,338,-0.86474609375,0.3870849609375,0.0880126953125
9.112,302,2141,749,333,-0.8721923828125,0.3631591796875,0.050048828125
9.118,301,2207,785,338,-0.867431640625,0.334716796875,0.0146484375
9.140,302,2275,806,343,-0.861572265625,0.3175048828125,-0.0108642578125
9.140,302,2456,833,338,-0.860107421875,0.3179931640625,-0.019287109375
9.148,304,2552,846,344,-0.8583984375,0.3277587890625,-0.0057373046875
9.156,300,2643,846,344,-0.84619140625,0.330078125,0.020751953125
9.170,302,2837,888,338,-0.818603515625,0.3162841796875,0.039306640625
9.178,302,2908,920,348,-0.7823486328125,0.29736328125,0.0465087890625
9.186,302,2995,938,347,-0.748046875,0.29296875,0.051513671875
9.200,302,3147,1011,346,-0.721923828125,0.3052978515625,0.044921875
9.215,304,3147,1039,403,-0.7020263671875,0.3104248046875,0.031005859375
9.217,304,3147,1048,509,-0.6807861328125,0.2861328125,0.0260009765625
9.246,304,3147,1018,707,-0.664306640625,0.2386474609375,0.02197265625
9.246,304,3147,1063,833,-0.6409912109375,0.188232421875,0.0234375
9.247,292,3147,1029,958,-0.5341796875,0.148193359375,0.0494384765625
9.259,304,3147,1056,1243,-0.3372802734375,0.107666015625,0.09130859375
9.270,306,3147,1037,1398,-0.148193359375,0.1158447265625,0.1343994140625
9.276,304,3147,1058,1557,-0.0626220703125,0.1883544921875,0.14697265625
9.290,302,3147,1097,1837,-0.1490478515625,0.2994384765625,0.118408203125
9.298,304,3147,1115,2035,-0.4302978515625,0.5174560546875,0.103515625
9.306,304,3147,1120,2218,-0.82958984375,0.97607421875,0.2236328125
9.319,307,3147,1228,2605,-1.177978515625,1.5123291015625,0.486083984375
9.328,306,3147,1241,2970,-1.435546875,1.4608154296875,0.7520751953125
9.347,307,3147,1351,3147,-1.7130126953125,0.7239990234375,0.8270263671875
9.359,305,3147,1416,3147,-2.0771484375,0.0404052734375,0.5655517578125
9.359,306,3147,1427,3147,-2.3861083984375,-0.22509765625,0.1302490234375
9.366,305,3147,1349,3147,-2.2867431640625,-0.3280029296875,-0.2330322265625
9.379,304,3147,1323,3147,-1.6796875,-0.3876953125,-0.306884765625
9.388,306,3147,1397,3147,-1.135986328125,-0.0206298828125,0.012939453125
9.396,306,3147,1415,3147,-1.1602783203125,0.806884765625,0.3187255859375
9.410,308,3147,1424,3147,-1.484130859375,1.314697265625,0.2962646484375
9.420,306,3147,1415,3147,-1.665771484375,1.1448974609375,0.167724609375
9.427,306,3147,1390,3095,-1.6170654296875,0.795654296875,0.1431884765625
9.450,304,3147,1348,2748,-1.44482421875,0.61181640625,0.2186279296875
9.451,306,3147,1290,2512,-1.2491455078125,0.4849853515625,0.253662109375
9.456,304,3147,1229,2246,-1.2491455078125,0.4849853515625,0.253662109375
9.470,302,3147,1131,1809,-0.930908203125,0.183837890625,0.1854248046875
9.485,304,3147,1071,1569,-0.7642822265625,0.0516357421875,0.2109375
9.493,305,3147,1014,1302,-0.7642822265625,0.0516357421875,0.2109375
9.500,304,3147,957,917,-0.46533203125,-0.216552734375,0.175048828125
9.507,296,3147,918,816,-0.4102783203125,-0.1610107421875,0.0887451171875
9.523,302,3147,894,648,-0.4102783203125,-0.1610107421875,0.0887451171875
9.551,300,3126,788,338,-0.5106201171875,0.2388916015625,-0.0274658203125
9.552,304,2851,788,347,-0.584228515625,0.3519287109375,-0.1673583984375
9.553,301,2637,675,323,-0.584228515625,0.3519287109375,-0.1673583984375
9.560,300,2161,490,334,-0.6104736328125,0.5693359375,-0.1568603515625
9.569,300,1796,454,334,-0.61865234375,0.6790771484375,-0.044677734375
9.580,299,1560,438,332,-0.61865234375,0.6790771484375,-0.044677734375
9.594,299,1386,390,328,-0.6451416015625,0.6226806640625,0.0531005859375
9.598,296,1452,371,329,-0.677978515625,0.5321044921875,0.1173095703125
9.606,299,1508,360,333,-0.677978515625,0.5321044921875,0.1173095703125
9.626,299,1555,389,329,-0.7838134765625,0.416259765625,0.1983642578125
9.628,299,1613,411,330,-0.8294677734375,0.3668212890625,0.1663818359375
9.650,298,1659,426,334,-0.8294677734375,0.3668212890625,0.1663818359375
9.650,299,1742,454,334,-0.8907470703125,0.353759765625,0.113037109375
9.658,300,1774,470,334,-0.9122314453125,0.3564453125,0.0858154296875
9.723,299,1815,495,334,-0.9122314453125,0.3564453125,0.0858154296875
9.724,300,1920,526,332,-0.91943359375,0.3419189453125,0.0382080078125
9.724,300,1983,532,338,-0.91943359375,0.3419189453125,0.0382080078125
9.724,299,2037,539,336,-0.9149169921875,0.3438720703125,0.018798828125
9.724,300,2145,548,334,-0.8931884765625,0.3736572265625,-0.00390625
9.724,304,2188,614,338,-0.8931884765625,0.3736572265625,-0.00390625
9.727,302,2253,648,338,-0.8773193359375,0.3748779296875,0.0023193359375
9.757,301,2361,679,336,-0.8482666015625,0.3543701171875,0.0614013671875
9.758,302,2412,698,342,-0.8482666015625,0.3543701171875,0.0614013671875
9.758,302,2430,697,342,-0.8392333984375,0.33935546875,0.0780029296875
9.770,307,2573,739,337,-0.827880859375,0.3212890625,0.045654296875
9.781,302,2674,736,346,-0.827880859375,0.3212890625,0.045654296875
9.786,300,2788,697,346,-0.8189697265625,0.3089599609375,-0.0179443359375
9.814,299,2974,601,342,-0.7760009765625,0.2425537109375,-0.2462158203125
9.815,298,3105,562,347,-0.7760009765625,0.2425537109375,-0.2462158203125
9.817,287,3147,531,351,-0.7574462890625,0.2398681640625,-0.315673828125
9.831,302,3147,603,424,-0.68310546875,0.37841796875,-0.01171875
9.838,300,3147,619,497,-0.68310546875,0.37841796875,-0.01171875
9.859,294,3147,654,533,-0.525146484375,0.38037109375,0.2650146484375
9.862,300,3147,713,577,0.0316162109375,-0.085693359375,0.3455810546875
9.871,302,3147,733,687,0.0316162109375,-0.085693359375,0.3455810546875
9.878,300,3147,707,750,0.17236328125,-0.490234375,0.260986328125
9.886,302,3147,725,912,0.0064697265625,-0.509033203125,0.264892578125
9.899,304,3147,748,1043,-0.471435546875,0.1636962890625,0.392578125
9.911,304,3147,766,1264,-1.0631103515625,1.3343505859375,0.46044921875
9.919,304,3147,777,1463,-1.546142578125,2.2523193359375,0.3807373046875
9.935,306,3147,855,1759,-1.8271484375,2.233642578125,0.342041015625
9.937,295,3147,910,1959,-1.9163818359375,1.5130615234375,0.449462890625
9.955,302,3147,933,2113,-1.87744140625,0.559326171875,0.5228271484375
9.984,304,3147,922,2188,-1.7713623046875,-0.314453125,0.34130859375
9.984,302,3147,922,2230,-1.5640869140625,-0.715087890625,0.03271484375
9.984,304,3147,923,2260,-1.3712158203125,-0.264892578125,-0.0604248046875
9.988,300,3147,991,2392,-1.3663330078125,0.7335205078125,0.0938720703125
9.999,302,3147,1038,2368,-1.5029296875,1.3177490234375,0.212158203125
10.006,302,3147,1071,2354,-1.6190185546875,1.1566162109375,0.20556640625
10.018,301,3147,1067,2218,-1.5819091796875,0.69921875,0.1907958984375
10.039,304,3147,1078,2078,-1.4228515625,0.353515625,0.19775390625
10.040,310,3147,982,1907,-1.2459716796875,0.17529296875,0.1876220703125
10.048,301,3147,899,1715,-1.0811767578125,0.0926513671875,0.151611328125
10.063,301,3147,846,1478,-0.8985595703125,0.059326171875,0.125
10.066,302,3147,846,1306,-0.7099609375,0.03369140625,0.1263427734375
10.081,302,3147,803,986,-0.5592041015625,0.0294189453125,0.1390380859375
10.088,289,3147,778,826,-0.4605712890625,0.0850830078125,0.140380859375
10.096,290,3147,742,628,-0.43359375,0.16796875,0.1082763671875
10.162,304,3056,584,334,-0.46826171875,0.246826171875,0.0545654296875
10.164,287,2807,526,330,-0.493408203125,0.354248046875,0.0284423828125
10.166,302,2573,488,328,-0.5020751953125,0.5260009765625,0.055908203125
10.167,308,2468,481,328,-0.529296875,0.73779296875,0.117919921875
10.167,302,2359,414,330,-0.57177734375,0.8636474609375,0.1417236328125
10.168,300,2320,400,330,-0.63525390625,0.778076171875,0.08984375
10.171,301,2180,388,324,-0.7081298828125,0.55224609375,0.0194091796875
10.178,299,2139,445,328,-0.7618408203125,0.3701171875,-0.0269775390625
10.186,301,2083,444,328,-0.795166015625,0.3009033203125,-0.0335693359375
10.200,302,2050,456,325,-0.82421875,0.2994384765625,0.0025634765625
10.209,299,2035,455,328,-0.860107421875,0.325439453125,0.051025390625
10.216,300,2023,386,328,-0.887939453125,0.3568115234375,0.0792236328125
10.230,301,1951,408,327,-0.90380859375,0.3763427734375,0.07470703125
10.239,301,1900,468,328,-0.919189453125,0.3826904296875,0.05224609375
10.246,301,1867,465,328,-0.92919921875,0.390625,0.0355224609375
10.266,302,1785,506,327,-0.92138671875,0.4046630859375,0.0277099609375
10.270,292,1783,499,323,-0.8958740234375,0.4044189453125,0.019287109375
10.275,301,1775,521,330,-0.863525390625,0.3787841796875,0.0133056640625
10.289,302,1914,539,327,-0.8331298828125,0.3458251953125,0.0206298828125
10.298,300,1997,588,328,-0.806884765625,0.3233642578125,0.0443115234375
10.307,304,2106,605,331,-0.7886962890625,0.318603515625,0.07177734375
10.320,302,2231,636,327,-0.7779541015625,0.3287353515625,0.0870361328125
10.328,302,2347,659,330,-0.7623291015625,0.330078125,0.0830078125
10.345,300,2467,633,330,-0.7432861328125,0.30224609375,0.0665283203125
10.373,304,2715,693,330,-0.7301025390625,0.2684326171875,0.0543212890625
10.375,304,2905,815,332,-0.7279052734375,0.2703857421875,0.0479736328125
10.385,306,3089,854,331,-0.720703125,0.2896728515625,0.0322265625
10.387,300,3147,815,481,-0.68310546875,0.286865234375,-0.0098876953125
10.399,304,3147,740,653,-0.605712890625,0.2503662109375,-0.0721435546875
10.400,301,3147,659,794,-0.4451904296875,0.1768798828125,-0.163818359375
10.410,299,3147,648,1173,-0.2021484375,0.082275390625,-0.1817626953125
10.418,301,3147,677,1336,0.041259765625,-0.0224609375,0.050048828125
10.449,304,3147,777,1546,0.0828857421875,-0.027099609375,0.391357421875
10.472,306,3147,906,1863,-0.1998291015625,0.2191162109375,0.5770263671875
10.472,304,3147,959,2058,-0.6533203125,0.61572265625,0.522705078125
10.472,301,3147,951,2296,-1.0870361328125,0.8978271484375,0.2615966796875
10.472,304,3147,1018,2430,-1.4134521484375,1.1102294921875,0.038818359375
10.483,305,3147,1103,2608,-1.6319580078125,1.258544921875,0.135498046875
10.486,306,3147,1198,2832,-1.8289794921875,0.9617919921875,0.4461669921875
10.499,306,3147,1254,3078,-2.089599609375,0.3887939453125,0.608642578125
10.508,306,3147,1236,2930,-2.2965087890625,0.06787109375,0.4862060546875
10.515,305,3147,1173,2973,-2.0789794921875,-0.1490478515625,0.1983642578125
10.529,308,3147,1217,3034,-1.52734375,-0.1505126953125,0.1055908203125
10.538,309,3147,1236,3055,-1.2567138671875,0.3682861328125,0.3115234375
10.572,305,3147,1264,3027,-1.406982421875,0.8167724609375,0.40625
10.573,304,3147,1185,2875,-1.601806640625,0.7352294921875,0.275390625
10.573,300,3147,1131,2704,-1.588623046875,0.43310546875,0.162353515625
10.576,304,3147,1101,2467,-1.4205322265625,0.281982421875,0.1812744140625
10.603,304,3147,1029,2091,-1.228271484375,0.25830078125,0.229248046875
10.604,304,3147,977,1922,-1.064453125,0.2220458984375,0.2054443359375
10.606,306,3147,922,1750,-1.064453125,0.2220458984375,0.2054443359375
10.620,302,3147,801,1488,-0.7825927734375,0.2041015625,0.1746826171875
10.628,302,3147,749,1330,-0.6707763671875,0.17138671875,0.185546875
10.636,296,3147,691,1107,-0.6707763671875,0.17138671875,0.185546875
10.657,301,3147,631,780,-0.5123291015625,-0.0296630859375,0.066162109375
10.675,300,3147,588,606,-0.48583984375,-0.0059814453125,0.0330810546875
10.676,304,3147,521,439,-0.48583984375,-0.0059814453125,0.0330810546875
10.679,300,2927,378,330,-0.543212890625,0.330322265625,0.0240478515625
10.689,300,2621,318,331,-0.5850830078125,0.469970703125,-0.0052490234375
10.697,300,2437,323,331,-0.5850830078125,0.469970703125,-0.0052490234375
10.709,294,2091,316,342,-0.652587890625,0.6051025390625,0.04052734375
10.718,296,1855,322,343,-0.713623046875,0.60546875,0.0684814453125
10.725,299,1640,330,330,-0.713623046875,0.60546875,0.0684814453125
10.739,296,1372,321,327,-0.759033203125,0.4442138671875,0.04931640625
10.752,299,1233,325,328,-0.77392578125,0.41650390625,0.0289306640625
10.779,298,1173,326,330,-0.77392578125,0.41650390625,0.0289306640625
10.782,299,1042,327,330,-0.785400390625,0.4986572265625,0.065185546875
10.782,299,1066,328,330,-0.7864990234375,0.5277099609375,0.0958251953125
10.786,298,1066,321,328,-0.7864990234375,0.5277099609375,0.0958251953125
10.800,299,1074,318,326,-0.8131103515625,0.4686279296875,0.1094970703125
10.808,299,1115,342,329,-0.8338623046875,0.393798828125,0.0850830078125
10.819,300,1173,334,330,-0.8338623046875,0.393798828125,0.0850830078125
10.829,298,1318,338,330,-0.8507080078125,0.2899169921875,0.03271484375
10.838,299,1426,348,330,-0.8507080078125,0.2899169921875,0.03271484375
10.845,298,1494,354,330,-0.8486328125,0.289794921875,0.0057373046875
10.859,299,1687,373,328,-0.83984375,0.3333740234375,-0.00146484375
10.876,299,1803,348,333,-0.83984375,0.3333740234375,-0.00146484375
10.878,296,1931,347,336,-0.8349609375,0.34423828125,0.0128173828125
10.889,296,2165,336,342,-0.824462890625,0.3438720703125,0.0416259765625
10.898,299,2284,348,338,-0.824462890625,0.3438720703125,0.0416259765625
10.906,296,2361,364,342,-0.8253173828125,0.353515625,0.06640625
10.919,299,2516,346,334,-0.8092041015625,0.38720703125,0.0860595703125
10.932,299,2665,481,344,-0.8092041015625,0.38720703125,0.0860595703125
10.935,299,2790,555,346,-0.7689208984375,0.3636474609375,0.0367431640625
10.956,299,3065,607,338,-0.669677734375,0.2591552734375,-0.095458984375
10.961,300,3147,632,348,-0.669677734375,0.2591552734375,-0.095458984375
10.975,300,3147,656,481,-0.60546875,0.259765625,-0.01318359375
10.986,299,3147,710,712,-0.3143310546875,0.143798828125,0.1650390625
10.997,299,3147,761,900,-0.3143310546875,0.143798828125,0.1650390625
10.998,300,3147,780,1100,-0.096923828125,-0.0499267578125,0.1387939453125
11.010,300,3147,822,1463,0.134765625,0.0633544921875,0.3597412109375
11.018,300,3147,864,1681,0.134765625,0.0633544921875,0.3597412109375
11.026,300,3147,874,1897,-0.11865234375,0.5570068359375,0.4127197265625
11.044,304,3147,999,2161,-0.6727294921875,1.1131591796875,0.2919921875
11.047,304,3147,1065,2395,-1.21875,1.5989990234375,0.1484375
11.058,305,3147,1185,2843,-1.571533203125,1.6671142578125,0.1463623046875
11.089,306,3147,1401,3147,-1.914306640625,1.2623291015625,0.2781982421875
11.091,306,3147,1452,3147,-2.4210205078125,0.6717529296875,0.359130859375
11.091,302,3147,1365,3147,-2.7701416015625,0.0123291015625,0.2005615234375
11.100,306,3147,1243,3147,-2.3719482421875,-0.640625,-0.042236328125
11.108,306,3147,1255,3147,-1.50537109375,-0.7869873046875,-0.0576171875
11.116,307,3147,1289,3147,-1.0072021484375,0.0648193359375,0.18212890625
11.130,304,3147,1241,3147,-1.1724853515625,1.1429443359375,0.3411865234375
11.138,304,3147,1201,3076,-1.611083984375,1.37255859375,0.2510986328125
11.146,304,3147,1107,2881,-1.8321533203125,0.9195556640625,0.1070556640625
11.165,302,3147,1014,2440,-1.740966796875,0.503662109375,0.0848388671875
11.168,302,3147,971,2156,-1.4844970703125,0.28759765625,0.160888671875
11.196,300,3147,879,1860,-1.2259521484375,0.1331787109375,0.197265625
11.197,299,3147,713,1335,-0.9766845703125,0.0511474609375,0.1859130859375
11.210,302,3147,653,1091,-0.7218017578125,0.014404296875,0.2137451171875
11.213,299,3147,430,858,-0.501708984375,-0.0428466796875,0.2293701171875
11.220,300,3147,401,636,-0.329833984375,-0.0367431640625,0.157470703125
11.227,298,3147,321,501,-0.2447509765625,0.065185546875,0.0794677734375
11.236,296,3147,318,361,-0.2578125,0.21630859375,0.0859375
11.250,299,2784,316,334,-0.3099365234375,0.349853515625,0.0753173828125
11.262,298,2665,328,342,-0.3284912109375,0.4542236328125,-0.030029296875
11.270,292,2541,361,338,-0.3414306640625,0.62353515625,-0.097412109375
11.296,298,2599,351,336,-0.4300537109375,0.876220703125,-0.06689453125
11.297,299,2647,359,344,-0.574951171875,1.058349609375,-0.0322265625
11.299,298,2668,323,338,-0.7099609375,0.986083984375,-0.025390625
11.313,296,2648,318,336,-0.806884765625,0.69189453125,-0.021240234375
11.321,296,2599,316,343,-0.8704833984375,0.421875,-0.0281982421875
11.326,299,2514,317,310,-0.9029541015625,0.29736328125,-0.025390625
11.340,296,2504,317,333,-0.9130859375,0.259521484375,0.0191650390625
11.350,298,2492,318,331,-0.9124755859375,0.2489013671875,0.0826416015625
11.357,298,2486,317,336,-0.9163818359375,0.2607421875,0.114990234375
11.372,280,2400,321,338,-0.9267578125,0.3028564453125,0.1129150390625
11.392,298,2384,318,338,-0.9241943359375,0.3548583984375,0.104736328125
11.403,299,2298,327,332,-0.900390625,0.3759765625,0.106201171875
11.416,296,2306,316,336,-0.8681640625,0.35888671875,0.11083984375
11.422,298,2296,324,338,-0.846435546875,0.3580322265625,0.0980224609375
11.422,299,2330,327,338,-0.84130859375,0.4002685546875,0.063720703125
11.425,299,2372,324,338,-0.8427734375,0.4461669921875,0.0206298828125
11.439,298,2456,321,338,-0.841552734375,0.4627685546875,-0.010986328125
11.447,299,2521,316,337,-0.8367919921875,0.461181640625,-0.011962890625
11.455,298,2579,319,338,-0.827880859375,0.4658203125,0.010986328125
11.469,299,2695,343,336,-0.814208984375,0.4718017578125,0.037841796875
11.500,306,2734,360,344,-0.7884521484375,0.45166015625,0.04638671875
11.518,295,2801,346,344,-0.7542724609375,0.4102783203125,0.0252685546875
11.526,298,2901,360,338,-0.7354736328125,0.384765625,0.00634765625
11.527,298,2981,387,342,-0.7471923828125,0.391845703125,0.0137939453125
11.534,299,3045,428,338,-0.7802734375,0.413818359375,0.0262451171875
11.539,302,3147,584,357,-0.8087158203125,0.3946533203125,0.023681640625
11.539,301,3147,555,391,-0.802734375,0.31787109375,0.002197265625
11.546,301,3147,660,513,-0.7435302734375,0.23583984375,-0.0069580078125
11.573,300,3147,648,749,-0.6357421875,0.175537109375,0.048095703125
11.573,300,3147,680,855,-0.4610595703125,0.137451171875,0.14794921875
11.597,300,3147,695,1003,-0.1971435546875,0.10009765625,0.228759765625
11.597,302,3147,754,1320,0.0482177734375,0.046630859375,0.280517578125
11.598,292,3147,767,1550,0.1495361328125,0.0535888671875,0.31884765625
11.615,302,3147,820,1768,0.08203125,0.220703125,0.3099365234375
11.620,304,3147,998,2137,-0.1917724609375,0.5277099609375,0.220458984375
11.628,304,3147,1051,2299,-0.6871337890625,0.9490966796875,0.0487060546875
11.636,306,3147,1117,2551,-1.215576171875,1.418212890625,-0.087890625
11.650,306,3147,1236,3105,-1.6434326171875,1.645263671875,-0.0465087890625
11.658,307,3147,1341,3147,-2.0760498046875,1.4776611328125,0.2393798828125
11.673,308,3147,1372,3147,-2.5439453125,0.93505859375,0.5281982421875
11.680,306,3147,1345,3147,-2.583251953125,-0.0032958984375,0.4256591796875
11.697,306,3147,1343,3147,-1.9154052734375,-0.762451171875,0.1636962890625
11.697,307,3147,1359,3147,-1.16552734375,-0.469482421875,0.17333984375
11.710,307,3147,1367,3147,-0.926513671875,0.6561279296875,0.3175048828125
11.728,307,3147,1370,3147,-1.2120361328125,1.434814453125,0.2791748046875
11.728,307,3147,1348,3147,-1.2120361328125,1.434814453125,0.2791748046875
11.740,308,3147,1290,3017,-1.737060546875,0.9793701171875,0.095947265625
11.748,306,3147,1251,2777,-1.5733642578125,0.6790771484375,0.1572265625
11.756,307,3147,1189,2559,-1.5733642578125,0.6790771484375,0.1572265625
11.776,304,3147,1064,2186,-0.9837646484375,0.3421630859375,0.22216796875
11.778,310,3147,1054,1904,-0.7503662109375,0.3203125,0.2371826171875
11.803,304,3147,1056,1650,-0.7503662109375,0.3203125,0.2371826171875
11.804,304,3147,947,1318,-0.5411376953125,0.123291015625,0.1669921875
11.808,304,3147,951,1166,-0.5032958984375,0.009521484375,0.017578125
11.816,304,3147,842,1005,-0.5032958984375,0.009521484375,0.017578125
11.835,300,3147,737,684,-0.4642333984375,0.1015625,-0.0013427734375
11.838,302,3147,684,490,-0.4688720703125,0.314208984375,-0.0025634765625
11.848,302,3147,568,360,-0.4688720703125,0.314208984375,-0.0025634765625
11.860,299,2943,482,337,-0.4666748046875,0.737060546875,-0.0694580078125
11.868,300,2837,416,344,-0.4853515625,0.86572265625,-0.0400390625
11.878,299,2672,385,344,-0.4853515625,0.86572265625,-0.0400390625
11.891,291,2514,364,334,-0.658935546875,0.680419921875,-0.0357666015625
11.903,300,2482,356,338,-0.71435546875,0.517822265625,-0.0140380859375
11.906,298,2428,326,336,-0.71435546875,0.517822265625,-0.0140380859375
11.920,298,2412,330,334,-0.78955078125,0.3492431640625,0.114501953125
11.936,295,2374,322,344,-0.80224609375,0.3277587890625,0.1539306640625
11.936,296,2345,322,338,-0.80224609375,0.3277587890625,0.1539306640625
11.950,299,2421,317,332,-0.7950439453125,0.3321533203125,0.1495361328125
11.958,298,2504,318,338,-0.7950439453125,0.3321533203125,0.1495361328125
11.966,298,2543,318,342,-0.80517578125,0.3262939453125,0.129150390625
11.979,299,2507,318,334,-0.9398193359375,0.4613037109375,0.1138916015625
11.988,296,2443,319,338,-0.9398193359375,0.4613037109375,0.1138916015625
12.007,299,2404,324,342,-0.9617919921875,0.4923095703125,0.076904296875
12.010,296,2412,321,338,-0.8922119140625,0.3870849609375,0.0062255859375
12.020,299,2435,318,342,-0.8922119140625,0.3870849609375,0.0062255859375
12.026,299,2473,321,338,-0.86328125,0.36328125,0.01904296875
12.041,299,2598,317,334,-0.8538818359375,0.3848876953125,0.008056640625
12.097,291,2648,323,343,-0.8538818359375,0.3848876953125,0.008056640625
12.097,291,2736,322,345,-0.8614501953125,0.4239501953125,-0.0015869140625
12.097,298,2831,316,336,-0.8565673828125,0.4595947265625,0.0250244140625
12.097,296,2887,331,346,-0.8565673828125,0.4595947265625,0.0250244140625
12.097,298,2954,324,347,-0.8272705078125,0.4189453125,0.0302734375
12.108,296,3047,333,342,-0.7579345703125,0.3665771484375,0.0355224609375
12.109,300,3143,304,334,-0.7579345703125,0.3665771484375,0.0355224609375
12.124,296,3147,319,362,-0.71875,0.368408203125,0.047119140625
12.134,300,3147,375,532,-0.6043701171875,0.34716796875,-0.0084228515625
12.139,296,3147,454,684,-0.6043701171875,0.34716796875,-0.0084228515625
12.155,302,3147,540,855,-0.5384521484375,0.317626953125,-0.0166015625
12.160,300,3147,673,1138,-0.2462158203125,0.22412109375,0.0986328125
12.172,295,3147,689,1320,-0.2462158203125,0.22412109375,0.0986328125
12.184,302,3147,733,1518,-0.0076904296875,0.050048828125,0.20263671875
12.190,304,3147,811,1840,0.1429443359375,-0.1422119140625,0.2586669921875
12.214,307,3147,920,2071,0.065185546875,-0.166015625,0.2532958984375
12.214,304,3147,1000,2287,-0.27783203125,0.1585693359375,0.2335205078125
12.221,302,3147,1078,2561,-0.79638671875,0.789794921875,0.195556640625
12.230,305,3147,1115,2760,-1.203369140625,1.536865234375,0.1502685546875
12.236,304,3147,1125,3099,-1.3812255859375,1.891357421875,0.1680908203125
12.258,307,3147,1362,3147,-1.6143798828125,1.509033203125,0.2099609375
12.259,308,3147,1387,3147,-2.081298828125,0.774169921875,0.2991943359375
12.266,308,3147,1450,3147,-2.5672607421875,0.0841064453125,0.2940673828125
12.293,306,3147,1271,3147,-2.5428466796875,-0.441650390625,0.0859375
12.294,306,3147,1265,3147,-1.8551025390625,-0.679443359375,-0.0235595703125
12.314,306,3147,1312,3147,-1.1944580078125,-0.18310546875,0.1458740234375
12.314,294,3147,1305,3147,-1.1434326171875,0.877685546875,0.324951171875
12.318,306,3147,1253,3147,-1.5008544921875,1.3546142578125,0.222900390625
12.328,306,3147,1217,3147,-1.767578125,0.9857177734375,-0.0068359375
12.340,306,3147,1123,3075,-1.72021484375,0.537353515625,-0.0745849609375
12.348,304,3147,1011,2831,-1.4481201171875,0.3270263671875,0.055908203125
12.364,299,3147,934,2541,-1.1453857421875,0.197021484375,0.185546875
12.371,302,3147,842,2113,-0.90673828125,0.1185302734375,0.208251953125
12.378,294,3147,765,1899,-0.7218017578125,0.1141357421875,0.22021484375
12.389,302,3147,695,1649,-0.56103515625,0.108642578125,0.2625732421875
12.418,306,3147,527,1359,-0.433349609375,0.080810546875,0.254150390625
12.419,304,3147,466,1176,-0.375,0.0721435546875,0.1788330078125
12.419,279,3147,479,1064,-0.3916015625,0.1356201171875,0.124267578125
12.431,299,3147,353,779,-0.4547119140625,0.2794189453125,0.0936279296875
12.439,297,3147,330,582,-0.545166015625,0.445556640625,0.030517578125
12.447,296,3147,328,369,-0.6123046875,0.57666015625,-0.010986328125
12.460,296,3112,316,338,-0.623291015625,0.626953125,-0.003662109375
12.468,298,2964,319,346,-0.650634765625,0.6041259765625,0.001708984375
12.476,298,2772,318,345,-0.7086181640625,0.538330078125,-0.0035400390625
12.494,299,2555,316,334,-0.7427978515625,0.4515380859375,-0.033447265625
12.498,299,2484,318,344,-0.7552490234375,0.3790283203125,-0.0728759765625
12.518,298,2407,318,342,-0.765380859375,0.3529052734375,-0.055908203125
12.520,300,2345,321,338,-0.7806396484375,0.380615234375,0.0230712890625
12.528,298,2316,321,338,-0.79833984375,0.428466796875,0.111328125
12.536,295,2344,321,336,-0.80712890625,0.454833984375,0.165283203125
12.550,296,2362,315,334,-0.8167724609375,0.4539794921875,0.1728515625
12.558,296,2384,313,338,-0.840087890625,0.433349609375,0.1524658203125
12.566,299,2412,321,336,-0.86767578125,0.3992919921875,0.1180419921875
12.580,296,2503,317,334,-0.8829345703125,0.366943359375,0.0750732421875
12.596,299,2573,321,342,-0.8846435546875,0.347900390625,0.03515625
12.596,299,2607,298,342,-0.8802490234375,0.3465576171875,0.009765625
12.623,299,2790,321,337,-0.8695068359375,0.3570556640625,-0.0032958984375
12.624,280,2891,348,332,-0.8511962890625,0.3671875,-0.010009765625
12.627,302,2988,330,338,-0.825927734375,0.378173828125,-0.0052490234375
12.641,296,3127,321,344,-0.798095703125,0.4005126953125,0.0137939453125
12.657,294,3147,359,351,-0.774658203125,0.43798828125,0.0382080078125
12.657,299,3147,354,373,-0.755126953125,0.47705078125,0.053955078125
12.670,298,3147,348,519,-0.7413330078125,0.486083984375,0.0555419921875
12.681,298,3147,376,613,-0.7257080078125,0.44873046875,0.0462646484375
12.686,299,3147,371,697,-0.7071533203125,0.383056640625,0.0284423828125
12.700,300,3147,439,912,-0.70556640625,0.3212890625,0.0087890625
12.721,300,3147,501,1064,-0.7052001953125,0.2906494140625,-0.01123046875
12.722,300,3147,536,1216,-0.6624755859375,0.2794189453125,-0.0323486328125
12.745,299,3147,499,1514,-0.530517578125,0.2353515625,-0.0216064453125
12.745,299,3147,484,1667,-0.2777099609375,0.0882568359375,0.064208984375
12.746,298,3147,487,1825,-0.017822265625,-0.1612548828125,0.1580810546875
12.760,300,3147,540,2153,0.042236328125,-0.2801513671875,0.16259765625
12.768,302,3147,673,2316,-0.187255859375,-0.0450439453125,0.1534423828125
12.776,299,3147,753,2653,-0.6129150390625,0.4888916015625,0.17724609375
12.791,304,3147,858,2850,-1.0418701171875,1.112060546875,0.1883544921875
12.801,302,3147,879,3014,-1.3646240234375,1.5059814453125,0.197021484375
12.806,306,3147,1018,3147,-1.6553955078125,1.544189453125,0.1951904296875
12.826,307,3147,1236,3147,-2.00048828125,1.2191162109375,0.260009765625
12.828,306,3147,1251,3147,-2.3681640625,0.51318359375,0.34912109375
12.839,304,3147,1201,3147,-2.426025390625,-0.34521484375,0.2154541015625
12.850,306,3147,1083,3147,-1.9150390625,-0.8121337890625,0.0361328125
12.858,306,3147,1122,3147,-1.2991943359375,-0.328369140625,0.168212890625
12.866,305,3147,1123,3147,-1.2991943359375,-0.328369140625,0.168212890625
12.879,306,3147,1115,3147,-1.3828125,0.9964599609375,0.3482666015625
12.903,304,3147,1067,3147,-1.5867919921875,0.836181640625,0.1595458984375
12.905,286,3147,1043,3147,-1.5867919921875,0.836181640625,0.1595458984375
12.926,304,3147,991,3081,-1.4039306640625,0.4522705078125,0.183837890625
12.930,304,3147,929,2801,-1.216064453125,0.273681640625,0.2611083984375
12.931,304,3147,865,2521,-1.216064453125,0.273681640625,0.2611083984375
12.942,304,3147,764,2110,-0.9434814453125,-0.01806640625,0.2445068359375
12.949,304,3147,733,1927,-0.7987060546875,-0.036865234375,0.2091064453125
12.960,302,3147,706,1743,-0.7987060546875,-0.036865234375,0.2091064453125
12.970,300,3147,617,1440,-0.471923828125,-0.07177734375,0.167236328125
12.978,302,3147,575,1290,-0.3895263671875,0.01611328125,0.1236572265625
12.986,299,3147,526,1170,-0.3895263671875,0.01611328125,0.1236572265625
13.008,302,3147,470,874,-0.520263671875,0.2890625,0.02734375
13.008,299,3147,377,600,-0.58740234375,0.4078369140625,-0.0198974609375
13.031,298,3147,349,457,-0.58740234375,0.4078369140625,-0.0198974609375
13.034,296,3147,316,359,-0.5855712890625,0.65185546875,-0.02978515625
13.038,299,3147,327,334,-0.62060546875,0.7459716796875,0.028076171875
13.046,297,3072,329,334,-0.62060546875,0.7459716796875,0.028076171875
13.060,300,2948,353,330,-0.7337646484375,0.553466796875,0.0389404296875
13.072,300,2891,354,333,-0.792724609375,0.38330078125,0.01708984375
13.076,300,2821,354,332,-0.792724609375,0.38330078125,0.01708984375
13.090,300,2758,338,329,-0.8336181640625,0.3203125,0.05859375
13.098,298,2777,351,336,-0.8336181640625,0.3203125,0.05859375
13.114,296,2750,348,338,-0.838134765625,0.3380126953125,0.0955810546875
13.132,299,2808,348,336,-0.8544921875,0.3792724609375,0.1158447265625
13.133,300,2837,346,342,-0.8544921875,0.3792724609375,0.1158447265625
13.136,299,2884,354,343,-0.8648681640625,0.4080810546875,0.1087646484375
13.149,298,2976,332,337,-0.8753662109375,0.4393310546875,0.0870361328125
13.158,296,3042,328,346,-0.8753662109375,0.4393310546875,0.0870361328125
13.166,299,3084,329,345,-0.878173828125,0.427734375,0.0660400390625
13.185,299,3147,330,338,-0.8604736328125,0.373291015625,0.046875
13.188,299,3147,363,349,-0.8604736328125,0.373291015625,0.046875
13.196,298,3147,349,363,-0.8226318359375,0.343017578125,0.0347900390625
13.216,298,3147,332,464,-0.7679443359375,0.3226318359375,-0.0157470703125
13.235,300,3147,361,543,-0.7679443359375,0.3226318359375,-0.0157470703125
13.237,300,3147,387,606,-0.762451171875,0.36865234375,-0.0003662109375
13.252,282,3147,402,772,-0.758056640625,0.4583740234375,0.0318603515625
13.263,300,3147,430,874,-0.758056640625,0.4583740234375,0.0318603515625
13.272,300,3147,478,971,-0.748291015625,0.4119873046875,0.0252685546875
13.272,304,3147,639,1185,-0.673828125,0.251953125,0.0130615234375
13.279,301,3147,630,1306,-0.673828125,0.251953125,0.0130615234375
13.286,299,3147,702,1453,-0.5794677734375,0.177001953125,0.0701904296875
13.300,294,3147,744,1732,-0.259521484375,-0.010986328125,0.181640625
13.344,302,3147,780,1881,-0.259521484375,-0.010986328125,0.181640625
13.344,304,3147,808,2076,-0.1365966796875,-0.0760498046875,0.164306640625
13.347,304,3147,853,2345,-0.1199951171875,-0.002685546875,0.1558837890625
13.348,290,3147,906,2636,-0.226318359375,0.2138671875,0.209716796875
13.352,294,3147,1022,2867,-0.50244140625,0.6170654296875,0.26806640625
13.355,306,3147,1097,3031,-0.885986328125,1.230224609375,0.2845458984375
13.369,308,3147,1228,3147,-1.2508544921875,1.7747802734375,0.250244140625
13.377,310,3147,1390,3147,-1.587890625,1.7685546875,0.24365234375
13.385,308,3147,1463,3147,-2.0574951171875,1.1849365234375,0.391845703125
13.399,310,3147,1469,3147,-2.6005859375,0.2974853515625,0.4281005859375
13.439,308,3147,1445,3147,-2.572265625,-0.674560546875,0.08154296875
13.439,310,3147,1455,3147,-1.859619140625,-1.0845947265625,-0.1444091796875
13.443,310,3147,1440,3147,-1.281005859375,-0.400390625,0.1165771484375
13.443,298,3147,1452,3147,-1.2677001953125,0.67724609375,0.4066162109375
13.445,306,3147,1377,3147,-1.531494140625,1.084716796875,0.3934326171875
13.460,307,3147,1224,3147,-1.6688232421875,0.8353271484375,0.2474365234375
13.468,306,3147,1120,3147,-1.5721435546875,0.540283203125,0.1851806640625
13.476,305,3147,1034,3057,-1.3350830078125,0.352294921875,0.217529296875
13.490,304,3147,957,2612,-1.0740966796875,0.13330078125,0.2314453125
13.498,306,3147,938,2386,-0.849853515625,-0.03564453125,0.192138671875
13.506,304,3147,897,2188,-0.6651611328125,-0.0428466796875,0.1839599609375
13.523,304,3147,813,1899,-0.5223388671875,0.0484619140625,0.2247314453125
13.547,304,3147,737,1739,-0.428955078125,0.1685791015625,0.220947265625
13.553,302,3147,660,1608,-0.3997802734375,0.261962890625,0.140869140625
13.561,310,3147,627,1393,-0.4466552734375,0.3170166015625,0.0592041015625
13.566,300,3147,607,1253,-0.5360107421875,0.3798828125,0.022216796875
13.574,300,3147,600,1091,-0.6094970703125,0.4580078125,-0.0030517578125
13.580,300,3147,514,806,-0.644775390625,0.5303955078125,-0.0355224609375
13.589,300,3147,519,713,-0.6517333984375,0.576904296875,-0.041748046875
13.596,300,3147,483,633,-0.66259765625,0.5821533203125,0.00341796875
13.610,299,3147,482,499,-0.696533203125,0.529541015625,0.0692138671875
13.618,300,3147,470,424,-0.741943359375,0.4339599609375,0.0946044921875
13.626,300,3147,487,373,-0.798828125,0.3638916015625,0.0709228515625
13.643,300,3147,465,342,-0.8560791015625,0.3427734375,0.0596923828125
13.648,298,3075,433,346,-0.895263671875,0.330322265625,0.0819091796875
13.659,299,3010,433,346,-0.9140625,0.3092041015625,0.0938720703125
13.670,299,2877,387,336,-0.9163818359375,0.297607421875,0.08447265625
13.678,299,2834,411,338,-0.9056396484375,0.298583984375,0.09326171875
13.686,299,2792,398,344,-0.886474609375,0.29736328125,0.1307373046875
13.700,298,2703,379,337,-0.8699951171875,0.3009033203125,0.1595458984375
13.709,299,2658,363,338,-0.8604736328125,0.3232421875,0.15771484375
13.721,299,2695,371,344,-0.8516845703125,0.3607177734375,0.1378173828125
13.730,298,2798,375,336,-0.8404541015625,0.3992919921875,0.1131591796875
13.758,299,2890,378,344,-0.829345703125,0.419677734375,0.0843505859375
13.761,300,3000,385,348,-0.822265625,0.4130859375,0.0540771484375
13.765,299,3134,403,334,-0.824951171875,0.3953857421875,0.028564453125
13.769,299,3147,400,351,-0.827880859375,0.3797607421875,0.01513671875
13.776,298,3147,402,378,-0.811279296875,0.36279296875,0.0123291015625
13.790,301,3147,411,514,-0.77783203125,0.346435546875,0.0155029296875
13.798,299,3147,427,654,-0.7432861328125,0.3363037109375,0.018798828125
13.806,299,3147,455,745,-0.7166748046875,0.331298828125,0.0076904296875
13.831,294,3147,508,992,-0.6884765625,0.31982421875,-0.0101318359375
13.861,300,3147,512,1160,-0.6387939453125,0.29541015625,-0.007080078125
13.873,304,3147,636,1351,-0.5521240234375,0.2806396484375,0.0263671875
13.875,302,3147,759,1627,-0.4166259765625,0.2674560546875,0.0982666015625
13.885,302,3147,806,1816,-0.248779296875,0.186279296875,0.164306640625
13.885,304,3147,830,1983,-0.15478515625,0.022705078125,0.1343994140625
13.895,292,3147,890,2296,-0.2225341796875,-0.0897216796875,0.051513671875
13.895,304,3147,944,2486,-0.3963623046875,-0.0367431640625,0.0533447265625
13.905,308,3147,992,2683,-0.594970703125,0.2005615234375,0.1646728515625
13.906,310,3147,1054,2911,-0.8035888671875,0.605712890625,0.2891845703125
13.926,308,3147,1112,3147,-1.027587890625,1.1151123046875,0.38671875
13.928,307,3147,1173,3147,-1.294921875,1.5400390625,0.4183349609375
13.961,310,3147,1262,3147,-1.618408203125,1.53662109375,0.4190673828125
13.962,309,3147,1497,3147,-2.02197265625,0.9765625,0.454833984375
13.963,310,3147,1499,3147,-2.432861328125,0.190673828125,0.319580078125
13.966,310,3147,1429,3147,-2.3699951171875,-0.5528564453125,-0.05078125
13.980,310,3147,1452,3147,-1.771484375,-0.826416015625,-0.204833984375
13.988,310,3147,1441,3147,-1.3514404296875,-0.1988525390625,0.06787109375
13.996,313,3147,1419,3147,-1.3514404296875,-0.1988525390625,0.06787109375
14.010,309,3147,1282,3147,-1.567138671875,1.0582275390625,0.36474609375
14.018,310,3147,1225,3147,-1.6075439453125,0.879638671875,0.2393798828125
14.028,307,3147,1160,3147,-1.6075439453125,0.879638671875,0.2393798828125
14.040,305,3147,1014,3066,-1.3179931640625,0.485595703125,0.1708984375
14.054,304,3147,944,2827,-1.1248779296875,0.2552490234375,0.1646728515625
14.065,302,3147,907,2530,-1.1248779296875,0.2552490234375,0.1646728515625
14.070,304,3147,802,2048,-0.808349609375,-0.1312255859375,0.1474609375
14.079,304,3147,711,1830,-0.6656494140625,-0.2171630859375,0.183837890625
14.087,299,3147,646,1624,-0.6656494140625,-0.2171630859375,0.183837890625
14.100,293,3147,575,1365,-0.421630859375,-0.0892333984375,0.1197509765625
14.108,296,3147,514,1201,-0.3675537109375,0.092529296875,0.0992431640625
14.116,300,3147,461,966,-0.3675537109375,0.092529296875,0.0992431640625
14.130,299,3147,348,561,-0.4400634765625,0.4212646484375,0.003173828125
14.138,298,3147,321,391,-0.4404296875,0.53173828125,-0.0201416015625
14.158,298,3147,324,348,-0.4404296875,0.53173828125,-0.0201416015625
14.160,286,3000,334,347,-0.6219482421875,0.7237548828125,0.052490234375
14.171,299,2859,334,344,-0.7232666015625,0.739501953125,0.067138671875
14.177,296,2727,332,344,-0.7232666015625,0.739501953125,0.067138671875
14.190,296,2648,332,334,-0.79931640625,0.4678955078125,0.007080078125
14.199,299,2630,338,342,-0.8145751953125,0.396728515625,0.0286865234375
14.206,298,2613,334,344,-0.8145751953125,0.396728515625,0.0286865234375
14.220,296,2638,337,334,-0.842529296875,0.4261474609375,0.1175537109375
14.233,298,2653,338,344,-0.842529296875,0.4261474609375,0.1175537109375
14.236,296,2703,330,344,-0.865966796875,0.44091796875,0.1240234375
14.263,299,2737,328,338,-0.8892822265625,0.3934326171875,0.1092529296875
14.263,298,2784,331,346,-0.8892822265625,0.3934326171875,0.1092529296875
14.266,296,2833,325,346,-0.883056640625,0.3511962890625,0.094970703125
14.281,299,2909,327,338,-0.890380859375,0.3450927734375,0.050048828125
14.289,296,2958,328,347,-0.890380859375,0.3450927734375,0.050048828125
14.296,298,3000,330,346,-0.9031982421875,0.3818359375,0.0509033203125
14.312,298,3072,323,338,-0.897216796875,0.4481201171875,0.0362548828125
14.318,295,3112,324,347,-0.897216796875,0.4481201171875,0.0362548828125
14.326,298,3147,327,347,-0.8846435546875,0.45703125,0.0206298828125
14.340,299,3147,331,346,-0.857177734375,0.4158935546875,0.0184326171875
14.357,298,3147,346,360,-0.857177734375,0.4158935546875,0.0184326171875
14.358,297,3147,359,402,-0.83154296875,0.3851318359375,0.0208740234375
14.370,299,3147,364,497,-0.7703857421875,0.3642578125,0.035888671875
14.385,300,3147,389,555,-0.7703857421875,0.3642578125,0.035888671875
14.386,298,3147,400,632,-0.7479248046875,0.38330078125,0.0411376953125
14.400,296,3147,426,793,-0.7093505859375,0.4110107421875,0.065185546875
14.408,294,3147,410,897,-0.7093505859375,0.4110107421875,0.065185546875
14.416,299,3147,462,1029,-0.67236328125,0.394287109375,0.091064453125
14.429,302,3147,485,1243,-0.5255126953125,0.311279296875,0.1334228515625
14.441,296,3147,502,1456,-0.5255126953125,0.311279296875,0.1334228515625
14.446,300,3147,537,1575,-0.37353515625,0.234619140625,0.14697265625
14.462,299,3147,654,1880,-0.1566162109375,0.04833984375,0.147705078125
14.479,302,3147,694,2083,-0.0179443359375,-0.1292724609375,0.1103515625
14.482,304,3147,774,2320,-0.05126953125,-0.091552734375,0.095458984375
14.492,302,3147,822,2593,-0.2794189453125,0.22998046875,0.0894775390625
14.499,305,3147,937,3033,-0.6734619140625,0.7099609375,0.0484619140625
14.507,306,3147,974,3147,-1.105224609375,1.1968994140625,0.0274658203125
14.515,308,3147,1082,3147,-1.4437255859375,1.600830078125,0.09326171875
14.529,310,3147,1336,3147,-1.7373046875,1.669677734375,0.318359375
14.544,310,3147,1383,3147,-2.1365966796875,1.1339111328125,0.6060791015625
14.545,308,3147,1348,3147,-2.4755859375,0.1844482421875,0.572509765625
14.565,308,3147,1357,3147,-2.2877197265625,-0.7567138671875,0.183837890625
14.567,310,3147,1383,3147,-1.657958984375,-1.037109375,-0.022705078125
14.575,308,3147,1395,3147,-1.26220703125,-0.29541015625,0.190673828125
14.589,308,3147,1323,3147,-1.3560791015625,0.64013671875,0.4278564453125
14.597,306,3147,1229,3147,-1.6162109375,0.938720703125,0.3892822265625
14.605,305,3147,1122,3147,-1.7073974609375,0.7359619140625,0.2210693359375
14.619,306,3147,1003,3039,-1.5999755859375,0.4893798828125,0.1119384765625
14.627,304,3147,932,2695,-1.4022216796875,0.354248046875,0.087646484375
14.642,304,3147,912,2394,-1.1776123046875,0.2369384765625,0.09814453125
14.649,304,3147,759,2024,-0.9326171875,0.056396484375,0.11962890625
14.668,302,3147,747,1791,-0.6888427734375,-0.1492919921875,0.1500244140625
14.671,292,3147,628,1557,-0.4971923828125,-0.2796630859375,0.1651611328125
14.679,300,3147,525,1312,-0.3800048828125,-0.23779296875,0.174072265625
14.687,299,3147,455,1224,-0.3167724609375,-0.0230712890625,0.2080078125
14.695,301,3147,389,1001,-0.3427734375,0.2320556640625,0.1982421875
14.709,299,3147,318,537,-0.4512939453125,0.4105224609375,0.0892333984375
14.717,296,3147,330,357,-0.51953125,0.5546875,-0.010986328125
14.725,300,3130,330,344,-0.5076904296875,0.68798828125,-0.0128173828125
14.745,299,2954,328,333,-0.5367431640625,0.8011474609375,0.038330078125
14.748,298,2813,342,337,-0.633056640625,0.861083984375,0.0821533203125
14.776,299,2645,336,338,-0.718505859375,0.766845703125,0.0809326171875
14.776,300,2498,309,327,-0.7767333984375,0.560302734375,0.029541015625
14.777,289,2348,316,334,-0.8145751953125,0.4072265625,-0.023681640625
14.785,299,2379,332,336,-0.8419189453125,0.3890380859375,-0.0145263671875
14.800,299,2350,347,332,-0.8544921875,0.438720703125,0.0594482421875
14.811,296,2333,359,359,-0.8597412109375,0.4730224609375,0.1258544921875
14.815,296,2345,361,351,-0.869140625,0.4754638671875,0.1458740234375
14.829,299,2386,360,330,-0.8787841796875,0.448974609375,0.143798828125
14.838,299,2404,360,334,-0.88134765625,0.3955078125,0.132080078125
14.847,298,2418,371,334,-0.8824462890625,0.338134765625,0.10791015625
14.878,299,2458,388,332,-0.883544921875,0.2943115234375,0.0921630859375
14.879,300,2521,388,332,-0.8765869140625,0.263671875,0.0972900390625
14.879,299,2590,390,337,-0.8665771484375,0.2630615234375,0.1011962890625
14.889,298,2748,378,332,-0.86328125,0.3057861328125,0.0887451171875
14.898,299,2827,371,336,-0.865478515625,0.3631591796875,0.0687255859375
14.905,298,2898,359,338,-0.86572265625,0.3970947265625,0.0511474609375
14.920,299,3012,323,336,-0.852783203125,0.3927001953125,0.0413818359375
14.927,300,3098,360,342,-0.8262939453125,0.36328125,0.037353515625
14.935,296,3147,330,344,-0.8001708984375,0.3348388671875,0.037841796875
14.950,299,3147,328,411,-0.7742919921875,0.3096923828125,0.042236328125
14.977,301,3147,373,546,-0.7337646484375,0.289794921875,0.02880859375
14.992,280,3147,446,658,-0.6788330078125,0.2813720703125,-0.0042724609375
14.994,299,3147,543,899,-0.6156005859375,0.2774658203125,-0.0103759765625
14.994,300,3147,636,1078,-0.5303955078125,0.2589111328125,0.043701171875
14.998,302,3147,631,1268,-0.3802490234375,0.1871337890625,0.1395263671875
15.007,299,3147,710,1497,-0.166015625,0.0592041015625,0.23828125
15.063,304,3147,830,1852,0.0472412109375,-0.0848388671875,0.2896728515625
15.063,290,3147,907,2076,0.1153564453125,-0.18896484375,0.26416015625
15.063,291,3147,951,2291,-0.1168212890625,-0.112548828125,0.232421875
15.063,302,3147,1003,2580,-0.1168212890625,-0.112548828125,0.232421875
15.063,299,3147,973,2888,-1.180908203125,1.0860595703125,0.1981201171875
15.077,304,3147,1003,3045,-1.525634765625,1.7401123046875,0.21728515625
15.077,304,3147,1013,3147,-1.525634765625,1.7401123046875,0.21728515625
15.092,307,3147,1229,3147,-1.9373779296875,1.089599609375,0.22998046875
15.100,307,3147,1313,3147,-2.1971435546875,0.7034912109375,0.0994873046875
15.106,308,3147,1283,3147,-2.2430419921875,0.209228515625,0.0247802734375
15.120,309,3147,1328,3147,-1.902587890625,-0.38525390625,-0.0028076171875
15.131,308,3147,1323,3147,-1.520263671875,-0.275634765625,0.11376953125
15.136,308,3147,1318,3147,-1.520263671875,-0.275634765625,0.11376953125
15.155,310,3147,1331,3147,-1.513671875,0.94140625,0.246337890625
15.158,308,3147,1336,3147,-1.548828125,0.9085693359375,0.1370849609375
15.181,310,3147,1312,3147,-1.548828125,0.9085693359375,0.1370849609375
15.181,308,3147,1236,3010,-1.32275390625,0.5869140625,0.164306640625
15.188,306,3147,1198,2766,-1.1728515625,0.4066162109375,0.20166015625
15.196,308,3147,1123,2530,-1.1728515625,0.4066162109375,0.20166015625
15.213,306,3147,1047,2111,-0.8323974609375,-0.009521484375,0.1492919921875
15.219,307,3147,984,1794,-0.664794921875,-0.1083984375,0.0968017578125
15.228,304,3147,922,1643,-0.664794921875,-0.1083984375,0.0968017578125
15.241,300,3147,706,1292,-0.3880615234375,-0.00439453125,0.05908203125
15.249,300,3147,658,1051,-0.358642578125,0.1002197265625,-0.047119140625
15.258,280,3147,621,813,-0.358642578125,0.1002197265625,-0.047119140625
15.284,300,3147,543,398,-0.4189453125,0.4146728515625,-0.1439208984375
15.285,300,3147,455,344,-0.43994140625,0.6429443359375,-0.00048828125
15.286,300,3072,462,352,-0.43994140625,0.6429443359375,-0.00048828125
15.300,300,3089,514,338,-0.5584716796875,0.868408203125,0.1815185546875
15.308,300,3099,536,348,-0.658935546875,0.7415771484375,0.1922607421875
15.316,300,3112,561,346,-0.658935546875,0.7415771484375,0.1922607421875
15.330,302,3112,577,342,-0.8470458984375,0.3206787109375,0.1031494140625
15.343,300,3090,616,348,-0.9100341796875,0.2398681640625,0.036865234375
15.346,300,3101,619,347,-0.9100341796875,0.2398681640625,0.036865234375
15.360,300,3075,619,346,-0.944580078125,0.259765625,0.05078125
15.368,300,3078,621,348,-0.944580078125,0.259765625,0.05078125
15.387,300,3079,614,347,-0.9412841796875,0.284912109375,0.0731201171875
15.391,301,3064,642,338,-0.9364013671875,0.3077392578125,0.098876953125
15.400,300,3034,642,348,-0.9364013671875,0.3077392578125,0.098876953125
15.406,301,3017,654,346,-0.9307861328125,0.3092041015625,0.1063232421875
15.420,300,2949,652,338,-0.912353515625,0.337890625,0.096435546875
15.428,302,2957,659,347,-0.912353515625,0.337890625,0.096435546875
15.438,299,2964,678,348,-0.9056396484375,0.35205078125,0.082275390625
15.450,302,3010,689,342,-0.8824462890625,0.3646240234375,0.0440673828125
15.463,302,3054,682,348,-0.8824462890625,0.3646240234375,0.0440673828125
15.467,294,3101,705,348,-0.8685302734375,0.38330078125,0.04296875
15.485,302,3147,725,348,-0.861572265625,0.4112548828125,0.070556640625
15.488,300,3147,707,364,-0.861572265625,0.4112548828125,0.070556640625
15.504,304,3147,739,398,-0.8653564453125,0.4017333984375,0.07373046875
15.511,304,3147,723,484,-0.826416015625,0.3231201171875,0.06201171875
15.518,301,3147,707,543,-0.826416015625,0.3231201171875,0.06201171875
15.528,301,3147,736,632,-0.7745361328125,0.25830078125,0.05615234375
15.535,304,3147,774,739,-0.7235107421875,0.216796875,0.0611572265625
15.568,302,3147,816,936,-0.6697998046875,0.2091064453125,0.0885009765625
15.568,304,3147,871,1083,-0.594970703125,0.2178955078125,0.1116943359375
15.569,304,3147,878,1209,-0.481201171875,0.20361328125,0.1138916015625
15.593,286,3147,1070,1497,-0.28759765625,0.1044921875,0.15966796875
15.593,306,3147,1148,1666,-0.0570068359375,-0.0640869140625,0.2982177734375
15.596,307,3147,1170,1800,0.0880126953125,-0.2120361328125,0.397705078125
15.609,306,3147,1189,2218,-0.029296875,-0.1895751953125,0.30712890625
15.617,304,3147,1078,2279,-0.4638671875,0.20751953125,0.1273193359375
15.625,304,3147,1050,2430,-0.9837646484375,0.9566650390625,-0.0128173828125
15.639,307,3147,1051,2756,-1.3333740234375,1.580810546875,-0.0430908203125
15.647,306,3147,1096,2970,-1.48974609375,1.5498046875,0.0706787109375
15.694,306,3147,1157,3093,-1.5845947265625,1.00537109375,0.2254638671875
15.694,307,3147,1231,3147,-1.7252197265625,0.4761962890625,0.300537109375
15.694,307,3147,1263,3147,-1.9263916015625,0.2550048828125,0.2703857421875
15.694,308,3147,1312,3147,-2.041259765625,0.283447265625,0.189453125
15.699,308,3147,1328,3147,-1.8028564453125,0.2120361328125,0.0589599609375
15.722,308,3147,1369,3147,-1.4063720703125,0.2337646484375,0.0111083984375
15.722,310,3147,1351,3147,-1.319091796875,0.6312255859375,0.111083984375
15.730,308,3147,1377,3147,-1.510009765625,0.8751220703125,0.178955078125
15.738,308,3147,1369,3125,-1.689208984375,0.67919921875,0.1956787109375
15.746,308,3147,1351,2990,-1.69482421875,0.3668212890625,0.2427978515625
15.794,308,3147,1306,2630,-1.55224609375,0.177978515625,0.2889404296875
15.801,308,3147,1239,2372,-1.3587646484375,0.095458984375,0.278564453125
15.802,306,3147,1169,2133,-1.1365966796875,0.0450439453125,0.2445068359375
15.804,306,3147,1064,1718,-0.8819580078125,0.00732421875,0.20947265625
15.805,305,3147,1010,1450,-0.6593017578125,-0.024169921875,0.138427734375
15.810,302,3147,959,1224,-0.5008544921875,-0.03466796875,0.0751953125
15.816,304,3147,860,920,-0.3973388671875,0.0133056640625,0.042724609375
15.829,302,3147,737,338,-0.35009765625,0.1082763671875,-0.0472412109375
15.837,302,1925,594,328,-0.3316650390625,0.2518310546875,-0.157958984375
15.845,301,1540,553,330,-0.334716796875,0.48046875,-0.1490478515625
15.859,299,1580,500,328,-0.3702392578125,0.7451171875,-0.01123046875
15.867,299,1702,521,330,-0.4459228515625,0.9246826171875,0.1158447265625
15.896,300,1756,542,330,-0.564453125,0.920166015625,0.15966796875
15.898,300,1806,594,329,-0.67626953125,0.684326171875,0.155517578125
15.899,300,1785,590,331,-0.7608642578125,0.359375,0.1007080078125
15.905,300,1830,620,332,-0.8370361328125,0.18798828125,0.028076171875
15.920,302,1828,660,328,-0.8966064453125,0.197021484375,0.02490234375
15.927,302,1838,661,332,-0.93359375,0.2459716796875,0.0870361328125
15.935,302,1850,689,331,-0.9542236328125,0.262939453125,0.131591796875
15.949,302,1908,679,330,-0.9593505859375,0.263916015625,0.130126953125
15.957,302,1949,642,332,-0.9490966796875,0.26416015625,0.1156005859375
15.965,302,1981,634,332,-0.9267578125,0.2530517578125,0.1119384765625
16.004,302,2047,654,330,-0.89990234375,0.2347412109375,0.1131591796875
16.006,302,2104,678,334,-0.879150390625,0.2340087890625,0.11279296875
16.007,302,2160,706,334,-0.873779296875,0.2589111328125,0.105712890625
16.009,302,2263,733,334,-0.8868408203125,0.299560546875,0.074462890625
16.017,302,2314,757,334,-0.9083251953125,0.344482421875,0.025146484375
16.025,304,2347,790,336,-0.9150390625,0.3758544921875,-0.005126953125
16.039,300,2400,800,334,-0.892578125,0.37548828125,-0.00341796875
16.047,302,2440,813,342,-0.859375,0.3580322265625,0.013916015625
16.055,302,2479,830,338,-0.8323974609375,0.3564453125,0.0367431640625
16.077,302,2615,855,336,-0.8092041015625,0.3795166015625,0.05615234375
16.077,304,2700,867,345,-0.7911376953125,0.408447265625,0.0623779296875
16.103,302,2787,883,345,-0.78173828125,0.422607421875,0.0623779296875
16.122,304,3022,918,344,-0.7752685546875,0.4114990234375,0.075439453125
16.123,292,3147,963,347,-0.7548828125,0.35986328125,0.1087646484375
16.126,305,3147,938,360,-0.7012939453125,0.259765625,0.1322021484375
16.129,306,3147,996,598,-0.589111328125,0.123046875,0.11962890625
16.140,307,3147,1000,788,-0.3782958984375,-0.03955078125,0.10693359375
16.145,310,3147,1067,963,-0.079345703125,-0.227294921875,0.1243896484375
16.159,308,3147,1172,1243,0.168701171875,-0.3961181640625,0.1824951171875
16.167,306,3147,1257,1467,0.1956787109375,-0.3988037109375,0.2957763671875
16.178,306,3147,1286,1687,0.1956787109375,-0.3988037109375,0.2957763671875
16.207,304,3147,1199,1957,-0.6734619140625,0.9254150390625,0.3123779296875
16.208,313,3147,1216,2117,-1.2286376953125,1.836669921875,0.0382080078125
16.209,306,3147,1233,2412,-1.2286376953125,1.836669921875,0.0382080078125
16.219,308,3147,1271,2792,-1.7646484375,1.1239013671875,0.05126953125
16.228,308,3147,1357,2973,-2.058349609375,0.375,0.12841796875
16.235,308,3147,1452,3077,-2.058349609375,0.375,0.12841796875
16.249,308,3147,1386,3130,-2.4520263671875,0.03271484375,0.12060546875
16.257,308,3147,1386,3143,-1.9564208984375,-0.2596435546875,0.0821533203125
16.265,310,3147,1422,3058,-1.9564208984375,-0.2596435546875,0.0821533203125
16.281,310,3147,1411,3012,-1.3658447265625,0.5423583984375,0.3212890625
16.287,308,3147,1388,2935,-1.5057373046875,0.8260498046875,0.3389892578125
16.306,308,3147,1384,2794,-1.5057373046875,0.8260498046875,0.3389892578125
16.316,308,3147,1336,2525,-1.5093994140625,0.4754638671875,0.253173828125
16.317,308,3147,1323,2372,-1.319580078125,0.357177734375,0.28564453125
16.326,308,3147,1258,2217,-1.319580078125,0.357177734375,0.28564453125
16.339,308,3147,1101,1826,-0.92431640625,0.02587890625,0.2071533203125
16.347,304,3147,1067,1610,-0.7813720703125,-0.0118408203125,0.148681640625
16.356,308,3147,995,1357,-0.7813720703125,-0.0118408203125,0.148681640625
16.370,304,3147,869,974,-0.5078125,0.2891845703125,-0.0009765625
16.389,300,3147,793,764,-0.429443359375,0.3675537109375,-0.0833740234375
16.391,299,3147,684,554,-0.429443359375,0.3675537109375,-0.0833740234375
16.415,302,3147,644,376,-0.4412841796875,0.484375,-0.2366943359375
16.417,293,3133,633,378,-0.4412841796875,0.484375,-0.2366943359375
16.419,300,3070,582,375,-0.4949951171875,0.6551513671875,-0.151611328125
16.432,299,2925,601,360,-0.6171875,0.785400390625,0.174072265625
16.438,299,2744,567,371,-0.6171875,0.785400390625,0.174072265625
16.453,299,2593,590,370,-0.688720703125,0.5887451171875,0.1683349609375
16.459,299,2399,594,354,-0.78076171875,0.1026611328125,0.0977783203125
16.467,299,2345,625,363,-0.78076171875,0.1026611328125,0.0977783203125
16.475,298,2281,590,361,-0.8043212890625,0.015380859375,0.1278076171875
16.489,298,2188,593,347,-0.86328125,0.1376953125,0.16357421875
16.507,300,2162,601,336,-0.86328125,0.1376953125,0.16357421875
16.516,301,2139,598,336,-0.8885498046875,0.226806640625,0.1773681640625
16.519,301,2083,607,338,-0.927490234375,0.2523193359375,0.201416015625
16.527,302,2070,579,334,-0.927490234375,0.2523193359375,0.201416015625
16.536,300,2083,553,336,-0.932861328125,0.2064208984375,0.1624755859375
16.549,300,2119,548,332,-0.9219970703125,0.213134765625,0.05419921875
16.557,300,2127,562,338,-0.9219970703125,0.213134765625,0.05419921875
16.566,302,2161,540,338,-0.927734375,0.2822265625,0.0323486328125
16.579,300,2215,535,333,-0.9056396484375,0.4031982421875,-0.0068359375
16.589,301,2258,543,338,-0.9056396484375,0.4031982421875,-0.0068359375
16.595,300,2330,540,343,-0.875732421875,0.433349609375,-0.02001953125
16.626,300,2489,617,336,-0.8448486328125,0.4495849609375,-0.0068359375
16.626,301,2567,660,332,-0.820556640625,0.44921875,0.0245361328125
16.627,300,2637,695,346,-0.8089599609375,0.4268798828125,0.0545654296875
16.644,302,2777,713,332,-0.796142578125,0.3724365234375,0.070068359375
16.649,300,2906,711,363,-0.7646484375,0.2838134765625,0.0614013671875
16.659,304,3084,749,376,-0.7197265625,0.201904296875,0.0386962890625
16.670,302,3147,751,433,-0.6773681640625,0.18359375,0.02880859375
16.677,300,3147,753,620,-0.6370849609375,0.2225341796875,0.035888671875
16.690,301,3147,806,782,-0.5784912109375,0.257080078125,0.0478515625
16.719,305,3147,887,1125,-0.4598388671875,0.2301025390625,0.0880126953125
16.727,306,3147,952,1302,-0.2613525390625,0.086181640625,0.1826171875
16.728,307,3147,1025,1483,-0.0380859375,-0.178466796875,0.2752685546875
16.729,296,3147,1125,1815,0.073974609375,-0.4501953125,0.25732421875
16.738,300,3147,1167,1959,-0.0792236328125,-0.4169921875,0.1861572265625
16.745,306,3147,1081,2076,-0.4705810546875,0.2099609375,0.183837890625
16.759,306,3147,1071,2348,-0.9381103515625,1.3568115234375,0.1314697265625
16.767,304,3147,1137,2497,-1.3380126953125,2.23876953125,0.0404052734375
16.775,308,3147,1216,2713,-1.6005859375,1.97119140625,0.11181640625
