time,compression0,compression1,compression2,compression3,accel_x,accel_y,accel_z
0.065,307,308,1056,3032,-0.9522705078125,0.1329345703125,-0.2198486328125
0.065,306,306,1091,3112,-0.9075927734375,0.1611328125,-0.1854248046875
0.065,308,306,1146,3147,-0.838134765625,0.201171875,-0.1683349609375
0.066,306,308,1213,3147,-0.759765625,0.2315673828125,-0.159912109375
0.066,306,306,1278,3147,-0.663818359375,0.2093505859375,-0.1524658203125
0.066,306,306,1355,3147,-0.541748046875,0.1658935546875,-0.1590576171875
0.066,306,308,1506,3147,-0.3565673828125,0.0994873046875,-0.1749267578125
0.066,306,308,1580,3147,-0.0875244140625,-0.0152587890625,-0.1915283203125
0.066,295,293,1599,3147,0.1898193359375,-0.0767822265625,-0.119140625
0.066,295,298,1798,3147,0.270263671875,0.082763671875,0.044677734375
0.066,308,306,1915,3147,-0.037353515625,0.4613037109375,0.1318359375
0.066,306,306,1994,3147,-0.6558837890625,0.8121337890625,0.0205078125
0.066,308,308,2197,3147,-1.308349609375,0.9522705078125,-0.191162109375
0.066,306,308,2330,3147,-1.8177490234375,0.7408447265625,-0.322998046875
0.066,306,307,2422,3147,-2.2989501953125,0.24072265625,-0.297119140625
0.066,306,308,2490,3147,-2.711669921875,0.040771484375,-0.1953125
0.066,308,307,2463,3147,-2.6702880859375,0.2276611328125,-0.0572509765625
0.066,306,306,2398,3147,-2.6702880859375,0.2276611328125,-0.0572509765625
0.066,306,296,2414,3147,-1.1961669921875,0.2635498046875,-0.5443115234375
0.067,307,308,2394,3147,-0.959228515625,0.5,-0.5966796875
0.067,306,308,2361,3147,-0.959228515625,0.5,-0.5966796875
0.074,306,308,2330,3147,-1.811767578125,0.1741943359375,0.006591796875
0.082,306,306,2291,3147,-1.7730712890625,0.078125,0.0302734375
0.092,307,306,2238,3147,-1.7730712890625,0.078125,0.0302734375
0.104,305,308,2139,3147,-1.2943115234375,0.179931640625,-0.06787109375
0.118,308,307,2061,3147,-1.14599609375,0.167236328125,-0.03564453125
0.120,304,306,1931,3147,-1.14599609375,0.167236328125,-0.03564453125
0.145,305,306,1750,3147,-0.9178466796875,0.32080078125,-0.0531005859375
0.147,306,306,1616,3147,-0.7349853515625,0.191650390625,-0.1234130859375
0.156,306,306,1504,3147,-0.7349853515625,0.191650390625,-0.1234130859375
0.164,308,306,1342,3147,-0.5391845703125,0.11083984375,-0.38623046875
0.176,306,307,1278,3147,-0.59912109375,0.1759033203125,-0.42724609375
0.181,306,308,1271,3045,-0.59912109375,0.1759033203125,-0.42724609375
0.194,306,307,1229,2777,-0.6282958984375,0.2218017578125,-0.2552490234375
0.202,307,306,1184,2636,-0.593505859375,0.1475830078125,-0.2359619140625
0.210,308,306,1163,2516,-0.593505859375,0.1475830078125,-0.2359619140625
0.224,306,308,1147,2379,-0.6689453125,0.1063232421875,-0.2861328125
0.232,308,306,1129,2335,-0.7652587890625,0.1903076171875,-0.187255859375
0.257,308,307,1103,2257,-0.7652587890625,0.1903076171875,-0.187255859375
0.310,306,307,1067,2158,-0.865234375,0.1307373046875,0.014404296875
0.310,308,306,1042,2115,-0.865234375,0.1307373046875,0.014404296875
0.310,308,309,1051,2162,-0.846435546875,0.1346435546875,0.0582275390625
0.310,307,308,1063,2202,-0.8052978515625,0.1961669921875,-0.019775390625
0.310,308,308,1064,2287,-0.807373046875,0.1661376953125,-0.1339111328125
0.310,306,306,1069,2341,-0.807373046875,0.1661376953125,-0.1339111328125
0.315,307,309,1097,2507,-0.8739013671875,0.17138671875,-0.2598876953125
0.323,307,308,1101,2621,-0.8983154296875,0.1856689453125,-0.273193359375
0.331,306,308,1112,2677,-0.8983154296875,0.1856689453125,-0.273193359375
0.354,306,308,1157,2875,-0.8262939453125,0.171875,-0.2410888671875
0.354,308,306,1175,3012,-0.7547607421875,0.17578125,-0.2164306640625
0.361,307,308,1183,3141,-0.7547607421875,0.17578125,-0.2164306640625
0.375,307,306,1294,3147,-0.5650634765625,0.1807861328125,-0.1790771484375
0.383,307,308,1434,3147,-0.5650634765625,0.1807861328125,-0.1790771484375
0.391,306,307,1572,3147,-0.4267578125,0.1097412109375,-0.1695556640625
0.405,306,308,1920,3147,-0.0816650390625,-0.07177734375,-0.2545166015625
0.413,306,306,2080,3147,-0.0816650390625,-0.07177734375,-0.2545166015625
0.426,306,306,2247,3147,0.016845703125,-0.0535888671875,-0.312255859375
0.435,306,306,2463,3147,-0.198486328125,0.1546630859375,-0.201904296875
0.443,306,306,2584,3147,-0.198486328125,0.1546630859375,-0.201904296875
0.462,306,308,2662,3147,-0.636474609375,0.276611328125,0.1796875
0.465,306,308,2798,3147,-1.65771484375,0.3016357421875,0.92919921875
0.473,306,307,2885,3147,-1.65771484375,0.3016357421875,0.92919921875
0.481,305,306,2958,3147,-1.8768310546875,0.3892822265625,0.490234375
0.495,306,306,3056,3147,-2.3851318359375,0.5604248046875,-0.447509765625
0.503,306,306,3031,3147,-2.3851318359375,0.5604248046875,-0.447509765625
0.514,307,308,3028,3147,-2.4931640625,0.5091552734375,-0.755126953125
0.529,307,308,3061,3147,-1.373779296875,0.54736328125,-0.7889404296875
0.533,306,306,3055,3147,-1.373779296875,0.54736328125,-0.7889404296875
0.570,306,306,3032,3147,-1.3172607421875,0.9388427734375,-0.099853515625
0.571,308,307,2909,3147,-1.719482421875,0.3199462890625,-0.0804443359375
0.571,306,308,2820,3147,-1.719482421875,0.3199462890625,-0.0804443359375
0.571,306,307,2669,3147,-1.583984375,0.1473388671875,-0.2462158203125
0.585,304,308,2498,3147,-1.3865966796875,0.0745849609375,-0.1973876953125
0.593,308,307,2381,3147,-1.222900390625,0.098388671875,-0.066162109375
0.601,307,307,2282,3147,-1.1055908203125,0.2896728515625,-0.0234375
0.615,308,306,2026,3147,-0.96337890625,0.4061279296875,-0.0869140625
0.633,306,306,1867,3147,-0.7906494140625,0.2958984375,-0.1861572265625
0.634,306,308,1719,3147,-0.6417236328125,0.1854248046875,-0.24462890625
0.645,308,308,1440,3044,-0.538818359375,0.139892578125,-0.27001953125
0.658,307,306,1386,2746,-0.48779296875,0.1024169921875,-0.2783203125
0.673,308,308,1357,2517,-0.48291015625,0.0421142578125,-0.2664794921875
0.676,306,308,1267,2170,-0.4898681640625,-0.0897216796875,-0.24658203125
0.683,308,306,1228,1954,-0.516357421875,-0.1695556640625,-0.2357177734375
0.691,306,306,1206,1847,-0.57470703125,-0.073486328125,-0.201416015625
0.705,308,308,1148,1754,-0.6368408203125,0.1162109375,-0.0938720703125
0.713,307,307,1149,1803,-0.668701171875,0.2310791015625,0.0545654296875
0.721,308,308,1157,1889,-0.6746826171875,0.2147216796875,0.13720703125
0.740,306,306,1169,2110,-0.68505859375,0.16748046875,0.1109619140625
0.743,308,307,1209,2260,-0.7159423828125,0.1627197265625,0.019775390625
0.763,307,308,1201,2359,-0.7838134765625,0.208251953125,-0.076416015625
0.765,308,308,1209,2541,-0.860107421875,0.265380859375,-0.135498046875
0.783,308,307,1248,2671,-0.897216796875,0.2894287109375,-0.1676025390625
0.783,308,306,1260,2769,-0.912353515625,0.2930908203125,-0.1817626953125
0.795,308,308,1289,2904,-0.92529296875,0.29150390625,-0.1966552734375
0.803,308,308,1300,3000,-0.9293212890625,0.27490234375,-0.243408203125
0.811,308,308,1305,3053,-0.9150390625,0.2415771484375,-0.2918701171875
0.825,308,308,1343,3147,-0.8770751953125,0.19482421875,-0.296142578125
0.835,307,306,1373,3147,-0.8194580078125,0.1513671875,-0.255126953125
0.841,306,307,1427,3147,-0.742919921875,0.1285400390625,-0.2032470703125
0.855,307,306,1583,3147,-0.630859375,0.129150390625,-0.172119140625
0.866,307,306,1695,3147,-0.46875,0.13720703125,-0.1529541015625
0.874,306,308,1874,3147,-0.2816162109375,0.15576171875,-0.153564453125
0.894,308,308,2058,3147,-0.103271484375,0.14013671875,-0.19140625
0.894,306,308,2293,3147,-0.0521240234375,-0.007568359375,-0.162353515625
0.901,306,308,2394,3147,-0.2205810546875,-0.250732421875,0.016845703125
0.915,305,308,2612,3147,-0.5186767578125,-0.2945556640625,0.23828125
0.923,306,306,2713,3147,-0.756591796875,-0.0589599609375,0.466796875
0.938,306,306,2818,3147,-0.9307861328125,0.2156982421875,0.5914306640625
0.945,306,308,2950,3147,-1.25927734375,0.527099609375,0.460693359375
0.956,306,307,3031,3147,-1.7568359375,0.682373046875,0.19873046875
0.974,307,306,3075,3147,-2.205078125,0.5631103515625,-0.060546875
0.975,308,308,3070,3147,-2.4453125,0.4700927734375,-0.3131103515625
0.990,306,306,3044,3147,-2.3658447265625,0.495849609375,-0.5455322265625
0.991,307,308,3035,3147,-1.76171875,0.4747314453125,-0.8167724609375
1.005,308,308,3066,3147,-1.15478515625,0.6263427734375,-0.8651123046875
1.013,304,306,3039,3147,-1.2940673828125,0.932861328125,-0.3685302734375
1.021,306,306,2992,3147,-1.726806640625,0.7296142578125,0.09716796875
1.040,306,307,2851,3147,-1.85009765625,0.2838134765625,0.1033935546875
1.044,306,307,2724,3147,-1.732177734375,0.154541015625,-0.0673828125
1.051,307,308,2598,3147,-1.5498046875,0.1558837890625,-0.1519775390625
1.080,306,306,2404,3147,-1.3934326171875,0.166748046875,-0.1180419921875
1.082,306,307,2275,3147,-1.2012939453125,0.3173828125,-0.1197509765625
1.084,292,306,2123,3147,-0.9207763671875,0.483154296875,-0.2305908203125
1.099,306,307,1920,3147,-0.6636962890625,0.4930419921875,-0.3446044921875
1.103,306,306,1742,3147,-0.51220703125,0.4315185546875,-0.3560791015625
1.111,307,308,1592,3147,-0.422119140625,0.297607421875,-0.2509765625
1.125,306,308,1428,2782,-0.3524169921875,0.0606689453125,-0.0716552734375
1.134,310,308,1377,2507,-0.3260498046875,-0.1893310546875,0.069580078125
1.156,307,306,1342,2382,-0.386962890625,-0.358642578125,0.089599609375
1.156,306,307,1266,2284,-0.4996337890625,-0.340576171875,0.036865234375
1.176,289,292,1243,2271,-0.5882568359375,-0.1177978515625,0.022705078125
1.179,307,308,1236,2328,-0.6551513671875,0.10400390625,0.0648193359375
1.189,308,307,1213,2453,-0.7001953125,0.1917724609375,0.07568359375
1.193,308,308,1228,2507,-0.734375,0.2259521484375,-0.0023193359375
1.206,308,306,1231,2604,-0.7890625,0.2779541015625,-0.11474609375
1.215,308,308,1248,2748,-0.8665771484375,0.3411865234375,-0.188232421875
1.223,308,306,1250,2821,-0.9302978515625,0.38330078125,-0.2322998046875
1.231,306,308,1260,2919,-0.950927734375,0.370361328125,-0.2484130859375
1.245,307,308,1262,3015,-0.9481201171875,0.305908203125,-0.226318359375
1.253,307,306,1251,3084,-0.9427490234375,0.2423095703125,-0.1910400390625
1.261,306,308,1266,3127,-0.929443359375,0.2080078125,-0.1573486328125
1.279,306,307,1264,3147,-0.921142578125,0.1912841796875,-0.1357421875
1.284,304,308,1292,3147,-0.9169921875,0.1910400390625,-0.130859375
1.291,304,306,1302,3147,-0.9169921875,0.1910400390625,-0.130859375
1.305,306,308,1349,3147,-0.845703125,0.1722412109375,-0.136474609375
1.319,306,306,1398,3147,-0.7919921875,0.17431640625,-0.14404296875
1.323,308,307,1424,3147,-0.7919921875,0.17431640625,-0.14404296875
1.334,291,305,1540,3147,-0.7249755859375,0.2008056640625,-0.15478515625
1.352,308,308,1786,3147,-0.5533447265625,0.2135009765625,-0.2059326171875
1.353,306,294,1960,3147,-0.4361572265625,0.156982421875,-0.250244140625
1.365,306,307,2119,3147,-0.4361572265625,0.156982421875,-0.250244140625
1.375,307,308,2343,3147,-0.353759765625,-0.09130859375,-0.181396484375
1.384,306,308,2478,3147,-0.3624267578125,-0.266357421875,-0.019287109375
1.391,306,306,2560,3147,-0.3624267578125,-0.266357421875,-0.019287109375
1.405,306,306,2758,3147,-0.4605712890625,-0.0467529296875,0.47900390625
1.422,308,306,2868,3147,-0.6429443359375,0.2794189453125,0.6710205078125
1.423,306,306,2959,3147,-0.6429443359375,0.2794189453125,0.6710205078125
1.435,306,307,3056,3147,-1.4981689453125,0.8829345703125,0.2152099609375
1.451,306,307,3133,3147,-1.9500732421875,0.7568359375,-0.0736083984375
1.451,306,308,3147,3147,-1.9500732421875,0.7568359375,-0.0736083984375
1.468,306,308,3147,3147,-2.451171875,0.5703125,-0.547607421875
1.475,304,308,3137,3147,-2.175537109375,0.497802734375,-0.7557373046875
1.487,306,306,3127,3147,-2.175537109375,0.497802734375,-0.7557373046875
1.495,307,308,3102,3147,-1.193115234375,0.6580810546875,-0.3138427734375
1.503,306,306,3078,3147,-1.193115234375,0.6580810546875,-0.3138427734375
1.513,306,307,3018,3147,-1.510498046875,0.7222900390625,0.3072509765625
1.529,306,306,2904,3147,-1.6788330078125,0.0621337890625,0.1810302734375
1.542,306,306,2778,3147,-1.6788330078125,0.0621337890625,0.1810302734375
1.542,306,306,2676,3147,-1.4903564453125,0.0428466796875,-0.0001220703125
1.555,306,306,2484,3147,-1.2205810546875,0.1593017578125,-0.0423583984375
1.567,306,307,2367,3147,-1.2205810546875,0.1593017578125,-0.0423583984375
1.589,306,305,2257,3147,-1.1119384765625,0.32861328125,-0.09228515625
1.589,306,308,1957,3147,-0.7630615234375,0.345947265625,-0.2330322265625
1.594,308,308,1770,3147,-0.7630615234375,0.345947265625,-0.2330322265625
1.601,306,306,1548,3147,-0.6202392578125,0.347412109375,-0.224853515625
1.615,306,306,1395,2981,-0.41357421875,0.1639404296875,-0.1143798828125
1.629,307,306,1365,2625,-0.41357421875,0.1639404296875,-0.1143798828125
1.632,304,306,1310,2370,-0.359130859375,-0.0655517578125,-0.0732421875
1.645,308,308,1237,2087,-0.453125,-0.2723388671875,-0.0865478515625
1.655,307,306,1234,2075,-0.453125,-0.2723388671875,-0.0865478515625
1.661,308,306,1236,2063,-0.5438232421875,-0.08447265625,0.0108642578125
1.685,308,308,1214,2180,-0.6546630859375,0.132080078125,0.1353759765625
1.685,308,306,1209,2319,-0.6546630859375,0.132080078125,0.1353759765625
1.691,306,308,1198,2430,-0.68896484375,0.1395263671875,0.0430908203125
1.705,308,307,1206,2622,-0.8677978515625,0.257568359375,-0.1427001953125
1.714,308,308,1216,2736,-0.8677978515625,0.257568359375,-0.1427001953125
1.721,307,306,1222,2872,-0.92333984375,0.3072509765625,-0.1817626953125
1.736,307,308,1243,3055,-0.9400634765625,0.3419189453125,-0.1773681640625
1.743,308,308,1266,3140,-0.931396484375,0.3431396484375,-0.1593017578125
1.760,307,308,1278,3147,-0.8929443359375,0.3197021484375,-0.13232421875
1.765,306,308,1317,3147,-0.846435546875,0.2607421875,-0.1043701171875
1.773,306,307,1336,3147,-0.8245849609375,0.1827392578125,-0.106201171875
1.799,306,307,1393,3147,-0.81005859375,0.1624755859375,-0.1368408203125
1.799,306,308,1494,3147,-0.7646484375,0.1995849609375,-0.1593017578125
1.804,306,307,1599,3147,-0.676513671875,0.20703125,-0.1605224609375
1.811,306,307,1742,3147,-0.54296875,0.1658935546875,-0.146728515625
1.825,308,307,2012,3147,-0.4068603515625,0.1258544921875,-0.13623046875
1.833,308,308,2142,3147,-0.3165283203125,0.091064453125,-0.107421875
1.842,306,306,2266,3147,-0.293212890625,-0.0015869140625,0.0155029296875
1.866,307,308,2473,3147,-0.3447265625,-0.1510009765625,0.1256103515625
1.866,306,306,2650,3147,-0.4263916015625,-0.2149658203125,0.115966796875
1.877,308,306,2756,3147,-0.517822265625,-0.0811767578125,0.11865234375
1.891,308,308,2966,3147,-0.7325439453125,0.22900390625,0.1331787109375
1.894,308,307,3040,3147,-1.158935546875,0.6605224609375,0.1119384765625
1.902,308,306,3095,3147,-1.63916015625,0.856201171875,0.16357421875
1.915,306,308,3147,3147,-1.9815673828125,0.7171630859375,0.2265625
1.923,308,306,3147,3147,-2.17431640625,0.5546875,0.111328125
1.931,306,308,3147,3147,-2.2652587890625,0.51123046875,-0.1962890625
1.950,306,307,3147,3147,-2.0106201171875,0.530517578125,-0.6513671875
1.954,306,307,3147,3147,-1.4127197265625,0.5970458984375,-0.96728515625
1.962,306,307,3147,3147,-1.2454833984375,0.8768310546875,-0.663330078125
1.992,305,308,3064,3147,-1.6307373046875,0.882568359375,-0.0548095703125
1.993,306,308,2961,3147,-1.8692626953125,0.412841796875,0.21875
1.993,306,292,2884,3147,-1.769775390625,0.111328125,0.13623046875
2.006,306,308,2689,3147,-1.5323486328125,0.1280517578125,-0.0289306640625
2.014,306,306,2538,3147,-1.28271484375,0.1834716796875,-0.1075439453125
2.021,306,305,2430,3147,-1.0682373046875,0.255615234375,-0.135009765625
2.035,308,306,2258,3147,-0.919189453125,0.396240234375,-0.1737060546875
2.043,306,307,2113,3147,-0.8162841796875,0.4423828125,-0.2005615234375
2.065,306,306,1945,3147,-0.7369384765625,0.3782958984375,-0.1883544921875
2.065,308,306,1675,3147,-0.67236328125,0.3193359375,-0.16455078125
2.074,306,306,1533,3147,-0.58837890625,0.21826171875,-0.1478271484375
2.083,306,308,1488,2929,-0.5048828125,0.0479736328125,-0.09033203125
2.104,307,307,1415,2465,-0.449951171875,-0.1456298828125,-0.010009765625
2.105,307,307,1399,2293,-0.4534912109375,-0.3194580078125,0.02099609375
2.111,308,307,1369,2172,-0.492431640625,-0.3109130859375,0.0220947265625
2.125,308,308,1338,2105,-0.5333251953125,-0.0675048828125,0.0565185546875
2.133,307,307,1334,2170,-0.5904541015625,0.1961669921875,0.138427734375
2.141,306,307,1328,2253,-0.6361083984375,0.2645263671875,0.1658935546875
2.169,308,308,1346,2432,-0.6644287109375,0.1949462890625,0.068603515625
2.170,308,308,1359,2524,-0.7257080078125,0.19677734375,-0.0679931640625
2.171,294,308,1393,2627,-0.8011474609375,0.2744140625,-0.1590576171875
2.186,307,308,1424,2840,-0.83984375,0.3316650390625,-0.18701171875
2.203,309,307,1441,2929,-0.8656005859375,0.3638916015625,-0.16455078125
2.203,307,308,1463,2997,-0.906005859375,0.384765625,-0.140625
2.216,306,308,1516,3107,-0.9395751953125,0.3604736328125,-0.134521484375
2.223,307,307,1545,3147,-0.9410400390625,0.2821044921875,-0.1368408203125
2.231,306,306,1572,3147,-0.90771484375,0.2052001953125,-0.1385498046875
2.245,306,308,1637,3147,-0.8482666015625,0.143310546875,-0.1451416015625
2.254,306,306,1735,3147,-0.7789306640625,0.10595703125,-0.16162109375
2.275,306,306,1843,3147,-0.7060546875,0.1273193359375,-0.1893310546875
2.278,308,307,2016,3147,-0.604248046875,0.1324462890625,-0.2308349609375
2.287,306,306,2124,3147,-0.4464111328125,0.0743408203125,-0.2457275390625
2.300,306,308,2235,3147,-0.296630859375,0.06201171875,-0.1763916015625
2.306,306,306,2456,3147,-0.2545166015625,0.0899658203125,-0.0626220703125
2.316,307,306,2539,3147,-0.3468017578125,0.08740234375,0.015625
2.322,306,309,2652,3147,-0.4822998046875,0.065185546875,0.1192626953125
2.336,307,307,2869,3147,-0.6175537109375,0.1119384765625,0.2681884765625
2.343,306,306,2981,3147,-0.88232421875,0.244873046875,0.3179931640625
2.351,305,307,3042,3147,-1.3199462890625,0.489013671875,0.2105712890625
2.379,308,308,3121,3147,-1.7958984375,0.616943359375,0.0482177734375
2.379,310,306,3139,3147,-2.131591796875,0.39501953125,-0.0943603515625
2.381,306,307,3115,3147,-2.26220703125,0.2271728515625,-0.22314453125
2.397,308,308,2940,3147,-2.1422119140625,0.3057861328125,-0.4586181640625
2.404,308,307,2840,3147,-1.62158203125,0.3575439453125,-0.834228515625
2.413,306,307,2854,3147,-1.62158203125,0.3575439453125,-0.834228515625
2.430,307,308,2851,3147,-1.231201171875,0.5047607421875,-0.484375
2.433,306,306,2807,3147,-1.705322265625,0.4725341796875,0.0228271484375
2.441,306,308,2727,3147,-1.705322265625,0.4725341796875,0.0228271484375
2.456,306,307,2527,3147,-1.7039794921875,0.060791015625,0.05712890625
2.464,307,306,2407,3147,-1.423583984375,0.0552978515625,-0.042236328125
2.474,306,306,2319,3147,-1.423583984375,0.0552978515625,-0.042236328125
2.504,306,308,2161,3147,-1.070556640625,0.2750244140625,-0.167236328125
2.504,306,307,2065,3147,-0.8944091796875,0.286376953125,-0.2047119140625
2.520,307,307,1957,3147,-0.8944091796875,0.286376953125,-0.2047119140625
2.522,306,306,1686,3147,-0.729736328125,0.3148193359375,-0.2159423828125
2.528,305,298,1536,3144,-0.67431640625,0.3035888671875,-0.2310791015625
2.533,306,308,1434,2859,-0.67431640625,0.3035888671875,-0.2310791015625
2.542,308,309,1369,2584,-0.590087890625,0.1953125,-0.2305908203125
2.554,306,308,1309,2078,-0.482177734375,-0.1954345703125,-0.11572265625
2.562,306,306,1280,1994,-0.482177734375,-0.1954345703125,-0.11572265625
2.579,306,308,1251,1895,-0.500732421875,-0.3238525390625,-0.068359375
2.605,308,308,1220,1821,-0.60546875,0.0560302734375,-0.0343017578125
2.606,306,306,1206,1819,-0.60546875,0.0560302734375,-0.0343017578125
2.608,308,308,1206,1846,-0.6693115234375,0.275390625,-0.021484375
2.614,306,308,1225,1968,-0.7283935546875,0.2476806640625,-0.026123046875
2.622,308,307,1265,2117,-0.7283935546875,0.2476806640625,-0.026123046875
2.630,308,306,1281,2254,-0.7474365234375,0.207763671875,-0.1060791015625
2.644,308,308,1271,2494,-0.8048095703125,0.216064453125,-0.20361328125
2.654,306,307,1275,2654,-0.8048095703125,0.216064453125,-0.20361328125
2.660,308,306,1289,2787,-0.8162841796875,0.228515625,-0.201904296875
2.678,306,308,1323,3104,-0.8770751953125,0.2625732421875,-0.1612548828125
2.682,307,307,1323,3147,-0.8770751953125,0.2625732421875,-0.1612548828125
2.714,306,309,1363,3147,-0.8973388671875,0.2796630859375,-0.147216796875
2.714,306,306,1434,3147,-0.88134765625,0.2069091796875,-0.149169921875
2.714,308,306,1503,3147,-0.88134765625,0.2069091796875,-0.149169921875
2.721,308,308,1560,3147,-0.8597412109375,0.154541015625,-0.14404296875
2.734,308,307,1669,3147,-0.825439453125,0.115966796875,-0.12744140625
2.743,306,308,1748,3147,-0.7650146484375,0.1517333984375,-0.104248046875
2.751,307,306,1865,3147,-0.65380859375,0.208251953125,-0.0594482421875
2.766,307,308,2063,3147,-0.5343017578125,0.16796875,0.0230712890625
2.772,306,306,2172,3147,-0.432861328125,-0.0390625,0.0745849609375
2.781,308,306,2273,3147,-0.302490234375,-0.2877197265625,0.044921875
2.801,306,308,2453,3147,-0.2100830078125,-0.3153076171875,0.0194091796875
2.809,305,308,2566,3147,-0.28955078125,-0.13330078125,0.05908203125
2.811,298,306,2679,3147,-0.5943603515625,0.14013671875,0.049560546875
2.825,306,308,2853,3147,-1.04736328125,0.4373779296875,-0.0771484375
2.832,306,308,2929,3147,-1.522705078125,0.6785888671875,-0.2825927734375
2.841,306,306,2990,3147,-1.9285888671875,0.7122802734375,-0.4267578125
2.854,307,306,3023,3147,-2.16943359375,0.5997314453125,-0.3953857421875
2.862,306,308,2974,3147,-2.220947265625,0.625244140625,-0.3028564453125
2.870,306,306,2905,3147,-1.9959716796875,0.6553955078125,-0.33935546875
2.886,306,308,2930,3147,-1.39306640625,0.540283203125,-0.5467529296875
2.892,306,306,2928,3147,-0.9979248046875,0.6033935546875,-0.580322265625
2.913,305,307,2898,3147,-1.2779541015625,0.701416015625,-0.324951171875
2.921,306,306,2750,3147,-1.6630859375,0.4273681640625,-0.099609375
2.923,307,309,2648,3147,-1.698486328125,0.1185302734375,-0.0167236328125
2.930,306,306,2507,3147,-1.5357666015625,0.0472412109375,-0.0274658203125
2.945,306,305,2360,3147,-1.3634033203125,0.0611572265625,-0.0684814453125
2.953,306,308,2269,3147,-1.19287109375,0.1346435546875,-0.08984375
2.960,306,306,2139,3147,-1.0218505859375,0.273681640625,-0.10986328125
2.974,306,307,1936,3147,-0.8651123046875,0.3297119140625,-0.1240234375
2.992,306,306,1800,3147,-0.7572021484375,0.3131103515625,-0.158447265625
2.993,307,307,1669,3147,-0.7137451171875,0.3074951171875,-0.2440185546875
3.018,306,308,1494,3147,-0.6907958984375,0.2431640625,-0.31103515625
3.019,306,306,1422,3147,-0.671875,0.1077880859375,-0.317626953125
3.022,306,308,1404,3147,-0.66259765625,0.010986328125,-0.2762451171875
3.035,306,308,1348,3006,-0.6517333984375,-0.029541015625,-0.1988525390625
3.043,306,306,1289,2831,-0.633056640625,-0.06640625,-0.1246337890625
3.050,306,308,1306,2770,-0.60986328125,-0.048583984375,-0.07666015625
3.065,306,308,1280,2601,-0.594482421875,0.0438232421875,-0.0517578125
3.072,307,306,1267,2604,-0.6287841796875,0.1953125,-0.0496826171875
3.080,306,306,1251,2624,-0.7139892578125,0.32763671875,-0.0560302734375
3.094,308,307,1243,2654,-0.7989501953125,0.3253173828125,-0.04541015625
3.106,307,307,1253,2710,-0.8511962890625,0.2091064453125,-0.0313720703125
3.126,306,307,1264,2760,-0.8651123046875,0.1112060546875,-0.053466796875
3.127,308,308,1283,2898,-0.8594970703125,0.1483154296875,-0.0986328125
3.132,306,306,1310,2992,-0.852294921875,0.2587890625,-0.1407470703125
3.141,307,306,1325,3048,-0.839111328125,0.3084716796875,-0.188720703125
3.155,307,308,1365,3147,-0.8074951171875,0.2716064453125,-0.22998046875
3.163,306,306,1351,3147,-0.7742919921875,0.2061767578125,-0.2393798828125
3.170,306,306,1348,3147,-0.744873046875,0.1956787109375,-0.216552734375
3.190,307,307,1379,3147,-0.693115234375,0.233642578125,-0.1729736328125
3.192,306,307,1441,3147,-0.60009765625,0.2772216796875,-0.1116943359375
3.201,307,306,1545,3147,-0.4439697265625,0.286865234375,-0.051025390625
3.229,306,307,1816,3147,-0.23193359375,0.2088623046875,-0.0323486328125
3.229,306,306,2012,3147,-0.0670166015625,0.071044921875,-0.041015625
3.231,307,306,2180,3147,-0.0406494140625,-0.1524658203125,-0.0809326171875
3.244,305,307,2368,3147,-0.1204833984375,-0.385009765625,-0.14990234375
3.253,308,306,2484,3147,-0.3299560546875,-0.4385986328125,-0.1326904296875
3.260,306,306,2619,3147,-0.698486328125,-0.182373046875,0.0457763671875
3.274,306,308,2785,3147,-1.1881103515625,0.345458984375,0.209228515625
3.282,306,307,2851,3147,-1.7620849609375,0.8096923828125,0.2322998046875
3.293,306,307,2887,3147,-2.2491455078125,0.80029296875,0.22216796875
3.305,306,308,2937,3147,-2.5025634765625,0.622314453125,0.1416015625
3.312,307,306,2876,3147,-2.4893798828125,0.660888671875,-0.115966796875
3.321,307,306,2884,3147,-1.9923095703125,0.6180419921875,-0.6488037109375
3.337,306,308,2908,3147,-1.398681640625,0.72216796875,-0.9686279296875
3.343,306,306,2863,3147,-1.435302734375,1.0010986328125,-0.5548095703125
3.350,306,306,2828,3147,-1.724365234375,0.8177490234375,-0.0819091796875
3.365,306,308,2668,3147,-1.7425537109375,0.427734375,-0.0595703125
3.372,308,308,2563,3147,-1.60986328125,0.2239990234375,-0.2142333984375
3.381,307,306,2458,3147,-1.43701171875,0.056884765625,-0.262939453125
3.395,306,307,2330,3147,-1.2127685546875,0.013427734375,-0.1585693359375
3.403,307,306,2207,3147,-0.9776611328125,0.12646484375,-0.0311279296875
3.414,306,307,2070,3147,-0.7734375,0.2030029296875,0.0340576171875
3.429,307,306,1719,3147,-0.626220703125,0.228271484375,0.0159912109375
3.446,306,307,1548,3147,-0.5455322265625,0.275390625,-0.0699462890625
3.448,306,306,1424,3147,-0.5455322265625,0.275390625,-0.0699462890625
3.455,306,306,1342,3147,-0.489013671875,0.0880126953125,-0.1837158203125
3.463,306,307,1334,3078,-0.520263671875,-0.033447265625,-0.15869140625
3.470,307,306,1335,2908,-0.520263671875,-0.033447265625,-0.15869140625
3.484,308,308,1292,2671,-0.6171875,-0.1143798828125,-0.1058349609375
3.497,308,306,1264,2641,-0.62744140625,-0.0028076171875,-0.1134033203125
3.500,306,308,1253,2561,-0.62744140625,-0.0028076171875,-0.1134033203125
3.515,306,307,1265,2581,-0.715576171875,0.2880859375,-0.1646728515625
3.527,308,308,1278,2565,-0.7830810546875,0.3048095703125,-0.156005859375
3.539,307,308,1289,2612,-0.7830810546875,0.3048095703125,-0.156005859375
3.556,306,306,1290,2721,-0.83203125,0.25439453125,-0.1302490234375
3.557,307,308,1294,2844,-0.826416015625,0.2738037109375,-0.133544921875
3.560,306,309,1306,2909,-0.826416015625,0.2738037109375,-0.133544921875
3.574,306,307,1317,3046,-0.81494140625,0.30908203125,-0.1680908203125
3.583,308,306,1308,3147,-0.8153076171875,0.26513671875,-0.1822509765625
3.591,306,305,1323,3147,-0.8153076171875,0.26513671875,-0.1822509765625
3.604,306,306,1369,3147,-0.853271484375,0.188232421875,-0.1365966796875
3.615,306,306,1367,3147,-0.859130859375,0.189453125,-0.1041259765625
3.628,306,306,1365,3147,-0.859130859375,0.189453125,-0.1041259765625
3.637,308,308,1402,3147,-0.786376953125,0.154052734375,-0.093505859375
3.642,306,308,1439,3147,-0.734130859375,0.14697265625,-0.1190185546875
3.657,306,306,1487,3147,-0.734130859375,0.14697265625,-0.1190185546875
3.668,306,307,1757,3147,-0.58056640625,0.1256103515625,-0.1407470703125
3.673,308,308,1908,3147,-0.58056640625,0.1256103515625,-0.1407470703125
3.681,306,305,2104,3147,-0.52001953125,0.0447998046875,-0.1527099609375
3.694,306,308,2335,3147,-0.2191162109375,-0.1640625,-0.1553955078125
3.703,308,306,2484,3147,-0.2191162109375,-0.1640625,-0.1553955078125
3.711,306,306,2597,3147,-0.1749267578125,-0.1571044921875,-0.1123046875
3.734,308,306,2780,3147,-0.5423583984375,-0.0421142578125,0.235107421875
3.734,306,307,2916,3147,-0.5423583984375,-0.0421142578125,0.235107421875
3.740,305,306,2981,3147,-0.935302734375,0.28369140625,0.3592529296875
3.759,307,308,3106,3147,-1.8660888671875,0.75341796875,0.1395263671875
3.763,306,308,3137,3147,-1.8660888671875,0.75341796875,0.1395263671875
3.771,306,306,3147,3147,-2.176025390625,0.6656494140625,-0.024169921875
3.785,306,315,3120,3147,-2.2762451171875,0.685791015625,-0.7220458984375
3.792,308,306,3112,3147,-2.2762451171875,0.685791015625,-0.7220458984375
3.800,306,305,3120,3147,-1.7696533203125,0.6712646484375,-1.125244140625
3.814,306,308,3073,3147,-1.6038818359375,0.706298828125,-0.17333984375
3.826,306,306,3008,3147,-1.6038818359375,0.706298828125,-0.17333984375
3.845,306,306,2904,3147,-1.9151611328125,0.501220703125,0.2598876953125
3.846,307,308,2648,3147,-1.602294921875,0.142822265625,0.0731201171875
3.853,307,307,2527,3147,-1.602294921875,0.142822265625,0.0731201171875
3.868,306,308,2407,3147,-1.2960205078125,0.0867919921875,0.0169677734375
3.874,306,308,2137,3147,-1.0435791015625,0.16162109375,-0.007568359375
3.882,306,306,1961,3147,-0.845458984375,0.2418212890625,-0.0863037109375
3.896,306,306,1750,3147,-0.685791015625,0.2164306640625,-0.1785888671875
3.907,306,307,1523,3147,-0.571044921875,0.2322998046875,-0.233642578125
3.913,306,307,1452,3147,-0.474853515625,0.26123046875,-0.2476806640625
3.924,306,306,1424,3147,-0.39794921875,0.212890625,-0.2364501953125
3.937,306,307,1375,3078,-0.3756103515625,0.09814453125,-0.1971435546875
3.945,308,307,1345,2899,-0.408203125,-0.0712890625,-0.154296875
3.951,308,306,1320,2756,-0.4566650390625,-0.207275390625,-0.111328125
3.965,306,308,1289,2677,-0.5072021484375,-0.1123046875,-0.0677490234375
3.976,306,304,1278,2672,-0.5975341796875,0.175048828125,-0.0281982421875
3.981,308,307,1305,2763,-0.6876220703125,0.332763671875,0.0208740234375
3.995,308,310,1336,2921,-0.7340087890625,0.27392578125,0.02001953125
4.013,307,307,1357,3035,-0.7540283203125,0.17919921875,-0.0477294921875
4.014,307,306,1380,3106,-0.7835693359375,0.1903076171875,-0.114013671875
4.027,306,307,1409,3147,-0.8377685546875,0.2835693359375,-0.1397705078125
4.043,308,308,1415,3147,-0.8873291015625,0.34619140625,-0.143310546875
4.043,306,308,1428,3147,-0.9078369140625,0.33349609375,-0.151611328125
4.055,306,306,1447,3147,-0.907470703125,0.2762451171875,-0.16796875
4.063,306,306,1455,3147,-0.905517578125,0.2210693359375,-0.1834716796875
4.071,306,306,1463,3147,-0.9083251953125,0.19189453125,-0.187255859375
4.084,305,308,1478,3147,-0.90869140625,0.1854248046875,-0.1798095703125
4.092,306,306,1477,3147,-0.901611328125,0.1904296875,-0.1588134765625
4.100,306,307,1472,3147,-0.8897705078125,0.213134765625,-0.135986328125
4.114,305,306,1541,3147,-0.8729248046875,0.2596435546875,-0.1416015625
4.122,306,306,1580,3147,-0.867431640625,0.2950439453125,-0.162841796875
4.139,306,308,1669,3147,-0.861083984375,0.2691650390625,-0.16943359375
4.146,305,306,1874,3147,-0.7962646484375,0.1878662109375,-0.15869140625
4.153,306,306,2019,3147,-0.6802978515625,0.124267578125,-0.126220703125
4.161,305,306,2142,3147,-0.5382080078125,0.1177978515625,-0.0732421875
4.175,308,308,2341,3147,-0.3804931640625,0.08935546875,-0.027587890625
4.185,306,305,2484,3147,-0.2662353515625,-0.0023193359375,-0.0106201171875
4.191,306,306,2593,3147,-0.2322998046875,-0.1322021484375,-0.0059814453125
4.205,307,308,2809,3147,-0.3048095703125,-0.3504638671875,0.1046142578125
4.216,305,306,2912,3147,-0.5482177734375,-0.332275390625,0.309326171875
4.221,307,308,2950,3147,-0.95703125,0.116455078125,0.39599609375
4.237,306,307,3099,3147,-1.39990234375,0.627685546875,0.2957763671875
4.243,306,306,3120,3147,-1.8013916015625,0.7586669921875,0.1182861328125
4.254,306,308,3143,3147,-2.124267578125,0.6287841796875,-0.10498046875
4.264,306,308,3053,3147,-2.30419921875,0.6636962890625,-0.4132080078125
4.273,307,307,3058,3147,-2.0833740234375,0.6971435546875,-0.8388671875
4.281,306,306,3126,3147,-1.4654541015625,0.59619140625,-1.174560546875
4.295,305,306,3144,3147,-1.2607421875,0.7105712890625,-0.822509765625
4.303,306,306,3128,3147,-1.5452880859375,0.872314453125,-0.061767578125
4.320,306,308,3064,3147,-1.6688232421875,0.678466796875,0.2137451171875
4.324,306,306,2921,3147,-1.5721435546875,0.3809814453125,0.03076171875
4.344,306,308,2813,3147,-1.451171875,0.177734375,-0.169677734375
4.344,306,306,2619,3147,-1.3616943359375,0.0635986328125,-0.211669921875
4.361,306,308,2340,3147,-1.2420654296875,0.1273193359375,-0.1307373046875
4.363,292,306,2152,3147,-1.0928955078125,0.3177490234375,-0.0970458984375
4.371,306,305,1968,3147,-0.92236328125,0.4385986328125,-0.14111328125
4.385,306,308,1703,3147,-0.7406005859375,0.4317626953125,-0.2069091796875
4.399,306,306,1557,3147,-0.590576171875,0.353515625,-0.2763671875
4.401,306,306,1429,3147,-0.4990234375,0.263671875,-0.2933349609375
4.420,305,308,1357,2976,-0.477783203125,0.17578125,-0.2484130859375
4.423,306,308,1303,2580,-0.4989013671875,0.037353515625,-0.1700439453125
4.431,306,306,1279,2389,-0.5118408203125,-0.1468505859375,-0.101806640625
4.461,308,308,1243,2165,-0.526611328125,-0.197509765625,-0.0408935546875
4.461,308,307,1239,2105,-0.5692138671875,0.00927734375,0.0194091796875
4.462,294,308,1225,2083,-0.6087646484375,0.28076171875,0.077880859375
4.476,306,308,1226,2225,-0.6185302734375,0.370361328125,0.1365966796875
4.484,307,308,1228,2345,-0.6290283203125,0.2542724609375,0.12744140625
4.492,306,309,1239,2442,-0.6868896484375,0.14404296875,0.023681640625
4.505,308,308,1248,2648,-0.7589111328125,0.20361328125,-0.08349609375
4.514,306,307,1265,2799,-0.7977294921875,0.3193359375,-0.1287841796875
4.523,308,307,1274,2928,-0.808837890625,0.35693359375,-0.1307373046875
4.551,306,306,1294,3147,-0.8079833984375,0.3160400390625,-0.1318359375
4.554,308,306,1318,3147,-0.79833984375,0.2786865234375,-0.147705078125
4.554,306,306,1365,3147,-0.768310546875,0.2576904296875,-0.1456298828125
4.569,308,306,1445,3147,-0.7255859375,0.2384033203125,-0.1090087890625
4.574,307,306,1501,3147,-0.6904296875,0.2454833984375,-0.0653076171875
4.582,304,307,1584,3147,-0.6563720703125,0.2244873046875,-0.03076171875
4.595,305,307,1908,3147,-0.6146240234375,0.1422119140625,-0.0244140625
4.611,307,305,2076,3147,-0.5745849609375,-0.0147705078125,-0.033935546875
4.614,306,306,2225,3147,-0.5247802734375,-0.2274169921875,-0.075439453125
4.626,306,308,2473,3147,-0.3756103515625,-0.2938232421875,-0.15673828125
4.634,306,306,2619,3147,-0.1610107421875,-0.1844482421875,-0.23486328125
4.642,307,308,2765,3147,-0.1505126953125,-0.0667724609375,-0.22314453125
4.664,306,306,3000,3147,-0.486083984375,0.1976318359375,-0.030029296875
4.664,307,308,3107,3147,-1.0655517578125,0.6292724609375,0.2210693359375
4.672,306,308,3147,3147,-1.0655517578125,0.6292724609375,0.2210693359375
4.686,306,308,3147,3147,-2.13525390625,0.820068359375,0.4083251953125
4.694,306,306,3147,3147,-2.325439453125,0.5709228515625,0.2213134765625
4.702,308,307,3147,3147,-2.325439453125,0.5709228515625,0.2213134765625
4.719,306,308,3147,3147,-2.0419921875,0.4490966796875,-0.8779296875
4.729,306,304,3147,3147,-1.46337890625,0.3353271484375,-1.3355712890625
4.732,306,309,3147,3147,-1.46337890625,0.3353271484375,-1.3355712890625
4.745,306,306,3147,3147,-1.6922607421875,0.60498046875,0.0269775390625
4.754,306,306,3147,3147,-1.6868896484375,0.548095703125,0.346923828125
4.763,306,308,3089,3147,-1.6868896484375,0.548095703125,0.346923828125
4.776,306,308,2858,3147,-1.2303466796875,0.093994140625,-0.0101318359375
4.784,308,306,2717,3147,-1.102783203125,-0.03369140625,-0.046875
4.794,305,306,2598,3147,-1.102783203125,-0.03369140625,-0.046875
4.806,306,307,2392,3147,-0.988525390625,0.28125,-0.0567626953125
4.814,306,306,2233,3147,-0.8648681640625,0.3460693359375,-0.122314453125
4.831,306,307,2113,3147,-0.8648681640625,0.3460693359375,-0.122314453125
4.836,306,281,1877,3147,-0.6695556640625,0.32470703125,-0.2994384765625
4.851,306,306,1761,3147,-0.6490478515625,0.27734375,-0.311767578125
4.858,306,308,1627,3147,-0.6490478515625,0.27734375,-0.311767578125
4.872,306,308,1462,3147,-0.63916015625,0.1005859375,-0.19482421875
4.874,293,306,1411,3053,-0.648193359375,-0.0010986328125,-0.1148681640625
4.882,306,307,1383,2820,-0.648193359375,-0.0010986328125,-0.1148681640625
4.896,308,308,1330,2576,-0.671142578125,-0.0068359375,0.0052490234375
4.908,308,308,1313,2521,-0.671142578125,-0.0068359375,0.0052490234375
4.912,308,308,1281,2519,-0.635498046875,0.0928955078125,0.01025390625
4.940,308,308,1260,2516,-0.7149658203125,0.185791015625,-0.056640625
4.940,292,307,1223,2514,-0.7149658203125,0.185791015625,-0.056640625
4.942,306,306,1260,2608,-0.816650390625,0.166015625,-0.0662841796875
4.964,308,308,1266,2734,-0.8614501953125,0.185791015625,-0.088134765625
4.964,307,306,1276,2808,-0.8614501953125,0.185791015625,-0.088134765625
4.972,308,306,1283,2897,-0.8408203125,0.221923828125,-0.0997314453125
4.985,308,308,1306,3051,-0.8115234375,0.2562255859375,-0.1402587890625
4.994,306,306,1316,3121,-0.8115234375,0.2562255859375,-0.1402587890625
5.001,308,308,1330,3147,-0.8040771484375,0.2100830078125,-0.154296875
5.020,306,308,1382,3147,-0.829833984375,0.1927490234375,-0.158447265625
5.023,306,306,1393,3147,-0.829833984375,0.1927490234375,-0.158447265625
5.041,306,308,1422,3147,-0.8182373046875,0.210205078125,-0.142578125
5.045,306,307,1572,3147,-0.604736328125,0.164306640625,-0.1021728515625
5.055,304,308,1792,3147,-0.604736328125,0.164306640625,-0.1021728515625
5.073,305,306,2008,3147,-0.4805908203125,0.15673828125,-0.1175537109375
5.076,306,307,2254,3147,-0.2672119140625,-0.0528564453125,-0.1427001953125
5.084,307,308,2435,3147,-0.2672119140625,-0.0528564453125,-0.1427001953125
5.092,306,308,2576,3147,-0.1474609375,-0.28759765625,-0.1685791015625
5.106,307,308,2766,3147,-0.1488037109375,-0.2501220703125,-0.207763671875
5.113,306,304,2863,3147,-0.1488037109375,-0.2501220703125,-0.207763671875
5.121,307,307,2984,3147,-0.502197265625,0.13720703125,-0.0462646484375
5.146,307,306,3147,3147,-1.087158203125,0.758544921875,0.2021484375
5.146,306,308,3147,3147,-1.7713623046875,1.033203125,0.42724609375
5.166,307,304,3147,3147,-2.2001953125,0.723388671875,0.5386962890625
5.167,306,306,3147,3147,-2.3135986328125,0.4571533203125,0.3526611328125
5.174,306,306,3147,3147,-2.363037109375,0.4849853515625,-0.05859375
5.182,305,306,3147,3147,-2.2052001953125,0.4599609375,-0.5491943359375
5.196,307,306,3147,3147,-1.64892578125,0.35205078125,-0.923583984375
5.204,306,307,3147,3147,-1.430908203125,0.390625,-0.55419921875
5.212,306,307,3147,3147,-1.7467041015625,0.4561767578125,0.1282958984375
5.226,306,306,3147,3147,-1.819091796875,0.3826904296875,0.2479248046875
5.239,306,306,3098,3147,-1.5870361328125,0.322998046875,-0.013427734375
5.242,306,304,2981,3147,-1.3521728515625,0.2174072265625,-0.2147216796875
5.268,308,307,2769,3147,-1.1988525390625,0.08447265625,-0.1978759765625
5.268,305,306,2613,3147,-1.0892333984375,0.1475830078125,-0.11572265625
5.272,306,308,2445,3147,-0.9871826171875,0.3780517578125,-0.123046875
5.286,306,306,2195,3147,-0.8662109375,0.4501953125,-0.1988525390625
5.294,306,306,2024,3147,-0.74853515625,0.3309326171875,-0.2652587890625
5.302,306,306,1863,3147,-0.67578125,0.2493896484375,-0.3017578125
5.315,306,306,1564,3147,-0.614990234375,0.209228515625,-0.28564453125
5.324,304,306,1470,3147,-0.5621337890625,0.149169921875,-0.2330322265625
5.332,306,308,1411,2801,-0.5328369140625,0.05078125,-0.1612548828125
5.345,306,308,1278,2445,-0.5484619140625,-0.0919189453125,-0.0986328125
5.372,306,305,1229,2375,-0.595947265625,-0.2158203125,-0.05126953125
5.372,308,307,1251,2192,-0.626953125,-0.1904296875,-0.0048828125
5.382,306,307,1236,2176,-0.6549072265625,0.0205078125,0.021484375
5.384,308,308,1225,2171,-0.700439453125,0.2252197265625,0.041748046875
5.391,308,308,1220,2225,-0.744384765625,0.2724609375,0.04541015625
5.405,308,308,1206,2296,-0.765869140625,0.225341796875,-0.0013427734375
5.414,308,306,1220,2419,-0.74853515625,0.1763916015625,-0.07177734375
5.421,308,308,1228,2557,-0.719482421875,0.1727294921875,-0.12451171875
5.435,306,308,1239,2840,-0.7100830078125,0.225830078125,-0.15966796875
5.444,308,306,1282,3017,-0.699951171875,0.2611083984375,-0.168212890625
5.478,308,306,1282,3147,-0.6856689453125,0.2454833984375,-0.14794921875
5.500,306,309,1373,3147,-0.7059326171875,0.25048828125,-0.1204833984375
5.501,307,308,1453,3147,-0.73828125,0.26611328125,-0.103759765625
5.501,306,306,1529,3147,-0.712158203125,0.24560546875,-0.0849609375
5.501,306,308,1854,3147,-0.601318359375,0.182373046875,-0.0501708984375
5.503,306,304,2061,3147,-0.46142578125,0.095947265625,-0.025390625
5.518,305,307,2223,3147,-0.365966796875,0.021240234375,-0.0010986328125
5.528,305,308,2551,3147,-0.334228515625,-0.0947265625,0.0157470703125
5.533,306,306,2734,3147,-0.2880859375,-0.2559814453125,-0.0401611328125
5.546,306,306,2899,3147,-0.1929931640625,-0.3648681640625,-0.0955810546875
5.555,305,307,3120,3147,-0.232177734375,-0.3214111328125,0.016845703125
5.587,306,307,3147,3147,-0.593505859375,0.018310546875,0.1678466796875
5.587,305,290,3147,3147,-1.208984375,0.6219482421875,0.193115234375
5.588,308,308,3147,3147,-1.853271484375,0.910400390625,0.1732177734375
5.594,306,310,3147,3147,-2.2918701171875,0.7808837890625,0.0823974609375
5.602,306,308,3147,3147,-2.428955078125,0.6575927734375,-0.1806640625
5.616,306,308,3147,3147,-2.396240234375,0.6717529296875,-0.51953125
5.623,306,307,3147,3147,-2.095458984375,0.7098388671875,-0.8570556640625
5.632,306,308,3147,3147,-1.4901123046875,0.673828125,-1.06494140625
5.648,306,307,3147,3147,-1.2431640625,0.6619873046875,-0.689208984375
5.653,306,308,3147,3147,-1.605712890625,0.5018310546875,0.023193359375
5.661,306,306,3147,3147,-1.911865234375,0.1302490234375,0.32958984375
5.685,306,308,3147,3147,-1.8109130859375,-0.1146240234375,0.2230224609375
5.686,291,308,3147,3147,-1.5391845703125,-0.12646484375,0.0523681640625
5.695,308,307,3023,3147,-1.3160400390625,-0.076171875,-0.0423583984375
5.705,306,307,2723,3147,-1.1702880859375,0.08251953125,-0.099609375
5.713,306,306,2568,3147,-1.0230712890625,0.3668212890625,-0.1668701171875
5.722,308,308,2388,3147,-0.828125,0.4847412109375,-0.2421875
5.735,308,306,2087,3147,-0.6470947265625,0.400390625,-0.2901611328125
5.752,306,306,1920,3147,-0.5345458984375,0.30419921875,-0.3033447265625
5.753,308,307,1709,3147,-0.4786376953125,0.2296142578125,-0.2884521484375
5.766,306,306,1468,2831,-0.4503173828125,0.1485595703125,-0.24951171875
5.774,306,305,1401,2658,-0.4378662109375,0.0001220703125,-0.1990966796875
5.790,307,304,1382,2507,-0.4532470703125,-0.1951904296875,-0.14794921875
5.796,306,308,1331,2330,-0.5035400390625,-0.301025390625,-0.07763671875
5.808,306,307,1292,2220,-0.576171875,-0.201904296875,0.0338134765625
5.811,315,306,1273,2207,-0.576171875,-0.201904296875,0.0338134765625
5.825,308,308,1283,2308,-0.6529541015625,0.25634765625,0.235107421875
5.833,308,307,1294,2412,-0.66943359375,0.3109130859375,0.227783203125
5.842,307,307,1303,2535,-0.66943359375,0.3109130859375,0.227783203125
5.855,308,308,1306,2841,-0.7808837890625,0.1298828125,-0.0450439453125
5.864,308,306,1320,3050,-0.828125,0.0921630859375,-0.169677734375
5.872,306,308,1323,3147,-0.828125,0.0921630859375,-0.169677734375
5.893,306,306,1382,3147,-0.83447265625,0.2117919921875,-0.21533203125
5.894,306,306,1409,3147,-0.81640625,0.3155517578125,-0.185546875
5.902,307,307,1419,3147,-0.81640625,0.3155517578125,-0.185546875
5.921,305,308,1445,3147,-0.836181640625,0.319580078125,-0.1209716796875
5.924,306,308,1463,3147,-0.8743896484375,0.2437744140625,-0.1129150390625
5.932,306,306,1516,3147,-0.8743896484375,0.2437744140625,-0.1129150390625
5.945,307,308,1730,3147,-0.935546875,0.0732421875,-0.1197509765625
5.955,308,306,1874,3147,-0.9610595703125,0.0289306640625,-0.1529541015625
5.962,304,307,1973,3147,-0.9610595703125,0.0289306640625,-0.1529541015625
5.986,308,308,2213,3147,-0.7216796875,0.1170654296875,-0.2088623046875
5.986,291,310,2330,3147,-0.337890625,0.07177734375,-0.2095947265625
5.995,306,304,2486,3147,-0.337890625,0.07177734375,-0.2095947265625
6.006,306,306,2777,3147,0.168212890625,-0.11376953125,-0.291015625
6.014,306,306,2887,3147,0.057861328125,-0.0748291015625,-0.1685791015625
6.022,306,308,2992,3147,0.057861328125,-0.0748291015625,-0.1685791015625
6.035,306,308,3147,3147,-1.081787109375,0.5650634765625,0.2393798828125
6.044,306,308,3147,3147,-1.081787109375,0.5650634765625,0.2393798828125
6.060,306,306,3147,3147,-1.72412109375,0.98046875,0.270263671875
6.066,306,308,3147,3147,-2.369140625,0.5745849609375,0.2247314453125
6.076,308,306,3147,3147,-2.369140625,0.5745849609375,0.2247314453125
6.082,306,307,3147,3147,-2.3564453125,0.4779052734375,0.0211181640625
6.102,306,308,3147,3147,-1.485595703125,0.157958984375,-0.824462890625
6.103,306,306,3147,3147,-1.485595703125,0.157958984375,-0.824462890625
6.111,306,306,3147,3147,-1.2841796875,0.1488037109375,-0.582763671875
6.125,306,308,3147,3147,-1.9149169921875,0.27978515625,0.278076171875
6.134,307,308,3147,3147,-1.9149169921875,0.27978515625,0.278076171875
6.146,308,308,3147,3147,-1.6805419921875,0.264892578125,0.1875
6.160,307,306,3134,3147,-1.12841796875,0.17919921875,0.050048828125
6.164,306,306,2962,3147,-1.12841796875,0.17919921875,0.050048828125
6.172,305,308,2810,3147,-1.0074462890625,0.0828857421875,-0.0347900390625
6.193,306,306,2599,3147,-0.729248046875,0.281982421875,-0.3701171875
6.194,308,306,2484,3147,-0.729248046875,0.281982421875,-0.3701171875
6.208,306,306,2379,3147,-0.670654296875,0.327880859375,-0.5050048828125
6.216,306,308,2202,3147,-0.65869140625,0.329833984375,-0.345703125
6.224,306,306,2129,3147,-0.65869140625,0.329833984375,-0.345703125
6.232,306,308,2048,3147,-0.636474609375,0.2015380859375,-0.1614990234375
6.246,306,308,1874,3147,-0.6424560546875,0.0458984375,-0.0557861328125
6.266,306,307,1786,3147,-0.6904296875,-0.037353515625,-0.0308837890625
6.266,306,306,1669,3147,-0.71435546875,-0.054931640625,-0.04443359375
6.276,306,306,1579,3147,-0.685302734375,-0.036376953125,-0.0643310546875
6.295,307,306,1547,3147,-0.6654052734375,0.0396728515625,-0.076904296875
6.296,306,306,1503,3147,-0.6976318359375,0.1527099609375,-0.07568359375
6.306,308,309,1433,3134,-0.7642822265625,0.2384033203125,-0.0706787109375
6.319,306,308,1440,3144,-0.824951171875,0.2547607421875,-0.069091796875
6.322,307,308,1427,3147,-0.856689453125,0.2001953125,-0.0540771484375
6.336,306,308,1422,3147,-0.867431640625,0.1279296875,-0.029541015625
6.344,306,306,1413,3147,-0.8687744140625,0.09423828125,-0.03125
6.351,306,307,1437,3147,-0.867431640625,0.1175537109375,-0.0679931640625
6.372,306,308,1464,3147,-0.8765869140625,0.1790771484375,-0.1044921875
6.374,305,306,1480,3147,-0.8739013671875,0.2210693359375,-0.1385498046875
6.382,306,306,1523,3147,-0.8348388671875,0.215087890625,-0.165283203125
6.396,305,308,1595,3147,-0.8050537109375,0.19287109375,-0.165283203125
6.408,308,307,1656,3147,-0.8148193359375,0.177001953125,-0.154296875
6.413,305,306,1759,3147,-0.8223876953125,0.14306640625,-0.1297607421875
6.423,306,306,1874,3147,-0.7840576171875,0.1064453125,-0.0997314453125
6.434,306,306,2119,3147,-0.6756591796875,0.1339111328125,-0.0830078125
6.443,307,306,2280,3147,-0.496826171875,0.21435546875,-0.0704345703125
6.451,306,306,2432,3147,-0.27392578125,0.2236328125,-0.0882568359375
6.468,306,307,2790,3147,-0.01171875,0.0450439453125,-0.1597900390625
6.473,306,306,2909,3147,0.17919921875,-0.223876953125,-0.23046875
6.497,308,304,3006,3147,0.1058349609375,-0.3577880859375,-0.1973876953125
6.497,291,306,3147,3147,-0.286865234375,-0.2117919921875,0.03662109375
6.504,308,306,3147,3147,-0.9088134765625,0.192138671875,0.316650390625
6.511,304,308,3147,3147,-1.5189208984375,0.65673828125,0.39794921875
6.530,306,306,3147,3147,-1.963623046875,0.80517578125,0.372802734375
6.533,306,307,3147,3147,-2.236083984375,0.6468505859375,0.2537841796875
6.540,306,306,3147,3147,-2.3785400390625,0.5355224609375,-0.050537109375
6.554,308,308,3147,3147,-2.4112548828125,0.56298828125,-0.427001953125
6.570,306,306,3147,3147,-1.993896484375,0.49072265625,-0.905029296875
6.570,306,306,3147,3147,-1.509765625,0.4664306640625,-1.006103515625
6.600,306,306,3147,3147,-1.6767578125,0.65576171875,-0.4046630859375
6.600,304,305,3147,3147,-1.927001953125,0.6287841796875,0.1903076171875
6.607,306,307,3147,3147,-1.73974609375,0.3492431640625,0.3515625
6.614,306,308,3147,3147,-1.4588623046875,0.171142578125,0.2281494140625
6.623,306,306,3044,3147,-1.3067626953125,0.08349609375,0.0516357421875
6.637,308,306,2923,3147,-1.1771240234375,-0.077392578125,-0.096435546875
6.644,306,306,2703,3147,-0.9766845703125,-0.088623046875,-0.2354736328125
6.653,306,306,2591,3147,-0.7623291015625,0.140869140625,-0.3660888671875
6.661,305,306,2467,3147,-0.624267578125,0.35888671875,-0.4197998046875
6.675,306,308,2280,3147,-0.550048828125,0.4541015625,-0.3720703125
6.683,306,306,2178,3147,-0.5079345703125,0.470947265625,-0.2906494140625
6.691,306,306,2041,3147,-0.5123291015625,0.385986328125,-0.2081298828125
6.718,306,308,1744,3147,-0.57568359375,0.226318359375,-0.16796875
6.719,305,308,1604,3147,-0.6319580078125,0.089111328125,-0.189453125
6.721,306,306,1534,3099,-0.637451171875,0.0032958984375,-0.238037109375
6.734,306,308,1450,2820,-0.6549072265625,-0.0216064453125,-0.2423095703125
6.743,306,307,1422,2645,-0.715576171875,-0.0181884765625,-0.1673583984375
6.751,307,306,1369,2492,-0.7615966796875,0.0015869140625,-0.0467529296875
6.764,307,308,1323,2374,-0.7469482421875,0.0838623046875,0.0947265625
6.776,308,308,1330,2381,-0.7138671875,0.202880859375,0.2000732421875
6.781,308,308,1331,2477,-0.6917724609375,0.2608642578125,0.21142578125
6.794,307,306,1370,2736,-0.67041015625,0.201171875,0.12451171875
6.803,307,306,1404,2930,-0.6806640625,0.1168212890625,-0.019287109375
6.812,306,307,1430,3078,-0.7210693359375,0.0931396484375,-0.131591796875
6.825,308,308,1478,3147,-0.7547607421875,0.119384765625,-0.162353515625
6.833,306,306,1548,3147,-0.762451171875,0.16796875,-0.1309814453125
6.849,307,306,1641,3147,-0.762451171875,0.16796875,-0.1309814453125
6.855,305,306,1877,3147,-0.6976318359375,0.29833984375,-0.0841064453125
6.863,306,306,1996,3147,-0.6353759765625,0.307861328125,-0.0833740234375
6.877,306,305,2128,3147,-0.6353759765625,0.307861328125,-0.0833740234375
6.884,304,307,2394,3147,-0.330322265625,0.1036376953125,-0.1160888671875
6.899,306,306,2534,3147,-0.113037109375,0.006103515625,-0.1651611328125
6.914,290,305,2769,3147,-0.113037109375,0.006103515625,-0.1651611328125
6.915,307,306,2984,3147,-0.16357421875,-0.110107421875,-0.3270263671875
6.923,307,306,3089,3147,-0.49658203125,-0.1107177734375,-0.18212890625
6.934,306,306,3147,3147,-0.49658203125,-0.1107177734375,-0.18212890625
6.945,307,307,3147,3147,-1.3748779296875,0.5128173828125,0.368408203125
6.954,306,306,3147,3147,-1.87890625,0.7730712890625,0.45947265625
6.961,304,308,3147,3147,-1.87890625,0.7730712890625,0.45947265625
6.981,306,304,3147,3147,-2.331787109375,0.3763427734375,0.22509765625
6.983,306,307,3147,3147,-2.3616943359375,0.244873046875,-0.1658935546875
6.991,306,306,3147,3147,-2.3616943359375,0.244873046875,-0.1658935546875
7.009,307,306,3147,3147,-1.33447265625,0.1226806640625,-0.841552734375
7.013,307,308,3147,3147,-1.3218994140625,0.44775390625,-0.382568359375
7.021,306,306,3147,3147,-1.3218994140625,0.44775390625,-0.382568359375
7.034,306,308,3147,3147,-1.7659912109375,0.43505859375,0.06591796875
7.047,306,308,3147,3147,-1.6016845703125,0.191162109375,-0.0242919921875
7.051,306,307,3147,3147,-1.6016845703125,0.191162109375,-0.0242919921875
7.065,306,307,3146,3147,-1.2904052734375,0.099609375,-0.1383056640625
7.073,306,308,3017,3147,-1.2904052734375,0.099609375,-0.1383056640625
7.082,306,306,2902,3147,-1.1796875,0.072998046875,-0.1541748046875
7.094,307,307,2703,3147,-0.8609619140625,0.2828369140625,-0.2738037109375
7.103,314,306,2601,3147,-0.8609619140625,0.2828369140625,-0.2738037109375
7.127,307,306,2484,3147,-0.7410888671875,0.326904296875,-0.319091796875
7.128,308,287,2244,3147,-0.64306640625,0.30810546875,-0.171875
7.133,306,308,2143,3147,-0.64306640625,0.30810546875,-0.171875
7.141,306,306,1966,3147,-0.589599609375,0.309814453125,-0.1441650390625
7.166,306,308,1719,3147,-0.4906005859375,0.1502685546875,-0.2855224609375
7.171,306,306,1689,3115,-0.4906005859375,0.1502685546875,-0.2855224609375
7.171,308,308,1610,2901,-0.4656982421875,0.0220947265625,-0.3162841796875
7.185,307,306,1600,2668,-0.6318359375,0.010498046875,-0.123046875
7.193,307,308,1557,2567,-0.6318359375,0.010498046875,-0.123046875
7.204,308,308,1557,2456,-0.7274169921875,0.120361328125,0.0447998046875
7.222,308,308,1572,2601,-0.7598876953125,0.1904296875,0.2781982421875
7.223,291,292,1580,2736,-0.7598876953125,0.1904296875,0.2781982421875
7.231,306,308,1595,2887,-0.7313232421875,0.1309814453125,0.2457275390625
7.245,306,308,1627,3133,-0.7952880859375,0.1048583984375,-0.08935546875
7.253,306,308,1636,3147,-0.7952880859375,0.1048583984375,-0.08935546875
7.261,306,307,1650,3147,-0.822998046875,0.1314697265625,-0.198974609375
7.290,306,307,1705,3147,-0.831298828125,0.15625,-0.2109375
7.290,306,292,1681,3147,-0.83642578125,0.212890625,-0.1748046875
7.291,306,306,1761,3147,-0.84228515625,0.2664794921875,-0.13427734375
7.307,306,307,1941,3147,-0.84130859375,0.25927734375,-0.096923828125
7.326,306,306,1997,3147,-0.837646484375,0.2332763671875,-0.079345703125
7.326,306,307,2053,3147,-0.8377685546875,0.227294921875,-0.076904296875
7.335,305,307,2247,3147,-0.8358154296875,0.201416015625,-0.0633544921875
7.343,308,306,2320,3147,-0.8267822265625,0.14306640625,-0.0762939453125
7.351,306,306,2442,3147,-0.8021240234375,0.070068359375,-0.1439208984375
7.365,306,308,2683,3147,-0.72998046875,-0.00244140625,-0.2022705078125
7.393,306,306,2837,3147,-0.5289306640625,-0.0870361328125,-0.2635498046875
7.394,306,306,2925,3147,-0.212890625,-0.2093505859375,-0.4002685546875
7.394,308,305,3076,3147,0.063720703125,-0.276611328125,-0.433349609375
7.408,306,306,3147,3147,0.1260986328125,-0.087158203125,-0.196044921875
7.417,307,306,3147,3147,-0.1993408203125,0.3638916015625,0.078125
7.431,305,308,3147,3147,-0.8958740234375,0.9285888671875,0.138916015625
7.433,306,308,3147,3147,-1.71533203125,1.1136474609375,0.146484375
7.441,307,307,3147,3147,-2.3394775390625,0.67236328125,0.321044921875
7.454,304,306,3147,3147,-2.5052490234375,0.2855224609375,0.354248046875
7.463,306,308,3147,3147,-2.36328125,0.2642822265625,0.010009765625
7.471,306,305,3147,3147,-2.0732421875,0.3023681640625,-0.5645751953125
7.502,306,307,3147,3147,-1.5538330078125,0.248046875,-0.9986572265625
7.502,306,292,3147,3147,-1.3004150390625,0.2928466796875,-0.649169921875
7.502,306,307,3147,3147,-1.5447998046875,0.39697265625,0.0823974609375
7.520,306,308,3147,3147,-1.7510986328125,0.3037109375,0.330078125
7.523,306,308,3147,3147,-1.674072265625,0.179931640625,0.23046875
7.532,307,308,3147,3147,-1.4639892578125,0.203125,0.1488037109375
7.544,305,306,3147,3147,-1.301513671875,0.2520751953125,0.120361328125
7.553,306,308,3105,3147,-1.2091064453125,0.2744140625,0.0677490234375
7.561,304,305,2978,3147,-1.103515625,0.3741455078125,-0.0633544921875
7.574,306,308,2756,3147,-0.93408203125,0.4610595703125,-0.274169921875
7.583,308,306,2604,3147,-0.7681884765625,0.41552734375,-0.4476318359375
7.602,307,306,2486,3147,-0.678466796875,0.3189697265625,-0.52392578125
7.625,306,308,2167,3147,-0.63427734375,0.255126953125,-0.4981689453125
7.626,289,306,1929,3147,-0.5872802734375,0.1978759765625,-0.4024658203125
7.627,306,286,1715,3147,-0.5074462890625,0.09521484375,-0.3330078125
7.636,306,307,1598,2844,-0.41357421875,-0.061767578125,-0.281982421875
7.644,308,307,1543,2502,-0.42041015625,-0.16162109375,-0.2005615234375
7.652,308,308,1519,1943,-0.5423583984375,-0.1065673828125,-0.0504150390625
7.666,308,308,1492,1922,-0.648681640625,0.0655517578125,0.151123046875
7.674,307,308,1492,1948,-0.6947021484375,0.2471923828125,0.2933349609375
7.682,308,308,1476,2010,-0.7164306640625,0.30126953125,0.314453125
7.734,308,308,1504,2240,-0.719970703125,0.1800537109375,0.2137451171875
7.734,307,308,1494,2306,-0.7313232421875,0.0440673828125,0.0391845703125
7.734,308,308,1497,2486,-0.7850341796875,0.0411376953125,-0.1094970703125
7.734,308,308,1518,2701,-0.8529052734375,0.1075439453125,-0.178466796875
7.734,308,308,1527,2905,-0.8780517578125,0.1741943359375,-0.1785888671875
7.742,308,306,1529,3031,-0.8677978515625,0.2176513671875,-0.152099609375
7.755,306,308,1561,3147,-0.8736572265625,0.2257080078125,-0.1458740234375
7.764,306,304,1588,3147,-0.88623046875,0.23095703125,-0.1776123046875
7.772,306,308,1640,3147,-0.8809814453125,0.2362060546875,-0.228271484375
7.785,305,308,1715,3147,-0.863525390625,0.2161865234375,-0.238037109375
7.809,307,308,1796,3147,-0.828857421875,0.17529296875,-0.188232421875
7.809,306,289,1878,3147,-0.79736328125,0.15478515625,-0.1363525390625
7.819,308,308,2135,3147,-0.7916259765625,0.1767578125,-0.1092529296875
7.827,306,307,2268,3147,-0.7857666015625,0.209228515625,-0.119873046875
7.835,306,307,2379,3147,-0.7366943359375,0.17724609375,-0.155517578125
7.845,306,308,2613,3147,-0.623291015625,0.06103515625,-0.1732177734375
7.854,307,306,2787,3147,-0.4385986328125,-0.0579833984375,-0.174072265625
7.862,306,306,2936,3147,-0.19873046875,-0.1627197265625,-0.169677734375
7.875,306,308,3126,3147,-0.1002197265625,-0.225830078125,-0.0909423828125
7.884,306,306,3147,3147,-0.2979736328125,-0.2091064453125,0.0667724609375
7.892,307,306,3147,3147,-0.6448974609375,-0.118896484375,0.3125
7.914,306,307,3147,3147,-1.0413818359375,0.1009521484375,0.4613037109375
7.926,306,307,3147,3147,-1.4749755859375,0.4154052734375,0.25146484375
7.927,307,296,3147,3147,-1.8199462890625,0.49951171875,-0.1202392578125
7.938,306,307,3147,3147,-2.02880859375,0.4521484375,-0.3272705078125
7.948,306,308,3147,3147,-2.1448974609375,0.5733642578125,-0.3250732421875
7.952,306,307,3147,3147,-2.115966796875,0.716552734375,-0.2867431640625
7.967,306,306,3147,3147,-1.7447509765625,0.7027587890625,-0.4005126953125
7.975,306,306,3147,3147,-1.271484375,0.6893310546875,-0.3961181640625
7.982,307,308,3147,3147,-1.26806640625,0.7728271484375,-0.042236328125
7.996,306,307,3147,3147,-1.55908203125,0.654052734375,0.176513671875
8.004,306,308,3147,3147,-1.662109375,0.40966796875,0.0721435546875
8.040,306,308,3147,3147,-1.5697021484375,0.2994384765625,-0.11181640625
8.040,307,307,3147,3147,-1.4451904296875,0.2474365234375,-0.2083740234375
8.040,290,307,3147,3147,-1.320556640625,0.1597900390625,-0.173095703125
8.054,304,308,3147,3147,-1.1627197265625,0.1307373046875,-0.131103515625
8.071,306,307,3101,3147,-0.9920654296875,0.234375,-0.184326171875
8.072,306,306,3000,3147,-0.836669921875,0.3057861328125,-0.2520751953125
8.072,306,307,2870,3147,-0.836669921875,0.3057861328125,-0.2520751953125
8.086,304,308,2598,3147,-0.715087890625,0.2503662109375,-0.161865234375
8.093,306,306,2396,3147,-0.66259765625,0.201904296875,-0.072509765625
8.106,306,306,2228,3147,-0.66259765625,0.201904296875,-0.072509765625
8.116,304,308,1816,3147,-0.542724609375,0.1190185546875,-0.0760498046875
8.124,307,306,1643,3000,-0.5379638671875,-0.054443359375,-0.1539306640625
8.142,308,308,1582,2710,-0.5379638671875,-0.054443359375,-0.1539306640625
8.146,308,308,1499,2280,-0.6689453125,-0.126953125,-0.115234375
8.154,306,308,1468,2032,-0.7462158203125,0.062255859375,0.0078125
8.162,308,308,1468,1927,-0.7462158203125,0.062255859375,0.0078125
8.176,307,306,1447,1999,-0.69140625,0.0904541015625,0.129638671875
8.184,310,308,1445,2070,-0.6602783203125,0.049560546875,0.040771484375
8.192,308,309,1439,2175,-0.6602783203125,0.049560546875,0.040771484375
8.208,308,308,1456,2396,-0.763671875,0.217529296875,-0.098876953125
8.214,307,308,1472,2534,-0.8365478515625,0.2879638671875,-0.1031494140625
8.222,308,308,1476,2703,-0.8365478515625,0.2879638671875,-0.1031494140625
8.240,307,306,1504,2944,-0.8914794921875,0.2169189453125,-0.1195068359375
8.247,307,307,1521,3102,-0.8721923828125,0.1982421875,-0.116455078125
8.252,308,307,1533,3147,-0.8721923828125,0.1982421875,-0.116455078125
8.266,306,308,1580,3147,-0.8323974609375,0.2037353515625,-0.13330078125
8.274,306,306,1613,3147,-0.8182373046875,0.2099609375,-0.1568603515625
8.286,306,308,1652,3147,-0.8182373046875,0.2099609375,-0.1568603515625
8.297,305,308,1735,3147,-0.789794921875,0.144775390625,-0.19482421875
8.311,306,306,1882,3147,-0.789794921875,0.144775390625,-0.19482421875
8.312,306,306,1996,3147,-0.7530517578125,0.087158203125,-0.1805419921875
8.341,305,308,2280,3147,-0.443115234375,0.0640869140625,-0.143798828125
8.344,307,308,2435,3147,-0.443115234375,0.0640869140625,-0.143798828125
8.350,292,306,2590,3147,-0.192138671875,0.0650634765625,-0.1624755859375
8.360,309,306,2851,3147,-0.0316162109375,-0.2711181640625,-0.1717529296875
8.364,307,308,3000,3147,-0.0316162109375,-0.2711181640625,-0.1717529296875
8.373,306,306,3147,3147,-0.30029296875,-0.3682861328125,-0.0203857421875
8.386,305,307,3147,3147,-1.0870361328125,0.1265869140625,0.6141357421875
8.399,306,308,3147,3147,-1.0870361328125,0.1265869140625,0.6141357421875
8.402,304,306,3147,3147,-1.60302734375,0.6824951171875,0.5025634765625
8.416,307,308,3147,3147,-2.3145751953125,0.4962158203125,-0.09619140625
8.424,306,306,3147,3147,-2.3145751953125,0.4962158203125,-0.09619140625
8.434,306,306,3147,3147,-2.450927734375,0.5369873046875,-0.35693359375
8.457,306,308,3147,3147,-1.604248046875,0.8179931640625,-0.8922119140625
8.458,305,306,3147,3147,-1.604248046875,0.8179931640625,-0.8922119140625
8.463,306,304,3147,3147,-1.3197021484375,1.0401611328125,-0.6751708984375
8.471,306,306,3147,3147,-1.5810546875,1.0693359375,-0.2572021484375
8.485,306,307,3147,3147,-1.7471923828125,0.75146484375,-0.1297607421875
8.493,306,306,3147,3147,-1.701904296875,0.4864501953125,-0.18798828125
8.501,306,306,2997,3147,-1.5570068359375,0.2730712890625,-0.2027587890625
8.518,306,308,2748,3147,-1.3756103515625,0.076171875,-0.122802734375
8.523,305,305,2538,3147,-1.1243896484375,0.046875,-0.022705078125
8.542,306,308,2357,3147,-0.8143310546875,0.170654296875,-0.0537109375
8.554,304,308,2050,3147,-0.5863037109375,0.218994140625,-0.2159423828125
8.555,306,304,1854,3147,-0.5396728515625,0.16650390625,-0.3551025390625
8.561,306,306,1732,3147,-0.6053466796875,0.1309814453125,-0.3857421875
8.575,306,307,1572,3147,-0.6527099609375,0.139404296875,-0.309326171875
8.583,306,306,1514,3147,-0.64208984375,0.14697265625,-0.184326171875
8.591,306,306,1483,3147,-0.6015625,0.052978515625,-0.095703125
8.605,307,307,1434,3147,-0.569580078125,-0.1138916015625,-0.0743408203125
8.618,306,306,1395,3015,-0.5579833984375,-0.1607666015625,-0.04541015625
8.621,308,308,1413,2844,-0.5740966796875,-0.03955078125,0.0130615234375
8.637,306,308,1390,2801,-0.6124267578125,0.112548828125,0.094970703125
8.662,308,306,1382,2832,-0.6365966796875,0.1685791015625,0.181884765625
8.662,306,308,1396,2916,-0.65576171875,0.144775390625,0.187744140625
8.665,307,308,1398,3067,-0.7076416015625,0.17236328125,0.083740234375
8.673,306,306,1419,3147,-0.788330078125,0.274169921875,-0.0440673828125
8.681,307,306,1429,3147,-0.8587646484375,0.318115234375,-0.1253662109375
8.695,306,306,1467,3147,-0.8785400390625,0.2762451171875,-0.17529296875
8.703,306,306,1480,3147,-0.86767578125,0.2154541015625,-0.1971435546875
8.711,305,306,1504,3147,-0.8641357421875,0.167236328125,-0.1815185546875
8.725,306,308,1533,3147,-0.85693359375,0.1671142578125,-0.1632080078125
8.742,306,306,1569,3147,-0.83203125,0.1943359375,-0.15869140625
8.742,287,289,1583,3147,-0.7957763671875,0.1781005859375,-0.14404296875
8.805,306,307,1653,3147,-0.74267578125,0.1385498046875,-0.1259765625
8.807,310,289,1745,3147,-0.681640625,0.13525390625,-0.1275634765625
8.808,306,307,1894,3147,-0.6441650390625,0.1851806640625,-0.128662109375
8.808,289,308,2207,3147,-0.5980224609375,0.2642822265625,-0.145751953125
8.808,306,307,2344,3147,-0.4693603515625,0.2484130859375,-0.1859130859375
8.808,294,308,2510,3147,-0.3037109375,0.0408935546875,-0.18603515625
8.815,306,305,2724,3147,-0.1376953125,-0.2637939453125,-0.149169921875
8.823,306,306,2861,3147,-0.062255859375,-0.40087890625,-0.021484375
8.831,306,308,2981,3147,-0.3035888671875,-0.251220703125,0.3016357421875
8.850,306,308,3112,3147,-0.812255859375,0.0533447265625,0.607177734375
8.861,306,307,3147,3147,-1.35888671875,0.4119873046875,0.5997314453125
8.861,306,308,3147,3147,-1.8017578125,0.6573486328125,0.3369140625
8.875,306,308,3147,3147,-2.0791015625,0.678955078125,0.0406494140625
8.883,306,306,3147,3147,-2.23388671875,0.5911865234375,-0.212890625
8.891,306,307,3147,3147,-2.2816162109375,0.6158447265625,-0.4373779296875
8.905,306,308,3147,3147,-1.958251953125,0.687255859375,-0.7052001953125
8.913,307,306,3147,3147,-1.3436279296875,0.7364501953125,-0.821044921875
8.926,306,305,3147,3147,-1.2244873046875,0.8355712890625,-0.5054931640625
8.935,306,308,3147,3147,-1.6163330078125,0.6922607421875,-0.1395263671875
8.945,307,306,3134,3147,-1.8253173828125,0.380615234375,-0.05908203125
8.963,306,306,3039,3147,-1.6905517578125,0.234619140625,-0.0863037109375
8.966,306,306,2874,3147,-1.4083251953125,0.2276611328125,-0.041259765625
8.980,306,307,2746,3147,-1.17041015625,0.2227783203125,0.0653076171875
8.982,306,308,2647,3147,-1.031982421875,0.212646484375,0.1387939453125
8.996,306,307,2456,3147,-0.9461669921875,0.2265625,0.0980224609375
9.003,306,306,2312,3147,-0.8599853515625,0.2125244140625,-0.0260009765625
9.011,304,306,2188,3147,-0.7677001953125,0.2080078125,-0.1163330078125
9.028,306,306,1865,3147,-0.692138671875,0.2391357421875,-0.1544189453125
9.033,307,306,1715,3147,-0.6383056640625,0.240478515625,-0.1632080078125
9.041,306,305,1628,3147,-0.6268310546875,0.1793212890625,-0.17529296875
9.059,306,307,1483,3147,-0.665283203125,0.0950927734375,-0.188720703125
9.065,307,306,1387,3147,-0.7069091796875,-0.0179443359375,-0.18115234375
9.075,306,308,1343,3147,-0.7186279296875,-0.1766357421875,-0.194091796875
9.087,306,307,1278,3033,-0.7052001953125,-0.258544921875,-0.196044921875
9.094,306,307,1274,2887,-0.6942138671875,-0.117919921875,-0.14453125
9.101,306,306,1262,2756,-0.6942138671875,-0.117919921875,-0.14453125
9.116,307,308,1209,2677,-0.6876220703125,0.3419189453125,-0.010498046875
9.131,307,307,1198,2698,-0.6646728515625,0.3812255859375,0.00439453125
9.133,308,308,1155,2750,-0.6646728515625,0.3812255859375,0.00439453125
9.164,308,308,1185,2943,-0.705810546875,0.2572021484375,-0.0372314453125
9.167,306,308,1178,3047,-0.73828125,0.255615234375,-0.0625
9.167,308,308,1185,3137,-0.73828125,0.255615234375,-0.0625
9.175,306,307,1199,3147,-0.786376953125,0.2996826171875,-0.06787109375
9.187,305,306,1220,3147,-0.79052734375,0.296142578125,-0.0712890625
9.198,308,306,1233,3147,-0.79052734375,0.296142578125,-0.0712890625
9.205,306,308,1335,3147,-0.7896728515625,0.2200927734375,-0.0831298828125
9.213,305,306,1396,3147,-0.7938232421875,0.1658935546875,-0.133056640625
9.221,306,306,1472,3147,-0.7938232421875,0.1658935546875,-0.133056640625
9.235,306,308,1629,3147,-0.693603515625,0.0704345703125,-0.1619873046875
9.243,305,308,1796,3147,-0.58154296875,0.0838623046875,-0.116455078125
9.251,306,307,1996,3147,-0.58154296875,0.0838623046875,-0.116455078125
9.265,306,308,2247,3147,-0.3621826171875,0.164794921875,-0.102783203125
9.273,306,309,2398,3147,-0.2103271484375,0.0831298828125,-0.19970703125
9.281,306,306,2518,3147,-0.2103271484375,0.0831298828125,-0.19970703125
9.307,306,307,2797,3147,-0.23681640625,-0.0576171875,-0.2332763671875
9.307,306,308,2928,3147,-0.5128173828125,0.0555419921875,0.0067138671875
9.311,306,306,3039,3147,-0.5128173828125,0.0555419921875,0.0067138671875
9.324,306,306,3143,3147,-1.346923828125,0.643310546875,0.5819091796875
9.336,306,308,3147,3147,-1.346923828125,0.643310546875,0.5819091796875
9.341,306,307,3147,3147,-1.69677734375,0.7440185546875,0.5662841796875
9.355,306,308,3147,3147,-2.2032470703125,0.3138427734375,0.0145263671875
9.363,306,308,3147,3147,-2.2032470703125,0.3138427734375,0.0145263671875
9.373,306,306,3092,3147,-2.3206787109375,0.2916259765625,-0.3870849609375
9.385,306,306,3070,3147,-1.4305419921875,0.6260986328125,-0.9193115234375
9.393,306,306,3085,3147,-1.4305419921875,0.6260986328125,-0.9193115234375
9.405,306,306,3056,3147,-1.3248291015625,1.10546875,-0.5753173828125
9.416,306,307,2929,3147,-1.9036865234375,0.6068115234375,-0.0096435546875
9.423,308,306,2801,3147,-1.9036865234375,0.6068115234375,-0.0096435546875
9.438,306,306,2672,3147,-1.7459716796875,0.33642578125,-0.22216796875
9.445,306,308,2430,3147,-1.267578125,0.248779296875,-0.2059326171875
9.458,307,306,2314,3147,-1.267578125,0.248779296875,-0.2059326171875
9.463,307,308,2164,3147,-1.1180419921875,0.1861572265625,-0.0439453125
9.485,307,307,1861,3147,-0.8350830078125,0.1419677734375,-0.0621337890625
9.486,306,306,1666,3147,-0.8350830078125,0.1419677734375,-0.0621337890625
9.494,306,308,1560,3147,-0.6461181640625,0.0911865234375,-0.1632080078125
9.510,308,308,1463,3147,-0.3101806640625,0.103271484375,-0.2325439453125
9.516,307,308,1412,3147,-0.3101806640625,0.103271484375,-0.2325439453125
9.525,307,306,1386,3147,-0.280517578125,0.107177734375,-0.2137451171875
9.541,306,307,1369,3147,-0.46240234375,-0.0406494140625,-0.2186279296875
9.544,306,308,1377,3147,-0.46240234375,-0.0406494140625,-0.2186279296875
9.552,307,308,1362,3147,-0.527587890625,-0.06494140625,-0.141357421875
9.578,307,308,1349,3147,-0.677978515625,0.1688232421875,0.0743408203125
9.578,306,289,1386,3147,-0.677978515625,0.1688232421875,0.0743408203125
9.582,306,306,1401,3147,-0.716552734375,0.28564453125,0.096923828125
9.596,306,307,1452,3147,-0.767578125,0.2867431640625,0.0675048828125
9.604,307,307,1468,3147,-0.767578125,0.2867431640625,0.0675048828125
9.620,308,308,1469,3147,-0.78955078125,0.2147216796875,0.008056640625
9.626,307,306,1518,3147,-0.8538818359375,0.2855224609375,-0.0775146484375
9.648,306,307,1535,3147,-0.8538818359375,0.2855224609375,-0.0775146484375
9.652,306,306,1582,3147,-0.8857421875,0.32763671875,-0.1026611328125
9.656,306,306,1635,3147,-0.9395751953125,0.2271728515625,-0.1866455078125
9.680,306,307,1650,3147,-0.9395751953125,0.2271728515625,-0.1866455078125
9.680,306,306,1666,3147,-0.9637451171875,0.1519775390625,-0.213623046875
9.686,306,308,1852,3147,-0.9686279296875,0.1219482421875,-0.20068359375
9.694,306,306,1905,3147,-0.94970703125,0.1658935546875,-0.1962890625
9.702,306,306,2005,3147,-0.9200439453125,0.2110595703125,-0.2322998046875
9.723,306,306,2089,3147,-0.85400390625,0.205322265625,-0.3172607421875
9.724,306,306,2162,3147,-0.6728515625,0.1341552734375,-0.4169921875
9.732,308,306,2230,3147,-0.395751953125,0.0501708984375,-0.50634765625
9.751,306,308,2328,3147,-0.1473388671875,0.0692138671875,-0.5911865234375
9.754,308,305,2386,3147,-0.0419921875,0.22509765625,-0.5340576171875
9.784,306,307,2527,3147,-0.2056884765625,0.36865234375,-0.2237548828125
9.784,306,308,2735,3147,-0.6199951171875,0.251220703125,0.275634765625
9.785,307,307,2820,3147,-1.0389404296875,-0.1253662109375,0.7542724609375
9.792,306,306,2958,3147,-1.24365234375,-0.220947265625,0.9608154296875
9.806,306,308,3073,3147,-1.2864990234375,0.253662109375,0.839111328125
9.814,307,308,3120,3147,-1.4119873046875,0.6695556640625,0.5184326171875
9.822,306,306,3147,3147,-1.7437744140625,0.665283203125,0.1829833984375
9.836,306,308,3117,3147,-2.1116943359375,0.50634765625,-0.0941162109375
9.848,306,306,3056,3147,-2.1116943359375,0.3309326171875,-0.4072265625
9.852,306,306,3062,3147,-1.603759765625,0.2818603515625,-0.73388671875
9.866,306,313,3076,3147,-1.2479248046875,0.560791015625,-0.668212890625
9.877,294,307,3001,3147,-1.4625244140625,0.8150634765625,-0.22705078125
9.883,306,306,2943,3147,-1.7318115234375,0.692138671875,0.0086669921875
9.891,306,306,2840,3147,-1.6885986328125,0.4410400390625,-0.072509765625
9.905,307,306,2621,3147,-1.483154296875,0.287841796875,-0.1673583984375
9.913,306,306,2489,3147,-1.306640625,0.22705078125,-0.119140625
9.921,308,307,2389,3147,-1.17578125,0.1739501953125,0.0159912109375
9.936,306,307,2226,3147,-1.0477294921875,0.1441650390625,0.1260986328125
9.950,306,307,2119,3147,-0.9453125,0.1434326171875,0.1373291015625
9.951,306,308,1982,3147,-0.8968505859375,0.132568359375,0.0699462890625
9.967,306,307,1757,3147,-0.870361328125,0.1383056640625,-0.0260009765625
9.987,308,308,1600,3147,-0.8280029296875,0.1597900390625,-0.134521484375
9.987,306,286,1508,3147,-0.767822265625,0.1683349609375,-0.2227783203125
9.996,306,307,1362,3147,-0.6888427734375,0.146484375,-0.2850341796875
10.004,305,306,1358,3147,-0.624267578125,0.05078125,-0.2974853515625
10.012,306,307,1330,3126,-0.6268310546875,-0.0859375,-0.2525634765625
10.026,308,308,1264,2798,-0.6400146484375,-0.1116943359375,-0.2191162109375
10.034,307,306,1278,2748,-0.5927734375,-0.019287109375,-0.1754150390625
10.044,307,308,1264,2710,-0.5594482421875,0.126953125,-0.075927734375
10.056,307,308,1236,2630,-0.6094970703125,0.2882080078125,0.0118408203125
10.064,308,306,1225,2638,-0.671142578125,0.3529052734375,0.062255859375
10.072,308,308,1204,2662,-0.698974609375,0.28857421875,0.0904541015625
10.091,308,307,1207,2833,-0.720947265625,0.184326171875,0.060302734375
10.095,307,308,1231,2955,-0.7423095703125,0.15087890625,-0.0123291015625
10.102,307,308,1236,3086,-0.7459716796875,0.1954345703125,-0.0750732421875
10.116,306,308,1251,3147,-0.729736328125,0.243896484375,-0.1116943359375
10.124,306,306,1268,3147,-0.7257080078125,0.28173828125,-0.119140625
10.132,306,306,1294,3147,-0.768310546875,0.304443359375,-0.10546875
10.158,306,307,1365,3147,-0.810546875,0.2716064453125,-0.0931396484375
10.159,306,305,1441,3147,-0.7911376953125,0.1861572265625,-0.0872802734375
10.162,306,307,1555,3147,-0.7261962890625,0.1171875,-0.0631103515625
10.185,304,306,1891,3147,-0.602783203125,0.0948486328125,-0.0426025390625
10.185,306,306,2115,3147,-0.3863525390625,0.0709228515625,-0.044921875
10.192,307,306,2328,3147,-0.086669921875,0.0047607421875,-0.035400390625
10.206,306,306,2683,3147,0.2000732421875,-0.12890625,-0.091552734375
10.238,306,305,2810,3147,0.2291259765625,-0.2906494140625,-0.2578125
10.250,306,308,2939,3147,-0.1361083984375,-0.3199462890625,-0.265380859375
10.270,307,307,3147,3147,-0.7177734375,0.017822265625,-0.0133056640625
10.271,306,307,3147,3147,-1.32275390625,0.6416015625,0.191650390625
10.271,307,306,3147,3147,-1.897216796875,1.0013427734375,0.1868896484375
10.271,304,304,3147,3147,-2.3072509765625,0.8980712890625,0.1180419921875
10.274,306,306,3147,3147,-2.49072265625,0.62939453125,0.051513671875
10.289,307,308,3147,3147,-2.5205078125,0.42724609375,-0.084716796875
10.296,306,308,3147,3147,-2.1361083984375,0.3265380859375,-0.44775390625
10.304,307,308,3147,3147,-1.480224609375,0.503173828125,-0.7857666015625
10.314,306,306,3147,3147,-1.4173583984375,0.838623046875,-0.55126953125
10.326,304,307,3090,3147,-1.8067626953125,0.7303466796875,-0.1153564453125
10.334,306,306,3017,3147,-1.8970947265625,0.404541015625,0.0147705078125
10.342,307,308,2938,3147,-1.8970947265625,0.404541015625,0.0147705078125
10.366,306,308,2736,3147,-1.387939453125,0.3265380859375,-0.1373291015625
10.366,306,306,2601,3147,-1.107666015625,0.203369140625,-0.0936279296875
10.392,306,306,2478,3147,-1.107666015625,0.203369140625,-0.0936279296875
10.392,292,308,2195,3147,-0.6605224609375,0.107177734375,0.0057373046875
10.396,307,307,2030,3147,-0.5928955078125,0.2772216796875,-0.105224609375
10.402,306,307,1862,3147,-0.5928955078125,0.2772216796875,-0.105224609375
10.417,306,306,1700,3147,-0.6732177734375,0.2431640625,-0.2911376953125
10.426,306,308,1635,3147,-0.7120361328125,0.1884765625,-0.276123046875
10.432,306,307,1575,3147,-0.7120361328125,0.1884765625,-0.276123046875
10.446,306,308,1496,3147,-0.6566162109375,0.1158447265625,-0.1474609375
10.461,308,305,1464,3147,-0.5877685546875,0.041748046875,-0.1339111328125
10.468,307,307,1409,3147,-0.5877685546875,0.041748046875,-0.1339111328125
10.479,307,308,1380,3147,-0.538818359375,0.068603515625,-0.1734619140625
10.501,306,306,1375,3147,-0.6058349609375,0.1468505859375,-0.114990234375
10.501,306,307,1331,3147,-0.6058349609375,0.1468505859375,-0.114990234375
10.506,306,307,1359,3147,-0.80126953125,0.2666015625,-0.0013427734375
10.514,306,306,1323,3147,-0.82958984375,0.2608642578125,0.0758056640625
10.522,306,307,1308,3147,-0.82958984375,0.2608642578125,0.0758056640625
10.539,306,308,1318,3147,-0.8150634765625,0.178955078125,0.0286865234375
10.544,308,306,1348,3147,-0.837158203125,0.18603515625,-0.072509765625
10.552,307,308,1355,3147,-0.837158203125,0.18603515625,-0.072509765625
10.566,306,306,1397,3147,-0.857177734375,0.2264404296875,-0.1680908203125
10.575,306,306,1427,3147,-0.857177734375,0.2264404296875,-0.1680908203125
10.603,307,308,1452,3147,-0.8544921875,0.2000732421875,-0.1639404296875
10.604,306,306,1514,3147,-0.80859375,0.17724609375,-0.1531982421875
10.605,306,294,1548,3147,-0.80859375,0.17724609375,-0.1531982421875
10.612,308,306,1635,3147,-0.751953125,0.1790771484375,-0.1300048828125
10.626,304,308,1824,3147,-0.450927734375,0.096435546875,-0.0980224609375
10.634,307,306,2113,3147,-0.450927734375,0.096435546875,-0.0980224609375
10.642,306,307,2320,3147,-0.2484130859375,0.097900390625,-0.084228515625
10.656,306,308,2593,3147,0.0247802734375,0.1875,-0.2091064453125
10.666,306,307,2736,3147,0.0247802734375,0.1875,-0.2091064453125
10.672,306,306,2901,3147,-0.0423583984375,0.01416015625,-0.337646484375
10.692,306,308,3057,3147,-0.775634765625,-0.14990234375,-0.0533447265625
10.694,304,306,3147,3147,-0.775634765625,-0.14990234375,-0.0533447265625
10.707,307,306,3147,3147,-1.299072265625,0.3095703125,0.186767578125
10.716,306,306,3147,3147,-2.11669921875,0.6680908203125,0.3270263671875
10.724,306,308,3147,3147,-2.11669921875,0.6680908203125,0.3270263671875
10.732,306,306,3147,3147,-2.2872314453125,0.4927978515625,0.3001708984375
10.746,306,308,3147,3147,-2.030517578125,0.711669921875,-0.254638671875
10.754,306,304,3147,3147,-2.030517578125,0.711669921875,-0.254638671875
10.772,306,308,3147,3147,-1.4561767578125,0.7410888671875,-0.59814453125
10.776,306,308,3147,3147,-1.7120361328125,0.6500244140625,0.0986328125
10.788,306,307,3147,3147,-1.7120361328125,0.6500244140625,0.0986328125
10.808,306,306,3147,3147,-1.835205078125,0.359375,0.2081298828125
10.808,307,307,3014,3147,-1.677490234375,0.320556640625,0.0572509765625
10.814,307,308,2899,3147,-1.4598388671875,0.3748779296875,-0.103759765625
10.822,307,308,2770,3147,-1.2470703125,0.2813720703125,-0.1590576171875
10.836,305,306,2543,3147,-0.9896240234375,0.117919921875,-0.1475830078125
10.844,306,306,2398,3147,-0.704345703125,0.08349609375,-0.1529541015625
10.852,306,307,2271,3147,-0.526611328125,0.1265869140625,-0.1826171875
10.878,306,308,2050,3147,-0.5091552734375,0.1571044921875,-0.1751708984375
10.878,307,306,1912,3147,-0.5731201171875,0.22265625,-0.134765625
10.882,306,307,1838,3147,-0.6380615234375,0.2462158203125,-0.0936279296875
10.901,306,307,1757,3147,-0.690673828125,0.2061767578125,-0.06787109375
10.909,307,306,1681,3147,-0.73486328125,0.145751953125,-0.06298828125
10.912,306,308,1650,3147,-0.77294921875,0.0897216796875,-0.07275390625
10.926,308,307,1550,3147,-0.791015625,0.0687255859375,-0.091796875
10.934,306,306,1504,3147,-0.7730712890625,0.0791015625,-0.14501953125
10.942,306,306,1483,3147,-0.73486328125,0.1199951171875,-0.21875
10.956,306,308,1450,3147,-0.7138671875,0.17138671875,-0.2403564453125
10.964,306,306,1428,3147,-0.7279052734375,0.216064453125,-0.217041015625
10.973,306,306,1419,3147,-0.74853515625,0.2633056640625,-0.187255859375
11.020,304,308,1412,3147,-0.75732421875,0.2991943359375,-0.131103515625
11.020,306,306,1380,3147,-0.7742919921875,0.32275390625,-0.05517578125
11.021,306,307,1440,3147,-0.796630859375,0.2938232421875,0.0035400390625
11.021,306,307,1468,3147,-0.8087158203125,0.2061767578125,0.015380859375
11.025,307,307,1504,3147,-0.8145751953125,0.148193359375,-0.015380859375
11.033,306,306,1541,3147,-0.817626953125,0.1474609375,-0.056396484375
11.041,306,306,1580,3147,-0.814453125,0.1639404296875,-0.0863037109375
11.055,306,308,1700,3147,-0.7884521484375,0.17431640625,-0.084228515625
11.066,306,306,1746,3147,-0.7313232421875,0.1810302734375,-0.0682373046875
11.076,306,306,1798,3147,-0.6593017578125,0.1912841796875,-0.0692138671875
11.085,306,306,2062,3147,-0.5712890625,0.1982421875,-0.0810546875
11.111,306,305,2242,3147,-0.476806640625,0.2130126953125,-0.092529296875
11.111,306,306,2374,3147,-0.3953857421875,0.23779296875,-0.12255859375
11.115,306,308,2591,3147,-0.273193359375,0.1807861328125,-0.1895751953125
11.126,304,306,2756,3147,-0.1434326171875,-0.03662109375,-0.24072265625
11.131,306,304,2879,3147,-0.1573486328125,-0.277587890625,-0.237548828125
11.145,306,308,3048,3147,-0.36083984375,-0.36669921875,-0.08349609375
11.153,306,308,3130,3147,-0.767333984375,-0.099365234375,0.2015380859375
11.161,306,308,3147,3147,-1.264892578125,0.570556640625,0.3758544921875
11.180,306,307,3147,3147,-1.7003173828125,1.0103759765625,0.4739990234375
11.183,306,308,3147,3147,-2.0089111328125,0.879638671875,0.531494140625
11.191,306,306,3147,3147,-2.125244140625,0.5833740234375,0.3818359375
11.223,306,306,3147,3147,-2.12451171875,0.450439453125,0.002197265625
11.224,306,306,3147,3147,-1.92724609375,0.5181884765625,-0.5880126953125
11.224,306,307,3147,3147,-1.549072265625,0.680419921875,-1.0020751953125
11.235,307,306,3147,3147,-1.5133056640625,0.805908203125,-0.7354736328125
11.243,306,307,3147,3147,-1.7442626953125,0.7158203125,-0.2105712890625
11.251,306,306,3147,3147,-1.7469482421875,0.4898681640625,0.0128173828125
11.265,305,306,3147,3147,-1.5728759765625,0.3292236328125,-0.013671875
11.273,306,306,3129,3147,-1.4033203125,0.267578125,-0.106201171875
11.281,306,306,3015,3147,-1.2911376953125,0.2554931640625,-0.117431640625
11.297,306,307,2807,3147,-1.188232421875,0.205078125,-0.049072265625
11.328,306,306,2621,3147,-1.0460205078125,0.1943359375,-0.004150390625
11.329,305,291,2407,3147,-0.897216796875,0.264892578125,-0.051025390625
11.330,305,308,2133,3147,-0.7767333984375,0.28515625,-0.1370849609375
11.333,306,308,1922,3147,-0.67041015625,0.254150390625,-0.19970703125
11.341,306,305,1739,3147,-0.5654296875,0.248046875,-0.2252197265625
11.355,306,308,1561,3147,-0.4796142578125,0.2459716796875,-0.243896484375
11.363,306,306,1480,3147,-0.4388427734375,0.2166748046875,-0.2958984375
11.371,306,306,1469,3147,-0.4388427734375,0.2166748046875,-0.2958984375
11.385,306,308,1390,3105,-0.490966796875,0.06591796875,-0.333984375
11.393,307,306,1326,2919,-0.58203125,0.06640625,-0.2269287109375
11.401,307,306,1280,2727,-0.58203125,0.06640625,-0.2269287109375
11.427,306,308,1243,2662,-0.7298583984375,0.1488037109375,0.126953125
11.429,307,306,1237,2636,-0.7567138671875,0.1884765625,0.223388671875
11.431,308,307,1236,2647,-0.7567138671875,0.1884765625,0.223388671875
11.445,308,306,1258,2843,-0.73291015625,0.136474609375,0.1646728515625
11.453,306,308,1276,2973,-0.74462890625,0.1063232421875,0.0302734375
11.461,307,308,1321,3047,-0.74462890625,0.1063232421875,0.0302734375
11.475,306,308,1340,3147,-0.83154296875,0.1954345703125,-0.1275634765625
11.485,307,304,1362,3147,-0.8204345703125,0.2554931640625,-0.1298828125
11.491,306,307,1409,3147,-0.8204345703125,0.2554931640625,-0.1298828125
11.505,308,308,1521,3147,-0.7733154296875,0.2781982421875,-0.12939453125
11.536,306,307,1579,3147,-0.756103515625,0.24365234375,-0.1591796875
11.536,281,291,1650,3147,-0.756103515625,0.24365234375,-0.1591796875
11.536,306,308,1908,3147,-0.6641845703125,0.115478515625,-0.1612548828125
11.543,306,306,2178,3147,-0.5130615234375,0.0614013671875,-0.1099853515625
11.553,305,306,2364,3147,-0.5130615234375,0.0614013671875,-0.1099853515625
11.565,306,308,2658,3147,0.00634765625,-0.1175537109375,-0.1427001953125
11.573,306,307,2837,3147,0.16650390625,-0.2039794921875,-0.2467041015625
11.588,306,307,2960,3147,0.16650390625,-0.2039794921875,-0.2467041015625
11.595,306,308,3039,3147,-0.5018310546875,-0.067626953125,-0.097900390625
11.620,306,307,3056,3147,-0.5018310546875,-0.067626953125,-0.097900390625
11.620,306,306,3011,3147,-1.266845703125,0.3314208984375,0.123046875
11.625,306,308,3053,3147,-2.074462890625,0.7479248046875,0.4000244140625
11.640,306,308,3099,3147,-2.074462890625,0.7479248046875,0.4000244140625
11.641,305,306,3121,3147,-2.1700439453125,0.6597900390625,0.4676513671875
11.655,306,306,3147,3147,-2.0272216796875,0.8707275390625,-0.3741455078125
11.666,305,308,3147,3147,-2.0272216796875,0.8707275390625,-0.3741455078125
11.671,307,305,3147,3147,-1.867431640625,0.9212646484375,-0.79833984375
11.692,306,307,3147,3147,-1.782958984375,0.67919921875,-0.5709228515625
11.693,307,308,3147,3147,-1.782958984375,0.67919921875,-0.5709228515625
11.701,306,306,3147,3147,-1.7003173828125,0.46435546875,-0.22802734375
11.730,306,307,3147,3147,-1.2481689453125,0.2298583984375,0.132080078125
11.730,306,297,3129,3147,-1.2481689453125,0.2298583984375,0.132080078125
11.733,306,307,3025,3147,-1.1182861328125,0.1417236328125,0.137939453125
11.747,308,308,2872,3147,-0.900634765625,0.1324462890625,-0.0556640625
11.754,306,306,2760,3147,-0.900634765625,0.1324462890625,-0.0556640625
11.762,306,306,2608,3147,-0.8192138671875,0.150390625,-0.206787109375
11.778,308,308,2379,3147,-0.6962890625,0.26123046875,-0.2369384765625
11.784,306,306,2249,3147,-0.6962890625,0.26123046875,-0.2369384765625
11.793,306,308,2127,3147,-0.5968017578125,0.259033203125,-0.2425537109375
11.831,306,307,1874,3147,-0.505615234375,0.155029296875,-0.311767578125
11.831,286,308,1834,3119,-0.505615234375,0.155029296875,-0.311767578125
11.831,306,308,1732,2957,-0.5146484375,0.087158203125,-0.2928466796875
11.836,306,308,1704,2689,-0.647216796875,-0.02294921875,-0.1168212890625
11.845,308,306,1681,2504,-0.647216796875,-0.02294921875,-0.1168212890625
11.856,308,306,1652,2325,-0.7491455078125,0.065673828125,0.012939453125
11.866,308,306,1622,2203,-0.8603515625,0.2384033203125,0.1890869140625
11.874,307,308,1608,2202,-0.8603515625,0.2384033203125,0.1890869140625
11.882,308,307,1588,2172,-0.8690185546875,0.2232666015625,0.166259765625
11.899,308,308,1536,2172,-0.862548828125,0.107177734375,-0.0625
11.904,308,306,1508,2253,-0.862548828125,0.107177734375,-0.0625
11.916,306,307,1506,2314,-0.865234375,0.1099853515625,-0.142333984375
11.926,308,306,1463,2410,-0.8612060546875,0.174072265625,-0.190673828125
11.935,306,308,1470,2538,-0.8275146484375,0.2252197265625,-0.221435546875
11.943,308,307,1519,2691,-0.79296875,0.2181396484375,-0.2183837890625
11.951,308,306,1564,2823,-0.793212890625,0.2142333984375,-0.21533203125
11.965,307,308,1643,3064,-0.8162841796875,0.246826171875,-0.2264404296875
11.973,306,307,1681,3147,-0.8348388671875,0.2432861328125,-0.213623046875
11.981,307,305,1730,3147,-0.842041015625,0.17626953125,-0.1856689453125
12.004,307,306,1808,3147,-0.82666015625,0.0933837890625,-0.1627197265625
12.004,308,306,1955,3147,-0.7655029296875,0.0455322265625,-0.1207275390625
12.018,307,307,2104,3147,-0.65966796875,0.0732421875,-0.0859375
12.037,306,306,2362,3147,-0.5069580078125,0.1396484375,-0.096923828125
12.038,293,289,2490,3147,-0.3056640625,0.1820068359375,-0.146728515625
12.041,306,306,2673,3147,-0.104736328125,0.2093505859375,-0.212158203125
12.055,306,308,2944,3147,0.02197265625,0.231201171875,-0.2476806640625
12.068,306,306,3065,3147,-0.0162353515625,0.1448974609375,-0.162109375
12.071,306,308,3147,3147,-0.332275390625,-0.0518798828125,0.1541748046875
12.085,307,308,3147,3147,-0.7884521484375,-0.1181640625,0.559326171875
12.100,306,307,3147,3147,-1.140380859375,0.0753173828125,0.69677734375
12.101,308,306,3147,3147,-1.4798583984375,0.4378662109375,0.4539794921875
12.116,305,308,3147,3147,-1.94873046875,0.656494140625,0.107421875
12.136,307,306,3147,3147,-2.416259765625,0.53662109375,-0.135009765625
12.137,307,307,3147,3147,-2.6651611328125,0.319580078125,-0.3314208984375
12.145,306,308,3147,3147,-2.386962890625,0.144287109375,-0.6524658203125
12.153,306,305,3147,3147,-1.5645751953125,0.188232421875,-0.883056640625
12.161,306,306,3147,3147,-1.1983642578125,0.774658203125,-0.585693359375
12.175,306,304,3147,3147,-1.56884765625,1.054443359375,-0.1861572265625
12.183,306,306,3147,3147,-1.8087158203125,0.6365966796875,-0.1207275390625
12.191,306,306,3147,3147,-1.713134765625,0.3165283203125,-0.189453125
12.205,306,308,3147,3147,-1.515380859375,0.2489013671875,-0.1845703125
12.213,306,308,3092,3147,-1.3287353515625,0.2548828125,-0.05908203125
12.221,306,307,2970,3147,-1.1514892578125,0.2335205078125,0.0648193359375
12.240,306,306,2703,3147,-0.986083984375,0.263916015625,0.063232421875
12.243,306,306,2543,3147,-0.8770751953125,0.2696533203125,-0.056884765625
12.251,305,306,2382,3147,-0.783447265625,0.1402587890625,-0.14111328125
12.267,307,308,2080,3147,-0.6923828125,0.0411376953125,-0.14599609375
12.279,306,306,1870,3147,-0.635009765625,0.0498046875,-0.125732421875
12.281,306,306,1627,3147,-0.58740234375,0.1051025390625,-0.09814453125
12.295,306,308,1483,2530,-0.533935546875,0.0574951171875,-0.0928955078125
12.310,308,306,1453,2340,-0.5123291015625,-0.1104736328125,-0.1556396484375
12.311,308,306,1399,2178,-0.526123046875,-0.1917724609375,-0.2559814453125
12.325,308,307,1357,2053,-0.5537109375,-0.060791015625,-0.3011474609375
12.333,308,306,862,454,-0.6080322265625,0.1812744140625,-0.24853515625
12.347,308,306,1313,1934,-0.6787109375,0.3162841796875,-0.1136474609375
12.355,308,307,1316,1951,-0.7301025390625,0.27978515625,0.01025390625
12.364,308,308,1320,2001,-0.7369384765625,0.177001953125,0.051513671875
12.371,308,308,1323,2065,-0.729248046875,0.1456298828125,0.0194091796875
12.387,309,309,1336,2247,-0.7481689453125,0.20849609375,-0.039794921875
12.393,308,308,1352,2379,-0.7845458984375,0.28271484375,-0.0928955078125
12.410,308,308,1357,2502,-0.8046875,0.30078125,-0.1343994140625
12.417,308,308,1393,2736,-0.79638671875,0.257080078125,-0.1619873046875
12.437,307,306,1419,2912,-0.7620849609375,0.177490234375,-0.1717529296875
12.437,308,307,1469,3115,-0.71728515625,0.0965576171875,-0.149169921875
12.449,306,306,1533,3147,-0.716552734375,0.111328125,-0.114013671875
12.456,306,308,1564,3147,-0.7430419921875,0.2274169921875,-0.1201171875
12.462,306,306,1694,3147,-0.6949462890625,0.2872314453125,-0.132080078125
12.476,306,308,2041,3147,-0.5338134765625,0.20947265625,-0.11279296875
12.484,306,306,2249,3147,-0.2760009765625,0.0311279296875,-0.1390380859375
12.492,306,308,2464,3147,0.013671875,-0.1080322265625,-0.19873046875
12.509,304,307,2837,3147,0.175048828125,-0.0421142578125,-0.2025146484375
12.514,306,308,2959,3147,0.0540771484375,0.0694580078125,-0.1829833984375
12.522,306,306,3076,3147,-0.355224609375,-0.0230712890625,-0.0718994140625
12.536,307,308,3147,3147,-0.8980712890625,-0.12890625,0.198974609375
12.546,307,306,3147,3147,-1.4117431640625,0.056396484375,0.42236328125
12.552,305,307,3147,3147,-1.8192138671875,0.445068359375,0.4775390625
12.567,305,307,3147,3147,-2.0645751953125,0.6910400390625,0.4071044921875
12.574,306,306,3147,3147,-2.2366943359375,0.770751953125,0.1998291015625
12.582,307,307,3147,3147,-2.5308837890625,0.841552734375,-0.087646484375
12.623,305,307,3147,3147,-2.3697509765625,0.660888671875,-0.6639404296875
12.624,307,307,3147,3147,-1.590087890625,0.5836181640625,-1.1593017578125
12.624,305,304,3147,3147,-1.590087890625,0.5836181640625,-1.1593017578125
12.626,307,308,3147,3147,-1.6171875,0.641357421875,0.0975341796875
12.650,308,306,3147,3147,-1.8095703125,0.3165283203125,0.3629150390625
12.650,306,305,3147,3147,-1.8095703125,0.3165283203125,0.3629150390625
12.656,308,308,3147,3147,-1.4561767578125,0.2750244140625,-0.0870361328125
12.664,306,306,3147,3147,-1.2161865234375,0.234130859375,-0.1944580078125
12.672,306,307,3061,3147,-1.2161865234375,0.234130859375,-0.1944580078125
12.686,306,308,2875,3147,-0.79833984375,0.20703125,-0.166015625
12.694,306,306,2741,3147,-0.649658203125,0.2535400390625,-0.222900390625
12.705,307,308,2638,3147,-0.649658203125,0.2535400390625,-0.222900390625
12.716,306,306,2478,3147,-0.5904541015625,0.215087890625,-0.222900390625
12.724,306,306,2372,3147,-0.639892578125,0.2364501953125,-0.1416015625
12.732,305,306,2292,3147,-0.639892578125,0.2364501953125,-0.1416015625
12.746,306,306,2062,3147,-0.711181640625,0.17578125,-0.0506591796875
12.754,306,306,1943,3147,-0.7119140625,0.1031494140625,-0.0543212890625
12.762,306,308,1750,3147,-0.7119140625,0.1031494140625,-0.0543212890625
12.776,306,308,1585,3147,-0.703857421875,-0.080078125,-0.0850830078125
12.784,306,306,1557,3104,-0.748779296875,-0.0782470703125,-0.1072998046875
12.792,306,306,1506,2962,-0.748779296875,-0.0782470703125,-0.1072998046875
12.820,306,308,1471,2626,-0.8927001953125,0.20263671875,-0.1444091796875
12.821,307,307,1434,2502,-0.8941650390625,0.2620849609375,-0.119384765625
12.822,304,306,1411,2386,-0.8941650390625,0.2620849609375,-0.119384765625
12.836,305,306,1370,2296,-0.79833984375,0.2369384765625,-0.0755615234375
12.844,306,304,1343,2340,-0.79833984375,0.2369384765625,-0.0755615234375
12.856,308,306,1336,2384,-0.7347412109375,0.2430419921875,-0.0914306640625
12.882,308,308,1343,2481,-0.722412109375,0.2509765625,-0.15576171875
12.891,308,306,1365,2622,-0.722412109375,0.2509765625,-0.15576171875
12.895,308,306,1397,2759,-0.7489013671875,0.257080078125,-0.174072265625
12.898,308,308,1445,3025,-0.7410888671875,0.202392578125,-0.11962890625
12.920,306,306,1483,3147,-0.7410888671875,0.202392578125,-0.11962890625
12.927,306,308,1555,3147,-0.7213134765625,0.17919921875,-0.0792236328125
12.927,308,306,1678,3147,-0.7235107421875,0.192138671875,-0.0865478515625
12.942,306,308,1850,3147,-0.7235107421875,0.192138671875,-0.0865478515625
12.956,286,308,2048,3147,-0.6539306640625,0.1793212890625,-0.099609375
12.957,305,306,2370,3147,-0.31494140625,0.096435546875,-0.0491943359375
12.964,308,306,2538,3147,-0.31494140625,0.096435546875,-0.0491943359375
12.972,306,306,2713,3147,-0.127197265625,0.10791015625,-0.0523681640625
12.986,306,306,2959,3147,-0.031005859375,0.186279296875,0.0361328125
12.994,306,306,3035,3147,-0.031005859375,0.186279296875,0.0361328125
13.002,306,307,3147,3147,-0.4156494140625,0.1024169921875,0.1275634765625
13.031,306,308,3147,3147,-1.2191162109375,-0.0260009765625,0.225830078125
13.031,306,307,3147,3147,-1.2191162109375,-0.0260009765625,0.225830078125
13.032,306,306,3147,3147,-1.64111328125,0.25830078125,0.1778564453125
13.055,306,308,3147,3147,-2.020751953125,0.396240234375,0.2081298828125
13.058,306,307,3147,3147,-2.2110595703125,0.373779296875,0.2158203125
13.063,306,307,3147,3147,-2.254150390625,0.4993896484375,-0.019287109375
13.076,307,307,3147,3147,-2.11181640625,0.6644287109375,-0.4473876953125
13.084,306,306,3147,3147,-1.57421875,0.7254638671875,-0.9031982421875
13.092,306,307,3147,3147,-1.04736328125,0.8487548828125,-1.03857421875
13.106,306,307,3147,3147,-1.1270751953125,0.9339599609375,-0.6431884765625
13.114,306,304,3147,3147,-1.5919189453125,0.6898193359375,-0.1966552734375
13.145,306,307,3147,3147,-1.873779296875,0.3851318359375,-0.1529541015625
13.145,306,306,3147,3147,-1.7750244140625,0.263671875,-0.280029296875
13.145,304,307,3147,3147,-1.4735107421875,0.24951171875,-0.26611328125
13.165,306,308,3080,3147,-1.1917724609375,0.240966796875,-0.140869140625
13.166,291,308,2859,3147,-1.01806640625,0.18359375,-0.0047607421875
13.175,306,307,2691,3147,-0.904296875,0.1876220703125,0.0655517578125
13.182,306,306,2519,3147,-0.8121337890625,0.275146484375,0.0084228515625
13.196,308,307,2275,3147,-0.7470703125,0.3009033203125,-0.1187744140625
13.204,306,306,2122,3147,-0.705810546875,0.2762451171875,-0.2017822265625
13.212,308,307,1966,3147,-0.6971435546875,0.2467041015625,-0.2288818359375
13.227,307,307,1735,3147,-0.7100830078125,0.195556640625,-0.2230224609375
13.259,306,306,1686,3147,-0.7149658203125,0.1302490234375,-0.219482421875
13.259,306,306,1598,3147,-0.6846923828125,0.0625,-0.226806640625
13.260,306,292,1501,3010,-0.6279296875,-0.0185546875,-0.20751953125
13.264,307,307,1529,2925,-0.554931640625,-0.093994140625,-0.164306640625
13.272,307,308,1494,2874,-0.50439453125,-0.0592041015625,-0.1168212890625
13.286,307,308,1497,2851,-0.5528564453125,0.17578125,-0.085205078125
13.294,306,308,1492,2854,-0.658447265625,0.4188232421875,-0.083251953125
13.302,307,308,1504,2886,-0.727783203125,0.4403076171875,-0.0557861328125
13.316,308,308,1519,2984,-0.7481689453125,0.275390625,-0.0042724609375
13.330,306,308,1543,3070,-0.76611328125,0.11083984375,0.00146484375
13.332,305,306,1555,3147,-0.7996826171875,0.0955810546875,-0.0379638671875
13.361,306,308,1580,3147,-0.825927734375,0.201904296875,-0.090087890625
13.365,306,306,1610,3147,-0.830810546875,0.3060302734375,-0.1141357421875
13.366,304,306,1652,3147,-0.8133544921875,0.3243408203125,-0.1065673828125
13.376,306,308,1742,3147,-0.7841796875,0.271240234375,-0.097412109375
13.384,306,307,1819,3147,-0.7569580078125,0.2039794921875,-0.0899658203125
13.392,306,305,2008,3147,-0.732177734375,0.164794921875,-0.0740966796875
13.406,307,306,2188,3147,-0.700927734375,0.1826171875,-0.0816650390625
13.414,308,306,2330,3147,-0.635986328125,0.2388916015625,-0.118896484375
13.422,306,308,2468,3147,-0.49658203125,0.2296142578125,-0.179443359375
13.436,306,306,2753,3147,-0.2755126953125,0.0352783203125,-0.258056640625
13.472,306,305,2901,3147,-0.0692138671875,-0.248046875,-0.3133544921875
13.473,306,289,3039,3147,-0.0068359375,-0.3175048828125,-0.34423828125
13.473,306,306,3147,3147,-0.1617431640625,-0.116943359375,-0.2325439453125
13.474,296,306,3147,3147,-0.568115234375,0.22119140625,0.1221923828125
13.482,308,308,3147,3147,-1.112060546875,0.572021484375,0.4871826171875
13.496,306,306,3147,3147,-1.59912109375,0.8170166015625,0.6417236328125
13.504,306,307,3147,3147,-1.89697265625,0.7064208984375,0.5987548828125
13.512,308,307,3147,3147,-2.024169921875,0.3851318359375,0.384521484375
13.526,306,308,3147,3147,-2.1187744140625,0.2740478515625,0.0439453125
13.534,306,306,3147,3147,-2.143310546875,0.3272705078125,-0.3702392578125
13.542,307,308,3147,3147,-1.8057861328125,0.371826171875,-0.9146728515625
13.572,308,306,3147,3147,-1.362060546875,0.6365966796875,-1.2183837890625
13.572,306,305,3147,3147,-1.3900146484375,0.9776611328125,-0.7794189453125
13.573,289,305,3147,3147,-1.660888671875,0.8843994140625,-0.1295166015625
13.581,306,307,3147,3147,-1.7105712890625,0.5938720703125,0.05224609375
13.595,304,307,3147,3147,-1.5272216796875,0.40869140625,-0.064453125
13.603,306,306,3147,3147,-1.249267578125,0.2764892578125,-0.1224365234375
13.611,305,305,3104,3147,-0.9595947265625,0.11572265625,-0.047119140625
13.625,306,306,2993,3147,-0.7724609375,0.015869140625,0.076904296875
13.636,306,306,2928,3147,-0.7393798828125,0.0885009765625,0.14306640625
13.641,306,307,2833,3147,-0.7393798828125,0.0885009765625,0.14306640625
13.673,306,308,2636,3147,-0.7828369140625,0.189453125,0.056884765625
13.677,307,306,2507,3147,-0.7607421875,0.146240234375,-0.0084228515625
13.679,307,290,2361,3147,-0.7607421875,0.146240234375,-0.0084228515625
13.685,306,307,2188,3147,-0.79443359375,0.2408447265625,-0.15478515625
13.693,305,306,2065,3147,-0.8203125,0.2454833984375,-0.181640625
13.701,308,304,1905,3147,-0.8203125,0.2454833984375,-0.181640625
13.715,305,308,1662,3147,-0.8800048828125,0.171875,-0.263671875
13.723,307,305,1546,3147,-0.849853515625,0.1871337890625,-0.286865234375
13.738,306,306,1497,3147,-0.849853515625,0.1871337890625,-0.286865234375
13.745,306,308,1434,3147,-0.7344970703125,0.2099609375,-0.3280029296875
13.753,306,305,1424,3147,-0.6541748046875,0.2431640625,-0.3289794921875
13.778,306,306,1399,3028,-0.6541748046875,0.2431640625,-0.3289794921875
13.781,307,307,1393,2881,-0.7117919921875,0.234130859375,-0.21826171875
13.783,308,306,1387,2847,-0.795166015625,0.2340087890625,-0.13330078125
13.791,308,306,1422,2840,-0.795166015625,0.2340087890625,-0.13330078125
13.806,308,308,1435,2882,-0.8006591796875,0.174560546875,0.0440673828125
13.813,305,307,1454,2955,-0.7611083984375,0.1248779296875,0.0718994140625
13.821,306,307,1456,3028,-0.7611083984375,0.1248779296875,0.0718994140625
13.842,307,308,1500,3147,-0.7196044921875,0.166015625,-0.0277099609375
13.843,281,291,1516,3147,-0.7054443359375,0.2275390625,-0.0782470703125
13.851,306,307,1560,3147,-0.7054443359375,0.2275390625,-0.0782470703125
13.883,307,307,1718,3147,-0.6195068359375,0.224365234375,-0.117919921875
13.884,306,306,1882,3147,-0.6195068359375,0.224365234375,-0.117919921875
13.884,306,308,2021,3147,-0.5211181640625,0.182861328125,-0.1192626953125
13.895,306,307,2306,3147,-0.293212890625,0.15234375,-0.1422119140625
13.903,306,306,2386,3147,-0.293212890625,0.15234375,-0.1422119140625
13.911,307,308,2590,3147,-0.1336669921875,0.1339111328125,-0.178955078125
13.925,306,306,2877,3147,-0.1280517578125,0.1536865234375,-0.2022705078125
13.933,308,307,3025,3147,-0.1280517578125,0.1536865234375,-0.2022705078125
13.943,306,307,3147,3147,-0.4273681640625,0.0240478515625,-0.1593017578125
13.955,306,306,3147,3147,-1.2303466796875,0.3546142578125,0.1197509765625
13.969,306,308,3147,3147,-1.2303466796875,0.3546142578125,0.1197509765625
13.975,308,308,3147,3147,-1.6805419921875,0.769775390625,0.2012939453125
13.985,306,308,3147,3147,-2.2611083984375,0.518798828125,0.333984375
13.993,306,307,3147,3147,-2.2611083984375,0.518798828125,0.333984375
14.001,305,308,3147,3147,-2.28857421875,0.3270263671875,0.150634765625
14.015,306,308,3147,3147,-1.5751953125,0.3157958984375,-0.6976318359375
14.023,306,308,3147,3147,-1.5751953125,0.3157958984375,-0.6976318359375
14.031,306,306,3147,3147,-1.2542724609375,0.48828125,-0.61572265625
14.046,306,307,3147,3147,-1.817138671875,0.5087890625,0.2152099609375
14.053,306,307,3147,3147,-1.817138671875,0.5087890625,0.2152099609375
14.061,306,306,3147,3147,-1.7425537109375,0.4410400390625,0.1256103515625
14.091,306,308,2978,3147,-1.4903564453125,0.4415283203125,-0.068603515625
14.092,307,308,2840,3147,-1.2681884765625,0.42529296875,-0.171630859375
14.092,306,306,2684,3147,-1.0869140625,0.3026123046875,-0.160400390625
14.105,306,308,2432,3147,-0.9268798828125,0.207763671875,-0.1319580078125
14.113,306,308,2330,3147,-0.824462890625,0.2457275390625,-0.16650390625
14.121,307,304,2205,3147,-0.7587890625,0.2353515625,-0.228271484375
14.135,306,308,1948,3147,-0.7117919921875,0.1968994140625,-0.2418212890625
14.151,306,306,1769,3147,-0.6915283203125,0.216796875,-0.201416015625
14.151,306,308,1640,3147,-0.66943359375,0.2037353515625,-0.1329345703125
14.165,306,310,1485,3147,-0.6392822265625,0.119873046875,-0.091552734375
14.185,307,306,1447,3147,-0.6007080078125,0.02587890625,-0.0904541015625
14.185,289,306,1437,3147,-0.5616455078125,-0.065185546875,-0.127197265625
14.199,306,306,1419,3147,-0.54296875,-0.1068115234375,-0.1865234375
14.203,306,306,1400,3147,-0.57177734375,0.0,-0.1951904296875
14.211,308,306,1400,3147,-0.647216796875,0.227294921875,-0.1435546875
14.225,308,308,1413,3147,-0.69580078125,0.36572265625,-0.066162109375
14.233,306,307,1424,3147,-0.6881103515625,0.305908203125,0.02197265625
14.241,304,306,1437,3147,-0.68798828125,0.17578125,0.0809326171875
14.257,306,306,1468,3147,-0.72607421875,0.1083984375,0.0897216796875
14.266,306,307,1497,3147,-0.7662353515625,0.14599609375,0.0625
14.287,307,306,1527,3147,-0.7996826171875,0.2359619140625,0.017822265625
14.287,291,306,1557,3147,-0.8348388671875,0.3050537109375,-0.025146484375
14.293,306,306,1582,3147,-0.8515625,0.3199462890625,-0.0648193359375
14.303,306,306,1592,3147,-0.8486328125,0.2880859375,-0.112060546875
14.316,306,306,1665,3147,-0.83203125,0.2288818359375,-0.156982421875
14.323,306,306,1715,3147,-0.791259765625,0.15380859375,-0.180908203125
14.331,306,306,1854,3147,-0.726806640625,0.1116943359375,-0.179443359375
14.345,306,307,2113,3147,-0.6351318359375,0.132080078125,-0.165283203125
14.353,307,307,2293,3147,-0.5321044921875,0.1435546875,-0.18017578125
14.361,306,304,2447,3147,-0.4713134765625,0.074951171875,-0.2735595703125
14.375,307,307,2713,3147,-0.4169921875,-0.0234375,-0.4036865234375
14.383,305,306,2869,3147,-0.2969970703125,-0.0791015625,-0.429931640625
14.396,306,308,3014,3147,-0.1859130859375,-0.0667724609375,-0.22265625
14.409,306,308,3147,3147,-0.2939453125,0.1900634765625,0.1400146484375
14.413,305,308,3147,3147,-0.7071533203125,0.5440673828125,0.4610595703125
14.421,306,308,3147,3147,-1.2877197265625,0.6998291015625,0.6416015625
14.435,306,308,3147,3147,-1.815673828125,0.53759765625,0.655517578125
14.443,306,306,3147,3147,-2.1156005859375,0.259033203125,0.4923095703125
14.456,304,307,3147,3147,-2.2294921875,0.2528076171875,0.1285400390625
14.465,306,307,3147,3147,-2.2117919921875,0.43359375,-0.3057861328125
14.473,306,306,3147,3147,-1.8375244140625,0.478271484375,-0.7425537109375
14.484,306,306,3147,3147,-1.3692626953125,0.5589599609375,-0.8819580078125
14.495,304,307,3147,3147,-1.361572265625,0.7789306640625,-0.44140625
14.504,306,306,3147,3147,-1.5694580078125,0.724853515625,0.0164794921875
14.518,306,308,3147,3147,-1.5936279296875,0.475341796875,0.07568359375
14.526,304,307,3147,3147,-1.463134765625,0.3162841796875,-0.0369873046875
14.533,306,308,3147,3147,-1.2713623046875,0.2603759765625,-0.078857421875
14.541,306,306,3094,3147,-1.0621337890625,0.1773681640625,-0.033203125
14.558,304,307,2938,3147,-0.912109375,0.0716552734375,0.0340576171875
14.563,306,306,2807,3147,-0.8427734375,0.07666015625,0.0736083984375
14.599,307,306,2671,3147,-0.8094482421875,0.1737060546875,0.0379638671875
14.599,306,308,2486,3147,-0.7720947265625,0.2574462890625,-0.0301513671875
14.599,306,306,2364,3147,-0.750732421875,0.2969970703125,-0.08349609375
14.602,306,306,2284,3147,-0.7733154296875,0.307373046875,-0.128662109375
14.615,308,306,2104,3147,-0.8221435546875,0.263427734375,-0.1512451171875
14.625,306,306,1952,3147,-0.8804931640625,0.165283203125,-0.13623046875
14.631,306,305,1820,3147,-0.9158935546875,0.0604248046875,-0.127685546875
14.645,306,306,1659,3147,-0.91943359375,0.0135498046875,-0.1746826171875
14.660,306,306,1574,3147,-0.90234375,0.06005859375,-0.2220458984375
14.662,307,308,1470,3147,-0.871826171875,0.1339111328125,-0.2296142578125
14.676,313,307,1452,3147,-0.821044921875,0.171875,-0.2347412109375
14.686,306,307,1424,3147,-0.740478515625,0.184326171875,-0.2476806640625
14.698,306,305,1424,3147,-0.6712646484375,0.1951904296875,-0.2530517578125
14.708,306,308,1393,3113,-0.6610107421875,0.21826171875,-0.236328125
14.714,307,307,1387,3056,-0.6806640625,0.2470703125,-0.18896484375
14.721,308,306,1390,3098,-0.6785888671875,0.2266845703125,-0.1190185546875
14.735,307,308,1409,3147,-0.6856689453125,0.208984375,-0.0389404296875
14.743,306,306,1422,3147,-0.7216796875,0.2421875,0.0345458984375
14.751,306,306,1440,3147,-0.759521484375,0.2388916015625,0.0648193359375
14.765,307,306,1500,3147,-0.7955322265625,0.204345703125,0.0384521484375
14.773,306,306,1516,3147,-0.8223876953125,0.16748046875,-0.005615234375
14.791,306,306,1536,3147,-0.8223876953125,0.16748046875,-0.005615234375
14.795,306,307,1580,3147,-0.7364501953125,0.095703125,-0.0703125
14.803,306,306,1700,3147,-0.6185302734375,0.10791015625,-0.0855712890625
14.811,306,306,1837,3147,-0.6185302734375,0.10791015625,-0.0855712890625
14.825,306,307,2253,3147,-0.282470703125,0.167724609375,-0.1146240234375
14.835,308,306,2461,3147,-0.151611328125,0.2236328125,-0.155517578125
14.841,306,306,2697,3147,-0.151611328125,0.2236328125,-0.155517578125
14.855,306,307,3003,3147,-0.09912109375,0.0421142578125,-0.2850341796875
14.865,306,305,3111,3147,-0.27978515625,-0.3546142578125,-0.2650146484375
14.872,306,307,3147,3147,-0.27978515625,-0.3546142578125,-0.2650146484375
14.885,307,308,3147,3147,-0.956787109375,-0.006591796875,0.384521484375
14.906,304,307,3147,3147,-1.4259033203125,0.66943359375,0.5430908203125
14.908,306,306,3147,3147,-1.4259033203125,0.66943359375,0.5430908203125
14.915,306,307,3147,3147,-2.22509765625,0.5140380859375,0.4818115234375
14.923,306,306,3147,3147,-2.373046875,0.3990478515625,0.1463623046875
14.932,306,306,3147,3147,-2.373046875,0.3990478515625,0.1463623046875
14.945,305,307,3147,3147,-1.819091796875,0.5467529296875,-0.8145751953125
14.953,306,306,3147,3147,-1.374755859375,0.6253662109375,-0.847412109375
14.969,306,306,3147,3147,-1.374755859375,0.6253662109375,-0.847412109375
14.975,306,306,3147,3147,-1.6595458984375,0.6473388671875,0.008544921875
15.000,306,307,3147,3147,-1.5853271484375,0.4344482421875,0.00439453125
15.006,307,308,3147,3147,-1.5853271484375,0.4344482421875,0.00439453125
15.007,306,308,3147,3147,-1.354736328125,0.21826171875,-0.1455078125
15.013,306,308,3147,3147,-1.354736328125,0.21826171875,-0.1455078125
15.021,306,308,3114,3147,-1.2406005859375,0.1746826171875,-0.09326171875
15.035,306,306,2916,3147,-0.9036865234375,0.197021484375,0.0601806640625
15.053,305,307,2749,3147,-0.9036865234375,0.197021484375,0.0601806640625
15.053,306,306,2568,3147,-0.7686767578125,0.299560546875,-0.012939453125
15.070,308,308,2367,3147,-0.66943359375,0.262939453125,-0.23193359375
15.073,306,308,2261,3147,-0.66943359375,0.262939453125,-0.23193359375
15.081,307,306,2135,3147,-0.674560546875,0.1949462890625,-0.2540283203125
15.108,306,308,1904,3147,-0.7286376953125,0.078369140625,-0.1724853515625
15.108,306,308,1746,3147,-0.7286376953125,0.078369140625,-0.1724853515625
15.112,306,308,1616,3147,-0.7275390625,0.016845703125,-0.1141357421875
15.127,307,307,1506,3147,-0.6781005859375,-0.136474609375,-0.125732421875
15.134,306,304,1474,3147,-0.6781005859375,-0.136474609375,-0.125732421875
15.142,308,306,1456,3055,-0.6595458984375,-0.057373046875,-0.1041259765625
15.207,306,308,1429,2837,-0.7021484375,0.402099609375,-0.006591796875
15.208,307,305,1398,2798,-0.7021484375,0.402099609375,-0.006591796875
15.208,306,308,1382,2797,-0.7100830078125,0.412841796875,0.0440673828125
15.208,308,309,1357,2866,-0.75048828125,0.16015625,-0.0382080078125
15.208,307,307,1365,2936,-0.75048828125,0.16015625,-0.0382080078125
15.213,307,308,1386,3032,-0.773193359375,0.1431884765625,-0.1044921875
15.218,306,306,1416,3147,-0.77197265625,0.239501953125,-0.1170654296875
15.224,306,304,1441,3147,-0.77197265625,0.239501953125,-0.1170654296875
15.232,306,308,1472,3147,-0.7567138671875,0.234619140625,-0.1170654296875
15.246,306,308,1580,3147,-0.7342529296875,0.1680908203125,-0.11376953125
15.261,306,306,1636,3147,-0.7342529296875,0.1680908203125,-0.11376953125
15.262,306,306,1796,3147,-0.662353515625,0.1593017578125,-0.114990234375
15.277,304,308,2156,3147,-0.38134765625,0.1168212890625,-0.0589599609375
15.284,307,306,2347,3147,-0.38134765625,0.1168212890625,-0.0589599609375
15.305,306,308,2552,3147,-0.1807861328125,0.0106201171875,-0.048828125
15.312,306,294,3015,3147,0.043212890625,-0.0948486328125,-0.010009765625
15.315,306,306,3147,3147,0.043212890625,-0.0948486328125,-0.010009765625
15.322,306,308,3147,3147,-0.083984375,-0.19873046875,0.08349609375
15.336,306,308,3147,3147,-0.3447265625,-0.250732421875,0.3109130859375
15.344,306,306,3147,3147,-0.7423095703125,0.0509033203125,0.529541015625
15.352,307,306,3147,3147,-1.3023681640625,0.6956787109375,0.4683837890625
15.368,305,306,3147,3147,-1.9229736328125,0.899169921875,0.2230224609375
15.385,306,306,3147,3147,-2.3653564453125,0.525634765625,-0.0426025390625
15.386,306,307,3147,3147,-2.5684814453125,0.2890625,-0.3197021484375
15.396,306,308,3147,3147,-2.630126953125,0.337646484375,-0.5828857421875
15.404,306,306,3147,3147,-2.1278076171875,0.362548828125,-0.9830322265625
15.419,306,306,3147,3147,-1.3216552734375,0.6434326171875,-1.123779296875
15.426,308,306,3147,3147,-1.24267578125,1.1485595703125,-0.6158447265625
15.434,308,307,3147,3147,-1.631591796875,1.02734375,-0.0867919921875
15.442,306,308,3147,3147,-1.772216796875,0.4256591796875,-0.01708984375
15.456,305,308,3147,3147,-1.6287841796875,0.1016845703125,-0.1568603515625
15.464,307,306,3147,3147,-1.4075927734375,0.1923828125,-0.21630859375
15.485,306,306,3095,3147,-1.196044921875,0.3043212890625,-0.1658935546875
15.486,306,308,2930,3147,-0.995361328125,0.2120361328125,-0.0584716796875
15.509,306,306,2801,3147,-0.8363037109375,0.0234375,0.0499267578125
15.509,282,306,2632,3147,-0.743408203125,-0.0113525390625,0.07470703125
15.516,306,306,2478,3147,-0.6885986328125,0.1158447265625,0.009033203125
15.524,307,306,2375,3147,-0.6500244140625,0.1993408203125,-0.084716796875
15.532,306,308,2284,3147,-0.648681640625,0.224853515625,-0.1707763671875
15.546,306,306,2093,3147,-0.6795654296875,0.22607421875,-0.2088623046875
15.554,306,306,1971,3147,-0.7237548828125,0.2042236328125,-0.2161865234375
15.562,306,308,1806,3147,-0.7742919921875,0.1805419921875,-0.2213134765625
15.589,306,307,1547,3147,-0.809326171875,0.1431884765625,-0.2061767578125
15.590,292,291,1437,3147,-0.8087158203125,0.083251953125,-0.186767578125
15.593,307,308,1398,3147,-0.755859375,0.074951171875,-0.195068359375
15.613,306,308,1383,3066,-0.670654296875,0.1148681640625,-0.2010498046875
15.614,291,310,1351,2869,-0.6492919921875,0.173095703125,-0.18505859375
15.622,308,306,1351,2737,-0.7069091796875,0.2376708984375,-0.156982421875
15.636,306,308,1353,2703,-0.738525390625,0.248046875,-0.1055908203125
15.644,308,306,1369,2787,-0.6988525390625,0.2010498046875,-0.03857421875
15.652,306,306,1370,2910,-0.6353759765625,0.147216796875,0.013427734375
15.666,307,307,1427,3147,-0.614013671875,0.13818359375,0.0218505859375
15.674,306,307,1447,3147,-0.6427001953125,0.17041015625,-0.0150146484375
15.694,306,307,1470,3147,-0.6978759765625,0.2001953125,-0.0618896484375
15.701,305,308,1552,3147,-0.7545166015625,0.223876953125,-0.078369140625
15.724,307,307,1640,3147,-0.746826171875,0.2249755859375,-0.061279296875
15.724,292,292,1792,3147,-0.6595458984375,0.194091796875,-0.0379638671875
15.726,306,306,2137,3147,-0.5679931640625,0.1673583984375,-0.0010986328125
15.734,307,307,2268,3147,-0.52099609375,0.1513671875,0.0380859375
15.742,306,306,2424,3147,-0.4801025390625,0.1513671875,0.045166015625
15.756,306,306,2695,3147,-0.461181640625,0.11865234375,0.0052490234375
15.764,307,306,2840,3147,-0.5045166015625,-0.0338134765625,-0.1376953125
15.772,306,308,3000,3147,-0.4808349609375,-0.2618408203125,-0.3226318359375
15.793,306,306,3147,3147,-0.40478515625,-0.4132080078125,-0.367919921875
15.794,306,306,3147,3147,-0.531494140625,-0.197021484375,-0.23095703125
15.812,306,307,3147,3147,-0.92822265625,0.4136962890625,-0.041015625
15.816,306,308,3147,3147,-1.39892578125,0.9466552734375,0.08544921875
15.824,306,308,3147,3147,-1.750732421875,0.8441162109375,0.24169921875
15.834,306,306,3147,3147,-1.927001953125,0.3251953125,0.3514404296875
15.846,306,307,3147,3147,-2.0224609375,0.1416015625,0.2147216796875
15.854,306,304,3147,3147,-2.11376953125,0.3865966796875,-0.124755859375
15.862,306,308,3147,3147,-1.8883056640625,0.567626953125,-0.6209716796875
15.876,306,306,3147,3147,-1.3319091796875,0.6767578125,-0.9200439453125
15.891,307,305,3147,3147,-1.1746826171875,0.9375,-0.674560546875
15.900,306,299,3147,3147,-1.5091552734375,0.8704833984375,-0.25830078125
15.911,306,308,3147,3147,-1.772705078125,0.4385986328125,-0.1124267578125
15.914,306,308,3147,3147,-1.7562255859375,0.1668701171875,-0.16552734375
15.934,306,308,3147,3147,-1.5191650390625,0.1002197265625,-0.188720703125
15.934,306,307,3147,3147,-1.5191650390625,0.1002197265625,-0.188720703125
15.946,306,307,3104,3147,-1.025390625,0.1763916015625,-0.03271484375
15.952,306,308,2962,3147,-0.9022216796875,0.22412109375,0.04345703125
15.966,306,308,2750,3147,-0.789306640625,0.2698974609375,-0.005615234375
15.974,306,306,2619,3147,-0.6943359375,0.3179931640625,-0.1768798828125
15.982,307,308,2534,3147,-0.66357421875,0.28857421875,-0.325927734375
15.996,306,308,2356,3147,-0.70166015625,0.221923828125,-0.373046875
16.024,306,306,2280,3147,-0.73681640625,0.1611328125,-0.3138427734375
16.024,305,293,2180,3147,-0.73681640625,0.1611328125,-0.3138427734375
16.024,306,292,2005,3147,-0.729736328125,0.1051025390625,-0.2161865234375
16.035,306,307,1773,3147,-0.6795654296875,0.049560546875,-0.1171875
16.043,306,306,1678,3147,-0.64453125,0.026611328125,-0.158447265625
16.051,306,308,1596,3147,-0.64453125,0.026611328125,-0.158447265625
16.065,308,307,1521,3143,-0.6575927734375,0.089599609375,-0.122314453125
16.073,306,304,1494,2951,-0.7100830078125,0.2044677734375,-0.0474853515625
16.081,306,307,1469,2842,-0.7100830078125,0.2044677734375,-0.0474853515625
16.095,308,308,1462,2797,-0.7669677734375,0.3658447265625,0.0257568359375
16.104,308,306,1474,2867,-0.76123046875,0.2786865234375,-0.0087890625
16.114,306,306,1468,2978,-0.76123046875,0.2786865234375,-0.0087890625
16.132,306,308,1478,3147,-0.788818359375,0.104248046875,-0.1702880859375
16.134,308,306,1499,3147,-0.801513671875,0.1055908203125,-0.2135009765625
16.142,306,308,1508,3147,-0.801513671875,0.1055908203125,-0.2135009765625
16.156,306,306,1529,3147,-0.8121337890625,0.207763671875,-0.1651611328125
16.164,306,306,1545,3147,-0.80322265625,0.259033203125,-0.14208984375
16.172,308,306,1580,3147,-0.80322265625,0.259033203125,-0.14208984375
16.186,306,307,1773,3147,-0.7459716796875,0.2474365234375,-0.14404296875
16.196,308,306,1969,3147,-0.6966552734375,0.224853515625,-0.140380859375
16.202,307,308,2118,3147,-0.6966552734375,0.224853515625,-0.140380859375
16.220,307,307,2306,3147,-0.6015625,0.1641845703125,-0.03466796875
16.239,307,306,2447,3147,-0.4869384765625,0.16943359375,-0.013671875
16.239,306,306,2579,3147,-0.4869384765625,0.16943359375,-0.013671875
16.246,306,307,2847,3147,-0.334228515625,0.1246337890625,-0.1392822265625
16.254,306,306,2958,3147,-0.334228515625,0.1246337890625,-0.1392822265625
16.262,306,306,3048,3147,-0.310302734375,-0.0704345703125,-0.35888671875
16.276,306,306,3147,3147,-0.684814453125,-0.205078125,-0.2783203125
16.284,306,306,3147,3147,-0.684814453125,-0.205078125,-0.2783203125
16.300,306,308,3147,3147,-1.107177734375,0.18798828125,-0.0076904296875
16.306,307,308,3147,3147,-1.765625,0.7767333984375,0.1220703125
16.318,306,308,3147,3147,-1.765625,0.7767333984375,0.1220703125
16.326,306,307,3147,3147,-1.9249267578125,0.5421142578125,0.1065673828125
16.345,307,306,3147,3147,-2.1201171875,0.3477783203125,-0.130615234375
16.345,283,306,3147,3147,-2.1201171875,0.3477783203125,-0.130615234375
16.353,306,306,3147,3147,-1.7322998046875,0.3270263671875,-0.489501953125
16.366,306,307,3147,3147,-1.177490234375,0.7958984375,-0.5594482421875
16.375,306,306,3147,3147,-1.177490234375,0.7958984375,-0.5594482421875
16.383,307,308,3147,3147,-1.5404052734375,0.718505859375,-0.249267578125
16.407,306,306,3147,3147,-1.583984375,0.1878662109375,-0.0958251953125
16.407,306,305,3147,3147,-1.583984375,0.1878662109375,-0.0958251953125
16.412,306,306,3147,3147,-1.3179931640625,0.2115478515625,-0.032470703125
16.439,305,307,3046,3147,-1.0103759765625,0.27490234375,0.0450439453125
16.439,307,306,2941,3147,-1.0103759765625,0.27490234375,0.0450439453125
16.442,306,306,2840,3147,-0.983642578125,0.28173828125,0.00244140625
