time,compression0,compression1,compression2,compression3,accel_x,accel_y,accel_z
0.008,302,816,713,316,-0.8778076171875,0.3802490234375,-0.337890625
0.018,305,744,728,321,-0.8778076171875,0.374755859375,-0.343017578125
0.025,304,667,737,323,-0.876708984375,0.3709716796875,-0.3349609375
0.034,304,620,744,318,-0.871337890625,0.3653564453125,-0.3167724609375
0.066,304,689,761,323,-0.8599853515625,0.3521728515625,-0.30224609375
0.082,304,714,750,319,-0.845703125,0.327880859375,-0.3023681640625
0.083,302,790,754,321,-0.831787109375,0.2996826171875,-0.3131103515625
0.083,304,840,778,322,-0.8267822265625,0.294189453125,-0.3232421875
0.101,304,1003,794,321,-0.8345947265625,0.3245849609375,-0.3280029296875
0.114,302,1091,799,321,-0.8497314453125,0.3704833984375,-0.329833984375
0.114,304,1131,787,323,-0.8638916015625,0.4031982421875,-0.335205078125
0.131,304,1236,780,321,-0.8695068359375,0.4031982421875,-0.3426513671875
0.131,304,1289,775,322,-0.8629150390625,0.3717041015625,-0.346923828125
0.131,304,1336,784,322,-0.85205078125,0.3438720703125,-0.34130859375
0.153,304,1476,761,322,-0.8485107421875,0.3499755859375,-0.326171875
0.158,306,1534,754,323,-0.8521728515625,0.3756103515625,-0.3140869140625
0.168,304,1611,761,323,-0.8551025390625,0.3924560546875,-0.30615234375
0.175,299,1638,759,323,-0.8480224609375,0.38916015625,-0.296875
0.184,298,1709,746,324,-0.8375244140625,0.3739013671875,-0.291259765625
0.191,302,1761,750,321,-0.838134765625,0.3607177734375,-0.2901611328125
0.205,302,1854,793,324,-0.8505859375,0.3505859375,-0.2845458984375
0.228,304,1908,788,323,-0.864990234375,0.33740234375,-0.2728271484375
0.228,304,1996,785,324,-0.867919921875,0.320068359375,-0.26171875
0.241,304,2118,814,326,-0.8515625,0.306396484375,-0.2579345703125
0.257,291,2217,785,309,-0.82666015625,0.30029296875,-0.2608642578125
0.257,299,2375,805,327,-0.805908203125,0.297607421875,-0.2537841796875
0.265,304,2756,816,325,-0.7808837890625,0.289306640625,-0.229736328125
0.281,298,2966,816,328,-0.7486572265625,0.270263671875,-0.2032470703125
0.281,304,3147,815,330,-0.7156982421875,0.238525390625,-0.18798828125
0.295,306,3147,842,648,-0.6771240234375,0.1866455078125,-0.180419921875
0.304,302,3147,844,933,-0.611572265625,0.1070556640625,-0.178466796875
0.311,304,3147,840,1243,-0.532958984375,0.0526123046875,-0.168212890625
0.333,304,3147,887,1806,-0.47705078125,0.144775390625,-0.0965576171875
0.333,304,3147,888,2075,-0.42919921875,0.3984375,0.01171875
0.341,306,3147,897,2271,-0.3551025390625,0.615478515625,0.02197265625
0.365,305,3147,905,2490,-0.259521484375,0.592041015625,-0.081298828125
0.365,306,3147,907,2727,-0.222412109375,0.3564453125,-0.148681640625
0.371,304,3147,958,2918,-0.4263916015625,0.189453125,-0.294189453125
0.385,306,3147,998,3147,-0.89892578125,0.4334716796875,-0.557373046875
0.394,309,3147,1007,3147,-1.3848876953125,0.9803466796875,-0.66552734375
0.401,308,3147,1067,3147,-1.7364501953125,1.363037109375,-0.6734619140625
0.416,315,3147,1276,3147,-1.9384765625,1.3992919921875,-0.7191162109375
0.436,317,3147,1344,3147,-2.032470703125,1.168212890625,-0.720703125
0.436,316,3147,1357,3147,-1.9735107421875,0.4853515625,-0.54248046875
0.445,315,3147,1412,3147,-1.5391845703125,-0.6217041015625,-0.129150390625
0.458,316,3147,1393,3147,-1.0660400390625,-1.03515625,0.220947265625
0.461,316,3147,1424,3147,-0.9635009765625,-0.368408203125,0.19921875
0.475,318,3147,1483,3147,-1.175048828125,0.5828857421875,-0.1519775390625
0.484,316,3147,1487,3147,-1.524658203125,1.1978759765625,-0.5194091796875
0.491,316,3147,1483,3147,-1.6595458984375,1.1397705078125,-0.6068115234375
0.506,316,3147,1443,3147,-1.4835205078125,0.654052734375,-0.452880859375
0.513,316,3147,1441,3147,-1.213134765625,0.2593994140625,-0.2662353515625
0.521,316,3147,1386,3147,-1.042724609375,0.1627197265625,-0.172607421875
0.539,316,3147,1359,3147,-0.9920654296875,0.2003173828125,-0.1422119140625
0.561,316,3147,1320,2993,-0.9498291015625,0.1417236328125,-0.0787353515625
0.561,310,3147,1239,2710,-0.8438720703125,-0.0428466796875,0.0169677734375
0.570,313,3147,1134,2230,-0.71240234375,-0.2281494140625,0.06640625
0.573,310,3147,1091,1908,-0.627197265625,-0.306396484375,0.0819091796875
0.582,310,3147,1056,1574,-0.5986328125,-0.260498046875,0.0628662109375
0.596,309,3147,991,1112,-0.625,-0.1636962890625,-0.0037841796875
0.604,308,3147,975,858,-0.6868896484375,-0.0384521484375,-0.0648193359375
0.611,310,3147,957,555,-0.7669677734375,0.1793212890625,-0.1180419921875
0.625,308,3045,936,332,-0.8333740234375,0.4456787109375,-0.1767578125
0.634,308,2676,936,334,-0.8358154296875,0.5745849609375,-0.2149658203125
0.662,308,2144,918,330,-0.8043212890625,0.53125,-0.2308349609375
0.664,304,1555,912,323,-0.7872314453125,0.436279296875,-0.2437744140625
0.664,289,1213,868,323,-0.78173828125,0.33544921875,-0.2584228515625
0.673,306,951,834,323,-0.789306640625,0.2572021484375,-0.2706298828125
0.686,304,947,800,321,-0.8143310546875,0.240478515625,-0.2784423828125
0.694,304,803,799,324,-0.8477783203125,0.2720947265625,-0.269287109375
0.702,304,700,785,327,-0.869384765625,0.30322265625,-0.2327880859375
0.717,304,586,750,324,-0.8756103515625,0.299072265625,-0.1907958984375
0.739,306,590,758,323,-0.8826904296875,0.276611328125,-0.1629638671875
0.740,305,689,750,321,-0.888671875,0.2552490234375,-0.1488037109375
0.768,306,631,749,324,-0.884033203125,0.239013671875,-0.1446533203125
0.768,304,724,749,325,-0.866943359375,0.228759765625,-0.1455078125
0.769,304,689,754,321,-0.844970703125,0.21484375,-0.1416015625
0.776,302,780,774,323,-0.823486328125,0.194091796875,-0.122802734375
0.785,304,830,766,321,-0.8035888671875,0.176513671875,-0.08984375
0.792,304,964,780,324,-0.788330078125,0.174560546875,-0.053466796875
0.806,304,1529,848,323,-0.7711181640625,0.185546875,-0.0257568359375
0.814,304,1874,856,327,-0.743408203125,0.1846923828125,-0.0169677734375
0.822,304,2192,899,329,-0.701904296875,0.15087890625,-0.0267333984375
0.845,306,2847,931,332,-0.634765625,0.070556640625,-0.0526123046875
0.845,304,3147,933,437,-0.541015625,-0.026123046875,-0.085693359375
0.867,306,3147,957,913,-0.541015625,-0.026123046875,-0.085693359375
0.870,310,3147,1037,1732,-0.265380859375,0.0947265625,-0.04443359375
0.875,308,3147,1042,2098,-0.0877685546875,0.3399658203125,0.0587158203125
0.882,311,3147,1039,2428,-0.0877685546875,0.3399658203125,0.0587158203125
0.896,313,3147,1093,2951,-0.0020751953125,0.490234375,-0.036376953125
0.904,308,3147,1143,3147,-0.1885986328125,0.314208984375,-0.1495361328125
0.912,315,3147,1294,3147,-0.1885986328125,0.314208984375,-0.1495361328125
0.926,323,3147,1613,3147,-1.2821044921875,0.701416015625,-0.4166259765625
0.940,324,3147,1735,3147,-1.947998046875,0.866943359375,-0.5859375
0.942,328,3147,1820,3147,-1.947998046875,0.866943359375,-0.5859375
0.967,330,3147,1865,3147,-2.725341796875,0.2833251953125,-0.6253662109375
0.978,330,3147,1798,3147,-2.77685546875,0.11962890625,-0.392333984375
0.978,327,3147,1798,3147,-2.77685546875,0.11962890625,-0.392333984375
0.986,324,3147,1744,3147,-1.455078125,-1.0341796875,0.500732421875
0.994,323,3147,1732,3147,-0.7296142578125,-0.5531005859375,0.6407470703125
1.002,323,3147,1687,3147,-0.7296142578125,-0.5531005859375,0.6407470703125
1.016,321,3147,1689,3147,-1.2825927734375,1.1080322265625,-0.3056640625
1.024,323,3147,1686,3147,-1.7447509765625,1.009765625,-0.5584716796875
1.032,324,3147,1635,3147,-1.7447509765625,1.009765625,-0.5584716796875
1.046,322,3147,1504,3147,-1.512939453125,0.2034912109375,-0.2073974609375
1.054,323,3147,1395,3147,-1.512939453125,0.2034912109375,-0.2073974609375
1.076,322,3147,1357,3147,-1.2557373046875,0.046875,-0.0943603515625
1.079,322,3147,1228,2769,-0.9957275390625,-0.1661376953125,0.0013427734375
1.084,323,3147,1145,2493,-0.9957275390625,-0.1661376953125,0.0013427734375
1.092,329,3147,1014,2203,-0.8736572265625,-0.3193359375,0.12744140625
1.120,318,3147,951,1704,-0.615966796875,-0.2957763671875,0.12255859375
1.121,310,3147,932,1369,-0.615966796875,-0.2957763671875,0.12255859375
1.122,308,3147,899,966,-0.5775146484375,-0.0048828125,0.004150390625
1.136,306,3147,859,338,-0.659423828125,0.338134765625,-0.325927734375
1.145,307,2557,835,334,-0.659423828125,0.338134765625,-0.325927734375
1.152,306,2047,813,330,-0.6805419921875,0.378662109375,-0.3404541015625
1.188,308,1468,739,325,-0.67529296875,0.5045166015625,-0.306640625
1.189,304,1170,713,328,-0.67529296875,0.5045166015625,-0.306640625
1.189,304,991,687,324,-0.681640625,0.5322265625,-0.3057861328125
1.198,302,1034,674,322,-0.700927734375,0.425537109375,-0.30712890625
1.205,304,1010,660,321,-0.700927734375,0.425537109375,-0.30712890625
1.212,302,987,692,321,-0.723876953125,0.3121337890625,-0.2738037109375
1.228,304,976,700,323,-0.829833984375,0.24072265625,-0.15673828125
1.235,304,957,666,317,-0.829833984375,0.24072265625,-0.15673828125
1.248,305,748,695,327,-0.86181640625,0.2347412109375,-0.1202392578125
1.256,302,713,683,322,-0.859619140625,0.1793212890625,-0.1439208984375
1.275,304,766,680,317,-0.859619140625,0.1793212890625,-0.1439208984375
1.275,299,744,660,321,-0.859130859375,0.1605224609375,-0.1636962890625
1.286,302,803,674,319,-0.868408203125,0.1661376953125,-0.1474609375
1.294,304,846,683,322,-0.874267578125,0.176513671875,-0.1094970703125
1.302,304,946,714,321,-0.869384765625,0.18505859375,-0.0765380859375
1.319,304,1355,748,323,-0.8521728515625,0.206787109375,-0.0496826171875
1.326,302,1516,754,327,-0.8209228515625,0.2127685546875,-0.026611328125
1.332,304,1892,759,325,-0.7919921875,0.1767578125,-0.02490234375
1.351,304,2601,753,327,-0.770751953125,0.1256103515625,-0.05859375
1.357,306,3008,731,334,-0.7501220703125,0.0865478515625,-0.107666015625
1.362,306,3147,723,506,-0.723876953125,0.057861328125,-0.1490478515625
1.394,304,3147,673,1470,-0.70703125,0.033203125,-0.1796875
1.394,306,3147,639,1809,-0.703125,0.0411376953125,-0.1751708984375
1.394,306,3147,601,2174,-0.68212890625,0.0859375,-0.1212158203125
1.408,306,3147,648,2713,-0.6142578125,0.1485595703125,-0.0035400390625
1.414,304,3147,654,3000,-0.4122314453125,0.2088623046875,0.1094970703125
1.422,304,3147,713,3147,-0.0814208984375,0.2392578125,0.0694580078125
1.436,304,3147,844,3147,0.145263671875,0.2955322265625,-0.1060791015625
1.444,305,3147,872,3147,-0.0380859375,0.43994140625,-0.2926025390625
1.452,306,3147,874,3147,-0.6279296875,0.611328125,-0.4356689453125
1.468,309,3147,1043,3147,-1.3052978515625,0.7698974609375,-0.5277099609375
1.489,313,3147,1201,3147,-1.8525390625,1.0025634765625,-0.5762939453125
1.497,316,3147,1348,3147,-2.23046875,1.2308349609375,-0.5841064453125
1.497,321,3147,1504,3147,-2.4334716796875,1.015869140625,-0.510009765625
1.506,321,3147,1476,3147,-2.4346923828125,0.2308349609375,-0.404541015625
1.512,318,3147,1456,3147,-2.114990234375,-0.7947998046875,-0.0269775390625
1.527,321,3147,1372,3147,-1.39892578125,-1.3179931640625,0.5499267578125
1.536,321,3147,1357,3147,-0.8563232421875,-0.7740478515625,0.6220703125
1.542,319,3147,1351,3147,-1.01025390625,0.4539794921875,0.0953369140625
1.556,321,3147,1411,3147,-1.6102294921875,1.4193115234375,-0.4822998046875
1.576,318,3147,1382,3147,-2.01123046875,1.3807373046875,-0.6923828125
1.593,318,3147,1390,3147,-1.8662109375,0.740966796875,-0.568603515625
1.593,302,3147,1349,3147,-1.4683837890625,0.2525634765625,-0.3275146484375
1.595,316,3147,1271,3147,-1.12890625,0.00048828125,-0.103271484375
1.608,315,3147,1188,3107,-0.9212646484375,-0.1405029296875,0.0703125
1.614,313,3147,1051,2560,-0.794677734375,-0.224853515625,0.22265625
1.635,312,3147,992,1646,-0.6619873046875,-0.3134765625,0.2972412109375
1.635,308,3147,978,1137,-0.5577392578125,-0.3974609375,0.2818603515625
1.641,316,3147,944,553,-0.53466796875,-0.3697509765625,0.2359619140625
1.658,360,2587,826,330,-0.5679931640625,-0.1998291015625,0.1043701171875
1.666,362,1897,562,327,-0.6456298828125,0.0299072265625,-0.0997314453125
1.689,330,1290,656,321,-0.70654296875,0.240234375,-0.2802734375
1.690,306,814,619,313,-0.7064208984375,0.3857421875,-0.36962890625
1.694,307,523,607,324,-0.69873046875,0.49560546875,-0.3612060546875
1.701,304,433,562,316,-0.7060546875,0.5655517578125,-0.32861328125
1.716,309,522,625,318,-0.706298828125,0.5164794921875,-0.340576171875
1.723,307,522,607,319,-0.7144775390625,0.388671875,-0.3656005859375
1.734,307,531,634,318,-0.724853515625,0.3057861328125,-0.35693359375
1.745,304,571,616,318,-0.734130859375,0.2735595703125,-0.33447265625
1.761,304,567,620,318,-0.7503662109375,0.2525634765625,-0.3050537109375
1.762,305,574,630,302,-0.766845703125,0.2451171875,-0.2608642578125
1.778,304,571,619,318,-0.7845458984375,0.2550048828125,-0.214599609375
1.793,304,568,629,318,-0.800048828125,0.2747802734375,-0.175048828125
1.793,306,562,653,318,-0.814208984375,0.2857666015625,-0.146240234375
1.806,306,485,675,319,-0.828369140625,0.2757568359375,-0.1217041015625
1.820,308,536,642,318,-0.8355712890625,0.2489013671875,-0.091796875
1.821,294,586,673,321,-0.8370361328125,0.2122802734375,-0.0660400390625
1.835,304,858,693,316,-0.83935546875,0.18603515625,-0.0584716796875
1.843,307,952,688,321,-0.8330078125,0.1766357421875,-0.05810546875
1.867,306,1204,754,324,-0.8330078125,0.1766357421875,-0.05810546875
1.867,308,2047,852,324,-0.7738037109375,0.1280517578125,-0.0360107421875
1.876,308,2521,895,332,-0.778076171875,0.1181640625,-0.05419921875
1.890,307,2844,888,334,-0.778076171875,0.1181640625,-0.05419921875
1.906,306,3147,883,832,-0.8267822265625,0.1820068359375,-0.204345703125
1.907,292,3147,888,1260,-0.822021484375,0.1898193359375,-0.2608642578125
1.913,308,3147,899,1691,-0.822021484375,0.1898193359375,-0.2608642578125
1.925,306,3147,906,2372,-0.637939453125,0.1748046875,-0.1011962890625
1.933,310,3147,952,2813,-0.4033203125,0.194091796875,-0.019775390625
1.942,313,3147,1043,3143,-0.4033203125,0.194091796875,-0.019775390625
1.956,308,3147,1151,3147,0.143310546875,0.1810302734375,-0.38037109375
1.971,314,3147,1303,3147,-0.114013671875,0.2596435546875,-0.581298828125
1.972,316,3147,1422,3147,-0.114013671875,0.2596435546875,-0.581298828125
1.993,321,3147,1697,3147,-1.4857177734375,0.861572265625,-0.4931640625
1.997,325,3147,1850,3147,-2.1170654296875,1.043701171875,-0.3009033203125
2.002,327,3147,1914,3147,-2.1170654296875,1.043701171875,-0.3009033203125
2.015,327,3147,1954,3147,-2.52490234375,0.1683349609375,-0.1322021484375
2.023,325,3147,2001,3147,-2.2452392578125,-0.4063720703125,0.045166015625
2.034,328,3147,2041,3147,-2.2452392578125,-0.4063720703125,0.045166015625
2.045,327,3147,1983,3147,-1.0155029296875,-1.1231689453125,0.720458984375
2.053,323,3147,1890,3147,-0.6304931640625,-0.3284912109375,0.722412109375
2.066,324,3147,1806,3147,-0.6304931640625,-0.3284912109375,0.722412109375
2.076,323,3147,1798,3147,-1.0025634765625,0.776611328125,-0.0704345703125
2.096,324,3147,1826,3147,-1.0025634765625,0.776611328125,-0.0704345703125
2.096,326,3147,1852,3147,-1.53515625,0.9034423828125,-0.513671875
2.105,324,3147,1808,3147,-1.7606201171875,0.2447509765625,-0.4998779296875
2.113,324,3147,1755,3147,-1.7606201171875,0.2447509765625,-0.4998779296875
2.123,1611,3147,1395,725,-1.4727783203125,-0.1884765625,-0.2203369140625
2.138,486,3147,1440,3147,-1.1419677734375,-0.194580078125,0.0958251953125
2.143,446,3147,1427,2974,-1.1419677734375,-0.194580078125,0.0958251953125
2.153,420,3147,1336,2612,-1.026123046875,-0.089111328125,0.0938720703125
2.169,318,3147,1302,1979,-0.8017578125,0.2216796875,-0.0321044921875
2.173,317,3147,1231,1516,-0.8017578125,0.2216796875,-0.0321044921875
2.181,315,3147,1137,959,-0.7147216796875,0.258544921875,-0.044921875
2.209,313,2677,1043,338,-0.5347900390625,0.0318603515625,-0.158935546875
2.209,309,2218,989,334,-0.5347900390625,0.0318603515625,-0.158935546875
2.212,308,1861,984,333,-0.5184326171875,0.068359375,-0.20166015625
2.225,308,1349,939,327,-0.6116943359375,0.3304443359375,-0.314697265625
2.234,306,1146,913,330,-0.6116943359375,0.3304443359375,-0.314697265625
2.246,307,954,867,328,-0.6939697265625,0.4622802734375,-0.357177734375
2.256,305,754,778,323,-0.8193359375,0.4775390625,-0.3353271484375
2.263,306,678,750,321,-0.8193359375,0.4775390625,-0.3353271484375
2.271,304,673,721,321,-0.84521484375,0.3695068359375,-0.2685546875
2.312,304,669,731,319,-0.852294921875,0.1973876953125,-0.1182861328125
2.313,304,693,694,322,-0.852294921875,0.1973876953125,-0.1182861328125
2.313,290,678,684,323,-0.8529052734375,0.162841796875,-0.0682373046875
2.315,304,750,721,321,-0.8531494140625,0.1248779296875,-0.0572509765625
2.323,304,714,693,323,-0.866455078125,0.09033203125,-0.0809326171875
2.331,302,707,706,319,-0.8905029296875,0.09619140625,-0.105224609375
2.351,304,757,745,323,-0.905029296875,0.131103515625,-0.106201171875
2.353,292,818,774,318,-0.8896484375,0.14599609375,-0.0860595703125
2.362,304,894,802,323,-0.849365234375,0.1092529296875,-0.0589599609375
2.375,306,1377,865,324,-0.81494140625,0.052978515625,-0.0419921875
2.383,305,1785,895,329,-0.80419921875,0.0184326171875,-0.0576171875
2.393,306,2202,905,313,-0.8160400390625,0.0074462890625,-0.1068115234375
2.411,308,2898,932,330,-0.8372802734375,0.024658203125,-0.164794921875
2.413,307,3147,987,336,-0.8636474609375,0.0826416015625,-0.2122802734375
2.421,304,3147,969,572,-0.883544921875,0.1737060546875,-0.2208251953125
2.435,308,3147,947,1251,-0.835693359375,0.223876953125,-0.1685791015625
2.444,308,3147,957,1627,-0.689453125,0.129638671875,-0.0948486328125
2.458,308,3147,912,2142,-0.4947509765625,-0.0775146484375,-0.0482177734375
2.465,306,3147,846,2744,-0.3057861328125,-0.1695556640625,0.0015869140625
2.476,310,3147,912,3101,-0.1346435546875,0.0496826171875,0.073486328125
2.481,306,3147,922,3147,-0.0771484375,0.3992919921875,0.0806884765625
2.506,308,3147,1138,3147,-0.21630859375,0.617431640625,0.0101318359375
2.506,297,3147,1231,3147,-0.446044921875,0.6258544921875,-0.0733642578125
2.524,316,3147,1397,3147,-0.7393798828125,0.4295654296875,-0.2005615234375
2.533,321,3147,1574,3147,-1.1925048828125,0.30859375,-0.3677978515625
2.534,693,3147,800,3147,-1.749755859375,0.3726806640625,-0.424072265625
2.542,347,3147,1775,3147,-2.208984375,0.3939208984375,-0.388671875
2.556,1785,3147,1811,3147,-2.49853515625,0.3441162109375,-0.3284912109375
2.567,388,3147,739,3147,-2.5931396484375,0.2099609375,-0.2108154296875
2.579,514,3147,1557,3147,-2.285400390625,-0.2293701171875,0.036376953125
2.586,470,3147,1480,3147,-1.491943359375,-0.655517578125,0.444580078125
2.617,865,3147,859,3147,-0.80615234375,-0.37158203125,0.5968017578125
2.617,1550,3147,349,3147,-0.9237060546875,0.4212646484375,0.1539306640625
2.617,1125,3147,772,2820,-1.5372314453125,0.81494140625,-0.41943359375
2.624,517,3147,328,3147,-1.8726806640625,0.5445556640625,-0.5784912109375
2.632,348,3147,1501,3147,-1.7547607421875,0.199951171875,-0.40185546875
2.646,575,3147,1156,3147,-1.435302734375,0.1416015625,-0.174560546875
2.654,533,3147,1213,3147,-1.1395263671875,0.1461181640625,-0.041259765625
2.672,497,3147,1126,3147,-0.97314453125,0.0714111328125,-0.0155029296875
2.681,482,3147,1189,3147,-0.905517578125,0.0408935546875,-0.0279541015625
2.684,316,3147,1214,3106,-0.8636474609375,0.095703125,-0.029541015625
2.693,315,3147,1160,2760,-0.78955078125,0.1234130859375,-0.045166015625
2.713,316,3147,1172,2172,-0.6900634765625,0.0389404296875,-0.029541015625
2.715,313,3147,1134,1686,-0.58447265625,-0.077392578125,0.021728515625
2.722,313,3147,1095,1316,-0.514404296875,-0.108642578125,0.006591796875
2.738,310,3147,996,453,-0.52001953125,-0.0228271484375,-0.0714111328125
2.744,308,2813,976,344,-0.57958984375,0.1627197265625,-0.1417236328125
2.759,310,2370,913,338,-0.6502685546875,0.344482421875,-0.180908203125
2.766,304,1675,883,331,-0.7181396484375,0.4031982421875,-0.199951171875
2.786,306,1440,883,328,-0.7867431640625,0.3729248046875,-0.198486328125
2.787,308,1051,869,331,-0.820556640625,0.3179931640625,-0.1744384765625
2.817,308,987,848,327,-0.8126220703125,0.2366943359375,-0.1494140625
2.818,306,966,811,328,-0.802490234375,0.162109375,-0.1356201171875
2.818,314,1022,818,324,-0.8167724609375,0.1365966796875,-0.12890625
2.826,304,951,827,326,-0.8531494140625,0.156982421875,-0.1231689453125
2.835,305,1018,846,328,-0.888427734375,0.203125,-0.1116943359375
2.842,306,1109,860,328,-0.905517578125,0.2412109375,-0.1021728515625
2.856,304,1323,906,328,-0.9022216796875,0.239990234375,-0.0980224609375
2.865,306,1469,913,328,-0.8885498046875,0.207275390625,-0.0980224609375
2.872,306,1611,923,331,-0.8770751953125,0.16748046875,-0.10400390625
2.890,306,1982,939,328,-0.8731689453125,0.1361083984375,-0.108154296875
2.894,308,2164,949,333,-0.8717041015625,0.1181640625,-0.101806640625
2.907,308,2341,955,334,-0.8614501953125,0.113037109375,-0.0897216796875
2.916,308,2683,973,336,-0.8466796875,0.116455078125,-0.0859375
2.925,310,2921,1012,338,-0.83251953125,0.1199951171875,-0.0899658203125
2.932,309,3147,1029,351,-0.8150634765625,0.1070556640625,-0.096923828125
2.947,304,3147,1066,766,-0.791748046875,0.064453125,-0.100830078125
2.954,310,3147,1131,1065,-0.7430419921875,0.012939453125,-0.0838623046875
2.962,310,3147,1185,1490,-0.6151123046875,-0.0128173828125,-0.0574951171875
2.991,313,3147,1211,2215,-0.372314453125,-0.0057373046875,-0.055419921875
2.992,313,3147,1213,2599,-0.07568359375,0.0281982421875,-0.0986328125
2.992,313,3147,1219,2912,0.1541748046875,0.1141357421875,-0.171630859375
3.006,315,3147,1348,3147,0.1353759765625,0.2626953125,-0.2261962890625
3.018,316,3147,1450,3147,-0.221435546875,0.5328369140625,-0.1783447265625
3.030,318,3147,1590,3147,-0.8009033203125,0.8438720703125,-0.0750732421875
3.036,364,3147,1783,3147,-1.388671875,0.8958740234375,-0.0662841796875
3.045,332,3147,1931,3147,-1.8387451171875,0.5689697265625,-0.166748046875
3.052,387,3147,2010,3147,-2.172119140625,0.146240234375,-0.3072509765625
3.066,555,3147,2035,3147,-2.4322509765625,0.0003662109375,-0.3121337890625
3.074,401,3147,2012,3147,-2.6044921875,-0.0445556640625,-0.1280517578125
3.082,1415,3147,1996,3147,-2.477294921875,-0.4349365234375,0.120849609375
3.098,378,3147,1881,3147,-1.8028564453125,-0.8656005859375,0.4459228515625
3.105,625,3147,1697,3147,-0.92822265625,-0.5126953125,0.646728515625
3.123,378,3147,1843,3147,-0.92822265625,-0.5126953125,0.646728515625
3.128,347,3147,1891,3147,-1.026123046875,0.927734375,-0.2305908203125
3.134,377,3147,1862,3147,-1.6529541015625,0.7845458984375,-0.592529296875
3.143,373,3147,1792,3147,-1.6529541015625,0.7845458984375,-0.592529296875
3.156,653,3147,1545,3147,-1.625244140625,0.12451171875,-0.3203125
3.165,508,3147,385,3147,-1.3218994140625,0.0462646484375,-0.1226806640625
3.172,347,3147,1727,3147,-1.3218994140625,0.0462646484375,-0.1226806640625
3.193,879,3147,1557,540,-1.0198974609375,0.1480712890625,0.0640869140625
3.221,829,3147,1010,2532,-0.957763671875,0.1776123046875,0.1103515625
3.221,808,3147,607,1936,-0.957763671875,0.1776123046875,0.1103515625
3.221,318,3147,1362,2238,-0.7237548828125,-0.0218505859375,0.1024169921875
3.224,315,3147,1331,1810,-0.635009765625,-0.0887451171875,0.068603515625
3.232,317,3147,1258,1331,-0.635009765625,-0.0887451171875,0.068603515625
3.246,318,3147,1183,694,-0.62109375,-0.0924072265625,-0.022705078125
3.254,313,3092,1132,351,-0.664306640625,-0.0380859375,-0.051025390625
3.263,313,2612,1067,345,-0.664306640625,-0.0380859375,-0.051025390625
3.276,310,1848,998,338,-0.69921875,0.162109375,-0.168212890625
3.285,308,1549,944,342,-0.676513671875,0.19677734375,-0.233154296875
3.298,310,1255,899,330,-0.676513671875,0.19677734375,-0.233154296875
3.332,308,927,844,327,-0.7437744140625,0.278564453125,-0.2264404296875
3.333,308,887,813,324,-0.80615234375,0.308837890625,-0.205078125
3.333,307,855,814,332,-0.80615234375,0.308837890625,-0.205078125
3.336,305,816,800,328,-0.8411865234375,0.30859375,-0.19287109375
3.344,306,818,803,327,-0.8411865234375,0.30859375,-0.19287109375
3.352,306,879,813,328,-0.84619140625,0.3421630859375,-0.175048828125
3.366,306,1007,869,328,-0.853515625,0.3067626953125,-0.1278076171875
3.374,306,1138,900,328,-0.853515625,0.3067626953125,-0.1278076171875
3.382,306,1273,912,332,-0.849853515625,0.222900390625,-0.1104736328125
3.400,306,1561,918,328,-0.8665771484375,0.1370849609375,-0.099365234375
3.404,306,1730,933,331,-0.8665771484375,0.1370849609375,-0.099365234375
3.416,307,1954,933,334,-0.8731689453125,0.12548828125,-0.1080322265625
3.438,308,2347,952,334,-0.84765625,0.0833740234375,-0.1229248046875
3.440,310,2627,985,342,-0.84765625,0.0833740234375,-0.1229248046875
3.443,309,2909,1005,338,-0.84619140625,0.07666015625,-0.12841796875
3.456,310,3147,1025,382,-0.8526611328125,0.0977783203125,-0.15283203125
3.464,313,3147,1071,644,-0.8526611328125,0.0977783203125,-0.15283203125
3.472,310,3147,1091,895,-0.8416748046875,0.10400390625,-0.1656494140625
3.486,310,3147,1091,1501,-0.72607421875,0.14990234375,-0.1343994140625
3.502,313,3147,1071,1880,-0.72607421875,0.14990234375,-0.1343994140625
3.502,313,3147,1050,2172,-0.606201171875,0.1876220703125,-0.1048583984375
3.534,313,3147,1078,2840,-0.2467041015625,0.140625,-0.076416015625
3.534,313,3147,1078,3147,-0.2467041015625,0.140625,-0.076416015625
3.535,296,3147,1130,3147,-0.1065673828125,0.0992431640625,0.0440673828125
3.548,316,3147,1393,3147,-0.1304931640625,0.1708984375,0.195556640625
3.554,317,3147,1519,3147,-0.3861083984375,0.32275390625,0.259521484375
3.563,322,3147,1656,3147,-0.82080078125,0.4322509765625,0.1923828125
3.576,327,3147,1850,3147,-1.3192138671875,0.430419921875,-0.036865234375
3.584,371,3147,1931,3147,-1.75830078125,0.3914794921875,-0.3570556640625
3.593,1146,3147,975,632,-2.091552734375,0.4586181640625,-0.5467529296875
3.606,361,3147,1981,3147,-2.3388671875,0.482666015625,-0.45751953125
3.614,364,3147,1931,3147,-2.4442138671875,0.232666015625,-0.2510986328125
3.641,361,3147,1899,3147,-2.231689453125,-0.2926025390625,0.06298828125
3.642,362,3147,1900,3147,-1.58740234375,-0.630615234375,0.5198974609375
3.644,384,3147,1867,3147,-0.93359375,-0.229736328125,0.625244140625
3.652,1189,3147,1313,3147,-0.9375,0.6239013671875,0.1041259765625
3.666,913,3147,1660,3147,-1.483154296875,1.028076171875,-0.51416015625
3.674,1184,3147,1792,3147,-1.8260498046875,0.6593017578125,-0.6707763671875
3.683,653,3147,1828,3147,-1.7003173828125,0.18896484375,-0.4365234375
3.697,1112,3147,980,3115,-1.383056640625,0.08935546875,-0.15966796875
3.705,1735,3147,518,1912,-1.111328125,0.13623046875,-0.0030517578125
3.712,1258,3147,733,2785,-0.9490966796875,0.10888671875,0.080322265625
3.746,333,3147,1546,2658,-0.86767578125,0.030029296875,0.149169921875
3.747,344,3147,1472,2263,-0.80810546875,-0.0361328125,0.1806640625
3.747,327,3147,1445,2065,-0.748046875,-0.07080078125,0.1502685546875
3.756,318,3147,1318,1450,-0.7000732421875,-0.084228515625,0.1004638671875
3.765,319,3147,1220,1038,-0.6663818359375,-0.091552734375,0.028564453125
3.773,318,3147,1183,648,-0.650146484375,-0.0841064453125,-0.0670166015625
3.786,315,2944,1043,347,-0.636962890625,-0.022705078125,-0.1201171875
3.794,314,2600,1014,338,-0.6207275390625,0.0982666015625,-0.1265869140625
3.809,315,2330,971,344,-0.6162109375,0.230712890625,-0.142578125
3.816,314,2021,957,336,-0.623779296875,0.316162109375,-0.1871337890625
3.846,308,1801,912,338,-0.6507568359375,0.337890625,-0.2264404296875
3.846,310,1627,917,334,-0.7119140625,0.3372802734375,-0.2335205078125
3.847,292,1424,918,328,-0.7821044921875,0.349365234375,-0.218505859375
3.855,308,1382,937,331,-0.831298828125,0.361328125,-0.2022705078125
3.863,310,1449,946,334,-0.8662109375,0.36767578125,-0.1953125
3.871,308,1474,944,332,-0.8897705078125,0.3753662109375,-0.194580078125
3.885,310,1545,944,332,-0.9000244140625,0.36474609375,-0.18505859375
3.893,306,1641,957,334,-0.90087890625,0.3133544921875,-0.16357421875
3.901,309,1775,949,334,-0.8922119140625,0.2332763671875,-0.14306640625
3.915,306,2072,966,333,-0.884033203125,0.16455078125,-0.131103515625
3.926,307,2188,973,334,-0.88134765625,0.1295166015625,-0.121826171875
3.950,309,2364,989,338,-0.8731689453125,0.116943359375,-0.11328125
3.950,309,2622,985,332,-0.8548583984375,0.10888671875,-0.108642578125
3.953,307,2847,1018,346,-0.8372802734375,0.11083984375,-0.1075439453125
3.962,308,3057,1014,347,-0.83154296875,0.1292724609375,-0.1065673828125
3.975,310,3147,1051,468,-0.83544921875,0.1458740234375,-0.103759765625
3.983,310,3147,1103,668,-0.840576171875,0.1441650390625,-0.1024169921875
3.998,312,3147,1120,797,-0.8458251953125,0.1279296875,-0.1085205078125
4.014,313,3147,1175,1216,-0.8424072265625,0.1109619140625,-0.122314453125
4.014,312,3147,1131,1450,-0.8143310546875,0.109130859375,-0.127685546875
4.021,314,3147,1085,1770,-0.7252197265625,0.1405029296875,-0.08984375
4.046,310,3147,998,2422,-0.533447265625,0.16455078125,-0.0218505859375
4.054,304,3147,980,2798,-0.308837890625,0.1414794921875,0.037109375
4.055,308,3147,971,3146,-0.16650390625,0.1253662109375,0.0986328125
4.065,315,3147,1122,3147,-0.12060546875,0.200927734375,0.1751708984375
4.073,315,3147,1306,3147,-0.190185546875,0.3480224609375,0.2154541015625
4.082,318,3147,1456,3147,-0.4498291015625,0.4107666015625,0.1390380859375
4.095,321,3147,1709,3147,-0.9163818359375,0.301025390625,-0.0870361328125
4.103,325,3147,1803,3147,-1.493896484375,0.1488037109375,-0.353271484375
4.117,346,3147,1908,3147,-2.0128173828125,0.200927734375,-0.523193359375
4.125,347,3147,2032,3147,-2.4031982421875,0.4027099609375,-0.5543212890625
4.144,331,3147,2012,3147,-2.6229248046875,0.450927734375,-0.4639892578125
4.144,323,3147,1960,3147,-2.6229248046875,0.450927734375,-0.4639892578125
4.161,324,3147,1927,3147,-1.8125,-0.326416015625,0.255126953125
4.163,327,3147,1920,3147,-0.9486083984375,-0.376220703125,0.6041259765625
4.171,324,3147,1908,3147,-0.9486083984375,-0.376220703125,0.6041259765625
4.185,324,3147,1895,3147,-1.0579833984375,0.82177734375,-0.306884765625
4.193,324,3147,1878,3147,-1.6744384765625,0.850830078125,-0.6427001953125
4.202,324,3147,1852,3147,-1.6744384765625,0.850830078125,-0.6427001953125
4.224,323,3147,1800,3147,-1.660888671875,0.2091064453125,-0.3343505859375
4.224,323,3147,1750,3147,-1.3531494140625,0.1781005859375,-0.187255859375
4.247,321,3147,1722,3147,-1.3531494140625,0.1781005859375,-0.187255859375
4.247,319,3147,1650,3147,-1.024169921875,0.094482421875,0.0035400390625
4.273,318,3147,1584,3147,-0.964599609375,0.0185546875,0.1185302734375
4.274,302,3147,1494,2912,-0.964599609375,0.0185546875,0.1185302734375
4.275,316,3147,1313,2382,-0.7427978515625,-0.1759033203125,0.1282958984375
4.287,316,3147,1229,2047,-0.64697265625,-0.2086181640625,0.063232421875
4.293,315,3147,1224,1678,-0.64697265625,-0.2086181640625,0.063232421875
4.305,315,3147,1129,1071,-0.5684814453125,0.05029296875,0.0074462890625
4.321,313,3147,1067,784,-0.5740966796875,0.22216796875,-0.0399169921875
4.323,312,3147,971,418,-0.5740966796875,0.22216796875,-0.0399169921875
4.336,313,2899,966,344,-0.6204833984375,0.356689453125,-0.1651611328125
4.352,309,2671,947,338,-0.6204833984375,0.356689453125,-0.1651611328125
4.357,308,2432,925,322,-0.643310546875,0.3428955078125,-0.24853515625
4.365,308,2100,898,332,-0.760986328125,0.3121337890625,-0.285888671875
4.376,308,1863,883,314,-0.760986328125,0.3121337890625,-0.285888671875
4.382,308,1830,899,332,-0.8255615234375,0.2791748046875,-0.265380859375
4.396,308,1855,897,332,-0.875,0.1871337890625,-0.2286376953125
4.403,306,1902,895,336,-0.875,0.1871337890625,-0.2286376953125
4.411,308,1980,883,334,-0.8802490234375,0.1876220703125,-0.2208251953125
4.426,306,2124,900,333,-0.8751220703125,0.19091796875,-0.1962890625
4.436,306,2197,913,334,-0.8751220703125,0.19091796875,-0.1962890625
4.459,307,2320,910,336,-0.878662109375,0.17529296875,-0.1632080078125
4.459,306,2512,920,334,-0.92236328125,0.2125244140625,-0.11669921875
4.464,306,2612,920,336,-0.92236328125,0.2125244140625,-0.11669921875
4.471,306,2713,934,334,-0.930419921875,0.2236328125,-0.11572265625
4.485,304,2936,978,338,-0.888671875,0.154541015625,-0.080322265625
4.493,307,3089,999,345,-0.888671875,0.154541015625,-0.080322265625
4.502,308,3147,1003,346,-0.8533935546875,0.1317138671875,-0.0576171875
4.516,310,3147,1026,744,-0.7867431640625,0.1265869140625,-0.0419921875
4.526,308,3147,1038,1064,-0.7867431640625,0.1265869140625,-0.0419921875
4.532,310,3147,960,1419,-0.698486328125,0.08837890625,-0.0628662109375
4.566,313,3147,814,2074,-0.3619384765625,0.02685546875,-0.075927734375
4.567,308,3147,721,2435,-0.3619384765625,0.02685546875,-0.075927734375
4.567,306,3147,683,2754,-0.23828125,0.1170654296875,-0.0615234375
4.575,306,3147,753,3147,-0.176513671875,0.2322998046875,-0.0721435546875
4.589,305,3147,780,3147,-0.1455078125,0.256103515625,-0.1148681640625
4.591,306,3147,947,3147,-0.2071533203125,0.2874755859375,-0.1409912109375
4.605,310,3147,1282,3147,-0.408203125,0.41455078125,-0.1187744140625
4.614,315,3147,1470,3147,-0.7735595703125,0.5045166015625,-0.080078125
4.627,315,3147,1600,3147,-1.258056640625,0.3408203125,-0.060302734375
4.635,317,3147,1791,3147,-1.70361328125,0.0150146484375,-0.106201171875
4.659,318,3147,1888,3147,-2.070068359375,-0.0142822265625,-0.1783447265625
4.691,323,3147,1981,3147,-2.34619140625,0.28076171875,-0.2371826171875
4.691,321,3147,1912,3147,-2.4808349609375,0.4678955078125,-0.2882080078125
4.691,321,3147,1861,3147,-2.3936767578125,0.173583984375,-0.138427734375
4.691,304,3147,1849,3147,-1.7972412109375,-0.3731689453125,0.3060302734375
4.775,319,3147,1849,3147,-0.9189453125,-0.37255859375,0.586181640625
4.778,321,3147,1864,3147,-0.631591796875,0.251708984375,0.26953125
4.778,316,3147,1890,3147,-1.1549072265625,0.7528076171875,-0.3468017578125
4.778,306,3147,1899,3147,-1.7655029296875,0.697509765625,-0.644287109375
4.778,321,3147,1883,3147,-1.8958740234375,0.3963623046875,-0.4852294921875
4.778,321,3147,1828,3147,-1.6322021484375,0.2408447265625,-0.2119140625
4.778,318,3147,1774,3147,-1.304443359375,0.167236328125,-0.0435791015625
4.778,301,3147,1652,3147,-1.135986328125,0.0975341796875,0.039306640625
4.778,316,3147,1636,3147,-1.1180419921875,0.077880859375,0.0966796875
4.787,316,3147,1529,3147,-1.116943359375,0.0550537109375,0.1151123046875
4.801,316,3147,1447,3147,-1.0250244140625,-0.0347900390625,0.0869140625
4.802,298,3147,1366,2788,-0.845947265625,-0.1170654296875,0.03466796875
4.816,315,3147,1276,2050,-0.671630859375,-0.0936279296875,-0.021728515625
4.823,315,3147,1250,1643,-0.5751953125,-0.0128173828125,-0.0357666015625
4.831,313,3147,1201,1217,-0.5341796875,-0.0006103515625,0.0015869140625
4.864,308,3147,1065,431,-0.5174560546875,-0.04150390625,0.0286865234375
4.864,308,2940,1022,325,-0.529541015625,0.0091552734375,-0.00390625
4.864,313,2503,1012,342,-0.5557861328125,0.16259765625,-0.096923828125
4.876,306,2121,969,332,-0.5965576171875,0.2969970703125,-0.2015380859375
4.883,306,1789,944,334,-0.6656494140625,0.3583984375,-0.2557373046875
4.891,307,1580,920,332,-0.7532958984375,0.359619140625,-0.2568359375
4.908,306,1274,923,328,-0.8267822265625,0.3212890625,-0.2410888671875
4.913,304,1104,917,327,-0.8662109375,0.2698974609375,-0.220458984375
4.923,304,1004,921,329,-0.88330078125,0.2384033203125,-0.19287109375
4.936,304,883,894,326,-0.89501953125,0.243896484375,-0.16455078125
4.943,304,840,883,324,-0.904541015625,0.25439453125,-0.147705078125
4.966,306,811,871,327,-0.9075927734375,0.24267578125,-0.1455078125
4.966,306,829,894,324,-0.9029541015625,0.222412109375,-0.145263671875
4.974,308,869,922,324,-0.8951416015625,0.208251953125,-0.135986328125
4.981,306,913,934,327,-0.88671875,0.2017822265625,-0.1146240234375
4.995,306,986,963,324,-0.87890625,0.1983642578125,-0.0899658203125
5.003,305,1101,971,327,-0.8743896484375,0.190673828125,-0.07568359375
5.019,304,1282,974,330,-0.8682861328125,0.1640625,-0.0792236328125
5.025,306,1730,986,329,-0.84765625,0.1103515625,-0.0946044921875
5.039,306,2018,996,334,-0.8123779296875,0.046630859375,-0.1048583984375
5.042,306,2287,1000,336,-0.778564453125,0.0123291015625,-0.102783203125
5.067,304,2847,1050,338,-0.7596435546875,0.0426025390625,-0.085693359375
5.068,308,3147,1071,347,-0.7392578125,0.11328125,-0.067138671875
5.074,308,3147,1071,731,-0.6876220703125,0.138427734375,-0.0877685546875
5.085,307,3147,1055,1494,-0.5892333984375,0.076416015625,-0.147216796875
5.093,308,3147,1010,1960,-0.4434814453125,0.0001220703125,-0.20361328125
5.102,306,3147,849,2415,-0.2615966796875,0.0006103515625,-0.2108154296875
5.127,302,3147,938,3144,-0.0537109375,0.052734375,-0.166015625
5.128,310,3147,1071,3147,0.0599365234375,0.13671875,-0.05712890625
5.139,308,3147,1306,3147,-0.0797119140625,0.40234375,0.1046142578125
5.145,313,3147,1616,3147,-0.5189208984375,0.7540283203125,0.164306640625
5.170,315,3147,1733,3147,-1.1063232421875,0.773681640625,0.05712890625
5.170,318,3147,1877,3147,-1.61962890625,0.3924560546875,-0.1810302734375
5.176,321,3147,2047,3147,-1.9603271484375,0.0557861328125,-0.4268798828125
5.186,321,3147,2100,3147,-2.2127685546875,0.085205078125,-0.4229736328125
5.192,323,3147,2124,3147,-2.4490966796875,0.2596435546875,-0.2586669921875
5.205,318,3147,1996,3147,-2.57470703125,0.2412109375,-0.0992431640625
5.214,319,3147,1908,3147,-2.2926025390625,-0.181396484375,0.2257080078125
5.245,319,3147,1880,3147,-1.4697265625,-0.5006103515625,0.5955810546875
5.245,319,3147,1881,3147,-0.7486572265625,-0.0555419921875,0.526123046875
5.245,319,3147,1877,3147,-0.85302734375,0.75,-0.083740234375
5.252,318,3147,1860,3147,-1.5123291015625,1.0390625,-0.6591796875
5.280,315,3147,1820,3147,-1.8974609375,0.6170654296875,-0.7047119140625
5.280,318,3147,1785,3147,-1.741455078125,0.1541748046875,-0.3941650390625
5.284,316,3147,1730,3147,-1.3699951171875,0.0693359375,-0.115478515625
5.297,316,3147,1634,3147,-1.083984375,0.139892578125,0.0064697265625
5.304,315,3147,1572,3147,-0.9462890625,0.140380859375,0.05615234375
5.348,316,3147,1474,3147,-0.9124755859375,0.1041259765625,0.10693359375
5.348,315,3147,1382,2981,-0.888916015625,0.07958984375,0.1453857421875
5.348,315,3147,1321,2599,-0.80712890625,0.0323486328125,0.123291015625
5.356,313,3147,1267,2296,-0.6871337890625,-0.0599365234375,0.061279296875
5.372,313,3147,1204,1641,-0.59765625,-0.1416015625,0.0045166015625
5.372,310,3147,1160,1308,-0.565673828125,-0.1534423828125,-0.0474853515625
5.373,295,3147,1103,934,-0.565673828125,-0.1534423828125,-0.0474853515625
5.387,308,3147,1047,336,-0.57958984375,0.0599365234375,-0.1593017578125
5.394,305,2851,999,344,-0.613037109375,0.2459716796875,-0.2025146484375
5.402,306,2437,957,334,-0.613037109375,0.2459716796875,-0.2025146484375
5.416,308,2060,932,334,-0.708740234375,0.3909912109375,-0.2197265625
5.424,306,1662,907,334,-0.8115234375,0.384765625,-0.2010498046875
5.448,306,1441,891,331,-0.8115234375,0.384765625,-0.2010498046875
5.448,291,1276,923,330,-0.8565673828125,0.3597412109375,-0.2196044921875
5.454,305,1160,916,328,-0.8240966796875,0.296630859375,-0.2305908203125
5.474,306,1071,900,327,-0.8240966796875,0.296630859375,-0.2305908203125
5.476,306,984,871,328,-0.8115234375,0.21044921875,-0.19970703125
5.484,304,1038,854,327,-0.8533935546875,0.1861572265625,-0.1610107421875
5.493,305,1094,861,328,-0.8533935546875,0.1861572265625,-0.1610107421875
5.506,306,1345,883,327,-0.9432373046875,0.16552734375,-0.1014404296875
5.514,306,1483,910,330,-0.9364013671875,0.1585693359375,-0.0966796875
5.523,304,1669,906,330,-0.9364013671875,0.1585693359375,-0.0966796875
5.536,305,2007,895,331,-0.8851318359375,0.1470947265625,-0.11376953125
5.553,306,2228,923,334,-0.857177734375,0.1485595703125,-0.1241455078125
5.553,306,2407,994,334,-0.857177734375,0.1485595703125,-0.1241455078125
5.590,306,2851,986,334,-0.8062744140625,0.123291015625,-0.1129150390625
5.590,308,3115,959,342,-0.7896728515625,0.1103515625,-0.09716796875
5.590,306,3147,907,458,-0.7896728515625,0.1103515625,-0.09716796875
5.596,307,3147,894,891,-0.7110595703125,0.1229248046875,-0.07421875
5.605,306,3147,841,1283,-0.7110595703125,0.1229248046875,-0.07421875
5.612,306,3147,803,1622,-0.64990234375,0.10888671875,-0.0762939453125
5.627,304,3147,706,2268,-0.50537109375,0.093994140625,-0.158203125
5.634,304,3147,723,2659,-0.50537109375,0.093994140625,-0.158203125
5.643,307,3147,749,3061,-0.3419189453125,0.077392578125,-0.2298583984375
5.659,301,3147,939,3147,-0.2181396484375,0.2415771484375,-0.063720703125
5.670,309,3147,1109,3147,-0.2181396484375,0.2415771484375,-0.063720703125
5.679,316,3147,1348,3147,-0.392822265625,0.6942138671875,0.1409912109375
5.694,314,3147,1650,3147,-1.025390625,0.577880859375,-0.0538330078125
5.695,313,3147,1757,3147,-1.025390625,0.577880859375,-0.0538330078125
5.703,317,3147,1891,3147,-1.3836669921875,-0.009033203125,-0.318603515625
5.717,321,3147,2058,3147,-2.1573486328125,0.2191162109375,-0.3876953125
5.725,321,3147,2128,3147,-2.1573486328125,0.2191162109375,-0.3876953125
5.732,321,3147,2061,3147,-2.4500732421875,0.56591796875,-0.20703125
5.760,317,3147,1943,3147,-2.0938720703125,-0.046142578125,0.227783203125
5.762,317,3147,1891,3147,-2.0938720703125,-0.046142578125,0.227783203125
5.763,301,3147,1881,3147,-1.3692626953125,-0.4158935546875,0.59130859375
5.785,315,3147,1867,3147,-0.8399658203125,0.3934326171875,0.0255126953125
5.787,318,3147,1865,3147,-0.8399658203125,0.3934326171875,0.0255126953125
5.792,317,3147,1846,3147,-1.3878173828125,0.63232421875,-0.52099609375
5.806,317,3147,1801,3147,-1.7777099609375,0.4005126953125,-0.63427734375
5.815,317,3147,1781,3147,-1.764404296875,0.12939453125,-0.3798828125
5.823,316,3147,1750,3147,-1.514404296875,0.1181640625,-0.09130859375
5.836,316,3147,1628,3147,-1.22607421875,0.181640625,0.029541015625
5.845,316,3147,1561,3147,-0.999755859375,0.0972900390625,0.025390625
5.887,316,3147,1494,3147,-0.855712890625,-0.0775146484375,0.00634765625
5.888,312,3147,1351,2662,-0.768798828125,-0.1719970703125,0.0042724609375
5.888,313,3147,1316,2362,-0.691162109375,-0.0987548828125,-0.0028076171875
5.888,310,3147,1241,1997,-0.6065673828125,0.0662841796875,-0.02587890625
5.896,308,3147,1191,1481,-0.5380859375,0.16015625,-0.0694580078125
5.905,309,3147,1136,1134,-0.51904296875,0.1265869140625,-0.1224365234375
5.913,308,3147,1071,811,-0.562255859375,0.092041015625,-0.151611328125
5.926,307,3147,978,361,-0.6343994140625,0.1644287109375,-0.158203125
5.935,308,2927,963,345,-0.693603515625,0.285888671875,-0.1705322265625
5.943,307,2689,988,344,-0.73681640625,0.3612060546875,-0.19287109375
5.960,306,2368,947,336,-0.7802734375,0.365234375,-0.205322265625
5.987,308,2058,944,334,-0.83154296875,0.32080078125,-0.1995849609375
5.988,305,1897,959,332,-0.8724365234375,0.2696533203125,-0.1885986328125
5.989,308,1622,937,332,-0.8824462890625,0.2237548828125,-0.1873779296875
5.996,304,1578,968,331,-0.878662109375,0.1917724609375,-0.1871337890625
6.003,304,1494,969,330,-0.880126953125,0.19091796875,-0.1719970703125
6.011,306,1483,974,332,-0.888427734375,0.204833984375,-0.1544189453125
6.025,306,1478,996,331,-0.896728515625,0.2147216796875,-0.1439208984375
6.034,306,1604,1014,333,-0.8912353515625,0.21044921875,-0.1346435546875
6.043,306,1739,1026,334,-0.875,0.184326171875,-0.1248779296875
6.064,307,1996,1014,334,-0.8663330078125,0.1494140625,-0.113525390625
6.064,306,2155,1025,323,-0.8658447265625,0.126953125,-0.1016845703125
6.100,306,2253,1037,342,-0.85595703125,0.11767578125,-0.0960693359375
6.100,291,2601,1050,344,-0.8294677734375,0.1033935546875,-0.0992431640625
6.100,308,2872,1014,324,-0.787841796875,0.0721435546875,-0.1070556640625
6.102,299,3147,1076,348,-0.7293701171875,0.0325927734375,-0.1102294921875
6.115,308,3147,1149,815,-0.671875,-0.0018310546875,-0.1104736328125
6.124,310,3147,1184,1143,-0.6356201171875,-0.0096435546875,-0.10888671875
6.140,309,3147,1173,1550,-0.60009765625,0.0367431640625,-0.1112060546875
6.147,310,3147,1160,2296,-0.5513916015625,0.1563720703125,-0.1171875
6.153,308,3147,1191,2785,-0.4669189453125,0.3179931640625,-0.107666015625
6.163,312,3147,1224,3147,-0.31640625,0.3856201171875,-0.104736328125
6.195,310,3147,1428,3147,-0.07373046875,0.12841796875,0.0400390625
6.195,312,3147,1506,3147,-0.1856689453125,0.2032470703125,0.1397705078125
6.206,313,3147,1650,3147,-0.6029052734375,0.4678955078125,0.0582275390625
6.213,309,3147,1686,3147,-1.255859375,0.755615234375,-0.1204833984375
6.222,315,3147,1789,3147,-1.889892578125,0.9176025390625,-0.3262939453125
6.235,316,3147,1931,3147,-2.33984375,0.8218994140625,-0.4969482421875
6.244,318,3147,1941,3147,-2.64697265625,0.4423828125,-0.540771484375
6.251,316,3147,1896,3147,-2.770263671875,-0.065185546875,-0.4381103515625
6.265,315,3147,1762,3147,-2.375732421875,-0.6739501953125,0.0106201171875
6.273,315,3147,1733,3147,-1.433349609375,-0.9224853515625,0.5927734375
6.307,315,3147,1750,3147,-0.6951904296875,-0.306396484375,0.6195068359375
6.307,314,3147,1794,3147,-0.837646484375,0.68701171875,0.0123291015625
6.307,313,3147,1800,3147,-1.5250244140625,1.1488037109375,-0.5767822265625
6.311,316,3147,1807,3147,-1.92333984375,0.814208984375,-0.621826171875
6.325,313,3147,1796,3147,-1.767822265625,0.28955078125,-0.2728271484375
6.333,314,3147,1800,3147,-1.3824462890625,0.0428466796875,0.033935546875
6.341,314,3147,1773,3147,-1.0926513671875,0.01318359375,0.1370849609375
6.355,315,3147,1681,3147,-0.9608154296875,0.0205078125,0.13134765625
6.371,315,3147,1608,3147,-0.908447265625,0.0067138671875,0.119384765625
6.372,314,3147,1506,3147,-0.8463134765625,-0.037841796875,0.127197265625
6.385,313,3147,1355,2925,-0.727294921875,-0.1180419921875,0.1063232421875
6.405,313,3147,1308,2627,-0.5855712890625,-0.197509765625,0.03662109375
6.405,313,3147,1260,2317,-0.5855712890625,-0.197509765625,0.03662109375
6.415,312,3147,1184,1811,-0.4769287109375,-0.158935546875,-0.1099853515625
6.423,310,3147,1104,1557,-0.5177001953125,-0.0562744140625,-0.1676025390625
6.431,309,3147,1071,1276,-0.5177001953125,-0.0562744140625,-0.1676025390625
6.445,310,3147,1005,800,-0.638427734375,0.3560791015625,-0.2271728515625
6.454,308,3147,992,648,-0.6898193359375,0.526611328125,-0.249755859375
6.462,308,3147,966,521,-0.6898193359375,0.526611328125,-0.249755859375
6.475,304,3147,964,359,-0.7965087890625,0.5751953125,-0.1956787109375
6.491,306,3147,980,344,-0.8154296875,0.4478759765625,-0.1632080078125
6.507,308,3147,975,342,-0.8154296875,0.4478759765625,-0.1632080078125
6.508,306,3147,969,343,-0.8359375,0.203125,-0.16357421875
6.514,306,3147,1000,338,-0.861328125,0.170166015625,-0.15869140625
6.522,306,3147,1005,347,-0.861328125,0.170166015625,-0.15869140625
6.535,301,3147,1021,496,-0.8961181640625,0.18017578125,-0.1143798828125
6.544,307,3147,1018,576,-0.916748046875,0.1837158203125,-0.1070556640625
6.552,308,3147,1025,607,-0.916748046875,0.1837158203125,-0.1070556640625
6.575,306,3147,1024,754,-0.939697265625,0.1805419921875,-0.12109375
6.575,306,3147,1043,818,-0.9263916015625,0.147216796875,-0.111572265625
6.596,304,3147,1056,899,-0.9263916015625,0.147216796875,-0.111572265625
6.601,304,3147,1096,1103,-0.885986328125,0.1015625,-0.0780029296875
6.612,308,3147,1101,1225,-0.8624267578125,0.09130859375,-0.0743408203125
6.613,308,3147,1131,1348,-0.8624267578125,0.09130859375,-0.0743408203125
6.626,308,3147,1170,1649,-0.8031005859375,0.0604248046875,-0.0762939453125
6.634,308,3147,1157,1864,-0.8031005859375,0.0604248046875,-0.0762939453125
6.641,309,3147,1123,2082,-0.746337890625,0.072509765625,-0.090576171875
6.655,308,3147,951,2631,-0.5411376953125,0.1390380859375,-0.1092529296875
6.664,307,3147,855,3078,-0.5411376953125,0.1390380859375,-0.1092529296875
6.675,306,3147,816,3147,-0.37109375,0.167724609375,-0.1219482421875
6.686,306,3147,722,3147,-0.1973876953125,0.2813720703125,-0.0404052734375
6.706,304,3147,757,3147,-0.1973876953125,0.2813720703125,-0.0404052734375
6.708,307,3147,815,3147,-0.27880859375,0.3280029296875,0.03271484375
6.717,306,3147,1039,3147,-0.6983642578125,0.295166015625,0.04931640625
6.724,308,3147,1199,3147,-0.6983642578125,0.295166015625,0.04931640625
6.733,308,3147,1253,3147,-1.04150390625,0.2723388671875,-0.0521240234375
6.745,314,3147,1452,3147,-1.7947998046875,0.32958984375,-0.294677734375
6.753,313,3147,1580,3147,-1.7947998046875,0.32958984375,-0.294677734375
6.762,314,3147,1636,3147,-2.102294921875,0.498046875,-0.2806396484375
6.777,315,3147,1715,3147,-2.3697509765625,0.5283203125,-0.185791015625
6.784,313,3147,1675,3147,-2.3697509765625,0.5283203125,-0.185791015625
6.826,315,3147,1662,3147,-2.0186767578125,-0.058349609375,0.0771484375
6.826,313,3147,1681,3147,-0.604736328125,-0.1463623046875,0.6483154296875
6.827,315,3147,1697,3147,-0.604736328125,-0.1463623046875,0.6483154296875
6.827,315,3147,1675,3147,-0.825439453125,0.4185791015625,0.232666015625
6.836,315,3147,1744,3147,-1.4884033203125,0.6466064453125,-0.2703857421875
6.844,314,3147,1735,3147,-1.8948974609375,0.490478515625,-0.4168701171875
6.852,314,3147,1693,3147,-1.8380126953125,0.2984619140625,-0.2371826171875
6.865,310,3147,1635,3147,-1.5299072265625,0.2274169921875,-0.013916015625
6.880,313,3147,1579,3147,-1.2412109375,0.160400390625,0.080078125
6.882,307,3147,1514,3147,-1.0955810546875,0.0740966796875,0.084716796875
6.908,311,3147,1396,3147,-1.0496826171875,0.029296875,0.0693359375
6.908,308,3147,1271,3147,-0.9959716796875,-0.009033203125,0.0152587890625
6.912,309,3147,1236,3147,-0.876220703125,-0.0771484375,-0.0606689453125
6.935,308,3147,1143,3001,-0.7105712890625,-0.1136474609375,-0.107666015625
6.936,310,3147,1146,2624,-0.5545654296875,-0.0826416015625,-0.1246337890625
6.942,310,3147,1143,2330,-0.47021484375,-0.0400390625,-0.095947265625
6.955,307,3147,1054,1844,-0.4676513671875,-0.0013427734375,-0.046630859375
6.964,306,3147,989,1595,-0.5113525390625,0.06494140625,-0.0550537109375
6.972,307,3147,973,1363,-0.5738525390625,0.187255859375,-0.1104736328125
6.985,306,3147,934,1067,-0.6231689453125,0.344482421875,-0.149658203125
7.001,308,3147,910,991,-0.6531982421875,0.462646484375,-0.1590576171875
7.013,307,3147,910,942,-0.6834716796875,0.482666015625,-0.154296875
7.016,307,3147,951,966,-0.7269287109375,0.4195556640625,-0.1478271484375
7.024,308,3147,963,1018,-0.7850341796875,0.3433837890625,-0.1339111328125
7.045,306,3147,964,1050,-0.8548583984375,0.300048828125,-0.1129150390625
7.045,295,3147,1000,1010,-0.927490234375,0.2886962890625,-0.0997314453125
7.054,304,3147,1003,968,-0.970947265625,0.272216796875,-0.0928955078125
7.062,306,3147,1004,962,-0.977783203125,0.2254638671875,-0.087646484375
7.076,306,3147,1026,1029,-0.9703369140625,0.170166015625,-0.0849609375
7.086,306,3147,1038,1081,-0.9583740234375,0.1280517578125,-0.089599609375
7.092,308,3147,1042,1153,-0.9471435546875,0.1016845703125,-0.0994873046875
7.134,308,3147,1067,1241,-0.9346923828125,0.0911865234375,-0.1041259765625
7.134,310,3147,1081,1303,-0.9150390625,0.09326171875,-0.104248046875
7.134,308,3147,1085,1386,-0.8878173828125,0.1036376953125,-0.1044921875
7.142,308,3147,1138,1516,-0.8609619140625,0.12158203125,-0.10205078125
7.143,309,3147,1163,1616,-0.8465576171875,0.145751953125,-0.0908203125
7.152,308,3147,1204,1729,-0.8360595703125,0.1630859375,-0.0660400390625
7.166,309,3147,1216,1952,-0.7979736328125,0.13525390625,-0.0557861328125
7.174,310,3147,1250,2167,-0.7335205078125,0.0489501953125,-0.086181640625
7.189,308,3147,1266,2399,-0.6669921875,-0.01708984375,-0.117919921875
7.196,313,3147,1283,2916,-0.60546875,0.0343017578125,-0.1280517578125
7.216,310,3147,1266,3147,-0.5303955078125,0.188232421875,-0.140625
7.217,316,3147,1289,3147,-0.4080810546875,0.3304443359375,-0.1419677734375
7.227,308,3147,1348,3147,-0.259521484375,0.3580322265625,-0.1102294921875
7.235,312,3147,1440,3147,-0.16748046875,0.2945556640625,-0.077392578125
7.250,310,3147,1497,3147,-0.21240234375,0.29833984375,-0.0858154296875
7.256,313,3147,1662,3147,-0.41455078125,0.431640625,-0.119140625
7.265,316,3147,1750,3147,-0.7730712890625,0.568359375,-0.10693359375
7.272,318,3147,1852,3147,-1.2642822265625,0.627197265625,-0.080078125
7.290,321,3147,2010,3147,-1.81396484375,0.60595703125,-0.147216796875
7.295,323,3147,2116,3147,-2.3330078125,0.5081787109375,-0.235107421875
7.308,323,3147,2134,3147,-2.6995849609375,0.290771484375,-0.2041015625
7.317,321,3147,1996,3147,-2.6820068359375,-0.1162109375,-0.1282958984375
7.326,318,3147,1905,3147,-2.1026611328125,-0.6219482421875,0.1317138671875
7.333,318,3147,1875,3147,-1.2156982421875,-0.740966796875,0.5838623046875
7.347,317,3147,1838,3147,-0.657958984375,-0.2083740234375,0.6649169921875
7.361,318,3147,1838,3147,-0.865478515625,0.53076171875,0.199462890625
7.363,316,3147,1803,3147,-1.5045166015625,0.826904296875,-0.32080078125
7.378,313,3147,1732,3147,-1.8887939453125,0.5423583984375,-0.4542236328125
7.392,316,3147,1666,3147,-1.7593994140625,0.162353515625,-0.2679443359375
7.393,316,3147,1634,3147,-1.3660888671875,0.040283203125,-0.036865234375
7.421,316,3147,1521,3147,-1.06396484375,0.0982666015625,0.0865478515625
7.421,315,3147,1516,3147,-0.9493408203125,0.1505126953125,0.0709228515625
7.423,317,3147,1429,3147,-0.929931640625,0.1844482421875,-0.020751953125
7.437,315,3147,1416,3147,-0.9014892578125,0.2431640625,-0.080810546875
7.445,310,3147,1358,3114,-0.80029296875,0.2918701171875,-0.076416015625
7.453,314,3147,1357,2807,-0.631591796875,0.23583984375,-0.0611572265625
7.467,308,3147,1336,2207,-0.4908447265625,0.0621337890625,-0.0499267578125
7.475,310,3147,1318,1852,-0.4451904296875,-0.1033935546875,-0.046630859375
7.483,310,3147,1303,1627,-0.4810791015625,-0.150634765625,-0.0634765625
7.497,310,3147,1253,1160,-0.558837890625,-0.0599365234375,-0.094970703125
7.505,310,3147,1223,1005,-0.64013671875,0.0933837890625,-0.1265869140625
7.513,309,3147,1211,826,-0.7197265625,0.215576171875,-0.1373291015625
7.527,308,3147,1184,618,-0.7943115234375,0.2713623046875,-0.1334228515625
7.534,310,3147,1166,531,-0.8448486328125,0.2725830078125,-0.125244140625
7.543,310,3147,1155,470,-0.8619384765625,0.23486328125,-0.0997314453125
7.557,309,3147,1151,506,-0.85205078125,0.1817626953125,-0.060302734375
7.570,308,3147,1160,540,-0.8389892578125,0.1517333984375,-0.0330810546875
7.573,308,3147,1183,639,-0.847412109375,0.1624755859375,-0.039306640625
7.586,310,3147,1198,816,-0.8773193359375,0.2098388671875,-0.0732421875
7.605,308,3147,1225,918,-0.9102783203125,0.271484375,-0.1181640625
7.606,310,3147,1233,1018,-0.923583984375,0.3017578125,-0.1639404296875
7.681,310,3147,1260,1156,-0.908935546875,0.2652587890625,-0.19189453125
7.681,310,3147,1262,1328,-0.8828125,0.1988525390625,-0.1898193359375
7.681,296,3147,1312,1428,-0.8828125,0.1988525390625,-0.1898193359375
7.681,308,3147,1348,1655,-0.8446044921875,0.1363525390625,-0.1451416015625
7.681,312,3147,1390,1808,-0.8321533203125,0.104248046875,-0.134521484375
7.681,313,3147,1433,1945,-0.8321533203125,0.104248046875,-0.134521484375
7.681,313,3147,1455,2178,-0.8624267578125,0.1348876953125,-0.106689453125
7.684,312,3147,1492,2379,-0.863525390625,0.2274169921875,-0.0933837890625
7.700,310,3147,1463,2638,-0.863525390625,0.2274169921875,-0.0933837890625
7.706,313,3147,1355,3140,-0.7064208984375,0.2652587890625,-0.1165771484375
7.715,310,3147,1317,3147,-0.5244140625,0.1773681640625,-0.1124267578125
7.744,309,3147,1330,3147,-0.5244140625,0.1773681640625,-0.1124267578125
7.744,309,3147,1375,3147,-0.205078125,-0.0162353515625,0.0372314453125
7.745,310,3147,1437,3147,-0.2421875,0.0504150390625,0.2174072265625
7.754,304,3147,1476,3147,-0.2421875,0.0504150390625,0.2174072265625
7.767,310,3147,1564,3147,-0.6754150390625,0.4029541015625,0.36669921875
7.783,315,3147,1640,3147,-1.0089111328125,0.4923095703125,0.1468505859375
7.783,316,3147,1652,3147,-1.0089111328125,0.4923095703125,0.1468505859375
7.801,315,3147,1811,3147,-1.7034912109375,0.4017333984375,-0.5009765625
7.804,318,3147,1904,3147,-1.985107421875,0.3333740234375,-0.5172119140625
7.818,316,3147,1934,3147,-1.985107421875,0.3333740234375,-0.5172119140625
7.838,317,3147,1920,3147,-2.329345703125,-0.0052490234375,0.009033203125
7.838,316,3147,1850,3147,-2.01904296875,-0.2840576171875,0.2083740234375
7.843,316,3147,1798,3147,-2.01904296875,-0.2840576171875,0.2083740234375
7.857,316,3147,1783,3147,-0.8359375,0.192626953125,0.3988037109375
7.865,316,3147,1813,3147,-0.8359375,0.192626953125,0.3988037109375
7.873,316,3147,1791,3147,-0.9827880859375,0.7474365234375,-0.00732421875
7.892,315,3147,1773,3147,-1.8682861328125,0.4481201171875,-0.423095703125
7.895,317,3147,1762,3147,-1.8682861328125,0.4481201171875,-0.423095703125
7.905,315,3147,1750,3147,-1.7667236328125,0.10107421875,-0.2366943359375
7.916,315,3147,1669,3147,-1.16015625,0.0675048828125,0.0692138671875
7.933,313,3147,1625,3147,-1.16015625,0.0675048828125,0.0692138671875
7.933,314,3147,1541,3147,-1.0010986328125,0.0706787109375,0.1239013671875
7.947,312,3147,1440,3147,-0.819580078125,-0.1177978515625,0.1156005859375
7.955,310,3147,1404,3090,-0.819580078125,-0.1177978515625,0.1156005859375
7.963,310,3147,1336,2707,-0.7005615234375,-0.2398681640625,0.0850830078125
7.977,312,3147,1275,2021,-0.60791015625,-0.1566162109375,-0.0589599609375
7.985,310,3147,1243,1624,-0.60791015625,-0.1566162109375,-0.0589599609375
7.995,313,3147,1183,1185,-0.6337890625,0.0206298828125,-0.1204833984375
8.006,308,3147,1129,411,-0.608154296875,0.26318359375,-0.1651611328125
8.015,308,2991,1081,344,-0.608154296875,0.26318359375,-0.1651611328125
8.037,308,2658,1050,345,-0.573974609375,0.3282470703125,-0.1868896484375
8.037,308,2337,999,318,-0.6585693359375,0.3841552734375,-0.1572265625
8.054,306,2078,1034,338,-0.6585693359375,0.3841552734375,-0.1572265625
8.054,306,1936,1039,334,-0.7528076171875,0.38525390625,-0.135009765625
8.070,306,1978,1048,334,-0.81787109375,0.280517578125,-0.0867919921875
8.077,308,2061,1056,336,-0.81787109375,0.280517578125,-0.0867919921875
8.086,299,2215,1070,334,-0.822265625,0.2449951171875,-0.0577392578125
8.110,308,2367,1079,338,-0.8482666015625,0.239990234375,-0.0528564453125
8.112,308,2460,1081,337,-0.89013671875,0.234375,-0.0657958984375
8.115,308,2580,1083,334,-0.93310546875,0.21142578125,-0.0750732421875
8.151,308,2760,1101,344,-0.960693359375,0.18115234375,-0.078369140625
8.153,306,2905,1071,343,-0.970458984375,0.1475830078125,-0.0797119140625
8.153,310,3027,1112,344,-0.9605712890625,0.116455078125,-0.0777587890625
8.156,308,3147,1163,348,-0.9305419921875,0.1021728515625,-0.0787353515625
8.169,308,3147,1175,455,-0.8883056640625,0.105712890625,-0.0867919921875
8.173,308,3147,1189,616,-0.8408203125,0.109375,-0.0955810546875
8.186,308,3147,1251,989,-0.797607421875,0.0946044921875,-0.1004638671875
8.195,310,3147,1283,1199,-0.768798828125,0.06640625,-0.104248046875
8.217,310,3147,1323,1464,-0.7459716796875,0.052490234375,-0.1085205078125
8.218,309,3147,1249,2017,-0.6966552734375,0.06640625,-0.120361328125
8.244,304,3147,1159,2507,-0.593994140625,0.093994140625,-0.1422119140625
8.245,306,3147,1117,2891,-0.44580078125,0.1192626953125,-0.1717529296875
8.248,304,3147,1123,3147,-0.3006591796875,0.1395263671875,-0.19189453125
8.255,310,3147,1206,3147,-0.240966796875,0.1671142578125,-0.1373291015625
8.263,308,3147,1308,3147,-0.3250732421875,0.228271484375,0.0023193359375
8.278,310,3147,1440,3147,-0.5111083984375,0.311279296875,0.129150390625
8.285,310,3147,1555,3147,-0.745849609375,0.3502197265625,0.1737060546875
8.292,309,3147,1653,3147,-1.04296875,0.3489990234375,0.136474609375
8.322,315,3147,1794,3147,-1.390380859375,0.3331298828125,0.0396728515625
8.322,317,3147,1806,3147,-1.7369384765625,0.3363037109375,-0.0863037109375
8.324,317,3147,1914,3147,-2.0572509765625,0.41796875,-0.1839599609375
8.332,318,3147,1960,3147,-2.3192138671875,0.4439697265625,-0.1868896484375
8.346,316,3147,1840,3147,-2.3697509765625,0.2518310546875,-0.1536865234375
8.358,316,3147,1748,3147,-1.9471435546875,-0.159423828125,-0.0068359375
8.362,315,3147,1770,3147,-1.171630859375,-0.4000244140625,0.31689453125
8.375,315,3147,1772,3147,-0.709228515625,-0.1097412109375,0.4019775390625
8.384,316,3147,1772,3147,-0.978271484375,0.41064453125,0.0574951171875
8.392,315,3147,1757,3147,-1.588623046875,0.619873046875,-0.3094482421875
8.406,314,3147,1702,3147,-1.9296875,0.4078369140625,-0.37548828125
8.425,315,3147,1641,3147,-1.8289794921875,0.1806640625,-0.2220458984375
8.426,315,3147,1592,3147,-1.4981689453125,0.175537109375,-0.04833984375
8.448,313,3147,1412,3147,-1.2030029296875,0.220947265625,0.04345703125
8.448,310,3147,1294,3147,-1.0224609375,0.15185546875,0.0614013671875
8.454,310,3147,1228,3147,-0.914794921875,0.0556640625,0.052490234375
8.467,307,3147,1116,3147,-0.8294677734375,0.080810546875,0.0430908203125
8.477,310,3147,1053,3044,-0.727783203125,0.175048828125,0.021728515625
8.482,308,3147,1076,2672,-0.606689453125,0.1591796875,-0.0335693359375
8.495,307,3147,1131,1922,-0.522216796875,0.0123291015625,-0.077392578125
8.504,308,3147,1137,1549,-0.498779296875,-0.137451171875,-0.082275390625
8.529,306,3147,1056,1229,-0.5062255859375,-0.1563720703125,-0.0860595703125
8.529,306,3147,996,757,-0.531982421875,0.00390625,-0.1163330078125
8.546,308,3147,1011,518,-0.5740966796875,0.2373046875,-0.1553955078125
8.548,307,3147,996,430,-0.6297607421875,0.42138671875,-0.172607421875
8.558,307,3147,951,338,-0.709716796875,0.496337890625,-0.1654052734375
8.564,306,3128,952,338,-0.797607421875,0.460205078125,-0.14453125
8.572,306,3056,968,338,-0.8553466796875,0.3575439453125,-0.113525390625
8.586,305,3012,963,334,-0.8817138671875,0.24951171875,-0.080078125
8.594,304,2992,963,338,-0.90087890625,0.1873779296875,-0.0596923828125
8.604,306,3000,973,338,-0.9229736328125,0.1851806640625,-0.0599365234375
8.651,306,3000,978,338,-0.9415283203125,0.2177734375,-0.0706787109375
8.665,304,2988,991,342,-0.9508056640625,0.2442626953125,-0.082763671875
8.668,305,3046,992,338,-0.951904296875,0.2430419921875,-0.0960693359375
8.670,308,3140,999,338,-0.9482421875,0.2156982421875,-0.1038818359375
8.672,307,3147,1004,334,-0.9429931640625,0.17822265625,-0.1015625
8.681,306,3147,1004,356,-0.9361572265625,0.1513671875,-0.0980224609375
8.682,306,3147,1010,490,-0.9171142578125,0.1455078125,-0.0986328125
8.685,308,3147,1031,617,-0.8797607421875,0.146728515625,-0.0966796875
8.693,306,3147,1045,739,-0.8338623046875,0.139892578125,-0.0902099609375
8.707,306,3147,1091,1053,-0.7911376953125,0.1285400390625,-0.08837890625
8.715,306,3147,1098,1268,-0.7608642578125,0.1134033203125,-0.098876953125
8.730,308,3147,1137,1488,-0.744384765625,0.10107421875,-0.111572265625
8.752,308,3147,1175,1915,-0.7303466796875,0.1094970703125,-0.1197509765625
8.754,310,3147,1198,2141,-0.7037353515625,0.153076171875,-0.1202392578125
8.756,306,3147,1139,2543,-0.6224365234375,0.2166748046875,-0.1153564453125
8.766,308,3147,1107,3147,-0.4569091796875,0.2401123046875,-0.124267578125
8.775,307,3147,1167,3147,-0.2442626953125,0.1943359375,-0.127197265625
8.782,304,3147,1191,3147,-0.2442626953125,0.1943359375,-0.127197265625
8.797,308,3147,1239,3147,-0.059326171875,-0.0408935546875,-0.0052490234375
8.805,308,3147,1303,3147,-0.3111572265625,0.01123046875,0.1875
8.813,310,3147,1393,3147,-0.3111572265625,0.01123046875,0.1875
8.826,313,3147,1501,3147,-1.36328125,0.5948486328125,0.223876953125
8.850,313,3147,1596,3147,-1.9468994140625,0.823974609375,-0.0133056640625
8.852,316,3147,1669,3147,-1.9468994140625,0.823974609375,-0.0133056640625
8.857,316,3147,1750,3147,-2.5087890625,0.6195068359375,-0.3182373046875
8.865,314,3147,1659,3147,-2.37451171875,0.167236328125,-0.2137451171875
8.873,310,3147,1568,3147,-2.37451171875,0.167236328125,-0.2137451171875
8.886,310,3147,1437,3147,-1.22900390625,-0.6988525390625,0.3017578125
8.895,308,3147,1447,3147,-0.7779541015625,-0.1922607421875,0.4979248046875
8.903,309,3147,1474,3147,-0.7779541015625,-0.1922607421875,0.4979248046875
8.917,310,3147,1483,3147,-1.4686279296875,0.7396240234375,-0.1910400390625
8.928,310,3147,1429,3147,-1.840576171875,0.551513671875,-0.3624267578125
8.933,310,3147,1386,3147,-1.840576171875,0.551513671875,-0.3624267578125
8.969,308,3147,1348,3147,-1.4713134765625,0.2862548828125,-0.17626953125
8.970,315,3147,1317,3147,-1.14306640625,0.299072265625,-0.033203125
8.970,310,3147,1267,3147,-1.14306640625,0.299072265625,-0.033203125
8.977,306,3147,1185,3147,-0.9188232421875,0.161865234375,0.1922607421875
8.985,308,3147,1122,3147,-0.9188232421875,0.161865234375,0.1922607421875
8.993,307,3147,1078,3147,-0.8824462890625,0.0643310546875,0.1820068359375
9.007,306,3147,1027,2842,-0.6712646484375,0.0247802734375,-0.0166015625
9.015,308,3147,1039,2560,-0.6712646484375,0.0247802734375,-0.0166015625
9.023,307,3147,1031,2231,-0.580322265625,0.00830078125,-0.110595703125
9.036,306,3147,933,1651,-0.5689697265625,-0.0089111328125,-0.117431640625
9.050,308,3147,927,1303,-0.5689697265625,-0.0089111328125,-0.117431640625
9.073,307,3147,907,1055,-0.6107177734375,0.04052734375,-0.096435546875
9.074,306,3147,910,754,-0.654052734375,0.2364501953125,-0.09033203125
9.075,291,3147,931,640,-0.654052734375,0.2364501953125,-0.09033203125
9.083,308,3147,937,559,-0.694091796875,0.3206787109375,-0.0914306640625
9.096,307,3147,966,425,-0.822265625,0.3502197265625,-0.151123046875
9.105,308,3147,972,346,-0.822265625,0.3502197265625,-0.151123046875
9.113,306,3147,991,344,-0.8795166015625,0.3330078125,-0.14990234375
9.134,306,3147,1022,338,-0.9158935546875,0.26416015625,-0.09130859375
9.135,307,3112,1004,322,-0.9158935546875,0.26416015625,-0.09130859375
9.143,306,3147,1043,344,-0.918701171875,0.2164306640625,-0.0782470703125
9.170,306,3147,1056,342,-0.9163818359375,0.193359375,-0.0716552734375
9.171,308,3147,1067,348,-0.9163818359375,0.193359375,-0.0716552734375
9.179,296,3147,1071,411,-0.909912109375,0.2100830078125,-0.0699462890625
9.188,308,3147,1097,593,-0.878662109375,0.21044921875,-0.0787353515625
9.195,308,3147,1125,710,-0.878662109375,0.21044921875,-0.0787353515625
9.203,307,3147,1159,838,-0.861572265625,0.180908203125,-0.085693359375
9.216,308,3147,1222,1103,-0.8533935546875,0.1435546875,-0.085205078125
9.225,308,3147,1243,1363,-0.84814453125,0.103271484375,-0.0784912109375
9.235,309,3147,1278,1497,-0.8424072265625,0.06640625,-0.0758056640625
9.247,310,3147,1395,1819,-0.8428955078125,0.0621337890625,-0.07763671875
9.276,311,3147,1456,2018,-0.839599609375,0.114501953125,-0.07275390625
9.276,315,3147,1506,2344,-0.7906494140625,0.1976318359375,-0.075439453125
9.277,313,3147,1472,3063,-0.640869140625,0.2535400390625,-0.1241455078125
9.285,314,3147,1552,3147,-0.3665771484375,0.2470703125,-0.228759765625
9.293,311,3147,1582,3147,-0.068359375,0.20263671875,-0.3076171875
9.307,313,3147,1640,3147,0.0509033203125,0.1851806640625,-0.2330322265625
9.314,314,3147,1732,3147,-0.114013671875,0.2515869140625,0.0179443359375
9.323,316,3147,1815,3147,-0.502685546875,0.42431640625,0.287353515625
9.337,317,3147,1999,3147,-1.009521484375,0.658447265625,0.356201171875
9.344,318,3147,2124,3147,-1.5516357421875,0.77197265625,0.1358642578125
9.353,323,3147,2255,3147,-2.0322265625,0.583740234375,-0.22998046875
9.367,321,3147,2280,3147,-2.3414306640625,0.19970703125,-0.4508056640625
9.379,321,3147,2220,3147,-2.415283203125,-0.129638671875,-0.38037109375
9.383,319,3147,2156,3147,-2.224609375,-0.4122314453125,-0.1094970703125
9.397,319,3147,2080,3147,-1.73681640625,-0.7120361328125,0.2840576171875
9.405,316,3147,2037,3147,-1.0521240234375,-0.628173828125,0.63916015625
9.413,318,3147,2048,3147,-0.576904296875,-0.0810546875,0.651611328125
9.427,318,3147,2048,3147,-0.677490234375,0.4002685546875,0.26611328125
9.440,319,3147,2053,3147,-1.1922607421875,0.5767822265625,-0.21435546875
9.443,318,3147,2024,3147,-1.6295166015625,0.489013671875,-0.449951171875
9.470,318,3147,1983,3147,-1.7281494140625,0.2666015625,-0.3939208984375
9.471,316,3147,1967,3147,-1.5673828125,0.0999755859375,-0.197021484375
9.473,316,3147,1904,3147,-1.3515625,0.0650634765625,-0.0174560546875
9.487,316,3147,1806,3147,-1.196044921875,0.0914306640625,0.060791015625
9.495,316,3147,1754,3147,-1.0721435546875,0.1104736328125,0.06884765625
9.503,315,3147,1700,3147,-0.959716796875,0.1422119140625,0.0751953125
9.518,315,3147,1580,2884,-0.8751220703125,0.2186279296875,0.0650634765625
9.525,315,3147,1534,2517,-0.8038330078125,0.270751953125,0.0152587890625
9.534,313,3147,1498,2153,-0.725830078125,0.217529296875,-0.03076171875
9.547,313,3147,1383,1527,-0.6529541015625,0.1085205078125,-0.066650390625
9.561,310,3147,1345,1155,-0.6209716796875,0.04833984375,-0.093994140625
9.571,310,3147,1290,734,-0.6318359375,0.0711669921875,-0.1051025390625
9.582,310,3063,1209,342,-0.6502685546875,0.1192626953125,-0.12060546875
9.592,308,2695,1143,338,-0.673828125,0.160888671875,-0.1307373046875
9.595,308,2388,1085,346,-0.7080078125,0.21923828125,-0.1260986328125
9.607,307,2030,1000,334,-0.7474365234375,0.2684326171875,-0.1297607421875
9.616,307,1954,963,334,-0.790771484375,0.2724609375,-0.135986328125
9.623,307,1744,942,331,-0.835205078125,0.251220703125,-0.1243896484375
9.636,306,1577,912,331,-0.872802734375,0.2333984375,-0.0966796875
9.653,307,1504,883,331,-0.8983154296875,0.2200927734375,-0.0716552734375
9.673,306,1456,883,330,-0.91357421875,0.2135009765625,-0.0609130859375
9.692,306,1533,888,329,-0.916259765625,0.22216796875,-0.0596923828125
9.693,306,1557,899,332,-0.9053955078125,0.2406005859375,-0.064208984375
9.693,306,1655,910,332,-0.886474609375,0.2509765625,-0.07421875
9.702,306,1941,938,334,-0.861572265625,0.2388916015625,-0.0841064453125
9.705,306,2100,947,334,-0.839599609375,0.2091064453125,-0.0889892578125
9.713,305,2268,946,344,-0.828857421875,0.177001953125,-0.090576171875
9.726,306,2717,957,336,-0.819580078125,0.1461181640625,-0.0927734375
9.735,306,3011,958,346,-0.8021240234375,0.1181640625,-0.098876953125
9.755,308,3147,962,356,-0.7830810546875,0.0987548828125,-0.1004638671875
9.757,306,3147,1014,864,-0.7630615234375,0.0797119140625,-0.0870361328125
9.776,310,3147,1014,1173,-0.7464599609375,0.05859375,-0.0655517578125
9.777,309,3147,1014,1483,-0.71337890625,0.0596923828125,-0.0296630859375
9.787,306,3147,962,2233,-0.6160888671875,0.0809326171875,0.0174560546875
9.796,304,3147,846,2663,-0.4571533203125,0.093994140625,0.0732421875
9.807,306,3147,786,3079,-0.224853515625,0.0665283203125,0.1048583984375
9.817,304,3147,918,3147,-0.0164794921875,0.0189208984375,0.0897216796875
9.825,306,3147,1055,3147,0.021728515625,0.05517578125,0.137451171875
9.833,307,3147,1146,3147,-0.141357421875,0.18994140625,0.2279052734375
9.859,308,3147,1253,3147,-0.5079345703125,0.343017578125,0.18115234375
9.859,312,3147,1357,3147,-1.017578125,0.5296630859375,-0.086181640625
9.881,310,3147,1469,3147,-1.559814453125,0.7783203125,-0.5306396484375
9.882,316,3147,1656,3147,-2.05810546875,0.98095703125,-0.875
9.887,316,3147,1713,3147,-2.498046875,0.87890625,-0.881591796875
9.893,317,3147,1786,3147,-2.498046875,0.87890625,-0.881591796875
9.913,316,3147,1730,3147,-2.7242431640625,-0.13818359375,-0.2852783203125
9.915,315,3147,1700,3147,-1.884765625,-0.5972900390625,0.3851318359375
9.923,308,3147,1676,3147,-1.884765625,-0.5972900390625,0.3851318359375
9.936,316,3147,1656,3147,-0.490966796875,-0.0091552734375,0.509765625
9.951,314,3147,1643,3147,-1.0164794921875,0.6966552734375,-0.16064453125
9.953,316,3147,1610,3147,-1.0164794921875,0.6966552734375,-0.16064453125
9.981,315,3147,1559,3147,-2.1077880859375,0.6866455078125,-0.559814453125
9.981,310,3147,1540,3147,-1.9337158203125,0.3372802734375,-0.356689453125
9.983,310,3147,1543,3147,-1.9337158203125,0.3372802734375,-0.356689453125
9.996,314,3147,1429,3147,-1.13623046875,0.0794677734375,0.0323486328125
10.004,308,3147,1355,3147,-0.9349365234375,-0.0277099609375,0.1971435546875
10.012,309,3147,1264,3147,-0.9349365234375,-0.0277099609375,0.1971435546875
10.027,308,3147,1126,3147,-0.7235107421875,-0.119384765625,0.1505126953125
10.079,306,3147,1064,3003,-0.7235107421875,-0.119384765625,0.1505126953125
10.079,306,3147,1097,2622,-0.552978515625,-0.0108642578125,0.0601806640625
10.079,308,3147,1067,2062,-0.4132080078125,0.1702880859375,0.076171875
10.079,307,3147,1025,1655,-0.4132080078125,0.1702880859375,0.076171875
10.079,308,3147,1029,1262,-0.4276123046875,0.1407470703125,-0.0614013671875
10.091,305,3147,1034,695,-0.4798583984375,0.2894287109375,-0.4903564453125
10.094,306,3147,1038,537,-0.4798583984375,0.2894287109375,-0.4903564453125
10.103,305,3147,1050,428,-0.59326171875,0.5167236328125,-0.4857177734375
10.115,306,3071,1063,336,-0.7763671875,0.570556640625,-0.3087158203125
10.125,308,2973,1093,336,-0.7763671875,0.570556640625,-0.3087158203125
10.131,307,2859,1109,336,-0.8326416015625,0.3839111328125,-0.272216796875
10.145,308,2578,1108,332,-0.9166259765625,0.1973876953125,-0.177490234375
10.158,307,2586,1083,334,-0.9166259765625,0.1973876953125,-0.177490234375
10.162,306,2432,1103,338,-0.921630859375,0.177490234375,-0.1380615234375
10.175,307,2374,1085,333,-0.9378662109375,0.1766357421875,-0.053466796875
10.185,306,2333,1085,337,-0.9378662109375,0.1766357421875,-0.053466796875
10.196,306,2244,1081,334,-0.9456787109375,0.164794921875,0.0098876953125
10.219,306,2379,1097,332,-0.915771484375,0.1195068359375,0.009521484375
10.222,307,2533,1104,336,-0.915771484375,0.1195068359375,0.009521484375
10.223,307,2677,1117,332,-0.8992919921875,0.133056640625,-0.0167236328125
10.236,306,2959,1129,334,-0.892578125,0.16845703125,-0.0343017578125
10.244,308,3137,1137,338,-0.8880615234375,0.1876220703125,-0.05615234375
10.259,306,3147,1170,351,-0.8740234375,0.1732177734375,-0.08837890625
10.265,308,3147,1195,600,-0.8555908203125,0.1468505859375,-0.1202392578125
10.279,307,3147,1211,755,-0.840576171875,0.149169921875,-0.1329345703125
10.293,308,3147,1234,934,-0.820556640625,0.1859130859375,-0.1251220703125
10.296,302,3147,1312,1442,-0.7735595703125,0.20556640625,-0.113525390625
10.306,308,3147,1359,1753,-0.686279296875,0.1776123046875,-0.0977783203125
10.313,309,3147,1383,2061,-0.5694580078125,0.1417236328125,-0.0826416015625
10.327,308,3147,1386,2673,-0.4549560546875,0.133544921875,-0.1009521484375
10.340,308,3147,1395,3032,-0.36962890625,0.1707763671875,-0.1304931640625
10.342,312,3147,1400,3147,-0.275390625,0.23193359375,-0.1123046875
10.362,304,3147,1323,3147,-0.1622314453125,0.2283935546875,-0.0662841796875
10.364,312,3147,1487,3147,-0.1600341796875,0.2098388671875,-0.0487060546875
10.372,314,3147,1677,3147,-0.3648681640625,0.3355712890625,-0.045166015625
10.401,316,3147,1974,3147,-0.7615966796875,0.5450439453125,0.0087890625
10.401,317,3147,2115,3147,-1.2313232421875,0.5655517578125,0.05859375
10.402,302,3147,2213,3147,-1.64794921875,0.2818603515625,-0.061767578125
10.420,323,3147,2379,3147,-1.99169921875,0.0150146484375,-0.3045654296875
10.424,324,3147,2449,3147,-2.2723388671875,0.02587890625,-0.4178466796875
10.432,322,3147,2366,3147,-2.4306640625,0.076904296875,-0.3450927734375
10.446,318,3147,2180,3147,-2.3199462890625,-0.062255859375,-0.09765625
10.454,317,3147,2160,3147,-1.8143310546875,-0.310302734375,0.38037109375
10.464,318,3147,2128,3147,-1.103271484375,-0.32763671875,0.704833984375
10.476,318,3147,2167,3147,-0.6710205078125,0.0618896484375,0.454345703125
10.496,321,3147,2205,3147,-0.832275390625,0.6375732421875,-0.0992431640625
10.496,318,3147,2209,3147,-1.36328125,0.9056396484375,-0.4951171875
10.506,316,3147,2074,3147,-1.741943359375,0.648681640625,-0.52197265625
10.520,317,3147,2026,3147,-1.7376708984375,0.2628173828125,-0.3057861328125
10.530,314,3147,1961,3147,-1.469970703125,0.0560302734375,-0.1051025390625
10.538,316,3147,1853,3147,-1.1859130859375,0.009765625,0.007568359375
10.544,316,3147,1775,3147,-1.0264892578125,0.027587890625,0.067138671875
10.554,315,3147,1732,3147,-0.96484375,0.0394287109375,0.1085205078125
10.566,314,3147,1616,3147,-0.9404296875,0.0594482421875,0.1033935546875
10.574,313,3147,1550,3147,-0.909912109375,0.1373291015625,0.0418701171875
10.582,313,3147,1478,3147,-0.84423828125,0.22607421875,-0.0411376953125
10.603,310,3147,1362,2851,-0.76318359375,0.215087890625,-0.113525390625
10.606,310,3147,1344,2445,-0.714599609375,0.092529296875,-0.0906982421875
10.614,310,3147,1343,2050,-0.7032470703125,-0.0321044921875,0.02734375
10.627,309,3147,1280,1445,-0.6934814453125,-0.082763671875,0.0711669921875
10.635,310,3147,1225,1104,-0.6788330078125,-0.0570068359375,-0.0277099609375
10.644,308,3147,1201,784,-0.6715087890625,0.0093994140625,-0.1689453125
10.659,306,3147,1112,373,-0.680908203125,0.08447265625,-0.256103515625
10.669,308,3064,1067,343,-0.7176513671875,0.1856689453125,-0.2596435546875
10.674,308,2901,1054,343,-0.76513671875,0.297607421875,-0.2115478515625
10.706,306,2461,1025,334,-0.802734375,0.3524169921875,-0.1614990234375
10.707,306,2261,1000,317,-0.8321533203125,0.3345947265625,-0.1258544921875
10.707,308,2144,1039,328,-0.85791015625,0.2960205078125,-0.096923828125
10.723,307,1931,1039,332,-0.87744140625,0.2672119140625,-0.0748291015625
10.725,306,1899,1050,334,-0.8861083984375,0.2449951171875,-0.064208984375
10.733,306,1882,1043,334,-0.8795166015625,0.234130859375,-0.0614013671875
10.749,306,2024,1078,334,-0.865478515625,0.2301025390625,-0.061279296875
10.773,308,2141,1097,336,-0.852294921875,0.2208251953125,-0.0614013671875
10.773,308,2286,1097,334,-0.8460693359375,0.2020263671875,-0.065185546875
10.778,308,2622,1117,336,-0.844482421875,0.1663818359375,-0.0777587890625
10.801,309,2901,1146,343,-0.8326416015625,0.1129150390625,-0.09521484375
10.801,306,3141,1172,343,-0.8067626953125,0.060791015625,-0.11279296875
10.809,308,3147,1241,642,-0.7880859375,0.03857421875,-0.1171875
10.815,309,3147,1323,907,-0.7752685546875,0.0587158203125,-0.107421875
10.826,308,3147,1398,1243,-0.7412109375,0.093505859375,-0.1087646484375
10.837,310,3147,1543,1874,-0.6600341796875,0.1051025390625,-0.1082763671875
10.845,310,3147,1557,2286,-0.5394287109375,0.1014404296875,-0.0841064453125
10.853,311,3147,1546,2749,-0.433837890625,0.125732421875,-0.058837890625
10.879,308,3147,1437,3147,-0.31884765625,0.1708984375,-0.0478515625
10.879,310,3147,1453,3147,-0.1385498046875,0.1783447265625,-0.0078125
10.883,310,3147,1548,3147,0.0604248046875,0.1572265625,0.1126708984375
10.912,313,3147,1809,3147,0.065185546875,0.179931640625,0.2470703125
10.912,316,3147,1948,3147,-0.3546142578125,0.3309326171875,0.2855224609375
10.913,317,3147,2123,3147,-1.1143798828125,0.5445556640625,0.167236328125
10.927,321,3147,2392,3147,-1.8948974609375,0.618896484375,-0.1197509765625
10.935,323,3147,2554,3147,-2.465087890625,0.559326171875,-0.4464111328125
10.943,324,3147,2612,3147,-2.7974853515625,0.466064453125,-0.60595703125
10.957,323,3147,2467,3147,-2.8660888671875,0.210693359375,-0.4735107421875
10.965,321,3147,2440,3147,-2.4073486328125,-0.382568359375,-0.0181884765625
10.995,321,3147,2357,3147,-1.425537109375,-0.8546142578125,0.5897216796875
10.995,321,3147,2230,3147,-0.5523681640625,-0.5933837890625,0.740234375
10.995,321,3147,2207,3147,-0.4278564453125,0.1690673828125,0.237548828125
11.006,319,3147,2247,3147,-1.0205078125,0.853515625,-0.3460693359375
11.018,321,3147,2221,3147,-1.6641845703125,1.0196533203125,-0.598876953125
11.025,318,3147,2180,3147,-1.870849609375,0.655517578125,-0.5107421875
11.033,318,3147,2133,3147,-1.870849609375,0.655517578125,-0.5107421875
11.048,316,3147,2050,3147,-1.37939453125,0.0159912109375,-0.068115234375
11.055,318,3147,1996,3147,-1.14794921875,-0.0211181640625,0.0565185546875
11.063,316,3147,1914,3147,-1.14794921875,-0.0211181640625,0.0565185546875
11.087,316,3147,1775,3147,-1.025390625,0.1092529296875,0.1373291015625
11.087,315,3147,1721,3147,-1.018798828125,0.162841796875,0.064453125
11.117,315,3147,1662,3147,-1.018798828125,0.162841796875,0.064453125
11.118,313,3147,1508,3147,-0.869140625,0.2415771484375,-0.0782470703125
11.118,314,3147,1497,3147,-0.7303466796875,0.1551513671875,-0.1341552734375
11.123,312,3147,1428,2961,-0.7303466796875,0.1551513671875,-0.1341552734375
11.137,306,3147,1382,2409,-0.6046142578125,-0.0732421875,0.007080078125
11.145,313,3147,1359,2037,-0.6055908203125,-0.0799560546875,0.07080078125
11.153,309,3147,1336,1682,-0.6055908203125,-0.0799560546875,0.07080078125
11.168,308,3147,1251,1105,-0.676513671875,0.085693359375,-0.140869140625
11.190,306,3147,1202,793,-0.734130859375,0.2279052734375,-0.225830078125
11.200,308,3147,1170,498,-0.734130859375,0.2279052734375,-0.225830078125
11.208,308,2930,1083,321,-0.8271484375,0.40478515625,-0.20458984375
11.209,307,2683,1063,344,-0.8319091796875,0.37158203125,-0.1534423828125
11.217,306,2398,1039,338,-0.8319091796875,0.37158203125,-0.1534423828125
11.228,306,2141,1025,336,-0.81103515625,0.1822509765625,-0.0762939453125
11.235,306,2068,1004,336,-0.834716796875,0.13720703125,-0.055419921875
11.243,306,1994,1009,336,-0.834716796875,0.13720703125,-0.055419921875
11.258,304,1877,998,332,-0.896484375,0.216552734375,-0.058837890625
11.265,306,1891,1000,334,-0.896484375,0.216552734375,-0.058837890625
11.273,306,1963,987,334,-0.8973388671875,0.27783203125,-0.074951171875
11.288,305,2292,1003,332,-0.8531494140625,0.2508544921875,-0.0762939453125
11.295,306,2541,1005,336,-0.8531494140625,0.2508544921875,-0.0762939453125
11.324,308,2772,1024,338,-0.83447265625,0.1995849609375,-0.0679931640625
11.325,310,3130,1051,338,-0.8157958984375,0.1221923828125,-0.0806884765625
11.325,306,3147,1070,405,-0.8157958984375,0.1221923828125,-0.0806884765625
11.334,308,3147,1116,660,-0.7962646484375,0.09423828125,-0.0914306640625
11.347,308,3147,1129,1133,-0.7376708984375,0.086181640625,-0.1290283203125
11.355,309,3147,1156,1437,-0.7376708984375,0.086181640625,-0.1290283203125
11.363,308,3147,1162,1842,-0.703857421875,0.096435546875,-0.1424560546875
11.377,308,3147,1122,2557,-0.5823974609375,0.111083984375,-0.0875244140625
11.385,308,3147,1120,3031,-0.5823974609375,0.111083984375,-0.0875244140625
11.393,308,3147,1170,3147,-0.4603271484375,0.1336669921875,-0.0185546875
11.419,308,3147,1271,3147,-0.1146240234375,0.163818359375,0.05029296875
11.419,308,3147,1330,3147,-0.1146240234375,0.163818359375,0.05029296875
11.423,310,3147,1375,3147,-0.0789794921875,0.17529296875,0.044921875
11.437,313,3147,1464,3147,-0.7747802734375,0.5224609375,-0.021240234375
11.445,315,3147,1584,3147,-0.7747802734375,0.5224609375,-0.021240234375
11.454,316,3147,1678,3147,-1.3714599609375,0.6976318359375,-0.115234375
11.468,322,3147,1961,3147,-2.2132568359375,0.720703125,-0.1705322265625
11.475,318,3147,2039,3147,-2.2132568359375,0.720703125,-0.1705322265625
11.488,321,3147,2024,3147,-2.3236083984375,0.466796875,-0.1727294921875
11.497,318,3147,1957,3147,-2.3221435546875,0.04345703125,-0.1279296875
11.518,318,3147,1949,3147,-2.0767822265625,-0.5096435546875,0.068359375
11.519,317,3147,1914,3147,-1.3953857421875,-0.9000244140625,0.4736328125
11.522,317,3147,1914,3147,-0.69873046875,-0.5887451171875,0.7540283203125
11.536,316,3147,1920,3147,-0.60595703125,0.2174072265625,0.548828125
11.547,316,3147,1920,3147,-1.0723876953125,0.8472900390625,0.035400390625
11.552,316,3147,1934,3147,-1.6348876953125,0.9874267578125,-0.371826171875
11.566,316,3147,1906,3147,-1.869873046875,0.7001953125,-0.4483642578125
11.574,316,3147,1863,3147,-1.6904296875,0.31640625,-0.2899169921875
11.582,315,3147,1811,3147,-1.369384765625,0.0726318359375,-0.0802001953125
11.596,314,3147,1675,3147,-1.158447265625,0.012451171875,0.074951171875
11.623,313,3147,1579,3147,-1.09326171875,0.0660400390625,0.142578125
11.632,313,3147,1504,3147,-1.0987548828125,0.142578125,0.133544921875
11.633,309,3147,1388,3147,-1.0880126953125,0.181640625,0.071044921875
11.634,313,3147,1335,3147,-1.0238037109375,0.162841796875,-0.00341796875
11.643,310,3147,1278,3147,-0.9053955078125,0.083984375,-0.021728515625
11.658,306,3147,1223,3128,-0.762939453125,-0.0360107421875,0.0201416015625
11.664,313,3147,1199,2707,-0.677490234375,-0.1497802734375,0.0506591796875
11.672,308,3147,1188,2379,-0.67041015625,-0.2064208984375,0.0670166015625
11.700,306,3147,1120,1464,-0.689453125,-0.1917724609375,0.075927734375
11.703,296,3147,1071,774,-0.712646484375,-0.118896484375,0.033935546875
11.731,308,2887,1064,336,-0.7119140625,0.0347900390625,-0.0762939453125
11.734,306,1598,996,321,-0.7119140625,0.292236328125,-0.2213134765625
11.737,308,1209,943,331,-0.747314453125,0.5233154296875,-0.310546875
11.739,306,1079,932,324,-0.756103515625,0.522705078125,-0.28662109375
11.744,306,897,923,330,-0.75830078125,0.325927734375,-0.2335205078125
11.758,305,814,963,323,-0.7900390625,0.1962890625,-0.229736328125
11.771,306,764,962,327,-0.7904052734375,0.2396240234375,-0.2303466796875
11.773,306,698,987,323,-0.7823486328125,0.34716796875,-0.2154541015625
11.786,304,723,1018,324,-0.8067626953125,0.4410400390625,-0.1982421875
11.795,304,731,1043,324,-0.820556640625,0.4920654296875,-0.1839599609375
11.802,305,750,1063,324,-0.8067626953125,0.46142578125,-0.1824951171875
11.836,305,780,1107,324,-0.77001953125,0.3514404296875,-0.178955078125
11.838,307,813,1188,323,-0.716796875,0.21142578125,-0.154052734375
11.838,306,973,1231,328,-0.6669921875,0.095703125,-0.1177978515625
11.848,308,1529,1328,331,-0.6549072265625,0.058349609375,-0.1097412109375
11.856,310,1755,1345,334,-0.6868896484375,0.0810546875,-0.1324462890625
11.864,310,2143,1355,332,-0.727783203125,0.1246337890625,-0.1468505859375
11.885,310,3020,1366,338,-0.75439453125,0.1817626953125,-0.13623046875
11.889,310,3147,1424,548,-0.7705078125,0.233154296875,-0.1124267578125
11.900,309,3147,1453,913,-0.7838134765625,0.2498779296875,-0.0885009765625
11.908,311,3147,1452,1440,-0.8016357421875,0.2183837890625,-0.063720703125
11.917,310,3147,1424,1748,-0.8206787109375,0.18603515625,-0.0648193359375
11.938,313,3147,1422,2037,-0.7943115234375,0.2117919921875,-0.09814453125
11.938,307,3147,1398,2521,-0.6859130859375,0.264404296875,-0.1256103515625
11.944,313,3147,1386,2807,-0.5386962890625,0.2685546875,-0.1151123046875
11.952,315,3147,1323,3147,-0.3841552734375,0.2271728515625,-0.0291748046875
11.966,313,3147,1323,3147,-0.240478515625,0.1343994140625,0.096923828125
11.974,315,3147,1478,3147,-0.21142578125,0.0096435546875,0.1834716796875
11.982,316,3147,1772,3147,-0.3955078125,-0.055419921875,0.1710205078125
12.003,317,3147,2089,3147,-0.78271484375,-0.03271484375,0.0528564453125
12.004,318,3147,2235,3147,-1.231689453125,0.11962890625,-0.115234375
12.012,315,3147,2333,3147,-1.639892578125,0.431396484375,-0.319091796875
12.032,323,3147,2467,3147,-2.0040283203125,0.8134765625,-0.5281982421875
12.045,323,3147,2527,3147,-2.331298828125,0.940185546875,-0.58642578125
12.045,324,3147,2516,3147,-2.54296875,0.4962158203125,-0.4144287109375
12.056,323,3147,2494,3147,-2.3551025390625,-0.28857421875,0.0079345703125
12.064,319,3147,2507,3147,-1.5472412109375,-0.819580078125,0.586669921875
12.072,321,3147,2498,3147,-1.5472412109375,-0.819580078125,0.586669921875
12.086,321,3147,2538,3147,-0.659912109375,0.3275146484375,0.4482421875
12.094,323,3147,2554,3147,-1.3232421875,1.0244140625,-0.2369384765625
12.109,323,3147,2551,3147,-1.3232421875,1.0244140625,-0.2369384765625
12.122,318,3147,2471,3147,-2.1287841796875,0.6419677734375,-0.626220703125
12.129,321,3147,2407,3147,-1.797607421875,0.183837890625,-0.37158203125
12.150,321,3147,2306,3147,-1.797607421875,0.183837890625,-0.37158203125
12.150,318,3147,2007,3147,-1.0849609375,0.1375732421875,0.0245361328125
12.154,318,3147,1824,3147,-0.9404296875,0.2083740234375,0.080322265625
12.162,316,3147,1691,3147,-0.9404296875,0.2083740234375,0.080322265625
12.176,315,3147,1499,3147,-0.6702880859375,0.1395263671875,0.1234130859375
12.184,315,3147,1464,3147,-0.590087890625,0.021484375,0.1082763671875
12.192,313,3147,1399,3093,-0.590087890625,0.021484375,0.1082763671875
12.206,309,3147,1283,2581,-0.5860595703125,-0.0313720703125,0.014892578125
12.214,309,3147,1228,2230,-0.653076171875,0.0435791015625,-0.0531005859375
12.224,306,3147,1236,1865,-0.653076171875,0.0435791015625,-0.0531005859375
12.237,313,3147,1220,1287,-0.732177734375,0.1258544921875,-0.115478515625
12.245,311,3147,1222,963,-0.716552734375,0.1395263671875,-0.116943359375
12.273,307,3147,1201,666,-0.716552734375,0.1395263671875,-0.116943359375
12.277,308,3126,1183,332,-0.7655029296875,0.2724609375,-0.103515625
12.277,308,2622,1151,337,-0.7655029296875,0.2724609375,-0.103515625
12.309,306,2400,1131,332,-0.8011474609375,0.3438720703125,-0.0970458984375
12.310,308,2280,1116,333,-0.7923583984375,0.283203125,-0.0797119140625
12.310,307,2168,1112,333,-0.7923583984375,0.283203125,-0.0797119140625
12.312,310,2100,1129,331,-0.7921142578125,0.191650390625,-0.066650390625
12.338,307,2143,1122,330,-0.8668212890625,0.08203125,-0.0521240234375
12.338,313,2076,1155,332,-0.8668212890625,0.08203125,-0.0521240234375
12.346,308,2093,1138,332,-0.9111328125,0.09619140625,-0.0416259765625
12.364,308,2235,1156,331,-0.940673828125,0.1409912109375,-0.064453125
12.364,308,2372,1163,336,-0.940673828125,0.1409912109375,-0.064453125
12.372,306,2561,1178,334,-0.916015625,0.1383056640625,-0.087890625
12.387,308,2854,1186,332,-0.8619384765625,0.114013671875,-0.1361083984375
12.394,308,3106,1198,338,-0.8619384765625,0.114013671875,-0.1361083984375
12.402,308,3147,1213,369,-0.8284912109375,0.1107177734375,-0.1490478515625
12.416,308,3147,1224,799,-0.7391357421875,0.0928955078125,-0.127685546875
12.450,308,3147,1243,1056,-0.7391357421875,0.0928955078125,-0.127685546875
12.451,308,3147,1243,1323,-0.69091796875,0.0972900390625,-0.11279296875
12.451,308,3147,1236,1850,-0.5701904296875,0.104248046875,-0.0902099609375
12.454,308,3147,1143,2207,-0.5701904296875,0.104248046875,-0.0902099609375
12.468,310,3147,1095,2532,-0.46630859375,0.0833740234375,-0.10400390625
12.476,310,3147,1076,3133,-0.2420654296875,-0.0655517578125,-0.202392578125
12.484,309,3147,1198,3147,-0.2420654296875,-0.0655517578125,-0.202392578125
12.492,310,3147,1266,3147,-0.284423828125,-0.0084228515625,-0.039794921875
12.513,310,3147,1440,3147,-0.4373779296875,0.232421875,0.2523193359375
12.514,313,3147,1441,3147,-0.658447265625,0.4388427734375,0.4122314453125
12.522,312,3147,1518,3147,-0.88232421875,0.41552734375,0.317138671875
12.544,313,3147,1652,3147,-1.0430908203125,0.2598876953125,0.0145263671875
12.552,316,3147,1768,3147,-1.263916015625,0.30029296875,-0.3519287109375
12.559,318,3147,1978,3147,-1.6793212890625,0.6593017578125,-0.504150390625
12.566,316,3147,2178,3147,-2.1700439453125,0.8797607421875,-0.3843994140625
12.575,316,3147,2041,3147,-2.50927734375,0.634765625,-0.2166748046875
12.582,316,3147,1905,3147,-2.4805908203125,0.100830078125,0.02197265625
12.596,316,3147,1779,3147,-1.835693359375,-0.5050048828125,0.3421630859375
12.604,315,3147,1787,3147,-0.9271240234375,-0.488525390625,0.4354248046875
12.615,316,3147,1861,3147,-0.6427001953125,0.328857421875,0.1199951171875
12.626,310,3147,1981,3147,-1.1409912109375,1.03369140625,-0.367919921875
12.645,315,3147,2021,3147,-1.70654296875,0.9786376953125,-0.6279296875
12.645,317,3147,2111,3147,-1.8077392578125,0.429931640625,-0.5458984375
12.656,316,3147,2105,3147,-1.5714111328125,0.0784912109375,-0.2969970703125
12.664,316,3147,2080,3147,-1.330322265625,0.1031494140625,-0.0716552734375
12.672,316,3147,2041,3147,-1.2305908203125,0.246826171875,0.0360107421875
12.685,315,3147,1954,3147,-1.224853515625,0.3004150390625,0.0474853515625
12.694,316,3147,1905,3147,-1.2022705078125,0.231689453125,0.044189453125
12.702,316,3147,1852,3147,-1.08447265625,0.0633544921875,0.056884765625
12.717,316,3147,1743,3147,-0.8812255859375,-0.164794921875,0.0799560546875
12.724,316,3147,1691,3023,-0.67431640625,-0.3118896484375,0.1085205078125
12.732,315,3147,1636,2665,-0.543212890625,-0.257568359375,0.0946044921875
12.763,313,3147,1636,2076,-0.5321044921875,-0.090087890625,0.0582275390625
12.763,310,3147,1610,1755,-0.58984375,0.02587890625,0.0509033203125
12.765,296,3147,1533,1367,-0.6358642578125,0.041015625,0.01806640625
12.776,313,3147,1366,890,-0.6678466796875,0.0394287109375,-0.0711669921875
12.795,313,3147,1260,546,-0.6964111328125,0.1309814453125,-0.16455078125
12.800,308,2991,1243,344,-0.7158203125,0.2911376953125,-0.22705078125
12.806,306,2479,1131,336,-0.7342529296875,0.39892578125,-0.2587890625
12.819,308,2178,1122,334,-0.7666015625,0.4183349609375,-0.264892578125
12.822,308,2047,1129,332,-0.7962646484375,0.3819580078125,-0.2530517578125
12.853,308,1996,1115,332,-0.798828125,0.30078125,-0.2322998046875
12.853,304,1865,1092,308,-0.79150390625,0.21044921875,-0.208740234375
12.857,306,1867,1078,333,-0.79638671875,0.1785888671875,-0.1851806640625
12.867,306,1996,1091,332,-0.8115234375,0.21630859375,-0.1595458984375
12.874,308,2135,1103,334,-0.8355712890625,0.2664794921875,-0.1256103515625
12.883,307,2261,1107,336,-0.865478515625,0.2685546875,-0.091064453125
12.900,308,2527,1107,334,-0.886962890625,0.2191162109375,-0.0751953125
12.913,308,2708,1129,338,-0.8858642578125,0.1519775390625,-0.0841064453125
12.913,309,2899,1148,334,-0.857177734375,0.078125,-0.103759765625
12.926,308,3147,1175,346,-0.8226318359375,0.00341796875,-0.1295166015625
12.934,308,3147,1214,561,-0.8052978515625,-0.059326171875,-0.1650390625
12.955,309,3147,1219,746,-0.787841796875,-0.0927734375,-0.19873046875
12.956,308,3147,1255,1115,-0.7666015625,-0.075439453125,-0.2216796875
12.964,310,3147,1331,1278,-0.762451171875,-0.0086669921875,-0.239013671875
12.974,310,3147,1375,1471,-0.7677001953125,0.0899658203125,-0.239990234375
12.986,310,3147,1248,1954,-0.73779296875,0.17333984375,-0.21826171875
13.001,311,3147,1160,2374,-0.631591796875,0.1905517578125,-0.189208984375
13.009,309,3147,1066,2733,-0.4534912109375,0.155029296875,-0.150146484375
13.016,306,3147,1163,3147,-0.265869140625,0.134521484375,-0.0457763671875
13.024,309,3147,1243,3147,-0.1412353515625,0.250732421875,0.1749267578125
13.032,312,3147,1363,3147,-0.1414794921875,0.4864501953125,0.37646484375
13.052,315,3147,1548,3147,-0.3062744140625,0.68798828125,0.3909912109375
13.065,316,3147,1719,3147,-0.626708984375,0.7525634765625,0.2352294921875
13.066,316,3147,1891,3147,-1.0565185546875,0.6341552734375,0.0367431640625
13.076,318,3147,2178,3147,-1.48388671875,0.463623046875,-0.170166015625
13.084,321,3147,2356,3147,-1.903076171875,0.3072509765625,-0.3692626953125
13.092,321,3147,2461,3147,-2.361572265625,0.0673828125,-0.4876708984375
13.106,322,3147,2344,3147,-2.73779296875,-0.2158203125,-0.4423828125
13.114,318,3147,2284,3147,-2.7171630859375,-0.6175537109375,-0.15234375
13.130,319,3147,2249,3147,-2.024658203125,-0.8359375,0.2977294921875
13.136,318,3147,2155,3147,-0.979736328125,-0.2728271484375,0.537109375
13.144,318,3147,2160,3147,-0.4462890625,0.6988525390625,0.2498779296875
13.163,316,3147,2183,3147,-0.874267578125,1.2288818359375,-0.3436279296875
13.166,317,3147,2192,3147,-1.6478271484375,0.9755859375,-0.7335205078125
13.174,316,3147,2210,3147,-1.9478759765625,0.332763671875,-0.701904296875
13.182,318,3147,2207,3147,-1.9478759765625,0.332763671875,-0.701904296875
13.196,316,3147,2170,3147,-1.409912109375,0.0546875,-0.1292724609375
13.204,317,3147,2105,3147,-1.2523193359375,0.22412109375,0.0640869140625
13.213,317,3147,2019,3147,-1.2523193359375,0.22412109375,0.0640869140625
13.235,316,3147,1878,3147,-1.159912109375,0.2542724609375,0.0882568359375
13.236,315,3147,1819,3147,-1.0286865234375,0.1724853515625,0.024658203125
13.247,315,3147,1733,3147,-1.0286865234375,0.1724853515625,0.024658203125
13.260,314,3147,1595,2710,-0.61962890625,-0.1719970703125,0.0277099609375
13.268,314,3147,1574,2233,-0.479248046875,-0.2572021484375,0.060546875
13.272,315,3147,1529,1821,-0.479248046875,-0.2572021484375,0.060546875
13.286,310,3147,1492,1079,-0.525146484375,-0.103515625,0.1429443359375
13.294,313,3147,1416,693,-0.5994873046875,-0.0107421875,0.109130859375
13.302,308,3147,1306,387,-0.5994873046875,-0.0107421875,0.109130859375
13.320,310,2689,1148,343,-0.634521484375,0.158447265625,-0.1728515625
13.331,308,2643,1107,345,-0.6317138671875,0.2508544921875,-0.271484375
13.336,308,2397,1043,311,-0.6317138671875,0.2508544921875,-0.271484375
13.362,306,2053,973,334,-0.742431640625,0.326171875,-0.310791015625
13.362,306,1943,978,334,-0.7830810546875,0.2822265625,-0.2821044921875
13.362,306,1861,975,338,-0.7830810546875,0.2822265625,-0.2821044921875
13.376,302,1761,963,327,-0.82958984375,0.225830078125,-0.2008056640625
13.385,304,1790,992,334,-0.8687744140625,0.275146484375,-0.1767578125
13.393,306,1920,1018,332,-0.8687744140625,0.275146484375,-0.1767578125
13.406,306,2104,1056,334,-0.8868408203125,0.3521728515625,-0.1412353515625
13.414,308,2242,1081,336,-0.8868408203125,0.3521728515625,-0.1412353515625
13.436,306,2415,1104,338,-0.8836669921875,0.2806396484375,-0.1314697265625
13.436,307,2703,1138,336,-0.87109375,0.124755859375,-0.112548828125
13.444,308,2925,1156,338,-0.87109375,0.124755859375,-0.112548828125
13.468,304,3121,1198,346,-0.83984375,0.0789794921875,-0.1097412109375
13.475,306,3147,1267,525,-0.7803955078125,0.062744140625,-0.1263427734375
13.475,309,3147,1313,746,-0.7803955078125,0.062744140625,-0.1263427734375
13.482,310,3147,1348,964,-0.766357421875,0.102783203125,-0.1346435546875
13.496,312,3147,1437,1422,-0.6900634765625,0.1004638671875,-0.1927490234375
13.505,310,3147,1494,1732,-0.6900634765625,0.1004638671875,-0.1927490234375
13.512,313,3147,1467,2117,-0.625,0.0302734375,-0.191162109375
13.540,313,3147,1411,2823,-0.4053955078125,-0.029052734375,-0.1378173828125
13.540,313,3147,1348,3134,-0.4053955078125,-0.029052734375,-0.1378173828125
13.542,309,3147,1375,3147,-0.2825927734375,0.0323486328125,-0.094482421875
13.564,312,3147,1519,3147,-0.3782958984375,0.5499267578125,0.162353515625
13.564,315,3147,1656,3147,-0.3782958984375,0.5499267578125,0.162353515625
13.573,315,3147,1744,3147,-0.622802734375,0.71630859375,0.2420654296875
13.587,315,3147,1973,3147,-1.239501953125,0.2176513671875,0.0855712890625
13.595,317,3147,2106,3147,-1.239501953125,0.2176513671875,0.0855712890625
13.602,316,3147,2190,3147,-1.518798828125,-0.009033203125,-0.09765625
13.616,319,3147,2280,3147,-1.7462158203125,0.006103515625,-0.2293701171875
13.624,319,3147,2320,3147,-1.943603515625,0.2164306640625,-0.287353515625
13.647,319,3147,2240,3147,-2.1278076171875,0.418212890625,-0.3175048828125
13.647,315,3147,1865,3147,-2.23486328125,0.3372802734375,-0.2535400390625
13.655,316,3147,1781,3147,-1.9859619140625,-0.1484375,0.0328369140625
13.666,316,3147,1783,3147,-1.2789306640625,-0.447998046875,0.4078369140625
13.676,315,3147,1837,3147,-0.73388671875,-0.0057373046875,0.444580078125
13.685,315,3147,1850,3147,-0.9481201171875,0.6986083984375,0.01513671875
13.693,315,3147,1829,3147,-1.5804443359375,0.9500732421875,-0.49560546875
13.706,314,3147,1748,3147,-1.9259033203125,0.6422119140625,-0.6778564453125
13.714,315,3147,1653,3147,-1.8048095703125,0.2403564453125,-0.52099609375
13.722,313,3147,1604,3147,-1.4835205078125,0.135986328125,-0.2254638671875
13.749,314,3147,1466,3147,-1.219482421875,0.2659912109375,0.0242919921875
13.750,302,3147,1289,3147,-1.0830078125,0.3294677734375,0.127685546875
13.752,310,3147,1267,3147,-1.021240234375,0.22314453125,0.13134765625
13.774,308,3147,1189,3147,-0.9583740234375,0.036865234375,0.1138916015625
13.778,310,3147,1094,3147,-0.86328125,-0.1448974609375,0.1112060546875
13.783,310,3147,1115,3140,-0.7525634765625,-0.2828369140625,0.1353759765625
13.800,306,3147,1005,2507,-0.6444091796875,-0.3372802734375,0.1409912109375
13.805,306,3147,1091,2115,-0.5889892578125,-0.2796630859375,0.0980224609375
13.816,309,3147,1056,1715,-0.6087646484375,-0.1571044921875,0.04736328125
13.826,304,3147,1012,1107,-0.6602783203125,-0.05126953125,0.0089111328125
13.834,306,3147,921,725,-0.6868896484375,0.017333984375,-0.0496826171875
13.855,308,3147,883,416,-0.6712646484375,0.0997314453125,-0.144775390625
13.875,305,3000,794,338,-0.6466064453125,0.2303466796875,-0.2388916015625
13.875,306,2684,744,330,-0.657958984375,0.3629150390625,-0.30224609375
13.875,306,2205,674,330,-0.7249755859375,0.4544677734375,-0.3260498046875
13.886,305,1679,620,329,-0.7967529296875,0.4989013671875,-0.305908203125
13.898,304,1518,642,328,-0.8140869140625,0.462890625,-0.26171875
13.902,302,1528,666,324,-0.7991943359375,0.375732421875,-0.2269287109375
13.920,302,1557,669,328,-0.80517578125,0.313232421875,-0.2030029296875
13.925,302,1595,684,328,-0.8388671875,0.2879638671875,-0.1697998046875
13.934,304,1659,749,328,-0.8782958984375,0.2740478515625,-0.1285400390625
13.950,304,1809,819,327,-0.9052734375,0.2374267578125,-0.101806640625
13.978,306,1954,918,332,-0.9185791015625,0.1839599609375,-0.104248046875
13.979,306,2060,936,331,-0.9150390625,0.1414794921875,-0.1209716796875
13.979,306,2347,996,332,-0.886474609375,0.10888671875,-0.1370849609375
13.987,305,2593,1005,336,-0.8369140625,0.07275390625,-0.1484375
13.992,306,2902,1026,338,-0.783203125,0.0406494140625,-0.1536865234375
14.007,302,3147,1038,419,-0.740478515625,0.031494140625,-0.1510009765625
14.023,308,3147,1064,750,-0.70166015625,0.0457763671875,-0.146240234375
14.028,308,3147,1012,1078,-0.6571044921875,0.0438232421875,-0.1510009765625
14.036,306,3147,803,1899,-0.5909423828125,0.004150390625,-0.14892578125
14.051,304,3147,724,2323,-0.4505615234375,-0.029541015625,-0.1298828125
14.055,304,3147,697,2710,-0.2525634765625,-0.02294921875,-0.1358642578125
14.079,304,3147,695,3147,-0.140380859375,0.02734375,-0.144287109375
14.079,300,3147,692,3147,-0.2230224609375,0.1639404296875,-0.0740966796875
14.088,308,3147,759,3147,-0.444091796875,0.439208984375,0.104736328125
14.100,306,3147,1063,3147,-0.674072265625,0.6517333984375,0.295654296875
14.107,304,3147,1237,3147,-0.8848876953125,0.5166015625,0.3385009765625
14.112,306,3147,1336,3147,-1.133544921875,0.1915283203125,0.190673828125
14.127,312,3147,1445,3147,-1.4403076171875,-0.0113525390625,-0.048583984375
14.136,310,3147,1547,3147,-1.7176513671875,0.064453125,-0.2823486328125
14.142,310,3147,1640,3147,-1.89501953125,0.3453369140625,-0.46826171875
14.156,315,3147,1769,3147,-2.046630859375,0.4559326171875,-0.5484619140625
14.181,314,3147,1716,3147,-2.21533203125,0.252197265625,-0.4814453125
14.182,296,3147,1634,3147,-2.14501953125,-0.2047119140625,-0.1309814453125
14.187,310,3147,1504,3147,-1.548583984375,-0.5008544921875,0.3438720703125
14.196,310,3147,1550,3147,-0.847900390625,-0.097900390625,0.404296875
14.204,314,3147,1604,3147,-0.7791748046875,0.6903076171875,-0.0244140625
14.216,313,3147,1693,3147,-1.312744140625,1.0513916015625,-0.4876708984375
14.224,308,3147,1727,3147,-1.7921142578125,0.76806640625,-0.6480712890625
14.232,313,3147,1759,3147,-1.8193359375,0.3336181640625,-0.5343017578125
14.258,315,3147,1781,3147,-1.5489501953125,0.161376953125,-0.3287353515625
14.258,310,3147,1770,3147,-1.3040771484375,0.2432861328125,-0.1505126953125
14.262,315,3147,1741,3147,-1.177490234375,0.340087890625,-0.0374755859375
14.304,315,3147,1687,3147,-1.1109619140625,0.306884765625,0.0098876953125
14.304,313,3147,1632,3147,-1.0562744140625,0.1837158203125,0.0299072265625
14.304,315,3147,1628,3147,-0.96826171875,0.03759765625,0.0399169921875
14.307,313,3147,1590,3147,-0.8560791015625,-0.11328125,0.0511474609375
14.315,310,3147,1550,2780,-0.7459716796875,-0.2193603515625,0.0670166015625
14.323,310,3147,1474,2322,-0.67138671875,-0.22705078125,0.0543212890625
14.337,310,3147,1373,1541,-0.66015625,-0.16455078125,0.029541015625
14.345,310,3147,1313,1081,-0.6856689453125,-0.1221923828125,0.02685546875
14.362,308,3147,1281,644,-0.707763671875,-0.12109375,0.0262451171875
14.367,306,2753,1160,338,-0.69970703125,-0.097900390625,-0.022216796875
14.375,308,2386,1097,337,-0.6556396484375,-0.0067138671875,-0.128173828125
14.396,307,2161,1047,342,-0.6043701171875,0.145751953125,-0.2357177734375
14.397,305,1653,951,327,-0.60693359375,0.2982177734375,-0.2987060546875
14.407,308,1487,963,332,-0.6859130859375,0.4129638671875,-0.3182373046875
14.413,304,1253,917,329,-0.7642822265625,0.46337890625,-0.295654296875
14.427,304,973,883,327,-0.787841796875,0.4212646484375,-0.2498779296875
14.435,305,935,860,325,-0.7918701171875,0.335693359375,-0.2154541015625
14.443,305,968,862,324,-0.7918701171875,0.335693359375,-0.2154541015625
14.457,304,1091,907,327,-0.8355712890625,0.3143310546875,-0.1748046875
14.465,304,1122,933,327,-0.8585205078125,0.3599853515625,-0.1571044921875
14.496,304,1201,964,330,-0.8585205078125,0.3599853515625,-0.1571044921875
14.496,304,1464,1018,330,-0.8594970703125,0.3140869140625,-0.1627197265625
14.497,305,1678,1026,330,-0.851318359375,0.260986328125,-0.16650390625
14.503,306,1855,1038,331,-0.851318359375,0.260986328125,-0.16650390625
14.517,306,2268,1055,332,-0.8193359375,0.152587890625,-0.162841796875
14.574,306,2585,1079,338,-0.7864990234375,0.0909423828125,-0.1353759765625
14.574,308,2882,1098,344,-0.7864990234375,0.0909423828125,-0.1353759765625
14.574,306,3147,1105,636,-0.7144775390625,-0.04833984375,-0.1082763671875
14.574,308,3147,1081,998,-0.670166015625,-0.1253662109375,-0.140380859375
14.574,304,3147,1004,1417,-0.670166015625,-0.1253662109375,-0.140380859375
14.600,307,3147,864,2058,-0.5355224609375,-0.0015869140625,-0.15966796875
14.601,306,3147,813,2484,-0.43310546875,0.2222900390625,-0.202392578125
14.601,304,3147,759,2813,-0.43310546875,0.2222900390625,-0.202392578125
14.607,304,3147,793,3147,-0.2701416015625,0.1304931640625,-0.340576171875
14.615,302,3147,829,3147,-0.330810546875,-0.031982421875,-0.21875
14.623,304,3147,989,3147,-0.330810546875,-0.031982421875,-0.21875
14.637,308,3147,1231,3147,-0.73095703125,0.3717041015625,0.3240966796875
14.645,309,3147,1330,3147,-0.9781494140625,0.48193359375,0.353515625
14.653,308,3147,1476,3147,-0.9781494140625,0.48193359375,0.353515625
14.667,314,3147,1718,3147,-1.6353759765625,0.540283203125,-0.0614013671875
14.680,310,3147,1828,3147,-1.6353759765625,0.540283203125,-0.0614013671875
14.708,315,3147,1889,3147,-1.902587890625,0.6160888671875,-0.2613525390625
14.708,316,3147,1914,3147,-2.3052978515625,-0.0274658203125,-0.290771484375
14.708,315,3147,1789,3147,-2.3052978515625,-0.0274658203125,-0.290771484375
14.713,310,3147,1543,3147,-2.3079833984375,-0.51220703125,-0.0889892578125
14.727,310,3147,1483,3147,-1.06884765625,-0.16064453125,0.294677734375
14.735,314,3147,1514,3147,-1.06884765625,-0.16064453125,0.294677734375
14.743,314,3147,1588,3147,-0.7755126953125,0.7469482421875,-0.048583984375
14.757,313,3147,1643,3147,-1.7568359375,0.8753662109375,-0.68603515625
14.765,313,3147,1683,3147,-1.7568359375,0.8753662109375,-0.68603515625
14.773,315,3147,1709,3147,-1.868896484375,0.29736328125,-0.5762939453125
14.793,313,3147,1666,3147,-1.27587890625,0.14794921875,-0.109375
14.821,312,3147,1638,3147,-1.27587890625,0.14794921875,-0.109375
14.821,315,3147,1580,3147,-1.1031494140625,0.317138671875,0.0599365234375
14.822,310,3147,1399,3147,-1.0185546875,0.2095947265625,0.1031494140625
14.825,299,3147,1287,3147,-1.0185546875,0.2095947265625,0.1031494140625
14.833,310,3147,1198,3147,-0.957763671875,0.0311279296875,0.0706787109375
14.847,308,3147,1071,2976,-0.737548828125,-0.3721923828125,0.058349609375
14.855,308,3147,978,2580,-0.737548828125,-0.3721923828125,0.058349609375
14.870,308,3147,922,2188,-0.6585693359375,-0.3756103515625,0.0294189453125
14.877,306,3147,837,1440,-0.6370849609375,-0.22119140625,-0.0032958984375
14.896,306,3147,780,1078,-0.65625,-0.0704345703125,-0.018310546875
14.897,304,3147,794,586,-0.67578125,-0.0262451171875,-0.03515625
14.907,305,2695,738,336,-0.65478515625,-0.0257568359375,-0.0771484375
14.917,304,2392,737,332,-0.589111328125,0.0321044921875,-0.1346435546875
14.926,310,1957,673,334,-0.5509033203125,0.1712646484375,-0.1895751953125
14.937,304,1209,642,315,-0.614013671875,0.354248046875,-0.2274169921875
14.945,302,1131,646,327,-0.73291015625,0.5189208984375,-0.2567138671875
14.953,304,1039,631,326,-0.8126220703125,0.58447265625,-0.2889404296875
14.971,304,1065,682,324,-0.8240966796875,0.5009765625,-0.30712890625
14.975,302,1105,720,324,-0.77880859375,0.33837890625,-0.3031005859375
14.983,304,1163,780,324,-0.7423095703125,0.2559814453125,-0.2789306640625
15.007,306,1281,806,327,-0.777587890625,0.309326171875,-0.2296142578125
15.007,289,1474,840,327,-0.822509765625,0.3690185546875,-0.171630859375
15.013,306,1665,864,328,-0.8360595703125,0.3349609375,-0.1375732421875
15.028,304,2156,949,328,-0.8428955078125,0.267578125,-0.12255859375
15.037,306,2417,948,336,-0.844970703125,0.233154296875,-0.1021728515625
15.043,304,2695,974,336,-0.8255615234375,0.203857421875,-0.0838623046875
15.057,306,3147,980,455,-0.779541015625,0.142333984375,-0.0877685546875
15.074,306,3147,1022,725,-0.73046875,0.0789794921875,-0.1094970703125
15.074,308,3147,1043,1063,-0.69189453125,0.05810546875,-0.1304931640625
15.111,306,3147,1093,1596,-0.6453857421875,0.067626953125,-0.156982421875
15.111,294,3147,1185,1934,-0.58984375,0.054931640625,-0.2054443359375
15.111,293,3147,1231,2295,-0.5338134765625,0.010986328125,-0.256103515625
15.118,310,3147,1357,2981,-0.4703369140625,0.0040283203125,-0.2923583984375
15.131,310,3147,1381,3147,-0.4183349609375,0.0660400390625,-0.3092041015625
15.133,313,3147,1463,3147,-0.411865234375,0.1402587890625,-0.2421875
15.150,308,3147,1588,3147,-0.4368896484375,0.2025146484375,-0.06787109375
15.155,313,3147,1676,3147,-0.4964599609375,0.2313232421875,0.1505126953125
15.163,314,3147,1745,3147,-0.635009765625,0.1927490234375,0.3402099609375
15.177,313,3147,1848,3147,-0.8778076171875,0.132568359375,0.424072265625
15.185,314,3147,1895,3147,-1.2230224609375,0.154541015625,0.3448486328125
15.207,313,3147,1931,3147,-1.592041015625,0.313232421875,0.0565185546875
15.208,316,3147,2021,3147,-1.84912109375,0.6259765625,-0.3997802734375
15.215,316,3147,2124,3147,-1.977294921875,0.8663330078125,-0.812744140625
15.223,318,3147,2166,3147,-2.0966796875,0.704833984375,-0.933837890625
15.239,316,3147,2048,3147,-2.23779296875,0.1888427734375,-0.658935546875
15.245,316,3147,1983,3147,-2.104248046875,-0.42529296875,-0.07470703125
15.253,316,3147,2010,3147,-1.471923828125,-0.5914306640625,0.462890625
15.267,313,3147,2087,3147,-0.8197021484375,-0.0479736328125,0.5152587890625
15.278,315,3147,2111,3147,-0.8564453125,0.5982666015625,0.08251953125
15.283,316,3147,2127,3147,-1.49951171875,0.69140625,-0.3681640625
15.311,315,3147,2133,3147,-2.0142822265625,0.306396484375,-0.4862060546875
15.314,301,3147,2128,3147,-1.984375,0.0548095703125,-0.3660888671875
15.314,315,3147,2110,3147,-1.592529296875,0.189208984375,-0.2232666015625
15.327,316,3147,2007,3147,-1.2139892578125,0.369140625,-0.1080322265625
15.335,310,3147,1952,3147,-1.0050048828125,0.314453125,-0.0006103515625
15.350,314,3147,1824,3147,-0.91162109375,0.1551513671875,0.0616455078125
15.357,314,3147,1599,3147,-0.853759765625,0.0765380859375,0.0677490234375
15.365,313,3147,1494,3039,-0.78662109375,0.047119140625,0.0675048828125
15.383,309,3147,1371,2684,-0.687744140625,-0.025634765625,0.0623779296875
15.387,310,3147,1233,1945,-0.584716796875,-0.1187744140625,0.025634765625
15.412,308,3147,1219,1476,-0.5301513671875,-0.1519775390625,-0.016845703125
15.413,308,3147,1131,1067,-0.52685546875,-0.11181640625,-0.028076171875
15.420,308,3147,1032,405,-0.550048828125,-0.0426025390625,-0.0372314453125
15.425,306,3088,1018,344,-0.569580078125,0.0345458984375,-0.089111328125
15.434,307,2884,971,344,-0.5516357421875,0.122802734375,-0.171142578125
15.452,306,2739,859,337,-0.52294921875,0.204345703125,-0.233642578125
15.455,308,2698,830,334,-0.56640625,0.2694091796875,-0.2412109375
15.463,304,2607,803,336,-0.6817626953125,0.33447265625,-0.2169189453125
15.489,302,2608,788,334,-0.7938232421875,0.3973388671875,-0.19921875
15.490,304,2608,849,334,-0.8665771484375,0.4241943359375,-0.1923828125
15.493,306,2561,844,334,-0.9107666015625,0.4012451171875,-0.19384765625
15.513,304,2504,887,334,-0.9371337890625,0.3594970703125,-0.2060546875
15.515,302,2469,905,332,-0.950927734375,0.31982421875,-0.2205810546875
15.523,305,2395,932,334,-0.9527587890625,0.2764892578125,-0.22314453125
15.537,305,2514,963,334,-0.946533203125,0.2376708984375,-0.210205078125
15.547,306,2673,992,336,-0.9371337890625,0.2197265625,-0.1854248046875
15.559,306,2832,1003,337,-0.920166015625,0.2213134765625,-0.1644287109375
15.567,302,3134,998,336,-0.89208984375,0.221923828125,-0.1571044921875
15.576,308,3147,1004,359,-0.8428955078125,0.19384765625,-0.15869140625
15.585,306,3147,996,506,-0.8428955078125,0.19384765625,-0.15869140625
15.612,308,3147,1022,912,-0.717041015625,0.083740234375,-0.1722412109375
15.615,306,3147,1058,1189,-0.688720703125,0.0826416015625,-0.167236328125
15.618,308,3147,1098,1440,-0.688720703125,0.0826416015625,-0.167236328125
15.622,308,3147,1066,1739,-0.672119140625,0.1121826171875,-0.1572265625
15.636,304,3147,1018,2362,-0.5625,0.1011962890625,-0.1748046875
15.645,308,3147,1012,2891,-0.4178466796875,0.077392578125,-0.197021484375
15.652,306,3147,998,3147,-0.4178466796875,0.077392578125,-0.197021484375
15.666,308,3147,1074,3147,-0.1513671875,0.1480712890625,-0.1856689453125
15.674,304,3147,1123,3147,-0.1513671875,0.1480712890625,-0.1856689453125
15.688,310,3147,1234,3147,-0.233154296875,0.19384765625,-0.0535888671875
15.696,309,3147,1348,3147,-0.70947265625,0.3406982421875,0.4049072265625
15.704,308,3147,1445,3147,-0.70947265625,0.3406982421875,0.4049072265625
15.724,310,3147,1527,3147,-0.9967041015625,0.316650390625,0.4339599609375
15.726,306,3147,1643,3147,-1.5909423828125,0.3118896484375,0.116943359375
15.734,313,3147,1718,3147,-1.5909423828125,0.3118896484375,0.116943359375
15.742,315,3147,1779,3147,-1.8089599609375,0.493896484375,-0.2310791015625
15.756,313,3147,1718,3147,-2.2611083984375,0.40625,-0.6092529296875
15.771,313,3147,1514,3147,-2.2611083984375,0.40625,-0.6092529296875
15.772,308,3147,1333,3147,-2.3621826171875,-0.19921875,-0.3358154296875
15.790,306,3147,1355,3147,-1.16162109375,-0.41357421875,0.2978515625
15.794,310,3147,1456,3147,-1.16162109375,-0.41357421875,0.2978515625
15.818,312,3147,1543,3147,-0.7340087890625,0.6131591796875,0.0797119140625
15.818,299,3147,1607,3147,-1.5631103515625,1.0955810546875,-0.5218505859375
15.828,315,3147,1662,3147,-1.5631103515625,1.0955810546875,-0.5218505859375
15.832,315,3147,1700,3147,-1.765625,0.533447265625,-0.4300537109375
15.846,314,3147,1735,3147,-1.2598876953125,0.16064453125,-0.0968017578125
15.854,314,3147,1709,3147,-1.2598876953125,0.16064453125,-0.0968017578125
15.862,315,3147,1691,3147,-1.0982666015625,0.2659912109375,0.0306396484375
15.879,315,3147,1624,3147,-1.04345703125,0.19482421875,0.1029052734375
15.894,302,3147,1534,3147,-1.04345703125,0.19482421875,0.1029052734375
15.894,313,3147,1472,3147,-1.012939453125,0.0345458984375,0.06982421875
15.921,314,3147,1478,3147,-0.865966796875,-0.181884765625,0.033203125
15.922,296,3147,1437,3147,-0.865966796875,-0.181884765625,0.033203125
15.923,299,3147,1374,2990,-0.7926025390625,-0.181396484375,0.0540771484375
15.938,311,3147,1359,2448,-0.7269287109375,-0.0479736328125,0.0369873046875
15.945,309,3147,1306,2076,-0.7269287109375,-0.0479736328125,0.0369873046875
15.953,309,3147,1243,1667,-0.73046875,-0.0224609375,-0.017333984375
15.967,310,3147,1159,1004,-0.726806640625,-0.1002197265625,-0.1168212890625
15.995,310,3147,1081,682,-0.726806640625,-0.1002197265625,-0.1168212890625
15.995,308,3147,1022,328,-0.6854248046875,-0.059326171875,-0.1441650390625
15.997,308,2630,883,334,-0.634033203125,0.2547607421875,-0.1622314453125
16.005,304,2100,849,332,-0.634033203125,0.2547607421875,-0.1622314453125
16.013,308,1791,844,332,-0.6787109375,0.4127197265625,-0.1956787109375
16.036,300,1415,778,330,-0.7578125,0.5247802734375,-0.2158203125
16.036,304,1191,774,328,-0.81298828125,0.572265625,-0.2008056640625
16.043,300,1134,780,327,-0.820556640625,0.537353515625,-0.1766357421875
16.057,304,1241,826,327,-0.803955078125,0.44775390625,-0.17724609375
16.065,304,1284,842,327,-0.7919921875,0.3804931640625,-0.1983642578125
16.073,304,1369,920,327,-0.7972412109375,0.373046875,-0.2122802734375
16.097,304,1534,966,324,-0.818115234375,0.377197265625,-0.212158203125
16.098,305,1755,996,328,-0.833984375,0.3363037109375,-0.2081298828125
16.103,304,2054,1003,334,-0.831298828125,0.260986328125,-0.20654296875
16.129,304,2472,995,331,-0.8187255859375,0.1951904296875,-0.204345703125
16.129,306,2897,1009,334,-0.7999267578125,0.15185546875,-0.1959228515625
16.133,306,3147,1010,346,-0.7789306640625,0.11328125,-0.1832275390625
16.147,306,3147,1038,775,-0.7681884765625,0.0728759765625,-0.170654296875
16.155,306,3147,1038,1176,-0.7662353515625,0.0496826171875,-0.1505126953125
16.164,307,3147,1055,1546,-0.74951171875,0.0467529296875,-0.1234130859375
16.177,302,3147,1137,2127,-0.70654296875,0.0286865234375,-0.104736328125
16.185,310,3147,1145,2472,-0.6405029296875,0.000732421875,-0.081787109375
16.203,307,3147,1199,2890,-0.5538330078125,0.0330810546875,-0.0511474609375
16.207,310,3147,1155,3147,-0.447265625,0.1434326171875,-0.061767578125
16.229,308,3147,1231,3147,-0.3111572265625,0.2266845703125,-0.1337890625
16.230,310,3147,1357,3147,-0.177978515625,0.155029296875,-0.170654296875
16.237,310,3147,1624,3147,-0.121337890625,0.0023193359375,-0.04638671875
16.245,313,3147,1750,3147,-0.2254638671875,-0.0208740234375,0.192626953125
16.253,315,3147,1860,3147,-0.5758056640625,0.138671875,0.3695068359375
16.267,318,3147,2041,3147,-1.1220703125,0.400634765625,0.3575439453125
16.276,318,3147,2280,3147,-1.6639404296875,0.7384033203125,0.1094970703125
16.283,317,3147,2386,3147,-2.0294189453125,1.06005859375,-0.293212890625
16.348,319,3147,2580,3147,-2.22802734375,0.9495849609375,-0.607666015625
16.351,318,3147,2505,3147,-2.4049072265625,0.2091064453125,-0.6390380859375
16.351,318,3147,2442,3147,-2.4906005859375,-0.5653076171875,-0.38671875
16.351,302,3147,2310,3147,-2.134765625,-0.8486328125,0.0233154296875
16.351,318,3147,2308,3147,-1.3240966796875,-0.5103759765625,0.323486328125
16.351,318,3147,2359,3147,-0.658935546875,0.269287109375,0.2470703125
16.357,318,3147,2381,3147,-0.741455078125,0.968505859375,-0.1387939453125
16.365,321,3147,2394,3147,-1.3900146484375,1.08984375,-0.521484375
16.373,317,3147,2404,3147,-1.8603515625,0.596435546875,-0.630859375
16.390,316,3147,2381,3147,-1.810791015625,0.07568359375,-0.447021484375
16.395,316,3147,2328,3147,-1.496337890625,-0.03955078125,-0.1754150390625
16.411,318,3147,2268,3147,-1.2469482421875,0.0958251953125,0.012939453125
16.432,317,3147,2105,3147,-1.1561279296875,0.1763916015625,0.0830078125
16.437,300,3147,1957,3147,-1.1451416015625,0.1624755859375,0.07763671875
16.442,315,3147,1895,3147,-1.0928955078125,0.15283203125,0.0244140625
16.447,313,3147,1677,3147,-0.9583740234375,0.1429443359375,-0.0394287109375
16.456,315,3147,1597,3147,-0.79248046875,0.055908203125,-0.0352783203125
16.464,313,3147,1481,3147,-0.6519775390625,-0.0897216796875,0.0274658203125
16.477,310,3147,1341,2591,-0.5816650390625,-0.1824951171875,0.0611572265625
16.485,313,3147,1320,2076,-0.6021728515625,-0.159423828125,0.05517578125
16.493,310,3147,1276,1613,-0.6669921875,-0.095458984375,0.033447265625
16.523,310,3147,1163,887,-0.7120361328125,-0.0689697265625,-0.0133056640625
