time,compression0,compression1,compression2,compression3,accel_x,accel_y,accel_z
0.003,300,1079,533,302,-0.730712890625,0.5196533203125,-0.39306640625
0.010,300,1085,533,328,-0.7332763671875,0.5096435546875,-0.396484375
0.018,300,1093,548,328,-0.74072265625,0.4971923828125,-0.394287109375
0.032,298,1112,555,324,-0.75146484375,0.4896240234375,-0.3819580078125
0.041,300,1123,572,327,-0.761962890625,0.48828125,-0.36572265625
0.049,300,1134,578,327,-0.761962890625,0.48828125,-0.36572265625
0.062,300,1160,582,328,-0.7684326171875,0.4932861328125,-0.358154296875
0.103,299,1198,582,328,-0.763916015625,0.4932861328125,-0.3626708984375
0.103,300,1204,562,330,-0.763916015625,0.4932861328125,-0.3626708984375
0.103,300,1265,607,327,-0.7572021484375,0.4937744140625,-0.37109375
0.103,296,1282,601,328,-0.759033203125,0.497314453125,-0.36865234375
0.108,300,1303,630,328,-0.759033203125,0.497314453125,-0.36865234375
0.122,298,1331,659,327,-0.7677001953125,0.515625,-0.36865234375
0.130,300,1341,662,330,-0.7679443359375,0.5242919921875,-0.3701171875
0.145,300,1362,678,330,-0.7679443359375,0.5242919921875,-0.3701171875
0.152,302,1366,705,327,-0.765869140625,0.523681640625,-0.3636474609375
0.162,300,1355,702,328,-0.76611328125,0.5145263671875,-0.3541259765625
0.169,300,1370,723,328,-0.76611328125,0.5145263671875,-0.3541259765625
0.204,300,1369,725,328,-0.768798828125,0.4979248046875,-0.3380126953125
0.205,300,1377,749,328,-0.776123046875,0.5035400390625,-0.33349609375
0.205,300,1381,750,329,-0.776123046875,0.5035400390625,-0.33349609375
0.212,300,1387,784,330,-0.7872314453125,0.53662109375,-0.337890625
0.220,300,1375,777,328,-0.7882080078125,0.54248046875,-0.343017578125
0.228,300,1382,759,329,-0.7882080078125,0.54248046875,-0.343017578125
0.242,300,1367,746,327,-0.7872314453125,0.5303955078125,-0.346923828125
0.250,299,1344,754,328,-0.7867431640625,0.525634765625,-0.341064453125
0.258,299,1343,759,328,-0.7867431640625,0.525634765625,-0.341064453125
0.272,300,1323,754,327,-0.786376953125,0.5196533203125,-0.3175048828125
0.281,299,1294,766,332,-0.786376953125,0.5196533203125,-0.3175048828125
0.306,300,1274,748,328,-0.7899169921875,0.51513671875,-0.305908203125
0.306,286,1228,721,308,-0.7979736328125,0.512451171875,-0.3118896484375
0.314,300,1175,741,325,-0.7979736328125,0.512451171875,-0.3118896484375
0.340,300,1160,739,327,-0.8006591796875,0.5067138671875,-0.320556640625
0.351,301,1143,731,326,-0.7952880859375,0.497314453125,-0.324462890625
0.356,300,1122,735,327,-0.7952880859375,0.497314453125,-0.324462890625
0.356,299,1097,731,327,-0.7955322265625,0.508544921875,-0.322265625
0.368,300,1054,725,324,-0.798828125,0.5244140625,-0.3284912109375
0.374,300,1018,698,325,-0.798828125,0.5244140625,-0.3284912109375
0.386,300,1005,705,327,-0.7886962890625,0.5267333984375,-0.3341064453125
0.410,300,964,698,324,-0.767822265625,0.523681640625,-0.3392333984375
0.412,280,959,698,324,-0.767822265625,0.523681640625,-0.3392333984375
0.412,299,942,707,304,-0.763916015625,0.51318359375,-0.341064453125
0.426,300,933,721,324,-0.765625,0.4779052734375,-0.3057861328125
0.432,300,933,713,324,-0.765625,0.4779052734375,-0.3057861328125
0.438,299,934,725,327,-0.7662353515625,0.468505859375,-0.2774658203125
0.452,300,946,738,324,-0.7628173828125,0.4664306640625,-0.25537109375
0.461,300,972,737,324,-0.7628173828125,0.4664306640625,-0.25537109375
0.468,299,994,737,324,-0.7615966796875,0.4749755859375,-0.263427734375
0.490,300,1017,757,326,-0.7691650390625,0.4779052734375,-0.287841796875
0.491,300,1031,790,327,-0.7691650390625,0.4779052734375,-0.287841796875
0.515,300,1047,808,326,-0.7685546875,0.4735107421875,-0.2855224609375
0.515,282,1108,840,327,-0.7645263671875,0.4766845703125,-0.2730712890625
0.521,300,1129,848,327,-0.762451171875,0.482421875,-0.2601318359375
0.529,300,1156,849,324,-0.7635498046875,0.4837646484375,-0.258544921875
0.542,300,1204,853,327,-0.76904296875,0.4820556640625,-0.267822265625
0.552,302,1243,871,332,-0.77880859375,0.48388671875,-0.2791748046875
0.559,302,1268,871,328,-0.7886962890625,0.4896240234375,-0.287353515625
0.572,302,1351,887,327,-0.79248046875,0.4969482421875,-0.284423828125
0.580,302,1386,917,330,-0.78857421875,0.5025634765625,-0.2623291015625
0.588,302,1422,922,328,-0.7808837890625,0.494873046875,-0.2347412109375
0.602,302,1580,907,328,-0.7742919921875,0.47900390625,-0.2266845703125
0.614,300,1705,917,333,-0.76171875,0.4705810546875,-0.2376708984375
0.619,302,1775,927,330,-0.74267578125,0.484619140625,-0.2498779296875
0.632,300,1880,917,330,-0.72998046875,0.5205078125,-0.253662109375
0.642,302,1881,932,336,-0.722900390625,0.5462646484375,-0.2542724609375
0.649,300,2065,922,334,-0.7113037109375,0.5413818359375,-0.2557373046875
0.662,302,2220,985,334,-0.67236328125,0.5068359375,-0.2489013671875
0.670,300,2364,1004,338,-0.6007080078125,0.4796142578125,-0.2119140625
0.678,300,2532,1038,342,-0.51171875,0.4776611328125,-0.14990234375
0.692,300,2808,1173,338,-0.4207763671875,0.500732421875,-0.1141357421875
0.709,302,3000,1306,344,-0.358154296875,0.5828857421875,-0.13623046875
0.722,304,3068,1424,346,-0.3450927734375,0.694580078125,-0.2080078125
0.726,302,3147,1527,400,-0.3670654296875,0.712158203125,-0.2528076171875
0.732,306,3147,1557,559,-0.4447021484375,0.6571044921875,-0.2401123046875
0.739,301,3147,1561,646,-0.60791015625,0.6806640625,-0.287353515625
0.752,304,3147,1564,846,-0.7830810546875,0.7872314453125,-0.3944091796875
0.760,302,3147,1590,883,-0.9283447265625,0.8924560546875,-0.4417724609375
0.768,304,3147,1610,922,-1.06103515625,0.916259765625,-0.390380859375
0.782,304,3147,1623,1055,-1.1455078125,0.8067626953125,-0.255859375
0.795,304,3147,1665,1129,-1.197021484375,0.625244140625,-0.105712890625
0.798,305,3147,1719,1163,-1.294189453125,0.4642333984375,-0.0064697265625
0.830,305,3147,1782,1248,-1.368408203125,0.38671875,-0.00390625
0.831,304,3147,1803,1287,-1.269287109375,0.4613037109375,-0.0916748046875
0.831,304,3147,1808,1254,-1.0015869140625,0.635498046875,-0.1795654296875
0.843,306,3147,1823,1269,-0.7620849609375,0.8216552734375,-0.19775390625
0.852,304,3147,1815,1284,-0.80517578125,0.9715576171875,-0.194580078125
0.858,304,3147,1772,1236,-1.0701904296875,0.9925537109375,-0.250732421875
0.872,305,3147,1691,1117,-1.249755859375,0.8638916015625,-0.3245849609375
0.882,302,3147,1648,999,-1.241455078125,0.7208251953125,-0.326171875
0.895,304,3147,1555,844,-1.1396484375,0.68408203125,-0.264892578125
0.902,304,3147,1452,462,-1.028564453125,0.6717529296875,-0.197021484375
0.944,304,3076,1377,359,-0.9473876953125,0.5919189453125,-0.1572265625
0.945,287,2688,1308,347,-0.880859375,0.5069580078125,-0.1539306640625
0.945,301,2142,1117,333,-0.78369140625,0.462646484375,-0.1458740234375
0.945,304,1963,1047,334,-0.655029296875,0.4146728515625,-0.1131591796875
0.948,302,1830,991,331,-0.5491943359375,0.394287109375,-0.0955810546875
0.962,300,1541,887,330,-0.5196533203125,0.439208984375,-0.146240234375
0.970,300,1377,830,329,-0.55078125,0.5238037109375,-0.27197265625
0.978,300,1159,780,324,-0.5826416015625,0.6378173828125,-0.3988037109375
0.998,300,774,687,322,-0.5894775390625,0.726806640625,-0.43212890625
1.001,300,732,666,324,-0.5751953125,0.7166748046875,-0.3826904296875
1.027,300,694,633,323,-0.548583984375,0.622802734375,-0.3565673828125
1.027,300,627,546,323,-0.5484619140625,0.5272216796875,-0.3643798828125
1.047,300,658,548,322,-0.5928955078125,0.4635009765625,-0.3131103515625
1.048,299,638,525,304,-0.66650390625,0.397216796875,-0.21044921875
1.052,299,653,514,323,-0.7349853515625,0.323974609375,-0.1480712890625
1.060,300,632,527,327,-0.7613525390625,0.2947998046875,-0.14599609375
1.069,299,636,533,323,-0.7491455078125,0.3106689453125,-0.1497802734375
1.083,300,636,514,322,-0.7265625,0.3243408203125,-0.1358642578125
1.090,300,653,533,324,-0.7060546875,0.3267822265625,-0.132080078125
1.100,299,660,546,323,-0.6854248046875,0.3260498046875,-0.143798828125
1.129,298,656,548,323,-0.6614990234375,0.3082275390625,-0.1517333984375
1.130,300,693,548,304,-0.6226806640625,0.2935791015625,-0.13623046875
1.130,301,792,614,324,-0.575439453125,0.3114013671875,-0.109130859375
1.146,301,1050,714,325,-0.5291748046875,0.33740234375,-0.1060791015625
1.151,299,1529,751,328,-0.50341796875,0.3734130859375,-0.125244140625
1.160,299,1952,800,332,-0.51611328125,0.4410400390625,-0.162353515625
1.173,302,2541,860,336,-0.5316162109375,0.4769287109375,-0.2431640625
1.181,300,2760,975,352,-0.513916015625,0.4840087890625,-0.3294677734375
1.189,301,3070,1079,354,-0.513916015625,0.4840087890625,-0.3294677734375
1.205,302,3147,1280,578,-0.377197265625,0.4449462890625,-0.2376708984375
1.227,302,3147,1359,723,-0.418701171875,0.3782958984375,-0.1773681640625
1.230,304,3147,1450,943,-0.418701171875,0.3782958984375,-0.1773681640625
1.233,304,3147,1629,1229,-0.792236328125,0.4146728515625,-0.242919921875
1.241,304,3147,1662,1411,-0.988037109375,0.53857421875,-0.2467041015625
1.252,306,3147,1676,1521,-0.988037109375,0.53857421875,-0.2467041015625
1.262,304,3147,1715,1753,-1.28759765625,0.494140625,0.001953125
1.272,304,3147,1816,1796,-1.3955078125,0.3853759765625,0.1077880859375
1.279,306,3147,1853,1862,-1.3955078125,0.3853759765625,0.1077880859375
1.293,305,3147,1904,1966,-1.31884765625,0.717529296875,-0.0191650390625
1.305,305,3147,1943,2083,-1.2357177734375,1.05419921875,-0.1131591796875
1.309,302,3147,1961,2144,-1.2357177734375,1.05419921875,-0.1131591796875
1.334,304,3147,1943,2160,-1.023193359375,0.999755859375,-0.197998046875
1.334,306,3147,1914,2160,-0.8062744140625,0.817626953125,-0.2056884765625
1.339,304,3147,1957,2217,-0.8062744140625,0.817626953125,-0.2056884765625
1.358,310,3147,1943,2207,-1.0491943359375,0.8514404296875,-0.270263671875
1.361,306,3147,1931,2205,-1.267578125,0.7305908203125,-0.354248046875
1.369,304,3147,1895,2166,-1.267578125,0.7305908203125,-0.354248046875
1.384,304,3147,1808,2078,-1.302978515625,0.6029052734375,-0.3759765625
1.391,304,3147,1775,2024,-1.18896484375,0.64990234375,-0.319580078125
1.399,306,3147,1727,1846,-1.18896484375,0.64990234375,-0.319580078125
1.412,304,3147,1568,1643,-0.8665771484375,0.593994140625,-0.1566162109375
1.435,304,3147,1521,1474,-0.8665771484375,0.593994140625,-0.1566162109375
1.435,304,3147,1467,1287,-0.734619140625,0.6197509765625,-0.169677734375
1.443,304,3147,1341,899,-0.5999755859375,0.770263671875,-0.30712890625
1.451,302,3147,1220,693,-0.5999755859375,0.770263671875,-0.30712890625
1.462,300,3147,1129,456,-0.6282958984375,0.7667236328125,-0.3424072265625
1.472,301,2955,996,336,-0.70947265625,0.6060791015625,-0.30615234375
1.480,300,2668,946,344,-0.70947265625,0.6060791015625,-0.30615234375
1.489,299,2310,872,334,-0.7001953125,0.4830322265625,-0.303466796875
1.503,302,1813,788,331,-0.6541748046875,0.3436279296875,-0.3468017578125
1.511,300,1648,762,330,-0.6541748046875,0.3436279296875,-0.3468017578125
1.518,300,1429,723,329,-0.646484375,0.3148193359375,-0.3330078125
1.542,299,1201,654,323,-0.66796875,0.3828125,-0.108642578125
1.542,286,910,639,321,-0.66796875,0.3828125,-0.108642578125
1.549,299,744,607,323,-0.7239990234375,0.385498046875,-0.069091796875
1.581,299,614,600,323,-0.7332763671875,0.4747314453125,-0.254638671875
1.581,299,601,551,324,-0.7332763671875,0.4747314453125,-0.254638671875
1.581,298,623,525,323,-0.7342529296875,0.558349609375,-0.3065185546875
1.592,300,644,480,321,-0.79052734375,0.451171875,-0.2137451171875
1.601,299,632,479,323,-0.79052734375,0.451171875,-0.2137451171875
1.617,299,639,467,323,-0.797607421875,0.32080078125,-0.169921875
1.634,296,642,485,323,-0.72216796875,0.2723388671875,-0.2027587890625
1.635,299,636,484,323,-0.72216796875,0.2723388671875,-0.2027587890625
1.642,299,644,496,323,-0.67724609375,0.3184814453125,-0.236328125
1.655,300,654,525,323,-0.658447265625,0.346435546875,-0.2420654296875
1.663,296,661,506,323,-0.66064453125,0.344970703125,-0.21630859375
1.677,299,658,532,323,-0.6749267578125,0.32568359375,-0.1807861328125
1.682,299,636,525,323,-0.690673828125,0.3143310546875,-0.1484375
1.690,300,654,527,323,-0.692138671875,0.3172607421875,-0.1214599609375
1.699,299,748,555,324,-0.6763916015625,0.3167724609375,-0.103759765625
1.715,300,946,601,323,-0.6495361328125,0.310546875,-0.0943603515625
1.722,299,1318,669,330,-0.60498046875,0.308837890625,-0.09228515625
1.728,300,1757,753,330,-0.5792236328125,0.307373046875,-0.12548828125
1.742,300,2328,848,334,-0.591796875,0.3062744140625,-0.2098388671875
1.752,300,2748,871,338,-0.6025390625,0.318115234375,-0.295654296875
1.759,300,2955,966,347,-0.595947265625,0.3529052734375,-0.3118896484375
1.772,300,3147,1037,586,-0.502197265625,0.3897705078125,-0.239013671875
1.785,301,3147,1129,837,-0.3653564453125,0.378173828125,-0.1138916015625
1.789,302,3147,1251,1078,-0.35400390625,0.3406982421875,0.0052490234375
1.803,301,3147,1429,1487,-0.4957275390625,0.3023681640625,0.0137939453125
1.817,304,3147,1593,1704,-0.6981201171875,0.306396484375,-0.0374755859375
1.819,304,3147,1676,1925,-0.9183349609375,0.449951171875,-0.05712890625
1.845,306,3147,1823,2100,-1.136474609375,0.66748046875,-0.1103515625
1.845,304,3147,1867,2275,-1.3126220703125,0.8406982421875,-0.24609375
1.848,306,3147,1920,2292,-1.4171142578125,0.974853515625,-0.3780517578125
1.863,304,3147,1955,2368,-1.4027099609375,1.02734375,-0.3583984375
1.870,308,3147,1971,2368,-1.3035888671875,0.904052734375,-0.22509765625
1.879,306,3147,1985,2407,-1.2071533203125,0.7928466796875,-0.16162109375
1.897,304,3147,1979,2482,-1.170654296875,0.8065185546875,-0.2294921875
1.901,305,3147,1974,2493,-1.1087646484375,0.786376953125,-0.3387451171875
1.909,306,3147,1960,2490,-0.94140625,0.75341796875,-0.3914794921875
1.923,305,3147,1981,2505,-0.8399658203125,0.779052734375,-0.366943359375
1.934,306,3147,2008,2507,-0.977783203125,0.8587646484375,-0.3350830078125
1.950,304,3147,1989,2469,-1.280029296875,0.8258056640625,-0.295166015625
1.952,305,3147,1914,2328,-1.4854736328125,0.6336669921875,-0.208984375
1.961,304,3147,1828,2268,-1.449462890625,0.5189208984375,-0.130126953125
1.969,306,3147,1755,2128,-1.2442626953125,0.5623779296875,-0.1181640625
1.982,304,3147,1602,1808,-0.994873046875,0.666015625,-0.15625
1.999,306,3147,1478,1596,-0.787841796875,0.7371826171875,-0.2215576171875
2.000,304,3147,1443,1416,-0.668212890625,0.774169921875,-0.301513671875
2.013,302,3147,1294,1067,-0.6455078125,0.8048095703125,-0.3594970703125
2.022,302,3147,1229,765,-0.6751708984375,0.796875,-0.382568359375
2.028,304,3147,1125,500,-0.7025146484375,0.7177734375,-0.3597412109375
2.044,299,2916,991,348,-0.699462890625,0.57373046875,-0.3006591796875
2.053,300,2472,918,347,-0.6749267578125,0.3673095703125,-0.2694091796875
2.060,300,2086,800,334,-0.640869140625,0.2108154296875,-0.298583984375
2.072,300,1580,661,327,-0.5906982421875,0.1982421875,-0.326904296875
2.080,300,1437,578,330,-0.552978515625,0.27392578125,-0.26904296875
2.089,299,1262,576,328,-0.5667724609375,0.3785400390625,-0.125
2.102,300,844,537,323,-0.621337890625,0.4527587890625,0.0006103515625
2.110,299,702,532,324,-0.658447265625,0.4493408203125,0.018310546875
2.124,299,684,540,323,-0.6536865234375,0.403076171875,-0.050537109375
2.132,296,675,531,322,-0.650146484375,0.39013671875,-0.13134765625
2.150,300,673,521,324,-0.67431640625,0.3956298828125,-0.1695556640625
2.150,298,673,481,327,-0.71728515625,0.3585205078125,-0.1614990234375
2.163,296,656,497,323,-0.7626953125,0.296875,-0.1510009765625
2.173,299,658,518,324,-0.7869873046875,0.26611328125,-0.16259765625
2.179,298,687,513,323,-0.7950439453125,0.2684326171875,-0.1854248046875
2.192,300,759,510,323,-0.7867431640625,0.3043212890625,-0.2110595703125
2.210,299,785,513,324,-0.758056640625,0.361083984375,-0.240966796875
2.210,298,813,531,323,-0.7440185546875,0.3905029296875,-0.256103515625
2.227,299,946,548,324,-0.7425537109375,0.4010009765625,-0.2381591796875
2.231,300,1000,537,324,-0.7425537109375,0.4031982421875,-0.1973876953125
2.257,299,1120,537,327,-0.7479248046875,0.3828125,-0.1600341796875
2.257,299,1492,607,327,-0.74365234375,0.3502197265625,-0.15673828125
2.261,300,1650,666,332,-0.7276611328125,0.3328857421875,-0.1806640625
2.269,300,1920,693,333,-0.7216796875,0.3599853515625,-0.1995849609375
2.286,300,2247,738,334,-0.7177734375,0.407958984375,-0.18310546875
2.291,300,2477,766,343,-0.696044921875,0.4228515625,-0.1572265625
2.299,300,2795,816,342,-0.659912109375,0.3939208984375,-0.1597900390625
2.316,302,3147,913,344,-0.566650390625,0.3375244140625,-0.1593017578125
2.321,301,3147,1034,497,-0.4117431640625,0.2802734375,-0.12548828125
2.329,299,3147,1066,778,-0.4117431640625,0.2802734375,-0.12548828125
2.358,302,3147,1156,1211,-0.314453125,0.30078125,0.0142822265625
2.358,300,3147,1213,1447,-0.4075927734375,0.3323974609375,0.0118408203125
2.359,304,3147,1345,1627,-0.4075927734375,0.3323974609375,0.0118408203125
2.373,304,3147,1494,2030,-0.7159423828125,0.5177001953125,-0.081298828125
2.381,304,3147,1607,2203,-0.9395751953125,0.6876220703125,-0.1473388671875
2.388,304,3147,1662,2287,-0.9395751953125,0.6876220703125,-0.1473388671875
2.403,304,3147,1756,2409,-1.359375,0.9613037109375,-0.3333740234375
2.411,306,3147,1826,2437,-1.4144287109375,1.0517578125,-0.3233642578125
2.423,304,3147,1882,2486,-1.4144287109375,1.0517578125,-0.3233642578125
2.432,304,3147,1931,2552,-1.3836669921875,0.777587890625,-0.2530517578125
2.458,306,3147,1918,2580,-1.388916015625,0.70654296875,-0.31689453125
2.458,292,3147,1874,2593,-1.388916015625,0.70654296875,-0.31689453125
2.462,306,3147,1904,2584,-0.9007568359375,0.7669677734375,-0.3873291015625
2.474,304,3147,1854,2555,-0.7659912109375,0.864013671875,-0.3634033203125
2.479,304,3147,1849,2585,-0.7659912109375,0.864013671875,-0.3634033203125
2.493,306,3147,1813,2544,-1.10302734375,0.7825927734375,-0.245361328125
2.501,304,3147,1789,2481,-1.4849853515625,0.6884765625,-0.1763916015625
2.513,305,3147,1750,2430,-1.4849853515625,0.6884765625,-0.1763916015625
2.535,309,3147,1634,2230,-1.4620361328125,0.4775390625,-0.167236328125
2.535,304,3147,1545,2091,-1.1795654296875,0.568603515625,-0.198486328125
2.538,302,3147,1450,1936,-1.1795654296875,0.568603515625,-0.198486328125
2.554,302,3147,1292,1514,-0.7564697265625,0.7064208984375,-0.272216796875
2.562,302,3147,1237,1283,-0.7564697265625,0.7064208984375,-0.272216796875
2.569,302,3147,1182,996,-0.6572265625,0.7059326171875,-0.294189453125
2.582,300,3147,1029,495,-0.59521484375,0.6363525390625,-0.3172607421875
2.591,302,3147,976,360,-0.59521484375,0.6363525390625,-0.3172607421875
2.599,300,2944,890,348,-0.59912109375,0.5699462890625,-0.3262939453125
2.612,300,2284,714,337,-0.685302734375,0.34765625,-0.3319091796875
2.624,299,1880,625,342,-0.685302734375,0.34765625,-0.3319091796875
2.643,296,1580,578,336,-0.6866455078125,0.3077392578125,-0.349609375
2.643,299,1216,509,328,-0.5804443359375,0.3526611328125,-0.13916015625
2.665,298,906,481,328,-0.5804443359375,0.3526611328125,-0.13916015625
2.665,296,661,430,323,-0.5853271484375,0.366455078125,-0.030029296875
2.674,299,702,432,326,-0.6219482421875,0.367919921875,0.0032958984375
2.681,296,689,424,327,-0.6219482421875,0.367919921875,0.0032958984375
2.689,296,694,424,327,-0.65625,0.3824462890625,-0.0352783203125
2.703,299,683,439,324,-0.7276611328125,0.3975830078125,-0.1259765625
2.711,299,679,433,326,-0.7276611328125,0.3975830078125,-0.1259765625
2.718,297,671,430,327,-0.7425537109375,0.348388671875,-0.155029296875
2.743,299,702,445,324,-0.75537109375,0.2835693359375,-0.1571044921875
2.744,298,685,454,328,-0.75537109375,0.2835693359375,-0.1571044921875
2.764,294,689,468,324,-0.761474609375,0.2884521484375,-0.159423828125
2.765,296,766,454,328,-0.7476806640625,0.3077392578125,-0.2000732421875
2.771,296,820,483,328,-0.7476806640625,0.3077392578125,-0.2000732421875
2.780,300,922,493,330,-0.7314453125,0.3055419921875,-0.2049560546875
2.793,298,1155,512,330,-0.71533203125,0.30615234375,-0.192626953125
2.801,295,1352,526,346,-0.7069091796875,0.32861328125,-0.1722412109375
2.809,296,1677,578,344,-0.708740234375,0.357666015625,-0.15234375
2.822,299,2132,666,336,-0.7186279296875,0.3790283203125,-0.152099609375
2.831,300,2277,710,349,-0.7257080078125,0.3980712890625,-0.2041015625
2.870,296,2504,808,354,-0.723876953125,0.4088134765625,-0.2723388671875
2.870,299,2906,883,352,-0.7283935546875,0.404296875,-0.2911376953125
2.870,301,3147,906,355,-0.70068359375,0.37744140625,-0.240966796875
2.870,300,3147,973,483,-0.5780029296875,0.3013916015625,-0.127685546875
2.883,301,3147,1109,980,-0.402587890625,0.1976318359375,-0.008544921875
2.890,304,3147,1178,1260,-0.259033203125,0.1512451171875,0.0447998046875
2.898,302,3147,1274,1429,-0.2091064453125,0.206787109375,0.0140380859375
2.912,300,3147,1452,1787,-0.2625732421875,0.3416748046875,-0.061767578125
2.921,304,3147,1516,1999,-0.44677734375,0.5584716796875,-0.1094970703125
2.929,304,3147,1623,2127,-0.7703857421875,0.821533203125,-0.1226806640625
2.944,304,3147,1702,2320,-1.1278076171875,0.9725341796875,-0.13232421875
2.973,304,3147,1812,2391,-1.40966796875,0.9775390625,-0.1806640625
2.973,306,3147,1892,2424,-1.5540771484375,0.9427490234375,-0.19287109375
2.973,291,3147,1966,2486,-1.5411376953125,0.8743896484375,-0.1041259765625
2.981,306,3147,2005,2489,-1.4786376953125,0.705322265625,-0.0498046875
2.989,308,3147,2012,2525,-1.4505615234375,0.583740234375,-0.1199951171875
3.003,306,3147,1967,2486,-1.3284912109375,0.598388671875,-0.3331298828125
3.011,304,3147,1974,2530,-1.0242919921875,0.709228515625,-0.4910888671875
3.019,304,3147,1997,2567,-0.820556640625,0.8359375,-0.4302978515625
3.033,305,3147,1974,2569,-0.9625244140625,0.8907470703125,-0.3194580078125
3.046,305,3147,1948,2551,-1.2562255859375,0.796875,-0.2457275390625
3.049,305,3147,1904,2484,-1.4263916015625,0.6029052734375,-0.174560546875
3.077,304,3147,1715,2382,-1.39501953125,0.5494384765625,-0.139892578125
3.078,305,3147,1611,2244,-1.2401123046875,0.6239013671875,-0.1766357421875
3.079,304,3147,1564,2110,-1.0545654296875,0.6998291015625,-0.26025390625
3.093,304,3147,1416,1854,-0.8817138671875,0.7303466796875,-0.31591796875
3.100,302,3147,1331,1695,-0.7525634765625,0.7147216796875,-0.3135986328125
3.108,302,3147,1271,1467,-0.6871337890625,0.6912841796875,-0.2850341796875
3.123,302,3147,1162,1108,-0.672119140625,0.6829833984375,-0.264892578125
3.131,301,3147,1145,771,-0.685546875,0.6639404296875,-0.2537841796875
3.139,300,3147,1050,514,-0.71435546875,0.6219482421875,-0.2520751953125
3.152,302,3084,865,353,-0.72705078125,0.5560302734375,-0.237548828125
3.177,304,2763,754,354,-0.698486328125,0.4324951171875,-0.2481689453125
3.177,298,2384,683,346,-0.666748046875,0.3131103515625,-0.3282470703125
3.187,296,1855,537,342,-0.641845703125,0.2977294921875,-0.392578125
3.191,296,1616,496,338,-0.6043701171875,0.34033203125,-0.3665771484375
3.199,296,1380,466,336,-0.5711669921875,0.3690185546875,-0.231689453125
3.213,294,1146,440,329,-0.5723876953125,0.3707275390625,-0.06689453125
3.221,295,992,437,330,-0.603515625,0.3731689453125,0.002685546875
3.229,296,927,419,330,-0.6177978515625,0.3994140625,-0.0338134765625
3.243,295,777,423,328,-0.62451171875,0.4453125,-0.103759765625
3.251,296,780,419,328,-0.66552734375,0.4879150390625,-0.1434326171875
3.259,295,765,418,330,-0.728515625,0.47509765625,-0.1519775390625
3.277,294,731,411,328,-0.77099609375,0.3985595703125,-0.16748046875
3.285,298,750,404,327,-0.779052734375,0.3115234375,-0.1968994140625
3.289,296,784,426,327,-0.77294921875,0.2625732421875,-0.220458984375
3.303,298,865,424,324,-0.7679443359375,0.276123046875,-0.2332763671875
3.311,296,922,433,330,-0.7620849609375,0.3310546875,-0.2423095703125
3.319,296,996,439,330,-0.7513427734375,0.36865234375,-0.2457275390625
3.333,300,1153,455,324,-0.737060546875,0.3721923828125,-0.24462890625
3.341,298,1315,480,328,-0.7261962890625,0.3692626953125,-0.239501953125
3.353,299,1488,465,330,-0.72412109375,0.373291015625,-0.233154296875
3.384,299,1742,472,332,-0.724853515625,0.3741455078125,-0.23046875
3.384,298,1933,548,332,-0.7213134765625,0.364501953125,-0.228759765625
3.385,298,2139,598,313,-0.717529296875,0.3564453125,-0.2298583984375
3.395,299,2514,739,353,-0.7095947265625,0.367919921875,-0.2352294921875
3.401,299,2793,785,356,-0.6817626953125,0.3974609375,-0.2371826171875
3.412,299,3045,802,360,-0.6260986328125,0.4122314453125,-0.2255859375
3.423,300,3147,978,658,-0.517333984375,0.3760986328125,-0.1728515625
3.431,300,3147,1071,853,-0.36962890625,0.306396484375,-0.0987548828125
3.439,300,3147,1078,1025,-0.251953125,0.3153076171875,-0.080322265625
3.456,301,3147,1101,1487,-0.2357177734375,0.4427490234375,-0.099609375
3.461,299,3147,1143,1608,-0.3385009765625,0.53076171875,-0.1561279296875
3.489,300,3147,1191,1837,-0.3385009765625,0.53076171875,-0.1561279296875
3.489,302,3147,1334,2128,-0.7613525390625,0.6527099609375,-0.2796630859375
3.491,302,3147,1452,2272,-1.0426025390625,0.706298828125,-0.2286376953125
3.500,302,3147,1494,2359,-1.0426025390625,0.706298828125,-0.2286376953125
3.508,304,3147,1550,2442,-1.2396240234375,0.6883544921875,-0.132080078125
3.525,304,3147,1629,2510,-1.342529296875,0.6661376953125,-0.139892578125
3.530,304,3147,1683,2561,-1.3077392578125,0.8233642578125,-0.1512451171875
3.538,304,3147,1704,2590,-1.3077392578125,0.8233642578125,-0.1512451171875
3.559,306,3147,1742,2651,-1.1729736328125,1.002685546875,-0.1787109375
3.560,304,3147,1761,2681,-1.091552734375,0.9549560546875,-0.1990966796875
3.584,304,3147,1711,2736,-1.091552734375,0.9549560546875,-0.1990966796875
3.585,304,3147,1655,2717,-0.8209228515625,0.845947265625,-0.237060546875
3.594,304,3147,1700,2778,-0.8209228515625,0.845947265625,-0.237060546875
3.600,305,3147,1709,2760,-0.8404541015625,0.8134765625,-0.25390625
3.612,304,3147,1659,2736,-1.36328125,0.713134765625,-0.3409423828125
3.620,306,3147,1656,2685,-1.36328125,0.713134765625,-0.3409423828125
3.628,304,3147,1588,2638,-1.5054931640625,0.57275390625,-0.2967529296875
3.641,302,3147,1422,2388,-1.275390625,0.5064697265625,-0.170166015625
3.649,304,3147,1320,2263,-1.275390625,0.5064697265625,-0.170166015625
3.661,300,3147,1170,2136,-1.02685546875,0.5936279296875,-0.204833984375
3.691,301,3147,1107,1860,-0.598388671875,0.8487548828125,-0.3353271484375
3.691,302,3147,1083,1634,-0.598388671875,0.8487548828125,-0.3353271484375
3.691,300,3147,1018,1422,-0.56201171875,0.8892822265625,-0.3321533203125
3.702,300,3147,927,932,-0.6304931640625,0.6656494140625,-0.2386474609375
3.710,300,3147,814,606,-0.6304931640625,0.6656494140625,-0.2386474609375
3.718,300,3147,725,352,-0.646484375,0.49365234375,-0.2459716796875
3.731,293,2756,594,332,-0.595703125,0.3983154296875,-0.2872314453125
3.740,299,2347,526,337,-0.595703125,0.3983154296875,-0.2872314453125
3.750,298,2110,481,338,-0.590087890625,0.3931884765625,-0.2657470703125
3.763,296,1537,453,324,-0.593505859375,0.2640380859375,-0.0943603515625
3.770,300,1306,439,328,-0.593505859375,0.2640380859375,-0.0943603515625
3.791,299,1202,400,326,-0.611572265625,0.231201171875,-0.05126953125
3.792,299,1074,402,324,-0.6571044921875,0.379150390625,-0.0670166015625
3.811,298,975,378,323,-0.6571044921875,0.379150390625,-0.0670166015625
3.811,299,894,382,323,-0.6793212890625,0.4776611328125,-0.1484375
3.822,298,853,402,322,-0.7015380859375,0.5455322265625,-0.2503662109375
3.830,299,820,388,324,-0.7216796875,0.558837890625,-0.2998046875
3.838,300,780,411,323,-0.7525634765625,0.489990234375,-0.2911376953125
3.852,299,742,411,323,-0.780517578125,0.37060546875,-0.2589111328125
3.870,299,757,398,323,-0.787353515625,0.29541015625,-0.252685546875
3.870,300,714,411,323,-0.77978515625,0.30419921875,-0.2696533203125
3.893,299,790,388,323,-0.7706298828125,0.36865234375,-0.2852783203125
3.893,298,815,400,323,-0.765625,0.434326171875,-0.29052734375
3.898,298,837,402,324,-0.7637939453125,0.45654296875,-0.2791748046875
3.914,298,946,433,324,-0.7625732421875,0.442626953125,-0.2552490234375
3.920,300,1018,416,324,-0.763671875,0.4276123046875,-0.23388671875
3.928,300,1103,438,328,-0.7576904296875,0.422607421875,-0.228271484375
3.942,300,1231,411,327,-0.74267578125,0.4156494140625,-0.2420654296875
3.950,299,1504,409,328,-0.734130859375,0.4036865234375,-0.2603759765625
3.958,300,1610,404,334,-0.732177734375,0.394775390625,-0.2724609375
3.976,298,1931,387,330,-0.72509765625,0.38232421875,-0.275390625
3.990,299,2071,553,334,-0.71337890625,0.35888671875,-0.2523193359375
3.990,299,2349,599,322,-0.6959228515625,0.338623046875,-0.2171630859375
4.002,299,2780,769,338,-0.6578369140625,0.326171875,-0.1971435546875
4.010,302,3024,895,347,-0.5931396484375,0.3143310546875,-0.189208984375
4.021,304,3147,1009,354,-0.500732421875,0.3143310546875,-0.1783447265625
4.032,302,3147,1117,731,-0.365966796875,0.3170166015625,-0.1329345703125
4.040,302,3147,1189,1004,-0.2392578125,0.327392578125,-0.0706787109375
4.048,304,3147,1266,1198,-0.21240234375,0.4005126953125,-0.0374755859375
4.062,302,3147,1457,1596,-0.31103515625,0.4884033203125,-0.0743408203125
4.071,304,3147,1545,1852,-0.5137939453125,0.5401611328125,-0.193115234375
4.078,302,3147,1640,2005,-0.802734375,0.684326171875,-0.3067626953125
4.098,304,3147,1800,2258,-1.1026611328125,0.824951171875,-0.325439453125
4.100,306,3147,1837,2421,-1.302490234375,0.7943115234375,-0.2481689453125
4.108,306,3147,1943,2519,-1.3995361328125,0.723388671875,-0.1986083984375
4.127,306,3147,2012,2652,-1.411376953125,0.74853515625,-0.202880859375
4.130,308,3147,2074,2727,-1.327392578125,0.870361328125,-0.1746826171875
4.138,306,3147,2104,2775,-1.1988525390625,0.9783935546875,-0.1429443359375
4.151,308,3147,2076,2797,-1.05712890625,1.0086669921875,-0.1383056640625
4.160,307,3147,2074,2790,-0.9471435546875,0.89794921875,-0.194580078125
4.173,306,3147,2068,2820,-0.8834228515625,0.7803955078125,-0.3233642578125
4.204,306,3147,2083,2797,-0.89404296875,0.80712890625,-0.4239501953125
4.205,306,3147,2072,2727,-1.0677490234375,0.82177734375,-0.4422607421875
4.205,306,3147,2065,2704,-1.3087158203125,0.7041015625,-0.3931884765625
4.214,308,3147,2018,2526,-1.4300537109375,0.5616455078125,-0.299560546875
4.220,306,3147,1973,2424,-1.3631591796875,0.5504150390625,-0.2166748046875
4.233,305,3147,1908,2254,-1.1650390625,0.6552734375,-0.187744140625
4.242,305,3147,1750,2024,-0.9403076171875,0.7572021484375,-0.2164306640625
4.250,304,3147,1676,1792,-0.752685546875,0.800048828125,-0.2935791015625
4.258,304,3147,1615,1635,-0.63037109375,0.8355712890625,-0.3751220703125
4.275,302,3147,1521,1226,-0.594482421875,0.859619140625,-0.38623046875
4.280,304,3147,1428,934,-0.6260986328125,0.8095703125,-0.33056640625
4.302,302,3147,1323,582,-0.663818359375,0.6695556640625,-0.2724609375
4.303,302,3007,1216,346,-0.654296875,0.5167236328125,-0.2523193359375
4.313,302,2610,1079,346,-0.6138916015625,0.44189453125,-0.2698974609375
4.318,299,2233,978,346,-0.590576171875,0.4222412109375,-0.2626953125
4.340,299,1757,832,334,-0.5909423828125,0.3759765625,-0.18896484375
4.340,282,1564,754,330,-0.6072998046875,0.30859375,-0.0682373046875
4.348,300,1388,698,331,-0.65380859375,0.2698974609375,0.0135498046875
4.361,300,989,619,324,-0.7015380859375,0.27001953125,-0.0155029296875
4.370,299,890,614,328,-0.697021484375,0.3143310546875,-0.1014404296875
4.378,298,826,600,330,-0.6617431640625,0.385498046875,-0.1715087890625
4.402,298,735,568,321,-0.641357421875,0.458251953125,-0.21240234375
4.405,300,713,533,329,-0.650390625,0.48388671875,-0.213623046875
4.407,298,697,554,327,-0.685791015625,0.4228515625,-0.188232421875
4.426,300,695,462,323,-0.7330322265625,0.3375244140625,-0.1802978515625
4.430,299,696,493,324,-0.77099609375,0.296630859375,-0.191162109375
4.438,300,702,506,323,-0.7821044921875,0.314453125,-0.203857421875
4.452,300,767,506,323,-0.774658203125,0.3642578125,-0.2149658203125
4.461,299,829,532,323,-0.7625732421875,0.3968505859375,-0.2178955078125
4.468,299,868,563,328,-0.7493896484375,0.3944091796875,-0.2098388671875
4.482,299,998,574,324,-0.739501953125,0.3758544921875,-0.1929931640625
4.490,300,1039,574,324,-0.728759765625,0.3671875,-0.1771240234375
4.509,300,1138,607,325,-0.728759765625,0.3671875,-0.1771240234375
4.512,300,1455,684,328,-0.6988525390625,0.3875732421875,-0.18017578125
4.523,299,1730,748,336,-0.6986083984375,0.381103515625,-0.188232421875
4.528,299,2047,780,332,-0.6986083984375,0.381103515625,-0.188232421875
4.542,300,2407,837,344,-0.7166748046875,0.34228515625,-0.1995849609375
4.557,301,2554,895,348,-0.7147216796875,0.354248046875,-0.2244873046875
4.558,283,2810,874,354,-0.7147216796875,0.354248046875,-0.2244873046875
4.572,300,3147,1022,411,-0.5523681640625,0.439208984375,-0.1888427734375
4.582,298,3147,1108,548,-0.4248046875,0.4229736328125,-0.095703125
4.588,302,3147,1199,871,-0.4248046875,0.4229736328125,-0.095703125
4.610,302,3147,1313,1294,-0.331298828125,0.287841796875,-0.0355224609375
4.610,302,3147,1348,1533,-0.375732421875,0.29052734375,-0.1363525390625
4.619,304,3147,1445,1735,-0.375732421875,0.29052734375,-0.1363525390625
4.632,305,3147,1553,2091,-0.755615234375,0.6361083984375,-0.1983642578125
4.640,304,3147,1627,2210,-0.9661865234375,0.745361328125,-0.1612548828125
4.651,304,3147,1744,2419,-0.9661865234375,0.745361328125,-0.1612548828125
4.661,306,3147,1826,2519,-1.3160400390625,0.8831787109375,-0.1143798828125
4.670,306,3147,1904,2620,-1.4034423828125,0.913818359375,-0.07666015625
4.684,306,3147,1968,2652,-1.4034423828125,0.913818359375,-0.07666015625
4.691,307,3147,2032,2735,-1.389892578125,0.67138671875,0.0858154296875
4.710,306,3147,2041,2733,-1.2833251953125,0.7071533203125,-0.0101318359375
4.710,306,3147,2047,2725,-1.2833251953125,0.7071533203125,-0.0101318359375
4.722,307,3147,1989,2753,-0.88427734375,0.9307861328125,-0.426025390625
4.730,308,3147,2019,2784,-0.88427734375,0.9307861328125,-0.426025390625
4.738,306,3147,2012,2748,-0.908447265625,1.0328369140625,-0.5130615234375
4.752,308,3147,1973,2599,-1.4366455078125,0.7078857421875,-0.350830078125
4.774,305,3147,1952,2530,-1.4366455078125,0.7078857421875,-0.350830078125
4.774,306,3147,1891,2407,-1.50537109375,0.4903564453125,-0.1890869140625
4.788,304,3147,1769,2119,-1.2037353515625,0.640869140625,-0.075927734375
4.790,306,3147,1713,1952,-1.2037353515625,0.640869140625,-0.075927734375
4.800,302,3147,1600,1794,-0.991455078125,0.715576171875,-0.135498046875
4.816,302,3147,1468,1440,-0.6929931640625,0.70458984375,-0.256591796875
4.820,302,3147,1348,1111,-0.6929931640625,0.70458984375,-0.256591796875
4.829,302,3147,1225,860,-0.59326171875,0.6937255859375,-0.2757568359375
4.842,302,3147,1122,363,-0.49365234375,0.6146240234375,-0.2747802734375
4.850,300,3015,1017,359,-0.49365234375,0.6146240234375,-0.2747802734375
4.858,299,2648,933,348,-0.5020751953125,0.5382080078125,-0.279541015625
4.877,300,2037,780,336,-0.588134765625,0.431396484375,-0.323974609375
4.880,300,1757,730,328,-0.588134765625,0.431396484375,-0.323974609375
4.890,299,1377,632,328,-0.5960693359375,0.3702392578125,-0.2529296875
4.917,300,1000,533,323,-0.6629638671875,0.3062744140625,-0.0953369140625
4.917,299,803,508,321,-0.6629638671875,0.3062744140625,-0.0953369140625
4.918,299,725,482,322,-0.696533203125,0.3350830078125,-0.1148681640625
4.932,301,725,402,321,-0.65869140625,0.458740234375,-0.186279296875
4.940,300,705,416,323,-0.65869140625,0.458740234375,-0.186279296875
4.948,296,667,419,323,-0.65771484375,0.48974609375,-0.1676025390625
4.962,298,678,411,321,-0.67431640625,0.4273681640625,-0.11669921875
4.978,299,683,402,324,-0.698486328125,0.312744140625,-0.091796875
4.979,299,684,402,322,-0.7237548828125,0.2476806640625,-0.109619140625
4.998,300,728,430,323,-0.7354736328125,0.2723388671875,-0.145263671875
5.012,299,763,436,323,-0.7353515625,0.3367919921875,-0.1737060546875
5.012,299,818,433,324,-0.72607421875,0.3826904296875,-0.1844482421875
5.026,300,939,460,324,-0.709716796875,0.3802490234375,-0.185546875
5.030,299,1100,473,326,-0.6917724609375,0.3489990234375,-0.1781005859375
5.038,300,1336,484,330,-0.68212890625,0.3375244140625,-0.1654052734375
5.052,300,1695,551,336,-0.6888427734375,0.353515625,-0.1689453125
5.060,299,1895,632,330,-0.7110595703125,0.3785400390625,-0.19775390625
5.068,300,2167,673,334,-0.7508544921875,0.408447265625,-0.2425537109375
5.086,300,2464,763,330,-0.793701171875,0.432373046875,-0.279052734375
5.094,298,2665,837,336,-0.8056640625,0.42919921875,-0.277587890625
5.102,298,2821,859,344,-0.7796630859375,0.411865234375,-0.249755859375
5.122,302,3147,973,352,-0.7176513671875,0.4012451171875,-0.21484375
5.122,302,3147,1034,462,-0.616455078125,0.353515625,-0.168212890625
5.128,302,3147,1117,673,-0.5216064453125,0.2703857421875,-0.1185302734375
5.142,298,3147,1188,1029,-0.4696044921875,0.236572265625,-0.0814208984375
5.150,302,3147,1321,1274,-0.4317626953125,0.25,-0.071533203125
5.158,304,3147,1395,1503,-0.39599609375,0.2698974609375,-0.09765625
5.172,305,3147,1490,1800,-0.4210205078125,0.3555908203125,-0.1103515625
5.180,304,3147,1588,1922,-0.5740966796875,0.566650390625,-0.0958251953125
5.198,304,3147,1669,2162,-0.76171875,0.7945556640625,-0.1458740234375
5.202,305,3147,1753,2344,-0.9033203125,0.9998779296875,-0.215576171875
5.223,305,3147,1830,2456,-1.065673828125,1.1650390625,-0.27001953125
5.223,294,3147,1850,2519,-1.2406005859375,1.141845703125,-0.26220703125
5.232,306,3147,1983,2630,-1.3699951171875,0.9847412109375,-0.1270751953125
5.240,306,3147,2008,2624,-1.433349609375,0.87255859375,0.0072021484375
5.248,306,3147,2010,2689,-1.4219970703125,0.8314208984375,0.0435791015625
5.262,304,3147,1960,2722,-1.2529296875,0.7845458984375,-0.018798828125
5.270,306,3147,1973,2721,-0.9971923828125,0.716796875,-0.19775390625
5.278,306,3147,1974,2691,-0.9599609375,0.8067626953125,-0.3699951171875
5.305,308,3147,1954,2601,-1.1864013671875,0.9544677734375,-0.4210205078125
5.305,306,3147,1943,2541,-1.416015625,0.8675537109375,-0.3670654296875
5.310,304,3147,1920,2409,-1.4605712890625,0.659423828125,-0.225341796875
5.328,306,3147,1809,2142,-1.335693359375,0.5440673828125,-0.1009521484375
5.338,304,3147,1705,1955,-1.1209716796875,0.5789794921875,-0.0618896484375
5.341,304,3147,1582,1759,-0.8695068359375,0.6876220703125,-0.1199951171875
5.352,304,3147,1481,1429,-0.6595458984375,0.7845458984375,-0.2501220703125
5.360,302,3147,1413,1225,-0.556640625,0.853759765625,-0.3753662109375
5.368,304,3147,1348,976,-0.5531005859375,0.86279296875,-0.400634765625
5.382,302,3147,1131,497,-0.6142578125,0.771728515625,-0.3480224609375
5.390,302,3147,1065,348,-0.6728515625,0.6226806640625,-0.2974853515625
5.427,304,2901,1004,346,-0.6566162109375,0.50830078125,-0.2728271484375
5.428,296,2144,793,334,-0.6026611328125,0.4453125,-0.2845458984375
5.428,300,1811,656,314,-0.572509765625,0.4097900390625,-0.276611328125
5.428,282,1662,593,330,-0.543701171875,0.359375,-0.1729736328125
5.444,299,1290,473,323,-0.5322265625,0.2620849609375,-0.02587890625
5.450,300,1081,411,330,-0.593505859375,0.1715087890625,0.0467529296875
5.458,299,1083,419,327,-0.6876220703125,0.171875,0.0147705078125
5.472,299,912,413,325,-0.7454833984375,0.29248046875,-0.0672607421875
5.480,299,837,344,324,-0.76806640625,0.453857421875,-0.1458740234375
5.488,299,749,357,324,-0.7686767578125,0.549560546875,-0.20654296875
5.524,299,721,346,323,-0.7545166015625,0.5345458984375,-0.251953125
5.525,299,713,328,304,-0.7593994140625,0.44091796875,-0.2769775390625
5.525,296,679,353,321,-0.7861328125,0.347412109375,-0.2747802734375
5.532,298,666,348,323,-0.8121337890625,0.3023681640625,-0.2532958984375
5.540,299,634,344,324,-0.8177490234375,0.30126953125,-0.2332763671875
5.553,300,639,360,323,-0.7987060546875,0.3275146484375,-0.227783203125
5.562,299,639,346,323,-0.7733154296875,0.3623046875,-0.2269287109375
5.605,298,678,345,323,-0.7530517578125,0.3865966796875,-0.2215576171875
5.615,298,730,344,324,-0.736083984375,0.4005126953125,-0.2125244140625
5.618,299,793,361,323,-0.7164306640625,0.406005859375,-0.1981201171875
5.626,298,842,344,324,-0.6922607421875,0.398681640625,-0.17578125
5.627,298,899,330,323,-0.6671142578125,0.3770751953125,-0.1536865234375
5.627,299,1091,354,324,-0.6422119140625,0.3463134765625,-0.1409912109375
5.649,298,1439,371,336,-0.6214599609375,0.3309326171875,-0.135009765625
5.649,280,1702,439,313,-0.6214599609375,0.3309326171875,-0.135009765625
5.652,300,2388,654,344,-0.60595703125,0.3580322265625,-0.146240234375
5.665,302,2624,790,338,-0.5806884765625,0.3350830078125,-0.185546875
5.668,299,3006,867,356,-0.5806884765625,0.3350830078125,-0.185546875
5.682,302,3147,1101,468,-0.409423828125,0.3607177734375,-0.2685546875
5.690,301,3147,1117,820,-0.2720947265625,0.368896484375,-0.1905517578125
5.698,300,3147,1215,1050,-0.2720947265625,0.368896484375,-0.1905517578125
5.712,304,3147,1474,1527,-0.2496337890625,0.1917724609375,0.0693359375
5.739,304,3147,1590,1715,-0.463623046875,0.2342529296875,0.047119140625
5.739,306,3147,1641,2019,-0.463623046875,0.2342529296875,0.047119140625
5.742,304,3147,1803,2261,-1.1455078125,0.762939453125,-0.0545654296875
5.750,306,3147,1874,2432,-1.38134765625,0.9814453125,-0.09912109375
5.758,306,3147,1968,2529,-1.38134765625,0.9814453125,-0.09912109375
5.778,307,3147,2035,2600,-1.5361328125,1.0079345703125,-0.1328125
5.780,305,3147,2087,2626,-1.4461669921875,0.95166015625,-0.0941162109375
5.788,308,3147,2115,2657,-1.4461669921875,0.95166015625,-0.0941162109375
5.802,306,3147,2018,2683,-1.2952880859375,0.6417236328125,-0.248046875
5.814,307,3147,2009,2754,-1.0943603515625,0.6683349609375,-0.4691162109375
5.818,306,3147,1996,2769,-1.0943603515625,0.6683349609375,-0.4691162109375
5.839,304,3147,2000,2830,-0.8564453125,0.8880615234375,-0.6409912109375
5.840,306,3147,2003,2808,-1.0477294921875,0.9117431640625,-0.5357666015625
5.848,308,3147,2026,2727,-1.0477294921875,0.9117431640625,-0.5357666015625
5.862,305,3147,2008,2581,-1.59423828125,0.5631103515625,-0.15625
5.870,306,3147,1961,2498,-1.59423828125,0.5631103515625,-0.15625
5.878,306,3147,1867,2361,-1.523193359375,0.4375,-0.033935546875
5.891,304,3147,1732,2026,-1.0504150390625,0.631591796875,-0.0506591796875
5.900,304,3147,1629,1775,-1.0504150390625,0.631591796875,-0.0506591796875
5.914,304,3147,1509,1580,-0.800537109375,0.6968994140625,-0.1490478515625
5.921,302,3147,1355,1214,-0.5528564453125,0.7386474609375,-0.2738037109375
5.944,300,3147,1271,998,-0.5528564453125,0.7386474609375,-0.2738037109375
5.944,302,3147,1178,725,-0.5401611328125,0.7237548828125,-0.244384765625
5.952,300,3147,1026,346,-0.598876953125,0.599609375,-0.231689453125
5.960,299,2964,963,342,-0.598876953125,0.599609375,-0.231689453125
5.968,302,2632,794,346,-0.61572265625,0.505615234375,-0.2584228515625
5.981,300,1983,625,330,-0.6429443359375,0.37353515625,-0.39404296875
5.990,300,1708,526,329,-0.6429443359375,0.37353515625,-0.39404296875
6.003,299,1523,487,330,-0.6087646484375,0.4061279296875,-0.36279296875
6.016,299,1079,391,323,-0.6361083984375,0.3680419921875,-0.0760498046875
6.020,299,855,382,323,-0.6361083984375,0.3680419921875,-0.0760498046875
6.047,298,705,375,323,-0.6832275390625,0.33056640625,-0.0535888671875
6.048,299,649,355,306,-0.672119140625,0.4154052734375,-0.1292724609375
6.050,296,631,376,323,-0.672119140625,0.4154052734375,-0.1292724609375
6.058,298,630,359,323,-0.705078125,0.482421875,-0.148681640625
6.072,300,644,375,323,-0.7608642578125,0.4886474609375,-0.1458740234375
6.080,298,617,351,322,-0.8052978515625,0.427734375,-0.162109375
6.088,298,607,344,321,-0.8216552734375,0.346435546875,-0.1917724609375
6.102,298,622,348,321,-0.8060302734375,0.299072265625,-0.2088623046875
6.123,302,625,352,323,-0.765625,0.31494140625,-0.2139892578125
6.123,296,636,361,323,-0.72216796875,0.3701171875,-0.2188720703125
6.150,296,636,356,323,-0.6883544921875,0.40771484375,-0.2252197265625
6.150,287,644,334,323,-0.667236328125,0.407470703125,-0.229248046875
6.150,298,619,344,323,-0.65673828125,0.389404296875,-0.2222900390625
6.162,299,723,338,327,-0.6510009765625,0.37548828125,-0.2027587890625
6.170,299,778,370,324,-0.6468505859375,0.368408203125,-0.1787109375
6.178,298,899,348,327,-0.6427001953125,0.35693359375,-0.1534423828125
6.192,300,1303,371,327,-0.6448974609375,0.3431396484375,-0.1256103515625
6.200,299,1686,506,334,-0.662109375,0.345947265625,-0.106201171875
6.208,299,1973,579,331,-0.6842041015625,0.3719482421875,-0.1259765625
6.228,304,2517,797,334,-0.689208984375,0.405029296875,-0.1885986328125
6.246,301,2790,910,338,-0.6483154296875,0.4180908203125,-0.2498779296875
6.247,301,3101,978,324,-0.551025390625,0.411865234375,-0.2669677734375
6.256,302,3147,1129,614,-0.3941650390625,0.386962890625,-0.211181640625
6.262,300,3147,1267,888,-0.1983642578125,0.32470703125,-0.10595703125
6.268,302,3147,1386,1191,-0.073974609375,0.266357421875,-0.02783203125
6.283,302,3147,1584,1635,-0.1634521484375,0.2978515625,-0.054931640625
6.290,304,3147,1704,1890,-0.4930419921875,0.435546875,-0.1375732421875
6.298,302,3147,1746,2048,-0.9510498046875,0.6480712890625,-0.16796875
6.312,306,3147,1946,2296,-1.3123779296875,0.8245849609375,-0.1380615234375
6.325,307,3147,2047,2410,-1.462158203125,0.85400390625,-0.09619140625
6.328,308,3147,2111,2503,-1.478271484375,0.8546142578125,-0.064697265625
6.350,305,3147,2156,2645,-1.392578125,0.913330078125,-0.0001220703125
6.350,308,3147,2129,2621,-1.26318359375,0.893798828125,0.0496826171875
6.362,306,3147,2194,2708,-1.19482421875,0.8389892578125,-0.0667724609375
6.372,306,3147,2178,2703,-1.1815185546875,0.8724365234375,-0.2884521484375
6.380,308,3147,2141,2704,-1.1490478515625,0.8577880859375,-0.472412109375
6.388,308,3147,2119,2722,-1.0396728515625,0.760986328125,-0.6251220703125
6.402,307,3147,2151,2879,-0.93310546875,0.741455078125,-0.645751953125
6.410,306,3147,2186,2744,-1.038818359375,0.8284912109375,-0.52978515625
6.418,308,3147,2172,2700,-1.335205078125,0.7999267578125,-0.3695068359375
6.432,306,3147,2087,2555,-1.5235595703125,0.5936279296875,-0.1968994140625
6.457,306,3147,2021,2368,-1.468017578125,0.4666748046875,-0.07470703125
6.458,304,3147,1914,2263,-1.2916259765625,0.543212890625,-0.044189453125
6.471,304,3147,1809,1852,-1.10009765625,0.7025146484375,-0.0791015625
6.472,304,3147,1747,1564,-0.9295654296875,0.7681884765625,-0.1217041015625
6.478,304,3147,1627,1359,-0.7945556640625,0.726806640625,-0.177978515625
6.492,302,3147,1433,905,-0.6756591796875,0.6773681640625,-0.229248046875
6.500,302,3147,1308,601,-0.5635986328125,0.642822265625,-0.25244140625
6.508,302,3147,1209,351,-0.492919921875,0.6365966796875,-0.272705078125
6.528,302,2651,1063,338,-0.47802734375,0.6475830078125,-0.2823486328125
6.530,300,2330,944,342,-0.516845703125,0.5855712890625,-0.31884765625
6.541,300,1927,858,334,-0.5811767578125,0.482177734375,-0.3995361328125
6.552,300,1424,642,327,-0.6170654296875,0.419921875,-0.42529296875
6.566,300,1132,548,323,-0.62744140625,0.397216796875,-0.3199462890625
6.579,299,879,527,322,-0.6512451171875,0.364013671875,-0.13720703125
6.582,299,646,479,321,-0.7108154296875,0.296630859375,-0.02587890625
6.590,300,628,470,323,-0.7498779296875,0.2655029296875,-0.0313720703125
6.598,299,601,401,321,-0.7503662109375,0.3231201171875,-0.0955810546875
6.612,299,619,402,323,-0.7371826171875,0.4268798828125,-0.141357421875
6.620,296,629,382,323,-0.7138671875,0.4866943359375,-0.14599609375
6.631,296,631,398,324,-0.717529296875,0.460693359375,-0.147705078125
6.659,296,632,404,323,-0.743408203125,0.3828125,-0.147705078125
6.659,296,614,360,322,-0.755615234375,0.3033447265625,-0.138916015625
6.659,294,616,385,323,-0.742431640625,0.2685546875,-0.1434326171875
6.691,299,620,364,322,-0.70849609375,0.3050537109375,-0.1705322265625
6.691,299,630,387,323,-0.6751708984375,0.378173828125,-0.19384765625
6.692,298,627,381,323,-0.658203125,0.4307861328125,-0.19189453125
6.702,299,644,364,323,-0.6512451171875,0.44091796875,-0.1744384765625
6.710,299,644,373,324,-0.6458740234375,0.4130859375,-0.1571044921875
6.718,298,636,388,323,-0.6397705078125,0.3681640625,-0.1463623046875
6.733,299,646,356,323,-0.6336669921875,0.333251953125,-0.1417236328125
6.740,298,659,398,323,-0.63037109375,0.3134765625,-0.141845703125
6.762,299,772,406,324,-0.6260986328125,0.3009033203125,-0.1397705078125
6.762,300,1179,411,324,-0.62109375,0.3154296875,-0.124755859375
6.770,296,1813,495,334,-0.6337890625,0.3719482421875,-0.0989990234375
6.778,299,2142,572,338,-0.6337890625,0.3719482421875,-0.0989990234375
6.794,299,2792,790,337,-0.7130126953125,0.4454345703125,-0.1478271484375
6.800,299,3129,853,344,-0.6326904296875,0.4013671875,-0.2401123046875
6.808,300,3147,963,430,-0.6326904296875,0.4013671875,-0.2401123046875
6.821,300,3147,1129,963,-0.2523193359375,0.4080810546875,-0.24951171875
6.835,300,3147,1278,1336,-0.1708984375,0.3118896484375,-0.125
6.838,304,3147,1386,1496,-0.1708984375,0.3118896484375,-0.125
6.859,304,3147,1540,2063,-0.583984375,0.2999267578125,-0.1612548828125
6.860,305,3147,1600,2183,-0.967041015625,0.558837890625,-0.2427978515625
6.872,306,3147,1681,2330,-0.967041015625,0.558837890625,-0.2427978515625
6.882,304,3147,1789,2599,-1.4208984375,0.904052734375,-0.1666259765625
6.897,306,3147,1864,2728,-1.4571533203125,0.856689453125,-0.0654296875
6.905,292,3147,1920,2833,-1.4571533203125,0.856689453125,-0.0654296875
6.913,308,3147,2024,2823,-1.3624267578125,0.880126953125,0.043701171875
6.920,306,3147,2061,2831,-1.23388671875,0.938720703125,0.0391845703125
6.928,306,3147,2047,2886,-1.23388671875,0.938720703125,0.0391845703125
6.942,308,3147,1989,2951,-0.9976806640625,0.7738037109375,-0.19482421875
6.966,306,3147,2000,2973,-0.94140625,0.7130126953125,-0.400634765625
6.966,306,3147,2010,2959,-0.94140625,0.7130126953125,-0.400634765625
6.972,307,3147,2028,2981,-1.0570068359375,0.896728515625,-0.614990234375
6.980,306,3147,2014,3001,-1.355224609375,0.7947998046875,-0.5103759765625
6.989,306,3147,1960,2890,-1.355224609375,0.7947998046875,-0.5103759765625
7.003,305,3147,1852,2710,-1.493896484375,0.4013671875,-0.1527099609375
7.017,305,3147,1747,2514,-1.2733154296875,0.44091796875,-0.0802001953125
7.020,304,3147,1629,2296,-1.2733154296875,0.44091796875,-0.0802001953125
7.032,304,3147,1463,2110,-0.7939453125,0.794921875,-0.2161865234375
7.041,304,3147,1411,1826,-0.692626953125,0.8702392578125,-0.3001708984375
7.054,304,3147,1320,1694,-0.692626953125,0.8702392578125,-0.3001708984375
7.065,304,3147,1147,1184,-0.677734375,0.768798828125,-0.2852783203125
7.071,300,3147,1045,828,-0.6881103515625,0.6708984375,-0.2281494140625
7.081,301,3147,992,426,-0.6881103515625,0.6708984375,-0.2281494140625
7.093,296,2833,820,336,-0.651611328125,0.487548828125,-0.2501220703125
7.101,299,2396,678,344,-0.6241455078125,0.4473876953125,-0.2752685546875
7.109,300,2047,578,334,-0.6241455078125,0.4473876953125,-0.2752685546875
7.129,298,1568,413,328,-0.4971923828125,0.367431640625,-0.2327880859375
7.131,299,1345,383,327,-0.4971923828125,0.367431640625,-0.2327880859375
7.143,299,1038,371,327,-0.4893798828125,0.3470458984375,-0.1563720703125
7.160,300,695,371,324,-0.626220703125,0.4371337890625,-0.1087646484375
7.163,280,631,356,321,-0.626220703125,0.4371337890625,-0.1087646484375
7.169,298,669,355,323,-0.69677734375,0.506591796875,-0.1373291015625
7.184,300,642,377,323,-0.77734375,0.548828125,-0.16064453125
7.191,298,630,373,323,-0.77734375,0.548828125,-0.16064453125
7.199,299,643,375,322,-0.769775390625,0.4266357421875,-0.1510009765625
7.215,300,654,371,322,-0.7801513671875,0.21044921875,-0.141845703125
7.221,299,651,374,323,-0.7801513671875,0.21044921875,-0.141845703125
7.229,296,651,360,324,-0.78759765625,0.23974609375,-0.14794921875
7.249,299,644,361,322,-0.7762451171875,0.3836669921875,-0.18896484375
7.260,297,653,359,323,-0.7762451171875,0.3836669921875,-0.18896484375
7.265,299,667,360,323,-0.7698974609375,0.3900146484375,-0.1981201171875
7.273,299,678,371,322,-0.7589111328125,0.31884765625,-0.1907958984375
7.281,299,683,363,323,-0.7589111328125,0.31884765625,-0.1907958984375
7.289,298,682,361,323,-0.7462158203125,0.30078125,-0.1832275390625
7.303,299,678,373,321,-0.6932373046875,0.29443359375,-0.1876220703125
7.311,298,653,371,323,-0.6932373046875,0.29443359375,-0.1876220703125
7.322,299,763,346,323,-0.6737060546875,0.3070068359375,-0.1810302734375
7.333,299,1013,334,324,-0.6661376953125,0.3214111328125,-0.1673583984375
7.347,299,1255,331,330,-0.67041015625,0.3304443359375,-0.1431884765625
7.355,289,1636,332,332,-0.6922607421875,0.3372802734375,-0.11181640625
7.369,300,2218,473,332,-0.729736328125,0.3477783203125,-0.0919189453125
7.376,300,2627,607,338,-0.761474609375,0.3599853515625,-0.1187744140625
7.379,299,2925,684,346,-0.7603759765625,0.367919921875,-0.200439453125
7.393,298,3147,855,388,-0.722412109375,0.3841552734375,-0.29638671875
7.401,300,3147,936,725,-0.63427734375,0.402587890625,-0.334716796875
7.409,300,3147,1022,973,-0.476806640625,0.3538818359375,-0.2608642578125
7.426,301,3147,1188,1440,-0.307861328125,0.2532958984375,-0.129150390625
7.431,300,3147,1313,1711,-0.217529296875,0.238037109375,-0.0267333984375
7.439,302,3147,1440,1948,-0.2728271484375,0.309814453125,0.0126953125
7.453,302,3147,1521,2261,-0.4984130859375,0.4949951171875,-0.0030517578125
7.474,306,3147,1562,2386,-0.8363037109375,0.824951171875,-0.08251953125
7.474,304,3147,1650,2530,-1.1826171875,1.0487060546875,-0.1478271484375
7.483,304,3147,1743,2704,-1.449462890625,0.9656982421875,-0.15478515625
7.492,305,3147,1792,2754,-1.598388671875,0.714111328125,-0.1182861328125
7.499,306,3147,1837,2830,-1.5841064453125,0.5755615234375,-0.0301513671875
7.513,305,3147,1882,2879,-1.458251953125,0.5758056640625,0.0213623046875
7.521,304,3147,1861,2911,-1.3983154296875,0.615478515625,-0.12646484375
7.534,304,3147,1846,2948,-1.25537109375,0.7100830078125,-0.42333984375
7.543,304,3147,1815,2935,-0.9429931640625,0.8370361328125,-0.58203125
7.552,304,3147,1825,2954,-0.78564453125,0.88623046875,-0.5341796875
7.559,304,3147,1852,2955,-0.8690185546875,0.8756103515625,-0.4246826171875
7.581,306,3147,1849,2874,-1.1375732421875,0.8369140625,-0.2894287109375
7.582,306,3147,1822,2810,-1.4500732421875,0.6927490234375,-0.144775390625
7.589,305,3147,1762,2679,-1.5328369140625,0.53515625,-0.0677490234375
7.603,302,3147,1600,2414,-1.37353515625,0.493896484375,-0.07421875
7.611,302,3147,1524,2231,-1.126220703125,0.594970703125,-0.1533203125
7.619,300,3147,1467,2026,-0.9156494140625,0.737060546875,-0.2451171875
7.640,300,3147,1355,1686,-0.8115234375,0.770751953125,-0.2950439453125
7.641,283,3147,1265,1397,-0.7908935546875,0.7138671875,-0.305419921875
7.655,300,3147,1172,1103,-0.77197265625,0.6607666015625,-0.2890625
7.676,300,3147,1012,539,-0.724365234375,0.6136474609375,-0.266357421875
7.681,300,3147,922,351,-0.6627197265625,0.5501708984375,-0.261474609375
7.681,300,2874,784,342,-0.6055908203125,0.4805908203125,-0.26416015625
7.693,299,2223,616,334,-0.586669921875,0.42138671875,-0.27685546875
7.701,299,1867,508,331,-0.5838623046875,0.40283203125,-0.276123046875
7.709,300,1667,437,328,-0.558837890625,0.3994140625,-0.225341796875
7.723,298,1253,353,328,-0.5479736328125,0.3907470703125,-0.1314697265625
7.755,298,1001,346,332,-0.580078125,0.391845703125,-0.0462646484375
7.755,298,725,333,328,-0.6248779296875,0.39990234375,-0.03369140625
7.786,295,652,345,323,-0.6513671875,0.4334716796875,-0.0792236328125
7.786,295,644,348,324,-0.693603515625,0.490234375,-0.137451171875
7.787,294,644,364,328,-0.750244140625,0.520751953125,-0.163330078125
7.787,277,627,324,324,-0.7835693359375,0.4683837890625,-0.1583251953125
7.791,294,631,330,327,-0.8046875,0.3504638671875,-0.161865234375
7.805,292,640,338,324,-0.8211669921875,0.254638671875,-0.17138671875
7.813,296,661,329,322,-0.8289794921875,0.2305908203125,-0.18115234375
7.821,299,654,345,327,-0.8243408203125,0.2613525390625,-0.200439453125
7.829,299,660,348,323,-0.81396484375,0.310302734375,-0.2227783203125
7.843,296,644,348,322,-0.7999267578125,0.337890625,-0.2388916015625
7.859,299,661,348,322,-0.7864990234375,0.3292236328125,-0.24658203125
7.860,299,636,364,323,-0.779052734375,0.3116455078125,-0.24072265625
7.887,300,644,376,323,-0.7708740234375,0.310791015625,-0.230224609375
7.887,298,656,378,323,-0.7574462890625,0.324951171875,-0.2230224609375
7.889,296,660,379,323,-0.740966796875,0.342041015625,-0.214111328125
7.903,299,661,371,323,-0.73095703125,0.3519287109375,-0.19921875
7.911,299,725,347,323,-0.7308349609375,0.349609375,-0.180908203125
7.919,299,794,332,324,-0.7359619140625,0.3409423828125,-0.1602783203125
7.933,299,1103,336,326,-0.7401123046875,0.3350830078125,-0.1361083984375
7.941,299,1294,336,328,-0.7445068359375,0.335205078125,-0.1162109375
7.949,297,1634,326,331,-0.75927734375,0.351806640625,-0.1160888671875
7.965,299,2007,483,332,-0.776123046875,0.3836669921875,-0.1356201171875
7.971,294,2333,567,333,-0.775634765625,0.398681640625,-0.1683349609375
7.990,298,2645,646,334,-0.7447509765625,0.3917236328125,-0.206298828125
7.993,300,3042,813,344,-0.6796875,0.385009765625,-0.2486572265625
8.003,299,3147,871,371,-0.5748291015625,0.3829345703125,-0.2733154296875
8.009,302,3147,937,493,-0.4239501953125,0.384765625,-0.2330322265625
8.023,301,3147,1074,888,-0.3057861328125,0.3759765625,-0.1138916015625
8.031,300,3147,1160,1125,-0.30029296875,0.3416748046875,0.0205078125
8.039,300,3147,1216,1357,-0.30029296875,0.3416748046875,0.0205078125
8.053,301,3147,1401,1697,-0.57568359375,0.3599853515625,-0.0523681640625
8.090,304,3147,1509,1882,-0.822509765625,0.4888916015625,-0.1298828125
8.091,304,3147,1598,2074,-0.822509765625,0.4888916015625,-0.1298828125
8.091,304,3147,1640,2386,-1.264892578125,0.6197509765625,-0.1396484375
8.091,306,3147,1693,2507,-1.32177734375,0.63037109375,-0.1290283203125
8.099,304,3147,1786,2621,-1.32177734375,0.63037109375,-0.1290283203125
8.113,304,3147,1861,2808,-1.2381591796875,0.9188232421875,-0.0616455078125
8.121,304,3147,1918,2874,-1.2288818359375,0.9002685546875,-0.0865478515625
8.129,308,3147,1908,2905,-1.2288818359375,0.9002685546875,-0.0865478515625
8.143,304,3147,1908,2981,-1.30322265625,0.8465576171875,-0.309814453125
8.151,305,3147,1881,3000,-1.1925048828125,0.7747802734375,-0.42041015625
8.159,306,3147,1874,3008,-1.1925048828125,0.7747802734375,-0.42041015625
8.175,304,3147,1877,3047,-0.854248046875,0.7530517578125,-0.3575439453125
8.210,304,3147,1890,3032,-1.028564453125,0.8076171875,-0.255859375
8.210,304,3147,1890,2974,-1.028564453125,0.8076171875,-0.255859375
8.210,305,3147,1800,2807,-1.5611572265625,0.5889892578125,-0.130615234375
8.211,305,3147,1715,2692,-1.49267578125,0.5067138671875,-0.0958251953125
8.219,304,3147,1646,2514,-1.49267578125,0.5067138671875,-0.0958251953125
8.233,301,3147,1492,2230,-1.0609130859375,0.699462890625,-0.1910400390625
8.241,304,3147,1427,1957,-0.89208984375,0.765625,-0.2874755859375
8.256,302,3147,1333,1705,-0.89208984375,0.765625,-0.2874755859375
8.270,301,3147,1160,1278,-0.7415771484375,0.7073974609375,-0.3193359375
8.295,300,3147,1067,883,-0.7415771484375,0.7073974609375,-0.3193359375
8.296,300,3147,938,428,-0.6749267578125,0.66552734375,-0.263671875
8.296,300,3085,827,346,-0.602294921875,0.575927734375,-0.2392578125
8.302,296,2479,639,347,-0.533447265625,0.4268798828125,-0.2796630859375
8.310,296,1994,538,346,-0.533447265625,0.4268798828125,-0.2796630859375
8.319,296,1656,402,342,-0.5694580078125,0.4007568359375,-0.30029296875
8.332,298,1056,328,327,-0.6064453125,0.3084716796875,-0.0828857421875
8.340,299,868,334,328,-0.6064453125,0.3084716796875,-0.0828857421875
8.348,293,744,343,327,-0.6505126953125,0.2303466796875,0.038330078125
8.376,296,654,323,327,-0.6988525390625,0.2021484375,0.0377197265625
8.376,296,630,324,324,-0.7113037109375,0.2674560546875,-0.0361328125
8.395,299,654,323,322,-0.712890625,0.3699951171875,-0.1082763671875
8.395,295,636,330,306,-0.721923828125,0.4395751953125,-0.1607666015625
8.401,292,643,347,325,-0.7294921875,0.4373779296875,-0.1920166015625
8.409,299,648,328,323,-0.7510986328125,0.3648681640625,-0.20068359375
8.422,299,636,319,323,-0.7833251953125,0.2833251953125,-0.18896484375
8.430,299,644,323,323,-0.800048828125,0.2613525390625,-0.1820068359375
8.438,298,620,323,323,-0.7867431640625,0.3104248046875,-0.1937255859375
8.452,299,617,327,323,-0.7587890625,0.3731689453125,-0.210205078125
8.460,298,625,326,323,-0.7371826171875,0.3902587890625,-0.219970703125
8.474,299,644,324,323,-0.7247314453125,0.36474609375,-0.2264404296875
8.499,294,653,325,323,-0.712158203125,0.33203125,-0.2301025390625
8.499,299,668,336,323,-0.6947021484375,0.3116455078125,-0.2183837890625
8.500,299,766,337,323,-0.6768798828125,0.3040771484375,-0.1907958984375
8.514,295,1003,330,326,-0.66748046875,0.3037109375,-0.1654052734375
8.520,295,1309,321,331,-0.674560546875,0.31103515625,-0.146240234375
8.528,295,1497,321,337,-0.7030029296875,0.33447265625,-0.1339111328125
8.542,298,2058,364,334,-0.7552490234375,0.3792724609375,-0.1402587890625
8.550,298,2382,536,347,-0.813232421875,0.41650390625,-0.1729736328125
8.558,298,2497,594,347,-0.844482421875,0.4117431640625,-0.2286376953125
8.576,296,2877,731,346,-0.8350830078125,0.398681640625,-0.2862548828125
8.580,299,3146,814,361,-0.7972412109375,0.419189453125,-0.3035888671875
8.602,302,3147,860,446,-0.7197265625,0.4317626953125,-0.26904296875
8.603,300,3147,949,853,-0.591796875,0.3924560546875,-0.1849365234375
8.610,300,3147,1025,1085,-0.4598388671875,0.3209228515625,-0.0615234375
8.618,300,3147,1067,1338,-0.375732421875,0.276123046875,0.0545654296875
8.632,302,3147,1188,1748,-0.345703125,0.246337890625,0.109375
8.640,304,3147,1266,1959,-0.3662109375,0.2803955078125,0.0489501953125
8.648,304,3147,1411,2218,-0.484375,0.52783203125,-0.0518798828125
8.662,304,3147,1534,2560,-0.734619140625,0.863037109375,-0.1654052734375
8.670,306,3147,1595,2691,-1.0284423828125,0.9967041015625,-0.2841796875
8.680,304,3147,1640,2766,-1.2703857421875,0.8902587890625,-0.3409423828125
8.716,305,3147,1742,2922,-1.442138671875,0.7371826171875,-0.3048095703125
8.716,304,3147,1766,2935,-1.5242919921875,0.6524658203125,-0.167236328125
8.716,306,3147,1848,2944,-1.4622802734375,0.64111328125,-0.0177001953125
8.722,304,3147,1890,2993,-1.3702392578125,0.6005859375,-0.0408935546875
8.730,306,3147,1860,3025,-1.3204345703125,0.599609375,-0.259765625
8.738,307,3147,1854,3062,-1.136474609375,0.6986083984375,-0.4686279296875
8.752,305,3147,1863,3068,-0.8936767578125,0.7677001953125,-0.491455078125
8.760,306,3147,1861,3071,-0.8046875,0.79345703125,-0.387939453125
8.768,304,3147,1850,3089,-0.8349609375,0.747314453125,-0.2855224609375
8.783,306,3147,1865,3099,-0.905029296875,0.6424560546875,-0.1761474609375
8.793,306,3147,1864,3066,-1.10107421875,0.578125,-0.06982421875
8.823,304,3147,1850,3008,-1.360107421875,0.526123046875,0.001953125
8.823,304,3147,1775,2851,-1.4378662109375,0.427001953125,0.0250244140625
8.824,304,3147,1708,2788,-1.3006591796875,0.3529052734375,0.0108642578125
8.828,302,3147,1607,2698,-1.0762939453125,0.39599609375,-0.0384521484375
8.867,306,3147,1480,2432,-0.876220703125,0.565673828125,-0.1116943359375
8.867,302,3147,1424,2268,-0.7752685546875,0.71923828125,-0.187744140625
8.867,289,3147,1278,2050,-0.7830810546875,0.779541015625,-0.2626953125
8.874,302,3147,1157,1748,-0.865234375,0.7718505859375,-0.3221435546875
8.883,300,3147,1092,1516,-0.964111328125,0.7103271484375,-0.3321533203125
8.994,299,3147,1034,1280,-1.0103759765625,0.6309814453125,-0.2962646484375
8.994,300,3147,859,731,-0.9708251953125,0.552734375,-0.2562255859375
8.994,295,3147,774,416,-0.8575439453125,0.4759521484375,-0.2353515625
8.995,296,3023,631,332,-0.718017578125,0.3765869140625,-0.2352294921875
8.995,295,2391,558,344,-0.60302734375,0.2947998046875,-0.26220703125
8.995,299,2035,442,338,-0.51416015625,0.2796630859375,-0.265380859375
8.995,298,1695,438,330,-0.4698486328125,0.288818359375,-0.196044921875
8.995,299,1236,338,330,-0.4873046875,0.3182373046875,-0.0738525390625
8.995,299,1051,328,329,-0.5589599609375,0.3707275390625,0.0262451171875
8.995,297,800,327,324,-0.6563720703125,0.4149169921875,0.0469970703125
8.995,295,673,329,324,-0.718994140625,0.4384765625,0.0081787109375
9.000,296,669,333,323,-0.7547607421875,0.4439697265625,-0.0548095703125
9.012,298,687,338,328,-0.7764892578125,0.41943359375,-0.098388671875
9.028,294,683,337,323,-0.7855224609375,0.3521728515625,-0.1182861328125
9.030,304,669,328,323,-0.795166015625,0.2659912109375,-0.13134765625
9.044,296,689,323,321,-0.8060302734375,0.218505859375,-0.1490478515625
9.052,292,648,334,323,-0.806640625,0.2471923828125,-0.1806640625
9.061,298,679,327,324,-0.7943115234375,0.3282470703125,-0.2183837890625
9.069,299,683,327,327,-0.7943115234375,0.3282470703125,-0.2183837890625
9.110,298,744,334,324,-0.76318359375,0.408203125,-0.248046875
9.111,298,799,338,323,-0.7503662109375,0.39404296875,-0.2257080078125
9.129,299,819,347,321,-0.7503662109375,0.39404296875,-0.2257080078125
9.129,298,920,314,307,-0.73291015625,0.3624267578125,-0.156982421875
9.129,299,1064,326,330,-0.728515625,0.361083984375,-0.1463623046875
9.131,299,1215,319,330,-0.728515625,0.361083984375,-0.1463623046875
9.142,299,1596,318,328,-0.7564697265625,0.3402099609375,-0.1448974609375
9.150,296,1809,319,334,-0.7615966796875,0.333251953125,-0.1488037109375
9.158,296,2058,323,336,-0.7615966796875,0.333251953125,-0.1488037109375
9.172,300,2498,527,336,-0.7177734375,0.343994140625,-0.1275634765625
9.180,299,2912,654,342,-0.6270751953125,0.2960205078125,-0.1451416015625
9.190,300,3147,800,378,-0.6270751953125,0.2960205078125,-0.1451416015625
9.217,301,3147,900,883,-0.272216796875,0.30517578125,-0.17431640625
9.217,300,3147,944,1169,-0.064453125,0.3736572265625,-0.0972900390625
9.218,300,3147,1042,1380,-0.064453125,0.3736572265625,-0.0972900390625
9.241,304,3147,1222,1774,-0.155029296875,0.47509765625,0.0181884765625
9.241,306,3147,1343,2076,-0.5360107421875,0.5855712890625,-0.07861328125
9.248,304,3147,1474,2268,-0.5360107421875,0.5855712890625,-0.07861328125
9.261,302,3147,1583,2587,-1.431640625,0.9051513671875,-0.2720947265625
9.270,305,3147,1662,2633,-1.6243896484375,0.893798828125,-0.2423095703125
9.278,305,3147,1742,2766,-1.6243896484375,0.893798828125,-0.2423095703125
9.294,305,3147,1834,2851,-1.540283203125,0.64794921875,0.0731201171875
9.300,306,3147,1891,2884,-1.540283203125,0.64794921875,0.0731201171875
9.322,306,3147,1914,3008,-1.41552734375,0.60791015625,0.1541748046875
9.323,306,3147,1850,3056,-1.188232421875,0.75732421875,-0.26708984375
9.334,304,3147,1865,3060,-1.188232421875,0.75732421875,-0.26708984375
9.349,306,3147,1888,3084,-0.932373046875,0.87060546875,-0.4931640625
9.357,304,3147,1899,3110,-1.024169921875,0.9091796875,-0.4674072265625
9.360,304,3147,1880,3078,-1.024169921875,0.9091796875,-0.4674072265625
9.395,304,3147,1850,3034,-1.31787109375,0.7203369140625,-0.2889404296875
9.395,304,3147,1704,2891,-1.38330078125,0.4639892578125,-0.0897216796875
9.396,304,3147,1650,2780,-1.38330078125,0.4639892578125,-0.0897216796875
9.398,302,3147,1573,2662,-1.18798828125,0.5804443359375,-0.1304931640625
9.422,304,3147,1440,2259,-0.9310302734375,0.8009033203125,-0.2757568359375
9.423,302,3147,1294,2068,-0.9310302734375,0.8009033203125,-0.2757568359375
9.428,304,3147,1216,1808,-0.9212646484375,0.7645263671875,-0.28076171875
9.442,302,3147,1051,1330,-0.8760986328125,0.589111328125,-0.2030029296875
9.450,300,3147,973,980,-0.8760986328125,0.589111328125,-0.2030029296875
9.458,300,3147,895,695,-0.756591796875,0.518798828125,-0.1561279296875
9.472,300,3120,725,338,-0.43994140625,0.3946533203125,-0.2015380859375
9.480,302,2787,648,345,-0.43994140625,0.3946533203125,-0.2015380859375
9.502,299,2490,519,336,-0.390380859375,0.4453125,-0.2271728515625
9.502,302,1961,458,330,-0.416015625,0.4920654296875,-0.211669921875
9.528,299,1768,375,332,-0.4696044921875,0.4940185546875,-0.1500244140625
9.530,300,1584,363,310,-0.5491943359375,0.4761962890625,-0.078857421875
9.535,299,1236,352,309,-0.6474609375,0.44921875,-0.0623779296875
9.540,300,1085,342,324,-0.733642578125,0.4249267578125,-0.1083984375
9.556,300,989,348,327,-0.7607421875,0.416259765625,-0.15478515625
9.569,299,816,346,323,-0.75390625,0.425537109375,-0.166259765625
9.570,298,739,338,321,-0.768310546875,0.4168701171875,-0.1341552734375
9.578,298,725,324,324,-0.7919921875,0.3668212890625,-0.0927734375
9.592,298,706,332,322,-0.8067626953125,0.3179931640625,-0.0909423828125
9.600,298,693,324,323,-0.8126220703125,0.301513671875,-0.122802734375
9.608,298,673,332,323,-0.8070068359375,0.3187255859375,-0.1688232421875
9.628,299,721,344,323,-0.7869873046875,0.353515625,-0.210205078125
9.630,299,757,336,324,-0.7615966796875,0.3780517578125,-0.233642578125
9.645,300,794,328,323,-0.7396240234375,0.375732421875,-0.2376708984375
9.652,299,853,338,323,-0.7197265625,0.3614501953125,-0.2169189453125
9.661,299,959,348,324,-0.705078125,0.3599853515625,-0.178955078125
9.670,299,1091,347,328,-0.697265625,0.361083984375,-0.1453857421875
9.689,299,1401,324,327,-0.696533203125,0.35400390625,-0.1251220703125
9.690,299,1669,318,327,-0.7091064453125,0.351806640625,-0.1175537109375
9.705,298,1904,318,332,-0.728271484375,0.35986328125,-0.128173828125
9.725,302,2303,473,332,-0.742919921875,0.3681640625,-0.147705078125
9.726,299,2590,548,338,-0.731689453125,0.374267578125,-0.15478515625
9.729,302,2922,739,344,-0.6641845703125,0.36767578125,-0.1500244140625
9.744,301,3147,837,532,-0.547119140625,0.3485107421875,-0.134033203125
9.750,298,3147,936,918,-0.371826171875,0.355224609375,-0.083251953125
9.758,300,3147,1014,1137,-0.1378173828125,0.3497314453125,-0.0203857421875
9.779,304,3147,1211,1572,0.012939453125,0.3223876953125,-0.009765625
9.780,307,3147,1358,1828,-0.069091796875,0.3673095703125,-0.07470703125
9.790,304,3147,1464,2160,-0.3828125,0.4776611328125,-0.209228515625
9.805,300,3147,1610,2519,-0.8634033203125,0.651611328125,-0.35107421875
9.810,302,3147,1697,2713,-1.3623046875,0.8436279296875,-0.403076171875
9.826,304,3147,1781,2821,-1.6868896484375,0.8800048828125,-0.304443359375
9.834,304,3147,1900,2932,-1.7764892578125,0.819580078125,-0.080810546875
9.847,305,3147,1929,2976,-1.7127685546875,0.7158203125,0.1866455078125
9.848,306,3147,1974,2955,-1.59326171875,0.5040283203125,0.35400390625
9.862,305,3147,1957,3039,-1.380859375,0.4136962890625,0.290771484375
9.878,306,3147,1945,3008,-1.028564453125,0.5994873046875,0.010009765625
9.878,306,3147,1915,3064,-0.7437744140625,0.895263671875,-0.262451171875
9.892,306,3147,1948,3078,-0.783447265625,1.0426025390625,-0.3984375
9.907,306,3147,1960,3061,-1.0782470703125,0.93017578125,-0.4677734375
9.908,304,3147,1961,3031,-1.3564453125,0.6878662109375,-0.4468994140625
9.933,305,3147,1882,2925,-1.462646484375,0.493408203125,-0.357177734375
9.934,305,3147,1826,2840,-1.3863525390625,0.45849609375,-0.259765625
9.938,305,3147,1762,2703,-1.1871337890625,0.5484619140625,-0.1925048828125
9.952,304,3147,1596,2418,-0.970458984375,0.653076171875,-0.1729736328125
9.960,304,3147,1494,2257,-0.8209228515625,0.7301025390625,-0.1895751953125
9.968,304,3147,1434,2074,-0.7642822265625,0.7762451171875,-0.22998046875
9.986,302,3147,1249,1691,-0.78271484375,0.77197265625,-0.2581787109375
9.990,304,3147,1126,1478,-0.819580078125,0.711181640625,-0.2392578125
9.998,300,3147,1050,1167,-0.8145751953125,0.60986328125,-0.2001953125
10.012,302,3147,883,607,-0.7427978515625,0.5086669921875,-0.1873779296875
10.023,302,3147,800,348,-0.6319580078125,0.4588623046875,-0.1968994140625
10.033,299,2840,668,338,-0.5537109375,0.438232421875,-0.211669921875
10.042,296,2215,456,330,-0.5347900390625,0.4036865234375,-0.2076416015625
10.051,299,1905,413,333,-0.5487060546875,0.358154296875,-0.15283203125
10.058,298,1640,361,330,-0.590576171875,0.3121337890625,-0.0697021484375
10.072,295,1345,382,327,-0.66943359375,0.2921142578125,-0.03662109375
10.080,296,1116,369,330,-0.745849609375,0.3226318359375,-0.0849609375
10.091,299,1009,360,328,-0.766845703125,0.4022216796875,-0.1658935546875
10.155,299,762,364,324,-0.759033203125,0.4869384765625,-0.22021484375
10.156,296,673,363,321,-0.762939453125,0.5394287109375,-0.2257080078125
10.156,299,639,337,323,-0.7808837890625,0.5576171875,-0.198486328125
10.156,296,625,330,321,-0.8050537109375,0.5157470703125,-0.15673828125
10.156,298,649,334,321,-0.8143310546875,0.4183349609375,-0.12939453125
10.156,298,657,351,323,-0.8089599609375,0.3330078125,-0.1414794921875
10.162,300,669,324,323,-0.7884521484375,0.305908203125,-0.171142578125
10.171,297,673,328,327,-0.755859375,0.318115234375,-0.197509765625
10.178,299,678,371,324,-0.732177734375,0.3477783203125,-0.215576171875
10.198,299,692,370,323,-0.715087890625,0.3701171875,-0.2169189453125
10.200,299,694,345,323,-0.7020263671875,0.3687744140625,-0.20263671875
10.215,299,705,343,323,-0.7020263671875,0.3687744140625,-0.20263671875
10.222,294,706,363,321,-0.686767578125,0.33740234375,-0.152099609375
10.246,298,693,361,322,-0.678466796875,0.31982421875,-0.12890625
10.246,280,786,337,323,-0.678466796875,0.31982421875,-0.12890625
10.252,299,1025,330,324,-0.6409912109375,0.312255859375,-0.0921630859375
10.260,298,1274,336,330,-0.6219482421875,0.3350830078125,-0.067138671875
10.268,299,1704,346,330,-0.6219482421875,0.3350830078125,-0.067138671875
10.283,300,2435,592,332,-0.646728515625,0.425537109375,-0.08251953125
10.290,302,2668,740,338,-0.6619873046875,0.4598388671875,-0.15625
10.304,304,3098,816,346,-0.6619873046875,0.4598388671875,-0.15625
10.317,302,3147,1004,658,-0.5048828125,0.41845703125,-0.2320556640625
10.320,304,3147,1122,830,-0.3035888671875,0.3753662109375,-0.159912109375
10.328,301,3147,1225,1198,-0.3035888671875,0.3753662109375,-0.159912109375
10.342,302,3147,1399,1616,-0.3143310546875,0.2666015625,-0.0357666015625
10.350,306,3147,1521,1854,-0.595947265625,0.2877197265625,-0.1209716796875
10.360,302,3147,1589,2167,-0.595947265625,0.2877197265625,-0.1209716796875
10.372,304,3147,1750,2539,-1.2579345703125,0.5933837890625,-0.170654296875
10.380,306,3147,1826,2698,-1.3720703125,0.7274169921875,-0.080078125
10.388,306,3147,1890,2905,-1.3720703125,0.7274169921875,-0.080078125
10.409,306,3147,1985,3015,-1.2908935546875,0.896484375,0.0921630859375
10.410,306,3147,2005,3050,-1.2474365234375,0.84619140625,0.178466796875
10.419,306,3147,2048,3082,-1.2474365234375,0.84619140625,0.178466796875
10.433,304,3147,2053,3114,-1.22509765625,0.91064453125,-0.0557861328125
10.449,306,3147,2058,3120,-1.22509765625,0.91064453125,-0.0557861328125
10.450,307,3147,2024,3133,-1.2042236328125,0.88916015625,-0.2496337890625
10.462,306,3147,2058,3130,-0.942626953125,0.78271484375,-0.4718017578125
10.470,306,3147,2065,3134,-0.942626953125,0.78271484375,-0.4718017578125
10.478,307,3147,2076,3118,-1.0838623046875,0.747314453125,-0.5008544921875
10.492,306,3147,2021,3110,-1.52392578125,0.5050048828125,-0.2520751953125
10.500,306,3147,2028,3048,-1.52392578125,0.5050048828125,-0.2520751953125
10.525,306,3147,1973,2877,-1.4825439453125,0.4129638671875,-0.1051025390625
10.526,304,3147,1820,2601,-0.9979248046875,0.576171875,-0.072509765625
10.550,304,3147,1722,2432,-0.9979248046875,0.576171875,-0.072509765625
10.550,304,3147,1613,2238,-0.77197265625,0.69091796875,-0.1717529296875
10.553,304,3147,1494,1853,-0.6722412109375,0.83056640625,-0.334716796875
10.560,302,3147,1428,1647,-0.6722412109375,0.83056640625,-0.334716796875
10.568,302,3147,1340,1428,-0.7252197265625,0.8118896484375,-0.2933349609375
10.582,300,3147,1125,874,-0.73193359375,0.5643310546875,-0.1558837890625
10.590,300,3147,1051,574,-0.73193359375,0.5643310546875,-0.1558837890625
10.599,301,3147,957,354,-0.6602783203125,0.463134765625,-0.1527099609375
10.612,299,2736,780,334,-0.5546875,0.4227294921875,-0.1925048828125
10.651,302,2448,711,334,-0.5546875,0.4227294921875,-0.1925048828125
10.651,299,2133,584,334,-0.5391845703125,0.3902587890625,-0.167724609375
10.652,286,1840,473,332,-0.5330810546875,0.3411865234375,-0.0758056640625
10.652,296,1610,328,324,-0.5848388671875,0.2921142578125,0.016357421875
10.658,300,1488,359,327,-0.6917724609375,0.25537109375,0.017333984375
10.672,298,1317,334,328,-0.77783203125,0.2696533203125,-0.04931640625
10.680,298,1242,355,332,-0.8028564453125,0.336669921875,-0.097900390625
10.688,296,1185,359,328,-0.7930908203125,0.39990234375,-0.1109619140625
10.702,299,1100,344,324,-0.7794189453125,0.4251708984375,-0.121337890625
10.710,298,1051,344,328,-0.768798828125,0.4073486328125,-0.142333984375
10.718,298,1079,327,324,-0.7633056640625,0.364990234375,-0.1676025390625
10.753,294,1109,351,324,-0.7672119140625,0.3460693359375,-0.1895751953125
10.753,299,1149,331,327,-0.7760009765625,0.3642578125,-0.2027587890625
10.754,279,1211,336,327,-0.783203125,0.391357421875,-0.2149658203125
10.763,299,1278,334,326,-0.7852783203125,0.4056396484375,-0.227783203125
10.770,299,1336,361,330,-0.77978515625,0.4149169921875,-0.2296142578125
10.778,299,1453,334,329,-0.77880859375,0.4166259765625,-0.218505859375
10.794,294,1640,332,329,-0.7818603515625,0.3970947265625,-0.20166015625
10.800,299,1800,334,329,-0.774658203125,0.370361328125,-0.1885986328125
10.808,296,1918,365,332,-0.7547607421875,0.356201171875,-0.1748046875
10.836,300,2194,546,332,-0.7335205078125,0.3555908203125,-0.1505126953125
10.856,300,2286,607,336,-0.71533203125,0.3656005859375,-0.1278076171875
10.856,300,2412,707,318,-0.6915283203125,0.3681640625,-0.1248779296875
10.856,299,2919,778,338,-0.6627197265625,0.3446044921875,-0.145263671875
10.860,302,3147,882,356,-0.619140625,0.3243408203125,-0.1702880859375
10.870,300,3147,975,437,-0.5194091796875,0.350341796875,-0.1724853515625
10.882,302,3147,1132,898,-0.351806640625,0.37158203125,-0.133056640625
10.890,304,3147,1320,1206,-0.204833984375,0.3531494140625,-0.078125
10.898,304,3147,1413,1429,-0.1851806640625,0.3564453125,-0.0484619140625
10.912,306,3147,1604,1913,-0.3056640625,0.3778076171875,-0.0797119140625
10.920,304,3147,1739,2139,-0.541748046875,0.45703125,-0.15478515625
10.931,304,3147,1796,2334,-0.8787841796875,0.6474609375,-0.177490234375
10.961,304,3147,1850,2716,-1.186279296875,0.7686767578125,-0.1190185546875
10.962,306,3147,1994,2840,-1.3646240234375,0.71728515625,0.0059814453125
10.962,306,3147,2050,2965,-1.4427490234375,0.7032470703125,0.09814453125
10.973,306,3147,2108,3077,-1.4146728515625,0.7783203125,0.14453125
10.980,306,3147,2124,3140,-1.3133544921875,0.7891845703125,0.159912109375
10.988,307,3147,2102,3115,-1.220458984375,0.7908935546875,0.017578125
11.002,308,3147,2061,3147,-1.179931640625,0.847900390625,-0.2510986328125
11.010,306,3147,2058,3147,-1.09765625,0.8941650390625,-0.5087890625
11.018,306,3147,2070,3147,-0.9300537109375,0.9075927734375,-0.660400390625
11.034,306,3147,2087,3147,-0.8740234375,0.8802490234375,-0.61669921875
11.058,306,3147,2093,3147,-1.0615234375,0.8228759765625,-0.4332275390625
11.058,305,3147,2080,3147,-1.3563232421875,0.659912109375,-0.2408447265625
11.062,306,3147,2026,3143,-1.519775390625,0.443115234375,-0.1033935546875
11.072,306,3147,1982,2959,-1.4583740234375,0.4061279296875,-0.0556640625
11.078,306,3147,1945,2777,-1.24169921875,0.546875,-0.0928955078125
11.092,304,3147,1808,2409,-1.0040283203125,0.698486328125,-0.175048828125
11.100,304,3147,1700,2167,-0.838623046875,0.759521484375,-0.236572265625
11.108,302,3147,1611,1929,-0.744140625,0.7376708984375,-0.2662353515625
11.122,305,3147,1443,1516,-0.6822509765625,0.691650390625,-0.2572021484375
11.136,302,3147,1308,1278,-0.633056640625,0.6466064453125,-0.2208251953125
11.138,300,3147,1201,1051,-0.60009765625,0.6016845703125,-0.203857421875
11.167,304,3147,1064,588,-0.5811767578125,0.5616455078125,-0.21630859375
11.167,286,3147,958,337,-0.5721435546875,0.517578125,-0.2398681640625
11.168,282,2875,858,332,-0.592041015625,0.483154296875,-0.273193359375
11.185,299,2361,710,332,-0.6070556640625,0.46435546875,-0.2734375
11.190,299,2054,594,338,-0.5992431640625,0.4232177734375,-0.186767578125
11.198,299,1826,519,330,-0.6170654296875,0.350341796875,-0.0394287109375
11.212,296,1516,391,327,-0.6793212890625,0.267333984375,0.059814453125
11.220,296,1375,348,328,-0.7613525390625,0.2091064453125,0.0333251953125
11.228,302,1243,345,327,-0.8043212890625,0.2279052734375,-0.0537109375
11.242,300,1054,351,324,-0.795166015625,0.3231201171875,-0.1214599609375
11.274,299,986,330,327,-0.770263671875,0.4368896484375,-0.1591796875
11.275,296,853,336,323,-0.7508544921875,0.5106201171875,-0.1702880859375
11.275,295,780,342,323,-0.7510986328125,0.513427734375,-0.16650390625
11.280,300,728,364,322,-0.7685546875,0.4727783203125,-0.16455078125
11.288,299,721,356,323,-0.7764892578125,0.429443359375,-0.1702880859375
11.302,299,728,345,323,-0.7720947265625,0.40478515625,-0.1927490234375
11.310,298,711,347,323,-0.758544921875,0.4063720703125,-0.22265625
11.318,300,725,348,323,-0.741455078125,0.42041015625,-0.2369384765625
11.332,300,792,357,323,-0.7320556640625,0.430908203125,-0.23046875
11.341,299,820,348,323,-0.7266845703125,0.43212890625,-0.2138671875
11.349,298,904,348,324,-0.7266845703125,0.43212890625,-0.2138671875
11.372,296,1018,355,327,-0.7227783203125,0.416748046875,-0.16845703125
11.372,299,1085,345,326,-0.734130859375,0.4139404296875,-0.151123046875
11.378,300,1303,336,324,-0.734130859375,0.4139404296875,-0.151123046875
11.394,298,1636,336,329,-0.7603759765625,0.407958984375,-0.170654296875
11.400,298,1800,462,334,-0.7572021484375,0.3905029296875,-0.190673828125
11.410,299,2054,533,334,-0.7572021484375,0.3905029296875,-0.190673828125
11.422,302,2392,720,336,-0.6650390625,0.3406982421875,-0.1768798828125
11.430,299,2659,794,346,-0.5469970703125,0.314453125,-0.136962890625
11.443,300,3134,871,348,-0.5469970703125,0.314453125,-0.136962890625
11.477,300,3147,1050,684,-0.2188720703125,0.3797607421875,-0.1395263671875
11.477,302,3147,1143,947,-0.064453125,0.4803466796875,-0.1822509765625
11.477,300,3147,1306,1287,-0.064453125,0.4803466796875,-0.1822509765625
11.483,305,3147,1490,1735,-0.299560546875,0.5291748046875,-0.1649169921875
11.490,304,3147,1588,2039,-0.6849365234375,0.51611328125,-0.2252197265625
11.498,306,3147,1730,2233,-0.6849365234375,0.51611328125,-0.2252197265625
11.512,304,3147,1806,2671,-1.454345703125,0.5733642578125,-0.0869140625
11.523,306,3147,1920,2792,-1.58154296875,0.540283203125,0.1187744140625
11.528,308,3147,1983,2910,-1.58154296875,0.540283203125,0.1187744140625
11.547,306,3147,2072,3012,-1.382080078125,0.6151123046875,0.2889404296875
11.550,306,3147,2128,3065,-1.2396240234375,0.734130859375,0.2333984375
11.558,306,3147,2131,3086,-1.2396240234375,0.734130859375,0.2333984375
11.580,306,3147,2153,3084,-1.193603515625,0.895751953125,-0.10888671875
11.580,306,3147,2123,3102,-1.193603515625,0.895751953125,-0.10888671875
11.589,308,3147,2117,3126,-1.10107421875,0.7574462890625,-0.2484130859375
11.603,307,3147,2122,3099,-1.1044921875,0.696533203125,-0.3497314453125
11.611,306,3147,2113,3065,-1.356689453125,0.6485595703125,-0.3648681640625
11.619,306,3147,2115,3028,-1.356689453125,0.6485595703125,-0.3648681640625
11.635,306,3147,2074,2912,-1.433837890625,0.492431640625,-0.275634765625
11.651,307,3147,2014,2744,-1.32421875,0.5606689453125,-0.2181396484375
11.651,306,3147,1945,2530,-1.32421875,0.5606689453125,-0.2181396484375
11.674,304,3147,1745,2139,-1.068359375,0.66552734375,-0.1690673828125
11.674,306,3147,1652,1896,-0.9432373046875,0.644775390625,-0.1727294921875
11.686,304,3147,1543,1650,-0.9432373046875,0.644775390625,-0.1727294921875
11.695,302,3147,1224,1042,-0.636474609375,0.605224609375,-0.1458740234375
11.701,304,3147,1160,775,-0.636474609375,0.605224609375,-0.1458740234375
11.709,296,3147,1067,444,-0.49169921875,0.5899658203125,-0.1295166015625
11.723,302,2974,891,334,-0.36474609375,0.5560302734375,-0.1827392578125
11.731,300,2676,837,346,-0.36474609375,0.5560302734375,-0.1827392578125
11.739,300,2419,773,334,-0.4195556640625,0.564453125,-0.20751953125
11.755,300,1989,620,330,-0.5604248046875,0.4647216796875,-0.1121826171875
11.777,300,1914,589,334,-0.5604248046875,0.4647216796875,-0.1121826171875
11.777,280,1792,442,329,-0.6312255859375,0.3564453125,-0.0634765625
11.783,298,1544,359,329,-0.772216796875,0.26220703125,-0.134033203125
11.798,299,1411,363,327,-0.772216796875,0.26220703125,-0.134033203125
11.799,296,1343,352,328,-0.8013916015625,0.3104248046875,-0.1549072265625
11.813,296,1236,324,326,-0.793212890625,0.436767578125,-0.11865234375
11.821,298,1173,348,327,-0.793212890625,0.436767578125,-0.11865234375
11.829,296,1146,330,327,-0.776123046875,0.457275390625,-0.1148681640625
11.843,300,1076,346,323,-0.770263671875,0.420654296875,-0.15380859375
11.860,299,1091,344,328,-0.770263671875,0.420654296875,-0.15380859375
11.878,292,1117,338,327,-0.7757568359375,0.4005126953125,-0.18994140625
11.879,299,1178,344,324,-0.771728515625,0.3929443359375,-0.23095703125
11.882,300,1229,351,328,-0.771728515625,0.3929443359375,-0.23095703125
11.889,298,1251,354,328,-0.771240234375,0.408447265625,-0.2205810546875
11.908,299,1348,356,327,-0.7752685546875,0.4320068359375,-0.1922607421875
11.911,299,1474,359,328,-0.78515625,0.446533203125,-0.166748046875
11.919,299,1604,356,330,-0.79345703125,0.443603515625,-0.1573486328125
11.933,298,1729,351,327,-0.79443359375,0.4315185546875,-0.15966796875
11.941,299,1881,430,332,-0.792724609375,0.4190673828125,-0.1700439453125
11.956,299,2019,441,332,-0.7945556640625,0.4063720703125,-0.1832275390625
11.963,299,2240,519,332,-0.7901611328125,0.397705078125,-0.1954345703125
11.987,299,2361,571,336,-0.76953125,0.39453125,-0.1961669921875
11.987,301,2464,621,337,-0.7330322265625,0.3824462890625,-0.17431640625
11.993,301,2978,785,338,-0.671875,0.353759765625,-0.1370849609375
12.009,300,3147,837,416,-0.5755615234375,0.3074951171875,-0.099365234375
12.010,300,3147,898,619,-0.430908203125,0.2750244140625,-0.104248046875
12.023,300,3147,958,1224,-0.25439453125,0.31396484375,-0.1170654296875
12.031,302,3147,1108,1440,-0.1221923828125,0.3759765625,-0.053955078125
12.039,304,3147,1251,1715,-0.0966796875,0.4234619140625,0.029052734375
12.059,300,3147,1478,2134,-0.23486328125,0.4478759765625,0.0716552734375
12.061,304,3147,1557,2370,-0.5648193359375,0.456298828125,0.0384521484375
12.088,304,3147,1646,2659,-0.97509765625,0.576171875,-0.1075439453125
12.088,304,3147,1750,3003,-1.3365478515625,0.7779541015625,-0.2657470703125
12.091,305,3147,1792,3112,-1.541015625,0.86083984375,-0.3013916015625
12.099,304,3147,1850,3147,-1.541259765625,0.7955322265625,-0.1895751953125
12.113,306,3147,1957,3147,-1.424072265625,0.7117919921875,-0.0194091796875
12.121,306,3147,2010,3147,-1.2874755859375,0.7381591796875,0.0205078125
12.129,306,3147,2024,3147,-1.172119140625,0.8834228515625,-0.1392822265625
12.143,304,3147,1987,3147,-1.1016845703125,0.9017333984375,-0.36669921875
12.151,308,3147,1999,3147,-1.0263671875,0.789794921875,-0.5806884765625
12.160,308,3147,1974,3147,-0.9068603515625,0.7457275390625,-0.625244140625
12.185,305,3147,1957,3147,-0.8531494140625,0.715087890625,-0.4703369140625
12.186,306,3147,1957,3147,-0.903564453125,0.6846923828125,-0.2901611328125
12.190,302,3147,1955,3147,-1.089599609375,0.7021484375,-0.13671875
12.204,306,3147,1900,3053,-1.3641357421875,0.644775390625,-0.042724609375
12.220,306,3147,1861,2919,-1.484619140625,0.48583984375,-0.0318603515625
12.221,306,3147,1803,2769,-1.3671875,0.452392578125,-0.09033203125
12.228,306,3147,1711,2612,-1.1329345703125,0.59765625,-0.1644287109375
12.242,304,3147,1519,2258,-0.9141845703125,0.7115478515625,-0.2093505859375
12.250,302,3147,1440,1985,-0.770751953125,0.7200927734375,-0.230712890625
12.264,304,3147,1375,1742,-0.6951904296875,0.7120361328125,-0.23974609375
12.288,307,3147,1143,1264,-0.66357421875,0.70263671875,-0.23193359375
12.289,291,3147,1050,1034,-0.6649169921875,0.66845703125,-0.220458984375
12.289,302,3147,949,745,-0.66845703125,0.6158447265625,-0.236572265625
12.312,300,3147,811,338,-0.6612548828125,0.5511474609375,-0.2708740234375
12.312,299,2788,636,338,-0.655517578125,0.49462890625,-0.3074951171875
12.325,300,2484,575,336,-0.6278076171875,0.4453125,-0.314208984375
12.333,300,2023,445,331,-0.58740234375,0.3861083984375,-0.265869140625
12.340,298,1715,436,331,-0.574951171875,0.3687744140625,-0.1595458984375
12.365,293,1615,344,328,-0.610107421875,0.38623046875,-0.03857421875
12.370,299,1228,332,324,-0.681396484375,0.3848876953125,0.00390625
12.383,296,968,338,324,-0.7198486328125,0.4000244140625,-0.0509033203125
12.405,299,754,359,324,-0.7066650390625,0.4715576171875,-0.1431884765625
12.405,298,744,345,306,-0.704833984375,0.5455322265625,-0.1904296875
12.405,298,707,371,323,-0.7515869140625,0.53759765625,-0.172607421875
12.411,296,700,351,323,-0.8111572265625,0.43896484375,-0.1353759765625
12.432,299,651,334,321,-0.83984375,0.3133544921875,-0.119384765625
12.444,300,651,330,323,-0.839111328125,0.238525390625,-0.1351318359375
12.447,296,666,327,323,-0.822021484375,0.2513427734375,-0.16748046875
12.452,296,666,334,322,-0.805908203125,0.3092041015625,-0.1982421875
12.460,296,661,334,321,-0.7960205078125,0.346923828125,-0.2137451171875
12.468,298,675,336,323,-0.7862548828125,0.352294921875,-0.2178955078125
12.496,300,694,342,323,-0.777099609375,0.3485107421875,-0.211181640625
12.496,299,687,338,323,-0.7718505859375,0.346435546875,-0.1885986328125
12.498,292,697,328,323,-0.7718505859375,0.346435546875,-0.1885986328125
12.513,294,725,338,323,-0.753173828125,0.34326171875,-0.158203125
12.520,300,811,338,327,-0.73876953125,0.3349609375,-0.1627197265625
12.528,299,853,359,324,-0.73876953125,0.3349609375,-0.1627197265625
12.545,299,1039,342,324,-0.722412109375,0.3023681640625,-0.1478271484375
12.550,298,1239,364,324,-0.727783203125,0.3089599609375,-0.1165771484375
12.558,296,1529,388,331,-0.727783203125,0.3089599609375,-0.1165771484375
12.574,296,2091,373,329,-0.7322998046875,0.3563232421875,-0.0948486328125
12.598,300,2281,473,334,-0.7164306640625,0.366943359375,-0.1190185546875
12.598,300,2559,519,322,-0.7164306640625,0.366943359375,-0.1190185546875
12.602,300,3147,788,346,-0.5682373046875,0.2935791015625,-0.14453125
12.613,300,3147,860,619,-0.3992919921875,0.283935546875,-0.1236572265625
12.619,301,3147,990,842,-0.3992919921875,0.283935546875,-0.1236572265625
12.632,299,3147,1220,1480,-0.06787109375,0.402099609375,-0.0469970703125
12.655,302,3147,1340,1762,-0.257568359375,0.407470703125,-0.0054931640625
12.655,304,3147,1467,2127,-0.257568359375,0.407470703125,-0.0054931640625
12.662,304,3147,1648,2574,-1.0047607421875,0.5596923828125,-0.3416748046875
12.674,304,3147,1694,2850,-1.336181640625,0.803955078125,-0.419921875
12.678,306,3147,1755,3028,-1.336181640625,0.803955078125,-0.419921875
12.694,305,3147,1828,3147,-1.5438232421875,0.777099609375,-0.0965576171875
12.701,304,3147,1880,3147,-1.5438232421875,0.777099609375,-0.0965576171875
12.708,304,3147,1905,3147,-1.501953125,0.6212158203125,0.1248779296875
12.722,307,3147,1983,3147,-1.2857666015625,0.6602783203125,0.195068359375
12.730,306,3147,1989,3147,-1.2857666015625,0.6602783203125,0.195068359375
12.738,306,3147,2005,3147,-1.22265625,0.65966796875,0.0382080078125
12.752,306,3147,1985,3147,-0.86376953125,0.83544921875,-0.409423828125
12.762,306,3147,2007,3147,-0.86376953125,0.83544921875,-0.409423828125
12.775,306,3147,2012,3147,-0.825927734375,0.857177734375,-0.4566650390625
12.782,304,3147,1967,3147,-1.2945556640625,0.6971435546875,-0.304931640625
12.802,304,3147,1945,3147,-1.2945556640625,0.6971435546875,-0.304931640625
12.802,306,3147,1869,3147,-1.508544921875,0.4818115234375,-0.17724609375
12.812,304,3147,1775,3056,-1.38134765625,0.422607421875,-0.0955810546875
12.820,304,3147,1691,2870,-1.38134765625,0.422607421875,-0.0955810546875
12.828,304,3147,1585,2643,-1.18505859375,0.5650634765625,-0.132080078125
12.842,306,3147,1452,2202,-0.8916015625,0.6453857421875,-0.135498046875
12.850,302,3147,1316,1961,-0.8916015625,0.6453857421875,-0.135498046875
12.858,300,3147,1189,1610,-0.788330078125,0.6214599609375,-0.1287841796875
12.883,300,3147,991,1103,-0.5975341796875,0.564697265625,-0.15771484375
12.883,301,3147,867,787,-0.5975341796875,0.564697265625,-0.15771484375
12.905,302,3147,745,411,-0.527099609375,0.4744873046875,-0.221435546875
12.908,302,2916,617,336,-0.5340576171875,0.3724365234375,-0.3076171875
12.910,299,2600,561,342,-0.5340576171875,0.3724365234375,-0.3076171875
12.919,296,2384,508,336,-0.54296875,0.3662109375,-0.3428955078125
12.932,300,1888,481,328,-0.5452880859375,0.3795166015625,-0.319091796875
12.941,299,1704,455,332,-0.578857421875,0.4234619140625,-0.1658935546875
12.948,300,1604,401,329,-0.653564453125,0.4267578125,-0.00244140625
12.967,294,1326,371,328,-0.7513427734375,0.3760986328125,0.0364990234375
12.970,299,1271,401,328,-0.79541015625,0.34130859375,-0.0360107421875
12.980,300,1172,389,328,-0.777099609375,0.3704833984375,-0.1400146484375
13.007,299,1050,361,323,-0.7708740234375,0.4263916015625,-0.19384765625
13.007,299,969,364,305,-0.8018798828125,0.445556640625,-0.185546875
13.008,296,883,332,323,-0.8406982421875,0.417724609375,-0.17431640625
13.022,299,830,361,323,-0.8604736328125,0.36962890625,-0.1807861328125
13.030,296,800,349,323,-0.862548828125,0.3341064453125,-0.1905517578125
13.039,298,784,324,327,-0.85205078125,0.3336181640625,-0.1976318359375
13.052,300,767,348,324,-0.832763671875,0.357177734375,-0.2052001953125
13.060,299,799,356,323,-0.8173828125,0.376220703125,-0.2188720703125
13.074,298,818,354,324,-0.8035888671875,0.3812255859375,-0.2308349609375
13.082,299,871,369,324,-0.78466796875,0.378173828125,-0.2332763671875
13.092,299,912,364,328,-0.760986328125,0.3792724609375,-0.2196044921875
13.109,299,957,382,324,-0.74072265625,0.384765625,-0.1978759765625
13.112,294,1085,375,323,-0.728271484375,0.38037109375,-0.1810302734375
13.120,299,1287,342,327,-0.7239990234375,0.3638916015625,-0.1624755859375
13.128,300,1445,360,328,-0.7266845703125,0.3447265625,-0.1385498046875
13.142,299,1978,456,332,-0.714111328125,0.3236083984375,-0.1258544921875
13.150,299,2203,497,338,-0.6763916015625,0.311767578125,-0.1331787109375
13.158,299,2435,590,336,-0.622802734375,0.3095703125,-0.1322021484375
13.187,298,3147,799,344,-0.5447998046875,0.303955078125,-0.0999755859375
13.187,300,3147,872,648,-0.460693359375,0.3187255859375,-0.0587158203125
13.188,300,3147,938,936,-0.372314453125,0.3482666015625,-0.0394287109375
13.216,296,3147,1085,1411,-0.2783203125,0.36328125,-0.064697265625
13.216,302,3147,1234,1757,-0.27783203125,0.3544921875,-0.10302734375
13.218,300,3147,1331,2018,-0.433837890625,0.3367919921875,-0.121337890625
13.232,304,3147,1521,2410,-0.702880859375,0.36865234375,-0.1837158203125
13.240,304,3147,1596,2657,-1.02294921875,0.53173828125,-0.247802734375
13.248,304,3147,1693,2850,-1.2952880859375,0.7574462890625,-0.2244873046875
13.262,304,3147,1785,3076,-1.4295654296875,0.8194580078125,-0.13037109375
13.270,305,3147,1850,3147,-1.4298095703125,0.74658203125,-0.048583984375
13.293,305,3147,1908,3134,-1.36181640625,0.6845703125,0.0140380859375
13.294,306,3147,1949,3147,-1.306640625,0.6416015625,0.0406494140625
13.315,304,3147,1987,3147,-1.2889404296875,0.6748046875,-0.069091796875
13.315,304,3147,1994,3147,-1.2593994140625,0.75146484375,-0.2584228515625
13.325,306,3147,2005,3147,-1.12158203125,0.758544921875,-0.3841552734375
13.330,302,3147,2008,3147,-0.915283203125,0.7471923828125,-0.37890625
13.338,306,3147,2018,3147,-0.8233642578125,0.748779296875,-0.3072509765625
13.352,305,3147,2012,3147,-0.8974609375,0.7391357421875,-0.2525634765625
13.360,306,3147,1994,3147,-1.11962890625,0.6824951171875,-0.1934814453125
13.368,305,3147,1952,3147,-1.3837890625,0.5352783203125,-0.123779296875
13.396,302,3147,1862,3141,-1.4976806640625,0.40478515625,-0.0899658203125
13.414,304,3147,1815,3045,-1.4234619140625,0.41552734375,-0.098388671875
13.414,306,3147,1702,2784,-1.2645263671875,0.528076171875,-0.1334228515625
13.415,304,3147,1573,2418,-1.120849609375,0.6014404296875,-0.1610107421875
13.427,304,3147,1483,2221,-1.0010986328125,0.6015625,-0.1759033203125
13.438,304,3147,1348,1891,-0.87060546875,0.60888671875,-0.176513671875
13.442,302,3147,1134,1390,-0.72607421875,0.6358642578125,-0.150634765625
13.450,302,3147,1024,1005,-0.5968017578125,0.62060546875,-0.145263671875
13.458,300,3147,917,657,-0.518310546875,0.5552978515625,-0.201416015625
13.472,300,3128,748,336,-0.509521484375,0.484130859375,-0.2855224609375
13.480,304,2769,639,334,-0.5650634765625,0.4461669921875,-0.34521484375
13.518,299,2445,543,336,-0.615966796875,0.4404296875,-0.334228515625
13.519,299,1925,462,332,-0.62890625,0.422119140625,-0.2276611328125
13.519,282,1689,411,330,-0.6519775390625,0.3614501953125,-0.0819091796875
13.519,296,1422,338,310,-0.697265625,0.2821044921875,0.0128173828125
13.533,300,1079,356,323,-0.7332763671875,0.240234375,0.018798828125
13.540,298,883,378,325,-0.74462890625,0.27490234375,-0.03857421875
13.550,296,785,364,324,-0.7471923828125,0.3602294921875,-0.1097412109375
13.562,298,746,364,322,-0.74755859375,0.4342041015625,-0.1676025390625
13.570,300,740,371,324,-0.753662109375,0.4468994140625,-0.1993408203125
13.578,298,723,371,321,-0.769775390625,0.379638671875,-0.1885986328125
13.594,299,733,354,323,-0.78662109375,0.28076171875,-0.158203125
13.619,300,738,403,323,-0.79736328125,0.2242431640625,-0.1419677734375
13.619,297,762,389,305,-0.7969970703125,0.23779296875,-0.1414794921875
13.622,299,834,371,324,-0.7879638671875,0.2900390625,-0.14697265625
13.631,299,868,383,326,-0.78076171875,0.3349609375,-0.1566162109375
13.639,299,933,378,324,-0.78076171875,0.3349609375,-0.1566162109375
13.653,299,1039,370,323,-0.7835693359375,0.347412109375,-0.1834716796875
13.663,298,1109,371,327,-0.7908935546875,0.336181640625,-0.18603515625
13.669,296,1151,347,324,-0.8028564453125,0.3363037109375,-0.177001953125
13.683,299,1445,356,328,-0.8193359375,0.343505859375,-0.1658935546875
13.696,299,1675,455,333,-0.836181640625,0.346923828125,-0.1611328125
13.699,299,1855,481,332,-0.8509521484375,0.3453369140625,-0.166015625
13.721,302,2089,540,331,-0.85595703125,0.343994140625,-0.1705322265625
13.721,301,2174,658,334,-0.842529296875,0.3426513671875,-0.164306640625
13.734,302,2316,738,336,-0.842529296875,0.3426513671875,-0.164306640625
13.743,301,2554,816,334,-0.743408203125,0.33056640625,-0.14306640625
13.751,300,2717,853,344,-0.6595458984375,0.3765869140625,-0.13916015625
13.759,300,2912,963,344,-0.6595458984375,0.3765869140625,-0.13916015625
13.776,304,3147,1143,577,-0.3538818359375,0.4736328125,-0.1055908203125
13.781,304,3147,1236,853,-0.1461181640625,0.4974365234375,-0.107666015625
13.789,304,3147,1317,1157,-0.1461181640625,0.4974365234375,-0.107666015625
13.803,304,3147,1434,1669,-0.163818359375,0.6068115234375,-0.114501953125
13.829,304,3147,1569,1890,-0.3763427734375,0.601806640625,-0.2735595703125
13.829,292,3147,1693,2145,-0.3763427734375,0.601806640625,-0.2735595703125
13.834,308,3147,1796,2379,-1.1031494140625,0.6180419921875,-0.3958740234375
13.841,307,3147,1865,2569,-1.46142578125,0.57421875,-0.288818359375
13.849,306,3147,1931,2673,-1.46142578125,0.57421875,-0.288818359375
13.863,306,3147,1989,2844,-1.6561279296875,0.6688232421875,0.060302734375
13.871,306,3147,2032,2880,-1.5791015625,0.648193359375,0.19970703125
13.879,307,3147,2068,2940,-1.5791015625,0.648193359375,0.19970703125
13.893,306,3147,2074,3063,-1.1038818359375,0.69580078125,0.22216796875
13.901,306,3147,2082,3095,-0.849365234375,0.8299560546875,0.1488037109375
13.910,306,3147,2078,3117,-0.849365234375,0.8299560546875,0.1488037109375
13.923,306,3147,2080,3147,-0.7493896484375,0.9222412109375,-0.1324462890625
13.934,306,3147,2083,3147,-0.86865234375,0.8345947265625,-0.2613525390625
13.939,306,3147,2102,3147,-0.86865234375,0.8345947265625,-0.2613525390625
13.953,308,3147,2062,3118,-1.369140625,0.641357421875,-0.2327880859375
13.961,307,3147,2035,3066,-1.369140625,0.641357421875,-0.2327880859375
13.969,307,3147,1985,2988,-1.5615234375,0.5357666015625,-0.1964111328125
13.983,306,3147,1905,2703,-1.3883056640625,0.5572509765625,-0.14697265625
13.991,304,3147,1846,2505,-1.3883056640625,0.5572509765625,-0.14697265625
14.008,304,3147,1719,2279,-1.1707763671875,0.6256103515625,-0.1461181640625
14.024,304,3147,1501,1769,-0.8525390625,0.6802978515625,-0.221435546875
14.034,302,3147,1363,1416,-0.8525390625,0.6802978515625,-0.221435546875
14.037,302,3147,1243,1115,-0.7135009765625,0.6712646484375,-0.210693359375
14.045,302,3147,1056,442,-0.476318359375,0.5247802734375,-0.162109375
14.051,300,3137,922,346,-0.476318359375,0.5247802734375,-0.162109375
14.059,301,2769,803,344,-0.4248046875,0.48681640625,-0.1827392578125
14.073,300,2167,654,332,-0.500732421875,0.409912109375,-0.1729736328125
14.081,300,1913,567,332,-0.500732421875,0.409912109375,-0.1729736328125
14.089,299,1541,482,328,-0.6104736328125,0.4205322265625,-0.1107177734375
14.114,296,1125,347,328,-0.78955078125,0.3629150390625,-0.0885009765625
14.114,300,912,373,323,-0.78955078125,0.3629150390625,-0.0885009765625
14.137,300,731,375,324,-0.8077392578125,0.32958984375,-0.1156005859375
14.138,299,678,377,321,-0.7979736328125,0.3367919921875,-0.169921875
14.141,299,675,378,316,-0.7979736328125,0.3367919921875,-0.169921875
14.150,300,631,364,322,-0.80615234375,0.34765625,-0.18701171875
14.163,299,643,347,323,-0.783935546875,0.3546142578125,-0.1790771484375
14.171,299,648,334,324,-0.783935546875,0.3546142578125,-0.1790771484375
14.179,300,654,375,322,-0.783447265625,0.333251953125,-0.1651611328125
14.193,300,636,330,321,-0.785400390625,0.308837890625,-0.1578369140625
14.208,299,644,327,323,-0.781005859375,0.308349609375,-0.165771484375
14.209,299,639,338,323,-0.7633056640625,0.3406982421875,-0.17138671875
14.243,299,656,334,324,-0.736572265625,0.3798828125,-0.16748046875
14.244,299,659,315,305,-0.71240234375,0.41015625,-0.156982421875
14.244,300,661,338,323,-0.6895751953125,0.4276123046875,-0.14501953125
14.253,299,666,336,321,-0.669921875,0.4278564453125,-0.146240234375
14.261,299,688,336,324,-0.6590576171875,0.41162109375,-0.153564453125
14.269,298,689,336,321,-0.6590576171875,0.38916015625,-0.14990234375
14.283,299,871,328,323,-0.66748046875,0.366455078125,-0.1328125
14.291,299,1055,321,328,-0.68994140625,0.35009765625,-0.109130859375
14.299,299,1348,318,329,-0.730224609375,0.354248046875,-0.08447265625
14.314,299,1967,418,330,-0.7825927734375,0.3748779296875,-0.0711669921875
14.340,299,2271,482,337,-0.8292236328125,0.3890380859375,-0.0970458984375
14.341,292,2465,620,318,-0.843505859375,0.377197265625,-0.1749267578125
14.354,300,2912,800,336,-0.802734375,0.362548828125,-0.25146484375
14.355,302,3147,855,346,-0.7127685546875,0.3819580078125,-0.2574462890625
14.359,304,3147,913,546,-0.59716796875,0.3948974609375,-0.186279296875
14.373,302,3147,1070,1043,-0.4398193359375,0.364501953125,-0.0927734375
14.381,304,3147,1178,1370,-0.2841796875,0.3345947265625,-0.0286865234375
14.389,304,3147,1283,1600,-0.243408203125,0.3572998046875,-0.002197265625
14.403,305,3147,1393,2012,-0.3563232421875,0.451904296875,-0.03955078125
14.439,304,3147,1503,2178,-0.5819091796875,0.5423583984375,-0.168212890625
14.440,290,3147,1610,2463,-0.8912353515625,0.6219482421875,-0.298095703125
14.440,304,3147,1759,2798,-1.1954345703125,0.70703125,-0.339599609375
14.441,308,3147,1808,2905,-1.3768310546875,0.7364501953125,-0.2904052734375
14.459,305,3147,1865,2959,-1.440185546875,0.768798828125,-0.19140625
14.463,306,3147,1969,3068,-1.4400634765625,0.806396484375,-0.069580078125
14.471,306,3147,2005,3070,-1.3846435546875,0.7930908203125,0.057373046875
14.479,307,3147,2050,3147,-1.2723388671875,0.734130859375,0.172119140625
14.493,308,3147,2041,3147,-1.133056640625,0.6905517578125,0.1812744140625
14.501,307,3147,2047,3147,-0.9566650390625,0.7552490234375,0.0465087890625
14.516,308,3147,2037,3140,-0.812744140625,0.8751220703125,-0.120361328125
14.523,302,3147,2041,3147,-0.8543701171875,0.908203125,-0.2646484375
14.541,306,3147,2053,3147,-1.0797119140625,0.822998046875,-0.3544921875
14.542,306,3147,2039,3140,-1.341796875,0.6766357421875,-0.3726806640625
14.553,307,3147,1983,3008,-1.486328125,0.5543212890625,-0.3299560546875
14.573,307,3147,1914,2918,-1.4619140625,0.540771484375,-0.2529296875
14.573,306,3147,1840,2741,-1.3131103515625,0.6260986328125,-0.2071533203125
14.583,304,3147,1616,2323,-1.1170654296875,0.7220458984375,-0.22802734375
14.591,304,3147,1487,2012,-0.9542236328125,0.76416015625,-0.2689208984375
14.599,304,3147,1413,1732,-0.8453369140625,0.7537841796875,-0.268310546875
14.618,304,3147,1278,1173,-0.752685546875,0.6944580078125,-0.2161865234375
14.621,299,3147,1175,772,-0.63623046875,0.58740234375,-0.1676025390625
14.646,300,3147,1050,391,-0.5029296875,0.4925537109375,-0.17626953125
14.646,300,2798,755,316,-0.4031982421875,0.46337890625,-0.2222900390625
14.654,302,2481,667,336,-0.3809814453125,0.4801025390625,-0.240234375
14.659,300,2119,601,334,-0.4259033203125,0.484619140625,-0.1888427734375
14.718,299,1722,426,331,-0.5052490234375,0.438232421875,-0.0740966796875
14.719,299,1552,361,329,-0.610595703125,0.36181640625,0.0262451171875
14.719,298,1312,321,328,-0.7149658203125,0.3055419921875,0.0291748046875
14.719,299,1071,318,327,-0.7696533203125,0.3131103515625,-0.0460205078125
14.719,299,922,323,319,-0.78759765625,0.3660888671875,-0.116943359375
14.720,299,806,323,328,-0.8067626953125,0.414794921875,-0.1470947265625
14.746,299,721,324,321,-0.82275390625,0.443115234375,-0.16357421875
14.746,299,695,338,323,-0.83251953125,0.4503173828125,-0.183837890625
14.749,299,648,332,323,-0.838134765625,0.4432373046875,-0.196044921875
14.764,299,644,348,321,-0.8389892578125,0.426025390625,-0.1962890625
14.776,300,666,347,321,-0.8304443359375,0.4073486328125,-0.1943359375
14.780,299,661,332,319,-0.8072509765625,0.39697265625,-0.197021484375
14.789,299,675,346,323,-0.8072509765625,0.39697265625,-0.197021484375
14.802,298,671,354,323,-0.728271484375,0.4034423828125,-0.195556640625
14.810,299,673,354,323,-0.6956787109375,0.4158935546875,-0.1766357421875
14.823,299,683,361,322,-0.6956787109375,0.4158935546875,-0.1766357421875
14.851,299,713,359,323,-0.656982421875,0.4073486328125,-0.1136474609375
14.851,282,707,356,323,-0.64453125,0.3824462890625,-0.107421875
14.851,280,713,346,323,-0.64453125,0.3824462890625,-0.107421875
14.864,299,844,327,323,-0.6356201171875,0.36279296875,-0.115478515625
14.871,299,974,321,327,-0.6494140625,0.373291015625,-0.097900390625
14.883,299,1157,321,328,-0.6494140625,0.373291015625,-0.097900390625
14.892,298,1890,318,330,-0.7125244140625,0.375732421875,-0.0484619140625
14.902,299,2267,468,338,-0.7349853515625,0.3717041015625,-0.0504150390625
14.908,300,2503,555,338,-0.7349853515625,0.3717041015625,-0.0504150390625
14.926,294,3143,779,344,-0.698486328125,0.375,-0.19580078125
14.930,300,3147,834,567,-0.615966796875,0.4361572265625,-0.3223876953125
14.952,301,3147,879,899,-0.615966796875,0.4361572265625,-0.3223876953125
14.952,302,3147,1143,1365,-0.2874755859375,0.5494384765625,-0.343505859375
14.961,302,3147,1292,1646,-0.216552734375,0.4189453125,-0.2320556640625
14.969,300,3147,1382,1882,-0.216552734375,0.4189453125,-0.2320556640625
14.990,302,3147,1577,2345,-0.70361328125,0.3077392578125,-0.0994873046875
14.990,305,3147,1687,2503,-0.70361328125,0.3077392578125,-0.0994873046875
14.999,304,3147,1769,2658,-1.0958251953125,0.571044921875,-0.0692138671875
15.015,306,3147,1891,2905,-1.4754638671875,0.65673828125,0.1253662109375
15.020,306,3147,1949,2928,-1.4754638671875,0.65673828125,0.1253662109375
15.028,306,3147,1987,3000,-1.48095703125,0.4638671875,0.172119140625
15.056,306,3147,2049,3094,-1.307861328125,0.5074462890625,0.1055908203125
15.057,307,3147,2083,3126,-1.307861328125,0.5074462890625,0.1055908203125
15.058,305,3147,2080,3140,-1.2122802734375,0.5732421875,0.0777587890625
15.072,306,3147,2061,3147,-1.10546875,0.7440185546875,-0.2113037109375
15.080,306,3147,2080,3147,-1.10546875,0.7440185546875,-0.2113037109375
15.088,306,3147,2087,3147,-1.005859375,0.7862548828125,-0.402587890625
15.102,306,3147,2063,3147,-1.22900390625,0.73828125,-0.412841796875
15.112,305,3147,2061,3147,-1.22900390625,0.73828125,-0.412841796875
15.118,306,3147,2026,3135,-1.361572265625,0.5601806640625,-0.2960205078125
15.136,306,3147,1973,3006,-1.2510986328125,0.4547119140625,-0.0689697265625
15.156,306,3147,1892,2876,-1.2510986328125,0.4547119140625,-0.0689697265625
15.156,304,3147,1819,2734,-1.1273193359375,0.5230712890625,-0.05419921875
15.162,306,3147,1648,2430,-0.97900390625,0.6204833984375,-0.1612548828125
15.171,306,3147,1529,2258,-0.97900390625,0.6204833984375,-0.1612548828125
15.178,304,3147,1383,2039,-0.93798828125,0.6007080078125,-0.1954345703125
15.192,304,3147,1224,1580,-0.7713623046875,0.57373046875,-0.133544921875
15.203,304,3147,1116,1269,-0.7713623046875,0.57373046875,-0.133544921875
15.208,301,3147,1025,887,-0.669189453125,0.547119140625,-0.1163330078125
15.222,299,3147,800,338,-0.5931396484375,0.498046875,-0.15087890625
15.233,299,2930,714,344,-0.5606689453125,0.464599609375,-0.21923828125
15.240,299,2607,561,342,-0.5701904296875,0.4598388671875,-0.2496337890625
15.261,298,2203,418,330,-0.5906982421875,0.4498291015625,-0.217529296875
15.261,280,1951,321,330,-0.6134033203125,0.417724609375,-0.1231689453125
15.269,300,1762,331,330,-0.6712646484375,0.372802734375,-0.01318359375
15.283,299,1306,330,327,-0.7431640625,0.3328857421875,0.0142822265625
15.290,299,1067,346,328,-0.754638671875,0.3433837890625,-0.05517578125
15.298,299,858,327,325,-0.7281494140625,0.412109375,-0.1463623046875
15.312,300,694,328,323,-0.7425537109375,0.4915771484375,-0.209228515625
15.321,300,674,332,323,-0.796630859375,0.526611328125,-0.2335205078125
15.336,298,658,338,323,-0.841796875,0.49072265625,-0.2293701171875
15.342,298,648,363,321,-0.854248046875,0.4134521484375,-0.215087890625
15.359,299,644,348,323,-0.841064453125,0.34423828125,-0.2003173828125
15.360,299,656,363,323,-0.8211669921875,0.3199462890625,-0.197998046875
15.372,298,667,356,323,-0.7994384765625,0.348876953125,-0.2142333984375
15.380,299,682,353,323,-0.7708740234375,0.390869140625,-0.23583984375
15.389,299,689,359,323,-0.7431640625,0.4014892578125,-0.2510986328125
15.402,298,696,360,323,-0.7203369140625,0.3875732421875,-0.25537109375
15.417,300,687,371,324,-0.6983642578125,0.3734130859375,-0.2364501953125
15.419,296,693,334,323,-0.680419921875,0.3607177734375,-0.1981201171875
15.437,298,689,330,323,-0.6680908203125,0.33837890625,-0.1602783203125
15.440,296,806,330,324,-0.656494140625,0.3096923828125,-0.125732421875
15.467,298,936,324,324,-0.643798828125,0.292236328125,-0.08984375
15.467,298,1336,319,331,-0.6383056640625,0.294189453125,-0.048828125
15.470,294,1838,324,330,-0.64453125,0.3115234375,-0.01123046875
15.479,299,2118,411,334,-0.6708984375,0.330810546875,-0.005859375
15.492,301,2801,679,334,-0.71630859375,0.351806640625,-0.0506591796875
15.500,300,3147,790,346,-0.7529296875,0.3800048828125,-0.136962890625
15.508,300,3147,894,491,-0.7369384765625,0.424560546875,-0.2381591796875
15.522,302,3147,990,959,-0.621826171875,0.4586181640625,-0.3228759765625
15.530,300,3147,1104,1199,-0.46875,0.4168701171875,-0.295654296875
15.541,302,3147,1243,1546,-0.3800048828125,0.299072265625,-0.1484375
15.556,304,3147,1419,1980,-0.3994140625,0.231689453125,-0.1068115234375
15.567,304,3147,1516,2247,-0.5574951171875,0.3502197265625,-0.1845703125
15.569,304,3147,1665,2479,-0.84912109375,0.6221923828125,-0.1588134765625
15.583,306,3147,1808,2750,-1.137939453125,0.7720947265625,-0.035400390625
15.590,306,3147,1908,2868,-1.303955078125,0.66650390625,0.1256103515625
15.598,308,3147,1979,3011,-1.368408203125,0.492919921875,0.26318359375
15.612,306,3147,2035,3101,-1.3470458984375,0.45849609375,0.27197265625
15.628,307,3147,2085,3147,-1.2813720703125,0.5450439453125,0.2095947265625
15.629,307,3147,2070,3147,-1.23974609375,0.650634765625,0.1014404296875
15.642,307,3147,2150,3147,-1.2581787109375,0.7564697265625,-0.0574951171875
15.667,305,3147,2131,3121,-1.291015625,0.79052734375,-0.22607421875
15.667,307,3147,2104,3133,-1.194091796875,0.7520751953125,-0.4024658203125
15.672,306,3147,2117,3147,-1.1099853515625,0.7874755859375,-0.517333984375
15.681,308,3147,2110,3147,-1.2471923828125,0.8170166015625,-0.485595703125
15.690,307,3147,2083,3147,-1.4324951171875,0.651611328125,-0.340576171875
15.702,305,3147,2020,3101,-1.4747314453125,0.4544677734375,-0.1663818359375
15.711,306,3147,1967,2996,-1.378173828125,0.43017578125,-0.0419921875
15.719,304,3147,1882,2801,-1.232666015625,0.507568359375,-0.0125732421875
15.734,304,3147,1703,2428,-1.102783203125,0.56787109375,-0.0582275390625
15.744,304,3147,1557,2176,-0.999267578125,0.5887451171875,-0.1451416015625
15.749,304,3147,1435,1890,-0.89306640625,0.58203125,-0.205810546875
15.771,302,3147,1188,1308,-0.74267578125,0.5687255859375,-0.1939697265625
15.771,302,3147,1108,872,-0.577880859375,0.552490234375,-0.14990234375
15.778,302,3147,980,519,-0.456787109375,0.538818359375,-0.1407470703125
15.792,300,2916,777,338,-0.3984375,0.5281982421875,-0.1846923828125
15.803,299,2622,688,337,-0.4183349609375,0.5079345703125,-0.2200927734375
15.808,299,2228,594,334,-0.494873046875,0.4776611328125,-0.1707763671875
15.822,299,1823,442,327,-0.5858154296875,0.4415283203125,-0.065185546875
15.831,300,1592,411,328,-0.6898193359375,0.3887939453125,0.0008544921875
15.850,298,1348,364,330,-0.786376953125,0.3231201171875,-0.0068359375
15.852,299,1073,370,327,-0.8388671875,0.2674560546875,-0.054931640625
15.860,296,938,373,324,-0.85693359375,0.2508544921875,-0.0877685546875
15.873,294,855,361,323,-0.85888671875,0.275634765625,-0.0904541015625
15.882,299,750,369,321,-0.8436279296875,0.321533203125,-0.0970458984375
15.891,299,703,376,321,-0.8123779296875,0.3660888671875,-0.130859375
15.900,296,678,357,324,-0.77490234375,0.387939453125,-0.17578125
15.916,299,666,361,322,-0.7520751953125,0.3843994140625,-0.21240234375
15.921,298,678,387,323,-0.748046875,0.3685302734375,-0.2396240234375
15.929,299,683,386,323,-0.7462158203125,0.3560791015625,-0.257568359375
15.955,296,702,388,321,-0.74609375,0.35791015625,-0.255859375
15.955,299,748,411,324,-0.7431640625,0.3704833984375,-0.2308349609375
15.976,294,786,388,323,-0.7296142578125,0.3846435546875,-0.20654296875
15.977,299,858,382,322,-0.712646484375,0.3868408203125,-0.1949462890625
15.981,300,1025,371,328,-0.6998291015625,0.37841796875,-0.177978515625
15.991,299,1163,375,328,-0.6878662109375,0.3734130859375,-0.1453857421875
16.003,299,1598,356,327,-0.687744140625,0.3702392578125,-0.1102294921875
16.011,300,1914,411,333,-0.70556640625,0.359375,-0.1026611328125
16.019,302,2295,601,334,-0.70556640625,0.359375,-0.1026611328125
16.033,300,2739,794,334,-0.705322265625,0.3333740234375,-0.182373046875
16.041,302,3082,816,345,-0.6453857421875,0.336181640625,-0.22998046875
16.079,302,3147,939,406,-0.6453857421875,0.336181640625,-0.22998046875
16.079,300,3147,1012,746,-0.4052734375,0.4398193359375,-0.236083984375
16.079,302,3147,1129,933,-0.3433837890625,0.47998046875,-0.2269287109375
16.079,302,3147,1204,1313,-0.3433837890625,0.47998046875,-0.2269287109375
16.093,302,3147,1411,1703,-0.5087890625,0.3834228515625,-0.25341796875
16.101,304,3147,1527,2007,-0.6929931640625,0.4505615234375,-0.3262939453125
16.109,302,3147,1640,2202,-0.6929931640625,0.4505615234375,-0.3262939453125
16.123,304,3147,1773,2473,-1.249755859375,0.5728759765625,0.05322265625
16.132,306,3147,1867,2608,-1.40771484375,0.4677734375,0.3203125
16.141,306,3147,1957,2765,-1.40771484375,0.4677734375,0.3203125
16.182,306,3147,2028,2869,-1.41650390625,0.2933349609375,0.312744140625
16.183,292,3147,2072,2948,-1.344970703125,0.522216796875,0.0966796875
16.183,306,3147,2075,3018,-1.344970703125,0.522216796875,0.0966796875
16.184,306,3147,2084,3088,-1.277587890625,0.72705078125,-0.0697021484375
16.191,305,3147,2062,3107,-1.1109619140625,0.72802734375,-0.1025390625
16.200,306,3147,2073,3089,-1.1109619140625,0.72802734375,-0.1025390625
16.214,306,3147,2076,3115,-0.9344482421875,0.927978515625,-0.2410888671875
16.221,308,3147,2093,3085,-1.21044921875,0.85009765625,-0.26416015625
16.229,306,3147,2087,3090,-1.21044921875,0.85009765625,-0.26416015625
16.243,307,3147,2007,2996,-1.5020751953125,0.41259765625,-0.23046875
16.285,306,3147,1952,2887,-1.5020751953125,0.41259765625,-0.23046875
16.286,305,3147,1877,2736,-1.456787109375,0.406005859375,-0.208984375
16.287,304,3147,1691,2354,-1.1778564453125,0.4993896484375,-0.160400390625
16.287,306,3147,1509,2010,-1.1778564453125,0.4993896484375,-0.160400390625
16.289,304,3147,1450,1819,-1.0108642578125,0.49658203125,-0.1663818359375
16.304,304,3147,1216,1201,-0.68310546875,0.505859375,-0.1265869140625
16.312,302,3147,1107,813,-0.68310546875,0.505859375,-0.1265869140625
16.320,301,3147,1032,454,-0.549072265625,0.49853515625,-0.0994873046875
16.334,302,2905,853,337,-0.4195556640625,0.4713134765625,-0.129150390625
16.342,302,2638,765,338,-0.4195556640625,0.4713134765625,-0.129150390625
16.349,298,2341,657,336,-0.455810546875,0.4078369140625,-0.147216796875
16.389,300,2087,587,332,-0.691650390625,0.3509521484375,-0.116455078125
16.390,300,1936,540,331,-0.691650390625,0.3509521484375,-0.116455078125
16.390,300,1816,487,315,-0.7657470703125,0.3179931640625,-0.107421875
16.393,300,1569,498,330,-0.812744140625,0.2259521484375,-0.1226806640625
16.401,300,1450,467,328,-0.812744140625,0.2259521484375,-0.1226806640625
16.409,299,1373,491,328,-0.8116455078125,0.2349853515625,-0.1221923828125
16.423,299,1289,438,327,-0.798828125,0.3250732421875,-0.1317138671875
16.432,299,1178,418,328,-0.798828125,0.3250732421875,-0.1317138671875
16.439,296,1153,465,327,-0.7847900390625,0.3961181640625,-0.1607666015625
16.453,298,1188,391,327,-0.7738037109375,0.45556640625,-0.1942138671875
16.461,298,1188,391,327,-0.769775390625,0.4814453125,-0.2188720703125
16.469,299,1202,344,327,-0.7730712890625,0.4697265625,-0.231201171875
16.490,299,1274,351,324,-0.781005859375,0.434814453125,-0.2374267578125
16.492,299,1343,364,327,-0.7886962890625,0.39794921875,-0.2403564453125
16.499,299,1370,383,329,-0.7901611328125,0.3802490234375,-0.23583984375
16.513,298,1477,439,327,-0.787353515625,0.381591796875,-0.2203369140625
16.521,299,1624,479,333,-0.78369140625,0.3804931640625,-0.198486328125
16.529,299,1769,497,330,-0.77490234375,0.3702392578125,-0.1800537109375
16.543,300,2060,506,330,-0.7589111328125,0.360595703125,-0.1728515625
16.551,300,2247,579,334,-0.7449951171875,0.353271484375,-0.1783447265625
16.564,302,2415,722,338,-0.7332763671875,0.3486328125,-0.1922607421875
16.573,300,2799,790,336,-0.7081298828125,0.3331298828125,-0.2100830078125
16.597,300,3042,854,345,-0.647705078125,0.3095703125,-0.2186279296875
16.598,282,3147,913,370,-0.52880859375,0.3096923828125,-0.216064453125
16.606,304,3147,1012,802,-0.3345947265625,0.3265380859375,-0.210205078125
16.613,301,3147,1067,1151,-0.109619140625,0.35693359375,-0.153564453125
16.620,302,3147,1178,1519,0.0123291015625,0.4237060546875,-0.0318603515625
16.633,300,3147,1365,1974,-0.0623779296875,0.4779052734375,0.060302734375
