time,compression0,compression1,compression2,compression3,accel_x,accel_y,accel_z
0.014,304,751,509,328,-0.848388671875,0.5340576171875,-0.1231689453125
0.015,302,740,513,328,-0.8387451171875,0.5289306640625,-0.119873046875
0.026,304,734,513,328,-0.8304443359375,0.5235595703125,-0.1151123046875
0.036,304,714,516,327,-0.8267822265625,0.5164794921875,-0.1107177734375
0.044,304,712,518,328,-0.8299560546875,0.5098876953125,-0.10791015625
0.052,304,707,513,328,-0.8406982421875,0.5074462890625,-0.1065673828125
0.066,304,695,513,326,-0.854248046875,0.510498046875,-0.1064453125
0.074,304,692,523,328,-0.8623046875,0.517333984375,-0.1080322265625
0.082,302,697,512,328,-0.85986328125,0.5244140625,-0.1090087890625
0.102,304,693,514,327,-0.8516845703125,0.5301513671875,-0.1087646484375
0.121,304,696,521,328,-0.843505859375,0.5340576171875,-0.1063232421875
0.122,304,692,522,328,-0.8338623046875,0.5325927734375,-0.1031494140625
0.126,304,661,523,327,-0.822998046875,0.523193359375,-0.1014404296875
0.134,304,660,527,328,-0.8157958984375,0.5072021484375,-0.10205078125
0.142,304,653,531,328,-0.8138427734375,0.492919921875,-0.1025390625
0.156,304,636,533,327,-0.81787109375,0.4869384765625,-0.100830078125
0.164,304,631,537,328,-0.8275146484375,0.4864501953125,-0.0992431640625
0.181,300,625,531,328,-0.839111328125,0.4871826171875,-0.0992431640625
0.199,305,636,537,328,-0.847412109375,0.4871826171875,-0.098876953125
0.199,306,643,537,328,-0.8504638671875,0.4866943359375,-0.09814453125
0.202,304,654,533,327,-0.8497314453125,0.482666015625,-0.0982666015625
0.230,304,646,526,325,-0.8447265625,0.4779052734375,-0.0977783203125
0.231,304,636,532,328,-0.8343505859375,0.4774169921875,-0.096923828125
0.232,291,625,535,324,-0.8203125,0.476806640625,-0.0960693359375
0.245,304,600,525,327,-0.8072509765625,0.47412109375,-0.092529296875
0.253,304,566,525,328,-0.80078125,0.4727783203125,-0.08447265625
0.267,304,603,513,327,-0.802001953125,0.4697265625,-0.0777587890625
0.275,304,625,513,327,-0.80908203125,0.4630126953125,-0.0789794921875
0.283,304,673,518,328,-0.8212890625,0.4593505859375,-0.085693359375
0.302,304,784,513,327,-0.8382568359375,0.4642333984375,-0.0911865234375
0.305,306,832,521,327,-0.84912109375,0.47705078125,-0.0911865234375
0.341,306,829,525,328,-0.84326171875,0.489501953125,-0.0889892578125
0.342,307,883,532,329,-0.8253173828125,0.4908447265625,-0.089111328125
0.343,304,951,512,329,-0.8038330078125,0.47802734375,-0.0882568359375
0.343,291,1081,490,332,-0.7799072265625,0.4525146484375,-0.08056640625
0.352,304,1178,501,328,-0.7799072265625,0.4525146484375,-0.08056640625
0.366,304,1464,480,330,-0.709716796875,0.3922119140625,-0.0577392578125
0.374,304,1681,564,328,-0.669921875,0.3641357421875,-0.052001953125
0.382,298,1946,619,332,-0.669921875,0.3641357421875,-0.052001953125
0.401,306,2703,683,336,-0.5692138671875,0.3184814453125,-0.023681640625
0.404,308,3147,675,348,-0.516845703125,0.3128662109375,0.031005859375
0.414,306,3147,683,733,-0.516845703125,0.3128662109375,0.031005859375
0.429,308,3147,706,1348,-0.3834228515625,0.2080078125,0.1702880859375
0.443,306,3147,787,1550,-0.317626953125,0.24853515625,0.241455078125
0.444,308,3147,711,1702,-0.317626953125,0.24853515625,0.241455078125
0.456,308,3147,780,2035,-0.3909912109375,0.7684326171875,0.1881103515625
0.464,310,3147,801,2203,-0.57861328125,0.895263671875,-0.013916015625
0.472,309,3147,842,2284,-0.57861328125,0.895263671875,-0.013916015625
0.486,316,3147,902,2437,-1.28515625,0.90380859375,-0.347900390625
0.494,315,3147,917,2567,-1.6055908203125,1.059326171875,-0.355224609375
0.504,315,3147,907,2652,-1.6055908203125,1.059326171875,-0.355224609375
0.534,316,3147,936,2710,-2.0771484375,0.826904296875,-0.1517333984375
0.535,313,3147,934,2717,-2.0771484375,0.826904296875,-0.1517333984375
0.535,315,3147,912,2756,-2.1822509765625,0.1561279296875,-0.07568359375
0.554,304,3147,910,2746,-1.4732666015625,-0.411376953125,0.239013671875
0.555,316,3147,917,2734,-1.4732666015625,-0.411376953125,0.239013671875
0.562,315,3147,893,2647,-1.3629150390625,0.2247314453125,0.3555908203125
0.576,313,3147,819,2492,-1.441650390625,0.563232421875,0.001953125
0.584,312,3147,816,2333,-1.441650390625,0.563232421875,0.001953125
0.593,313,3147,788,2183,-1.3485107421875,0.5321044921875,-0.0496826171875
0.606,308,3147,753,1888,-0.9730224609375,0.237060546875,0.0775146484375
0.614,309,3147,714,1669,-0.9730224609375,0.237060546875,0.0775146484375
0.633,308,3147,697,1427,-0.8179931640625,-0.052490234375,0.0498046875
0.639,308,3147,633,1065,-0.700439453125,-0.317626953125,-0.077392578125
0.654,310,3147,578,846,-0.700439453125,-0.317626953125,-0.077392578125
0.655,308,3147,525,572,-0.630126953125,-0.066162109375,-0.04296875
0.666,300,3064,527,337,-0.5323486328125,0.6422119140625,-0.1920166015625
0.674,307,2790,486,338,-0.5323486328125,0.6422119140625,-0.1920166015625
0.682,306,2464,524,338,-0.567626953125,0.874267578125,-0.2115478515625
0.696,304,2039,499,331,-0.6270751953125,0.9654541015625,-0.082763671875
0.709,302,1770,501,338,-0.6270751953125,0.9654541015625,-0.082763671875
0.712,306,1508,513,330,-0.6485595703125,0.7681884765625,-0.069580078125
0.735,306,1115,512,325,-0.682861328125,0.55859375,-0.0509033203125
0.735,306,1009,400,331,-0.731689453125,0.419677734375,-0.016845703125
0.742,304,852,380,328,-0.7689208984375,0.294189453125,0.026611328125
0.756,304,763,387,328,-0.7952880859375,0.1475830078125,0.0460205078125
0.764,305,723,388,330,-0.844970703125,0.1024169921875,0.05908203125
0.777,304,735,409,328,-0.8988037109375,0.1988525390625,0.0850830078125
0.786,302,725,402,324,-0.92333984375,0.3154296875,0.078857421875
0.794,306,695,393,327,-0.911865234375,0.3709716796875,0.05224609375
0.802,304,711,390,327,-0.88525390625,0.37451171875,0.0408935546875
0.816,306,725,390,327,-0.8656005859375,0.3577880859375,0.043701171875
0.838,305,754,401,328,-0.8526611328125,0.337158203125,0.0517578125
0.839,306,746,401,328,-0.8414306640625,0.3251953125,0.060302734375
0.846,306,738,421,327,-0.8258056640625,0.330322265625,0.06103515625
0.854,304,815,428,327,-0.802490234375,0.347412109375,0.054443359375
0.863,304,867,409,327,-0.7734375,0.368408203125,0.0430908203125
0.876,304,1064,403,330,-0.74658203125,0.3892822265625,0.0240478515625
0.890,305,1253,402,328,-0.7274169921875,0.3978271484375,0.000732421875
0.892,304,1499,424,330,-0.7156982421875,0.387451171875,-0.026123046875
0.906,304,1960,433,330,-0.7081298828125,0.3677978515625,-0.0596923828125
0.914,304,2306,455,336,-0.68359375,0.3402099609375,-0.09228515625
0.922,304,2837,454,333,-0.6248779296875,0.2947998046875,-0.114013671875
0.942,304,3147,441,603,-0.5477294921875,0.2440185546875,-0.114501953125
0.944,306,3147,473,933,-0.47119140625,0.2169189453125,-0.0556640625
0.954,306,3147,473,1217,-0.3470458984375,0.197509765625,0.1104736328125
0.977,306,3147,567,1684,-0.10986328125,0.165771484375,0.331298828125
0.990,308,3147,687,1907,0.128662109375,0.158447265625,0.4091796875
1.003,314,3147,790,2144,0.119140625,0.197998046875,0.3372802734375
1.007,315,3147,905,2416,-0.263916015625,0.3671875,0.1927490234375
1.011,317,3147,995,2507,-0.8936767578125,0.7059326171875,-0.045654296875
1.018,318,3147,1091,2608,-1.5054931640625,1.0577392578125,-0.318359375
1.026,318,3147,1120,2847,-1.98486328125,1.2684326171875,-0.5321044921875
1.044,321,3147,1101,2935,-2.44970703125,1.15380859375,-0.621826171875
1.046,319,3147,1125,2798,-2.8360595703125,0.68994140625,-0.4998779296875
1.056,321,3147,1123,2753,-2.69921875,-0.0589599609375,-0.1939697265625
1.064,321,3147,1125,2770,-2.0009765625,-0.5994873046875,0.189208984375
1.076,315,3147,1125,2734,-1.454833984375,-0.22314453125,0.49169921875
1.086,318,3147,1000,2601,-1.4202880859375,0.6153564453125,0.490478515625
1.095,316,3147,883,2472,-1.5614013671875,1.008056640625,0.2313232421875
1.103,315,3147,814,2286,-1.5904541015625,0.908203125,-0.0302734375
1.123,312,3147,747,1838,-1.4521484375,0.7449951171875,-0.1143798828125
1.143,298,3147,685,1450,-1.1907958984375,0.6011962890625,-0.0447998046875
1.160,309,3147,707,1178,-0.9222412109375,0.2542724609375,0.044189453125
1.160,294,3147,720,673,-0.7169189453125,-0.2520751953125,0.0596923828125
1.161,308,3147,705,437,-0.5648193359375,-0.6312255859375,0.0047607421875
1.169,306,3147,679,347,-0.44384765625,-0.699951171875,-0.0028076171875
1.184,306,2869,673,338,-0.3623046875,-0.4146728515625,0.052001953125
1.185,292,2565,687,334,-0.338134765625,0.150634765625,0.0238037109375
1.193,299,2273,683,336,-0.3631591796875,0.754150390625,-0.1192626953125
1.207,306,1852,695,327,-0.4195556640625,1.0843505859375,-0.2574462890625
1.228,306,1687,675,330,-0.47802734375,1.1036376953125,-0.290283203125
1.228,304,1480,678,328,-0.5281982421875,1.0108642578125,-0.2244873046875
1.248,304,1331,658,328,-0.557861328125,0.8756103515625,-0.1011962890625
1.249,306,1318,647,330,-0.5750732421875,0.6580810546875,0.0010986328125
1.262,308,1278,688,329,-0.6331787109375,0.437744140625,0.0341796875
1.267,305,1241,694,328,-0.7373046875,0.31396484375,0.0355224609375
1.275,306,1255,685,328,-0.845947265625,0.24609375,0.024169921875
1.283,306,1243,683,328,-0.9312744140625,0.18115234375,-0.0172119140625
1.306,304,1198,698,328,-0.9837646484375,0.16064453125,-0.0687255859375
1.306,306,1142,693,328,-1.01123046875,0.2059326171875,-0.09130859375
1.313,305,1065,693,328,-1.022216796875,0.2791748046875,-0.072998046875
1.327,305,966,692,325,-1.0135498046875,0.35107421875,-0.0380859375
1.351,306,879,645,327,-0.9810791015625,0.3956298828125,-0.0146484375
1.352,290,884,638,327,-0.936279296875,0.409423828125,-0.010498046875
1.357,306,855,620,324,-0.9010009765625,0.4228515625,-0.0384521484375
1.365,304,846,601,327,-0.8802490234375,0.4425048828125,-0.0909423828125
1.373,304,829,598,327,-0.8548583984375,0.4599609375,-0.141845703125
1.387,306,814,588,327,-0.8134765625,0.4853515625,-0.1781005859375
1.397,306,818,607,327,-0.7628173828125,0.5206298828125,-0.190673828125
1.403,304,849,588,324,-0.7181396484375,0.5499267578125,-0.175537109375
1.417,306,923,537,327,-0.6885986328125,0.5361328125,-0.1346435546875
1.426,307,1082,625,328,-0.6630859375,0.4517822265625,-0.072265625
1.433,306,1278,653,328,-0.6292724609375,0.318603515625,-0.0001220703125
1.459,306,1867,682,327,-0.587158203125,0.188720703125,0.058349609375
1.461,308,2263,697,330,-0.5491943359375,0.1201171875,0.07861328125
1.466,306,2738,705,333,-0.5185546875,0.1151123046875,0.062255859375
1.478,306,3147,694,632,-0.4757080078125,0.1131591796875,0.0479736328125
1.486,307,3147,737,1067,-0.363525390625,0.12646484375,0.055908203125
1.494,308,3147,725,1334,-0.1497802734375,0.2017822265625,0.102783203125
1.508,315,3147,797,1813,0.09814453125,0.28955078125,0.145751953125
1.515,313,3147,865,1989,0.1624755859375,0.3800048828125,0.1041259765625
1.528,317,3147,1107,2195,0.1624755859375,0.3800048828125,0.1041259765625
1.537,318,3147,1258,2519,-0.8153076171875,0.87646484375,-0.11328125
1.555,323,3147,1239,2679,-1.5494384765625,1.0533447265625,-0.28564453125
1.555,323,3147,1287,2908,-1.5494384765625,1.0533447265625,-0.28564453125
1.568,327,3147,1357,3147,-2.554931640625,0.6976318359375,-0.3514404296875
1.576,324,3147,1341,3147,-2.66162109375,0.4617919921875,-0.14794921875
1.583,324,3147,1313,3051,-2.66162109375,0.4617919921875,-0.14794921875
1.597,323,3147,1289,3011,-1.7567138671875,-0.2464599609375,0.341552734375
1.608,324,3147,1294,3064,-1.0584716796875,-0.2645263671875,0.58154296875
1.613,324,3147,1294,3023,-1.0584716796875,-0.2645263671875,0.58154296875
1.631,324,3147,1258,2861,-1.3037109375,1.0135498046875,0.2283935546875
1.635,324,3147,1216,2736,-1.656005859375,0.89501953125,-0.0606689453125
1.658,322,3147,1167,2579,-1.656005859375,0.89501953125,-0.0606689453125
1.658,319,3147,1018,2303,-1.5074462890625,0.3114013671875,-0.0040283203125
1.665,315,3147,943,2142,-1.248046875,0.1661376953125,0.0643310546875
1.679,316,3147,844,2009,-1.248046875,0.1661376953125,0.0643310546875
1.687,313,3147,813,1681,-0.840576171875,0.052978515625,0.0472412109375
1.695,310,3147,803,1413,-0.7066650390625,0.2164306640625,0.000244140625
1.703,307,3147,741,1191,-0.7066650390625,0.2164306640625,0.000244140625
1.717,309,3147,725,750,-0.5216064453125,0.228515625,-0.1680908203125
1.725,310,3147,678,439,-0.4888916015625,0.1578369140625,-0.167236328125
1.733,308,3078,652,338,-0.4888916015625,0.1578369140625,-0.167236328125
1.753,304,2280,586,332,-0.5064697265625,0.447998046875,-0.1727294921875
1.766,306,1891,579,334,-0.5064697265625,0.447998046875,-0.1727294921875
1.766,304,1604,563,334,-0.519287109375,0.7308349609375,-0.1121826171875
1.777,306,1241,578,328,-0.5506591796875,0.86669921875,0.0010986328125
1.791,305,1160,574,328,-0.5506591796875,0.86669921875,0.0010986328125
1.793,304,1024,578,328,-0.6151123046875,0.7147216796875,0.0543212890625
1.807,306,999,591,329,-0.74951171875,0.3004150390625,0.0762939453125
1.815,306,959,594,330,-0.74951171875,0.3004150390625,0.0762939453125
1.824,305,946,582,330,-0.8043212890625,0.1922607421875,0.07470703125
1.837,306,974,601,327,-0.871337890625,0.1619873046875,0.0655517578125
1.864,306,1003,617,328,-0.871337890625,0.1619873046875,0.0655517578125
1.864,306,1054,605,330,-0.896484375,0.19140625,0.052490234375
1.867,306,1063,628,330,-0.94873046875,0.288818359375,0.0032958984375
1.876,304,1078,632,328,-0.94873046875,0.288818359375,0.0032958984375
1.883,304,1078,631,328,-0.9571533203125,0.298583984375,-0.011474609375
1.904,306,1146,621,328,-0.926025390625,0.2322998046875,-0.03076171875
1.905,306,1201,623,330,-0.926025390625,0.2322998046875,-0.03076171875
1.913,304,1234,619,330,-0.8983154296875,0.221435546875,-0.0341796875
1.929,305,1383,632,329,-0.833984375,0.286865234375,-0.0140380859375
1.938,304,1569,650,332,-0.833984375,0.286865234375,-0.0140380859375
1.943,306,1735,654,336,-0.8011474609375,0.3302001953125,-0.003173828125
1.967,306,2131,654,330,-0.7735595703125,0.360107421875,0.0089111328125
1.967,291,2340,659,332,-0.7421875,0.3568115234375,0.022216796875
1.974,299,2760,658,336,-0.689697265625,0.3074951171875,0.031494140625
1.987,306,3147,651,632,-0.60107421875,0.2188720703125,0.0318603515625
1.995,304,3147,646,938,-0.48583984375,0.117919921875,-0.0069580078125
2.003,304,3147,666,1229,-0.38623046875,0.04443359375,-0.0777587890625
2.017,306,3147,731,1652,-0.3214111328125,0.0675048828125,-0.03759765625
2.025,308,3147,856,1934,-0.2108154296875,0.239013671875,0.1866455078125
2.042,313,3147,927,2133,-0.053466796875,0.45166015625,0.36328125
2.047,316,3147,1085,2409,-0.011474609375,0.5286865234375,0.3099365234375
2.067,321,3147,1178,2567,-0.2117919921875,0.484375,0.126953125
2.067,324,3147,1157,2769,-0.6539306640625,0.5062255859375,-0.057373046875
2.077,323,3147,1262,3095,-1.1781005859375,0.672607421875,-0.1541748046875
2.085,321,3147,1323,3147,-1.6165771484375,0.9110107421875,-0.1480712890625
2.093,323,3147,1336,3147,-1.97998046875,1.074951171875,-0.1002197265625
2.107,327,3147,1416,3147,-2.473388671875,0.8804931640625,-0.0521240234375
2.116,328,3147,1427,3147,-2.8548583984375,0.313720703125,-0.005126953125
2.129,324,3147,1415,3147,-2.4820556640625,-0.3792724609375,0.053955078125
2.149,324,3147,1422,3147,-1.5286865234375,-0.6827392578125,0.2335205078125
2.149,325,3147,1404,3147,-0.92431640625,-0.0811767578125,0.4244384765625
2.158,323,3147,1359,3147,-1.048828125,0.7864990234375,0.3428955078125
2.171,325,3147,1319,3147,-1.4200439453125,1.022216796875,0.1148681640625
2.175,324,3147,1306,3147,-1.6024169921875,0.783447265625,-0.00341796875
2.183,322,3147,1260,3147,-1.55908203125,0.5406494140625,0.0118408203125
2.197,319,3147,1214,2928,-1.394287109375,0.3717041015625,0.05322265625
2.205,319,3147,1131,2703,-1.2122802734375,0.2481689453125,0.0426025390625
2.214,318,3147,1097,2456,-1.061767578125,0.197265625,0.0146484375
2.227,316,3147,942,2012,-0.93603515625,0.192138671875,0.0211181640625
2.264,314,3147,897,1691,-0.8087158203125,0.20263671875,0.03173828125
2.274,312,3147,897,1312,-0.6837158203125,0.1927490234375,-0.0294189453125
2.275,313,3147,872,808,-0.583740234375,0.1317138671875,-0.101318359375
2.276,306,3147,867,434,-0.5205078125,0.093994140625,-0.0819091796875
2.276,308,2954,852,346,-0.4892578125,0.1396484375,-0.0513916015625
2.282,308,2392,803,334,-0.490234375,0.260498046875,-0.07666015625
2.296,306,1655,766,334,-0.53076171875,0.4290771484375,-0.0555419921875
2.304,307,1318,753,331,-0.60107421875,0.56201171875,0.0377197265625
2.313,302,1050,728,332,-0.667236328125,0.5927734375,0.0948486328125
2.326,306,820,720,328,-0.661376953125,0.4996337890625,0.0472412109375
2.334,306,722,737,329,-0.6600341796875,0.347900390625,-0.0743408203125
2.376,304,688,735,323,-0.7286376953125,0.2706298828125,-0.1107177734375
2.377,306,677,639,324,-0.8016357421875,0.280517578125,-0.0238037109375
2.377,306,689,666,327,-0.860595703125,0.3116455078125,0.067138671875
2.378,306,673,654,324,-0.8968505859375,0.3482666015625,0.1170654296875
2.388,304,683,605,327,-0.912841796875,0.382080078125,0.1356201171875
2.394,304,666,555,326,-0.91357421875,0.3870849609375,0.1353759765625
2.403,306,644,543,324,-0.8985595703125,0.3515625,0.127197265625
2.416,304,694,548,324,-0.86767578125,0.2890625,0.109130859375
2.424,304,689,546,323,-0.8284912109375,0.226318359375,0.078125
2.432,304,706,576,326,-0.793212890625,0.185791015625,0.0435791015625
2.451,304,725,573,327,-0.774658203125,0.185546875,0.013671875
2.476,304,837,588,328,-0.774169921875,0.218994140625,-0.0091552734375
2.476,305,889,617,327,-0.7838134765625,0.2574462890625,-0.0252685546875
2.477,304,1343,623,330,-0.8018798828125,0.283447265625,-0.0408935546875
2.484,306,1635,627,330,-0.8271484375,0.3037109375,-0.057373046875
2.492,302,1934,673,332,-0.8546142578125,0.333251953125,-0.06640625
2.506,306,2386,731,330,-0.875244140625,0.366943359375,-0.0689697265625
2.514,304,2659,736,336,-0.8853759765625,0.3897705078125,-0.0716552734375
2.522,300,3008,744,338,-0.89599609375,0.40185546875,-0.0665283203125
2.536,305,3147,763,423,-0.9090576171875,0.4024658203125,-0.0474853515625
2.544,309,3147,762,571,-0.914794921875,0.37939453125,-0.0235595703125
2.552,306,3147,763,749,-0.914794921875,0.37939453125,-0.0235595703125
2.588,305,3147,754,975,-0.860595703125,0.248779296875,-0.0081787109375
2.589,306,3147,735,1201,-0.7672119140625,0.145263671875,-0.0662841796875
2.589,306,3147,761,1449,-0.7672119140625,0.145263671875,-0.0662841796875
2.596,307,3147,845,1840,-0.4012451171875,-0.01611328125,-0.23095703125
2.604,306,3147,883,2068,-0.1990966796875,0.1148681640625,-0.1033935546875
2.612,310,3147,936,2244,-0.1990966796875,0.1148681640625,-0.1033935546875
2.626,316,3147,1055,2601,-0.147216796875,0.52490234375,0.2012939453125
2.634,316,3147,1148,2800,-0.4217529296875,0.6552734375,0.162109375
2.643,318,3147,1191,2981,-0.4217529296875,0.6552734375,0.162109375
2.656,323,3147,1336,3147,-1.2607421875,0.883544921875,-0.006103515625
2.682,321,3147,1390,3147,-1.605712890625,1.0093994140625,0.0399169921875
2.683,323,3147,1483,3147,-1.605712890625,1.0093994140625,0.0399169921875
2.692,325,3147,1574,3147,-1.9317626953125,0.504638671875,0.432861328125
2.697,324,3147,1575,3147,-2.068359375,0.052734375,0.46923828125
2.702,325,3147,1543,3147,-2.068359375,0.052734375,0.46923828125
2.716,323,3147,1490,3147,-1.5679931640625,-0.2877197265625,0.124755859375
2.724,324,3147,1467,3147,-1.20166015625,-0.007568359375,0.202392578125
2.732,323,3147,1456,3147,-1.20166015625,-0.007568359375,0.202392578125
2.746,324,3147,1416,3147,-1.5731201171875,0.99267578125,0.001953125
2.757,322,3147,1396,3147,-1.5731201171875,0.99267578125,0.001953125
2.762,323,3147,1377,3147,-1.6673583984375,0.760009765625,-0.12158203125
2.785,323,3147,1336,3147,-1.26123046875,0.130859375,0.0660400390625
2.785,316,3147,1280,3015,-1.26123046875,0.130859375,0.0660400390625
2.792,318,3147,1236,2820,-1.0450439453125,0.0477294921875,0.1654052734375
2.806,318,3147,1148,2478,-0.8055419921875,0.2047119140625,0.155517578125
2.814,316,3147,1066,2223,-0.8055419921875,0.2047119140625,0.155517578125
2.822,316,3147,984,1983,-0.740966796875,0.27783203125,0.0933837890625
2.836,313,3147,962,1521,-0.64208984375,0.1663818359375,-0.0042724609375
2.844,310,3147,897,1175,-0.64208984375,0.1663818359375,-0.0042724609375
2.860,312,3147,897,799,-0.6187744140625,0.1190185546875,-0.032470703125
2.867,308,3120,861,338,-0.6524658203125,0.248046875,-0.0706787109375
2.895,308,2559,844,336,-0.6524658203125,0.248046875,-0.0706787109375
2.895,310,2053,859,338,-0.65087890625,0.373291015625,-0.0234375
2.896,309,1396,829,328,-0.6474609375,0.4376220703125,0.021484375
2.904,306,1115,830,330,-0.6474609375,0.4376220703125,0.021484375
2.918,307,1167,811,328,-0.6773681640625,0.408447265625,0.0267333984375
2.926,305,1191,780,328,-0.753662109375,0.3399658203125,0.0556640625
2.934,306,1157,775,330,-0.753662109375,0.3399658203125,0.0556640625
2.942,306,1189,767,329,-0.783203125,0.33251953125,0.0670166015625
2.962,307,1216,750,328,-0.8465576171875,0.3848876953125,0.08740234375
2.964,304,1209,750,329,-0.8465576171875,0.3848876953125,0.08740234375
2.972,305,1216,740,328,-0.86767578125,0.3824462890625,0.0750732421875
2.994,306,1294,721,330,-0.8814697265625,0.351318359375,0.0435791015625
2.994,307,1359,735,310,-0.888916015625,0.31201171875,0.014892578125
3.002,308,1434,728,332,-0.885986328125,0.2734375,0.00244140625
3.016,306,1659,761,331,-0.8758544921875,0.242919921875,-0.0037841796875
3.030,306,1789,778,332,-0.8656005859375,0.23583984375,-0.01220703125
3.032,305,2014,799,332,-0.8582763671875,0.25341796875,-0.0203857421875
3.046,306,2296,802,333,-0.85888671875,0.280029296875,-0.0283203125
3.054,306,2453,816,334,-0.868408203125,0.30615234375,-0.0308837890625
3.065,306,2597,837,334,-0.881103515625,0.322021484375,-0.0213623046875
3.076,306,2890,842,334,-0.89306640625,0.3138427734375,-0.0015869140625
3.101,306,3017,855,342,-0.896484375,0.2864990234375,0.0137939453125
3.101,308,3147,853,342,-0.8812255859375,0.259521484375,0.018310546875
3.107,308,3147,891,548,-0.8486328125,0.246826171875,0.018310546875
3.119,307,3147,907,734,-0.810791015625,0.2515869140625,0.0323486328125
3.122,308,3147,913,907,-0.7567138671875,0.2506103515625,0.0718994140625
3.143,310,3147,963,1318,-0.657958984375,0.2225341796875,0.0928955078125
3.144,310,3147,1000,1531,-0.49462890625,0.1644287109375,0.059326171875
3.152,313,3147,1031,1798,-0.2568359375,0.0899658203125,-0.0050048828125
3.167,313,3147,1143,2194,-0.0352783203125,0.03466796875,-0.0665283203125
3.174,316,3147,1222,2414,0.0076904296875,0.0374755859375,-0.0526123046875
3.190,318,3147,1287,2631,-0.195556640625,0.1619873046875,0.0640869140625
3.196,321,3147,1399,3056,-0.5906982421875,0.4466552734375,0.15673828125
3.214,323,3147,1437,3147,-1.0360107421875,0.7896728515625,0.168701171875
3.214,323,3147,1474,3147,-1.38818359375,1.0081787109375,0.126220703125
3.226,324,3147,1557,3147,-1.608154296875,1.009765625,0.075439453125
3.234,327,3147,1580,3147,-1.7689208984375,0.7725830078125,0.11474609375
3.242,327,3147,1602,3147,-1.9893798828125,0.4072265625,0.19091796875
3.256,328,3147,1610,3147,-2.2391357421875,0.218505859375,0.1798095703125
3.269,328,3147,1602,3147,-2.160400390625,0.0791015625,0.088623046875
3.272,328,3147,1569,3147,-1.5870361328125,-0.21337890625,0.1646728515625
3.296,327,3147,1597,3147,-1.0777587890625,-0.14990234375,0.429443359375
3.297,327,3147,1592,3147,-1.121337890625,0.43701171875,0.4609375
3.302,328,3147,1559,3147,-1.4461669921875,0.8638916015625,0.2066650390625
3.316,328,3147,1504,3147,-1.6002197265625,0.769287109375,-0.000732421875
3.324,327,3147,1456,3147,-1.502685546875,0.5211181640625,-0.0333251953125
3.333,327,3147,1419,3147,-1.306640625,0.4381103515625,0.031494140625
3.347,324,3147,1362,3048,-1.1309814453125,0.433349609375,0.083251953125
3.354,324,3147,1323,2821,-1.010009765625,0.377685546875,0.0823974609375
3.375,323,3147,1271,2569,-0.9246826171875,0.3216552734375,0.071044921875
3.376,321,3147,1134,2128,-0.8450927734375,0.3109130859375,0.078857421875
3.398,318,3147,1022,1808,-0.75048828125,0.2706298828125,0.08447265625
3.398,316,3147,991,1551,-0.668212890625,0.1304931640625,0.0517578125
3.406,315,3147,955,999,-0.6192626953125,-0.0313720703125,0.0244140625
3.419,314,3147,923,740,-0.5919189453125,-0.1190185546875,0.0118408203125
3.422,310,3147,909,484,-0.590087890625,-0.087646484375,-0.0216064453125
3.436,312,2973,887,342,-0.6002197265625,0.0843505859375,-0.03369140625
3.444,308,2691,846,345,-0.6085205078125,0.306396484375,-0.010498046875
3.452,310,2424,818,342,-0.6317138671875,0.4564208984375,0.02099609375
3.466,310,2080,837,338,-0.6802978515625,0.4986572265625,0.0447998046875
3.481,308,1912,816,333,-0.736328125,0.464111328125,0.06103515625
3.482,308,1662,803,334,-0.77978515625,0.4053955078125,0.081787109375
3.500,308,1488,814,330,-0.8006591796875,0.3616943359375,0.1019287109375
3.504,307,1407,790,333,-0.8134765625,0.3499755859375,0.1060791015625
3.514,306,1348,813,334,-0.8380126953125,0.3687744140625,0.0909423828125
3.530,308,1331,780,330,-0.866943359375,0.3896484375,0.06298828125
3.534,308,1313,767,332,-0.88818359375,0.3883056640625,0.0360107421875
3.542,306,1278,764,332,-0.9007568359375,0.3612060546875,0.023193359375
3.556,308,1287,785,331,-0.904541015625,0.315185546875,0.016845703125
3.566,308,1294,772,330,-0.9012451171875,0.269775390625,0.0052490234375
3.576,306,1341,780,332,-0.8939208984375,0.249267578125,-0.0147705078125
3.602,306,1497,788,332,-0.8828125,0.2603759765625,-0.0416259765625
3.602,305,1575,808,334,-0.86962890625,0.282958984375,-0.0614013671875
3.603,307,1809,797,333,-0.859375,0.295654296875,-0.0589599609375
3.617,306,2041,806,334,-0.85546875,0.30029296875,-0.0413818359375
3.632,306,2142,813,344,-0.852294921875,0.29931640625,-0.0263671875
3.633,306,2347,830,336,-0.8372802734375,0.27880859375,-0.0252685546875
3.646,308,2739,826,338,-0.8121337890625,0.233154296875,-0.034912109375
3.654,300,2973,841,338,-0.7874755859375,0.1878662109375,-0.0482177734375
3.662,306,3147,849,346,-0.7874755859375,0.1878662109375,-0.0482177734375
3.679,308,3147,884,669,-0.753662109375,0.2332763671875,-0.0064697265625
3.685,308,3147,919,887,-0.70703125,0.32275390625,0.055419921875
3.692,308,3147,960,1149,-0.70703125,0.32275390625,0.055419921875
3.709,308,3147,1007,1595,-0.453125,0.3143310546875,0.06396484375
3.715,313,3147,1039,1882,-0.247802734375,0.1881103515625,-0.0101318359375
3.722,316,3147,1079,2150,-0.247802734375,0.1881103515625,-0.0101318359375
3.739,318,3147,1264,2514,0.0281982421875,0.0474853515625,0.0028076171875
3.744,322,3147,1362,2728,-0.147705078125,0.140380859375,0.064208984375
3.752,323,3147,1450,3003,-0.147705078125,0.140380859375,0.064208984375
3.766,326,3147,1555,3147,-1.1435546875,0.9136962890625,0.291015625
3.781,325,3147,1611,3147,-1.59326171875,1.244384765625,0.2891845703125
3.785,327,3147,1627,3147,-1.59326171875,1.244384765625,0.2891845703125
3.812,328,3147,1655,3147,-1.996337890625,0.9683837890625,0.2034912109375
3.821,328,3147,1648,3147,-2.1527099609375,0.3709716796875,0.1949462890625
3.822,329,3147,1583,3147,-2.1527099609375,0.3709716796875,0.1949462890625
3.826,328,3147,1560,3147,-1.8701171875,-0.5938720703125,-0.027587890625
3.834,327,3147,1550,3147,-1.2723388671875,-0.5728759765625,0.16943359375
3.847,328,3147,1557,3147,-1.2723388671875,-0.5728759765625,0.16943359375
3.861,327,3147,1499,3147,-1.3035888671875,0.931884765625,0.213623046875
3.864,328,3147,1472,3147,-1.594970703125,1.159423828125,-0.0233154296875
3.873,328,3147,1453,3147,-1.594970703125,1.159423828125,-0.0233154296875
3.886,324,3147,1400,3147,-1.4051513671875,0.4874267578125,-0.007568359375
3.894,324,3147,1351,3147,-1.4051513671875,0.4874267578125,-0.007568359375
3.919,323,3147,1302,3147,-1.1522216796875,0.27880859375,0.146240234375
3.920,321,3147,1167,2778,-0.9013671875,0.2603759765625,0.12841796875
3.924,319,3147,1091,2494,-0.9013671875,0.2603759765625,0.12841796875
3.933,317,3147,1022,2190,-0.8328857421875,0.338623046875,0.044677734375
3.946,315,3147,975,1653,-0.6358642578125,0.2420654296875,-0.0155029296875
3.954,313,3147,968,1440,-0.6358642578125,0.2420654296875,-0.0155029296875
3.962,315,3147,960,1185,-0.5374755859375,0.1058349609375,-0.0186767578125
3.976,313,3147,939,849,-0.5081787109375,0.0440673828125,-0.0538330078125
3.986,313,3147,951,666,-0.5081787109375,0.0440673828125,-0.0538330078125
3.992,313,3147,918,487,-0.5504150390625,0.13232421875,-0.062255859375
4.020,313,3147,927,342,-0.6422119140625,0.4276123046875,0.0126953125
4.020,304,3104,921,338,-0.6422119140625,0.4276123046875,0.0126953125
4.022,310,3003,932,348,-0.6868896484375,0.49951171875,0.0513916015625
4.036,308,2919,946,342,-0.78662109375,0.4212646484375,0.0350341796875
4.044,307,2901,922,347,-0.78662109375,0.4212646484375,0.0350341796875
4.059,308,2974,927,348,-0.8121337890625,0.35498046875,0.0162353515625
4.067,308,3068,922,345,-0.845947265625,0.2880859375,0.0220947265625
4.075,308,3145,933,348,-0.845947265625,0.2880859375,0.0220947265625
4.089,310,3147,939,354,-0.856201171875,0.3046875,0.040283203125
4.096,308,3147,951,437,-0.8646240234375,0.339599609375,0.059326171875
4.116,306,3147,947,498,-0.8775634765625,0.372314453125,0.0618896484375
4.117,309,3147,936,561,-0.889892578125,0.3729248046875,0.0391845703125
4.128,310,3147,925,631,-0.8953857421875,0.3380126953125,0.0072021484375
4.135,310,3147,943,687,-0.901611328125,0.3077392578125,-0.0203857421875
4.142,308,3147,960,748,-0.914306640625,0.311279296875,-0.0350341796875
4.157,310,3147,999,837,-0.9266357421875,0.345458984375,-0.0341796875
4.166,310,3147,1024,905,-0.9267578125,0.384765625,-0.026611328125
4.173,312,3147,1047,952,-0.9102783203125,0.4014892578125,-0.0179443359375
4.191,310,3147,1056,1064,-0.8851318359375,0.3956298828125,-0.0120849609375
4.194,313,3147,1056,1137,-0.86083984375,0.3720703125,-0.0135498046875
4.211,314,3147,1081,1202,-0.84228515625,0.3359375,-0.0281982421875
4.217,313,3147,1078,1323,-0.8338623046875,0.30712890625,-0.04345703125
4.225,315,3147,1094,1428,-0.826904296875,0.297119140625,-0.0443115234375
4.233,316,3147,1117,1536,-0.8087158203125,0.293212890625,-0.0411376953125
4.247,315,3147,1129,1840,-0.765380859375,0.269775390625,-0.0267333984375
4.255,316,3147,1173,2030,-0.6650390625,0.2205810546875,-0.0037841796875
4.277,316,3147,1228,2268,-0.4771728515625,0.1531982421875,0.018310546875
4.278,319,3147,1306,2677,-0.2310791015625,0.0594482421875,0.0513916015625
4.294,318,3147,1336,2952,-0.033447265625,-0.044189453125,0.1160888671875
4.296,322,3147,1365,3112,0.019287109375,-0.0869140625,0.225341796875
4.325,323,3147,1419,3147,-0.100830078125,0.0264892578125,0.3050537109375
4.325,324,3147,1470,3147,-0.3699951171875,0.303955078125,0.2860107421875
4.326,323,3147,1521,3147,-0.7572021484375,0.634521484375,0.1705322265625
4.337,326,3147,1616,3147,-1.2034912109375,0.9293212890625,0.039306640625
4.345,328,3147,1634,3147,-1.654296875,1.0673828125,-0.0101318359375
4.353,328,3147,1653,3147,-2.100830078125,0.9232177734375,-0.0355224609375
4.367,330,3147,1627,3147,-2.461669921875,0.6436767578125,-0.0523681640625
4.384,328,3147,1629,3147,-2.58544921875,0.34619140625,-0.0152587890625
4.384,330,3147,1597,3147,-2.1728515625,-0.09033203125,0.0823974609375
4.398,327,3147,1598,3147,-1.33544921875,-0.3079833984375,0.328125
4.405,327,3147,1602,3147,-0.83056640625,0.223876953125,0.519287109375
4.416,328,3147,1611,3147,-1.010498046875,1.015625,0.3641357421875
4.427,328,3147,1582,3147,-1.4295654296875,1.17138671875,0.056396484375
4.436,328,3147,1572,3147,-1.604248046875,0.7724609375,-0.09033203125
4.443,328,3147,1552,3147,-1.5135498046875,0.467041015625,-0.027587890625
4.457,327,3147,1470,3147,-1.3389892578125,0.3946533203125,0.0924072265625
4.465,327,3147,1443,3147,-1.2034912109375,0.3519287109375,0.1434326171875
4.474,325,3147,1404,3147,-1.1051025390625,0.30908203125,0.1416015625
4.487,323,3147,1306,3147,-1.009033203125,0.315673828125,0.13134765625
4.523,318,3147,1220,2881,-0.89990234375,0.30224609375,0.0970458984375
4.528,321,3147,1137,2503,-0.7740478515625,0.1802978515625,0.0517578125
4.528,323,3147,987,1943,-0.6473388671875,-0.0072021484375,0.031005859375
4.529,315,3147,976,1652,-0.551025390625,-0.150390625,0.03955078125
4.533,313,3147,958,1390,-0.500732421875,-0.177490234375,0.067138671875
4.548,312,3147,922,992,-0.4976806640625,-0.0875244140625,0.0556640625
4.555,314,3147,925,731,-0.5380859375,0.0848388671875,-0.0068359375
4.563,313,3147,927,495,-0.586181640625,0.289794921875,-0.0576171875
4.577,310,3147,962,346,-0.61083984375,0.46142578125,-0.059326171875
4.591,313,3106,958,348,-0.6358642578125,0.561279296875,-0.0174560546875
4.608,313,2932,939,346,-0.6776123046875,0.578369140625,0.0262451171875
4.615,310,2748,922,344,-0.7127685546875,0.5211181640625,0.0380859375
4.626,308,2733,944,347,-0.7354736328125,0.4312744140625,0.0225830078125
4.626,310,2829,957,346,-0.7589111328125,0.367431640625,0.0115966796875
4.637,308,3104,951,346,-0.7872314453125,0.361572265625,0.0286865234375
4.645,310,3147,934,349,-0.8145751953125,0.3896484375,0.0494384765625
4.653,310,3147,909,384,-0.8453369140625,0.4068603515625,0.0404052734375
4.667,310,3147,912,493,-0.8851318359375,0.3931884765625,0.0128173828125
4.676,308,3147,904,561,-0.91943359375,0.35546875,-0.0115966796875
4.683,310,3147,933,623,-0.9273681640625,0.3095703125,-0.032470703125
4.705,310,3147,938,694,-0.9105224609375,0.27001953125,-0.0423583984375
4.706,310,3147,962,767,-0.886962890625,0.2586669921875,-0.0308837890625
4.725,310,3147,953,849,-0.8726806640625,0.281494140625,-0.0098876953125
4.727,314,3147,974,999,-0.8677978515625,0.3087158203125,0.0059814453125
4.735,310,3147,1009,1065,-0.86572265625,0.3216552734375,0.0137939453125
4.744,308,3147,1003,1155,-0.8663330078125,0.3173828125,0.0184326171875
4.757,313,3147,1029,1303,-0.8670654296875,0.301513671875,0.0223388671875
4.765,312,3147,1043,1383,-0.8642578125,0.2784423828125,0.02490234375
4.773,313,3147,1054,1483,-0.862548828125,0.247802734375,0.01806640625
4.790,315,3147,1031,1624,-0.8656005859375,0.234375,0.0032958984375
4.795,316,3147,986,1714,-0.8660888671875,0.258056640625,-0.005615234375
4.836,316,3147,986,1828,-0.84716796875,0.3087158203125,-0.0128173828125
4.836,313,3147,899,2050,-0.77001953125,0.31884765625,-0.000244140625
4.836,315,3147,858,2268,-0.5953369140625,0.221923828125,0.072509765625
4.837,310,3147,788,2507,-0.343017578125,0.02783203125,0.1861572265625
4.848,312,3147,868,2937,-0.1055908203125,-0.2139892578125,0.285400390625
4.855,313,3147,918,3147,0.00439453125,-0.3531494140625,0.314208984375
4.863,316,3147,900,3147,-0.090087890625,-0.14990234375,0.2838134765625
4.881,323,3147,1201,3147,-0.388916015625,0.43310546875,0.261474609375
4.885,323,3147,1239,3147,-0.7962646484375,1.124267578125,0.16650390625
4.893,327,3147,1294,3147,-0.7962646484375,1.124267578125,0.16650390625
4.915,328,3147,1355,3147,-1.49658203125,1.75048828125,-0.4046630859375
4.915,332,3147,1429,3147,-1.7332763671875,1.4876708984375,-0.437255859375
4.931,330,3147,1480,3147,-1.7332763671875,1.4876708984375,-0.437255859375
4.948,331,3147,1497,3147,-2.388916015625,0.38037109375,0.0772705078125
4.948,330,3147,1492,3147,-2.2578125,-0.3399658203125,0.1856689453125
4.953,330,3147,1533,3147,-2.2578125,-0.3399658203125,0.1856689453125
4.967,330,3147,1540,3147,-1.188720703125,-0.056396484375,0.4510498046875
4.975,328,3147,1544,3147,-1.2508544921875,0.5772705078125,0.3209228515625
4.983,328,3147,1518,3147,-1.2508544921875,0.5772705078125,0.3209228515625
4.997,329,3147,1494,3147,-1.5411376953125,0.5501708984375,0.1165771484375
5.018,328,3147,1468,3147,-1.427734375,0.4119873046875,0.17041015625
5.021,328,3147,1429,3147,-1.427734375,0.4119873046875,0.17041015625
5.041,327,3147,1348,3147,-1.1004638671875,0.1005859375,0.18896484375
5.043,324,3147,1289,3147,-0.951904296875,0.1422119140625,0.153076171875
5.044,323,3147,1191,3147,-0.951904296875,0.1422119140625,0.153076171875
5.058,321,3147,1079,2882,-0.7186279296875,0.2725830078125,0.031005859375
5.065,316,3147,984,2608,-0.653564453125,0.218017578125,-0.050048828125
5.073,316,3147,975,2230,-0.653564453125,0.218017578125,-0.050048828125
5.088,316,3147,920,1782,-0.5828857421875,0.084716796875,-0.06982421875
5.095,315,3147,899,1557,-0.5753173828125,0.1070556640625,-0.0458984375
5.103,313,3147,920,1283,-0.5753173828125,0.1070556640625,-0.0458984375
5.118,315,3147,853,806,-0.615234375,0.3402099609375,-0.120361328125
5.138,304,3147,840,629,-0.615234375,0.3402099609375,-0.120361328125
5.139,308,3147,759,487,-0.6351318359375,0.4501953125,-0.13671875
5.147,310,3147,748,354,-0.6937255859375,0.498291015625,0.0140380859375
5.155,308,3127,710,349,-0.6937255859375,0.498291015625,0.0140380859375
5.163,309,2978,711,348,-0.730712890625,0.4375,0.0587158203125
5.177,308,2918,698,346,-0.80615234375,0.2823486328125,0.0570068359375
5.199,308,2863,713,348,-0.80615234375,0.2823486328125,0.0570068359375
5.200,308,2843,734,347,-0.841064453125,0.2646484375,0.0601806640625
5.237,308,2869,713,347,-0.8807373046875,0.3055419921875,0.0538330078125
5.276,308,2879,740,348,-0.8807373046875,0.3055419921875,0.0538330078125
5.284,309,2963,739,347,-0.8875732421875,0.32275390625,0.066162109375
5.284,310,3071,763,347,-0.9014892578125,0.29052734375,0.05908203125
5.285,308,3147,778,352,-0.9014892578125,0.29052734375,0.05908203125
5.285,306,3147,780,355,-0.908203125,0.2635498046875,0.0286865234375
5.286,308,3147,784,380,-0.895263671875,0.24365234375,-0.011474609375
5.286,308,3147,785,497,-0.895263671875,0.24365234375,-0.011474609375
5.286,304,3147,785,578,-0.86865234375,0.2340087890625,-0.0106201171875
5.297,309,3147,835,780,-0.8076171875,0.229248046875,0.0101318359375
5.305,308,3147,882,946,-0.8076171875,0.229248046875,0.0101318359375
5.318,310,3147,912,1091,-0.781494140625,0.232421875,0.01416015625
5.354,313,3147,972,1336,-0.7298583984375,0.2003173828125,-0.0205078125
5.354,313,3147,992,1506,-0.7298583984375,0.2003173828125,-0.0205078125
5.358,313,3147,1018,1735,-0.69189453125,0.1754150390625,-0.0211181640625
5.358,313,3147,1000,2162,-0.6221923828125,0.158447265625,0.0003662109375
5.366,315,3147,989,2386,-0.48974609375,0.16552734375,0.0262451171875
5.378,315,3147,996,2683,-0.3153076171875,0.1883544921875,0.0279541015625
5.396,315,3147,900,3147,-0.1817626953125,0.1937255859375,0.070068359375
5.397,316,3147,932,3147,-0.110595703125,0.1844482421875,0.1829833984375
5.403,318,3147,952,3147,-0.1334228515625,0.20947265625,0.26953125
5.420,323,3147,1173,3147,-0.3094482421875,0.3079833984375,0.2684326171875
5.425,323,3147,1308,3147,-0.6209716796875,0.4808349609375,0.2022705078125
5.450,327,3147,1374,3147,-1.02587890625,0.728271484375,0.11328125
5.451,332,3147,1550,3147,-1.4954833984375,1.04052734375,0.0849609375
5.456,330,3147,1580,3147,-2.00390625,1.155517578125,0.107177734375
5.464,332,3147,1592,3147,-2.46484375,0.909423828125,0.00146484375
5.479,330,3147,1504,3147,-2.6767578125,0.4979248046875,-0.16259765625
5.485,330,3147,1523,3147,-2.3065185546875,-0.068603515625,-0.1708984375
5.493,327,3147,1545,3147,-1.4501953125,-0.4444580078125,0.12255859375
5.508,329,3147,1545,3147,-0.895263671875,0.0098876953125,0.4439697265625
5.523,330,3147,1533,3147,-1.060791015625,0.875732421875,0.3514404296875
5.523,328,3147,1529,3147,-1.4869384765625,1.2315673828125,0.0655517578125
5.554,328,3147,1483,3147,-1.66064453125,0.9976806640625,-0.0689697265625
5.554,330,3147,1437,3147,-1.5572509765625,0.681396484375,-0.059326171875
5.555,327,3147,1328,3147,-1.3486328125,0.528076171875,-0.015869140625
5.567,323,3147,1173,3147,-1.1505126953125,0.4510498046875,0.0257568359375
5.576,324,3147,1074,3147,-1.004150390625,0.3948974609375,0.0765380859375
5.583,322,3147,1000,3147,-0.8936767578125,0.3612060546875,0.1177978515625
5.597,318,3147,922,2877,-0.7926025390625,0.28369140625,0.1334228515625
5.605,316,3147,912,2465,-0.6993408203125,0.10546875,0.123046875
5.613,316,3147,879,2172,-0.6220703125,-0.0894775390625,0.0889892578125
5.629,314,3147,882,1702,-0.5802001953125,-0.1756591796875,0.0562744140625
5.636,315,3147,855,1323,-0.5888671875,-0.1136474609375,0.049072265625
5.655,310,3147,841,1024,-0.622802734375,0.0233154296875,0.039794921875
5.657,313,3147,778,487,-0.6236572265625,0.1376953125,-0.0189208984375
5.666,313,3147,767,338,-0.6033935546875,0.2357177734375,-0.09375
5.673,310,3000,753,344,-0.609619140625,0.3538818359375,-0.103759765625
5.687,310,2611,754,336,-0.651123046875,0.46142578125,-0.0531005859375
5.695,310,2507,733,336,-0.710693359375,0.4979248046875,0.004150390625
5.703,312,2308,713,334,-0.75341796875,0.447509765625,0.041015625
5.717,308,2180,714,331,-0.7786865234375,0.3602294921875,0.044189453125
5.733,306,2035,710,334,-0.806884765625,0.3004150390625,0.025146484375
5.734,307,2005,698,334,-0.837890625,0.2978515625,0.0111083984375
5.762,307,1951,707,334,-0.86083984375,0.335693359375,0.013427734375
5.762,306,1899,720,334,-0.8695068359375,0.37646484375,0.021240234375
5.764,308,1858,725,328,-0.8697509765625,0.3975830078125,0.025390625
5.777,307,2047,739,333,-0.8692626953125,0.3868408203125,0.0267333984375
5.785,307,2174,754,336,-0.8668212890625,0.3497314453125,0.02001953125
5.793,308,2359,785,336,-0.860595703125,0.3121337890625,0.005615234375
5.807,310,2722,780,334,-0.8515625,0.2891845703125,-0.0048828125
5.815,308,2875,802,338,-0.8436279296875,0.2763671875,-0.008056640625
5.830,310,3022,800,338,-0.8299560546875,0.2679443359375,-0.0098876953125
5.837,308,3147,787,334,-0.81298828125,0.2701416015625,-0.0089111328125
5.858,308,3147,777,371,-0.80908203125,0.2919921875,0.0015869140625
5.858,308,3147,763,535,-0.818603515625,0.31640625,0.017578125
5.878,309,3147,790,749,-0.8258056640625,0.3096923828125,0.0252685546875
5.878,310,3147,788,917,-0.813232421875,0.2486572265625,0.0203857421875
5.883,309,3147,799,1143,-0.7677001953125,0.1444091796875,-0.00927734375
5.897,308,3147,849,1574,-0.6953125,0.03955078125,-0.0511474609375
5.905,308,3147,830,1855,-0.5845947265625,-0.0184326171875,-0.049072265625
5.914,313,3147,846,2129,-0.408447265625,0.0242919921875,0.013427734375
5.933,313,3147,853,2648,-0.1669921875,0.11572265625,0.118408203125
5.935,312,3147,891,2961,0.066650390625,0.1357421875,0.213623046875
5.967,316,3147,900,3147,0.13818359375,0.1146240234375,0.2784423828125
5.976,318,3147,1123,3147,-0.0450439453125,0.1856689453125,0.2587890625
5.976,321,3147,1255,3147,-0.4476318359375,0.4176025390625,0.10498046875
5.977,322,3147,1290,3147,-0.9649658203125,0.810791015625,-0.06396484375
5.987,324,3147,1387,3147,-1.44384765625,1.321044921875,-0.150146484375
5.995,327,3147,1480,3147,-1.8453369140625,1.71630859375,-0.09326171875
6.003,330,3147,1588,3147,-2.31591796875,1.4263916015625,0.04052734375
6.017,331,3147,1592,3147,-2.7733154296875,0.508056640625,0.052734375
6.025,329,3147,1504,3147,-2.7166748046875,-0.317138671875,-0.0384521484375
6.034,330,3147,1497,3147,-2.7166748046875,-0.317138671875,-0.0384521484375
6.060,330,3147,1529,3147,-1.082763671875,-0.480712890625,0.4053955078125
6.061,330,3147,1546,3147,-0.859375,0.4420166015625,0.5986328125
6.064,330,3147,1545,3147,-0.859375,0.4420166015625,0.5986328125
6.083,330,3147,1527,3147,-1.6097412109375,1.1026611328125,0.0672607421875
6.086,330,3147,1508,3147,-1.6478271484375,0.6287841796875,-0.0841064453125
6.094,328,3147,1468,3147,-1.4921875,0.2760009765625,-0.0482177734375
6.102,329,3147,1422,3147,-1.4921875,0.2760009765625,-0.0482177734375
6.116,326,3147,1331,3147,-1.115966796875,0.29736328125,0.191650390625
6.124,324,3147,1231,3147,-0.990966796875,0.375732421875,0.21728515625
6.137,325,3147,1101,3147,-0.990966796875,0.375732421875,0.21728515625
6.146,316,3147,947,3070,-0.776123046875,0.3609619140625,0.1229248046875
6.165,317,3147,932,2736,-0.776123046875,0.3609619140625,0.1229248046875
6.165,316,3147,917,2458,-0.66796875,0.222412109375,0.07763671875
6.176,315,3147,890,1934,-0.5179443359375,-0.0216064453125,0.0321044921875
6.192,316,3147,855,1634,-0.5179443359375,-0.0216064453125,0.0321044921875
6.192,314,3147,816,1245,-0.52734375,-0.025634765625,0.0430908203125
6.206,313,3147,802,721,-0.5655517578125,0.135009765625,-0.14404296875
6.214,308,3147,765,473,-0.5655517578125,0.135009765625,-0.14404296875
6.222,313,3147,765,344,-0.6063232421875,0.2977294921875,-0.2449951171875
6.239,310,2775,761,338,-0.721435546875,0.60986328125,-0.052490234375
6.244,310,2498,759,338,-0.721435546875,0.60986328125,-0.052490234375
6.267,310,2367,763,334,-0.74755859375,0.5797119140625,-0.01123046875
6.267,310,2100,764,336,-0.7833251953125,0.4193115234375,0.0074462890625
6.275,310,1900,739,334,-0.7833251953125,0.4193115234375,0.0074462890625
6.282,308,1704,712,332,-0.79736328125,0.35693359375,0.031005859375
6.301,310,1546,748,331,-0.8175048828125,0.3165283203125,0.076904296875
6.305,308,1476,744,332,-0.8175048828125,0.3165283203125,0.076904296875
6.313,308,1487,763,334,-0.8272705078125,0.3477783203125,0.105224609375
6.326,310,1557,785,332,-0.8472900390625,0.333984375,0.1046142578125
6.344,308,1647,800,330,-0.8472900390625,0.333984375,0.1046142578125
6.344,308,1734,813,330,-0.8646240234375,0.3074951171875,0.0574951171875
6.370,313,1931,827,330,-0.8804931640625,0.2974853515625,0.0096435546875
6.370,308,2054,827,336,-0.888671875,0.3017578125,-0.0255126953125
6.373,310,2242,816,336,-0.8861083984375,0.3023681640625,-0.050537109375
6.391,308,2469,800,334,-0.86572265625,0.2835693359375,-0.0650634765625
6.436,310,2660,800,336,-0.831787109375,0.2529296875,-0.066162109375
6.436,292,2869,788,336,-0.8023681640625,0.23388671875,-0.0499267578125
6.436,308,3147,815,344,-0.78662109375,0.241455078125,-0.011474609375
6.436,308,3147,829,546,-0.778564453125,0.2601318359375,0.03955078125
6.437,307,3147,808,772,-0.757080078125,0.2559814453125,0.069091796875
6.448,310,3147,844,1260,-0.7025146484375,0.22412109375,0.0614013671875
6.471,310,3147,846,1545,-0.596435546875,0.1785888671875,0.0274658203125
6.471,316,3147,849,1830,-0.4285888671875,0.1177978515625,-0.022216796875
6.476,314,3147,872,2323,-0.2352294921875,0.044921875,-0.048583984375
6.484,324,3147,1003,2636,-0.063232421875,0.0269775390625,0.0057373046875
6.492,321,3147,1058,2984,0.048828125,0.12353515625,0.12646484375
6.510,323,3147,1305,3147,0.0006103515625,0.3614501953125,0.217041015625
6.514,327,3147,1429,3147,-0.291015625,0.692138671875,0.1732177734375
6.523,328,3147,1516,3147,-0.7547607421875,0.9476318359375,0.04638671875
6.537,330,3147,1603,3147,-1.2752685546875,0.996826171875,-0.032958984375
6.546,332,3147,1643,3147,-1.845703125,0.765625,-0.0850830078125
6.552,331,3147,1640,3147,-2.4022216796875,0.4359130859375,-0.130126953125
6.573,331,3147,1642,3147,-2.7470703125,0.2723388671875,-0.066162109375
6.574,333,3147,1588,3147,-2.6939697265625,0.165771484375,0.1002197265625
6.583,334,3147,1552,3147,-2.0748291015625,-0.1263427734375,0.287841796875
6.596,330,3147,1557,3147,-1.1585693359375,-0.303955078125,0.557861328125
6.604,330,3147,1557,3147,-0.72412109375,0.1348876953125,0.7156982421875
6.616,330,3147,1531,3147,-1.0655517578125,0.8096923828125,0.4766845703125
6.627,330,3147,1456,3147,-1.611328125,1.0146484375,0.0606689453125
6.635,330,3147,1428,3147,-1.813232421875,0.78857421875,-0.179443359375
6.649,325,3147,1371,3147,-1.6640625,0.5435791015625,-0.156494140625
6.656,323,3147,1262,3147,-1.3990478515625,0.39306640625,-0.00634765625
6.676,321,3147,1199,3147,-1.19140625,0.256103515625,0.1163330078125
6.676,323,3147,1098,3147,-1.0411376953125,0.140869140625,0.153076171875
6.690,317,3147,1018,2869,-0.8897705078125,0.061279296875,0.1258544921875
6.695,313,3147,1024,2532,-0.7113037109375,0.048828125,0.1055908203125
6.703,315,3147,978,2275,-0.5250244140625,0.0955810546875,0.1004638671875
6.723,315,3147,942,1880,-0.4154052734375,0.1015625,0.123779296875
6.724,315,3147,861,1568,-0.4217529296875,0.0513916015625,0.1636962890625
6.732,308,3147,832,1278,-0.5150146484375,0.012939453125,0.096923828125
6.755,310,3147,813,764,-0.615234375,0.0697021484375,-0.05078125
6.755,313,3147,787,456,-0.6390380859375,0.2498779296875,-0.1475830078125
6.776,310,3147,784,344,-0.620361328125,0.54052734375,-0.1636962890625
6.777,310,2750,792,334,-0.6102294921875,0.779296875,-0.1175537109375
6.784,310,2541,765,334,-0.6270751953125,0.77294921875,-0.0804443359375
6.793,310,2261,750,336,-0.6749267578125,0.5899658203125,-0.0977783203125
6.806,308,2030,667,332,-0.7364501953125,0.3975830078125,-0.1405029296875
6.814,313,1957,702,334,-0.7960205078125,0.2930908203125,-0.1561279296875
6.829,304,1834,687,334,-0.8233642578125,0.295166015625,-0.1236572265625
6.836,310,1727,673,332,-0.8367919921875,0.3436279296875,-0.0809326171875
6.844,310,1785,653,332,-0.869873046875,0.39501953125,-0.0506591796875
6.860,309,1755,693,336,-0.8927001953125,0.4327392578125,-0.0247802734375
6.882,313,1815,667,334,-0.889892578125,0.4327392578125,-0.0155029296875
6.882,310,1837,667,334,-0.8843994140625,0.3970947265625,-0.027099609375
6.883,311,1819,667,313,-0.885498046875,0.351318359375,-0.049560546875
6.896,310,1895,657,332,-0.8848876953125,0.3096923828125,-0.0726318359375
6.904,308,1983,621,336,-0.878662109375,0.274658203125,-0.080078125
6.912,310,2078,639,336,-0.8668212890625,0.2628173828125,-0.0635986328125
6.933,310,2271,639,336,-0.8529052734375,0.27783203125,-0.03955078125
6.935,313,2430,630,338,-0.8408203125,0.302978515625,-0.034912109375
6.943,310,2610,675,344,-0.8280029296875,0.3291015625,-0.0516357421875
6.956,310,2978,682,338,-0.8114013671875,0.34521484375,-0.0731201171875
6.964,310,3147,695,344,-0.7939453125,0.3465576171875,-0.095703125
6.982,313,3147,697,441,-0.77099609375,0.351318359375,-0.1148681640625
6.986,313,3147,753,801,-0.739013671875,0.367919921875,-0.1181640625
6.996,313,3147,799,1014,-0.705322265625,0.369384765625,-0.0880126953125
7.002,314,3147,841,1236,-0.655029296875,0.3270263671875,-0.011474609375
7.017,315,3147,899,1719,-0.554931640625,0.232666015625,0.0758056640625
7.025,316,3147,963,1982,-0.407470703125,0.1201171875,0.08935546875
7.039,318,3147,1005,2240,-0.2347412109375,0.044921875,0.0328369140625
7.047,324,3147,1111,2753,-0.0638427734375,0.0413818359375,0.0025634765625
7.060,323,3147,1138,3042,-0.0283203125,0.162109375,0.02685546875
7.063,323,3147,1229,3147,-0.0283203125,0.162109375,0.02685546875
7.091,323,3147,1365,3147,-0.6998291015625,0.870849609375,-0.029052734375
7.091,327,3147,1419,3147,-1.2193603515625,1.1566162109375,-0.13330078125
7.093,317,3147,1598,3147,-1.2193603515625,1.1566162109375,-0.13330078125
7.106,332,3147,1848,3147,-2.1873779296875,0.7822265625,0.076904296875
7.114,336,3147,1920,3147,-2.482177734375,0.1400146484375,0.159912109375
7.122,334,3147,1864,3147,-2.482177734375,0.1400146484375,0.159912109375
7.136,334,3147,1754,3147,-1.9210205078125,-0.3890380859375,0.408447265625
7.165,332,3147,1675,3147,-1.2071533203125,-0.3388671875,0.559814453125
7.166,332,3147,1659,3147,-1.2071533203125,-0.3388671875,0.559814453125
7.167,332,3147,1627,3147,-0.8760986328125,0.6136474609375,0.3553466796875
7.188,332,3147,1624,3147,-1.321044921875,1.0020751953125,0.0042724609375
7.188,334,3147,1602,3147,-1.321044921875,1.0020751953125,0.0042724609375
7.200,329,3147,1521,3147,-1.698486328125,0.633056640625,-0.326171875
7.205,332,3147,1472,3147,-1.5404052734375,0.392822265625,-0.1634521484375
7.213,330,3147,1411,3147,-1.5404052734375,0.392822265625,-0.1634521484375
7.226,330,3147,1343,3147,-1.0767822265625,0.383544921875,0.1007080078125
7.234,328,3147,1255,3147,-0.888671875,0.4637451171875,0.0989990234375
7.242,328,3147,1137,2928,-0.888671875,0.4637451171875,0.0989990234375
7.267,328,3147,1067,2357,-0.6099853515625,0.2161865234375,0.001220703125
7.268,327,3147,1026,2072,-0.505615234375,-0.0113525390625,0.047607421875
7.272,327,3147,968,1897,-0.505615234375,-0.0113525390625,0.047607421875
7.291,324,3147,917,1416,-0.4298095703125,0.0516357421875,0.077880859375
7.295,324,3147,905,1228,-0.4298095703125,0.0516357421875,0.077880859375
7.303,324,3147,887,1091,-0.4788818359375,0.26416015625,-0.03271484375
7.316,322,3147,814,858,-0.6573486328125,0.62890625,-0.15087890625
7.324,323,3147,815,656,-0.6573486328125,0.62890625,-0.15087890625
7.333,321,3147,818,508,-0.72900390625,0.6865234375,-0.09228515625
7.346,321,3147,799,408,-0.7916259765625,0.43505859375,-0.0599365234375
7.368,316,3147,793,371,-0.7916259765625,0.43505859375,-0.0599365234375
7.368,321,3147,788,351,-0.824951171875,0.322265625,-0.0511474609375
7.393,313,3089,788,352,-0.899169921875,0.269775390625,-0.0181884765625
7.394,321,3012,800,356,-0.899169921875,0.269775390625,-0.0181884765625
7.394,321,2927,802,359,-0.9107666015625,0.3133544921875,0.0146484375
7.406,318,2795,816,351,-0.8966064453125,0.415283203125,0.0810546875
7.415,317,2692,814,356,-0.8966064453125,0.415283203125,0.0810546875
7.423,318,2671,814,356,-0.8839111328125,0.3961181640625,0.0809326171875
7.436,318,2749,816,354,-0.8636474609375,0.283203125,0.039794921875
7.445,317,2850,827,356,-0.8636474609375,0.283203125,0.039794921875
7.453,317,2992,832,356,-0.85986328125,0.2518310546875,0.010986328125
7.473,317,3147,829,353,-0.8792724609375,0.32373046875,-0.0384521484375
7.475,304,3147,830,361,-0.8792724609375,0.32373046875,-0.0384521484375
7.495,315,3147,830,384,-0.882568359375,0.3720703125,-0.04248046875
7.497,323,3147,837,523,-0.8695068359375,0.378173828125,-0.0374755859375
7.505,321,3147,859,617,-0.8428955078125,0.3472900390625,-0.0225830078125
7.512,321,3147,861,748,-0.815673828125,0.3118896484375,-0.00439453125
7.526,321,3147,869,1018,-0.7867431640625,0.2781982421875,0.0035400390625
7.536,321,3147,888,1217,-0.748779296875,0.2373046875,-0.0028076171875
7.543,321,3147,864,1413,-0.6986083984375,0.2015380859375,-0.0106201171875
7.556,319,3147,842,1845,-0.6175537109375,0.1920166015625,-0.029052734375
7.578,323,3147,883,2104,-0.4996337890625,0.1971435546875,-0.0416259765625
7.579,323,3147,922,2334,-0.3743896484375,0.2139892578125,0.023681640625
7.598,322,3147,968,2875,-0.2373046875,0.2418212890625,0.17236328125
7.599,323,3147,987,3147,-0.1153564453125,0.2117919921875,0.277587890625
7.602,322,3147,1014,3147,-0.1270751953125,0.1282958984375,0.27880859375
7.617,328,3147,1160,3147,-0.3079833984375,0.12744140625,0.225341796875
7.625,324,3147,1214,3147,-0.5877685546875,0.2891845703125,0.1787109375
7.632,327,3147,1280,3147,-0.9168701171875,0.5526123046875,0.1949462890625
7.649,324,3147,1341,3147,-1.25830078125,0.851318359375,0.199462890625
7.654,328,3147,1409,3147,-1.634033203125,1.0618896484375,0.0745849609375
7.662,327,3147,1490,3147,-2.1187744140625,0.9903564453125,-0.1414794921875
7.680,328,3147,1521,3147,-2.5330810546875,0.6929931640625,-0.2464599609375
7.701,330,3147,1496,3147,-2.515869140625,0.21435546875,-0.1878662109375
7.701,328,3147,1476,3147,-1.87060546875,-0.3458251953125,-0.0074462890625
7.707,330,3147,1488,3147,-1.0146484375,-0.40869140625,0.3060302734375
7.715,325,3147,1499,3147,-0.6898193359375,0.231689453125,0.4915771484375
7.724,330,3147,1483,3147,-0.99755859375,0.8892822265625,0.343017578125
7.737,330,3147,1455,3147,-1.447998046875,0.96875,0.0748291015625
7.745,328,3147,1439,3147,-1.6646728515625,0.680908203125,-0.0604248046875
7.753,330,3147,1409,3147,-1.6292724609375,0.45849609375,-0.0240478515625
7.767,328,3147,1254,3147,-1.4691162109375,0.367431640625,0.1046142578125
7.776,328,3147,1184,3147,-1.3109130859375,0.3099365234375,0.2071533203125
7.800,327,3147,1116,3147,-1.1898193359375,0.278076171875,0.2091064453125
7.801,326,3147,992,3147,-1.0562744140625,0.29736328125,0.1671142578125
7.807,324,3147,943,3147,-0.8758544921875,0.301513671875,0.1405029296875
7.816,321,3147,936,2928,-0.6824951171875,0.2098388671875,0.101806640625
7.827,324,3147,882,2394,-0.5301513671875,0.08203125,0.067626953125
7.835,324,3147,872,2091,-0.441162109375,0.021728515625,0.05517578125
7.843,323,3147,827,1768,-0.4140625,0.0435791015625,-0.0025634765625
7.857,324,3147,813,1331,-0.4327392578125,0.1226806640625,-0.1146240234375
7.866,323,3147,780,1151,-0.503173828125,0.27099609375,-0.18701171875
7.882,322,3147,749,969,-0.6051025390625,0.5025634765625,-0.154052734375
7.904,322,3147,739,695,-0.6793212890625,0.6907958984375,-0.0799560546875
7.905,321,3147,746,512,-0.7203369140625,0.6728515625,-0.057861328125
7.905,321,3147,746,384,-0.7547607421875,0.5054931640625,-0.0767822265625
7.917,316,3147,749,372,-0.79443359375,0.3634033203125,-0.067138671875
7.925,317,3147,750,378,-0.82958984375,0.302734375,-0.0166015625
7.933,318,3147,748,360,-0.85205078125,0.291259765625,0.0289306640625
7.948,318,3143,735,354,-0.86572265625,0.3167724609375,0.0655517578125
7.955,316,3093,739,359,-0.8675537109375,0.3499755859375,0.124267578125
7.963,316,3104,751,356,-0.856689453125,0.3382568359375,0.1849365234375
7.987,318,3147,763,354,-0.8453369140625,0.2933349609375,0.2000732421875
7.989,317,3147,779,371,-0.849365234375,0.26611328125,0.1689453125
8.011,318,3147,786,411,-0.874755859375,0.2657470703125,0.1171875
8.012,318,3147,799,499,-0.90673828125,0.263671875,0.0604248046875
8.016,318,3147,808,548,-0.928955078125,0.249755859375,0.0093994140625
8.024,318,3147,806,603,-0.9378662109375,0.2410888671875,-0.022216796875
8.038,316,3147,816,706,-0.935302734375,0.250732421875,-0.0338134765625
8.046,318,3147,814,777,-0.9276123046875,0.2828369140625,-0.037841796875
8.053,318,3147,829,844,-0.916259765625,0.3323974609375,-0.0341796875
8.067,318,3147,844,944,-0.89892578125,0.374755859375,-0.0181884765625
8.083,319,3147,853,994,-0.878173828125,0.3773193359375,0.0054931640625
8.083,318,3147,871,1045,-0.8541259765625,0.333251953125,0.0281982421875
8.111,323,3147,938,1217,-0.8314208984375,0.2740478515625,0.0384521484375
8.111,322,3147,969,1321,-0.80322265625,0.22509765625,0.022705078125
8.116,321,3147,1022,1487,-0.740966796875,0.172607421875,-0.032958984375
8.127,323,3147,1091,1830,-0.6258544921875,0.128662109375,-0.1060791015625
8.135,322,3147,1173,2093,-0.4620361328125,0.1414794921875,-0.1004638671875
8.143,323,3147,1268,2409,-0.254150390625,0.1943359375,0.018798828125
8.157,323,3147,1302,2997,-0.01904296875,0.196044921875,0.1549072265625
8.166,321,3147,1370,3147,0.146484375,0.10498046875,0.2335205078125
8.174,323,3147,1377,3147,0.10693359375,0.064697265625,0.26123046875
8.187,324,3147,1450,3147,-0.189697265625,0.262451171875,0.2657470703125
8.196,327,3147,1518,3147,-0.6441650390625,0.6429443359375,0.2642822265625
8.230,328,3147,1636,3147,-1.094970703125,1.0115966796875,0.243896484375
8.230,333,3147,1968,3147,-1.5172119140625,1.1617431640625,0.1334228515625
8.231,334,3147,2130,3147,-2.06494140625,0.8477783203125,-0.0762939453125
8.234,338,3147,2280,3147,-2.6156005859375,0.3232421875,-0.2161865234375
8.248,338,3147,2269,3147,-2.845703125,0.0579833984375,-0.185546875
8.256,336,3147,2172,3147,-2.460205078125,-0.13720703125,-0.0443115234375
8.263,334,3147,2063,3147,-1.49365234375,-0.302734375,0.24267578125
8.277,336,3147,2074,3147,-0.7099609375,0.0523681640625,0.54833984375
8.287,334,3147,2028,3147,-0.7342529296875,0.7935791015625,0.5118408203125
8.293,334,3147,1973,3147,-0.7342529296875,0.7935791015625,0.5118408203125
8.328,334,3147,1915,3147,-1.697998046875,0.7935791015625,-0.0802001953125
8.328,333,3147,1834,3147,-1.7645263671875,0.4000244140625,-0.092529296875
8.329,334,3147,1715,3147,-1.7645263671875,0.4000244140625,-0.092529296875
8.337,334,3147,1561,3147,-1.39306640625,0.3404541015625,0.0849609375
8.346,330,3147,1490,3147,-1.2098388671875,0.390869140625,0.0999755859375
8.353,330,3147,1395,3147,-1.2098388671875,0.390869140625,0.0999755859375
8.367,328,3147,1216,3147,-0.8621826171875,0.4111328125,0.141357421875
8.376,328,3147,1079,3147,-0.7261962890625,0.3045654296875,0.1131591796875
8.390,326,3147,1037,2744,-0.7261962890625,0.3045654296875,0.1131591796875
8.398,330,3147,938,2063,-0.5233154296875,-0.0250244140625,0.0821533203125
8.425,327,3147,922,1730,-0.44775390625,-0.072509765625,0.0428466796875
8.425,332,3147,891,1377,-0.44775390625,-0.072509765625,0.0428466796875
8.430,324,3147,844,938,-0.4373779296875,0.1507568359375,-0.240478515625
8.437,327,3147,803,721,-0.533203125,0.3382568359375,-0.286376953125
8.443,323,3147,766,537,-0.533203125,0.3382568359375,-0.286376953125
8.457,323,3147,721,356,-0.6878662109375,0.6016845703125,-0.073974609375
8.466,321,3104,725,359,-0.7237548828125,0.536865234375,-0.01806640625
8.474,319,3048,721,359,-0.7237548828125,0.536865234375,-0.01806640625
8.494,318,2940,725,351,-0.7958984375,0.3531494140625,0.0325927734375
8.496,316,2881,711,356,-0.8304443359375,0.2998046875,0.079833984375
8.522,319,2737,697,353,-0.8304443359375,0.2998046875,0.079833984375
8.522,318,2695,711,354,-0.874755859375,0.2760009765625,0.1490478515625
8.531,316,2704,705,354,-0.874755859375,0.2760009765625,0.1490478515625
8.535,318,2691,730,352,-0.888916015625,0.2884521484375,0.158203125
8.550,318,2659,738,351,-0.9119873046875,0.2847900390625,0.114990234375
8.556,318,2734,757,347,-0.9119873046875,0.2847900390625,0.114990234375
8.564,316,2828,765,354,-0.90576171875,0.261474609375,0.0733642578125
8.578,316,3062,777,349,-0.9007568359375,0.257568359375,-0.0081787109375
8.585,318,3147,793,356,-0.9007568359375,0.257568359375,-0.0081787109375
8.595,317,3147,800,361,-0.90673828125,0.2747802734375,-0.0360107421875
8.623,318,3147,803,441,-0.8961181640625,0.2750244140625,-0.05615234375
8.623,318,3147,815,531,-0.8961181640625,0.2750244140625,-0.05615234375
8.624,318,3147,816,631,-0.8685302734375,0.251953125,-0.0299072265625
8.637,321,3147,827,1004,-0.7281494140625,0.21435546875,0.017333984375
8.646,321,3147,820,1175,-0.7281494140625,0.21435546875,0.017333984375
8.654,321,3147,806,1387,-0.6397705078125,0.191650390625,0.0025634765625
8.668,322,3147,815,1874,-0.5267333984375,0.148681640625,-0.0169677734375
8.676,323,3147,907,2139,-0.5267333984375,0.148681640625,-0.0169677734375
8.684,321,3147,980,2404,-0.4339599609375,0.138671875,0.042724609375
8.698,323,3147,1029,2963,-0.2923583984375,-0.038330078125,0.1466064453125
8.708,321,3147,1054,3147,-0.2923583984375,-0.038330078125,0.1466064453125
8.723,321,3147,1129,3147,-0.28955078125,-0.1446533203125,0.1790771484375
8.731,324,3147,1239,3147,-0.3551025390625,-0.08056640625,0.2242431640625
8.777,324,3147,1236,3147,-0.4951171875,0.2210693359375,0.24609375
8.777,324,3147,1236,3147,-0.71240234375,0.728759765625,0.157958984375
8.778,327,3147,1308,3147,-0.969970703125,1.3203125,-0.0709228515625
8.778,324,3147,1373,3147,-1.22412109375,1.6256103515625,-0.265380859375
8.778,328,3147,1417,3147,-1.4615478515625,1.37451171875,-0.1951904296875
8.790,332,3147,1735,3147,-1.7862548828125,0.873291015625,-0.0384521484375
8.799,332,3147,1792,3147,-2.2845458984375,0.4932861328125,0.0338134765625
8.804,332,3147,1743,3147,-2.591796875,0.1529541015625,0.0926513671875
8.826,332,3147,1748,3147,-2.1512451171875,-0.2174072265625,0.11279296875
8.826,333,3147,1798,3147,-1.345947265625,-0.1885986328125,0.2470703125
8.834,333,3147,1800,3147,-1.0535888671875,0.381591796875,0.422119140625
8.851,333,3147,1697,3147,-1.28466796875,0.831787109375,0.3699951171875
8.856,324,3147,1666,3147,-1.5556640625,0.748291015625,0.189208984375
8.863,334,3147,1604,3147,-1.630859375,0.482421875,0.060302734375
8.877,332,3147,1488,3147,-1.5335693359375,0.355224609375,0.04150390625
8.888,330,3147,1429,3147,-1.3668212890625,0.279296875,0.0977783203125
8.893,330,3147,1336,3147,-1.2127685546875,0.17919921875,0.1575927734375
8.908,328,3147,1183,3147,-1.069580078125,0.116943359375,0.1683349609375
8.916,330,3147,1078,3147,-0.9205322265625,0.0902099609375,0.12109375
8.926,328,3147,992,2981,-0.7618408203125,0.04052734375,0.0546875
8.937,324,3147,978,2367,-0.5904541015625,0.0081787109375,0.0040283203125
8.945,323,3147,905,2039,-0.4432373046875,0.06640625,0.00341796875
8.971,324,3147,853,1659,-0.3677978515625,0.19677734375,0.044921875
8.971,323,3147,830,907,-0.354736328125,0.33056640625,0.012451171875
8.976,323,3147,814,518,-0.3868408203125,0.420654296875,-0.1226806640625
8.984,315,3147,756,361,-0.46533203125,0.477294921875,-0.1971435546875
9.008,321,2619,694,352,-0.5650634765625,0.522216796875,-0.1397705078125
9.009,321,2478,689,359,-0.6444091796875,0.537109375,-0.067626953125
9.016,321,2419,673,351,-0.684814453125,0.4798583984375,-0.035888671875
9.034,318,2665,689,351,-0.7005615234375,0.3746337890625,0.0208740234375
9.036,317,2832,673,351,-0.724853515625,0.298828125,0.1102294921875
9.044,317,2966,705,356,-0.7711181640625,0.27685546875,0.16845703125
9.064,317,3133,711,354,-0.8302001953125,0.27734375,0.1689453125
9.066,318,3147,713,356,-0.89697265625,0.2763671875,0.140380859375
9.073,316,3147,731,359,-0.956298828125,0.2740478515625,0.1126708984375
9.087,318,3147,750,361,-0.9906005859375,0.2655029296875,0.0911865234375
9.096,318,3147,757,382,-0.9942626953125,0.2491455078125,0.0633544921875
9.115,316,3147,764,411,-0.9765625,0.248779296875,0.0218505859375
9.132,318,3147,777,508,-0.94970703125,0.27783203125,-0.0162353515625
9.133,317,3147,785,546,-0.9276123046875,0.3201904296875,-0.0355224609375
9.134,321,3147,797,580,-0.9146728515625,0.3486328125,-0.037841796875
9.148,318,3147,801,654,-0.9010009765625,0.353759765625,-0.03271484375
9.156,318,3147,800,728,-0.885986328125,0.350830078125,-0.02099609375
9.164,319,3147,797,800,-0.871337890625,0.3531494140625,-0.0103759765625
9.177,318,3147,813,920,-0.8592529296875,0.3575439453125,-0.01025390625
9.186,317,3147,818,991,-0.85107421875,0.350341796875,-0.0172119140625
9.194,321,3147,827,1123,-0.82861328125,0.3115234375,-0.0323486328125
9.209,321,3147,883,1373,-0.7835693359375,0.2410888671875,-0.05419921875
9.216,321,3147,883,1504,-0.7342529296875,0.1873779296875,-0.0499267578125
9.235,313,3147,867,1702,-0.681640625,0.1962890625,-0.001220703125
9.238,319,3147,822,2037,-0.6041259765625,0.2716064453125,0.0732421875
9.249,321,3147,815,2295,-0.4642333984375,0.340087890625,0.1412353515625
9.254,322,3147,814,2571,-0.259521484375,0.260986328125,0.099853515625
9.268,321,3147,899,3095,-0.1171875,0.0596923828125,0.0079345703125
9.280,321,3147,963,3147,-0.1207275390625,-0.0782470703125,0.052734375
9.284,323,3147,1043,3147,-0.229248046875,-0.0699462890625,0.1610107421875
9.297,323,3147,1198,3147,-0.4290771484375,0.109619140625,0.2432861328125
9.312,324,3147,1222,3147,-0.7333984375,0.46533203125,0.3050537109375
9.314,327,3147,1245,3147,-1.0977783203125,0.9251708984375,0.2818603515625
9.339,324,3147,1313,3147,-1.4266357421875,1.2703857421875,0.171875
9.339,327,3147,1424,3147,-1.7177734375,1.28662109375,0.1212158203125
9.345,327,3147,1543,3147,-2.043701171875,0.9166259765625,0.18115234375
9.357,331,3147,1488,3147,-2.4322509765625,0.3272705078125,0.157958984375
9.367,330,3147,1399,3147,-2.4912109375,-0.2265625,-0.0460205078125
9.373,330,3147,1393,3147,-1.8369140625,-0.463623046875,-0.1085205078125
9.387,327,3147,1455,3147,-1.0965576171875,-0.0389404296875,0.1546630859375
9.396,329,3147,1490,3147,-0.984130859375,0.7633056640625,0.3035888671875
9.403,330,3147,1506,3147,-0.984130859375,0.7633056640625,0.3035888671875
9.417,328,3147,1503,3147,-1.4388427734375,0.895751953125,0.08251953125
9.439,328,3147,1494,3147,-1.422119140625,0.518310546875,0.098876953125
9.441,330,3147,1476,3147,-1.422119140625,0.518310546875,0.098876953125
9.451,330,3147,1409,3147,-1.177490234375,0.30126953125,0.18212890625
9.456,327,3147,1341,3147,-1.06982421875,0.298583984375,0.1903076171875
9.464,323,3147,1253,3147,-1.06982421875,0.298583984375,0.1903076171875
9.478,324,3147,1091,3147,-0.9014892578125,0.2615966796875,0.04150390625
9.491,324,3147,1017,3147,-0.8072509765625,0.273193359375,0.001708984375
9.494,324,3147,978,3113,-0.8072509765625,0.273193359375,0.001708984375
9.508,323,3147,932,2713,-0.6282958984375,0.2156982421875,0.0247802734375
9.516,324,3147,889,2386,-0.58642578125,0.119873046875,0.04248046875
9.524,324,3147,888,2178,-0.58642578125,0.119873046875,0.04248046875
9.542,321,3147,865,1815,-0.6463623046875,0.0679931640625,0.036865234375
9.546,322,3147,840,1592,-0.6959228515625,0.147705078125,0.010498046875
9.556,323,3147,815,1366,-0.6959228515625,0.147705078125,0.010498046875
9.567,321,3147,794,962,-0.76953125,0.358154296875,-0.0406494140625
9.576,321,3147,779,813,-0.7764892578125,0.400634765625,-0.0247802734375
9.583,318,3147,744,571,-0.7764892578125,0.400634765625,-0.0247802734375
9.597,321,3120,689,353,-0.7757568359375,0.3702392578125,0.016357421875
9.606,317,3017,682,356,-0.76708984375,0.36279296875,0.0443115234375
9.619,318,2827,669,351,-0.76708984375,0.36279296875,0.0443115234375
9.627,317,2615,679,346,-0.77587890625,0.3878173828125,0.116455078125
9.646,316,2541,706,351,-0.77587890625,0.3878173828125,0.116455078125
9.646,316,2622,721,349,-0.783935546875,0.392578125,0.1470947265625
9.658,316,2848,750,351,-0.8052978515625,0.3743896484375,0.124267578125
9.666,323,3016,754,354,-0.8052978515625,0.3743896484375,0.124267578125
9.676,316,3136,794,354,-0.826171875,0.3609619140625,0.0853271484375
9.687,318,3147,822,359,-0.879150390625,0.331298828125,0.0211181640625
9.704,324,3147,842,402,-0.879150390625,0.331298828125,0.0211181640625
9.704,317,3147,871,495,-0.8890380859375,0.3028564453125,-0.0008544921875
9.721,318,3147,879,661,-0.8594970703125,0.2198486328125,-0.0111083984375
9.725,318,3147,906,767,-0.8594970703125,0.2198486328125,-0.0111083984375
9.746,318,3147,934,904,-0.8519287109375,0.21484375,0.0106201171875
9.751,321,3147,952,1108,-0.8607177734375,0.2623291015625,0.0618896484375
9.756,322,3147,976,1274,-0.8607177734375,0.2623291015625,0.0618896484375
9.764,322,3147,992,1422,-0.85302734375,0.263671875,0.0762939453125
9.778,321,3147,1038,1722,-0.772216796875,0.2357177734375,0.06591796875
9.789,323,3147,1078,1922,-0.772216796875,0.2357177734375,0.06591796875
9.794,323,3147,1105,2117,-0.6851806640625,0.24169921875,0.0888671875
9.809,323,3147,1138,2519,-0.371826171875,0.099853515625,0.1336669921875
9.830,323,3147,1138,2905,-0.371826171875,0.099853515625,0.1336669921875
9.830,327,3147,1129,3147,-0.1812744140625,-0.0819091796875,0.1239013671875
9.837,324,3147,1220,3147,-0.023681640625,-0.283447265625,0.2149658203125
9.856,324,3147,1316,3147,-0.023681640625,-0.283447265625,0.2149658203125
9.856,325,3147,1382,3147,-0.2379150390625,-0.0185546875,0.2987060546875
9.867,332,3147,1519,3147,-0.671875,0.5013427734375,0.3045654296875
9.876,328,3147,1602,3147,-1.2052001953125,1.040771484375,0.1395263671875
9.883,328,3147,1616,3147,-1.690185546875,1.4268798828125,-0.2174072265625
9.902,330,3147,1894,3147,-2.093505859375,1.482177734375,-0.5321044921875
9.906,334,3147,1955,3147,-2.4678955078125,1.01953125,-0.4361572265625
9.918,334,3147,1918,3147,-2.6566162109375,0.2808837890625,-0.059814453125
9.927,334,3147,1920,3147,-2.1905517578125,-0.2952880859375,0.196044921875
9.936,333,3147,1966,3147,-1.3175048828125,-0.368408203125,0.4056396484375
9.954,333,3147,1996,3147,-0.920166015625,0.1153564453125,0.5775146484375
9.957,334,3147,1925,3147,-1.10009765625,0.6500244140625,0.5086669921875
9.966,332,3147,1877,3147,-1.3790283203125,0.7430419921875,0.30419921875
9.975,332,3147,1820,3147,-1.485107421875,0.554931640625,0.1363525390625
9.983,334,3147,1772,3147,-1.4110107421875,0.398681640625,0.0499267578125
9.996,332,3147,1634,3147,-1.254150390625,0.30029296875,0.01171875
10.005,331,3147,1534,3147,-1.110107421875,0.275390625,0.013671875
10.015,331,3147,1456,3147,-0.9974365234375,0.338623046875,0.029052734375
10.031,330,3147,1411,3147,-0.90087890625,0.393798828125,0.0167236328125
10.035,329,3147,1349,3147,-0.8104248046875,0.3453369140625,0.0185546875
10.054,330,3147,1308,3147,-0.720458984375,0.1986083984375,0.05517578125
10.056,328,3147,1198,2766,-0.65380859375,0.0433349609375,0.085205078125
10.065,331,3147,1183,2484,-0.6400146484375,-0.0198974609375,0.0816650390625
10.073,331,3147,1138,2230,-0.6551513671875,0.0269775390625,0.0489501953125
10.086,327,3147,1081,1850,-0.656982421875,0.114013671875,-0.003662109375
10.095,327,3147,1064,1691,-0.6522216796875,0.18505859375,-0.0760498046875
10.103,328,3147,1013,1550,-0.6708984375,0.26318359375,-0.1180419921875
10.117,325,3147,962,1303,-0.72119140625,0.3609619140625,-0.0823974609375
10.135,327,3147,963,1133,-0.7672119140625,0.425537109375,-0.00537109375
10.136,327,3147,963,1038,-0.7794189453125,0.4193115234375,0.053466796875
10.159,326,3147,958,963,-0.7802734375,0.373046875,0.089111328125
10.159,324,3147,963,900,-0.8001708984375,0.3394775390625,0.11181640625
10.163,324,3147,959,802,-0.8411865234375,0.32080078125,0.1075439453125
10.176,324,3147,949,634,-0.880859375,0.2930908203125,0.081298828125
10.185,324,3147,944,588,-0.8994140625,0.2669677734375,0.0638427734375
10.192,324,3147,944,603,-0.901123046875,0.2672119140625,0.0697021484375
10.206,323,3147,934,632,-0.8963623046875,0.2947998046875,0.0894775390625
10.214,323,3147,938,614,-0.8873291015625,0.325439453125,0.1025390625
10.223,323,3147,936,667,-0.870361328125,0.3299560546875,0.1053466796875
10.259,322,3147,963,811,-0.854736328125,0.3095703125,0.106201171875
10.260,324,3147,973,888,-0.85693359375,0.2835693359375,0.100830078125
10.261,323,3147,985,951,-0.87109375,0.26171875,0.0819091796875
10.267,323,3147,996,1050,-0.87939453125,0.2464599609375,0.05419921875
10.275,323,3147,1009,1097,-0.8743896484375,0.240478515625,0.0343017578125
10.283,324,3147,1010,1172,-0.8621826171875,0.245849609375,0.035888671875
10.297,324,3147,1034,1328,-0.84814453125,0.2548828125,0.0555419921875
10.304,326,3147,1050,1497,-0.828369140625,0.2547607421875,0.0743408203125
10.313,323,3147,1091,1634,-0.7801513671875,0.2293701171875,0.064697265625
10.326,324,3147,1167,2039,-0.673095703125,0.18505859375,0.0352783203125
10.343,324,3147,1239,2337,-0.4993896484375,0.1588134765625,0.0152587890625
10.343,327,3147,1316,2599,-0.2918701171875,0.1396484375,0.017578125
10.356,328,3147,1365,3141,-0.0828857421875,0.059814453125,0.06787109375
10.367,324,3147,1396,3147,0.09326171875,-0.0926513671875,0.1622314453125
10.377,327,3147,1452,3147,0.14013671875,-0.1300048828125,0.2532958984375
10.392,328,3147,1610,3147,-0.060546875,0.13232421875,0.2763671875
10.396,315,3147,1735,3147,-0.5390625,0.598388671875,0.2069091796875
10.403,331,3147,1969,3147,-1.1461181640625,1.087890625,0.0814208984375
10.417,334,3147,2207,3147,-1.7708740234375,1.353759765625,-0.154541015625
10.425,337,3147,2337,3147,-2.4080810546875,1.180908203125,-0.4359130859375
10.437,336,3147,2498,3147,-2.4080810546875,1.180908203125,-0.4359130859375
10.456,338,3147,2418,3147,-2.8206787109375,0.1820068359375,-0.1383056640625
10.480,336,3147,2461,3147,-2.0880126953125,-0.3487548828125,0.2037353515625
10.481,338,3147,2484,3147,-2.0880126953125,-0.3487548828125,0.2037353515625
10.481,338,3147,2479,3147,-0.76611328125,0.2244873046875,0.6693115234375
10.485,336,3147,2418,3147,-1.1788330078125,0.9129638671875,0.52099609375
10.492,337,3147,2368,3147,-1.1788330078125,0.9129638671875,0.52099609375
10.508,336,3147,2240,3147,-1.7493896484375,0.5291748046875,0.0306396484375
10.517,336,3147,2155,3147,-1.5782470703125,0.198974609375,-0.00390625
10.525,334,3147,2032,3147,-1.5782470703125,0.198974609375,-0.00390625
10.540,334,3147,1881,3147,-1.1044921875,0.1424560546875,0.0595703125
10.545,333,3147,1789,3147,-0.9356689453125,0.216552734375,0.1051025390625
10.567,332,3147,1650,3147,-0.9356689453125,0.216552734375,0.1051025390625
10.567,330,3147,1499,2870,-0.735595703125,0.1192626953125,0.07275390625
10.578,330,3147,1430,2458,-0.673583984375,0.0496826171875,0.0294189453125
10.583,330,3147,1344,2142,-0.673583984375,0.0496826171875,0.0294189453125
10.597,328,3147,1129,1487,-0.5001220703125,0.0218505859375,0.053466796875
10.605,327,3147,1054,1116,-0.45654296875,0.1173095703125,-0.0916748046875
10.613,328,3147,1026,819,-0.45654296875,0.1173095703125,-0.0916748046875
10.627,323,3147,963,371,-0.598388671875,0.4501953125,-0.2042236328125
10.635,324,2938,949,365,-0.691162109375,0.5899658203125,-0.07958984375
10.643,316,2626,946,370,-0.691162109375,0.5899658203125,-0.07958984375
10.671,323,2152,910,359,-0.7618408203125,0.5257568359375,0.0592041015625
10.671,321,1920,918,360,-0.7618408203125,0.5257568359375,0.0592041015625
10.673,318,1708,912,359,-0.78076171875,0.3856201171875,0.072265625
10.690,318,1464,905,351,-0.83544921875,0.16357421875,0.1199951171875
10.695,318,1452,897,353,-0.83544921875,0.16357421875,0.1199951171875
10.703,318,1440,890,351,-0.8448486328125,0.1312255859375,0.1226806640625
10.717,317,1598,887,348,-0.8436279296875,0.1888427734375,0.1068115234375
10.724,316,1735,899,351,-0.8436279296875,0.1888427734375,0.1068115234375
10.733,317,1874,899,349,-0.8443603515625,0.2255859375,0.10009765625
10.747,318,2151,917,351,-0.8538818359375,0.2574462890625,0.072509765625
10.775,317,2306,936,356,-0.8538818359375,0.2574462890625,0.072509765625
10.776,318,2428,959,359,-0.8607177734375,0.262939453125,0.06201171875
10.777,321,2869,978,352,-0.87255859375,0.2344970703125,0.0435791015625
10.787,319,3099,989,361,-0.87255859375,0.2344970703125,0.0435791015625
10.793,322,3147,1000,382,-0.87158203125,0.215576171875,0.0313720703125
10.806,323,3147,1037,578,-0.872314453125,0.27734375,0.0391845703125
10.815,323,3147,1051,706,-0.872314453125,0.27734375,0.0391845703125
10.823,323,3147,1055,865,-0.8780517578125,0.3245849609375,0.0604248046875
10.837,323,3147,1064,1112,-0.8284912109375,0.2626953125,0.1044921875
10.848,324,3147,1109,1336,-0.8284912109375,0.2626953125,0.1044921875
10.853,324,3147,1145,1600,-0.71826171875,0.1771240234375,0.12255859375
10.879,324,3147,1146,2071,-0.536865234375,0.10302734375,0.16162109375
10.880,327,3147,1173,2407,-0.3072509765625,0.0478515625,0.2139892578125
10.883,324,3147,1216,2769,-0.111083984375,0.005126953125,0.2584228515625
10.897,324,3147,1365,3147,-0.0179443359375,-0.03271484375,0.287841796875
10.907,327,3147,1553,3147,-0.078857421875,0.03564453125,0.2451171875
10.918,336,3147,1739,3147,-0.3028564453125,0.2840576171875,0.129150390625
10.927,328,3147,1971,3147,-0.650390625,0.596923828125,-0.0330810546875
10.935,330,3147,2083,3147,-1.08056640625,0.865234375,-0.2061767578125
10.950,332,3147,2180,3147,-1.611083984375,1.0206298828125,-0.4664306640625
10.957,338,3147,2525,3147,-2.1693115234375,0.9656982421875,-0.6004638671875
10.985,334,3147,2593,3147,-2.548095703125,0.7032470703125,-0.327392578125
10.986,330,3147,2526,3147,-2.6131591796875,0.351318359375,0.087646484375
10.989,336,3147,2432,3147,-2.154296875,-0.0091552734375,0.3243408203125
10.994,334,3147,2478,3147,-1.3009033203125,-0.1893310546875,0.4346923828125
11.002,336,3147,2514,3147,-0.775634765625,0.134521484375,0.513427734375
11.016,337,3147,2458,3147,-0.9346923828125,0.7532958984375,0.4306640625
11.028,336,3147,2330,3147,-1.365966796875,0.9822998046875,0.215576171875
11.032,334,3147,2263,3147,-1.601806640625,0.7005615234375,0.0556640625
11.054,334,3147,2083,3147,-1.579833984375,0.3677978515625,0.018310546875
11.057,317,3147,1943,3147,-1.4427490234375,0.2266845703125,0.01806640625
11.077,327,3147,1838,3147,-1.284423828125,0.2052001953125,0.015380859375
11.092,332,3147,1695,3147,-1.1263427734375,0.2208251953125,0.0416259765625
11.093,327,3147,1616,3147,-0.9857177734375,0.2501220703125,0.093017578125
11.094,333,3147,1552,3147,-0.864013671875,0.2691650390625,0.1368408203125
11.103,332,3147,1454,2891,-0.7559814453125,0.23876953125,0.132568359375
11.117,332,3147,1318,2230,-0.674560546875,0.135009765625,0.088134765625
11.124,332,3147,1255,1967,-0.6116943359375,0.010986328125,0.0760498046875
11.133,325,3147,1206,1652,-0.562255859375,-0.0194091796875,0.0819091796875
11.146,330,3147,1108,1123,-0.5411376953125,0.076904296875,0.028076171875
11.155,322,3147,1050,844,-0.553955078125,0.229736328125,-0.071044921875
11.162,322,3147,1025,605,-0.598876953125,0.3729248046875,-0.119384765625
11.183,326,3147,971,364,-0.64794921875,0.474609375,-0.0660400390625
11.185,323,3031,963,363,-0.682861328125,0.4974365234375,0.01318359375
11.194,323,2887,938,363,-0.71533203125,0.4383544921875,0.044921875
11.207,323,2587,951,359,-0.7569580078125,0.35986328125,0.058349609375
11.215,322,2494,960,359,-0.8009033203125,0.302490234375,0.094482421875
11.223,322,2409,973,360,-0.837646484375,0.257568359375,0.122802734375
11.237,321,2400,984,359,-0.8631591796875,0.2293701171875,0.1199951171875
11.245,323,2445,1000,360,-0.8765869140625,0.2291259765625,0.1185302734375
11.283,323,2514,1007,360,-0.886962890625,0.2392578125,0.1317138671875
11.294,323,2665,1010,356,-0.8951416015625,0.236083984375,0.1414794921875
11.303,322,2757,1007,360,-0.89892578125,0.215576171875,0.1319580078125
11.307,323,2824,1003,360,-0.90283203125,0.18408203125,0.1041259765625
11.307,322,3031,1018,359,-0.9080810546875,0.15283203125,0.0726318359375
11.307,323,3147,1031,361,-0.9097900390625,0.1368408203125,0.049072265625
11.313,321,3147,1055,402,-0.904296875,0.14013671875,0.0362548828125
11.327,323,3147,1065,508,-0.8958740234375,0.1572265625,0.0341796875
11.335,323,3147,1083,625,-0.8916015625,0.185791015625,0.0377197265625
11.343,323,3147,1097,712,-0.8935546875,0.22607421875,0.04052734375
11.367,323,3147,1117,867,-0.899169921875,0.26611328125,0.04345703125
11.367,324,3147,1125,947,-0.9046630859375,0.2762451171875,0.0457763671875
11.387,324,3147,1100,1078,-0.89111328125,0.2276611328125,0.0263671875
11.388,327,3147,1063,1323,-0.8294677734375,0.1561279296875,-0.0323486328125
11.395,327,3147,1055,1615,-0.7119140625,0.138427734375,-0.0555419921875
11.408,324,3147,1095,1878,-0.559326171875,0.17431640625,0.021728515625
11.417,328,3147,1170,2432,-0.379150390625,0.1925048828125,0.1312255859375
11.427,328,3147,1251,2818,-0.1298828125,0.090576171875,0.204833984375
11.436,328,3147,1334,3147,0.1649169921875,-0.18212890625,0.238525390625
11.454,327,3147,1531,3147,0.29541015625,-0.334228515625,0.2135009765625
11.466,328,3147,1704,3147,0.0408935546875,0.0665283203125,0.1717529296875
11.469,328,3147,1813,3147,-0.547607421875,0.873291015625,0.13818359375
11.488,330,3147,2024,3147,-1.2049560546875,1.534912109375,0.012451171875
11.489,333,3147,2151,3147,-1.6982421875,1.83642578125,-0.189453125
11.493,336,3147,2418,3147,-2.01171875,1.761474609375,-0.2906494140625
11.514,333,3147,2612,3147,-2.4327392578125,1.0714111328125,-0.1151123046875
11.516,343,3147,2557,3147,-2.87744140625,-0.0694580078125,0.1612548828125
11.523,344,3147,2559,3147,-2.5533447265625,-0.9173583984375,0.195068359375
11.539,347,3147,2657,3147,-1.4683837890625,-0.9566650390625,0.2642822265625
11.546,342,3147,2677,3147,-0.70556640625,-0.224853515625,0.4859619140625
11.556,342,3147,2658,3147,-0.70556640625,-0.224853515625,0.4859619140625
11.571,338,3147,2560,3147,-1.2738037109375,0.8438720703125,0.3204345703125
11.607,336,3147,2490,3147,-1.55859375,0.5885009765625,0.1751708984375
11.621,338,3147,2398,3147,-1.55859375,0.5885009765625,0.1751708984375
11.628,336,3147,2217,3147,-1.4012451171875,0.162353515625,0.014892578125
11.632,336,3147,2115,3147,-1.25390625,0.08935546875,-0.04052734375
11.637,333,3147,2020,3147,-1.25390625,0.08935546875,-0.04052734375
11.642,334,3147,1824,3147,-1.0743408203125,0.3221435546875,0.087890625
11.646,333,3147,1748,3147,-1.002197265625,0.4354248046875,0.1031494140625
11.649,324,3147,1678,3147,-0.9232177734375,0.442626953125,0.0775146484375
11.654,332,3147,1588,3147,-0.9232177734375,0.442626953125,0.0775146484375
11.668,334,3147,1443,2481,-0.7027587890625,0.21435546875,0.0355224609375
11.675,333,3147,1351,2136,-0.7027587890625,0.21435546875,0.0355224609375
11.693,332,3147,1243,1627,-0.5550537109375,0.007568359375,0.041015625
11.696,327,3147,1198,1258,-0.5550537109375,0.0682373046875,0.028564453125
11.704,330,3147,1143,830,-0.5550537109375,0.0682373046875,0.028564453125
11.727,330,3147,1054,376,-0.6317138671875,0.2449951171875,-0.06201171875
11.729,328,3022,1020,364,-0.667724609375,0.324951171875,-0.037841796875
11.734,327,2765,989,371,-0.667724609375,0.324951171875,-0.037841796875
11.749,325,2395,951,360,-0.760498046875,0.38037109375,0.0533447265625
11.758,318,2254,934,360,-0.8031005859375,0.337890625,0.05810546875
11.771,316,2030,933,360,-0.8031005859375,0.337890625,0.05810546875
11.796,323,1864,879,355,-0.8433837890625,0.2236328125,0.0677490234375
11.799,321,1830,865,355,-0.848388671875,0.2105712890625,0.09033203125
11.802,321,1800,846,356,-0.848388671875,0.2105712890625,0.09033203125
11.817,321,1915,869,355,-0.8543701171875,0.2598876953125,0.1668701171875
11.820,321,1997,899,356,-0.845458984375,0.25927734375,0.189208984375
11.826,321,2191,932,354,-0.845458984375,0.25927734375,0.189208984375
11.838,321,2471,947,351,-0.8111572265625,0.1884765625,0.1649169921875
11.848,322,2652,973,359,-0.8087158203125,0.16162109375,0.13623046875
11.854,321,2891,966,360,-0.8087158203125,0.16162109375,0.13623046875
11.872,323,3147,1010,361,-0.8253173828125,0.1361083984375,0.0865478515625
11.877,323,3147,1026,479,-0.841796875,0.1490478515625,0.048095703125
11.898,324,3147,1042,619,-0.841796875,0.1490478515625,0.048095703125
11.898,327,3147,1053,927,-0.8753662109375,0.211181640625,-0.0267333984375
11.906,327,3147,1101,1067,-0.8753662109375,0.211181640625,-0.0267333984375
11.914,327,3147,1157,1267,-0.8720703125,0.243896484375,-0.06494140625
11.931,328,3147,1233,1584,-0.8388671875,0.324951171875,-0.0426025390625
11.943,328,3147,1268,1826,-0.8388671875,0.324951171875,-0.0426025390625
11.945,328,3147,1276,2127,-0.7523193359375,0.32861328125,-0.0064697265625
11.957,330,3147,1306,2785,-0.3203125,0.15869140625,0.0604248046875
11.976,328,3147,1370,3057,-0.3203125,0.15869140625,0.0604248046875
11.979,330,3147,1443,3147,-0.0189208984375,-0.0494384765625,0.1414794921875
12.002,328,3147,1681,3147,0.1505126953125,0.0137939453125,0.207763671875
12.006,329,3147,1798,3147,0.1505126953125,0.0137939453125,0.207763671875
12.007,332,3147,1878,3147,-0.2763671875,0.5699462890625,0.2139892578125
12.017,334,3147,2165,3147,-1.55419921875,1.572021484375,0.0496826171875
12.026,338,3147,2386,3147,-1.55419921875,1.572021484375,0.0496826171875
12.034,342,3147,2494,3147,-1.961181640625,1.4737548828125,0.1527099609375
12.049,344,3147,2668,3147,-2.5374755859375,0.0216064453125,0.439453125
12.056,343,3147,2608,3147,-2.5374755859375,0.0216064453125,0.439453125
12.064,338,3147,2573,3147,-2.556396484375,-0.4241943359375,0.1470947265625
12.077,342,3147,2652,3147,-1.0079345703125,-0.182861328125,0.133544921875
12.104,343,3147,2695,3147,-1.0079345703125,-0.182861328125,0.133544921875
12.108,338,3147,2679,3147,-0.8079833984375,0.3848876953125,0.3917236328125
12.111,338,3147,2581,3147,-1.2261962890625,0.7603759765625,0.3515625
12.119,342,3147,2507,3147,-1.578369140625,0.6376953125,0.2056884765625
12.126,338,3147,2430,3147,-1.599609375,0.319091796875,0.1241455078125
12.141,338,3147,2333,3147,-1.4468994140625,0.1221923828125,0.077880859375
12.159,332,3147,2223,3147,-1.297119140625,0.08544921875,0.0379638671875
12.164,338,3147,2073,3147,-1.2005615234375,0.17919921875,0.0550537109375
12.171,337,3147,1891,3147,-1.1182861328125,0.3321533203125,0.1220703125
12.181,336,3147,1809,3127,-1.0137939453125,0.4267578125,0.1612548828125
12.186,336,3147,1770,2832,-0.88330078125,0.36962890625,0.1636962890625
12.203,334,3147,1584,2202,-0.7421875,0.2176513671875,0.1600341796875
12.206,334,3147,1483,1874,-0.624267578125,0.093505859375,0.1390380859375
12.215,332,3147,1384,1550,-0.558837890625,0.0272216796875,0.1016845703125
12.222,332,3147,1290,1173,-0.5408935546875,0.02392578125,0.0654296875
12.236,328,3147,1116,525,-0.547119140625,0.075927734375,0.0079345703125
12.244,328,3147,1101,376,-0.5523681640625,0.175048828125,-0.0457763671875
12.259,324,2795,1012,364,-0.5509033203125,0.2919921875,-0.0460205078125
12.267,328,2567,984,364,-0.5751953125,0.374755859375,-0.0142822265625
12.281,324,2463,957,364,-0.644287109375,0.4036865234375,0.0184326171875
12.287,323,2229,938,359,-0.73046875,0.380126953125,0.0450439453125
12.311,322,2129,937,359,-0.799072265625,0.3245849609375,0.07421875
12.321,321,2014,944,355,-0.8419189453125,0.28662109375,0.11279296875
12.323,318,1905,934,357,-0.8741455078125,0.3065185546875,0.1448974609375
12.328,321,1891,922,355,-0.902587890625,0.361328125,0.157958984375
12.336,321,1891,922,354,-0.9129638671875,0.3922119140625,0.154052734375
12.350,321,1819,913,348,-0.9034423828125,0.373779296875,0.1328125
12.366,319,1899,922,356,-0.8824462890625,0.3233642578125,0.106689453125
12.369,318,2019,937,356,-0.8565673828125,0.26708984375,0.093994140625
12.388,321,2255,966,355,-0.8365478515625,0.2177734375,0.093505859375
12.389,323,2430,989,360,-0.8294677734375,0.178955078125,0.093017578125
12.409,315,2665,1000,359,-0.83154296875,0.1514892578125,0.0888671875
12.412,322,2981,1039,359,-0.8294677734375,0.1307373046875,0.0865478515625
12.418,323,3147,1063,359,-0.8197021484375,0.122802734375,0.082763671875
12.424,324,3147,1079,411,-0.8140869140625,0.139892578125,0.07470703125
12.437,324,3147,1094,753,-0.8199462890625,0.1859130859375,0.06201171875
12.446,327,3147,1117,966,-0.834228515625,0.25,0.046142578125
12.454,327,3147,1163,1155,-0.833984375,0.3057861328125,0.0316162109375
12.475,327,3147,1160,1580,-0.7886962890625,0.3365478515625,0.022216796875
12.477,328,3147,1146,1819,-0.6876220703125,0.322509765625,0.0333251953125
12.493,328,3147,1138,2054,-0.5494384765625,0.26171875,0.0626220703125
12.512,327,3147,1206,2521,-0.4190673828125,0.1943359375,0.094970703125
12.519,327,3147,1274,2823,-0.321533203125,0.1324462890625,0.144287109375
12.528,330,3147,1375,3120,-0.2747802734375,0.072998046875,0.1866455078125
12.532,329,3147,1527,3147,-0.2958984375,0.02001953125,0.208251953125
12.540,330,3147,1655,3147,-0.38330078125,-0.0108642578125,0.211669921875
12.547,330,3147,1770,3147,-0.5587158203125,0.0731201171875,0.18994140625
12.558,334,3147,2061,3147,-0.8753662109375,0.38134765625,0.1661376953125
12.566,332,3147,2230,3147,-1.3408203125,0.933837890625,0.1024169921875
12.580,328,3147,2367,3147,-1.882080078125,1.44091796875,-0.08251953125
12.588,336,3147,2565,3147,-2.41455078125,1.5008544921875,-0.3572998046875
12.596,338,3147,2560,3147,-2.6885986328125,1.025634765625,-0.4327392578125
12.613,338,3147,2571,3147,-2.2720947265625,0.173828125,-0.226806640625
12.621,344,3147,2632,3147,-1.416259765625,-0.41015625,0.136962890625
12.628,344,3147,2645,3147,-1.024658203125,-0.1182861328125,0.4293212890625
12.635,344,3147,2612,3147,-1.2547607421875,0.6103515625,0.4384765625
12.651,343,3147,2430,3147,-1.5545654296875,0.912353515625,0.30419921875
12.659,342,3147,2347,3147,-1.6163330078125,0.6517333984375,0.18798828125
12.667,334,3147,2215,3147,-1.4967041015625,0.2967529296875,0.136962890625
12.692,337,3147,1943,3147,-1.322021484375,0.1209716796875,0.120361328125
12.696,338,3147,1790,3147,-1.1322021484375,0.070068359375,0.122314453125
12.699,333,3147,1675,3147,-0.9412841796875,0.0694580078125,0.1483154296875
12.722,336,3147,1518,3147,-0.9412841796875,0.0694580078125,0.1483154296875
12.725,334,3147,1323,2726,-0.673095703125,0.07861328125,0.176513671875
12.727,336,3147,1239,2314,-0.6334228515625,0.0382080078125,0.116943359375
12.734,334,3147,1160,2056,-0.623046875,-0.0223388671875,0.086181640625
12.749,328,3147,1050,1496,-0.592041015625,-0.015625,0.0460205078125
12.756,330,3147,999,1253,-0.552978515625,0.0762939453125,-0.1180419921875
12.764,323,3147,939,1056,-0.5430908203125,0.238525390625,-0.30859375
12.777,327,3147,888,632,-0.5933837890625,0.46630859375,-0.3294677734375
12.798,324,3147,879,462,-0.6788330078125,0.662353515625,-0.18701171875
12.799,324,3140,858,364,-0.6788330078125,0.662353515625,-0.18701171875
12.820,324,2922,816,361,-0.7509765625,0.580078125,0.0048828125
12.822,307,2810,841,364,-0.7506103515625,0.4364013671875,0.0181884765625
12.834,323,2569,846,361,-0.7506103515625,0.4364013671875,0.0181884765625
12.838,323,2323,872,359,-0.7989501953125,0.28759765625,0.1131591796875
12.846,323,2326,887,359,-0.8125,0.2447509765625,0.15478515625
12.854,321,2381,894,359,-0.8125,0.2447509765625,0.15478515625
12.868,321,2481,897,356,-0.845947265625,0.2506103515625,0.1756591796875
12.876,321,2554,920,359,-0.8798828125,0.2664794921875,0.16259765625
12.884,322,2622,935,359,-0.8798828125,0.2664794921875,0.16259765625
12.903,321,2727,934,356,-0.9261474609375,0.2276611328125,0.103759765625
12.922,323,2807,936,357,-0.9306640625,0.2098388671875,0.0751953125
12.922,322,2901,938,359,-0.9306640625,0.2098388671875,0.0751953125
12.928,322,3094,959,361,-0.9185791015625,0.20458984375,0.0157470703125
12.944,323,3147,959,362,-0.91015625,0.214111328125,-0.01611328125
12.945,321,3147,975,390,-0.91015625,0.214111328125,-0.01611328125
12.958,324,3147,999,508,-0.8851318359375,0.2667236328125,-0.03466796875
12.966,324,3147,1012,616,-0.8603515625,0.290771484375,-0.031005859375
12.974,324,3147,1043,713,-0.8603515625,0.290771484375,-0.031005859375
12.987,327,3147,1063,980,-0.806396484375,0.2789306640625,-0.0167236328125
13.014,326,3147,1071,1160,-0.754638671875,0.2454833984375,-0.0263671875
13.026,327,3147,1065,1422,-0.754638671875,0.2454833984375,-0.0263671875
13.028,327,3147,1067,1786,-0.623046875,0.21484375,-0.003173828125
13.030,327,3147,1071,2008,-0.623046875,0.21484375,-0.003173828125
13.038,328,3147,1070,2271,-0.559814453125,0.2664794921875,0.0999755859375
13.058,328,3147,1067,2760,-0.3211669921875,0.3115234375,0.25146484375
13.064,324,3147,1112,3084,-0.3211669921875,0.3115234375,0.25146484375
13.068,327,3147,1157,3147,-0.17822265625,0.1517333984375,0.2105712890625
13.080,327,3147,1302,3147,-0.2108154296875,-0.196044921875,0.0555419921875
13.088,330,3147,1390,3147,-0.2108154296875,-0.196044921875,0.0555419921875
13.102,328,3147,1440,3147,-0.56982421875,0.0316162109375,0.0618896484375
13.129,328,3147,1590,3147,-1.622314453125,1.2667236328125,0.0975341796875
13.129,328,3147,1681,3147,-1.622314453125,1.2667236328125,0.0975341796875
13.129,332,3147,1801,3147,-1.922607421875,1.7301025390625,0.009033203125
13.137,334,3147,2007,3147,-2.0518798828125,1.625244140625,-0.007568359375
13.145,334,3147,1951,3147,-2.199462890625,0.920166015625,0.060546875
13.153,334,3147,1957,3147,-2.150390625,-0.144775390625,0.0797119140625
13.169,333,3147,2021,3147,-1.64013671875,-0.8338623046875,0.1488037109375
13.175,336,3147,2050,3147,-1.139892578125,-0.49267578125,0.2967529296875
13.185,336,3147,2058,3147,-1.1436767578125,0.447509765625,0.2957763671875
13.206,336,3147,2007,3147,-1.4085693359375,1.068359375,0.158935546875
13.228,336,3147,1960,3147,-1.5538330078125,1.0352783203125,0.0440673828125
13.232,334,3147,1904,3147,-1.5032958984375,0.7216796875,0.0128173828125
13.245,332,3147,1787,3147,-1.3681640625,0.473388671875,0.0010986328125
13.249,331,3147,1713,3147,-1.2406005859375,0.299560546875,-0.018310546875
13.252,334,3147,1638,3147,-1.1346435546875,0.177734375,0.011474609375
13.262,334,3147,1477,3147,-1.0303955078125,0.1336669921875,0.091552734375
13.267,333,3147,1393,2823,-0.9078369140625,0.1182861328125,0.149169921875
13.282,331,3147,1306,2366,-0.7652587890625,0.0609130859375,0.14697265625
13.287,330,3147,1071,1874,-0.641357421875,-0.064453125,0.1207275390625
13.295,330,3147,1038,1540,-0.5670166015625,-0.150146484375,0.12109375
13.305,330,3147,1005,1188,-0.555908203125,-0.1102294921875,0.1195068359375
13.334,324,3147,938,513,-0.59423828125,-0.0048828125,0.05078125
13.335,325,3147,907,361,-0.612060546875,0.1485595703125,-0.0528564453125
13.336,327,2993,895,363,-0.58056640625,0.3411865234375,-0.1048583984375
13.347,318,2497,803,360,-0.56298828125,0.5174560546875,-0.0830078125
13.356,321,2235,778,359,-0.6038818359375,0.62841796875,-0.02197265625
13.363,321,2024,784,357,-0.6641845703125,0.627197265625,0.019775390625
13.377,319,1794,766,348,-0.7149658203125,0.5205078125,0.025146484375
13.385,317,1815,774,348,-0.7542724609375,0.3865966796875,0.03662109375
13.394,316,1854,779,351,-0.788330078125,0.3045654296875,0.0589599609375
13.407,317,1968,803,348,-0.832275390625,0.2894287109375,0.073974609375
13.415,318,2047,820,349,-0.872802734375,0.296875,0.07421875
13.431,318,2128,842,351,-0.89697265625,0.2965087890625,0.05712890625
13.441,317,2287,849,351,-0.9083251953125,0.2979736328125,0.039794921875
13.445,319,2368,865,356,-0.90576171875,0.3062744140625,0.035888671875
13.453,318,2481,888,356,-0.89208984375,0.312255859375,0.0377197265625
13.467,321,2727,895,352,-0.872802734375,0.303955078125,0.0362548828125
13.484,318,2866,909,354,-0.8507080078125,0.270751953125,0.0283203125
13.486,319,3031,920,359,-0.8388671875,0.224365234375,0.0179443359375
13.533,323,3147,951,375,-0.8392333984375,0.1890869140625,0.0108642578125
13.533,323,3147,992,591,-0.83935546875,0.184326171875,0.0064697265625
13.533,323,3147,1031,739,-0.8372802734375,0.212646484375,0.0037841796875
13.537,324,3147,1067,1009,-0.840576171875,0.2532958984375,0.001708984375
13.546,324,3147,1132,1217,-0.849609375,0.2877197265625,-0.0008544921875
13.546,325,3147,1175,1374,-0.8463134765625,0.3189697265625,-0.0084228515625
13.558,318,3147,1308,1715,-0.8189697265625,0.3485107421875,-0.01025390625
13.567,327,3147,1387,1949,-0.7542724609375,0.344482421875,0.021728515625
13.576,327,3147,1440,2186,-0.626953125,0.2646484375,0.069580078125
13.590,327,3147,1457,2620,-0.457763671875,0.113525390625,0.1085205078125
13.598,328,3147,1490,2902,-0.2999267578125,-0.0482177734375,0.167724609375
13.621,330,3147,1519,3143,-0.209228515625,-0.1343994140625,0.2352294921875
13.644,330,3147,1656,3147,-0.2513427734375,-0.0689697265625,0.2645263671875
13.646,328,3147,1735,3147,-0.4366455078125,0.1717529296875,0.2303466796875
13.646,329,3147,1820,3147,-0.718994140625,0.5537109375,0.1541748046875
13.654,332,3147,1883,3147,-1.0616455078125,0.968017578125,0.0535888671875
13.657,332,3147,2100,3147,-1.406494140625,1.258544921875,-0.0877685546875
13.663,338,3147,2337,3147,-1.715087890625,1.2822265625,-0.148193359375
13.677,337,3147,2601,3147,-2.0421142578125,0.8480224609375,-0.0286865234375
13.685,338,3147,2652,3147,-2.3291015625,0.15625,0.0445556640625
13.693,344,3147,2591,3147,-2.2572021484375,-0.294189453125,-0.0147705078125
13.717,336,3147,2538,3147,-1.633056640625,-0.36865234375,0.0419921875
13.717,343,3147,2554,3147,-0.911376953125,-0.04833984375,0.2340087890625
13.723,342,3147,2565,3147,-0.747314453125,0.5565185546875,0.3121337890625
13.857,343,3147,2534,3147,-1.1097412109375,0.97900390625,0.2120361328125
13.858,336,3147,2473,3147,-1.4730224609375,0.9068603515625,0.0860595703125
13.859,338,3147,2404,3147,-1.55224609375,0.566650390625,0.0123291015625
13.859,338,3147,2249,3147,-1.436767578125,0.31103515625,-0.013916015625
13.859,338,3147,2172,3147,-1.2869873046875,0.205322265625,-0.00146484375
13.861,338,3147,2047,3147,-1.1683349609375,0.2044677734375,0.0357666015625
13.861,334,3147,1821,3147,-1.0745849609375,0.278564453125,0.0963134765625
13.861,332,3147,1779,3147,-0.9786376953125,0.3651123046875,0.15625
13.862,323,3147,1695,3147,-0.9786376953125,0.3651123046875,0.15625
13.862,334,3147,1561,2689,-0.7867431640625,0.269775390625,0.2020263671875
13.867,332,3147,1533,2321,-0.7303466796875,0.114013671875,0.147705078125
13.868,334,3147,1483,2047,-0.7303466796875,0.114013671875,0.147705078125
13.868,344,3147,1382,1415,-0.673828125,-0.0159912109375,0.0675048828125
13.869,332,3147,1287,1103,-0.654541015625,0.060302734375,0.0233154296875
13.873,332,3147,1209,856,-0.654541015625,0.060302734375,0.0233154296875
13.887,328,3147,1109,445,-0.6553955078125,0.2947998046875,-0.059814453125
13.895,330,3127,1050,373,-0.673828125,0.3770751953125,-0.0277099609375
13.903,321,2850,1018,371,-0.673828125,0.3770751953125,-0.0277099609375
13.921,327,2567,960,363,-0.741943359375,0.35107421875,-0.0125732421875
13.925,324,2341,939,363,-0.7772216796875,0.30517578125,0.0035400390625
13.947,324,2247,918,363,-0.7772216796875,0.30517578125,0.0035400390625
13.964,323,2080,907,356,-0.8173828125,0.2552490234375,0.0699462890625
13.966,323,2153,905,354,-0.8232421875,0.2587890625,0.0941162109375
13.968,322,2183,913,355,-0.8232421875,0.2587890625,0.0941162109375
13.978,323,2361,936,356,-0.825927734375,0.31494140625,0.146728515625
13.986,330,2494,947,359,-0.8255615234375,0.323486328125,0.1563720703125
13.993,321,2656,963,359,-0.8255615234375,0.323486328125,0.1563720703125
14.007,321,2963,978,356,-0.834228515625,0.2884521484375,0.1041259765625
14.022,323,3072,996,356,-0.847900390625,0.2900390625,0.081298828125
14.023,323,3147,1003,363,-0.847900390625,0.2900390625,0.081298828125
14.050,323,3147,1038,464,-0.852783203125,0.2607421875,0.0421142578125
14.052,324,3147,1050,582,-0.852783203125,0.2607421875,0.0421142578125
14.054,315,3147,1064,656,-0.8582763671875,0.243896484375,0.0318603515625
14.078,328,3147,1091,872,-0.876953125,0.241943359375,0.0284423828125
14.079,327,3147,1117,1063,-0.876953125,0.241943359375,0.0284423828125
14.083,318,3147,1112,1308,-0.8590087890625,0.2091064453125,0.028076171875
14.098,327,3147,1156,1843,-0.6715087890625,0.0958251953125,0.0611572265625
14.106,323,3147,1138,2142,-0.6715087890625,0.0958251953125,0.0611572265625
14.116,328,3147,1206,2445,-0.4903564453125,0.0692138671875,0.1212158203125
14.130,329,3147,1323,2996,-0.000732421875,0.0489501953125,0.2293701171875
14.151,330,3147,1488,3147,-0.000732421875,0.0489501953125,0.2293701171875
14.158,332,3147,1610,3147,0.1650390625,-0.0111083984375,0.1641845703125
14.164,334,3147,1880,3147,-0.43359375,0.367431640625,-0.0240478515625
14.183,333,3147,1987,3147,-0.43359375,0.367431640625,-0.0240478515625
14.185,334,3147,2119,3147,-1.0638427734375,0.881103515625,-0.0606689453125
14.187,323,3147,2379,3147,-1.856689453125,1.699951171875,0.0386962890625
14.195,344,3147,2612,3147,-1.856689453125,1.699951171875,0.0386962890625
14.203,346,3147,2748,3147,-2.0587158203125,1.4168701171875,0.2979736328125
14.218,343,3147,2683,3147,-2.3795166015625,-0.4730224609375,0.3690185546875
14.229,345,3147,2663,3147,-2.3795166015625,-0.4730224609375,0.3690185546875
14.252,346,3147,2691,3147,-1.849609375,-0.952880859375,0.1529541015625
14.255,346,3147,2695,3147,-1.0361328125,-0.6988525390625,0.1864013671875
14.258,338,3147,2610,3147,-0.6978759765625,0.049072265625,0.2723388671875
14.268,345,3147,2624,3147,-1.0224609375,0.740478515625,0.19189453125
14.285,344,3147,2549,3147,-1.5059814453125,0.9737548828125,0.03125
14.296,338,3147,2440,3147,-1.69677734375,0.7904052734375,-0.0606689453125
14.301,344,3147,2396,3147,-1.59130859375,0.4935302734375,-0.083251953125
14.313,338,3147,2195,3147,-1.3941650390625,0.294921875,-0.0552978515625
14.320,338,3147,2076,3147,-1.216796875,0.216552734375,0.02197265625
14.331,336,3147,1955,3147,-1.084228515625,0.2421875,0.111083984375
14.362,336,3147,1727,3147,-0.9949951171875,0.3465576171875,0.1756591796875
14.363,336,3147,1604,3147,-0.91357421875,0.46435546875,0.2008056640625
14.371,330,3147,1494,2833,-0.810791015625,0.4913330078125,0.1885986328125
14.373,319,3147,1312,2161,-0.69287109375,0.345947265625,0.138916015625
14.377,334,3147,1278,1810,-0.5997314453125,0.098388671875,0.084228515625
14.389,332,3147,1199,1439,-0.5523681640625,-0.0604248046875,0.067626953125
14.397,331,3147,1056,944,-0.5517578125,-0.04443359375,0.0517578125
14.408,328,3147,1022,653,-0.58984375,0.0784912109375,0.00048828125
14.413,328,3147,1018,464,-0.6429443359375,0.234375,-0.02783203125
14.432,324,2966,939,361,-0.6865234375,0.36669921875,0.0018310546875
14.435,323,2671,894,360,-0.7225341796875,0.427734375,0.042724609375
14.451,323,2432,845,359,-0.7630615234375,0.4195556640625,0.06103515625
14.457,319,2047,761,353,-0.802978515625,0.3787841796875,0.0604248046875
14.465,318,1914,739,351,-0.8349609375,0.336181640625,0.052734375
14.474,317,1686,707,347,-0.8558349609375,0.30908203125,0.0440673828125
14.496,313,1472,614,346,-0.867919921875,0.30615234375,0.036865234375
14.497,315,1330,579,342,-0.874755859375,0.329345703125,0.038330078125
14.504,315,1268,586,338,-0.865234375,0.3515625,0.055908203125
14.520,316,1251,600,336,-0.8385009765625,0.34423828125,0.0784912109375
14.526,313,1303,600,338,-0.8104248046875,0.3170166015625,0.0897216796875
14.534,314,1483,625,336,-0.7950439453125,0.295654296875,0.0855712890625
14.547,315,1796,694,344,-0.7938232421875,0.2867431640625,0.0711669921875
14.558,315,2008,684,346,-0.8033447265625,0.273681640625,0.05859375
14.568,313,2263,723,347,-0.825439453125,0.25048828125,0.051513671875
14.578,317,2715,775,347,-0.8387451171875,0.2254638671875,0.04736328125
14.587,316,3012,837,348,-0.8284912109375,0.2042236328125,0.041748046875
14.594,317,3147,859,357,-0.803466796875,0.1982421875,0.0352783203125
14.608,321,3147,906,669,-0.7855224609375,0.2293701171875,0.0242919921875
14.619,321,3147,971,883,-0.7860107421875,0.2940673828125,0.0054931640625
14.641,323,3147,1018,1146,-0.7620849609375,0.3319091796875,-0.0006103515625
14.642,326,3147,1131,1659,-0.6688232421875,0.27978515625,0.0172119140625
14.665,323,3147,1287,1952,-0.514404296875,0.167236328125,0.0125732421875
14.670,328,3147,1331,2223,-0.333740234375,0.0618896484375,-0.04345703125
14.672,332,3147,1504,2785,-0.1519775390625,0.00244140625,-0.1114501953125
14.680,332,3147,1592,3057,-0.0152587890625,0.0035400390625,-0.131591796875
14.687,334,3147,1791,3147,-0.0540771484375,0.1478271484375,-0.0247802734375
14.729,336,3147,2194,3147,-0.3509521484375,0.535400390625,0.179443359375
14.749,338,3147,2293,3147,-0.8385009765625,1.00634765625,0.3594970703125
14.767,342,3147,2417,3147,-1.3714599609375,1.26708984375,0.46484375
14.772,346,3147,2624,3147,-1.824951171875,1.146484375,0.4813232421875
14.778,346,3147,2748,3147,-2.224365234375,0.588134765625,0.4404296875
14.783,347,3147,2795,3147,-2.5675048828125,-0.193359375,0.3341064453125
14.789,346,3147,2599,3147,-2.5699462890625,-0.749755859375,0.1187744140625
14.797,344,3147,2464,3147,-1.964111328125,-0.8704833984375,-0.051513671875
14.803,344,3147,2424,3147,-1.1058349609375,-0.5174560546875,0.0184326171875
14.809,344,3147,2440,3147,-0.7752685546875,0.28076171875,0.1851806640625
14.822,344,3147,2306,3147,-1.17431640625,1.065185546875,0.1646728515625
14.832,338,3147,2221,3147,-1.69482421875,1.2794189453125,-0.0203857421875
14.849,344,3147,2144,3147,-1.83154296875,0.952392578125,-0.1612548828125
14.868,321,3147,1974,3147,-1.64599609375,0.528076171875,-0.14306640625
14.871,338,3147,1794,3147,-1.3812255859375,0.24658203125,-0.0301513671875
14.876,333,3147,1711,3147,-1.1705322265625,0.0792236328125,0.0650634765625
14.882,336,3147,1569,3144,-1.004638671875,-0.0487060546875,0.15478515625
14.886,336,3147,1348,2627,-0.83837890625,-0.1287841796875,0.245361328125
14.888,332,3147,1206,2233,-0.67529296875,-0.109619140625,0.28564453125
14.891,316,3147,1081,1974,-0.54296875,-0.036376953125,0.2718505859375
14.896,337,3147,1050,1695,-0.4578857421875,0.0428466796875,0.22705078125
14.908,328,3147,948,1149,-0.443603515625,0.095947265625,0.1431884765625
14.921,328,3147,871,800,-0.4754638671875,0.1614990234375,0.01025390625
14.924,328,3147,859,426,-0.501708984375,0.3607177734375,-0.0902099609375
14.944,324,2848,733,363,-0.514404296875,0.633544921875,-0.0948486328125
14.946,313,2621,710,363,-0.536865234375,0.8133544921875,-0.05419921875
14.974,323,2530,723,361,-0.5849609375,0.8499755859375,-0.0233154296875
14.975,321,2384,733,359,-0.6510009765625,0.76220703125,-0.0152587890625
14.977,321,2424,738,360,-0.71728515625,0.5816650390625,-0.0093994140625
14.985,321,2490,748,360,-0.77783203125,0.3822021484375,0.0010986328125
14.999,321,2662,749,356,-0.839599609375,0.2440185546875,0.013427734375
15.006,319,2736,749,360,-0.88720703125,0.1903076171875,0.02734375
15.014,322,2831,740,360,-0.912841796875,0.197509765625,0.0384521484375
15.028,318,2936,710,356,-0.925048828125,0.23095703125,0.0574951171875
15.036,321,3020,737,359,-0.924072265625,0.265380859375,0.083740234375
15.046,318,3080,750,360,-0.924072265625,0.265380859375,0.083740234375
15.060,321,3147,780,357,-0.9017333984375,0.3076171875,0.1080322265625
15.075,321,3147,811,391,-0.8782958984375,0.3153076171875,0.117431640625
15.075,318,3147,826,482,-0.8782958984375,0.3153076171875,0.117431640625
15.089,323,3147,846,736,-0.8375244140625,0.2652587890625,0.1015625
15.099,322,3147,830,887,-0.810791015625,0.223388671875,0.0736083984375
15.106,323,3147,805,1043,-0.810791015625,0.223388671875,0.0736083984375
15.118,324,3147,740,1380,-0.752197265625,0.1676025390625,-0.029052734375
15.126,324,3147,750,1641,-0.718505859375,0.1707763671875,-0.08642578125
15.134,321,3147,698,1854,-0.718505859375,0.1707763671875,-0.08642578125
15.148,319,3147,652,2170,-0.57861328125,0.253173828125,-0.0321044921875
15.157,321,3147,659,2442,-0.4561767578125,0.2884521484375,0.0841064453125
15.173,316,3147,721,2748,-0.4561767578125,0.2884521484375,0.0841064453125
15.181,321,3147,780,3147,-0.2913818359375,0.1280517578125,0.094482421875
15.198,323,3147,859,3147,-0.355712890625,0.071044921875,-0.0107421875
15.203,324,3147,1027,3147,-0.355712890625,0.071044921875,-0.0107421875
15.211,328,3147,1260,3147,-0.6822509765625,0.5386962890625,0.0408935546875
15.218,327,3147,1317,3147,-0.935791015625,0.845703125,0.1783447265625
15.226,330,3147,1416,3147,-0.935791015625,0.845703125,0.1783447265625
15.252,334,3147,1536,3147,-1.5399169921875,1.2462158203125,0.4451904296875
15.254,334,3147,1561,3147,-1.7379150390625,0.95556640625,0.4874267578125
15.255,334,3147,1604,3147,-1.7379150390625,0.95556640625,0.4874267578125
15.278,336,3147,1662,3147,-1.8818359375,0.4483642578125,0.456298828125
15.278,334,3147,1492,3147,-1.81640625,-0.4364013671875,0.1619873046875
15.285,332,3147,1506,3147,-1.81640625,-0.4364013671875,0.1619873046875
15.295,334,3147,1551,3147,-1.4058837890625,-0.5933837890625,0.000244140625
15.311,336,3147,1588,3147,-1.2176513671875,0.60595703125,0.176513671875
15.317,334,3147,1578,3147,-1.2176513671875,0.60595703125,0.176513671875
15.325,336,3147,1557,3147,-1.5423583984375,0.977783203125,0.07080078125
15.356,336,3147,1443,3147,-1.6016845703125,0.5673828125,0.017578125
15.361,334,3147,1359,3147,-1.6016845703125,0.5673828125,0.017578125
15.380,336,3147,1323,3147,-1.3746337890625,0.3463134765625,0.1053466796875
15.384,332,3147,1151,3147,-1.0584716796875,0.15771484375,0.1871337890625
15.387,328,3147,1078,3147,-1.0584716796875,0.15771484375,0.1871337890625
15.389,328,3147,1014,3147,-0.952880859375,0.162353515625,0.2020263671875
15.401,327,3147,931,2792,-0.822509765625,0.182861328125,0.1883544921875
15.406,325,3147,844,2404,-0.682861328125,0.1790771484375,0.1549072265625
15.413,319,3147,815,2111,-0.5758056640625,0.1439208984375,0.1055908203125
15.427,324,3147,746,1715,-0.533447265625,0.0948486328125,0.03076171875
15.435,323,3147,708,1366,-0.5484619140625,0.093994140625,-0.01513671875
15.443,318,3147,689,1018,-0.583740234375,0.1748046875,-0.02880859375
15.460,321,3147,594,400,-0.601806640625,0.3172607421875,-0.0537109375
15.467,321,3028,566,356,-0.5870361328125,0.4654541015625,-0.03759765625
15.486,316,2765,539,348,-0.586181640625,0.56640625,0.0263671875
15.486,316,2374,536,346,-0.6361083984375,0.608154296875,0.07763671875
15.496,318,2240,551,352,-0.709228515625,0.571533203125,0.09521484375
15.504,316,2078,523,348,-0.761962890625,0.4669189453125,0.094970703125
15.517,317,1960,554,346,-0.7860107421875,0.35693359375,0.0833740234375
15.525,316,1948,574,346,-0.8046875,0.2921142578125,0.0626220703125
15.534,316,1967,584,346,-0.830810546875,0.271484375,0.052001953125
15.546,316,2087,620,346,-0.859375,0.267578125,0.05615234375
15.576,315,2183,604,346,-0.8829345703125,0.262451171875,0.0601806640625
15.586,316,2249,630,351,-0.9002685546875,0.26171875,0.0579833984375
15.589,315,2409,625,328,-0.9110107421875,0.2760009765625,0.052978515625
15.589,316,2497,639,348,-0.9141845703125,0.3021240234375,0.04541015625
15.593,316,2622,680,348,-0.908203125,0.3173828125,0.0303955078125
15.608,317,2884,691,348,-0.8922119140625,0.3018798828125,0.006103515625
15.615,316,2984,720,354,-0.8704833984375,0.26611328125,-0.0128173828125
15.623,318,3139,749,354,-0.84912109375,0.2364501953125,-0.0118408203125
15.637,318,3147,786,423,-0.8348388671875,0.2237548828125,0.003173828125
15.647,321,3147,788,569,-0.832275390625,0.2283935546875,0.0191650390625
15.660,323,3147,842,749,-0.8426513671875,0.254150390625,0.031494140625
15.668,323,3147,918,942,-0.86083984375,0.293701171875,0.04345703125
15.677,323,3147,951,1067,-0.8760986328125,0.3243408203125,0.0499267578125
15.687,324,3147,992,1243,-0.8670654296875,0.31494140625,0.0361328125
15.700,327,3147,1053,1526,-0.8275146484375,0.2435302734375,0.0
15.705,327,3147,1050,1755,-0.772216796875,0.146728515625,-0.03857421875
15.713,324,3147,1012,1921,-0.69580078125,0.074951171875,-0.0625
15.729,327,3147,1069,2364,-0.581787109375,0.0328369140625,-0.0367431640625
15.740,324,3147,1067,2660,-0.4281005859375,0.0316162109375,0.07763671875
15.795,327,3147,1160,2908,-0.2430419921875,0.072021484375,0.2425537109375
15.797,328,3147,1290,3147,-0.080322265625,0.1151123046875,0.33349609375
15.797,330,3147,1361,3147,-0.0565185546875,0.1395263671875,0.2698974609375
15.797,330,3147,1390,3147,-0.270263671875,0.25634765625,0.1468505859375
15.797,334,3147,1492,3147,-0.7197265625,0.6282958984375,0.09130859375
15.797,319,3147,1536,3147,-1.247314453125,1.2772216796875,0.132568359375
15.803,336,3147,1568,3147,-1.6263427734375,1.784423828125,0.276123046875
15.817,336,3147,1667,3147,-1.8028564453125,1.6260986328125,0.4327392578125
15.826,337,3147,1766,3147,-1.8896484375,0.9166259765625,0.4827880859375
15.883,336,3147,1748,3147,-2.021728515625,0.144287109375,0.3408203125
15.883,338,3147,1681,3147,-2.01220703125,-0.42333984375,-0.010986328125
15.883,343,3147,1715,3147,-1.6939697265625,-0.52587890625,-0.21923828125
15.883,338,3147,1774,3147,-1.406982421875,0.05712890625,-0.0595703125
15.896,338,3147,1816,3147,-1.3975830078125,0.842529296875,0.1300048828125
15.896,342,3147,1816,3147,-1.5306396484375,1.114013671875,0.1507568359375
15.896,338,3147,1826,3147,-1.581298828125,0.8668212890625,0.1422119140625
15.910,338,3147,1770,3147,-1.4783935546875,0.5439453125,0.1658935546875
15.921,345,3147,1675,3147,-1.29248046875,0.354248046875,0.17919921875
15.941,338,3147,1641,3147,-1.098388671875,0.2620849609375,0.1759033203125
15.944,338,3147,1478,3147,-0.9161376953125,0.24169921875,0.17919921875
15.948,332,3147,1382,3075,-0.754638671875,0.2415771484375,0.1754150390625
15.954,338,3147,1294,2787,-0.6302490234375,0.1688232421875,0.141845703125
15.968,334,3147,1167,2225,-0.548583984375,0.0557861328125,0.106201171875
15.976,333,3147,1098,1957,-0.5167236328125,-0.0001220703125,0.0765380859375
16.001,334,3147,1058,1691,-0.533935546875,0.0648193359375,0.0447998046875
16.002,332,3147,948,1162,-0.5869140625,0.2330322265625,0.0087890625
16.008,334,3147,913,766,-0.6395263671875,0.4205322265625,-0.0426025390625
16.014,323,3147,849,465,-0.6514892578125,0.5645751953125,-0.0780029296875
16.028,327,2803,813,361,-0.6263427734375,0.6187744140625,-0.074951171875
16.036,326,2490,790,361,-0.61865234375,0.590576171875,-0.0447998046875
16.044,324,2388,766,359,-0.6484375,0.5250244140625,0.00537109375
16.058,323,2078,749,352,-0.6810302734375,0.436279296875,0.060546875
16.071,321,1981,725,354,-0.7008056640625,0.3447265625,0.1182861328125
16.075,321,2018,740,356,-0.7236328125,0.2818603515625,0.18408203125
16.111,321,2087,721,356,-0.7552490234375,0.259033203125,0.2381591796875
16.112,321,2235,759,356,-0.794921875,0.265869140625,0.240966796875
16.113,321,2337,780,354,-0.8468017578125,0.27587890625,0.1904296875
16.119,321,2555,780,357,-0.89453125,0.2666015625,0.122802734375
16.126,318,2691,788,356,-0.92578125,0.2379150390625,0.065185546875
16.134,321,2864,811,359,-0.9390869140625,0.209228515625,0.0303955078125
16.148,322,3079,827,354,-0.93310546875,0.2080078125,0.0145263671875
16.156,323,3147,846,363,-0.9100341796875,0.2391357421875,0.010009765625
16.164,323,3147,871,414,-0.872802734375,0.27392578125,0.0186767578125
16.178,327,3147,888,687,-0.8270263671875,0.2860107421875,0.03173828125
16.189,324,3147,906,806,-0.7861328125,0.278076171875,0.0352783203125
16.211,327,3147,922,963,-0.7861328125,0.278076171875,0.0352783203125
16.211,331,3147,992,1178,-0.7698974609375,0.2940673828125,0.037109375
16.222,328,3147,1041,1312,-0.7850341796875,0.3226318359375,0.03857421875
16.225,330,3147,1097,1467,-0.7850341796875,0.3226318359375,0.03857421875
16.238,334,3147,1216,1715,-0.8404541015625,0.35791015625,0.068115234375
16.246,333,3147,1237,1869,-0.818115234375,0.3197021484375,0.1083984375
16.254,331,3147,1292,2035,-0.818115234375,0.3197021484375,0.1083984375
16.275,336,3147,1362,2415,-0.5518798828125,0.034423828125,0.1304931640625
16.276,338,3147,1398,2673,-0.3751220703125,-0.08203125,0.2037353515625
16.308,333,3147,1380,2962,-0.3751220703125,-0.08203125,0.2037353515625
16.312,310,3147,1456,3147,-0.1175537109375,-0.15185546875,0.2138671875
16.315,336,3147,1546,3147,-0.1519775390625,-0.0042724609375,0.149658203125
16.323,338,3147,1623,3147,-0.1519775390625,-0.0042724609375,0.149658203125
16.328,338,3147,1733,3147,-0.6666259765625,0.8773193359375,0.10986328125
16.336,342,3147,1769,3147,-1.107666015625,1.4552001953125,0.064453125
16.345,338,3147,1830,3147,-1.107666015625,1.4552001953125,0.064453125
16.358,348,3147,2268,3147,-1.97802734375,1.490478515625,0.2410888671875
16.366,354,3147,2379,3147,-2.4921875,0.623291015625,0.3927001953125
16.379,354,3147,2337,3147,-2.4921875,0.623291015625,0.3927001953125
16.412,351,3147,2201,3147,-2.317626953125,-0.69873046875,-0.053955078125
16.413,356,3147,2314,3147,-1.4102783203125,-0.375,0.1241455078125
16.414,354,3147,2359,3147,-1.4102783203125,-0.375,0.1241455078125
16.422,351,3147,2224,3147,-1.294189453125,1.0496826171875,0.3343505859375
16.436,352,3147,2129,3147,-1.294189453125,1.0496826171875,0.3343505859375
16.438,347,3147,2058,3147,-1.627685546875,0.8240966796875,0.192626953125
16.452,347,3147,1898,3147,-1.401123046875,0.1436767578125,0.239013671875
16.460,347,3147,1794,3147,-1.401123046875,0.1436767578125,0.239013671875
16.468,346,3147,1732,3147,-1.1744384765625,0.1220703125,0.2266845703125
16.483,342,3147,1580,3147,-0.9127197265625,0.1434326171875,0.1649169921875
16.488,344,3147,1508,3147,-0.9127197265625,0.1434326171875,0.1649169921875
16.508,338,3147,1386,3115,-0.8018798828125,0.1846923828125,0.1669921875
16.510,326,3147,1206,2473,-0.6495361328125,0.0933837890625,0.0985107421875
16.519,338,3147,1157,2114,-0.6495361328125,0.0933837890625,0.0985107421875
16.525,336,3147,1147,1821,-0.59619140625,-0.020751953125,0.055419921875
16.539,334,3147,1025,1428,-0.5494384765625,0.016357421875,0.048828125
16.548,331,3147,963,1198,-0.5494384765625,0.016357421875,0.048828125
16.554,332,3147,907,895,-0.58935546875,0.17919921875,-0.0074462890625
16.575,331,3147,849,468,-0.67626953125,0.425048828125,-0.1544189453125
16.600,328,3147,787,371,-0.67626953125,0.425048828125,-0.1544189453125
16.613,328,2981,765,365,-0.69482421875,0.467041015625,-0.0986328125
16.614,327,2677,691,361,-0.8065185546875,0.4615478515625,0.021728515625
16.614,323,2318,661,361,-0.8065185546875,0.4615478515625,0.021728515625
16.615,323,2016,675,359,-0.853759765625,0.42822265625,0.0264892578125
16.629,321,1380,630,354,-0.863525390625,0.3912353515625,0.03662109375
16.636,319,1189,607,346,-0.8453369140625,0.3607177734375,0.0732421875
16.644,318,1143,570,348,-0.8218994140625,0.3350830078125,0.123046875
16.661,317,1173,531,346,-0.81005859375,0.3253173828125,0.1640625
16.666,318,1233,543,347,-0.8148193359375,0.3350830078125,0.189453125
16.674,317,1278,554,348,-0.823486328125,0.3310546875,0.1851806640625
