time,compression0,compression1,compression2,compression3,accel_x,accel_y,accel_z
0.001,308,3147,607,706,-0.8505859375,0.3841552734375,-0.3463134765625
0.022,308,3147,617,694,-0.849853515625,0.38037109375,-0.348388671875
0.023,306,3147,607,684,-0.8419189453125,0.3779296875,-0.347412109375
0.031,308,3147,619,669,-0.8328857421875,0.376708984375,-0.3447265625
0.039,308,3147,619,666,-0.827880859375,0.375,-0.343505859375
0.053,310,3147,600,625,-0.8302001953125,0.3704833984375,-0.343994140625
0.061,309,3147,625,533,-0.8399658203125,0.3607177734375,-0.3436279296875
0.073,309,3147,643,497,-0.848876953125,0.3492431640625,-0.3359375
0.086,313,3147,601,526,-0.847900390625,0.343017578125,-0.31591796875
0.098,308,3147,586,644,-0.822265625,0.3302001953125,-0.281494140625
0.099,311,3147,596,810,-0.770751953125,0.295654296875,-0.2340087890625
0.118,307,3147,644,1057,-0.7095947265625,0.27734375,-0.1883544921875
0.128,308,3147,710,1143,-0.64404296875,0.30224609375,-0.1739501953125
0.129,312,3147,754,1292,-0.5506591796875,0.3138427734375,-0.1842041015625
0.143,315,3147,787,1662,-0.3878173828125,0.271728515625,-0.1739501953125
0.151,316,3147,871,1907,-0.1790771484375,0.239501953125,-0.1376953125
0.159,316,3147,814,2201,-0.0206298828125,0.282470703125,-0.14404296875
0.173,321,3147,984,2507,0.0067138671875,0.3865966796875,-0.2398681640625
0.202,328,3147,1217,2765,-0.1317138671875,0.5604248046875,-0.3116455078125
0.202,333,3147,1357,3024,-0.4521484375,0.77294921875,-0.268798828125
0.203,338,3147,1534,3147,-0.8935546875,0.88134765625,-0.208251953125
0.225,344,3147,1627,3147,-1.3450927734375,0.7996826171875,-0.2772216796875
0.228,346,3147,1732,3147,-1.75048828125,0.6180419921875,-0.4359130859375
0.233,348,3147,1815,3147,-2.068359375,0.449951171875,-0.55419921875
0.241,353,3147,1835,3147,-2.2254638671875,0.334228515625,-0.5511474609375
0.249,347,3147,1798,3147,-1.9744873046875,0.1912841796875,-0.3646240234375
0.263,345,3147,1748,3147,-1.3203125,0.2166748046875,-0.0782470703125
0.271,344,3147,1686,3147,-0.81103515625,0.5966796875,-0.04052734375
0.279,336,3147,1568,3147,-0.7108154296875,0.970458984375,-0.314208984375
0.305,333,3147,1455,3147,-0.8353271484375,0.982666015625,-0.49169921875
0.306,332,3147,1453,3147,-1.1153564453125,0.74755859375,-0.500244140625
0.309,330,3147,1450,3128,-1.4349365234375,0.6041259765625,-0.5762939453125
0.328,327,3147,1419,2880,-1.5164794921875,0.5166015625,-0.6317138671875
0.331,324,3147,1397,2638,-1.324462890625,0.3466796875,-0.4666748046875
0.340,321,3147,1345,2395,-1.0552978515625,0.195068359375,-0.202880859375
0.353,318,3147,1306,1973,-0.8389892578125,0.157958984375,-0.0283203125
0.364,315,3147,1278,1705,-0.715576171875,0.17138671875,0.0255126953125
0.369,309,3147,1255,1422,-0.715576171875,0.17138671875,0.0255126953125
0.384,315,3147,1189,971,-0.748779296875,0.2080078125,0.0245361328125
0.391,315,3147,1178,620,-0.79052734375,0.2255859375,-0.0230712890625
0.422,313,3147,1120,359,-0.79052734375,0.2255859375,-0.0230712890625
0.422,309,2608,1095,354,-0.802734375,0.1490478515625,-0.1739501953125
0.422,310,2180,1029,347,-0.79541015625,0.1129150390625,-0.196044921875
0.440,308,1967,980,336,-0.79541015625,0.1129150390625,-0.196044921875
0.443,308,1504,939,338,-0.7811279296875,0.18212890625,-0.2545166015625
0.451,306,1413,899,338,-0.744384765625,0.2362060546875,-0.2547607421875
0.459,308,1195,867,323,-0.744384765625,0.2362060546875,-0.2547607421875
0.473,305,1009,874,328,-0.668701171875,0.4013671875,-0.23779296875
0.481,306,1005,834,324,-0.6436767578125,0.49072265625,-0.24853515625
0.489,308,1122,827,328,-0.6436767578125,0.49072265625,-0.24853515625
0.514,306,1241,846,328,-0.58203125,0.391357421875,-0.2122802734375
0.515,291,1409,808,313,-0.582275390625,0.2818603515625,-0.2025146484375
0.529,307,1536,860,332,-0.582275390625,0.2818603515625,-0.2025146484375
0.538,306,1899,888,333,-0.6724853515625,0.180908203125,-0.2435302734375
0.541,307,2386,879,334,-0.70654296875,0.202392578125,-0.2745361328125
0.549,308,2738,883,344,-0.70654296875,0.202392578125,-0.2745361328125
0.563,308,3147,888,484,-0.7713623046875,0.224365234375,-0.2601318359375
0.571,308,3147,919,846,-0.826171875,0.2900390625,-0.2615966796875
0.579,312,3147,927,1078,-0.826171875,0.2900390625,-0.2615966796875
0.593,309,3147,922,1658,-0.8118896484375,0.3060302734375,-0.219482421875
0.601,313,3147,958,1967,-0.8118896484375,0.3060302734375,-0.219482421875
0.609,313,3147,1003,2135,-0.71533203125,0.2388916015625,-0.13330078125
0.647,318,3147,1097,2493,-0.455078125,0.2325439453125,0.1002197265625
0.648,321,3147,1224,2769,-0.455078125,0.2325439453125,0.1002197265625
0.648,324,3147,1359,3008,-0.31640625,0.322998046875,0.170654296875
0.652,328,3147,1508,3147,-0.0654296875,0.467529296875,0.2120361328125
0.661,337,3147,1582,3147,-0.0654296875,0.467529296875,0.2120361328125
0.669,338,3147,1622,3147,-0.2000732421875,0.5362548828125,0.0560302734375
0.683,351,3147,1716,3147,-1.226806640625,0.9844970703125,-0.8314208984375
0.692,361,3147,1735,3147,-1.226806640625,0.9844970703125,-0.8314208984375
0.699,361,3147,1746,3147,-1.841064453125,1.0560302734375,-0.997802734375
0.713,360,3147,1855,3147,-2.6373291015625,0.066650390625,-0.579345703125
0.735,361,3147,1809,3147,-2.6373291015625,0.066650390625,-0.579345703125
0.735,359,3147,1711,3147,-2.2747802734375,-0.4066162109375,-0.100341796875
0.755,359,3147,1607,3147,-0.790771484375,0.562255859375,0.4114990234375
0.755,354,3147,1622,3147,-0.790771484375,0.562255859375,0.4114990234375
0.759,356,3147,1607,3147,-0.967529296875,1.365234375,-0.137451171875
0.773,348,3147,1494,3147,-1.75,1.010986328125,-0.7559814453125
0.781,347,3147,1415,3147,-1.75,1.010986328125,-0.7559814453125
0.789,344,3147,1287,3147,-1.5972900390625,0.4881591796875,-0.5579833984375
0.803,334,3147,1010,3147,-1.3118896484375,0.3135986328125,-0.438720703125
0.815,328,3147,963,2760,-1.0546875,0.3553466796875,-0.455322265625
0.819,323,3147,944,2361,-0.855712890625,0.3623046875,-0.460693359375
0.844,318,3147,895,1348,-0.728271484375,0.2593994140625,-0.3212890625
0.844,315,3147,879,853,-0.6837158203125,0.07763671875,-0.1085205078125
0.849,313,3147,841,332,-0.7071533203125,-0.07861328125,0.0794677734375
0.863,308,2306,762,334,-0.7318115234375,-0.130126953125,0.210205078125
0.871,310,1848,698,329,-0.690673828125,-0.1429443359375,0.2230224609375
0.879,308,1543,668,332,-0.620361328125,-0.0858154296875,0.141357421875
0.893,309,973,673,323,-0.5732421875,0.0643310546875,0.0240478515625
0.901,308,904,656,327,-0.555908203125,0.1978759765625,-0.1160888671875
0.916,306,947,586,323,-0.5604248046875,0.2684326171875,-0.253662109375
0.923,306,976,614,328,-0.546630859375,0.3212890625,-0.358154296875
0.939,307,971,653,324,-0.547119140625,0.4390869140625,-0.4112548828125
0.939,307,989,668,307,-0.59033203125,0.58203125,-0.4056396484375
0.956,306,1020,697,327,-0.6197509765625,0.6453857421875,-0.36328125
0.961,308,1103,750,328,-0.623779296875,0.603515625,-0.3199462890625
0.974,313,1222,794,332,-0.624755859375,0.472412109375,-0.2847900390625
0.983,310,1447,864,329,-0.634521484375,0.3150634765625,-0.2525634765625
0.991,308,1647,888,331,-0.6478271484375,0.2091064453125,-0.2265625
1.011,313,1989,920,334,-0.655029296875,0.15869140625,-0.202880859375
1.023,313,3140,947,338,-0.6622314453125,0.12548828125,-0.19287109375
1.051,299,3147,944,923,-0.6666259765625,0.1121826171875,-0.18603515625
1.052,316,3147,1005,1382,-0.6551513671875,0.1402587890625,-0.149658203125
1.052,318,3147,1000,2047,-0.6248779296875,0.2008056640625,-0.105224609375
1.055,318,3147,1018,2430,-0.5552978515625,0.2513427734375,-0.07080078125
1.059,315,3147,1108,2704,-0.47412109375,0.3135986328125,-0.0252685546875
1.073,330,3147,1411,3147,-0.405517578125,0.351806640625,0.00830078125
1.088,336,3147,1494,3147,-0.339599609375,0.3236083984375,0.0595703125
1.089,324,3147,1583,3147,-0.3162841796875,0.308837890625,0.1448974609375
1.103,351,3147,1702,3147,-0.375732421875,0.368408203125,0.14453125
1.111,356,3147,1781,3147,-0.5889892578125,0.474609375,-0.0655517578125
1.122,363,3147,1948,3147,-1.008544921875,0.63134765625,-0.4515380859375
1.138,369,3147,2244,3147,-1.5748291015625,0.8046875,-0.8336181640625
1.156,371,3147,2419,3147,-2.132568359375,0.757568359375,-0.9892578125
1.156,359,3147,2497,3147,-2.4647216796875,0.4190673828125,-0.8072509765625
1.163,371,3147,2430,3147,-2.4327392578125,0.12890625,-0.4591064453125
1.171,373,3147,2291,3147,-1.84814453125,0.15625,-0.0931396484375
1.194,364,3147,2093,3147,-0.9571533203125,0.5560302734375,0.182373046875
1.199,369,3147,2078,3147,-0.56005859375,0.953857421875,0.072998046875
1.201,364,3147,2048,3147,-0.8883056640625,1.0438232421875,-0.3004150390625
1.209,362,3147,1997,3147,-1.5093994140625,0.945068359375,-0.623046875
1.224,356,3147,1896,3147,-1.8597412109375,0.677734375,-0.7347412109375
1.231,352,3147,1811,3147,-1.7191162109375,0.381103515625,-0.5516357421875
1.258,348,3147,1681,3147,-1.3677978515625,0.259033203125,-0.2930908203125
1.258,344,3147,1440,3147,-1.0499267578125,0.3338623046875,-0.13525390625
1.262,334,3147,1413,3073,-0.8468017578125,0.4573974609375,-0.092529296875
1.270,328,3147,1361,2692,-0.7684326171875,0.494140625,-0.13330078125
1.373,324,3147,1326,1850,-0.7415771484375,0.4248046875,-0.1658935546875
1.392,321,3147,1266,1281,-0.7412109375,0.2801513671875,-0.1417236328125
1.392,321,3147,1215,656,-0.7501220703125,0.104736328125,-0.062744140625
1.392,315,2746,1117,344,-0.7113037109375,-0.031005859375,0.03857421875
1.392,315,2217,1025,343,-0.64013671875,-0.0931396484375,0.0928955078125
1.392,317,1753,1004,336,-0.5987548828125,-0.047119140625,0.1002197265625
1.393,310,1348,951,330,-0.5968017578125,0.093017578125,0.0750732421875
1.393,313,1173,922,315,-0.623046875,0.22119140625,0.0146484375
1.472,310,1051,860,328,-0.6368408203125,0.284423828125,-0.0654296875
1.473,310,987,698,330,-0.627685546875,0.32177734375,-0.1646728515625
1.473,293,971,732,330,-0.6058349609375,0.38232421875,-0.275146484375
1.473,313,1067,685,308,-0.5745849609375,0.435791015625,-0.3641357421875
1.473,293,1131,803,328,-0.563720703125,0.4248046875,-0.3992919921875
1.473,291,1188,853,314,-0.5745849609375,0.3642578125,-0.380126953125
1.473,309,1399,936,332,-0.5999755859375,0.28369140625,-0.3294677734375
1.473,310,1613,975,331,-0.6422119140625,0.2239990234375,-0.2774658203125
1.473,298,1914,985,321,-0.68505859375,0.2032470703125,-0.2469482421875
1.474,310,2172,1050,338,-0.71044921875,0.1920166015625,-0.22412109375
1.474,313,2668,1039,315,-0.71044921875,0.1920166015625,-0.22412109375
1.474,316,3147,1081,452,-0.755859375,0.1795654296875,-0.2210693359375
1.481,316,3147,1071,951,-0.8172607421875,0.224853515625,-0.220458984375
1.488,317,3147,1078,1371,-0.8172607421875,0.224853515625,-0.220458984375
1.504,316,3147,1148,2009,-0.75634765625,0.16943359375,-0.0911865234375
1.510,324,3147,1224,2337,-0.6612548828125,0.169677734375,0.0081787109375
1.518,330,3147,1245,2612,-0.6612548828125,0.169677734375,0.0081787109375
1.537,334,3147,1478,3118,-0.5020751953125,0.424072265625,0.1514892578125
1.540,338,3147,1529,3147,-0.3927001953125,0.5177001953125,0.199462890625
1.561,344,3147,1557,3147,-0.3927001953125,0.5177001953125,0.199462890625
1.562,348,3147,1583,3147,-0.2628173828125,0.578857421875,0.046875
1.570,356,3147,1709,3147,-0.5467529296875,0.7027587890625,-0.315673828125
1.580,361,3147,1862,3147,-0.5467529296875,0.7027587890625,-0.315673828125
1.592,369,3147,2168,3147,-1.7528076171875,0.9600830078125,-1.04736328125
1.616,362,3147,2207,3147,-2.37255859375,0.697265625,-1.131591796875
1.616,372,3147,2194,3147,-2.37255859375,0.697265625,-1.131591796875
1.634,365,3147,2060,3147,-2.211669921875,-0.2674560546875,-0.2578125
1.636,364,3147,1935,3147,-2.211669921875,-0.2674560546875,-0.2578125
1.638,359,3147,1892,3147,-1.234375,-0.0914306640625,0.267333984375
1.664,356,3147,1880,3147,-0.7926025390625,1.320068359375,-0.3505859375
1.664,342,3147,1824,3147,-0.7926025390625,1.320068359375,-0.3505859375
1.668,356,3147,1781,3147,-1.35400390625,1.338134765625,-0.6846923828125
1.682,348,3147,1628,3147,-1.69580078125,0.3548583984375,-0.53759765625
1.690,347,3147,1483,3147,-1.69580078125,0.3548583984375,-0.53759765625
1.698,334,3147,1439,3147,-1.3740234375,0.1661376953125,-0.354248046875
1.712,323,3147,1318,2514,-0.8355712890625,0.3135986328125,-0.0433349609375
1.720,325,3147,1278,1985,-0.8355712890625,0.3135986328125,-0.0433349609375
1.728,321,3147,1243,1348,-0.7174072265625,0.2935791015625,0.0291748046875
1.742,318,3147,1163,342,-0.7938232421875,0.1087646484375,0.0086669921875
1.752,316,2626,1104,348,-0.7938232421875,0.1087646484375,0.0086669921875
1.778,314,2105,1055,336,-0.84130859375,-0.038818359375,0.0186767578125
1.778,316,1204,958,334,-0.6658935546875,-0.259033203125,-0.1031494140625
1.780,310,1004,826,332,-0.6658935546875,-0.259033203125,-0.1031494140625
1.792,313,778,748,324,-0.5592041015625,-0.13427734375,-0.1552734375
1.802,310,740,604,328,-0.5316162109375,0.30126953125,-0.2362060546875
1.810,313,735,644,330,-0.5316162109375,0.30126953125,-0.2362060546875
1.819,306,763,661,327,-0.5762939453125,0.4178466796875,-0.2745361328125
1.839,310,749,750,328,-0.6221923828125,0.5113525390625,-0.25
1.840,308,762,773,324,-0.645751953125,0.6229248046875,-0.2125244140625
1.848,308,759,827,330,-0.6337890625,0.6759033203125,-0.18798828125
1.867,310,705,856,328,-0.6170654296875,0.5975341796875,-0.154296875
1.876,313,684,893,328,-0.60888671875,0.4117431640625,-0.154052734375
1.878,310,706,962,328,-0.6136474609375,0.222900390625,-0.1776123046875
1.896,313,1095,998,329,-0.6416015625,0.103515625,-0.173828125
1.901,314,1223,1029,331,-0.6832275390625,0.048095703125,-0.1522216796875
1.908,315,1494,1026,336,-0.723388671875,0.0491943359375,-0.1484375
1.922,313,2170,1031,342,-0.7606201171875,0.090087890625,-0.17626953125
1.930,316,2750,1029,347,-0.8070068359375,0.1455078125,-0.223388671875
1.941,316,3147,1050,375,-0.8223876953125,0.1748046875,-0.2574462890625
1.968,318,3147,1122,1202,-0.78466796875,0.18701171875,-0.26318359375
1.969,317,3147,1125,1718,-0.7271728515625,0.2213134765625,-0.2261962890625
1.969,322,3147,1116,2142,-0.6553955078125,0.2496337890625,-0.1614990234375
1.988,331,3147,1233,2784,-0.5970458984375,0.33984375,-0.12255859375
1.990,336,3147,1440,3084,-0.527587890625,0.4638671875,-0.12060546875
2.002,338,3147,1523,3147,-0.431640625,0.50439453125,-0.0889892578125
2.012,347,3147,1624,3147,-0.3743896484375,0.4544677734375,-0.0323486328125
2.029,355,3147,1739,3147,-0.3984375,0.410888671875,-0.0404052734375
2.032,359,3147,1894,3147,-0.56884765625,0.4793701171875,-0.2032470703125
2.044,361,3147,2058,3147,-0.903564453125,0.6378173828125,-0.44580078125
2.050,369,3147,2217,3147,-1.3258056640625,0.8223876953125,-0.5587158203125
2.063,371,3147,2347,3147,-1.7620849609375,0.8963623046875,-0.5301513671875
2.074,375,3147,2437,3147,-2.095947265625,0.7454833984375,-0.4349365234375
2.082,373,3147,2430,3147,-2.19189453125,0.4903564453125,-0.330810546875
2.089,371,3147,2296,3147,-1.9605712890625,0.3035888671875,-0.2530517578125
2.110,364,3147,2091,3147,-1.387939453125,0.2779541015625,-0.1082763671875
2.111,364,3147,2089,3147,-0.8734130859375,0.4814453125,0.0032958984375
2.118,361,3147,2093,3147,-0.916015625,0.7386474609375,-0.1761474609375
2.132,359,3147,1978,3147,-1.422119140625,0.76611328125,-0.549072265625
2.147,357,3147,1878,3147,-1.821533203125,0.501953125,-0.7633056640625
2.148,337,3147,1757,3147,-1.7667236328125,0.2197265625,-0.6448974609375
2.170,338,3147,1478,3147,-1.4342041015625,0.16064453125,-0.3839111328125
2.180,321,3147,1370,3115,-1.070556640625,0.2811279296875,-0.1888427734375
2.181,329,3147,1338,2713,-0.8125,0.451416015625,-0.0582275390625
2.192,327,3147,1292,1623,-0.705078125,0.4677734375,0.0113525390625
2.200,323,3147,1273,920,-0.7154541015625,0.291015625,0.01318359375
2.220,318,3147,1243,371,-0.763427734375,0.07177734375,0.0137939453125
2.222,316,2188,1116,354,-0.74072265625,-0.1158447265625,0.0177001953125
2.230,314,1609,1054,347,-0.6441650390625,-0.2384033203125,-0.006103515625
2.238,315,1280,1064,336,-0.535888671875,-0.228759765625,-0.04345703125
2.252,313,963,971,334,-0.441650390625,-0.0426025390625,-0.0914306640625
2.278,313,898,952,334,-0.4248046875,0.2811279296875,-0.160888671875
2.278,296,922,968,330,-0.480224609375,0.585693359375,-0.2364501953125
2.282,308,883,1000,334,-0.5330810546875,0.7301025390625,-0.2930908203125
2.290,309,933,1003,330,-0.59033203125,0.6981201171875,-0.330322265625
2.298,313,920,1042,332,-0.639404296875,0.542724609375,-0.355224609375
2.312,310,1026,1065,332,-0.6622314453125,0.3380126953125,-0.3543701171875
2.327,311,1268,1085,330,-0.682861328125,0.13671875,-0.307373046875
2.328,313,1441,1117,332,-0.71240234375,-0.002685546875,-0.2364501953125
2.342,313,1643,1109,332,-0.740478515625,-0.009033203125,-0.1893310546875
2.350,313,1904,1122,338,-0.770263671875,0.1026611328125,-0.1845703125
2.358,315,2162,1145,337,-0.8060302734375,0.223876953125,-0.194091796875
2.385,316,2996,1163,347,-0.8460693359375,0.287353515625,-0.2117919921875
2.385,299,3147,1143,442,-0.8916015625,0.30126953125,-0.235595703125
2.388,315,3147,1170,608,-0.932861328125,0.2841796875,-0.2447509765625
2.402,318,3147,1229,1009,-0.9476318359375,0.231689453125,-0.23046875
2.410,318,3147,1241,1345,-0.9168701171875,0.152587890625,-0.194580078125
2.418,321,3147,1255,1681,-0.8416748046875,0.1224365234375,-0.163330078125
2.438,323,3147,1345,2247,-0.7176513671875,0.146728515625,-0.0992431640625
2.440,310,3147,1401,2534,-0.554443359375,0.1627197265625,0.0634765625
2.454,334,3147,1541,2886,-0.3692626953125,0.208740234375,0.2708740234375
2.462,345,3147,1718,3147,-0.183349609375,0.3551025390625,0.39794921875
2.470,348,3147,1829,3147,-0.068359375,0.5140380859375,0.347412109375
2.486,354,3147,1914,3147,-0.1793212890625,0.527099609375,0.0662841796875
2.499,360,3147,2084,3147,-0.601806640625,0.501708984375,-0.4119873046875
2.503,364,3147,2194,3147,-1.205810546875,0.622802734375,-0.877685546875
2.517,371,3147,2287,3147,-1.79541015625,0.7518310546875,-1.0849609375
2.635,372,3147,2293,3147,-2.462646484375,0.339111328125,-0.7469482421875
2.710,351,3147,1596,3147,-1.375732421875,0.1756591796875,-0.4627685546875
2.710,330,3147,1419,3147,-1.05908203125,0.318603515625,-0.3663330078125
2.711,338,3147,1357,2984,-0.8187255859375,0.462158203125,-0.2489013671875
2.711,330,3147,1321,2231,-0.7076416015625,0.4183349609375,-0.1025390625
2.712,325,3147,1276,1596,-0.7105712890625,0.2603759765625,-0.0157470703125
2.712,318,3147,1249,1115,-0.7105712890625,0.2603759765625,-0.0157470703125
2.712,317,3140,1127,337,-0.787353515625,0.0792236328125,0.02392578125
2.712,316,2514,1085,352,-0.766845703125,-0.0103759765625,-0.0103759765625
2.712,315,1931,1091,345,-0.766845703125,-0.0103759765625,-0.0103759765625
2.712,313,1191,974,330,-0.6806640625,-0.107177734375,-0.13134765625
2.712,300,1009,966,336,-0.6248779296875,0.0223388671875,-0.1943359375
2.720,312,963,939,331,-0.6248779296875,0.0223388671875,-0.1943359375
2.733,308,809,927,328,-0.5751953125,0.42236328125,-0.3046875
2.748,309,737,939,334,-0.57421875,0.537109375,-0.3275146484375
2.749,294,731,939,330,-0.57421875,0.537109375,-0.3275146484375
2.763,310,758,1003,330,-0.588134765625,0.526123046875,-0.3099365234375
2.782,308,800,1031,330,-0.588134765625,0.4439697265625,-0.2960205078125
2.783,310,882,1041,330,-0.588134765625,0.4439697265625,-0.2960205078125
2.795,312,1118,1118,333,-0.6439208984375,0.2081298828125,-0.2579345703125
2.801,310,1318,1131,338,-0.6651611328125,0.07421875,-0.253662109375
2.809,310,1386,1143,336,-0.6651611328125,0.07421875,-0.253662109375
2.824,313,1914,1129,348,-0.7071533203125,-0.0196533203125,-0.272705078125
2.831,315,2268,1143,353,-0.7342529296875,0.06005859375,-0.312255859375
2.839,314,3017,1163,359,-0.7342529296875,0.06005859375,-0.312255859375
2.853,316,3147,1216,922,-0.7943115234375,0.280029296875,-0.286865234375
2.863,318,3147,1315,1306,-0.7943115234375,0.280029296875,-0.286865234375
2.869,319,3147,1386,1722,-0.794921875,0.3709716796875,-0.102294921875
2.898,332,3147,1540,2468,-0.432861328125,0.2230224609375,0.317626953125
2.901,332,3147,1656,2863,-0.432861328125,0.2230224609375,0.317626953125
2.901,324,3147,1785,3140,-0.23388671875,0.2923583984375,0.3165283203125
2.915,357,3147,1994,3147,-0.28662109375,0.411865234375,0.0081787109375
2.921,360,3147,2119,3147,-0.28662109375,0.411865234375,0.0081787109375
2.929,362,3147,2207,3147,-0.632080078125,0.2703857421875,-0.158447265625
2.943,364,3147,2370,3147,-1.6214599609375,0.4049072265625,-0.67236328125
2.951,373,3147,2442,3147,-1.6214599609375,0.4049072265625,-0.67236328125
2.965,373,3147,2471,3147,-2.0191650390625,0.6400146484375,-0.853271484375
2.973,371,3147,2415,3147,-2.2291259765625,0.8353271484375,-0.804931640625
2.981,371,3147,2337,3147,-2.2291259765625,0.8353271484375,-0.804931640625
2.993,369,3147,2218,3147,-1.6995849609375,0.60107421875,-0.4473876953125
3.004,365,3147,2061,3147,-0.625732421875,0.4827880859375,0.0731201171875
3.011,364,3147,2018,3147,-0.625732421875,0.4827880859375,0.0731201171875
3.019,361,3147,1999,3147,-0.86376953125,0.62353515625,-0.193359375
3.033,359,3147,1877,3147,-1.7301025390625,0.44140625,-0.7098388671875
3.041,356,3147,1813,3147,-1.7301025390625,0.44140625,-0.7098388671875
3.049,351,3147,1713,3147,-1.67578125,0.179443359375,-0.6370849609375
3.096,343,3147,1483,3147,-1.0291748046875,0.3812255859375,-0.29345703125
3.096,333,3147,1409,3012,-1.0291748046875,0.3812255859375,-0.29345703125
3.097,332,3147,1357,2673,-0.781982421875,0.5784912109375,-0.1875
3.097,328,3147,1281,1890,-0.6781005859375,0.6190185546875,-0.108642578125
3.101,323,3147,1262,1236,-0.697998046875,0.4881591796875,-0.0689697265625
3.115,323,3147,1216,714,-0.7947998046875,0.294921875,-0.0306396484375
3.123,321,2530,1112,361,-0.8746337890625,0.122314453125,-0.01513671875
3.131,316,2047,1065,352,-0.8792724609375,-0.0390625,-0.0848388671875
3.139,313,1662,1026,348,-0.8243408203125,-0.1712646484375,-0.172607421875
3.153,313,1163,978,334,-0.734375,-0.220703125,-0.2095947265625
3.161,310,917,946,328,-0.6336669921875,-0.119140625,-0.2158203125
3.177,313,739,897,334,-0.593017578125,0.12939453125,-0.2310791015625
3.196,313,694,860,330,-0.60107421875,0.3946533203125,-0.2647705078125
3.199,309,767,840,331,-0.59228515625,0.578369140625,-0.29296875
3.199,310,738,842,329,-0.5777587890625,0.6622314453125,-0.30712890625
3.213,310,728,841,330,-0.5718994140625,0.638427734375,-0.3104248046875
3.227,310,734,842,330,-0.5721435546875,0.5283203125,-0.303955078125
3.229,309,702,859,328,-0.5784912109375,0.3953857421875,-0.2982177734375
3.243,310,834,932,330,-0.58984375,0.2803955078125,-0.292236328125
3.251,313,1093,952,332,-0.6090087890625,0.16162109375,-0.268798828125
3.259,313,1262,998,338,-0.6417236328125,0.0423583984375,-0.234375
3.281,313,1659,1005,346,-0.6826171875,-0.013671875,-0.2069091796875
3.281,299,1954,1064,344,-0.7325439453125,0.027099609375,-0.1922607421875
3.294,313,2333,1063,347,-0.7930908203125,0.1168212890625,-0.1912841796875
3.303,315,3147,1056,364,-0.845703125,0.162109375,-0.1942138671875
3.311,315,3147,1078,891,-0.829833984375,0.1202392578125,-0.213623046875
3.319,310,3147,1108,1289,-0.76708984375,0.181884765625,-0.263427734375
3.339,318,3147,1183,1973,-0.747314453125,0.4510498046875,-0.2808837890625
3.341,318,3147,1276,2243,-0.7078857421875,0.6455078125,-0.24755859375
3.349,328,3147,1359,2530,-0.544677734375,0.580078125,-0.162841796875
3.363,338,3147,1622,3046,-0.289306640625,0.3519287109375,-0.0592041015625
3.375,347,3147,1697,3147,-0.1639404296875,0.239013671875,-0.0106201171875
3.392,353,3147,1807,3147,-0.254638671875,0.3084716796875,-0.016357421875
3.396,363,3147,2030,3147,-0.4814453125,0.37890625,-0.0736083984375
3.413,364,3147,2192,3147,-0.828857421875,0.473388671875,-0.205810546875
3.413,371,3147,2275,3147,-1.254150390625,0.6373291015625,-0.415283203125
3.423,372,3147,2388,3147,-1.6971435546875,0.756591796875,-0.6136474609375
3.431,373,3147,2319,3147,-2.08154296875,0.7203369140625,-0.7322998046875
3.439,372,3147,2233,3147,-2.323974609375,0.57470703125,-0.7427978515625
3.453,364,3147,2083,3147,-2.099365234375,0.3037109375,-0.506591796875
3.461,369,3147,2005,3147,-1.3446044921875,0.194580078125,-0.0296630859375
3.476,369,3147,2024,3147,-0.7589111328125,0.494873046875,0.189697265625
3.483,362,3147,1978,3147,-0.7667236328125,0.86865234375,-0.1029052734375
3.495,361,3147,1922,3147,-1.2093505859375,1.132568359375,-0.6007080078125
3.511,359,3147,1850,3147,-1.6644287109375,1.0767822265625,-0.9952392578125
3.513,346,3147,1681,3147,-1.7210693359375,0.669921875,-1.0211181640625
3.521,347,3147,1562,3147,-1.435791015625,0.3026123046875,-0.7064208984375
3.529,338,3147,1426,2921,-1.076171875,0.189697265625,-0.3702392578125
3.543,330,3147,1312,2133,-0.79541015625,0.2791748046875,-0.1329345703125
3.551,325,3147,1264,1550,-0.6318359375,0.3427734375,-0.0108642578125
3.565,323,3147,1214,1173,-0.593017578125,0.2860107421875,0.033935546875
3.580,319,3147,1175,409,-0.6190185546875,0.204833984375,0.0921630859375
3.581,316,2962,1138,348,-0.632080078125,0.1212158203125,0.0885009765625
3.599,316,2367,1105,346,-0.6455078125,0.0416259765625,-0.0074462890625
3.615,316,1762,1025,334,-0.675537109375,-0.0106201171875,-0.1131591796875
3.615,293,1650,1005,321,-0.69091796875,-0.0521240234375,-0.190673828125
3.619,313,1395,966,336,-0.694091796875,-0.0103759765625,-0.2452392578125
3.633,312,1085,910,331,-0.6842041015625,0.1583251953125,-0.2989501953125
3.641,310,1009,894,333,-0.6492919921875,0.3514404296875,-0.3472900390625
3.649,313,944,872,328,-0.6173095703125,0.4898681640625,-0.3768310546875
3.663,313,991,869,330,-0.6248779296875,0.565185546875,-0.386962890625
3.684,313,1026,887,330,-0.6595458984375,0.589599609375,-0.3765869140625
3.685,310,1066,883,330,-0.688720703125,0.5411376953125,-0.34375
3.714,310,1050,912,328,-0.706787109375,0.4207763671875,-0.294189453125
3.714,310,1091,932,332,-0.7257080078125,0.28955078125,-0.2386474609375
3.714,310,1184,939,316,-0.746337890625,0.1944580078125,-0.1800537109375
3.723,313,1494,992,342,-0.758544921875,0.122314453125,-0.1278076171875
3.731,313,1719,1018,332,-0.76416015625,0.0587158203125,-0.0880126953125
3.739,314,1931,1012,336,-0.750244140625,0.0330810546875,-0.067138671875
3.753,313,2677,1025,344,-0.71533203125,0.080810546875,-0.0787353515625
3.761,314,3076,1034,348,-0.7099609375,0.244140625,-0.14599609375
3.769,315,3147,1042,587,-0.7099609375,0.244140625,-0.14599609375
3.790,316,3147,1070,1173,-0.777587890625,0.4490966796875,-0.3829345703125
3.791,318,3147,1100,1527,-0.7403564453125,0.4158935546875,-0.4039306640625
3.820,317,3147,1107,1900,-0.7403564453125,0.4158935546875,-0.4039306640625
3.824,319,3147,1222,2419,-0.4122314453125,0.4132080078125,-0.2078857421875
3.824,323,3147,1290,2766,-0.2435302734375,0.35986328125,-0.106689453125
3.830,332,3147,1483,3078,-0.2435302734375,0.35986328125,-0.106689453125
3.843,346,3147,1676,3147,-0.1624755859375,0.2144775390625,0.07373046875
3.851,354,3147,1761,3147,-0.368408203125,0.28369140625,0.172119140625
3.859,360,3147,1848,3147,-0.368408203125,0.28369140625,0.172119140625
3.873,364,3147,2128,3147,-1.1163330078125,0.4393310546875,-0.062255859375
3.887,371,3147,2268,3147,-1.5247802734375,0.445556640625,-0.419189453125
3.889,375,3147,2419,3147,-1.5247802734375,0.445556640625,-0.419189453125
3.907,376,3147,2608,3147,-2.1654052734375,0.507080078125,-0.909912109375
3.929,378,3147,2569,3147,-2.329345703125,0.63427734375,-0.9873046875
3.929,371,3147,2514,3147,-2.329345703125,0.63427734375,-0.9873046875
3.933,376,3147,2308,3147,-1.232421875,0.6221923828125,-0.17529296875
3.941,372,3147,2190,3147,-0.6136474609375,0.6925048828125,0.2254638671875
3.949,371,3147,2202,3147,-0.6136474609375,0.6925048828125,0.2254638671875
3.963,373,3147,2106,3147,-1.177001953125,0.8818359375,-0.2802734375
3.971,371,3147,2024,3147,-1.64697265625,0.73828125,-0.5753173828125
3.979,364,3147,1980,3147,-1.64697265625,0.73828125,-0.5753173828125
3.993,359,3147,1808,3147,-1.5897216796875,0.2186279296875,-0.498779296875
4.029,356,3147,1691,3147,-1.5897216796875,0.2186279296875,-0.498779296875
4.030,351,3147,1569,3147,-1.30224609375,0.26806640625,-0.3770751953125
4.030,319,3147,1374,2571,-0.81005859375,0.5396728515625,-0.2061767578125
4.031,321,3147,1342,2078,-0.81005859375,0.5396728515625,-0.2061767578125
4.039,327,3147,1292,1580,-0.6390380859375,0.4886474609375,-0.08154296875
4.053,323,3147,1236,692,-0.619384765625,0.1651611328125,0.0711669921875
4.061,321,3147,1214,354,-0.619384765625,0.1651611328125,0.0711669921875
4.069,315,2897,1138,354,-0.7091064453125,0.0450439453125,0.08203125
4.083,316,1904,1107,346,-0.7564697265625,-0.0767822265625,-0.1400146484375
4.091,316,1652,1053,344,-0.7564697265625,-0.0767822265625,-0.1400146484375
4.099,315,1362,1025,336,-0.7130126953125,-0.0548095703125,-0.214111328125
4.117,307,992,946,328,-0.66259765625,0.0870361328125,-0.2042236328125
4.138,312,865,920,331,-0.66259765625,0.0870361328125,-0.2042236328125
4.139,310,842,923,326,-0.6519775390625,0.2196044921875,-0.191162109375
4.143,308,761,853,330,-0.60498046875,0.4542236328125,-0.243896484375
4.151,312,793,859,329,-0.60498046875,0.4542236328125,-0.243896484375
4.159,309,840,897,330,-0.589111328125,0.484130859375,-0.2567138671875
4.173,310,1076,957,331,-0.5814208984375,0.3177490234375,-0.230224609375
4.181,312,1183,986,332,-0.5814208984375,0.3177490234375,-0.230224609375
4.195,312,1217,999,330,-0.5970458984375,0.1971435546875,-0.2109375
4.203,313,1681,1054,334,-0.6368408203125,0.14453125,-0.2080078125
4.222,313,2053,1078,344,-0.674072265625,0.1531982421875,-0.209716796875
4.224,315,2636,1091,344,-0.6929931640625,0.14990234375,-0.18505859375
4.247,316,3147,1109,536,-0.67919921875,0.1156005859375,-0.140380859375
4.247,315,3147,1097,962,-0.687744140625,0.1346435546875,-0.1136474609375
4.249,316,3147,1123,1384,-0.772216796875,0.260009765625,-0.1029052734375
4.263,315,3147,1157,2083,-0.80029296875,0.405029296875,-0.0987548828125
4.271,323,3147,1173,2473,-0.68505859375,0.4620361328125,-0.1109619140625
4.279,328,3147,1287,2820,-0.49951171875,0.4163818359375,-0.1204833984375
4.297,334,3147,1463,3147,-0.3209228515625,0.303955078125,-0.0926513671875
4.301,346,3147,1528,3147,-0.1859130859375,0.2001953125,-0.0164794921875
4.324,348,3147,1602,3147,-0.1568603515625,0.21484375,0.0579833984375
4.324,343,3147,1808,3147,-0.294189453125,0.382080078125,0.046630859375
4.332,364,3147,2041,3147,-0.6405029296875,0.6463623046875,-0.1044921875
4.346,363,3147,2330,3147,-1.1787109375,0.8779296875,-0.3837890625
4.353,371,3147,2557,3147,-1.7816162109375,0.876953125,-0.75048828125
4.361,374,3147,2626,3147,-2.30126953125,0.6265869140625,-1.0108642578125
4.369,374,3147,2613,3147,-2.530029296875,0.322021484375,-0.997802734375
4.383,371,3147,2507,3147,-2.2977294921875,0.0889892578125,-0.7447509765625
4.400,373,3147,2370,3147,-1.542236328125,0.0208740234375,-0.2430419921875
4.400,354,3147,2354,3147,-0.74755859375,0.3109130859375,0.1728515625
4.429,371,3147,2334,3147,-0.6566162109375,0.8482666015625,0.0
4.429,371,3147,2210,3147,-1.169921875,1.26123046875,-0.5137939453125
4.429,352,3147,2153,3147,-1.649169921875,1.1949462890625,-0.770263671875
4.443,360,3147,1952,3147,-1.766357421875,0.71728515625,-0.649658203125
4.451,361,3147,1808,3147,-1.5904541015625,0.3475341796875,-0.4461669921875
4.466,351,3147,1709,3147,-1.31494140625,0.2889404296875,-0.3638916015625
4.473,346,3147,1453,3147,-1.048828125,0.3956298828125,-0.338134765625
4.481,338,3147,1328,2788,-0.8193359375,0.4488525390625,-0.2698974609375
4.489,332,3147,1290,2296,-0.643798828125,0.3701171875,-0.149169921875
4.503,323,3147,1229,1258,-0.5633544921875,0.233642578125,-0.037353515625
4.533,321,3147,1183,621,-0.602294921875,0.099609375,0.0423583984375
4.533,318,2958,1095,342,-0.720703125,0.0157470703125,0.084716796875
4.533,316,1824,1017,346,-0.802001953125,-0.0341796875,0.0408935546875
4.541,316,1468,947,338,-0.7603759765625,-0.052001953125,-0.0654296875
4.549,313,1104,922,336,-0.6702880859375,0.0145263671875,-0.1649169921875
4.564,310,840,860,332,-0.6165771484375,0.1312255859375,-0.24609375
4.571,313,720,840,336,-0.6055908203125,0.2503662109375,-0.3111572265625
4.579,310,687,819,331,-0.5985107421875,0.3189697265625,-0.324951171875
4.593,310,654,799,330,-0.57275390625,0.31103515625,-0.2762451171875
4.604,310,648,753,332,-0.541015625,0.2735595703125,-0.215576171875
4.609,309,643,750,330,-0.513916015625,0.2578125,-0.16748046875
4.629,311,890,813,330,-0.4954833984375,0.2708740234375,-0.135498046875
4.636,310,1108,854,333,-0.5084228515625,0.3094482421875,-0.1337890625
4.641,313,1292,887,336,-0.5576171875,0.36181640625,-0.154052734375
4.653,313,1746,951,338,-0.615234375,0.38720703125,-0.1837158203125
4.664,315,2113,992,346,-0.6724853515625,0.3699951171875,-0.2156982421875
4.669,316,2552,1018,345,-0.72705078125,0.3258056640625,-0.243896484375
4.683,318,3147,1031,363,-0.76123046875,0.2587890625,-0.2740478515625
4.691,317,3147,1043,830,-0.775390625,0.191162109375,-0.2994384765625
4.707,317,3147,1081,1129,-0.781982421875,0.18115234375,-0.2823486328125
4.713,323,3147,1198,1838,-0.748046875,0.204833984375,-0.2174072265625
4.729,324,3147,1239,2244,-0.6732177734375,0.225830078125,-0.120849609375
4.737,330,3147,1320,2567,-0.568603515625,0.1806640625,-0.0157470703125
4.744,337,3147,1514,3147,-0.428955078125,0.0457763671875,0.086669921875
4.751,344,3147,1580,3147,-0.3125,0.0274658203125,0.1839599609375
4.760,347,3147,1648,3147,-0.2254638671875,0.2198486328125,0.176025390625
4.773,354,3147,1730,3147,-0.2230224609375,0.553466796875,0.0438232421875
4.781,356,3147,1769,3147,-0.464599609375,0.9019775390625,-0.174072265625
4.789,361,3147,1882,3147,-0.9339599609375,1.1243896484375,-0.4334716796875
4.813,364,3147,2201,3147,-1.5078125,1.2010498046875,-0.6480712890625
4.813,371,3147,2348,3147,-2.0819091796875,0.978759765625,-0.8056640625
4.838,373,3147,2368,3147,-2.5113525390625,0.418212890625,-0.888671875
4.838,365,3147,2128,3147,-2.596923828125,-0.0916748046875,-0.8082275390625
4.841,364,3147,1952,3147,-1.9805908203125,-0.2589111328125,-0.4478759765625
4.850,363,3147,1925,3147,-0.9239501953125,0.1353759765625,-0.013671875
4.863,362,3147,1920,3147,-0.4405517578125,0.89111328125,-0.0179443359375
4.878,363,3147,1904,3147,-0.819091796875,1.3677978515625,-0.38623046875
4.879,360,3147,1815,3147,-1.3946533203125,1.2340087890625,-0.56640625
4.893,354,3147,1719,3147,-1.640380859375,0.700439453125,-0.4517822265625
4.902,353,3147,1638,3147,-1.560791015625,0.3319091796875,-0.3179931640625
4.918,351,3147,1557,3147,-1.560791015625,0.3319091796875,-0.3179931640625
4.923,347,3147,1393,3147,-1.0830078125,0.4566650390625,-0.3336181640625
4.936,334,3147,1326,3147,-0.8892822265625,0.486572265625,-0.3193359375
4.942,330,3147,1251,3147,-0.8892822265625,0.486572265625,-0.3193359375
4.953,330,3147,1243,2647,-0.6739501953125,0.3804931640625,-0.2010498046875
4.961,323,3147,1237,2139,-0.6397705078125,0.3065185546875,-0.1434326171875
4.969,323,3147,1225,1722,-0.6397705078125,0.3065185546875,-0.1434326171875
4.986,317,3147,1148,897,-0.7823486328125,0.0318603515625,-0.017578125
4.991,321,3147,1063,363,-0.873779296875,-0.1025390625,-0.0091552734375
5.000,316,2902,1054,359,-0.873779296875,-0.1025390625,-0.0091552734375
5.013,316,2091,996,348,-0.783935546875,-0.0313720703125,-0.1217041015625
5.065,315,1665,927,347,-0.6890869140625,0.103271484375,-0.16357421875
5.081,315,1357,883,344,-0.6890869140625,0.103271484375,-0.16357421875
5.084,300,952,799,334,-0.6141357421875,0.331298828125,-0.259521484375
5.084,313,927,806,333,-0.59765625,0.4693603515625,-0.2958984375
5.084,310,826,785,330,-0.59765625,0.4693603515625,-0.2958984375
5.084,313,725,741,327,-0.5723876953125,0.5289306640625,-0.2767333984375
5.084,312,694,753,331,-0.5491943359375,0.4107666015625,-0.246826171875
5.091,312,725,785,327,-0.5491943359375,0.4107666015625,-0.246826171875
5.103,312,968,841,328,-0.5377197265625,0.2847900390625,-0.2374267578125
5.116,313,1287,873,334,-0.6119384765625,0.21630859375,-0.1923828125
5.119,315,1456,913,338,-0.6119384765625,0.21630859375,-0.1923828125
5.161,315,1936,957,346,-0.70947265625,0.0528564453125,-0.1727294921875
5.161,314,2213,1000,352,-0.70947265625,0.0528564453125,-0.1727294921875
5.161,314,2704,1018,328,-0.7515869140625,-0.01904296875,-0.1981201171875
5.163,316,3147,989,790,-0.717529296875,-0.058349609375,-0.2003173828125
5.171,316,3147,968,1346,-0.717529296875,-0.058349609375,-0.2003173828125
5.179,316,3147,1009,1918,-0.5628662109375,0.0843505859375,-0.1319580078125
5.198,318,3147,1074,2673,-0.31787109375,0.7384033203125,0.0545654296875
5.201,324,3147,1209,3050,-0.31787109375,0.7384033203125,0.0545654296875
5.209,329,3147,1383,3147,-0.0645751953125,0.852294921875,0.138671875
5.223,345,3147,1640,3147,0.1319580078125,0.626708984375,0.0274658203125
5.231,348,3147,1691,3147,0.1319580078125,0.626708984375,0.0274658203125
5.256,359,3147,1739,3147,-0.3232421875,0.6646728515625,-0.1859130859375
5.258,364,3147,2063,3147,-1.69580078125,0.835205078125,-0.7789306640625
5.261,371,3147,2271,3147,-1.69580078125,0.835205078125,-0.7789306640625
5.269,373,3147,2321,3147,-2.23681640625,0.8502197265625,-0.884521484375
5.283,371,3147,2110,3147,-2.815673828125,-0.095458984375,-0.6732177734375
5.291,364,3147,2087,3147,-2.815673828125,-0.095458984375,-0.6732177734375
5.304,369,3147,2028,3147,-2.07958984375,-0.5169677734375,-0.1107177734375
5.323,363,3147,2035,3147,-0.3143310546875,0.89990234375,0.102294921875
5.323,364,3147,2056,3147,-0.3143310546875,0.89990234375,0.102294921875
5.330,364,3147,2047,3147,-0.7432861328125,1.667236328125,-0.6075439453125
5.352,361,3147,1894,3147,-1.4068603515625,1.64501953125,-0.999267578125
5.352,360,3147,1792,3147,-1.69775390625,0.9022216796875,-0.865478515625
5.359,359,3147,1691,3147,-1.6221923828125,0.221435546875,-0.5179443359375
5.373,347,3147,1501,3147,-1.36181640625,0.0823974609375,-0.3133544921875
5.381,344,3147,1348,3147,-1.0672607421875,0.3011474609375,-0.294677734375
5.389,334,3147,1266,3147,-0.8271484375,0.506591796875,-0.29296875
5.456,328,3147,1191,2587,-0.659423828125,0.491943359375,-0.219482421875
5.456,323,3147,1143,2093,-0.596435546875,0.3123779296875,-0.1363525390625
5.457,321,3147,1134,1607,-0.6361083984375,0.1583251953125,-0.08984375
5.457,318,3147,1078,673,-0.6968994140625,0.1363525390625,-0.0411376953125
5.457,316,3147,1004,346,-0.715087890625,0.1539306640625,-0.0252685546875
5.457,318,2801,1010,345,-0.7027587890625,0.1048583984375,-0.055419921875
5.463,315,2238,980,351,-0.6983642578125,0.0323486328125,-0.0750732421875
5.471,315,1981,909,349,-0.7181396484375,0.0064697265625,-0.082763671875
5.480,315,1848,873,344,-0.7125244140625,0.0677490234375,-0.1287841796875
5.493,315,1643,855,332,-0.644287109375,0.227783203125,-0.2186279296875
5.501,313,1506,841,338,-0.580810546875,0.41064453125,-0.287841796875
5.516,313,1463,799,338,-0.562744140625,0.5181884765625,-0.2935791015625
5.527,313,1622,816,338,-0.564697265625,0.50439453125,-0.262451171875
5.531,315,1770,835,336,-0.5736083984375,0.4176025390625,-0.2352294921875
5.540,313,1929,869,338,-0.5819091796875,0.3614501953125,-0.2315673828125
5.564,313,2271,921,343,-0.6142578125,0.3631591796875,-0.25244140625
5.564,298,2561,943,345,-0.68994140625,0.3602294921875,-0.2711181640625
5.570,316,2665,973,346,-0.755615234375,0.3138427734375,-0.2840576171875
5.584,314,2981,1013,348,-0.79345703125,0.25341796875,-0.297119140625
5.593,315,3105,1024,348,-0.832275390625,0.214111328125,-0.2999267578125
5.599,316,3147,1048,356,-0.871826171875,0.1890869140625,-0.2911376953125
5.613,310,3147,1050,607,-0.896240234375,0.1490478515625,-0.263671875
5.630,316,3147,1050,1025,-0.85693359375,0.038818359375,-0.1956787109375
5.630,317,3147,1054,1494,-0.7137451171875,-0.08935546875,-0.1046142578125
5.643,321,3147,1129,2190,-0.5462646484375,-0.0223388671875,-0.0286865234375
5.661,328,3147,1149,2576,-0.3992919921875,0.194580078125,-0.0234375
5.661,331,3147,1318,3010,-0.204833984375,0.3250732421875,-0.0247802734375
5.673,338,3147,1481,3147,-0.004638671875,0.3511962890625,0.102294921875
5.681,346,3147,1533,3147,0.1002197265625,0.349609375,0.2603759765625
5.689,351,3147,1574,3147,0.0174560546875,0.452392578125,0.283447265625
5.705,357,3147,1722,3147,-0.359619140625,0.7911376953125,0.015625
5.711,363,3147,1929,3147,-0.900390625,1.2161865234375,-0.541748046875
5.721,364,3147,2083,3147,-1.411865234375,1.5533447265625,-1.0794677734375
5.757,373,3147,2428,3147,-1.8187255859375,1.569580078125,-1.380615234375
5.758,373,3147,2275,3147,-2.254150390625,1.200439453125,-1.2822265625
5.758,354,3147,2286,3147,-2.6666259765625,0.4632568359375,-0.7984619140625
5.764,371,3147,2277,3147,-2.388916015625,-0.5867919921875,-0.146484375
5.771,371,3147,2314,3147,-1.3837890625,-0.924072265625,0.40185546875
5.781,371,3147,2316,3147,-0.7210693359375,-0.0147705078125,0.2244873046875
5.793,371,3147,2175,3147,-1.0224609375,1.30712890625,-0.6015625
5.801,363,3147,2058,3147,-1.578125,1.9512939453125,-1.1539306640625
5.809,361,3147,1967,3147,-1.6651611328125,1.4755859375,-0.9346923828125
5.823,359,3147,1687,3147,-1.406494140625,0.4705810546875,-0.2926025390625
5.841,356,3147,1555,3147,-1.1021728515625,-0.1175537109375,0.0950927734375
5.842,346,3147,1455,3147,-0.87646484375,0.10888671875,0.01025390625
5.859,337,3147,1204,3147,-0.709228515625,0.6405029296875,-0.2918701171875
5.863,328,3147,1167,2765,-0.600341796875,0.7921142578125,-0.4268798828125
5.870,325,3147,1170,2254,-0.5943603515625,0.4921875,-0.32568359375
5.883,321,3147,1097,1306,-0.6527099609375,0.1348876953125,-0.1778564453125
5.891,321,3147,1079,639,-0.694091796875,-0.0133056640625,-0.0870361328125
5.899,318,3110,1032,362,-0.7154541015625,-0.028076171875,-0.0692138671875
5.913,316,2279,987,353,-0.7686767578125,-0.0419921875,-0.0694580078125
5.922,315,1925,959,347,-0.786865234375,-0.0194091796875,-0.0648193359375
5.956,315,1662,910,344,-0.7049560546875,0.072998046875,-0.097900390625
5.957,313,1132,879,318,-0.6337890625,0.2060546875,-0.1614990234375
5.957,310,913,842,336,-0.64404296875,0.3486328125,-0.22021484375
5.968,313,803,811,332,-0.65869140625,0.4515380859375,-0.2437744140625
5.974,313,737,818,331,-0.624267578125,0.464599609375,-0.2227783203125
5.982,310,702,806,328,-0.5694580078125,0.3760986328125,-0.17626953125
5.990,310,733,815,331,-0.5294189453125,0.2506103515625,-0.1348876953125
5.998,309,794,843,332,-0.5294189453125,0.2506103515625,-0.1348876953125
6.012,310,1131,887,334,-0.5296630859375,0.169677734375,-0.151611328125
6.020,313,1397,918,331,-0.59814453125,0.214599609375,-0.18994140625
6.028,313,1589,957,338,-0.59814453125,0.214599609375,-0.18994140625
6.064,314,2024,973,342,-0.755126953125,0.273681640625,-0.2906494140625
6.065,313,2320,958,326,-0.8203125,0.277099609375,-0.327880859375
6.065,315,2507,1022,347,-0.8203125,0.277099609375,-0.327880859375
6.075,316,2943,1037,348,-0.889892578125,0.2269287109375,-0.3248291015625
6.080,314,3147,1043,543,-0.8248291015625,0.1165771484375,-0.228515625
6.088,316,3147,1067,864,-0.8248291015625,0.1165771484375,-0.228515625
6.102,315,3147,1057,1742,-0.6553955078125,-0.0574951171875,0.0855712890625
6.110,319,3147,1094,2162,-0.493408203125,0.11572265625,0.1282958984375
6.118,323,3147,1138,2543,-0.493408203125,0.11572265625,0.1282958984375
6.140,332,3147,1413,3147,-0.085693359375,0.5750732421875,0.0423583984375
6.140,338,3147,1490,3147,-0.085693359375,0.5750732421875,0.0423583984375
6.167,346,3147,1600,3147,-0.00732421875,0.6435546875,0.015869140625
6.167,349,3147,1798,3147,-0.56396484375,0.7628173828125,-0.3055419921875
6.170,359,3147,1967,3147,-0.56396484375,0.7628173828125,-0.3055419921875
6.217,371,3147,2424,3147,-2.0977783203125,1.0205078125,-1.1240234375
6.217,371,3147,2337,3147,-2.0977783203125,1.0205078125,-1.1240234375
6.217,369,3147,2247,3147,-2.635986328125,0.6090087890625,-0.8712158203125
6.222,361,3147,2138,3147,-1.8492431640625,-0.8170166015625,0.227783203125
6.230,364,3147,2080,3147,-1.8492431640625,-0.8170166015625,0.227783203125
6.244,363,3147,2091,3147,-0.7423095703125,-0.2042236328125,0.36767578125
6.277,361,3147,2102,3147,-0.9254150390625,1.754638671875,-0.91796875
6.277,345,3147,2053,3147,-0.9254150390625,1.754638671875,-0.91796875
6.278,361,3147,1963,3147,-1.4619140625,1.55419921875,-0.9901123046875
6.282,356,3147,1796,3147,-1.421875,-0.0052490234375,-0.078857421875
6.290,356,3147,1635,3147,-1.421875,-0.0052490234375,-0.078857421875
6.298,351,3147,1545,3147,-1.172607421875,0.052490234375,-0.0386962890625
6.312,336,3147,1345,3147,-0.7535400390625,0.613525390625,-0.364501953125
6.320,332,3147,1236,3025,-0.7535400390625,0.613525390625,-0.364501953125
6.328,329,3147,1173,2648,-0.6739501953125,0.50439453125,-0.3052978515625
6.345,323,3147,1170,1844,-0.775146484375,0.159423828125,-0.1656494140625
6.350,323,3147,1129,1323,-0.775146484375,0.159423828125,-0.1656494140625
6.371,318,3147,1076,753,-0.8626708984375,0.131103515625,-0.1309814453125
6.372,316,2831,1024,356,-0.8880615234375,0.112060546875,-0.1151123046875
6.381,317,2394,975,357,-0.8809814453125,0.0487060546875,-0.111083984375
6.388,310,1757,959,351,-0.88134765625,0.008544921875,-0.088623046875
6.403,309,1202,830,341,-0.8641357421875,0.04345703125,-0.0989990234375
6.410,315,995,829,336,-0.794189453125,0.146484375,-0.1746826171875
6.418,313,753,793,334,-0.6866455078125,0.28125,-0.2794189453125
6.433,310,660,725,330,-0.6009521484375,0.408203125,-0.344970703125
6.448,311,639,739,331,-0.575927734375,0.4859619140625,-0.336669921875
6.449,310,592,683,310,-0.56787109375,0.486572265625,-0.286865234375
6.462,313,625,723,327,-0.5262451171875,0.4261474609375,-0.2447509765625
6.481,310,605,746,328,-0.5045166015625,0.349609375,-0.217041015625
6.481,312,540,765,327,-0.5323486328125,0.29443359375,-0.1907958984375
6.494,313,720,828,323,-0.5504150390625,0.2489013671875,-0.17138671875
6.500,313,1024,859,336,-0.5528564453125,0.1927490234375,-0.162109375
6.508,313,1265,899,332,-0.5830078125,0.1429443359375,-0.150390625
6.522,315,1853,943,344,-0.63525390625,0.1099853515625,-0.128662109375
6.530,315,2339,963,355,-0.6483154296875,0.0806884765625,-0.107177734375
6.538,315,3133,986,355,-0.6190185546875,0.0986328125,-0.1060791015625
6.552,316,3147,984,1097,-0.6339111328125,0.212646484375,-0.1412353515625
6.568,316,3147,1000,1598,-0.712646484375,0.362548828125,-0.1793212890625
6.569,318,3147,1042,2047,-0.72314453125,0.43408203125,-0.1617431640625
6.583,324,3147,1155,2713,-0.6121826171875,0.3975830078125,-0.119873046875
6.591,328,3147,1323,3140,-0.498291015625,0.3223876953125,-0.1309814453125
6.598,332,3147,1442,3147,-0.4036865234375,0.2381591796875,-0.1446533203125
6.612,344,3147,1573,3147,-0.3642578125,0.255126953125,-0.107666015625
6.620,346,3147,1610,3147,-0.486083984375,0.4190673828125,-0.1522216796875
6.628,348,3147,1659,3147,-0.7691650390625,0.67529296875,-0.3582763671875
6.642,351,3147,1920,3147,-1.139404296875,0.997314453125,-0.6009521484375
6.652,363,3147,2111,3147,-1.5302734375,1.2197265625,-0.7608642578125
6.659,364,3147,2254,3147,-1.92822265625,1.1080322265625,-0.7835693359375
6.676,361,3147,2024,3147,-2.2718505859375,0.6136474609375,-0.634033203125
6.695,361,3147,1894,3147,-2.2547607421875,-0.0489501953125,-0.27587890625
6.695,359,3147,1806,3147,-1.6075439453125,-0.383056640625,0.2059326171875
6.704,356,3147,1808,3147,-0.813232421875,-0.01611328125,0.383056640625
6.710,354,3147,1824,3147,-0.635986328125,0.6856689453125,-0.0301513671875
6.719,356,3147,1822,3147,-1.1181640625,1.1685791015625,-0.64013671875
6.732,353,3147,1732,3147,-1.631103515625,1.13134765625,-0.9464111328125
6.740,351,3147,1648,3147,-1.7109375,0.73681640625,-0.8536376953125
6.754,346,3147,1523,3147,-1.4559326171875,0.4669189453125,-0.5692138671875
6.762,334,3147,1320,3147,-1.12060546875,0.4127197265625,-0.3433837890625
6.770,330,3147,1233,2962,-0.8463134765625,0.404541015625,-0.1832275390625
6.797,327,3147,1191,2559,-0.6671142578125,0.3265380859375,-0.0435791015625
6.798,323,3147,1112,1770,-0.6142578125,0.2120361328125,-0.0113525390625
6.800,321,3147,1091,1326,-0.662841796875,0.1737060546875,-0.035400390625
6.808,319,3147,1065,837,-0.707275390625,0.1820068359375,-0.03125
6.822,318,3008,1045,360,-0.733154296875,0.1474609375,-0.0579833984375
6.832,316,2700,1004,356,-0.77099609375,0.08056640625,-0.1192626953125
6.838,316,2240,973,356,-0.80029296875,0.032470703125,-0.1563720703125
6.857,315,1608,897,345,-0.7818603515625,0.032958984375,-0.16748046875
6.860,315,1323,867,344,-0.7227783203125,0.1141357421875,-0.191162109375
6.886,308,1120,859,344,-0.6658935546875,0.2879638671875,-0.240478515625
6.887,313,912,853,334,-0.628173828125,0.466796875,-0.2916259765625
6.890,310,834,813,332,-0.614990234375,0.5540771484375,-0.2994384765625
6.904,313,759,803,330,-0.62109375,0.53125,-0.2705078125
6.912,313,725,790,330,-0.6226806640625,0.4395751953125,-0.2425537109375
6.920,310,816,794,332,-0.60791015625,0.3524169921875,-0.225830078125
6.928,313,907,835,334,-0.5926513671875,0.3079833984375,-0.21826171875
6.944,313,1213,883,334,-0.5885009765625,0.284912109375,-0.212646484375
6.951,314,1390,912,342,-0.5975341796875,0.2493896484375,-0.2083740234375
6.958,313,1559,944,337,-0.61962890625,0.208984375,-0.196044921875
6.975,315,2166,968,351,-0.6337890625,0.1729736328125,-0.17529296875
6.984,315,2633,994,359,-0.6328125,0.1600341796875,-0.1611328125
7.009,316,3147,1018,439,-0.6417236328125,0.2022705078125,-0.1561279296875
7.009,316,3147,1005,1348,-0.6627197265625,0.2847900390625,-0.1572265625
7.011,316,3147,1091,1945,-0.6405029296875,0.352783203125,-0.1304931640625
7.018,318,3147,1149,2359,-0.511474609375,0.345458984375,-0.0528564453125
7.032,330,3147,1355,3064,-0.3095703125,0.255859375,0.01611328125
7.040,336,3147,1492,3147,-0.131591796875,0.192138671875,0.0665283203125
7.048,344,3147,1600,3147,-0.131591796875,0.192138671875,0.0665283203125
7.065,348,3147,1742,3147,-0.2794189453125,0.5303955078125,0.1312255859375
7.070,355,3147,1877,3147,-0.76220703125,0.78125,-0.1685791015625
7.086,359,3147,2028,3147,-0.76220703125,0.78125,-0.1685791015625
7.096,364,3147,2357,3147,-1.728759765625,1.14306640625,-1.0081787109375
7.101,371,3147,2323,3147,-2.15087890625,1.0687255859375,-1.125
7.116,370,3147,2231,3147,-2.15087890625,1.0687255859375,-1.125
7.122,364,3147,2091,3147,-2.4918212890625,-0.30712890625,-0.4439697265625
7.131,363,3147,2131,3147,-1.5372314453125,-0.594970703125,0.2490234375
7.138,364,3147,2160,3147,-1.5372314453125,-0.594970703125,0.2490234375
7.152,361,3147,2128,3147,-0.78662109375,1.240478515625,-0.4208984375
7.172,361,3147,2078,3147,-1.340087890625,1.655517578125,-1.025634765625
7.172,361,3147,1996,3147,-1.340087890625,1.655517578125,-1.025634765625
7.184,357,3147,1786,3147,-1.4495849609375,0.38623046875,-0.444580078125
7.193,354,3147,1636,3147,-1.208251953125,0.089111328125,-0.18896484375
7.205,349,3147,1550,3147,-1.208251953125,0.089111328125,-0.18896484375
7.219,337,3147,1323,3147,-0.73681640625,0.4617919921875,-0.27734375
7.220,332,3147,1306,3107,-0.6221923828125,0.459228515625,-0.2236328125
7.232,328,3147,1241,2728,-0.6221923828125,0.459228515625,-0.2236328125
7.242,323,3147,1173,2005,-0.6951904296875,0.1854248046875,-0.1435546875
7.250,321,3147,1167,1424,-0.766845703125,0.130126953125,-0.1092529296875
7.265,318,3147,1137,932,-0.766845703125,0.130126953125,-0.1092529296875
7.273,318,3032,1078,359,-0.7620849609375,0.0655517578125,-0.10546875
7.289,316,2647,1018,360,-0.7620849609375,0.0655517578125,-0.10546875
7.290,315,2268,991,347,-0.7655029296875,0.075927734375,-0.1226806640625
7.306,313,1555,910,334,-0.74755859375,0.184326171875,-0.1671142578125
7.310,313,1323,913,343,-0.74755859375,0.184326171875,-0.1671142578125
7.318,315,1184,884,334,-0.7220458984375,0.242431640625,-0.23828125
7.333,313,1014,846,334,-0.6314697265625,0.3978271484375,-0.2813720703125
7.342,314,951,859,337,-0.6314697265625,0.3978271484375,-0.2813720703125
7.349,310,1050,860,334,-0.6004638671875,0.4212646484375,-0.2535400390625
7.414,313,1231,864,336,-0.5677490234375,0.348388671875,-0.196533203125
7.414,313,1383,895,338,-0.5677490234375,0.348388671875,-0.196533203125
7.414,313,1523,912,344,-0.559814453125,0.3526611328125,-0.2113037109375
7.414,315,1900,966,348,-0.6285400390625,0.4122314453125,-0.2376708984375
7.414,315,2158,976,351,-0.6285400390625,0.4122314453125,-0.2376708984375
7.415,315,2348,975,348,-0.6748046875,0.3564453125,-0.2333984375
7.425,314,3081,986,361,-0.726806640625,0.1937255859375,-0.2142333984375
7.435,313,3147,998,620,-0.726806640625,0.1937255859375,-0.2142333984375
7.438,316,3147,1005,1188,-0.6900634765625,0.1463623046875,-0.1646728515625
7.452,316,3147,1043,2047,-0.5255126953125,0.298828125,-0.04296875
7.513,316,3147,1026,2490,-0.5255126953125,0.298828125,-0.04296875
7.515,321,3147,1071,2919,-0.450927734375,0.4493408203125,0.06201171875
7.515,332,3147,1319,3147,-0.127685546875,0.286376953125,0.261474609375
7.515,336,3147,1481,3147,-0.127685546875,0.286376953125,0.261474609375
7.516,327,3147,1533,3147,-0.2196044921875,0.3392333984375,0.2445068359375
7.516,348,3147,1564,3147,-0.4625244140625,0.41845703125,0.025390625
7.520,353,3147,1669,3147,-0.8668212890625,0.4971923828125,-0.406982421875
7.528,356,3147,1750,3147,-1.3602294921875,0.6656494140625,-0.8748779296875
7.542,359,3147,1920,3147,-1.74658203125,0.9600830078125,-1.2005615234375
7.550,360,3147,1761,3147,-1.94677734375,1.086181640625,-1.2864990234375
7.559,359,3147,1794,3147,-2.1893310546875,0.8125,-1.1195068359375
7.573,357,3147,1840,3147,-2.26904296875,0.1600341796875,-0.6380615234375
7.580,356,3147,1852,3147,-1.77392578125,-0.2010498046875,-0.0548095703125
7.588,356,3147,1798,3147,-1.303466796875,0.31982421875,0.0301513671875
7.621,352,3147,1718,3147,-1.32666015625,1.0140380859375,-0.416748046875
7.622,348,3147,1611,3147,-1.45263671875,1.1751708984375,-0.6998291015625
7.622,346,3147,1506,3147,-1.41845703125,0.80859375,-0.5743408203125
7.632,331,3147,1330,3147,-1.2635498046875,0.4052734375,-0.3475341796875
7.647,330,3147,1267,3147,-1.0166015625,0.3040771484375,-0.2225341796875
7.648,324,3147,1209,3147,-0.73779296875,0.322021484375,-0.1502685546875
7.662,323,3147,1129,2610,-0.513671875,0.256591796875,-0.0775146484375
7.678,316,3147,1115,2050,-0.4315185546875,0.1322021484375,-0.0615234375
7.678,318,3147,1097,1526,-0.4935302734375,0.08203125,-0.05126953125
7.693,318,3147,1034,514,-0.5791015625,0.1243896484375,-0.024658203125
7.711,318,3099,986,371,-0.6412353515625,0.1763916015625,-0.0880126953125
7.713,301,2793,959,347,-0.6971435546875,0.2144775390625,-0.2081298828125
7.722,313,2122,957,356,-0.7347412109375,0.239013671875,-0.272705078125
7.734,313,1899,944,359,-0.7567138671875,0.2442626953125,-0.2698974609375
7.739,310,1635,922,348,-0.7532958984375,0.2474365234375,-0.2369384765625
7.752,315,1422,918,347,-0.7218017578125,0.2662353515625,-0.2115478515625
7.761,313,1377,920,338,-0.6954345703125,0.30517578125,-0.208984375
7.768,313,1355,918,342,-0.6793212890625,0.3411865234375,-0.2244873046875
7.783,313,1390,937,344,-0.6600341796875,0.343505859375,-0.234619140625
7.820,314,1580,922,347,-0.6990966796875,0.304931640625,-0.2125244140625
7.821,313,1894,920,328,-0.6949462890625,0.3037109375,-0.1859130859375
7.821,296,1949,951,351,-0.694580078125,0.3011474609375,-0.17236328125
7.830,310,2087,974,349,-0.7293701171875,0.29150390625,-0.1842041015625
7.942,315,2370,991,356,-0.7818603515625,0.2720947265625,-0.2188720703125
7.944,315,2568,1012,353,-0.830322265625,0.247802734375,-0.2547607421875
7.945,316,2912,1025,361,-0.85791015625,0.2139892578125,-0.259033203125
7.945,316,3147,991,531,-0.8524169921875,0.170654296875,-0.23974609375
7.945,316,3147,987,837,-0.8079833984375,0.138671875,-0.2039794921875
7.945,316,3147,1018,1222,-0.718994140625,0.158447265625,-0.16064453125
7.945,321,3147,1082,1931,-0.6461181640625,0.2669677734375,-0.1337890625
7.945,311,3147,1089,2254,-0.6005859375,0.372802734375,-0.0985107421875
7.945,329,3147,1282,2565,-0.5037841796875,0.390380859375,-0.0146484375
7.945,337,3147,1445,3135,-0.3280029296875,0.3555908203125,0.1251220703125
7.945,344,3147,1533,3147,-0.103515625,0.310546875,0.2578125
7.949,347,3147,1748,3147,0.0316162109375,0.3863525390625,0.297607421875
8.013,356,3147,1920,3147,-0.119873046875,0.6221923828125,0.0650634765625
8.016,359,3147,1961,3147,-0.552490234375,0.820068359375,-0.420166015625
8.016,361,3147,2093,3147,-1.0701904296875,0.9205322265625,-0.8934326171875
8.016,363,3147,2242,3147,-1.5107421875,1.0341796875,-1.2030029296875
8.016,364,3147,2356,3147,-1.7666015625,1.0946044921875,-1.2186279296875
8.016,371,3147,2432,3147,-1.92822265625,0.9825439453125,-0.891845703125
8.022,371,3147,2375,3147,-2.18505859375,0.627197265625,-0.4368896484375
8.031,371,3147,2368,3147,-2.12060546875,-0.078369140625,-0.0684814453125
8.045,371,3147,2424,3147,-1.464599609375,-0.4119873046875,0.1697998046875
8.056,363,3147,2372,3147,-1.04345703125,0.2208251953125,-0.03564453125
8.060,364,3147,2271,3147,-1.287353515625,1.078125,-0.6409912109375
8.088,364,3147,2141,3147,-1.5926513671875,1.29541015625,-0.9329833984375
8.088,360,3147,1900,3147,-1.6103515625,0.789306640625,-0.6610107421875
8.091,356,3147,1794,3147,-1.4486083984375,0.185791015625,-0.2310791015625
8.115,347,3147,1636,3147,-1.1678466796875,0.0670166015625,-0.024169921875
8.115,344,3147,1377,3147,-0.845703125,0.34765625,-0.0584716796875
8.123,333,3147,1271,3028,-0.588623046875,0.55322265625,-0.123779296875
8.128,328,3147,1214,2621,-0.4549560546875,0.4820556640625,-0.1259765625
8.143,321,3147,1138,1770,-0.466552734375,0.2869873046875,-0.1025390625
8.150,321,3147,1125,1145,-0.5601806640625,0.15625,-0.0478515625
8.158,321,3147,1105,548,-0.647216796875,0.1015625,-0.0367431640625
8.195,318,2807,1078,356,-0.71728515625,0.07666015625,-0.1043701171875
8.195,315,2195,1039,351,-0.76806640625,0.0872802734375,-0.1658935546875
8.196,313,1973,1004,346,-0.76806640625,0.0872802734375,-0.1658935546875
8.215,313,1616,978,338,-0.778076171875,0.1143798828125,-0.1951904296875
8.216,315,1343,957,338,-0.74609375,0.135986328125,-0.21533203125
8.218,315,1125,923,344,-0.74609375,0.135986328125,-0.21533203125
8.233,310,1122,902,336,-0.656982421875,0.26953125,-0.2340087890625
8.241,314,1085,905,336,-0.613037109375,0.3131103515625,-0.1934814453125
8.248,310,1122,909,338,-0.613037109375,0.3131103515625,-0.1934814453125
8.262,310,1340,909,338,-0.6126708984375,0.3016357421875,-0.1734619140625
8.270,314,1492,929,347,-0.624755859375,0.31982421875,-0.18603515625
8.320,313,1748,944,347,-0.624755859375,0.31982421875,-0.18603515625
8.321,298,2111,959,354,-0.6724853515625,0.3330078125,-0.20166015625
8.321,313,2268,992,354,-0.7213134765625,0.3057861328125,-0.2110595703125
8.321,313,2430,1014,354,-0.7213134765625,0.3057861328125,-0.2110595703125
8.322,315,3003,1047,364,-0.823974609375,0.210693359375,-0.230712890625
8.331,316,3147,1026,464,-0.8414306640625,0.11083984375,-0.206787109375
8.338,308,3147,1014,936,-0.8414306640625,0.11083984375,-0.206787109375
8.352,315,3147,1067,1730,-0.6806640625,0.08203125,-0.0733642578125
8.360,319,3147,1112,2054,-0.54541015625,0.2283935546875,-0.0902099609375
8.368,323,3147,1198,2419,-0.54541015625,0.2283935546875,-0.0902099609375
8.383,336,3147,1474,3039,-0.078857421875,0.1949462890625,-0.1180419921875
8.399,345,3147,1600,3147,0.0704345703125,0.2469482421875,-0.0499267578125
8.400,347,3147,1715,3147,0.0704345703125,0.2469482421875,-0.0499267578125
8.412,354,3147,1983,3147,-0.4759521484375,0.998291015625,-0.4534912109375
8.434,360,3147,2190,3147,-0.4759521484375,0.998291015625,-0.4534912109375
8.434,365,3147,2334,3147,-0.991455078125,1.3077392578125,-0.9290771484375
8.442,371,3147,2412,3147,-2.123779296875,1.3775634765625,-0.98876953125
8.450,371,3147,2333,3147,-2.123779296875,1.3775634765625,-0.98876953125
8.459,371,3147,2296,3147,-2.6396484375,0.741943359375,-0.5880126953125
8.473,361,3147,2106,3147,-1.8072509765625,-0.905029296875,0.4638671875
8.480,359,3147,2058,3147,-1.8072509765625,-0.905029296875,0.4638671875
8.504,361,3147,2068,3147,-0.7864990234375,-0.4356689453125,0.5863037109375
8.504,371,3147,2012,3147,-1.0660400390625,1.313720703125,-0.7366943359375
8.511,359,3147,1914,3147,-1.0660400390625,1.313720703125,-0.7366943359375
8.529,355,3147,1739,3147,-1.6759033203125,1.1551513671875,-1.041259765625
8.533,347,3147,1577,3147,-1.6661376953125,0.0421142578125,-0.37060546875
8.540,342,3147,1393,2707,-1.6661376953125,0.0421142578125,-0.37060546875
8.548,334,3147,1236,2419,-1.2421875,0.1190185546875,-0.109619140625
8.562,327,3147,1101,1769,-0.494384765625,0.373046875,0.11767578125
8.570,323,3147,1097,1323,-0.494384765625,0.373046875,0.11767578125
8.578,321,3147,1079,894,-0.3668212890625,0.32763671875,0.083740234375
8.606,318,3147,1067,364,-0.475341796875,0.355712890625,-0.1236572265625
8.607,302,2663,1024,361,-0.475341796875,0.355712890625,-0.1236572265625
8.626,317,2124,1003,356,-0.5833740234375,0.39306640625,-0.2584228515625
8.626,316,1575,989,346,-0.6727294921875,0.3974609375,-0.3455810546875
8.636,315,1292,978,344,-0.703125,0.3350830078125,-0.3577880859375
8.638,315,1111,951,346,-0.728759765625,0.26220703125,-0.30224609375
8.652,313,936,944,338,-0.76171875,0.226806640625,-0.2393798828125
8.661,313,765,922,334,-0.743896484375,0.2479248046875,-0.2086181640625
8.668,310,689,897,330,-0.7052001953125,0.2987060546875,-0.203857421875
8.682,309,617,897,330,-0.6966552734375,0.3189697265625,-0.1956787109375
8.690,312,720,905,330,-0.682861328125,0.2872314453125,-0.1719970703125
8.699,310,721,934,334,-0.654052734375,0.234619140625,-0.144287109375
8.715,312,1012,968,330,-0.634521484375,0.186767578125,-0.12158203125
8.720,310,1214,984,346,-0.621826171875,0.16064453125,-0.11376953125
8.729,313,1523,1005,336,-0.626953125,0.1856689453125,-0.133056640625
8.746,308,2047,1018,347,-0.6639404296875,0.2440185546875,-0.1767578125
8.750,313,2306,1029,360,-0.7259521484375,0.2899169921875,-0.23193359375
8.758,314,2684,1039,360,-0.8004150390625,0.3223876953125,-0.2874755859375
8.772,316,3147,1066,363,-0.8662109375,0.3480224609375,-0.327880859375
8.780,311,3147,1056,579,-0.898681640625,0.332763671875,-0.3359375
8.789,315,3147,1056,922,-0.896240234375,0.2607421875,-0.2998046875
8.802,316,3147,1014,1624,-0.8741455078125,0.173583984375,-0.2171630859375
8.833,316,3147,1018,1987,-0.8037109375,0.102294921875,-0.1182861328125
8.833,318,3147,1097,2303,-0.6630859375,0.0712890625,-0.0526123046875
8.833,324,3147,1340,2899,-0.47021484375,0.112548828125,0.0003662109375
8.840,332,3147,1398,3147,-0.2681884765625,0.1866455078125,0.045166015625
8.848,336,3147,1464,3147,-0.1087646484375,0.2330322265625,0.0460205078125
8.862,345,3147,1596,3147,-0.0626220703125,0.34130859375,-0.0147705078125
8.870,349,3147,1653,3147,-0.2960205078125,0.6502685546875,-0.21875
8.878,359,3147,1781,3147,-0.763916015625,1.0452880859375,-0.6058349609375
8.893,360,3147,2068,3147,-1.191650390625,1.315673828125,-0.9593505859375
8.907,365,3147,2280,3147,-1.4847412109375,1.38037109375,-1.0274658203125
8.909,360,3147,2449,3147,-1.7528076171875,1.233642578125,-0.812744140625
8.942,361,3147,2260,3147,-2.0811767578125,0.857421875,-0.4931640625
8.943,364,3147,2167,3147,-2.22705078125,0.1395263671875,-0.244140625
8.943,360,3147,2100,3147,-1.7801513671875,-0.5145263671875,0.0274658203125
8.952,360,3147,2195,3147,-1.025634765625,-0.3763427734375,0.2191162109375
8.961,361,3147,2203,3147,-0.783203125,0.4285888671875,-0.0557861328125
8.972,361,3147,2178,3147,-1.193359375,1.1629638671875,-0.6026611328125
8.982,359,3147,2018,3147,-1.6190185546875,1.2127685546875,-0.8536376953125
8.990,356,3147,1952,3147,-1.6527099609375,0.669189453125,-0.6314697265625
8.998,354,3147,1890,3147,-1.4150390625,0.197998046875,-0.253173828125
9.012,345,3147,1743,3147,-1.1065673828125,0.16943359375,-0.08251953125
9.040,338,3147,1568,3088,-0.8441162109375,0.427001953125,-0.11572265625
9.040,317,3147,1377,2775,-0.650390625,0.6004638671875,-0.13916015625
9.045,324,3147,1243,2111,-0.525146484375,0.5477294921875,-0.0863037109375
9.050,322,3147,1217,1748,-0.508544921875,0.3690185546875,-0.0189208984375
9.058,318,3147,1199,1222,-0.613525390625,0.2252197265625,0.0206298828125
9.072,316,3147,1155,439,-0.751708984375,0.1826171875,-0.0267333984375
9.084,316,3000,1122,363,-0.833740234375,0.176513671875,-0.153076171875
9.088,316,2477,1079,356,-0.854248046875,0.16943359375,-0.2366943359375
9.111,315,1772,1018,346,-0.8402099609375,0.14794921875,-0.2344970703125
9.111,314,1318,975,338,-0.8232421875,0.119140625,-0.2054443359375
9.119,313,1126,968,342,-0.7989501953125,0.126953125,-0.202392578125
9.143,310,801,939,333,-0.746826171875,0.1883544921875,-0.2384033203125
9.143,310,746,849,324,-0.6778564453125,0.268798828125,-0.2763671875
9.148,310,705,871,328,-0.621337890625,0.3140869140625,-0.2806396484375
9.163,306,725,861,328,-0.587158203125,0.31298828125,-0.255859375
9.170,308,749,865,328,-0.5601806640625,0.287353515625,-0.22021484375
9.179,310,785,883,330,-0.543701171875,0.2672119140625,-0.182861328125
9.197,310,1074,913,334,-0.5462646484375,0.2684326171875,-0.1531982421875
9.200,311,1289,938,332,-0.57373046875,0.282958984375,-0.1358642578125
9.211,310,1652,957,336,-0.6221923828125,0.3050537109375,-0.132568359375
9.222,310,2316,1004,347,-0.6666259765625,0.309326171875,-0.15234375
9.249,313,2756,1026,354,-0.6878662109375,0.27685546875,-0.178955078125
9.250,313,3147,1053,338,-0.717041015625,0.260986328125,-0.206787109375
9.253,316,3147,1071,1074,-0.7763671875,0.276123046875,-0.2315673828125
9.260,315,3147,1103,1454,-0.8052978515625,0.2677001953125,-0.22705078125
9.268,316,3147,1131,1894,-0.7796630859375,0.2386474609375,-0.180419921875
9.282,316,3147,1198,2461,-0.670166015625,0.151123046875,-0.08544921875
9.291,328,3147,1382,2881,-0.4505615234375,0.02001953125,-0.0152587890625
9.298,334,3147,1543,3147,-0.4505615234375,0.02001953125,-0.0152587890625
9.319,338,3147,1703,3147,-0.189208984375,0.4571533203125,-0.0992431640625
9.320,346,3147,1945,3147,-0.26806640625,0.8226318359375,-0.1748046875
9.353,355,3147,2087,3147,-0.26806640625,0.8226318359375,-0.1748046875
9.354,363,3147,2415,3147,-0.99267578125,0.9212646484375,-0.4713134765625
9.354,351,3147,2507,3147,-1.481201171875,0.888916015625,-0.5635986328125
9.359,371,3147,2573,3147,-1.481201171875,0.888916015625,-0.5635986328125
9.372,369,3147,2472,3147,-2.480712890625,0.37841796875,-0.6802978515625
9.380,371,3147,2337,3147,-2.4818115234375,-0.1097412109375,-0.4654541015625
9.388,363,3147,2230,3147,-2.4818115234375,-0.1097412109375,-0.4654541015625
9.402,361,3147,2202,3147,-0.7099609375,0.286376953125,0.0269775390625
9.425,361,3147,2233,3147,-0.5675048828125,1.0712890625,-0.4483642578125
9.426,364,3147,2207,3147,-0.5675048828125,1.0712890625,-0.4483642578125
9.445,359,3147,2030,3147,-1.5709228515625,1.1888427734375,-0.876220703125
9.445,357,3147,1959,3147,-1.60009765625,0.5494384765625,-0.53759765625
9.449,354,3147,1877,3147,-1.60009765625,0.5494384765625,-0.53759765625
9.462,346,3147,1636,3147,-1.06103515625,0.201904296875,-0.1697998046875
9.471,338,3147,1447,3147,-0.7943115234375,0.359619140625,-0.1920166015625
9.478,333,3147,1343,3136,-0.7943115234375,0.359619140625,-0.1920166015625
9.492,324,3147,1289,2504,-0.509765625,0.3673095703125,-0.1326904296875
9.501,323,3147,1255,2143,-0.5533447265625,0.2606201171875,-0.0830078125
9.508,321,3147,1189,1709,-0.5533447265625,0.2606201171875,-0.0830078125
9.522,317,3147,1134,1064,-0.746826171875,0.22021484375,-0.0931396484375
9.546,316,3147,1137,785,-0.746826171875,0.22021484375,-0.0931396484375
9.549,315,3147,1112,441,-0.780029296875,0.210205078125,-0.184814453125
9.553,315,2709,1071,363,-0.810791015625,0.20751953125,-0.1773681640625
9.565,316,2593,1056,353,-0.810791015625,0.20751953125,-0.1773681640625
9.569,315,2195,998,354,-0.82373046875,0.21142578125,-0.1671142578125
9.582,314,1629,939,338,-0.8160400390625,0.3314208984375,-0.2529296875
9.590,313,1383,907,338,-0.8160400390625,0.3314208984375,-0.2529296875
9.599,315,1196,910,338,-0.7833251953125,0.3818359375,-0.2841796875
9.613,312,951,906,333,-0.723388671875,0.4227294921875,-0.238525390625
9.621,313,871,894,334,-0.723388671875,0.4227294921875,-0.238525390625
9.628,310,865,923,334,-0.693359375,0.3681640625,-0.208740234375
9.645,310,910,920,333,-0.6634521484375,0.26708984375,-0.190185546875
9.670,310,1065,925,334,-0.6634521484375,0.26708984375,-0.190185546875
9.670,313,1248,936,332,-0.6495361328125,0.2369384765625,-0.1865234375
9.672,313,1499,976,342,-0.635498046875,0.1898193359375,-0.1805419921875
9.681,313,1809,992,348,-0.635498046875,0.1898193359375,-0.1805419921875
9.688,314,2268,1022,351,-0.6160888671875,0.1593017578125,-0.1654052734375
9.702,315,3147,1032,363,-0.58642578125,0.1263427734375,-0.1407470703125
9.710,315,3147,1043,963,-0.58642578125,0.1263427734375,-0.1407470703125
9.724,316,3147,1054,1531,-0.59521484375,0.20166015625,-0.163330078125
9.732,319,3147,1160,2392,-0.4739990234375,0.2515869140625,-0.059326171875
9.753,327,3147,1306,2801,-0.4739990234375,0.2515869140625,-0.059326171875
9.762,334,3147,1497,3147,-0.230712890625,0.1446533203125,0.0330810546875
9.762,345,3147,1650,3147,-0.033935546875,0.2130126953125,0.031005859375
9.777,349,3147,1786,3147,-0.0054931640625,0.52001953125,-0.0010986328125
9.779,356,3147,2009,3147,-0.2601318359375,0.819580078125,-0.12646484375
9.792,364,3147,2354,3147,-0.806640625,0.9666748046875,-0.4058837890625
9.800,364,3147,2498,3147,-1.423583984375,1.0513916015625,-0.7017822265625
9.809,373,3147,2633,3147,-1.95849609375,1.0711669921875,-0.8441162109375
9.827,371,3147,2287,3147,-2.4530029296875,0.7529296875,-0.788818359375
9.831,369,3147,2190,3147,-2.7864990234375,-0.05322265625,-0.488525390625
9.854,364,3147,2127,3147,-2.398193359375,-0.863037109375,0.08056640625
9.854,361,3147,2155,3147,-1.3514404296875,-0.6483154296875,0.5372314453125
9.861,364,3147,2153,3147,-0.648681640625,0.5400390625,0.236328125
9.873,371,3147,2141,3147,-0.8546142578125,1.6068115234375,-0.5953369140625
9.882,360,3147,1982,3147,-1.4595947265625,1.718017578125,-1.067138671875
9.891,359,3147,1904,3147,-1.72314453125,0.9429931640625,-0.8480224609375
9.899,356,3147,1774,3147,-1.54345703125,0.2200927734375,-0.36572265625
9.912,345,3147,1518,3147,-1.2181396484375,0.0419921875,-0.1412353515625
9.927,336,3147,1382,3147,-0.9364013671875,0.2130126953125,-0.161865234375
9.928,330,3147,1316,2891,-0.71826171875,0.359375,-0.155517578125
9.952,323,3147,1245,2035,-0.5906982421875,0.311279296875,-0.1060791015625
9.954,321,3147,1209,1422,-0.5804443359375,0.206298828125,-0.0859375
9.969,318,3147,1143,819,-0.6298828125,0.1806640625,-0.057861328125
9.973,316,3031,1107,363,-0.68798828125,0.1915283203125,-0.04541015625
9.986,316,2612,1078,359,-0.7510986328125,0.1328125,-0.0826416015625
9.997,315,2190,1014,347,-0.7928466796875,0.0333251953125,-0.121826171875
10.004,313,1730,963,347,-0.7901611328125,0.0147705078125,-0.1336669921875
10.012,314,1467,943,346,-0.745361328125,0.0810546875,-0.150634765625
10.021,310,1278,912,346,-0.6920166015625,0.1820068359375,-0.1754150390625
10.034,313,1064,883,336,-0.6416015625,0.2779541015625,-0.1888427734375
10.042,313,1091,849,332,-0.59228515625,0.3446044921875,-0.188232421875
10.051,313,1183,864,336,-0.5592041015625,0.4017333984375,-0.1849365234375
10.065,313,1411,891,336,-0.562744140625,0.4613037109375,-0.1983642578125
10.072,311,1487,922,337,-0.608154296875,0.495361328125,-0.226806640625
10.079,313,1592,949,344,-0.651123046875,0.4730224609375,-0.257080078125
10.146,314,1920,959,344,-0.6827392578125,0.4095458984375,-0.282470703125
10.146,313,2123,975,347,-0.7266845703125,0.3358154296875,-0.2891845703125
10.146,314,2280,989,348,-0.7679443359375,0.2559814453125,-0.2677001953125
10.147,315,2608,1029,354,-0.8077392578125,0.17236328125,-0.2335205078125
10.147,313,2925,1042,361,-0.8582763671875,0.111572265625,-0.212890625
10.147,315,3147,1043,363,-0.915283203125,0.101806640625,-0.19287109375
10.171,315,3147,1055,674,-0.95703125,0.1240234375,-0.1591796875
10.172,316,3147,1081,975,-0.9498291015625,0.1610107421875,-0.10498046875
10.172,316,3147,1079,1343,-0.85791015625,0.2021484375,-0.0399169921875
10.184,319,3147,1108,1948,-0.7027587890625,0.2171630859375,-0.0291748046875
10.192,324,3147,1155,2319,-0.54736328125,0.2205810546875,-0.0592041015625
10.213,329,3147,1355,2636,-0.4051513671875,0.236572265625,-0.0809326171875
10.213,323,3147,1534,3134,-0.2747802734375,0.2344970703125,-0.0787353515625
10.221,344,3147,1686,3147,-0.1658935546875,0.2152099609375,-0.0430908203125
10.236,348,3147,1798,3147,-0.1710205078125,0.32666015625,-0.061767578125
10.252,351,3147,2003,3147,-0.4171142578125,0.6688232421875,-0.2928466796875
10.253,355,3147,2066,3147,-0.8297119140625,1.0660400390625,-0.7066650390625
10.266,356,3147,2178,3147,-1.2276611328125,1.3216552734375,-1.066162109375
10.274,359,3147,2437,3147,-1.534423828125,1.3326416015625,-1.2149658203125
10.282,371,3147,2437,3147,-1.84716796875,1.1290283203125,-1.071533203125
10.289,364,3147,2386,3147,-2.23681640625,0.6868896484375,-0.660888671875
10.312,359,3147,2190,3147,-2.251953125,-0.2276611328125,-0.12353515625
10.312,360,3147,2133,3147,-1.600830078125,-0.9217529296875,0.4241943359375
10.324,357,3147,2165,3147,-0.988037109375,-0.5328369140625,0.5316162109375
10.339,356,3147,2168,3147,-1.04248046875,0.47314453125,0.009765625
10.342,356,3147,2153,3147,-1.4638671875,1.0445556640625,-0.543212890625
10.361,352,3147,2054,3147,-1.6807861328125,0.777099609375,-0.65673828125
10.372,349,3147,1801,3147,-1.5660400390625,0.337646484375,-0.4522705078125
10.373,328,3147,1607,3147,-1.3028564453125,0.288818359375,-0.2718505859375
10.380,334,3147,1437,3084,-1.016357421875,0.4462890625,-0.1937255859375
10.394,328,3147,1250,2333,-0.7578125,0.5123291015625,-0.145263671875
10.402,324,3147,1219,1713,-0.5938720703125,0.448974609375,-0.1368408203125
10.416,323,3147,1178,1163,-0.587890625,0.339599609375,-0.1351318359375
10.423,318,3093,1122,360,-0.697021484375,0.2479248046875,-0.08984375
10.447,316,2430,1107,352,-0.78662109375,0.1351318359375,-0.0804443359375
10.447,300,1881,1067,336,-0.7923583984375,-0.0072021484375,-0.1239013671875
10.470,315,1071,978,334,-0.7572021484375,-0.060791015625,-0.1353759765625
10.471,314,829,933,330,-0.7156982421875,-0.0111083984375,-0.1322021484375
10.471,313,705,893,327,-0.6849365234375,0.105712890625,-0.163330078125
10.484,312,570,846,331,-0.66064453125,0.2318115234375,-0.2060546875
10.491,310,653,830,330,-0.6424560546875,0.2987060546875,-0.229736328125
10.499,310,571,808,328,-0.6209716796875,0.3349609375,-0.2327880859375
10.513,310,572,799,328,-0.60595703125,0.36328125,-0.2208251953125
10.521,310,584,797,327,-0.6004638671875,0.377685546875,-0.20458984375
10.529,310,563,827,332,-0.5826416015625,0.3739013671875,-0.1939697265625
10.549,310,597,855,327,-0.5687255859375,0.3375244140625,-0.19775390625
10.551,310,588,894,328,-0.572265625,0.276611328125,-0.205322265625
10.560,310,705,938,328,-0.572265625,0.276611328125,-0.205322265625
10.573,313,1042,968,331,-0.6446533203125,0.152587890625,-0.168701171875
10.582,313,1345,1005,336,-0.6915283203125,0.0992431640625,-0.1385498046875
10.590,314,1676,1026,342,-0.6915283203125,0.0992431640625,-0.1385498046875
10.603,316,2530,1063,344,-0.727783203125,0.074462890625,-0.0849609375
10.611,316,3147,1067,359,-0.7315673828125,0.1593017578125,-0.0994873046875
10.619,316,3147,1083,943,-0.7315673828125,0.1593017578125,-0.0994873046875
10.634,321,3147,1163,1874,-0.63134765625,0.3563232421875,-0.1187744140625
10.647,327,3147,1276,2317,-0.486083984375,0.3868408203125,-0.113525390625
10.650,334,3147,1474,2636,-0.486083984375,0.3868408203125,-0.113525390625
10.675,346,3147,1809,3147,-0.26953125,0.4207763671875,-0.2510986328125
10.675,332,3147,1960,3147,-0.3636474609375,0.6053466796875,-0.3450927734375
10.680,356,3147,2155,3147,-0.3636474609375,0.6053466796875,-0.3450927734375
10.694,364,3147,2396,3147,-0.9993896484375,0.85400390625,-0.6109619140625
10.702,364,3147,2498,3147,-1.431640625,0.828857421875,-0.634765625
10.710,369,3147,2584,3147,-1.431640625,0.828857421875,-0.634765625
10.723,372,3147,2691,3147,-2.1722412109375,0.293212890625,-0.360107421875
10.736,371,3147,2638,3147,-2.2525634765625,0.1490478515625,-0.2860107421875
10.740,371,3147,2585,3147,-2.2525634765625,0.1490478515625,-0.2860107421875
10.753,364,3147,2465,3147,-1.1236572265625,0.4312744140625,-0.04931640625
10.771,370,3147,2330,3147,-0.613525390625,0.66552734375,-0.052734375
10.772,361,3147,2296,3147,-0.613525390625,0.66552734375,-0.052734375
10.786,364,3147,2268,3147,-1.137451171875,0.7547607421875,-0.59814453125
10.791,363,3147,2178,3147,-1.137451171875,0.7547607421875,-0.59814453125
10.800,360,3147,2053,3147,-1.5908203125,0.68896484375,-0.763427734375
10.814,354,3147,1850,3147,-1.568359375,0.375244140625,-0.5712890625
10.822,351,3147,1665,3147,-1.568359375,0.375244140625,-0.5712890625
10.830,338,3147,1476,2991,-1.2532958984375,0.2996826171875,-0.3291015625
10.851,329,3147,1278,2293,-0.6807861328125,0.3048095703125,-0.01904296875
10.852,328,3147,1262,1810,-0.6807861328125,0.3048095703125,-0.01904296875
10.860,328,3147,1220,1382,-0.5604248046875,0.3231201171875,0.013916015625
10.887,318,3147,1167,508,-0.684814453125,0.2325439453125,0.04736328125
10.887,316,2957,1115,359,-0.684814453125,0.2325439453125,0.04736328125
10.891,317,2417,1095,348,-0.7642822265625,0.1402587890625,-0.03564453125
10.904,310,1662,1025,334,-0.7650146484375,0.1234130859375,-0.1856689453125
10.912,315,1387,972,336,-0.7650146484375,0.1234130859375,-0.1856689453125
10.919,313,1129,906,343,-0.7318115234375,0.2117919921875,-0.2247314453125
10.933,313,899,885,330,-0.6414794921875,0.32958984375,-0.3387451171875
10.962,310,802,813,334,-0.6414794921875,0.32958984375,-0.3387451171875
10.975,308,725,803,329,-0.5972900390625,0.35107421875,-0.359619140625
10.979,300,721,820,328,-0.564453125,0.379638671875,-0.33984375
10.979,310,695,813,332,-0.564453125,0.379638671875,-0.33984375
10.980,310,723,889,330,-0.5802001953125,0.3507080078125,-0.302001953125
10.999,309,955,920,332,-0.614013671875,0.300048828125,-0.24853515625
11.002,310,1108,947,337,-0.6422119140625,0.2528076171875,-0.19921875
11.009,312,1312,992,336,-0.67431640625,0.2166748046875,-0.161865234375
11.023,313,1588,1029,338,-0.700927734375,0.173583984375,-0.1357421875
11.031,313,2026,1042,345,-0.7100830078125,0.117919921875,-0.127197265625
11.039,314,2323,1067,346,-0.728271484375,0.098876953125,-0.135498046875
11.060,315,3147,1097,359,-0.775634765625,0.154052734375,-0.159423828125
11.061,316,3147,1078,682,-0.827880859375,0.2447509765625,-0.2137451171875
11.085,316,3147,1101,1066,-0.8367919921875,0.306396484375,-0.26025390625
11.085,300,3147,1148,1912,-0.765625,0.31396484375,-0.2381591796875
11.093,323,3147,1185,2271,-0.6629638671875,0.32275390625,-0.126708984375
11.100,331,3147,1334,2576,-0.5289306640625,0.32275390625,0.0146484375
11.113,342,3147,1582,3098,-0.37451171875,0.304931640625,0.076904296875
11.121,345,3147,1761,3147,-0.3092041015625,0.3890380859375,0.0599365234375
11.129,347,3147,1920,3147,-0.3311767578125,0.5299072265625,-0.0347900390625
11.144,351,3147,2106,3147,-0.4876708984375,0.6134033203125,-0.2510986328125
11.166,360,3147,2268,3147,-0.8333740234375,0.6563720703125,-0.5958251953125
11.166,345,3147,2347,3147,-1.2886962890625,0.7169189453125,-0.931640625
11.185,365,3147,2534,3147,-1.8131103515625,0.7288818359375,-1.029052734375
11.186,352,3147,2559,3147,-2.2833251953125,0.4683837890625,-0.8988037109375
11.190,369,3147,2565,3147,-2.3934326171875,0.0120849609375,-0.5335693359375
11.204,364,3147,2419,3147,-1.8480224609375,-0.243896484375,0.052490234375
11.212,361,3147,2271,3147,-0.961181640625,0.0712890625,0.3973388671875
11.225,356,3147,2233,3147,-0.5113525390625,0.699462890625,0.1348876953125
11.233,357,3147,2225,3147,-0.67138671875,1.0069580078125,-0.3387451171875
11.242,359,3147,2153,3147,-1.1171875,0.931640625,-0.545166015625
11.250,354,3147,2065,3147,-1.512451171875,0.673095703125,-0.5841064453125
11.293,348,3147,1952,3147,-1.6131591796875,0.4173583984375,-0.5908203125
11.293,346,3147,1806,3147,-1.468017578125,0.2913818359375,-0.53369140625
11.294,326,3147,1682,3147,-1.227783203125,0.2406005859375,-0.423583984375
11.294,334,3147,1416,3057,-0.9935302734375,0.242431640625,-0.2784423828125
11.302,332,3147,1330,2643,-0.832763671875,0.310546875,-0.153564453125
11.310,328,3147,1312,2168,-0.765380859375,0.385498046875,-0.1256103515625
11.324,323,3147,1243,1499,-0.77001953125,0.40185546875,-0.1180419921875
11.337,321,3147,1225,899,-0.80859375,0.283935546875,-0.01318359375
11.340,318,3147,1172,371,-0.865478515625,0.0743408203125,0.064208984375
11.354,318,2471,1104,348,-0.880859375,-0.058837890625,-0.003662109375
11.362,316,2047,1039,338,-0.8172607421875,-0.0552978515625,-0.1038818359375
11.388,316,1629,990,344,-0.72607421875,0.03955078125,-0.149658203125
11.389,314,1104,966,333,-0.65283203125,0.1373291015625,-0.1861572265625
11.397,314,1034,891,333,-0.60302734375,0.20947265625,-0.2481689453125
11.401,310,894,844,332,-0.5712890625,0.27880859375,-0.302734375
11.414,313,858,827,330,-0.564697265625,0.3489990234375,-0.3262939453125
11.422,310,912,785,334,-0.581787109375,0.4190673828125,-0.3338623046875
11.430,310,929,793,332,-0.6102294921875,0.4442138671875,-0.3314208984375
11.452,310,1053,840,333,-0.6436767578125,0.392822265625,-0.304931640625
11.453,313,1117,886,332,-0.66162109375,0.3004150390625,-0.261474609375
11.466,310,1276,947,332,-0.647705078125,0.2275390625,-0.2247314453125
11.495,313,1600,1024,343,-0.64013671875,0.2076416015625,-0.201416015625
11.496,313,1905,1045,342,-0.6690673828125,0.2236328125,-0.1805419921875
11.496,313,2114,1065,321,-0.7010498046875,0.216552734375,-0.1685791015625
11.504,315,2928,1101,349,-0.724609375,0.185791015625,-0.1676025390625
11.512,315,3147,1122,455,-0.735595703125,0.1536865234375,-0.158447265625
11.520,316,3147,1120,946,-0.7279052734375,0.1197509765625,-0.1553955078125
11.534,316,3147,1147,1813,-0.6978759765625,0.1005859375,-0.1431884765625
11.542,321,3147,1156,2217,-0.6326904296875,0.1016845703125,-0.1055908203125
11.550,324,3147,1278,2619,-0.5389404296875,0.15673828125,-0.0372314453125
11.573,338,3147,1543,3147,-0.4056396484375,0.2755126953125,0.0220947265625
11.573,338,3147,1739,3147,-0.2867431640625,0.47119140625,0.0626220703125
11.597,348,3147,1929,3147,-0.2489013671875,0.6793212890625,0.0947265625
11.597,353,3147,2135,3147,-0.3939208984375,0.8004150390625,-0.0318603515625
11.602,354,3147,2233,3147,-0.7901611328125,0.865234375,-0.4073486328125
11.610,359,3147,2359,3147,-1.246337890625,0.9072265625,-0.8626708984375
11.624,371,3147,2563,3147,-1.666015625,0.9466552734375,-1.134765625
11.632,371,3147,2516,3147,-2.1590576171875,0.8197021484375,-1.0875244140625
11.640,371,3147,2492,3147,-2.5872802734375,0.2401123046875,-0.7587890625
11.654,364,3147,2400,3147,-2.3179931640625,-0.525146484375,-0.154296875
11.676,364,3147,2372,3147,-1.3138427734375,-0.559326171875,0.423095703125
11.676,363,3147,2381,3147,-0.62939453125,0.3004150390625,0.2691650390625
11.692,361,3147,2361,3147,-0.866943359375,1.2984619140625,-0.490966796875
11.694,363,3147,2308,3147,-1.4521484375,1.6444091796875,-0.9853515625
11.700,359,3147,2215,3147,-1.4521484375,1.6444091796875,-0.9853515625
11.714,354,3147,1900,3147,-1.558837890625,0.3555908203125,-0.433349609375
11.722,351,3147,1718,3147,-1.253173828125,0.115966796875,-0.2080078125
11.730,347,3147,1574,3147,-1.253173828125,0.115966796875,-0.2080078125
11.744,334,3147,1303,3020,-0.726318359375,0.428955078125,-0.2349853515625
11.752,329,3147,1250,2552,-0.58642578125,0.400390625,-0.1324462890625
11.760,327,3147,1222,2076,-0.58642578125,0.400390625,-0.1324462890625
11.773,318,3147,1172,944,-0.6619873046875,0.1348876953125,-0.0413818359375
11.788,321,3147,1115,354,-0.733642578125,0.1046142578125,-0.017578125
11.806,314,3022,1055,359,-0.733642578125,0.1046142578125,-0.017578125
11.806,315,1954,1009,348,-0.7613525390625,0.0174560546875,-0.1270751953125
11.818,315,1564,978,348,-0.7703857421875,0.0308837890625,-0.1619873046875
11.820,313,1366,931,338,-0.7703857421875,0.0308837890625,-0.1619873046875
11.834,314,1116,846,337,-0.682861328125,0.1571044921875,-0.2518310546875
11.842,313,1024,835,334,-0.621337890625,0.2811279296875,-0.2967529296875
11.850,310,1050,788,334,-0.621337890625,0.2811279296875,-0.2967529296875
11.864,310,1095,767,332,-0.507080078125,0.389892578125,-0.306396484375
11.874,310,1143,803,332,-0.5335693359375,0.4036865234375,-0.2674560546875
11.880,313,1163,829,332,-0.5335693359375,0.4036865234375,-0.2674560546875
11.918,313,1366,883,334,-0.6363525390625,0.367919921875,-0.212646484375
11.918,313,1483,917,334,-0.6656494140625,0.3536376953125,-0.207275390625
11.918,314,1732,944,338,-0.6656494140625,0.3536376953125,-0.207275390625
11.924,313,2024,986,338,-0.7430419921875,0.29833984375,-0.20654296875
11.932,313,2190,1010,348,-0.7430419921875,0.29833984375,-0.20654296875
11.940,313,2359,1034,347,-0.7763671875,0.2274169921875,-0.2083740234375
11.953,316,2787,1081,354,-0.8643798828125,0.1168212890625,-0.1995849609375
11.962,316,3147,1091,387,-0.8643798828125,0.1168212890625,-0.1995849609375
11.976,315,3147,1108,639,-0.8880615234375,0.0595703125,-0.1756591796875
11.983,311,3147,1054,1357,-0.7874755859375,0.0888671875,-0.1468505859375
11.992,316,3147,1027,1693,-0.7874755859375,0.0888671875,-0.1468505859375
12.021,321,3147,1018,2012,-0.739013671875,0.267578125,-0.1676025390625
12.021,324,3147,1138,2813,-0.4932861328125,0.5423583984375,-0.0396728515625
12.022,328,3147,1348,3147,-0.4932861328125,0.5423583984375,-0.0396728515625
12.030,332,3147,1483,3147,-0.2203369140625,0.4962158203125,0.1260986328125
12.044,342,3147,1582,3147,-0.077392578125,0.7242431640625,0.2918701171875
12.052,346,3147,1689,3147,-0.077392578125,0.7242431640625,0.2918701171875
12.060,346,3147,1941,3147,-0.3155517578125,0.7474365234375,0.0003662109375
12.082,354,3147,2273,3147,-1.083984375,0.5887451171875,-0.80224609375
12.082,364,3147,2368,3147,-1.083984375,0.5887451171875,-0.80224609375
12.108,363,3147,2555,3147,-1.5107421875,0.7506103515625,-1.05126953125
12.108,359,3147,2340,3147,-2.705810546875,0.307373046875,-0.9881591796875
12.129,364,3147,2261,3147,-2.705810546875,0.307373046875,-0.9881591796875
12.129,363,3147,2242,3147,-2.3809814453125,-0.2335205078125,-0.3775634765625
12.134,363,3147,2030,3147,-1.2589111328125,-0.1170654296875,0.1588134765625
12.142,360,3147,2078,3147,-0.54443359375,0.756591796875,-0.0218505859375
12.150,359,3147,2102,3147,-0.588134765625,1.46142578125,-0.65283203125
12.164,359,3147,2063,3147,-1.0211181640625,1.49609375,-0.929443359375
12.172,359,3147,1952,3147,-1.54296875,0.97998046875,-0.795654296875
12.183,351,3147,1861,3147,-1.7911376953125,0.399658203125,-0.58349609375
12.207,345,3147,1652,3147,-1.629150390625,0.2142333984375,-0.4080810546875
12.209,332,3147,1445,3147,-1.2584228515625,0.337158203125,-0.2874755859375
12.210,315,3147,1308,3147,-0.8941650390625,0.5037841796875,-0.1837158203125
12.228,316,3147,1216,3147,-0.596923828125,0.57177734375,-0.083740234375
12.232,321,3147,1191,2703,-0.4014892578125,0.495361328125,-0.0616455078125
12.240,321,3147,1178,2275,-0.3770751953125,0.3184814453125,-0.099365234375
12.256,316,3147,1137,1514,-0.4996337890625,0.1744384765625,-0.059326171875
12.262,316,3147,1103,1055,-0.6507568359375,0.083984375,-0.038330078125
12.270,315,3147,1043,702,-0.7586669921875,-0.011474609375,-0.1448974609375
12.284,315,3147,989,374,-0.7962646484375,-0.029296875,-0.25439453125
12.292,316,3024,932,373,-0.7706298828125,0.05419921875,-0.2689208984375
12.314,315,2837,872,371,-0.7261962890625,0.144775390625,-0.241943359375
12.315,315,2489,802,361,-0.7138671875,0.264404296875,-0.220947265625
12.322,313,2395,788,361,-0.705322265625,0.4017333984375,-0.213134765625
12.333,315,2202,780,360,-0.6658935546875,0.4853515625,-0.2138671875
12.344,314,2210,806,360,-0.6317138671875,0.5245361328125,-0.1932373046875
12.352,314,2253,844,359,-0.6256103515625,0.4971923828125,-0.1658935546875
12.360,315,2280,871,360,-0.6458740234375,0.4078369140625,-0.14404296875
12.373,314,2704,907,361,-0.68017578125,0.3116455078125,-0.1337890625
12.386,314,2922,932,364,-0.713134765625,0.2369384765625,-0.1295166015625
12.390,313,3126,958,371,-0.72998046875,0.1964111328125,-0.1287841796875
12.403,314,3147,984,600,-0.7335205078125,0.2044677734375,-0.1522216796875
12.412,315,3147,986,853,-0.7498779296875,0.2381591796875,-0.1954345703125
12.425,315,3147,1004,1107,-0.7972412109375,0.254638671875,-0.221435546875
12.489,315,3147,1004,1611,-0.8472900390625,0.232666015625,-0.21435546875
12.494,314,3147,1003,1820,-0.873779296875,0.217041015625,-0.1790771484375
12.494,316,3147,1031,2060,-0.85205078125,0.23876953125,-0.1331787109375
12.494,316,3147,1050,2435,-0.8057861328125,0.3380126953125,-0.109130859375
12.494,318,3147,1071,2689,-0.7598876953125,0.4876708984375,-0.09130859375
12.494,316,3147,1160,2905,-0.6632080078125,0.5128173828125,-0.0689697265625
12.494,315,3147,1211,3147,-0.5281982421875,0.3802490234375,-0.000244140625
12.507,324,3147,1294,3147,-0.3438720703125,0.1580810546875,0.0947265625
12.516,332,3147,1518,3147,-0.161865234375,0.0521240234375,0.0838623046875
12.523,344,3147,1681,3147,-0.0745849609375,0.1422119140625,0.00390625
12.532,348,3147,1812,3147,-0.143310546875,0.2611083984375,-0.12744140625
12.546,351,3147,1981,3147,-0.455078125,0.4365234375,-0.3912353515625
12.556,360,3147,2296,3147,-0.9412841796875,0.81396484375,-0.7432861328125
12.561,364,3147,2477,3147,-1.4774169921875,1.2220458984375,-1.138671875
12.576,373,3147,2601,3147,-2.0853271484375,1.23974609375,-1.3238525390625
12.592,364,3147,2527,3147,-2.6971435546875,0.7119140625,-0.9793701171875
12.592,365,3147,2395,3147,-2.702392578125,-0.224609375,-0.2095947265625
12.600,362,3147,2292,3147,-1.7763671875,-0.6339111328125,0.5596923828125
12.620,361,3147,2306,3147,-0.804443359375,0.1064453125,0.5892333984375
12.622,351,3147,2296,3147,-0.619140625,1.1807861328125,-0.1990966796875
12.630,359,3147,2268,3147,-1.070556640625,1.6312255859375,-0.8779296875
12.651,356,3147,2158,3147,-1.58984375,1.166748046875,-0.91064453125
12.652,354,3147,2093,3147,-1.73681640625,0.3555908203125,-0.52685546875
12.660,348,3147,1974,3147,-1.4747314453125,-0.0709228515625,-0.1392822265625
12.673,347,3147,1812,3147,-1.0697021484375,0.048583984375,0.0460205078125
12.682,338,3147,1675,3147,-0.7283935546875,0.411865234375,0.044677734375
12.699,336,3147,1577,3147,-0.50146484375,0.655029296875,-0.045654296875
12.704,329,3147,1534,3147,-0.4310302734375,0.6495361328125,-0.159423828125
12.721,324,3147,1492,3061,-0.5233154296875,0.4698486328125,-0.2813720703125
12.722,324,3147,1445,2741,-0.6962890625,0.2745361328125,-0.323974609375
12.739,323,3147,1375,2178,-0.8236083984375,0.0936279296875,-0.263427734375
12.742,321,3147,1318,1840,-0.872802734375,-0.0479736328125,-0.1771240234375
12.750,323,3147,1275,1531,-0.8729248046875,-0.08251953125,-0.09814453125
12.764,321,3147,1183,966,-0.8363037109375,-0.0252685546875,-0.0477294921875
12.772,318,3147,1146,757,-0.8057861328125,0.1014404296875,-0.0357666015625
12.779,317,3147,1115,463,-0.7938232421875,0.2216796875,-0.04296875
12.804,316,3077,1031,386,-0.77490234375,0.300537109375,-0.0489501953125
12.804,315,2918,1012,382,-0.7518310546875,0.37451171875,-0.0538330078125
12.813,316,2587,1000,376,-0.7518310546875,0.37451171875,-0.0538330078125
12.825,315,2428,968,371,-0.740234375,0.412353515625,-0.117431640625
12.834,315,2330,962,364,-0.7152099609375,0.34814453125,-0.13232421875
12.840,315,2217,944,361,-0.7152099609375,0.34814453125,-0.13232421875
12.853,308,2231,888,362,-0.6927490234375,0.284423828125,-0.1761474609375
12.869,314,2308,899,363,-0.700927734375,0.2911376953125,-0.2109375
12.870,315,2409,888,369,-0.700927734375,0.2911376953125,-0.2109375
12.884,315,2726,958,371,-0.765869140625,0.334228515625,-0.2418212890625
12.901,315,3000,951,378,-0.7960205078125,0.3118896484375,-0.226318359375
12.901,314,3147,990,381,-0.7960205078125,0.3118896484375,-0.226318359375
12.914,315,3147,1009,634,-0.796875,0.1033935546875,-0.1434326171875
12.935,315,3147,1004,923,-0.7657470703125,0.0245361328125,-0.0927734375
12.938,313,3147,1012,1209,-0.7657470703125,0.0245361328125,-0.0927734375
12.945,316,3147,1012,1899,-0.6436767578125,0.1707763671875,-0.0667724609375
12.952,318,3147,1012,2242,-0.5533447265625,0.3243408203125,-0.093017578125
12.960,316,3147,1050,2660,-0.5533447265625,0.3243408203125,-0.093017578125
12.974,324,3147,1248,3147,-0.1964111328125,0.2735595703125,0.05029296875
12.982,330,3147,1450,3147,-0.021240234375,0.1529541015625,0.0040283203125
12.990,334,3147,1545,3147,-0.021240234375,0.1529541015625,0.0040283203125
13.003,345,3147,1653,3147,-0.46923828125,0.6192626953125,-0.431396484375
13.014,346,3147,1714,3147,-0.9554443359375,0.7745361328125,-0.7288818359375
13.034,347,3147,1761,3147,-0.9554443359375,0.7745361328125,-0.7288818359375
13.035,359,3147,2039,3147,-1.620361328125,1.1827392578125,-0.986083984375
13.042,355,3147,2080,3147,-1.620361328125,1.1827392578125,-0.986083984375
13.050,361,3147,2041,3147,-1.8858642578125,1.2901611328125,-0.8131103515625
13.064,352,3147,1837,3147,-2.2025146484375,-0.0650634765625,-0.093017578125
13.079,348,3147,1761,3147,-2.2025146484375,-0.0650634765625,-0.093017578125
13.080,346,3147,1711,3147,-1.6409912109375,-0.6685791015625,0.2471923828125
13.094,336,3147,1747,3147,-0.9140625,0.5972900390625,-0.09423828125
13.104,344,3147,1722,3147,-0.9140625,0.5972900390625,-0.09423828125
13.110,344,3147,1686,3147,-1.2440185546875,1.15869140625,-0.5484619140625
13.131,338,3147,1550,3147,-1.6611328125,0.4261474609375,-0.5406494140625
13.132,333,3147,1399,3147,-1.6611328125,0.4261474609375,-0.5406494140625
13.142,330,3147,1359,3147,-1.3447265625,0.18603515625,-0.2943115234375
13.154,322,3147,1209,3147,-0.6796875,0.283935546875,0.0037841796875
13.162,319,3147,1175,3056,-0.6796875,0.283935546875,0.0037841796875
13.170,319,3147,1138,2668,-0.47216796875,0.3365478515625,-0.0308837890625
13.183,317,3147,1116,1918,-0.6195068359375,0.3359375,-0.15625
13.194,316,3147,1073,1380,-0.6195068359375,0.3359375,-0.15625
13.206,315,3147,1069,853,-0.735595703125,0.213134765625,-0.1690673828125
13.213,316,3121,1018,383,-0.8494873046875,0.0218505859375,-0.2108154296875
13.226,316,2570,980,371,-0.8494873046875,0.0218505859375,-0.2108154296875
13.238,314,2273,938,355,-0.8052978515625,0.059326171875,-0.1981201171875
13.244,315,1762,888,346,-0.71875,0.1763916015625,-0.1763916015625
13.253,314,1561,859,344,-0.71875,0.1763916015625,-0.1763916015625
13.260,313,1255,773,334,-0.6749267578125,0.2628173828125,-0.1507568359375
13.274,313,1131,811,344,-0.64990234375,0.388671875,-0.1641845703125
13.282,313,1129,810,334,-0.6859130859375,0.4749755859375,-0.2078857421875
13.291,313,1202,830,342,-0.685302734375,0.466552734375,-0.226318359375
13.311,310,1422,854,344,-0.6578369140625,0.4202880859375,-0.2255859375
13.312,314,1474,883,338,-0.6654052734375,0.377685546875,-0.22021484375
13.336,313,1646,897,344,-0.681396484375,0.3228759765625,-0.203857421875
13.336,313,2018,895,327,-0.7010498046875,0.2559814453125,-0.1885986328125
13.342,312,2243,947,356,-0.731689453125,0.181396484375,-0.180908203125
13.349,313,2544,972,361,-0.758544921875,0.10009765625,-0.1754150390625
13.365,310,3147,1010,371,-0.7745361328125,0.0750732421875,-0.173828125
13.371,315,3147,1029,757,-0.7713623046875,0.1177978515625,-0.1728515625
13.380,316,3147,1039,1104,-0.7508544921875,0.179443359375,-0.174072265625
13.399,316,3147,1029,1607,-0.7578125,0.25390625,-0.1925048828125
13.402,318,3147,1050,1982,-0.779052734375,0.2913818359375,-0.222412109375
13.410,316,3147,1129,2296,-0.7613525390625,0.2916259765625,-0.2125244140625
13.423,323,3147,1209,2808,-0.6715087890625,0.2723388671875,-0.1788330078125
13.450,328,3147,1266,3108,-0.5386962890625,0.2349853515625,-0.1953125
13.450,330,3147,1463,3147,-0.4248046875,0.248779296875,-0.2093505859375
13.454,344,3147,1653,3147,-0.3720703125,0.3095703125,-0.17236328125
13.462,345,3147,1709,3147,-0.4639892578125,0.40380859375,-0.0943603515625
13.469,346,3147,1781,3147,-0.6695556640625,0.510009765625,-0.0318603515625
13.483,347,3147,1874,3147,-0.896728515625,0.633056640625,-0.0587158203125
13.492,354,3147,1914,3147,-1.14453125,0.7960205078125,-0.1864013671875
13.514,357,3147,2020,3147,-1.4019775390625,0.8990478515625,-0.343505859375
13.514,359,3147,2047,3147,-1.6265869140625,0.8330078125,-0.44189453125
13.522,356,3147,1970,3147,-1.8135986328125,0.6387939453125,-0.5010986328125
13.533,347,3147,1905,3147,-1.92236328125,0.4212646484375,-0.5125732421875
13.544,336,3147,1779,3147,-1.7408447265625,0.131591796875,-0.3927001953125
13.552,336,3147,1715,3147,-1.234375,-0.0478515625,-0.095947265625
13.562,332,3147,1733,3147,-0.8287353515625,0.14697265625,0.0950927734375
13.573,330,3147,1732,3147,-0.859375,0.5809326171875,-0.0677490234375
13.583,332,3147,1687,3147,-1.25927734375,0.97314453125,-0.3787841796875
13.590,330,3147,1622,3147,-1.6810302734375,0.964599609375,-0.5770263671875
13.618,323,3147,1470,3147,-1.7972412109375,0.583251953125,-0.537841796875
13.619,306,3147,1341,3147,-1.6048583984375,0.2821044921875,-0.3526611328125
13.620,321,3147,1306,3147,-1.280029296875,0.266357421875,-0.241455078125
13.655,321,3147,1226,3147,-0.95703125,0.4019775390625,-0.2105712890625
13.655,318,3147,1129,2810,-0.681396484375,0.4404296875,-0.171142578125
13.656,317,3147,1078,2306,-0.53466796875,0.316650390625,-0.126708984375
13.664,315,3147,1031,1220,-0.5389404296875,0.16162109375,-0.0706787109375
13.672,316,3147,1031,634,-0.5794677734375,0.0845947265625,-0.038330078125
13.680,315,3143,999,363,-0.5968017578125,0.0775146484375,-0.087890625
13.694,310,2035,958,346,-0.6212158203125,0.096435546875,-0.1671142578125
13.703,315,1862,933,348,-0.6583251953125,0.130615234375,-0.1973876953125
13.726,314,1664,871,346,-0.6719970703125,0.1593017578125,-0.2330322265625
13.726,295,1241,835,334,-0.661376953125,0.22705078125,-0.295654296875
13.755,313,1241,784,342,-0.651611328125,0.3397216796875,-0.3201904296875
13.756,313,1067,741,332,-0.6551513671875,0.419921875,-0.2972412109375
13.756,296,931,740,329,-0.6741943359375,0.446044921875,-0.2432861328125
13.762,308,919,767,334,-0.69677734375,0.4361572265625,-0.188232421875
13.770,310,973,799,331,-0.708740234375,0.4141845703125,-0.1583251953125
13.783,310,1132,837,332,-0.699462890625,0.377685546875,-0.1431884765625
13.792,309,1305,864,334,-0.6832275390625,0.3084716796875,-0.134033203125
13.800,312,1607,894,342,-0.68310546875,0.2152099609375,-0.13232421875
13.838,313,2054,910,346,-0.69921875,0.13720703125,-0.1385498046875
13.851,312,2368,932,351,-0.7222900390625,0.10009765625,-0.1614990234375
13.852,296,2612,959,347,-0.7607421875,0.111083984375,-0.1944580078125
13.852,313,3147,1000,401,-0.8074951171875,0.155029296875,-0.21826171875
13.852,298,3147,989,774,-0.834228515625,0.20947265625,-0.247802734375
13.861,314,3147,958,1202,-0.826171875,0.26123046875,-0.3145751953125
13.874,316,3147,974,1855,-0.78515625,0.3167724609375,-0.3773193359375
13.882,318,3147,1042,2238,-0.701171875,0.3658447265625,-0.3570556640625
13.890,318,3147,1081,2587,-0.5772705078125,0.37255859375,-0.267333984375
13.903,323,3147,1189,3102,-0.4542236328125,0.360107421875,-0.123779296875
13.912,325,3147,1283,3147,-0.3270263671875,0.2696533203125,0.0313720703125
13.931,327,3147,1470,3147,-0.2490234375,0.136962890625,0.1029052734375
13.953,342,3147,1640,3147,-0.6011962890625,0.5145263671875,-0.1522216796875
13.953,346,3147,1704,3147,-0.6011962890625,0.5145263671875,-0.1522216796875
13.964,349,3147,1850,3147,-1.3809814453125,1.0970458984375,-0.4609375
13.972,351,3147,1929,3147,-1.7015380859375,1.0592041015625,-0.4029541015625
13.980,354,3147,1946,3147,-1.7015380859375,1.0592041015625,-0.4029541015625
13.994,348,3147,1899,3147,-1.8984375,0.4923095703125,-0.293701171875
14.003,348,3147,1852,3147,-1.859130859375,0.241943359375,-0.30029296875
14.010,346,3147,1824,3147,-1.859130859375,0.241943359375,-0.30029296875
14.026,346,3147,1830,3147,-1.0162353515625,0.166259765625,0.006103515625
14.051,344,3147,1874,3147,-0.788330078125,0.5748291015625,-0.06103515625
14.052,345,3147,1869,3147,-0.788330078125,0.5748291015625,-0.06103515625
14.065,338,3147,1759,3147,-1.556640625,0.9869384765625,-0.740234375
14.065,332,3147,1627,3147,-1.7188720703125,0.5872802734375,-0.716796875
14.070,332,3147,1504,3147,-1.7188720703125,0.5872802734375,-0.716796875
14.083,327,3147,1372,3147,-1.292724609375,0.0977783203125,-0.2333984375
14.092,323,3147,1276,3147,-1.026123046875,0.2493896484375,-0.1708984375
14.100,319,3147,1206,3064,-1.026123046875,0.2493896484375,-0.1708984375
14.114,313,3147,1022,2188,-0.6456298828125,0.2984619140625,-0.0948486328125
14.129,317,3147,1048,1676,-0.5721435546875,0.1585693359375,-0.0733642578125
14.130,316,3147,1039,1101,-0.5721435546875,0.1585693359375,-0.0733642578125
14.161,308,3147,992,357,-0.6326904296875,0.1019287109375,-0.1011962890625
14.161,313,2746,976,359,-0.701416015625,0.09716796875,-0.1795654296875
14.161,313,2243,966,354,-0.701416015625,0.09716796875,-0.1795654296875
14.174,310,1700,894,346,-0.660400390625,0.0980224609375,-0.229736328125
14.182,307,1443,855,338,-0.660400390625,0.0980224609375,-0.229736328125
14.190,310,1276,853,341,-0.61962890625,0.2174072265625,-0.239990234375
14.203,310,1148,830,334,-0.636962890625,0.390625,-0.2122802734375
14.212,310,1065,854,336,-0.636962890625,0.390625,-0.2122802734375
14.220,312,1132,808,334,-0.6650390625,0.35546875,-0.1790771484375
14.233,310,1351,834,338,-0.6505126953125,0.3255615234375,-0.2161865234375
14.270,310,1456,859,342,-0.6505126953125,0.3255615234375,-0.2161865234375
14.271,308,1687,890,338,-0.6610107421875,0.3643798828125,-0.2384033203125
14.271,313,1996,927,346,-0.72705078125,0.28759765625,-0.2559814453125
14.272,306,2162,944,347,-0.72705078125,0.28759765625,-0.2559814453125
14.280,312,2442,938,348,-0.7591552734375,0.20751953125,-0.259765625
14.294,313,2928,984,351,-0.7969970703125,0.120849609375,-0.2689208984375
14.302,315,3147,1001,354,-0.7969970703125,0.120849609375,-0.2689208984375
14.310,316,3147,996,731,-0.79541015625,0.10205078125,-0.2923583984375
14.324,316,3147,944,1303,-0.7413330078125,0.2218017578125,-0.3489990234375
14.332,316,3147,972,1789,-0.7413330078125,0.2218017578125,-0.3489990234375
14.340,318,3147,1043,2170,-0.680908203125,0.3416748046875,-0.3489990234375
14.362,324,3147,1182,2801,-0.5260009765625,0.3629150390625,-0.129150390625
14.362,331,3147,1303,3147,-0.5260009765625,0.3629150390625,-0.129150390625
14.370,334,3147,1467,3147,-0.3623046875,0.197265625,-0.0118408203125
14.384,344,3147,1610,3147,-0.19677734375,0.1090087890625,0.068603515625
14.392,345,3147,1681,3147,-0.193115234375,0.284423828125,0.0863037109375
14.400,349,3147,1774,3147,-0.432373046875,0.6275634765625,-0.013671875
14.414,354,3147,2000,3147,-0.866943359375,0.9168701171875,-0.1904296875
14.422,354,3147,2100,3147,-1.37158203125,1.0692138671875,-0.3245849609375
14.435,359,3147,2195,3147,-1.8289794921875,1.0499267578125,-0.392822265625
14.444,359,3147,1981,3147,-2.1383056640625,0.7862548828125,-0.443115234375
14.473,359,3147,1899,3147,-2.244140625,0.33447265625,-0.4544677734375
14.477,356,3147,1865,3147,-1.9630126953125,-0.1715087890625,-0.3172607421875
14.477,354,3147,1828,3147,-1.289306640625,-0.2705078125,-0.0467529296875
14.482,351,3147,1838,3147,-0.7379150390625,0.275146484375,-0.0086669921875
14.492,351,3147,1861,3147,-0.6832275390625,0.915771484375,-0.3607177734375
14.504,347,3147,1770,3147,-1.0596923828125,1.2188720703125,-0.7198486328125
14.512,346,3147,1691,3147,-1.509765625,1.0118408203125,-0.8197021484375
14.520,342,3147,1590,3147,-1.675048828125,0.4779052734375,-0.6697998046875
14.538,334,3147,1348,3147,-1.526611328125,0.1456298828125,-0.3956298828125
14.542,328,3147,1204,3147,-1.2327880859375,0.13427734375,-0.22119140625
14.552,324,3147,1170,3147,-0.966552734375,0.2611083984375,-0.161376953125
14.571,319,3147,1103,2465,-0.776611328125,0.367919921875,-0.0760498046875
14.572,317,3147,1071,2020,-0.637451171875,0.36328125,-0.002197265625
14.580,316,3147,1034,1681,-0.57177734375,0.2955322265625,0.0211181640625
14.594,315,3147,1010,987,-0.5804443359375,0.2342529296875,0.0113525390625
14.604,315,3147,960,525,-0.6448974609375,0.1871337890625,-0.059326171875
14.610,315,3147,947,359,-0.764404296875,0.1475830078125,-0.16552734375
14.624,315,2596,963,356,-0.8560791015625,0.1143798828125,-0.2510986328125
14.641,312,2247,912,351,-0.8365478515625,0.0928955078125,-0.2911376953125
14.641,310,1949,906,347,-0.764404296875,0.09228515625,-0.2972412109375
14.679,313,1641,869,345,-0.717529296875,0.1357421875,-0.2889404296875
14.679,313,1470,833,344,-0.685302734375,0.2322998046875,-0.273193359375
14.679,315,1333,842,342,-0.653076171875,0.3551025390625,-0.25537109375
14.684,313,1315,846,338,-0.6265869140625,0.4559326171875,-0.234375
14.692,312,1341,860,336,-0.6351318359375,0.461669921875,-0.20654296875
14.700,309,1474,865,338,-0.6688232421875,0.366455078125,-0.1806640625
14.729,313,1757,931,344,-0.677001953125,0.260986328125,-0.1751708984375
14.735,310,1927,944,346,-0.6680908203125,0.2171630859375,-0.203125
14.745,313,2192,964,347,-0.6773681640625,0.2332763671875,-0.245361328125
14.769,313,2677,973,348,-0.71044921875,0.2506103515625,-0.263671875
14.769,313,2938,986,356,-0.737060546875,0.227294921875,-0.2503662109375
14.785,313,3147,996,433,-0.7391357421875,0.1837158203125,-0.221435546875
14.785,316,3147,958,1175,-0.702880859375,0.1507568359375,-0.189697265625
14.785,302,3147,1003,1719,-0.630126953125,0.17724609375,-0.1630859375
14.791,316,3147,1038,2238,-0.53369140625,0.2801513671875,-0.139404296875
14.804,324,3147,1167,2870,-0.37890625,0.33251953125,-0.107177734375
14.812,328,3147,1377,3147,-0.1912841796875,0.303955078125,-0.052490234375
14.820,332,3147,1509,3147,-0.0694580078125,0.2991943359375,-0.0181884765625
14.833,344,3147,1632,3147,-0.0885009765625,0.3773193359375,-0.0260009765625
14.845,347,3147,1739,3147,-0.3519287109375,0.5379638671875,-0.0911865234375
14.850,353,3147,1849,3147,-0.830322265625,0.721923828125,-0.2611083984375
14.871,359,3147,2014,3147,-1.3551025390625,0.8895263671875,-0.449462890625
14.872,361,3147,2085,3147,-1.8212890625,0.9588623046875,-0.548095703125
14.890,361,3147,2156,3147,-2.2122802734375,0.782470703125,-0.5966796875
14.894,359,3147,1981,3147,-2.51416015625,0.370361328125,-0.619873046875
14.902,354,3147,1967,3147,-2.3974609375,-0.0811767578125,-0.475830078125
14.910,354,3147,1931,3147,-1.59765625,-0.12744140625,-0.112060546875
14.924,348,3147,1966,3147,-0.6805419921875,0.412841796875,0.070068359375
14.932,351,3147,1960,3147,-0.5347900390625,1.0654296875,-0.2139892578125
14.952,348,3147,1934,3147,-1.1334228515625,1.2840576171875,-0.5858154296875
14.954,346,3147,1792,3147,-1.656005859375,0.8929443359375,-0.6285400390625
14.962,333,3147,1643,3147,-1.681884765625,0.31787109375,-0.4112548828125
14.971,333,3147,1441,3147,-1.412841796875,0.106689453125,-0.243408203125
14.985,327,3147,1268,3147,-1.1085205078125,0.2646484375,-0.2412109375
14.995,323,3147,1173,3147,-0.85986328125,0.4486083984375,-0.2681884765625
15.000,319,3147,1138,3147,-0.682861328125,0.4237060546875,-0.209716796875
15.013,315,3147,1081,2492,-0.603515625,0.26513671875,-0.150634765625
15.022,316,3147,1054,2065,-0.6136474609375,0.1617431640625,-0.14404296875
15.030,316,3147,1031,1591,-0.635009765625,0.1517333984375,-0.134521484375
15.058,315,3147,1004,733,-0.64794921875,0.1688232421875,-0.133056640625
15.058,315,3147,989,359,-0.6956787109375,0.1585693359375,-0.1502685546875
15.079,310,2937,946,351,-0.76220703125,0.13037109375,-0.154541015625
15.079,313,2391,912,347,-0.798828125,0.124755859375,-0.1373291015625
15.082,311,2058,856,338,-0.789306640625,0.17041015625,-0.1348876953125
15.090,312,1861,865,346,-0.789306640625,0.17041015625,-0.1348876953125
15.104,310,1666,837,342,-0.669921875,0.3504638671875,-0.1942138671875
15.112,310,1478,830,337,-0.6279296875,0.4232177734375,-0.2003173828125
15.120,313,1428,830,334,-0.6279296875,0.4232177734375,-0.2003173828125
15.133,313,1455,869,336,-0.6446533203125,0.4190673828125,-0.2330322265625
15.142,309,1483,860,336,-0.67919921875,0.3804931640625,-0.2501220703125
15.150,310,1653,865,338,-0.67919921875,0.3804931640625,-0.2501220703125
15.167,310,1838,894,338,-0.7138671875,0.3104248046875,-0.2713623046875
15.183,308,2111,917,342,-0.7308349609375,0.3013916015625,-0.273681640625
15.184,310,2334,921,344,-0.7308349609375,0.3013916015625,-0.273681640625
15.194,314,2676,939,344,-0.7530517578125,0.1903076171875,-0.2720947265625
15.210,313,3073,944,356,-0.7567138671875,0.1650390625,-0.2548828125
15.211,315,3147,944,442,-0.7567138671875,0.1650390625,-0.2548828125
15.224,314,3147,966,1065,-0.7371826171875,0.2568359375,-0.2335205078125
15.232,315,3147,987,1476,-0.710693359375,0.3521728515625,-0.2725830078125
15.240,316,3147,1014,1954,-0.710693359375,0.3521728515625,-0.2725830078125
15.254,321,3147,1115,2407,-0.5369873046875,0.388427734375,-0.2919921875
15.262,323,3147,1306,2715,-0.3983154296875,0.2593994140625,-0.2174072265625
15.288,327,3147,1435,3007,-0.3983154296875,0.2593994140625,-0.2174072265625
15.288,333,3147,1691,3147,-0.298095703125,0.2481689453125,-0.0159912109375
15.293,338,3147,1811,3147,-0.4365234375,0.5025634765625,0.0228271484375
15.301,346,3147,1904,3147,-0.4365234375,0.5025634765625,0.0228271484375
15.316,348,3147,1943,3147,-0.7216796875,0.7606201171875,-0.0323486328125
15.323,354,3147,2048,3147,-1.39697265625,0.7705078125,-0.3265380859375
15.331,359,3147,2143,3147,-1.39697265625,0.7705078125,-0.3265380859375
15.339,360,3147,2255,3147,-1.70458984375,0.6195068359375,-0.4134521484375
15.357,356,3147,2113,3147,-2.1397705078125,0.1016845703125,-0.43603515625
15.361,359,3147,2104,3147,-2.1397705078125,0.1016845703125,-0.43603515625
15.376,351,3147,2105,3147,-1.92919921875,-0.179931640625,-0.33642578125
15.398,346,3147,2070,3147,-0.7314453125,0.3306884765625,-0.0413818359375
15.398,348,3147,2087,3147,-0.7314453125,0.3306884765625,-0.0413818359375
15.399,348,3147,2068,3147,-0.744384765625,0.93798828125,-0.3009033203125
15.414,344,3147,2010,3147,-1.5325927734375,0.9002685546875,-0.72119140625
15.464,334,3147,1759,3147,-1.6063232421875,0.4066162109375,-0.5723876953125
15.464,324,3147,1452,3147,-1.200927734375,0.204833984375,-0.2568359375
15.464,324,3147,1326,3008,-1.200927734375,0.204833984375,-0.2568359375
15.464,323,3147,1236,2626,-0.9722900390625,0.298095703125,-0.177734375
15.474,318,3147,1137,1826,-0.67529296875,0.1842041015625,-0.0172119140625
15.492,316,3147,1063,1384,-0.67529296875,0.1842041015625,-0.0172119140625
15.493,316,3147,1067,872,-0.646240234375,0.1207275390625,0.04248046875
15.506,316,3147,1050,354,-0.6236572265625,0.1019287109375,-0.05029296875
15.512,313,2613,1029,354,-0.6236572265625,0.1019287109375,-0.05029296875
15.529,315,2153,1003,344,-0.6795654296875,0.1292724609375,-0.183349609375
15.534,313,1739,973,338,-0.7491455078125,0.139404296875,-0.284423828125
15.542,313,1519,952,336,-0.8038330078125,0.143798828125,-0.3287353515625
15.550,313,1434,872,332,-0.812744140625,0.174072265625,-0.336669921875
15.564,310,1220,853,331,-0.7410888671875,0.2215576171875,-0.33251953125
15.584,309,1097,829,334,-0.656982421875,0.314208984375,-0.305908203125
15.585,310,1050,859,332,-0.623779296875,0.4229736328125,-0.2623291015625
15.594,311,1183,878,332,-0.624267578125,0.476806640625,-0.2310791015625
15.602,310,1280,895,332,-0.6339111328125,0.468994140625,-0.2137451171875
15.610,310,1411,921,334,-0.6422119140625,0.421142578125,-0.2012939453125
15.624,310,1742,952,336,-0.656982421875,0.354736328125,-0.1978759765625
15.635,310,2035,963,342,-0.6871337890625,0.2890625,-0.2020263671875
15.640,310,2303,985,344,-0.727294921875,0.2291259765625,-0.2078857421875
15.654,313,3022,1034,346,-0.76123046875,0.175048828125,-0.219482421875
15.663,313,3147,1050,524,-0.7760009765625,0.1343994140625,-0.2430419921875
15.670,315,3147,1034,891,-0.797607421875,0.144287109375,-0.2628173828125
15.697,315,3147,1078,1548,-0.81494140625,0.184326171875,-0.248046875
15.697,300,3147,1108,1997,-0.7611083984375,0.204345703125,-0.2021484375
15.701,321,3147,1209,2368,-0.61083984375,0.23388671875,-0.13427734375
15.714,328,3147,1588,2792,-0.388916015625,0.27001953125,-0.086181640625
15.722,338,3147,1693,3042,-0.18505859375,0.272705078125,-0.1085205078125
15.731,346,3147,1838,3147,-0.1156005859375,0.290771484375,-0.160888671875
15.744,354,3147,2153,3147,-0.265869140625,0.4228515625,-0.1900634765625
15.752,360,3147,2362,3147,-0.6290283203125,0.65869140625,-0.2069091796875
15.766,361,3147,2567,3147,-1.1065673828125,0.8604736328125,-0.275634765625
15.774,363,3147,2633,3147,-1.6239013671875,0.9183349609375,-0.40869140625
15.782,368,3147,2625,3147,-2.10693359375,0.77099609375,-0.5316162109375
15.799,364,3147,2492,3147,-2.42431640625,0.4222412109375,-0.51953125
15.804,364,3147,2247,3147,-2.329833984375,-0.0953369140625,-0.28271484375
15.812,360,3147,2176,3147,-1.642578125,-0.4697265625,0.1416015625
15.820,360,3147,2104,3147,-0.822998046875,-0.1773681640625,0.4149169921875
15.834,356,3147,2039,3147,-0.535400390625,0.5177001953125,0.193359375
15.851,355,3147,2035,3147,-0.7506103515625,0.886962890625,-0.25
15.852,349,3147,2012,3147,-1.197998046875,0.787109375,-0.540771484375
15.870,348,3147,1948,3147,-1.6318359375,0.4716796875,-0.7041015625
15.872,346,3147,1878,3147,-1.72607421875,0.2347412109375,-0.7237548828125
15.896,344,3147,1821,3147,-1.4981689453125,0.1771240234375,-0.5537109375
15.896,316,3147,1579,2584,-1.17578125,0.2161865234375,-0.2989501953125
15.902,328,3147,1472,2321,-0.882568359375,0.3037109375,-0.074462890625
15.910,327,3147,1359,1908,-0.7032470703125,0.37548828125,0.0025634765625
15.924,321,3147,1231,1271,-0.6583251953125,0.3956298828125,-0.0211181640625
15.932,321,3147,1178,801,-0.682373046875,0.34326171875,-0.0137939453125
15.940,318,3147,1111,457,-0.7362060546875,0.223388671875,-0.01025390625
15.959,316,2394,1025,351,-0.8121337890625,0.0731201171875,-0.0704345703125
15.962,315,2026,1045,344,-0.8690185546875,-0.047119140625,-0.1544189453125
15.970,315,1635,1004,344,-0.87158203125,-0.0650634765625,-0.2200927734375
16.000,313,1231,1018,336,-0.8394775390625,0.01513671875,-0.26318359375
16.000,313,1010,951,330,-0.796630859375,0.140869140625,-0.2813720703125
16.000,310,899,898,313,-0.7508544921875,0.262451171875,-0.2828369140625
16.013,309,733,883,328,-0.7210693359375,0.3616943359375,-0.282958984375
16.022,308,710,818,328,-0.69482421875,0.44287109375,-0.2796630859375
16.030,310,726,856,332,-0.664306640625,0.4940185546875,-0.2708740234375
16.044,310,713,868,326,-0.646728515625,0.47802734375,-0.262939453125
16.052,308,689,895,328,-0.6353759765625,0.3802490234375,-0.25390625
16.082,308,693,922,324,-0.6259765625,0.232177734375,-0.2520751953125
16.082,310,673,963,328,-0.6292724609375,0.0941162109375,-0.249267578125
16.082,294,754,968,330,-0.6492919921875,0.0179443359375,-0.229248046875
16.090,312,946,998,327,-0.677978515625,0.0189208984375,-0.1995849609375
16.113,311,1369,1009,332,-0.7017822265625,0.0614013671875,-0.1732177734375
16.113,310,1762,986,336,-0.697998046875,0.0745849609375,-0.144287109375
16.120,313,2424,987,338,-0.62646484375,0.040283203125,-0.11328125
16.134,315,3147,978,829,-0.561279296875,0.0941162109375,-0.1317138671875
16.142,315,3147,1018,1470,-0.6092529296875,0.335205078125,-0.1876220703125
16.150,317,3147,1045,2047,-0.62255859375,0.572509765625,-0.2154541015625
16.167,318,3147,1355,2747,-0.4384765625,0.6265869140625,-0.17333984375
16.182,330,3147,1502,3147,-0.1702880859375,0.5306396484375,-0.0849609375
16.182,336,3147,1609,3147,-0.0411376953125,0.4298095703125,-0.0042724609375
16.197,346,3147,1811,3147,-0.1732177734375,0.453125,0.0028076171875
16.204,349,3147,1864,3147,-0.5460205078125,0.5841064453125,-0.105224609375
16.221,359,3147,2012,3147,-0.5460205078125,0.5841064453125,-0.105224609375
16.221,346,3147,2205,3147,-1.04248046875,0.7252197265625,-0.307373046875
16.232,359,3147,2396,3147,-2.0443115234375,0.7540283203125,-0.687255859375
16.240,361,3147,2344,3147,-2.0443115234375,0.7540283203125,-0.687255859375
16.253,360,3147,2076,3147,-2.518310546875,0.0963134765625,-0.614501953125
16.262,360,3147,2063,3147,-2.0146484375,-0.221923828125,-0.27001953125
16.281,359,3147,2023,3147,-2.0146484375,-0.221923828125,-0.27001953125
16.284,359,3147,2026,3147,-0.491943359375,0.8321533203125,-0.0135498046875
16.294,359,3147,2014,3147,-0.7789306640625,1.4735107421875,-0.5570068359375
16.318,354,3147,1973,3147,-0.7789306640625,1.4735107421875,-0.5570068359375
16.318,348,3147,1877,3147,-1.7652587890625,0.82470703125,-0.832275390625
16.322,344,3147,1761,3147,-1.687744140625,0.199462890625,-0.5010986328125
16.330,336,3147,1632,3147,-1.687744140625,0.199462890625,-0.5010986328125
16.344,328,3147,1348,3147,-1.08203125,0.244384765625,-0.2642822265625
16.352,324,3147,1243,2954,-0.8321533203125,0.38671875,-0.1876220703125
16.360,321,3147,1126,2473,-0.8321533203125,0.38671875,-0.1876220703125
16.387,317,3147,1043,1627,-0.5986328125,0.1505126953125,0.0137939453125
16.387,317,3147,1026,989,-0.5723876953125,0.0670166015625,0.045654296875
16.390,316,3147,992,438,-0.5723876953125,0.0670166015625,0.045654296875
16.413,314,2643,1000,348,-0.5330810546875,0.0325927734375,-0.07177734375
16.413,310,2170,952,347,-0.5718994140625,0.052978515625,-0.1512451171875
16.420,313,1695,865,342,-0.5718994140625,0.052978515625,-0.1512451171875
16.434,309,1258,842,336,-0.7095947265625,0.2921142578125,-0.2958984375
16.442,313,1211,816,330,-0.7095947265625,0.2921142578125,-0.2958984375
16.450,310,1003,749,331,-0.712890625,0.4105224609375,-0.37158203125
16.464,308,834,713,332,-0.694091796875,0.3426513671875,-0.300048828125
16.472,310,902,673,334,-0.694091796875,0.3426513671875,-0.300048828125
16.491,313,959,658,330,-0.6636962890625,0.2171630859375,-0.2171630859375
16.511,308,1151,678,332,-0.603515625,0.2178955078125,-0.2054443359375
16.512,294,1251,705,334,-0.603515625,0.2178955078125,-0.2054443359375
16.512,310,1404,713,332,-0.60498046875,0.360107421875,-0.2259521484375
16.524,310,1904,764,336,-0.6785888671875,0.4534912109375,-0.228515625
16.532,310,2142,765,343,-0.6785888671875,0.4534912109375,-0.228515625
16.540,313,2430,814,346,-0.724365234375,0.3634033203125,-0.2203369140625
16.554,313,3147,841,351,-0.78857421875,0.2353515625,-0.2735595703125
16.562,310,3147,849,683,-0.78857421875,0.2353515625,-0.2735595703125
16.570,313,3147,841,963,-0.8128662109375,0.238037109375,-0.3031005859375
16.594,313,3147,819,1502,-0.82080078125,0.1939697265625,-0.2928466796875
16.597,316,3147,778,1748,-0.82080078125,0.1939697265625,-0.2928466796875
16.614,316,3147,811,2190,-0.824462890625,0.175048828125,-0.228759765625
16.614,316,3147,816,2722,-0.7125244140625,0.3218994140625,-0.1126708984375
16.623,318,3147,846,3061,-0.7125244140625,0.3218994140625,-0.1126708984375
16.632,318,3147,865,3147,-0.5762939453125,0.3890380859375,-0.0330810546875
