time,compression0,compression1,compression2,compression3,accel_x,accel_y,accel_z
0.001,430,3147,2254,2178,-2.0838623046875,0.34228515625,0.2684326171875
0.004,669,3147,2009,636,-2.388916015625,0.203369140625,0.4571533203125
0.017,506,3147,1669,2180,-2.4488525390625,0.129638671875,0.5841064453125
0.026,748,3147,1904,2054,-1.5443115234375,0.55859375,0.0408935546875
0.034,684,3147,1994,2089,-1.5443115234375,0.55859375,0.0408935546875
0.070,589,3147,2102,2076,-1.2232666015625,0.7305908203125,-0.0736083984375
0.075,574,3147,2068,1996,-1.400390625,0.519775390625,0.197265625
0.083,584,3147,2035,1929,-1.5941162109375,0.1787109375,0.4830322265625
0.100,568,3147,1994,1850,-1.5697021484375,-0.00634765625,0.57861328125
0.100,535,3147,1931,1595,-1.4508056640625,-0.0609130859375,0.51416015625
0.107,634,3147,1759,1377,-1.3248291015625,-0.046875,0.353515625
0.108,1178,3147,1160,1081,-1.198974609375,0.0316162109375,0.1407470703125
0.118,1769,3147,371,455,-1.0797119140625,0.1953125,-0.0721435546875
0.123,1713,3147,507,499,-0.972900390625,0.383544921875,-0.2054443359375
0.132,1655,3147,391,346,-0.902587890625,0.478515625,-0.2254638671875
0.146,872,2850,1344,364,-0.87451171875,0.459228515625,-0.1693115234375
0.154,1441,2448,430,316,-0.84814453125,0.398681640625,-0.0712890625
0.162,1398,2168,446,316,-0.7696533203125,0.3406982421875,-0.0169677734375
0.211,1472,1846,334,309,-0.6446533203125,0.27880859375,-0.03173828125
0.211,739,1759,980,338,-0.539794921875,0.227294921875,-0.0526123046875
0.211,567,1650,1278,359,-0.4947509765625,0.193115234375,-0.0804443359375
0.212,346,1557,1437,359,-0.5029296875,0.1666259765625,-0.083251953125
0.214,346,1529,1413,354,-0.549072265625,0.1136474609375,0.0184326171875
0.222,363,1494,1375,346,-0.603271484375,0.0335693359375,0.182861328125
0.236,373,1533,1370,351,-0.6480712890625,-0.0452880859375,0.3094482421875
0.245,371,1583,1370,353,-0.701416015625,-0.0902099609375,0.3438720703125
0.253,369,1629,1395,356,-0.7620849609375,-0.0462646484375,0.2999267578125
0.267,371,1746,1429,354,-0.8150634765625,0.0504150390625,0.236328125
0.275,371,1829,1452,356,-0.853271484375,0.135009765625,0.186767578125
0.292,371,1874,1454,359,-0.8673095703125,0.1768798828125,0.13232421875
0.310,373,1943,1483,359,-0.862060546875,0.1634521484375,0.0638427734375
0.311,373,2000,1481,360,-0.8599853515625,0.1583251953125,0.0068359375
0.313,371,2047,1494,361,-0.8687744140625,0.203125,-0.018798828125
0.327,375,2167,1497,363,-0.8792724609375,0.24365234375,-0.0177001953125
0.335,378,2238,1506,371,-0.89111328125,0.25341796875,0.0108642578125
0.343,378,2382,1527,371,-0.898193359375,0.247802734375,0.058349609375
0.357,383,2552,1564,371,-0.897216796875,0.2064208984375,0.0889892578125
0.365,385,2659,1588,374,-0.883544921875,0.14453125,0.0921630859375
0.373,387,2833,1656,376,-0.8323974609375,0.097412109375,0.0809326171875
0.393,398,3120,1798,379,-0.72509765625,0.0283203125,0.0675048828125
0.395,404,3147,1826,408,-0.56884765625,-0.0413818359375,0.0570068359375
0.403,382,3147,1973,644,-0.3741455078125,-0.0364990234375,0.017578125
0.417,418,3147,2007,933,-0.19189453125,0.008056640625,-0.04443359375
0.426,391,3147,2106,1022,-0.072265625,0.0738525390625,-0.0692138671875
0.433,424,3147,2118,1115,-0.00732421875,0.126220703125,-0.0513916015625
0.446,424,3147,2152,1557,-0.0701904296875,0.06982421875,0.0263671875
0.455,1627,3147,371,571,-0.44482421875,0.0926513671875,0.2393798828125
0.462,579,3147,2128,1999,-1.0531005859375,0.310302734375,0.5091552734375
0.477,639,3147,2217,2257,-1.6451416015625,0.37353515625,0.727783203125
0.490,473,3147,2430,2412,-2.12255859375,0.1270751953125,0.907958984375
0.516,1034,3147,1074,2630,-2.399169921875,-0.112548828125,0.8414306640625
0.517,1051,3147,1559,2497,-2.462890625,0.0234375,0.4300537109375
0.518,773,3147,2461,2601,-2.276611328125,0.442626953125,-0.1202392578125
0.526,899,3147,2089,2544,-1.786376953125,0.80078125,-0.568115234375
0.538,763,3147,2254,2456,-1.49609375,0.870849609375,-0.442138671875
0.545,713,3147,2286,2344,-1.6904296875,0.568115234375,0.252197265625
0.553,679,3147,2292,2197,-1.8292236328125,0.203369140625,0.7987060546875
0.567,644,3147,2231,1920,-1.68994140625,0.12939453125,0.792724609375
0.575,646,3147,2160,1746,-1.5184326171875,0.22802734375,0.430908203125
0.583,639,3147,2076,1514,-1.4219970703125,0.2119140625,0.0823974609375
0.597,490,3147,2123,1183,-1.3350830078125,0.09033203125,-0.09228515625
0.621,398,3147,2113,920,-1.2152099609375,0.040283203125,-0.11572265625
0.621,377,3147,2024,607,-1.067626953125,0.1207275390625,-0.087890625
0.627,1159,2833,1170,371,-0.9072265625,0.201904296875,-0.08251953125
0.639,1120,2449,788,332,-0.7606201171875,0.22216796875,-0.079345703125
0.643,523,1954,1430,373,-0.60888671875,0.24951171875,-0.06005859375
0.657,1377,1762,1123,351,-0.468994140625,0.277099609375,-0.052978515625
0.665,559,1772,1217,318,-0.4083251953125,0.2789306640625,-0.0748291015625
0.673,382,1523,1306,349,-0.421142578125,0.2890625,-0.1357421875
0.695,603,1184,968,341,-0.472412109375,0.3265380859375,-0.17236328125
0.696,966,1107,334,296,-0.5211181640625,0.29443359375,-0.0889892578125
0.703,1132,1071,321,308,-0.557861328125,0.1427001953125,0.0855712890625
0.724,1145,1085,324,309,-0.598876953125,-0.0543212890625,0.2509765625
0.725,390,1045,1050,334,-0.6265869140625,-0.2081298828125,0.34814453125
0.733,512,1081,962,331,-0.6444091796875,-0.23291015625,0.4019775390625
0.751,431,1092,1103,334,-0.6630859375,-0.138916015625,0.4259033203125
0.755,402,1097,1155,338,-0.6917724609375,-0.035400390625,0.3814697265625
0.763,481,1201,1117,336,-0.73876953125,0.0390625,0.2586669921875
0.777,627,1365,971,331,-0.7930908203125,0.1221923828125,0.099853515625
0.785,388,1452,1271,347,-0.8419189453125,0.23876953125,-0.04296875
0.796,462,1474,1199,338,-0.8682861328125,0.3370361328125,-0.13525390625
0.806,424,1700,1312,346,-0.869384765625,0.346435546875,-0.1619873046875
0.831,423,1792,1333,351,-0.8638916015625,0.3094482421875,-0.127685546875
0.832,418,1914,1349,353,-0.85009765625,0.29150390625,-0.068603515625
0.837,437,2158,1351,356,-0.81787109375,0.28173828125,-0.018310546875
0.846,685,2381,1137,351,-0.74658203125,0.2413330078125,0.0108642578125
0.853,697,2607,1170,352,-0.66015625,0.1705322265625,0.02197265625
0.867,779,3080,1280,359,-0.5899658203125,0.1336669921875,0.03271484375
0.875,865,3147,1209,362,-0.50390625,0.0968017578125,0.0263671875
0.883,1774,3147,526,464,-0.50390625,0.0968017578125,0.0263671875
0.899,496,3147,1927,846,-0.391357421875,-0.21630859375,-0.0125732421875
0.905,1945,3147,1268,913,-0.406982421875,-0.303955078125,0.046875
0.939,698,3147,1798,1148,-0.406982421875,-0.303955078125,0.046875
0.939,455,3147,2058,1494,-0.5797119140625,-0.445068359375,0.4810791015625
0.940,442,3147,2263,1878,-0.682861328125,-0.44140625,0.6396484375
0.943,433,3147,2247,2166,-0.682861328125,-0.44140625,0.6396484375
0.956,668,3147,2246,2605,-1.3052978515625,0.4598388671875,0.68115234375
0.965,430,3147,2426,2757,-1.7889404296875,0.8228759765625,0.5975341796875
0.977,1543,3147,763,2282,-1.7889404296875,0.8228759765625,0.5975341796875
0.986,617,3147,2394,2954,-2.4906005859375,0.6556396484375,0.1868896484375
1.001,411,3147,2494,2793,-2.3997802734375,0.57666015625,-0.232421875
1.004,656,3147,2174,2561,-2.3997802734375,0.57666015625,-0.232421875
1.040,830,3147,2032,2530,-1.3778076171875,0.75537109375,-0.561279296875
1.040,522,3147,2428,2543,-1.5123291015625,0.4486083984375,0.0556640625
1.040,2416,3147,669,2172,-1.5123291015625,0.4486083984375,0.0556640625
1.047,1216,3147,1624,2153,-1.712890625,-0.240478515625,0.7728271484375
1.055,1838,3147,861,1613,-1.5391845703125,-0.12939453125,0.614990234375
1.063,2310,3147,404,739,-1.5391845703125,-0.12939453125,0.614990234375
1.076,2205,3147,401,680,-1.3045654296875,0.08251953125,0.212158203125
1.089,2153,3147,401,646,-1.20166015625,0.1512451171875,0.0906982421875
1.093,2108,3147,383,555,-1.20166015625,0.1512451171875,0.0906982421875
1.107,1983,3147,364,455,-0.895263671875,0.4373779296875,-0.0518798828125
1.138,1891,3147,1656,632,-0.895263671875,0.4373779296875,-0.0518798828125
1.139,608,3147,1544,382,-0.7801513671875,0.469482421875,-0.0830078125
1.140,478,2435,1514,382,-0.63427734375,0.32958984375,-0.0574951171875
1.145,513,2191,1411,371,-0.63427734375,0.32958984375,-0.0574951171875
1.154,464,1890,1415,372,-0.5142822265625,0.2325439453125,-0.04833984375
1.182,519,1649,1294,356,-0.3673095703125,0.10498046875,-0.165283203125
1.183,1188,1677,342,308,-0.3673095703125,0.10498046875,-0.165283203125
1.185,527,1497,1271,351,-0.4219970703125,0.05615234375,-0.158447265625
1.209,689,1494,1198,345,-0.61962890625,-0.025634765625,0.2344970703125
1.212,508,1454,1251,348,-0.61962890625,-0.025634765625,0.2344970703125
1.213,456,1441,1287,346,-0.6644287109375,-0.0916748046875,0.3653564453125
1.231,479,1521,1281,347,-0.699462890625,-0.15673828125,0.3526611328125
1.277,479,1600,1323,351,-0.7476806640625,-0.1292724609375,0.2825927734375
1.278,484,1681,1348,348,-0.80810546875,-0.0322265625,0.2139892578125
1.278,478,1700,1352,328,-0.8734130859375,0.0572509765625,0.149658203125
1.279,512,1762,1333,348,-0.923095703125,0.1448974609375,0.0906982421875
1.279,519,1773,1346,348,-0.9427490234375,0.2247314453125,0.038330078125
1.282,519,1892,1357,352,-0.9478759765625,0.2625732421875,0.001708984375
1.296,518,1943,1370,354,-0.9456787109375,0.26953125,-0.0223388671875
1.315,497,2008,1398,359,-0.928466796875,0.2574462890625,-0.049560546875
1.315,495,2072,1411,359,-0.908935546875,0.2249755859375,-0.069580078125
1.335,486,2334,1467,359,-0.89306640625,0.197998046875,-0.06298828125
1.335,497,2422,1468,364,-0.86328125,0.18701171875,-0.031982421875
1.342,512,2658,1483,364,-0.8177490234375,0.1531982421875,0.0029296875
1.356,537,2882,1662,374,-0.729736328125,0.103759765625,0.0234375
1.364,542,2912,1743,382,-0.5714111328125,0.0384521484375,0.0235595703125
1.372,548,3147,1789,384,-0.3909912109375,-0.0550537109375,-0.015380859375
1.386,561,3147,1864,533,-0.22900390625,-0.1141357421875,-0.081787109375
1.394,559,3147,1907,632,-0.107666015625,-0.1458740234375,-0.145751953125
1.402,563,3147,1931,864,-0.0631103515625,-0.2149658203125,-0.1832275390625
1.416,607,3147,1996,1494,-0.1534423828125,-0.255859375,-0.1185302734375
1.439,562,3147,2119,1900,-0.4156494140625,-0.1732177734375,0.1297607421875
1.440,576,3147,2058,2202,-0.8214111328125,0.1466064453125,0.591552734375
1.446,816,3147,2257,2561,-1.1983642578125,0.5865478515625,1.029541015625
1.457,1900,3147,2258,2702,-1.441650390625,0.71435546875,1.1458740234375
1.462,2443,3147,2458,2984,-1.7666015625,0.5406494140625,0.899658203125
1.476,382,3147,2493,3147,-2.25537109375,0.4171142578125,0.510498046875
1.484,2479,3147,2293,3058,-2.65869140625,0.43701171875,0.1583251953125
1.492,2440,3147,362,748,-2.382080078125,0.656982421875,-0.2745361328125
1.513,585,3147,2395,2788,-1.66748046875,1.0128173828125,-0.527587890625
1.515,508,3147,2468,2507,-1.533447265625,1.062744140625,-0.2928466796875
1.522,509,3147,2456,2311,-1.839111328125,0.623291015625,0.1202392578125
1.545,757,3147,2144,2080,-1.9085693359375,0.1666259765625,0.360107421875
1.545,766,3147,2098,1946,-1.6815185546875,0.0272216796875,0.3836669921875
1.552,754,3147,2048,1773,-1.3984375,0.028564453125,0.3193359375
1.566,746,3147,1954,1523,-1.158935546875,-0.005615234375,0.26513671875
1.576,734,3147,1913,1321,-0.97412109375,-0.021240234375,0.20849609375
1.582,753,3147,1803,1085,-0.8634033203125,0.156005859375,0.1270751953125
1.596,2050,3147,361,411,-0.8048095703125,0.3956298828125,0.044921875
1.604,1983,3147,356,371,-0.775146484375,0.439697265625,0.001220703125
1.615,1894,3147,353,323,-0.7559814453125,0.362060546875,0.0247802734375
1.644,1662,2760,364,312,-0.70361328125,0.2745361328125,0.06103515625
1.644,1217,2364,707,329,-0.5938720703125,0.1844482421875,0.0582275390625
1.645,819,2142,1050,347,-0.4716796875,0.1240234375,-0.0050048828125
1.657,383,1755,1452,364,-0.4200439453125,0.1048583984375,-0.1400146484375
1.672,344,1713,1492,361,-0.470947265625,0.102294921875,-0.236572265625
1.675,344,1610,1452,338,-0.591796875,0.1119384765625,-0.1754150390625
1.686,324,1533,1443,356,-0.7200927734375,0.1263427734375,0.0126953125
1.695,332,1509,1415,354,-0.7958984375,0.098876953125,0.19970703125
1.702,328,1521,1409,355,-0.8232421875,0.0338134765625,0.2861328125
1.721,332,1518,1386,349,-0.831787109375,-0.00927734375,0.2568359375
1.724,331,1564,1398,348,-0.8314208984375,-0.0147705078125,0.1746826171875
1.747,332,1584,1370,334,-0.82861328125,0.015380859375,0.1134033203125
1.747,336,1691,1439,348,-0.826904296875,0.086669921875,0.0899658203125
1.754,333,1742,1464,348,-0.82177734375,0.1876220703125,0.0877685546875
1.768,332,1754,1469,352,-0.8096923828125,0.287841796875,0.080322265625
1.776,332,1829,1486,356,-0.792724609375,0.3323974609375,0.044921875
1.784,332,1899,1500,359,-0.7779541015625,0.298828125,-0.0001220703125
1.794,332,2041,1523,361,-0.768310546875,0.233642578125,-0.0185546875
1.806,344,2186,1610,364,-0.7572021484375,0.17138671875,-0.0059814453125
1.822,356,2372,1646,375,-0.7308349609375,0.112060546875,0.0201416015625
1.822,328,2611,1704,378,-0.6798095703125,0.068603515625,0.0316162109375
1.848,359,2953,1949,385,-0.595703125,0.0391845703125,0.0167236328125
1.850,363,3068,2012,391,-0.5020751953125,-0.0006103515625,-0.00634765625
1.854,375,3147,2024,389,-0.3966064453125,-0.0218505859375,-0.0352783203125
1.867,434,3147,2110,614,-0.259521484375,-0.0489501953125,-0.095703125
1.878,398,3147,2230,895,-0.1650390625,-0.0972900390625,-0.133544921875
1.891,438,3147,2243,1175,-0.2039794921875,-0.0438232421875,-0.022705078125
1.897,620,3147,2156,1709,-0.4033203125,0.1090087890625,0.2445068359375
1.905,551,3147,2266,1957,-0.760986328125,0.27734375,0.6177978515625
1.913,922,3147,2471,2190,-1.1632080078125,0.433349609375,0.94921875
1.928,625,3147,2267,2394,-1.51611328125,0.365234375,1.09033203125
1.952,1369,3147,1904,2254,-1.877197265625,0.1168212890625,1.0145263671875
1.952,2604,3147,2456,2532,-2.254638671875,0.0206298828125,0.669677734375
1.963,2560,3147,418,2590,-2.4674072265625,0.2388916015625,0.1553955078125
1.965,711,3147,2359,2587,-2.097900390625,0.674072265625,-0.4151611328125
1.974,574,3147,2340,2557,-1.41748046875,1.0362548828125,-0.7218017578125
1.998,685,3147,2386,2465,-1.2408447265625,1.0423583984375,-0.44873046875
1.999,537,3147,2529,2400,-1.556884765625,0.6541748046875,0.12548828125
2.003,648,3147,2430,2249,-1.556884765625,0.6541748046875,0.12548828125
2.017,673,3147,2356,2060,-1.66162109375,0.0885009765625,0.5562744140625
2.025,666,3147,2357,1949,-1.46826171875,0.1324462890625,0.4046630859375
2.033,656,3147,2320,1811,-1.46826171875,0.1324462890625,0.4046630859375
2.060,658,3147,2202,1560,-1.273193359375,0.2227783203125,0.1883544921875
2.060,643,3147,2137,1340,-1.185791015625,0.317626953125,0.119140625
2.065,630,3147,2083,1120,-1.185791015625,0.317626953125,0.119140625
2.080,606,3147,1967,730,-0.9576416015625,0.4896240234375,-0.03564453125
2.087,584,3147,1890,509,-0.8834228515625,0.3927001953125,-0.0174560546875
2.106,576,3147,1807,390,-0.8834228515625,0.3927001953125,-0.0174560546875
2.108,533,2415,1555,375,-0.6759033203125,0.2181396484375,0.08740234375
2.115,508,1952,1490,373,-0.5240478515625,0.1397705078125,-0.0009765625
2.131,497,1809,1348,356,-0.5240478515625,0.1397705078125,-0.0009765625
2.154,884,1564,999,334,-0.4146728515625,0.0716552734375,-0.3343505859375
2.154,1416,1476,833,327,-0.4996337890625,0.1566162109375,-0.2728271484375
2.155,1101,1343,431,314,-0.4996337890625,0.1566162109375,-0.2728271484375
2.169,508,1287,317,309,-0.6766357421875,0.12548828125,0.1971435546875
2.175,1306,1275,318,308,-0.702880859375,0.0179443359375,0.3778076171875
2.183,1255,1220,337,310,-0.702880859375,0.0179443359375,0.3778076171875
2.203,853,1266,754,326,-0.721435546875,-0.06396484375,0.38134765625
2.205,410,1323,1236,344,-0.72412109375,-0.048828125,0.2615966796875
2.216,378,1404,1276,342,-0.72412109375,-0.048828125,0.2615966796875
2.230,371,1516,1317,346,-0.784423828125,0.1490478515625,0.089111328125
2.235,376,1588,1334,346,-0.784423828125,0.1490478515625,0.089111328125
2.257,375,1664,1359,347,-0.8018798828125,0.267333984375,0.0960693359375
2.258,376,1781,1397,351,-0.8160400390625,0.338134765625,0.101318359375
2.269,377,1929,1411,329,-0.8160400390625,0.338134765625,0.101318359375
2.273,378,2003,1419,353,-0.83447265625,0.2991943359375,0.065185546875
2.287,385,2127,1468,353,-0.87158203125,0.238037109375,0.004638671875
2.295,391,2266,1506,360,-0.87158203125,0.238037109375,0.004638671875
2.311,418,2435,1521,361,-0.8690185546875,0.211669921875,0.0072021484375
2.319,439,2627,1575,360,-0.7862548828125,0.1778564453125,0.006591796875
2.340,475,2799,1638,365,-0.7862548828125,0.1778564453125,0.006591796875
2.340,1357,2984,548,316,-0.708740234375,0.1732177734375,-0.0079345703125
2.359,1973,3147,382,327,-0.4217529296875,0.0986328125,-0.059814453125
2.359,2026,3147,385,369,-0.4217529296875,0.0986328125,-0.059814453125
2.363,2035,3147,424,439,-0.244384765625,0.0208740234375,-0.07177734375
2.377,1454,3147,1874,793,-0.1322021484375,-0.1990966796875,0.015380859375
2.385,1602,3147,345,389,-0.1322021484375,-0.1990966796875,0.015380859375
2.393,2410,3147,359,426,-0.4111328125,-0.304443359375,0.341064453125
2.407,2524,3147,464,516,-1.131103515625,-0.10791015625,0.9268798828125
2.415,2442,3147,1294,1640,-1.131103515625,-0.10791015625,0.9268798828125
2.423,2643,3147,455,526,-1.4512939453125,0.343994140625,0.8336181640625
2.441,2715,3147,323,390,-1.81298828125,0.6143798828125,0.5999755859375
2.463,2712,3147,338,470,-2.1962890625,0.6890869140625,0.3218994140625
2.463,2728,3147,419,1129,-2.4068603515625,0.89697265625,0.0257568359375
2.467,2691,3147,338,442,-2.228759765625,1.1722412109375,-0.2637939453125
2.476,2688,3147,327,411,-1.6962890625,1.280029296875,-0.45654296875
2.484,2672,3147,333,409,-1.3319091796875,1.06591796875,-0.21630859375
2.492,973,3147,2133,1348,-1.448486328125,0.56005859375,0.356689453125
2.506,923,3147,2126,1031,-1.69189453125,0.0257568359375,0.7259521484375
2.521,913,3147,2122,923,-1.72900390625,-0.2376708984375,0.7041015625
2.522,883,3147,2124,830,-1.609130859375,-0.2239990234375,0.4874267578125
2.537,2435,3147,344,359,-1.4798583984375,-0.1090087890625,0.3154296875
2.544,2367,3147,337,332,-1.3326416015625,0.0682373046875,0.223876953125
2.565,2306,3147,338,310,-1.1317138671875,0.264892578125,0.13671875
2.566,2129,3011,330,313,-0.927978515625,0.3646240234375,0.0528564453125
2.576,1981,2648,336,310,-0.740966796875,0.3956298828125,-0.0059814453125
2.582,1704,2310,336,310,-0.541748046875,0.3861083984375,-0.0421142578125
2.596,1557,1880,336,308,-0.3759765625,0.317626953125,-0.0677490234375
2.604,1469,1516,724,310,-0.3284912109375,0.2156982421875,-0.0960693359375
2.612,418,1260,1478,348,-0.4046630859375,0.064697265625,-0.15283203125
2.628,1398,1067,363,311,-0.5321044921875,-0.0723876953125,-0.197509765625
2.640,1092,958,572,316,-0.6192626953125,-0.1162109375,-0.1563720703125
2.644,1306,1017,299,308,-0.636962890625,-0.0828857421875,-0.0404052734375
2.675,1331,958,336,308,-0.6319580078125,0.0155029296875,0.0980224609375
2.675,1331,984,334,308,-0.636474609375,0.1549072265625,0.2142333984375
2.676,1029,998,963,327,-0.6468505859375,0.264892578125,0.2725830078125
2.695,1185,1129,364,308,-0.6573486328125,0.310302734375,0.2529296875
2.695,1452,1185,329,310,-0.6748046875,0.284912109375,0.16748046875
2.703,1476,1266,332,308,-0.71044921875,0.2025146484375,0.0640869140625
2.717,1490,1443,330,309,-0.7625732421875,0.144775390625,-0.000732421875
2.725,1508,1536,332,308,-0.80908203125,0.152587890625,-0.02685546875
2.742,1345,1662,479,313,-0.842529296875,0.1754150390625,-0.0313720703125
2.747,1004,1914,907,330,-0.878662109375,0.2003173828125,-0.0079345703125
2.757,1175,2061,754,327,-0.905029296875,0.242919921875,0.03076171875
2.781,630,2178,1359,354,-0.88720703125,0.2603759765625,0.0584716796875
2.781,1597,2507,364,309,-0.834228515625,0.2154541015625,0.0794677734375
2.785,689,2648,1508,359,-0.7672119140625,0.1649169921875,0.1082763671875
2.793,744,2840,1555,363,-0.6605224609375,0.1346435546875,0.1080322265625
2.807,632,3147,1837,374,-0.5301513671875,0.0606689453125,0.0538330078125
2.816,431,3147,2127,416,-0.4278564453125,-0.0244140625,-0.013427734375
2.823,482,3147,2135,508,-0.349609375,-0.065185546875,-0.0540771484375
2.871,1711,3147,1043,673,-0.2911376953125,-0.070556640625,-0.01513671875
2.872,785,3147,2037,888,-0.303466796875,-0.0159912109375,0.14013671875
2.872,1037,3147,1895,980,-0.4459228515625,0.076416015625,0.3563232421875
2.873,2593,3147,371,490,-0.75,0.0794677734375,0.540771484375
2.875,2662,3147,371,1078,-1.179443359375,0.0074462890625,0.591064453125
2.883,1381,3147,332,409,-1.598876953125,0.0673828125,0.47802734375
2.898,2677,3147,342,433,-1.9390869140625,0.2130126953125,0.3492431640625
2.905,2760,3147,346,442,-2.1798095703125,0.2928466796875,0.311279296875
2.913,1686,3147,734,1987,-2.19921875,0.376953125,0.22802734375
2.927,411,3147,2746,2110,-1.8114013671875,0.588623046875,-0.1011962890625
2.935,1237,3147,2626,2024,-1.25,0.906005859375,-0.4522705078125
2.961,1582,3147,1588,1742,-0.993408203125,1.0450439453125,-0.4483642578125
2.973,2581,3147,553,1055,-1.0911865234375,0.8458251953125,-0.1619873046875
2.975,687,3147,2463,1862,-1.364013671875,0.56787109375,0.1292724609375
2.976,736,3147,2481,1809,-1.602294921875,0.4058837890625,0.2169189453125
2.987,725,3147,2472,1687,-1.6458740234375,0.2867431640625,0.1251220703125
2.997,720,3147,2445,1588,-1.52197265625,0.1954345703125,0.040771484375
3.004,689,3147,2412,1452,-1.349365234375,0.1512451171875,0.0438232421875
3.017,689,3147,2362,1241,-1.1927490234375,0.1708984375,0.1165771484375
3.025,555,3147,2449,1081,-1.07421875,0.2823486328125,0.181640625
3.033,481,3147,2410,946,-0.957763671875,0.3853759765625,0.1717529296875
3.056,574,3147,2254,638,-0.8236083984375,0.4029541015625,0.126220703125
3.057,614,3147,2102,524,-0.716796875,0.410400390625,0.062744140625
3.077,687,3147,1904,390,-0.665283203125,0.4442138671875,-0.03271484375
3.078,1635,2968,346,310,-0.6728515625,0.4560546875,-0.1300048828125
3.085,2008,2695,344,310,-0.7301025390625,0.4130859375,-0.203857421875
3.093,1961,2473,327,308,-0.802490234375,0.302734375,-0.2401123046875
3.107,1852,2215,321,308,-0.8551025390625,0.166259765625,-0.240234375
3.117,695,2024,1419,364,-0.8707275390625,0.0885009765625,-0.2054443359375
3.124,922,1989,939,334,-0.8272705078125,0.0814208984375,-0.1412353515625
3.137,1589,1820,321,308,-0.7672119140625,0.083740234375,-0.06591796875
3.180,1426,1769,328,308,-0.7506103515625,0.0787353515625,0.0096435546875
3.182,426,1557,1262,351,-0.7506103515625,0.0787353515625,0.0096435546875
3.182,1518,1501,330,308,-0.7640380859375,0.116455078125,0.1383056640625
3.183,1528,1477,465,308,-0.7474365234375,0.1214599609375,0.1639404296875
3.184,1018,1445,345,308,-0.7474365234375,0.1214599609375,0.1639404296875
3.192,1163,1486,383,308,-0.7586669921875,0.124755859375,0.14208984375
3.207,369,1469,1536,351,-0.8326416015625,0.205078125,0.0418701171875
3.214,634,1557,1108,334,-0.840576171875,0.2667236328125,0.02490234375
3.222,464,1624,1516,354,-0.840576171875,0.2667236328125,0.02490234375
3.236,495,1779,1422,348,-0.795166015625,0.281982421875,0.052001953125
3.244,1569,1891,337,310,-0.795166015625,0.281982421875,0.052001953125
3.254,1572,1960,364,317,-0.7784423828125,0.2864990234375,0.04638671875
3.267,1488,2108,369,313,-0.76513671875,0.25634765625,-0.0167236328125
3.287,1173,2192,1120,338,-0.76513671875,0.25634765625,-0.0167236328125
3.287,923,2320,1229,347,-0.7760009765625,0.232421875,-0.0299072265625
3.296,378,2538,1877,373,-0.7916259765625,0.1685791015625,-0.031982421875
3.305,364,2555,1973,384,-0.7916259765625,0.1685791015625,-0.031982421875
3.314,383,2725,2047,388,-0.7418212890625,0.1256103515625,-0.0355224609375
3.326,383,3024,2150,391,-0.557861328125,0.031494140625,0.001708984375
3.334,373,3147,2244,399,-0.557861328125,0.031494140625,0.001708984375
3.343,375,3147,2330,445,-0.4630126953125,0.0252685546875,-0.0091552734375
3.358,391,3147,2418,695,-0.398193359375,0.0343017578125,-0.02099609375
3.364,398,3147,2473,891,-0.398193359375,0.0343017578125,-0.02099609375
3.383,408,3147,2557,1056,-0.4100341796875,0.0460205078125,0.05517578125
3.386,419,3147,2677,1503,-0.67431640625,0.1396484375,0.45556640625
3.396,827,3147,2284,1634,-0.67431640625,0.1396484375,0.45556640625
3.402,648,3147,2565,1803,-0.9681396484375,0.3072509765625,0.529296875
3.416,526,3147,2744,2320,-1.78076171875,0.7696533203125,0.2158203125
3.424,513,3147,2753,2435,-1.78076171875,0.7696533203125,0.2158203125
3.432,1034,3147,2580,2498,-2.2177734375,0.5633544921875,0.114501953125
3.446,714,3147,2775,2347,-2.1466064453125,0.35205078125,-0.014892578125
3.464,2188,3147,906,1659,-2.1466064453125,0.35205078125,-0.014892578125
3.464,1508,3147,1656,1960,-1.5400390625,0.49169921875,-0.1522216796875
3.498,667,3147,2647,2075,-1.1221923828125,0.601318359375,-0.1392822265625
3.499,629,3147,2619,2014,-1.308837890625,0.5321044921875,0.1427001953125
3.499,1155,3147,2041,1850,-1.73046875,0.3189697265625,0.436279296875
3.506,944,3147,2261,1635,-1.873291015625,0.1727294921875,0.531494140625
3.514,841,3147,2281,1487,-1.7091064453125,0.2119140625,0.4459228515625
3.522,654,3147,2421,1335,-1.4605712890625,0.2408447265625,0.302734375
3.536,666,3147,2292,1024,-1.248291015625,0.2271728515625,0.1942138671875
3.544,722,3147,2207,860,-1.0556640625,0.306640625,0.0689697265625
3.568,677,3147,2119,653,-0.8843994140625,0.3731689453125,-0.091796875
3.568,625,3048,2052,401,-0.754150390625,0.3416748046875,-0.1981201171875
3.595,497,2703,2076,401,-0.6483154296875,0.286376953125,-0.1943359375
3.595,683,2277,1742,387,-0.5477294921875,0.2303466796875,-0.1290283203125
3.596,594,1878,1531,334,-0.4676513671875,0.1405029296875,-0.114013671875
3.604,1348,1918,330,308,-0.43017578125,0.0211181640625,-0.18896484375
3.613,391,1826,1085,308,-0.4578857421875,-0.0372314453125,-0.266357421875
3.626,559,1546,1132,348,-0.546142578125,0.0213623046875,-0.239013671875
3.634,402,1499,1550,359,-0.638671875,0.0888671875,-0.1015625
3.642,352,1472,1577,357,-0.6910400390625,0.065673828125,0.0826416015625
3.656,359,1575,1595,356,-0.70458984375,0.0142822265625,0.2374267578125
3.664,348,1643,1604,359,-0.7109375,0.012939453125,0.294189453125
3.672,355,1691,1610,360,-0.7340087890625,0.0640869140625,0.239013671875
3.700,344,1822,1617,360,-0.7802734375,0.130859375,0.1370849609375
3.700,356,1863,1641,360,-0.8394775390625,0.1961669921875,0.0582275390625
3.706,363,1970,1653,359,-0.887939453125,0.26513671875,0.010986328125
3.717,361,2010,1697,363,-0.91162109375,0.3084716796875,-0.009765625
3.725,360,2076,1713,371,-0.916748046875,0.31396484375,-0.001220703125
3.733,364,2172,1730,373,-0.916748046875,0.2957763671875,-0.0006103515625
3.747,356,2240,1785,371,-0.926025390625,0.25634765625,-0.0223388671875
3.755,364,2317,1817,375,-0.93701171875,0.2044677734375,-0.04150390625
3.767,356,2319,1863,376,-0.937255859375,0.1485595703125,-0.0546875
3.777,370,2559,1927,376,-0.9334716796875,0.1026611328125,-0.0572509765625
3.805,369,2633,1983,382,-0.92138671875,0.0963134765625,-0.0396728515625
3.807,373,2738,2047,385,-0.8834228515625,0.1263427734375,-0.0111083984375
3.808,373,3044,2115,398,-0.81396484375,0.158203125,0.0203857421875
3.815,376,3094,2178,402,-0.7054443359375,0.16552734375,0.0355224609375
3.823,382,3147,2229,406,-0.5350341796875,0.124267578125,0.012939453125
3.837,384,3147,2337,625,-0.3162841796875,0.0216064453125,-0.02490234375
3.846,388,3147,2430,697,-0.1197509765625,-0.0738525390625,-0.0330810546875
3.853,390,3147,2497,947,0.00244140625,-0.0863037109375,-0.0078125
3.868,414,3147,2604,1198,-0.0335693359375,-0.0428466796875,0.060546875
3.875,416,3147,2656,1412,-0.2738037109375,0.0283203125,0.20751953125
3.894,424,3147,2717,1627,-0.6829833984375,0.058837890625,0.4112548828125
3.897,424,3147,2792,2087,-1.2193603515625,0.1568603515625,0.5428466796875
3.912,426,3147,2859,2271,-1.7828369140625,0.3248291015625,0.48779296875
3.913,431,3147,2882,2432,-2.251953125,0.3551025390625,0.3353271484375
3.927,437,3147,2955,2601,-2.48095703125,0.3685302734375,0.208251953125
3.935,496,3147,2671,2489,-2.33984375,0.4912109375,0.1011962890625
3.943,404,3147,2944,2489,-1.774169921875,0.71875,-0.1292724609375
3.957,487,3147,2871,2375,-1.1842041015625,0.950439453125,-0.309814453125
3.972,499,3147,2867,2321,-1.085205078125,0.9317626953125,-0.1365966796875
3.973,537,3147,2771,2266,-1.4227294921875,0.6373291015625,0.2073974609375
3.998,496,3147,2813,2105,-1.7581787109375,0.3399658203125,0.3758544921875
3.998,481,3147,2780,1912,-1.801513671875,0.2235107421875,0.3096923828125
4.005,484,3147,2758,1862,-1.6661376953125,0.2373046875,0.1612548828125
4.018,473,3147,2671,1627,-1.52294921875,0.231201171875,0.0450439453125
4.025,463,3147,2601,1374,-1.390380859375,0.2109375,0.015380859375
4.033,391,3147,2601,1178,-1.208740234375,0.291259765625,0.0233154296875
4.047,567,3147,2334,826,-0.9959716796875,0.390625,0.02490234375
4.055,614,3147,2178,594,-0.832275390625,0.393798828125,0.017578125
4.063,865,3147,1727,384,-0.7388916015625,0.3563232421875,0.01318359375
4.077,445,2205,1951,400,-0.6729736328125,0.3150634765625,-0.0006103515625
4.102,406,1811,1770,383,-0.6011962890625,0.217529296875,-0.078857421875
4.102,472,1598,1521,369,-0.520263671875,0.0430908203125,-0.2225341796875
4.107,347,1222,1529,356,-0.4879150390625,-0.0853271484375,-0.341796875
4.120,1464,1173,328,308,-0.54736328125,-0.056884765625,-0.329833984375
4.124,465,1038,1248,336,-0.631103515625,0.044677734375,-0.1688232421875
4.137,1189,895,1175,330,-0.6688232421875,0.0885009765625,0.0618896484375
4.145,923,923,382,311,-0.6591796875,0.0528564453125,0.224853515625
4.153,1202,906,382,308,-0.6326904296875,0.0233154296875,0.245849609375
4.167,1258,949,330,310,-0.6201171875,0.052490234375,0.1785888671875
4.175,487,938,1148,331,-0.6204833984375,0.0831298828125,0.0914306640625
4.183,479,947,1185,332,-0.6322021484375,0.0672607421875,0.02197265625
4.203,632,1108,1101,328,-0.6734619140625,0.0794677734375,0.0013427734375
4.205,973,1226,769,323,-0.7305908203125,0.1839599609375,0.03955078125
4.215,740,1323,963,328,-0.7764892578125,0.3184814453125,0.0972900390625
4.227,740,1434,1122,334,-0.80517578125,0.4063720703125,0.1141357421875
4.235,599,1537,1243,338,-0.821533203125,0.4019775390625,0.0675048828125
4.243,391,1691,1474,353,-0.833251953125,0.3172607421875,0.0013427734375
4.257,577,1996,1452,356,-0.8280029296875,0.2318115234375,-0.0357666015625
4.265,594,2220,1572,359,-0.78466796875,0.174560546875,-0.029052734375
4.280,619,2354,1686,364,-0.78466796875,0.174560546875,-0.029052734375
4.287,518,2662,2089,382,-0.622314453125,0.040771484375,0.0450439453125
4.304,523,2881,2072,385,-0.5277099609375,0.009765625,0.0184326171875
4.304,513,3023,2190,391,-0.5277099609375,0.009765625,0.0184326171875
4.317,533,3147,2286,439,-0.301025390625,-0.052978515625,-0.1031494140625
4.332,537,3147,2359,673,-0.205810546875,-0.0809326171875,-0.1527099609375
4.333,540,3147,2443,846,-0.205810546875,-0.0809326171875,-0.1527099609375
4.348,469,3147,2635,1258,-0.455322265625,-0.08349609375,0.0377197265625
4.358,445,3147,2701,1560,-0.8695068359375,0.0389404296875,0.2891845703125
4.363,452,3147,2749,1861,-0.8695068359375,0.0389404296875,0.2891845703125
4.382,546,3147,2660,2220,-1.7847900390625,0.6295166015625,0.680908203125
4.385,1759,3147,1914,2161,-2.1971435546875,0.5831298828125,0.733642578125
4.393,1830,3147,391,2007,-2.1971435546875,0.5831298828125,0.733642578125
4.413,526,3147,645,2127,-2.3255615234375,0.529296875,0.203369140625
4.415,2790,3147,846,1783,-1.7999267578125,0.837158203125,-0.3834228515625
4.423,2375,3147,1125,1757,-1.7999267578125,0.837158203125,-0.3834228515625
4.440,2080,3147,1351,1786,-1.31884765625,0.8929443359375,-0.4095458984375
4.446,2938,3147,441,778,-1.613525390625,0.423828125,0.1500244140625
4.456,2912,3147,445,763,-1.613525390625,0.423828125,0.1500244140625
4.469,2780,3147,470,765,-1.701171875,-0.080322265625,0.503173828125
4.487,2715,3147,594,894,-1.5323486328125,-0.0386962890625,0.347900390625
4.487,2685,3147,400,567,-1.5323486328125,-0.0386962890625,0.347900390625
4.511,1773,3147,952,884,-1.2623291015625,0.107666015625,0.15576171875
4.511,1954,3147,980,705,-1.2623291015625,0.107666015625,0.15576171875
4.513,2194,3147,958,631,-1.1007080078125,0.2501220703125,0.0968017578125
4.527,2323,3147,1892,391,-0.7322998046875,0.27880859375,-0.03759765625
4.536,404,2881,2379,419,-0.7322998046875,0.27880859375,-0.03759765625
4.548,409,2608,2233,404,-0.6121826171875,0.295166015625,-0.0299072265625
4.563,1980,2072,348,309,-0.452392578125,0.25732421875,-0.098388671875
4.565,1864,1915,418,309,-0.452392578125,0.25732421875,-0.098388671875
4.573,382,1676,1732,378,-0.442138671875,0.0975341796875,-0.2384033203125
4.590,1216,1504,1641,361,-0.6015625,0.0517578125,-0.26220703125
4.613,820,1343,344,308,-0.6015625,0.0517578125,-0.26220703125
4.613,722,1282,1045,307,-0.6436767578125,0.1251220703125,-0.0738525390625
4.617,669,1289,1351,348,-0.6192626953125,0.095703125,0.349853515625
4.625,1468,1386,347,309,-0.6192626953125,0.095703125,0.349853515625
4.636,1428,1455,439,315,-0.609130859375,0.059326171875,0.3558349609375
4.654,1382,1584,332,308,-0.700439453125,0.0753173828125,0.14404296875
4.657,1582,1686,338,308,-0.700439453125,0.0753173828125,0.14404296875
4.663,1627,1801,348,310,-0.7799072265625,0.111328125,0.072265625
4.677,1579,1968,402,310,-0.9072265625,0.2369384765625,0.03759765625
4.694,1306,1997,707,326,-0.9072265625,0.2369384765625,0.03759765625
4.695,1755,2087,354,309,-0.941162109375,0.27978515625,0.0322265625
4.717,582,2183,1669,369,-0.9705810546875,0.291015625,0.0045166015625
4.717,723,2207,1524,360,-0.994384765625,0.29052734375,-0.028564453125
4.723,1108,2303,1188,343,-1.002685546875,0.2757568359375,-0.051025390625
4.740,487,2478,1912,372,-0.998046875,0.2418212890625,-0.052490234375
4.745,792,2494,1766,382,-0.9708251953125,0.196044921875,-0.02978515625
4.759,1064,2660,1302,347,-0.912841796875,0.1591796875,-0.003173828125
4.767,2068,2875,788,354,-0.8270263671875,0.13525390625,0.0164794921875
4.775,1429,2935,1987,401,-0.68359375,0.0904541015625,0.009521484375
4.792,692,2989,499,384,-0.442626953125,-0.018310546875,-0.0390625
4.810,1869,3147,943,388,-0.121337890625,-0.1923828125,-0.1175537109375
4.815,1816,3147,400,400,0.179443359375,-0.3438720703125,-0.17041015625
4.815,990,3147,1957,788,0.2659912109375,-0.3646240234375,-0.103759765625
4.831,1266,3147,1775,1504,-0.033447265625,-0.242919921875,0.1328125
4.837,2611,3147,465,1424,-0.658203125,-0.0355224609375,0.4464111328125
4.843,1486,3147,883,986,-1.312255859375,0.3897705078125,0.6075439453125
4.868,946,3147,2527,2700,-1.7294921875,0.8837890625,0.45654296875
4.869,431,3147,2901,2859,-1.904052734375,1.058349609375,0.2420654296875
4.873,453,3147,3136,3147,-2.0052490234375,0.8863525390625,0.1910400390625
4.892,3018,3147,364,599,-2.09033203125,0.67431640625,0.2344970703125
4.895,3104,3147,346,497,-2.1005859375,0.70556640625,0.2158203125
4.906,2735,3147,501,910,-1.8277587890625,0.795654296875,-0.0911865234375
4.921,445,3147,3127,2539,-1.3560791015625,0.6844482421875,-0.4476318359375
4.925,432,3147,3121,2505,-1.171142578125,0.42138671875,-0.4276123046875
4.933,419,3147,3134,2461,-1.361328125,0.171875,-0.0843505859375
4.947,419,3147,3073,2296,-1.6075439453125,-0.052978515625,0.2725830078125
4.959,416,3147,3018,2128,-1.6580810546875,-0.193603515625,0.4599609375
4.972,414,3147,2970,1931,-1.52099609375,-0.1314697265625,0.471923828125
4.977,411,3147,2851,1590,-1.3177490234375,0.0152587890625,0.3724365234375
4.985,414,3147,2797,1365,-1.1336669921875,0.1441650390625,0.2489013671875
4.996,415,3147,2710,1236,-0.986328125,0.29150390625,0.1414794921875
5.007,431,3147,2557,922,-0.87255859375,0.3990478515625,0.0616455078125
5.019,573,3147,2324,765,-0.803466796875,0.406005859375,-0.0030517578125
5.023,547,3147,2268,584,-0.7696533203125,0.3878173828125,-0.0736083984375
5.042,2268,3126,344,310,-0.753662109375,0.3773193359375,-0.1265869140625
5.055,2007,2840,336,310,-0.75146484375,0.3316650390625,-0.1448974609375
5.055,1638,2565,351,310,-0.753662109375,0.2518310546875,-0.1181640625
5.067,1931,2098,373,310,-0.7437744140625,0.1785888671875,-0.0938720703125
5.080,966,1852,440,316,-0.7239990234375,0.14990234375,-0.1331787109375
5.083,872,1608,1519,373,-0.71435546875,0.150146484375,-0.176025390625
5.097,1540,1497,383,309,-0.7396240234375,0.15966796875,-0.1435546875
5.105,351,1251,1529,359,-0.796875,0.175537109375,-0.0367431640625
5.128,1380,1239,923,347,-0.8355712890625,0.174560546875,0.099853515625
5.128,1415,1117,331,308,-0.8250732421875,0.1312255859375,0.205078125
5.138,1404,1123,344,310,-0.779296875,0.04931640625,0.224365234375
5.145,1386,1163,353,310,-0.7216796875,-0.0169677734375,0.150634765625
5.157,1390,1217,354,311,-0.685302734375,-0.0235595703125,0.0556640625
5.165,1385,1265,354,309,-0.693115234375,0.03076171875,0.026611328125
5.173,1386,1316,354,309,-0.7271728515625,0.1236572265625,0.0606689453125
5.187,1411,1416,361,310,-0.7601318359375,0.224853515625,0.0966796875
5.200,1447,1497,369,310,-0.7779541015625,0.2967529296875,0.099365234375
5.203,1428,1529,383,309,-0.7779541015625,0.301025390625,0.05859375
5.225,1529,1727,354,310,-0.779541015625,0.228759765625,-0.002197265625
5.225,1494,1787,411,314,-0.7919921875,0.1314697265625,-0.0447998046875
5.233,1590,2008,411,315,-0.78662109375,0.0762939453125,-0.0692138671875
5.247,830,2240,1462,357,-0.76025390625,0.0814208984375,-0.07275390625
5.257,860,2498,1681,378,-0.7198486328125,0.126953125,-0.0340576171875
5.263,933,2725,1974,390,-0.63330078125,0.1663818359375,0.02685546875
5.277,2192,3147,342,308,-0.506103515625,0.1259765625,0.057373046875
5.291,1865,3147,1319,323,-0.3701171875,0.00244140625,0.0419921875
5.293,1880,3147,356,356,-0.2247314453125,-0.09619140625,-0.013916015625
5.307,1655,3147,418,441,-0.1055908203125,-0.1025390625,-0.0709228515625
5.332,1786,3147,1122,904,-0.1341552734375,-0.0545654296875,-0.009765625
5.332,1850,3147,1611,1258,-0.39599609375,0.033203125,0.187744140625
5.341,588,3147,2093,1931,-0.879150390625,0.3328857421875,0.4434814453125
5.345,1450,3147,1715,2089,-1.4190673828125,0.7642822265625,0.6268310546875
5.355,2723,3147,442,894,-1.87646484375,0.8736572265625,0.576904296875
5.370,2254,3147,2105,2925,-2.2427978515625,0.661376953125,0.3822021484375
5.375,462,3147,3007,2925,-2.457275390625,0.43115234375,0.2667236328125
5.383,493,3147,2213,2559,-2.38134765625,0.3677978515625,0.1826171875
5.406,1134,3147,2195,2381,-1.8521728515625,0.5374755859375,-0.1494140625
5.406,1063,3147,2282,2323,-1.2637939453125,0.6654052734375,-0.5535888671875
5.413,658,3147,2930,2407,-1.2637939453125,0.6654052734375,-0.5535888671875
5.434,454,3147,2990,2275,-1.5479736328125,0.1876220703125,-0.219970703125
5.436,1236,3147,2215,2080,-1.837158203125,-0.1236572265625,0.15625
5.462,551,3147,2861,2058,-1.837158203125,-0.1236572265625,0.15625
5.477,530,3147,2769,1689,-1.5023193359375,-0.1085205078125,0.34423828125
5.485,473,3147,2769,1544,-1.245849609375,0.0201416015625,0.2840576171875
5.489,538,3147,2645,1422,-1.245849609375,0.0201416015625,0.2840576171875
5.504,853,3147,2050,1166,-0.9239501953125,0.195068359375,0.1083984375
5.504,790,3147,2161,1045,-0.845458984375,0.2650146484375,0.0045166015625
5.512,827,3147,2050,844,-0.845458984375,0.2650146484375,0.0045166015625
5.520,414,3147,2386,501,-0.7791748046875,0.31396484375,-0.0986328125
5.536,416,3020,2298,423,-0.7432861328125,0.3428955078125,-0.0887451171875
5.537,490,2648,2138,390,-0.7432861328125,0.3428955078125,-0.0887451171875
5.547,834,2337,1413,378,-0.6724853515625,0.38134765625,-0.0660400390625
5.555,547,2053,1411,344,-0.653564453125,0.3292236328125,-0.105712890625
5.563,1634,1900,1326,336,-0.653564453125,0.3292236328125,-0.105712890625
5.577,725,1783,1039,347,-0.683837890625,0.2120361328125,-0.2344970703125
5.585,1386,1640,372,311,-0.7474365234375,0.162353515625,-0.1600341796875
5.595,1529,1538,348,310,-0.7474365234375,0.162353515625,-0.1600341796875
5.618,1435,1331,383,313,-0.8114013671875,0.0299072265625,0.174560546875
5.618,428,1262,1441,348,-0.7750244140625,-0.0675048828125,0.275390625
5.637,922,1258,859,328,-0.7750244140625,-0.0675048828125,0.275390625
5.638,1508,1323,321,308,-0.72265625,-0.078857421875,0.154296875
5.645,1509,1365,321,308,-0.72265625,-0.078857421875,0.154296875
5.653,1456,1411,564,315,-0.73291015625,0.0640869140625,0.069580078125
5.667,1550,1550,323,308,-0.7587890625,0.277099609375,0.01611328125
5.675,1552,1632,330,308,-0.7587890625,0.277099609375,0.01611328125
5.683,1536,1750,327,306,-0.760986328125,0.292724609375,0.0029296875
5.697,1582,1952,325,308,-0.7371826171875,0.195068359375,-0.055908203125
5.740,1651,2075,330,310,-0.7371826171875,0.195068359375,-0.055908203125
5.740,1744,2195,327,308,-0.745849609375,0.146728515625,-0.070556640625
5.741,1904,2567,324,308,-0.76513671875,0.157958984375,-0.0484619140625
5.741,1961,2704,684,321,-0.76513671875,0.157958984375,-0.0484619140625
5.743,1108,3042,1137,344,-0.71435546875,0.1622314453125,-0.0018310546875
5.757,2091,3147,765,334,-0.4453125,0.0465087890625,-0.02099609375
5.768,2063,3147,385,344,-0.4453125,0.0465087890625,-0.02099609375
5.773,2350,3147,346,570,-0.2674560546875,0.0008544921875,-0.0687255859375
5.787,2415,3147,334,376,-0.0804443359375,-0.029541015625,-0.15576171875
5.795,391,3147,2560,1274,-0.0804443359375,-0.029541015625,-0.15576171875
5.804,382,3147,2587,1666,-0.2791748046875,0.054443359375,0.0064697265625
5.842,413,3147,2645,2129,-1.3070068359375,0.531005859375,0.73681640625
5.842,409,3147,2717,2263,-1.3070068359375,0.531005859375,0.73681640625
5.842,427,3147,2759,2460,-1.7706298828125,0.696533203125,0.92431640625
5.847,466,3147,2823,2638,-2.355712890625,0.6436767578125,0.482666015625
5.856,466,3147,2868,2567,-2.355712890625,0.6436767578125,0.482666015625
5.865,485,3147,2859,2437,-2.3974609375,0.54931640625,-0.00146484375
5.877,473,3147,2880,2382,-2.033935546875,0.47412109375,-0.5426025390625
5.885,481,3147,2891,2368,-1.494873046875,0.4302978515625,-0.8048095703125
5.893,472,3147,2901,2333,-1.3602294921875,0.2584228515625,-0.418212890625
5.907,464,3147,2850,2170,-1.5421142578125,0.0521240234375,0.23388671875
5.916,464,3147,2831,2060,-1.63623046875,-0.097900390625,0.5693359375
5.946,456,3147,2790,1873,-1.5582275390625,-0.1229248046875,0.5074462890625
5.946,447,3147,2695,1561,-1.4344482421875,-0.0281982421875,0.288818359375
5.946,411,3147,2698,1397,-1.3280029296875,0.1053466796875,0.1474609375
5.957,438,3147,2563,1236,-1.21044921875,0.2706298828125,0.09228515625
5.969,431,3147,2430,899,-1.076171875,0.3883056640625,0.032958984375
5.977,423,3147,2361,693,-0.963623046875,0.3780517578125,-0.043212890625
5.983,424,3147,2292,479,-0.8743896484375,0.3255615234375,-0.0997314453125
5.997,423,2737,2139,404,-0.7841796875,0.2957763671875,-0.102294921875
6.005,411,2409,1996,391,-0.6673583984375,0.2760009765625,-0.0789794921875
6.021,388,2089,1838,400,-0.5260009765625,0.2208251953125,-0.101806640625
6.027,376,1746,1627,378,-0.425048828125,0.1365966796875,-0.1998291015625
6.063,371,1709,1557,371,-0.42626953125,0.0859375,-0.3016357421875
6.063,351,1596,1537,360,-0.51953125,0.10400390625,-0.2772216796875
6.063,365,1443,1456,354,-0.6513671875,0.17041015625,-0.0828857421875
6.065,371,1336,1419,356,-0.753662109375,0.2076416015625,0.181884765625
6.073,373,1323,1398,348,-0.77587890625,0.17822265625,0.34228515625
6.087,364,1348,1412,356,-0.7369384765625,0.11572265625,0.3189697265625
6.096,364,1430,1428,351,-0.6937255859375,0.070068359375,0.187255859375
6.104,361,1518,1456,351,-0.682861328125,0.0643310546875,0.0628662109375
6.122,371,1656,1504,352,-0.71630859375,0.1112060546875,0.0177001953125
6.125,372,1757,1545,356,-0.7720947265625,0.185546875,0.0428466796875
6.133,375,1848,1575,359,-0.80615234375,0.2213134765625,0.0721435546875
6.149,378,1983,1640,371,-0.8145751953125,0.1978759765625,0.0780029296875
6.159,384,2024,1681,371,-0.8193359375,0.161865234375,0.0673828125
6.163,388,2129,1786,376,-0.816650390625,0.156982421875,0.0382080078125
6.177,403,2477,1961,376,-0.811767578125,0.1856689453125,0.008544921875
6.185,406,2608,2018,388,-0.812255859375,0.212158203125,-0.0018310546875
6.195,411,2820,2078,400,-0.8001708984375,0.2020263671875,-0.0079345703125
6.207,416,3140,2166,387,-0.7808837890625,0.153076171875,-0.01220703125
6.215,411,3147,2223,462,-0.7474365234375,0.10546875,0.0028076171875
6.223,418,3147,2281,607,-0.665771484375,0.094970703125,0.0123291015625
6.258,411,3147,2396,774,-0.549072265625,0.0877685546875,-0.0001220703125
6.258,419,3147,2479,860,-0.42578125,0.0697021484375,-0.0347900390625
6.258,426,3147,2507,998,-0.3153076171875,0.0491943359375,-0.08154296875
6.273,433,3147,2648,1455,-0.2938232421875,0.053955078125,-0.0648193359375
6.275,424,3147,2727,1732,-0.42333984375,0.1002197265625,0.0631103515625
6.283,437,3147,2760,1934,-0.72314453125,0.187744140625,0.243408203125
6.297,442,3147,2843,2298,-1.1649169921875,0.3997802734375,0.4354248046875
6.305,442,3147,2918,2593,-1.6064453125,0.5789794921875,0.5595703125
6.313,444,3147,2944,2824,-2.001953125,0.44580078125,0.544189453125
6.327,464,3147,2966,2966,-2.3092041015625,0.21875,0.4090576171875
6.335,526,3147,2861,2872,-2.355712890625,0.1842041015625,0.176513671875
6.360,679,3147,2875,2851,-1.9395751953125,0.3206787109375,-0.1617431640625
6.360,480,3147,3000,2877,-1.3387451171875,0.46826171875,-0.415771484375
6.366,478,3147,2991,2850,-1.243896484375,0.4388427734375,-0.2354736328125
6.373,473,3147,2981,2801,-1.5833740234375,0.26953125,0.21484375
6.387,462,3147,2959,2672,-1.751708984375,0.1558837890625,0.482177734375
6.396,442,3147,2918,2489,-1.6259765625,0.218017578125,0.4647216796875
6.403,432,3147,2871,2306,-1.4285888671875,0.3448486328125,0.30517578125
6.417,414,3147,2765,1890,-1.2666015625,0.3282470703125,0.159912109375
6.432,401,3147,2700,1650,-1.1446533203125,0.2425537109375,0.0966796875
6.433,382,3147,2612,1450,-1.0460205078125,0.282470703125,0.0743408203125
6.453,375,3147,2498,1091,-0.955810546875,0.34765625,0.033935546875
6.465,378,3147,2430,891,-0.8856201171875,0.3236083984375,-0.0242919921875
6.465,363,3147,2344,705,-0.8255615234375,0.2843017578125,-0.05126953125
6.480,371,3084,2174,401,-0.7471923828125,0.2589111328125,-0.0548095703125
6.487,356,2521,2037,402,-0.6502685546875,0.2364501953125,-0.073974609375
6.496,348,2141,1867,401,-0.539794921875,0.2015380859375,-0.129638671875
6.507,346,1718,1640,373,-0.4619140625,0.123046875,-0.230224609375
6.517,338,1640,1543,365,-0.4822998046875,0.0572509765625,-0.2822265625
6.523,334,1596,1483,364,-0.575927734375,0.0621337890625,-0.1998291015625
6.537,706,1523,334,323,-0.6695556640625,0.0928955078125,-0.0010986328125
6.557,347,1380,1404,354,-0.718994140625,0.082763671875,0.21728515625
6.558,414,1353,1333,345,-0.718994140625,0.082763671875,0.21728515625
6.570,369,1357,1391,348,-0.726806640625,-0.0762939453125,0.28369140625
6.575,369,1411,1416,352,-0.7447509765625,-0.102783203125,0.17041015625
6.583,371,1456,1424,352,-0.7447509765625,-0.102783203125,0.17041015625
6.597,371,1608,1437,349,-0.84912109375,0.056640625,0.006591796875
6.609,371,1652,1469,354,-0.899169921875,0.161865234375,-0.02490234375
6.613,373,1662,1478,354,-0.899169921875,0.161865234375,-0.02490234375
6.633,371,1757,1494,356,-0.90185546875,0.277587890625,-0.0628662109375
6.637,373,1835,1540,363,-0.8916015625,0.2725830078125,-0.07568359375
6.658,378,1800,1561,362,-0.8916015625,0.2725830078125,-0.07568359375
6.659,373,1949,1650,359,-0.8985595703125,0.2550048828125,-0.08837890625
6.674,370,2098,1722,370,-0.907470703125,0.2259521484375,-0.0850830078125
6.675,371,2206,1815,373,-0.907470703125,0.2259521484375,-0.0850830078125
6.687,410,2599,1925,375,-0.8692626953125,0.149169921875,-0.0518798828125
6.697,431,2757,1985,385,-0.81005859375,0.1092529296875,-0.0020751953125
6.703,407,2929,2060,393,-0.81005859375,0.1092529296875,-0.0020751953125
6.722,428,3147,2156,402,-0.584716796875,0.06298828125,0.073974609375
6.727,481,3147,2203,465,-0.437744140625,0.0137939453125,0.054443359375
6.737,442,3147,2281,642,-0.437744140625,0.0137939453125,0.054443359375
6.764,525,3147,2316,918,-0.2640380859375,-0.0902099609375,-0.0850830078125
6.765,644,3147,2010,1131,-0.390625,-0.00634765625,-0.068115234375
6.765,706,3147,1342,1189,-0.390625,-0.00634765625,-0.068115234375
6.790,765,3147,646,1010,-1.100830078125,0.2906494140625,0.312744140625
6.790,551,3147,2586,1855,-1.100830078125,0.2906494140625,0.312744140625
6.793,482,3147,2710,1997,-1.4290771484375,0.2847900390625,0.4637451171875
6.802,438,3147,2788,2258,-1.6153564453125,0.3294677734375,0.4803466796875
6.816,507,3147,2792,2445,-1.754638671875,0.4979248046875,0.2838134765625
6.824,504,3147,2853,2576,-1.754638671875,0.4979248046875,0.2838134765625
6.843,501,3147,2851,2493,-1.854248046875,0.455078125,0.1551513671875
6.846,457,3147,2948,2435,-1.492431640625,0.43505859375,-0.180419921875
6.869,466,3147,2943,2412,-1.492431640625,0.43505859375,-0.180419921875
6.869,567,3147,2813,2243,-1.2862548828125,0.44091796875,-0.1363525390625
6.877,468,3147,2884,2122,-1.55615234375,0.13818359375,0.380615234375
6.887,466,3147,2851,2047,-1.55615234375,0.13818359375,0.380615234375
6.893,461,3147,2785,1983,-1.5458984375,-0.0023193359375,0.4276123046875
6.907,430,3147,2698,1750,-1.3863525390625,0.025146484375,0.2125244140625
6.915,441,3147,2601,1627,-1.3863525390625,0.025146484375,0.2125244140625
6.923,442,3147,2521,1428,-1.2906494140625,0.1268310546875,0.095947265625
6.948,404,3147,2419,944,-1.16357421875,0.4053955078125,-0.03466796875
6.948,401,3147,2364,749,-1.16357421875,0.4053955078125,-0.03466796875
6.969,526,3147,2186,418,-1.071044921875,0.428466796875,-0.0313720703125
6.969,951,2176,802,318,-0.71875,0.2313232421875,0.003662109375
6.975,1450,1721,1666,383,-0.71875,0.2313232421875,0.003662109375
6.983,423,1494,1494,370,-0.53466796875,0.1075439453125,-0.118408203125
6.997,468,1318,1216,344,-0.4425048828125,0.036865234375,-0.3101806640625
7.005,426,1201,1184,344,-0.4666748046875,0.0819091796875,-0.3966064453125
7.013,442,1029,1079,338,-0.5501708984375,0.1475830078125,-0.2633056640625
7.027,401,935,1071,338,-0.623291015625,0.1400146484375,0.00830078125
7.035,360,883,1097,338,-0.63671875,0.0775146484375,0.25341796875
7.043,375,894,1092,337,-0.6065673828125,0.002685546875,0.3558349609375
7.060,359,951,1155,336,-0.5899658203125,-0.0408935546875,0.325439453125
7.075,354,989,1213,344,-0.5972900390625,-0.0389404296875,0.24755859375
7.075,356,1098,1275,344,-0.6103515625,-0.01904296875,0.1817626953125
7.087,625,1413,1031,331,-0.6351318359375,0.0233154296875,0.154052734375
7.102,368,1452,1419,353,-0.6795654296875,0.1114501953125,0.1627197265625
7.103,1442,1584,351,304,-0.7261962890625,0.2054443359375,0.1695556640625
7.117,494,1762,1463,359,-0.76220703125,0.248046875,0.1341552734375
7.126,438,1927,1582,363,-0.7886962890625,0.2542724609375,0.0625
7.133,469,2151,1774,369,-0.7945556640625,0.254638671875,0.0029296875
7.147,2018,2579,369,313,-0.769775390625,0.2333984375,-0.01513671875
7.181,1862,2904,354,308,-0.697998046875,0.172119140625,-0.0133056640625
7.182,2231,3104,1148,377,-0.580810546875,0.0760498046875,-0.009033203125
7.182,516,3147,2306,531,-0.4451904296875,-0.0032958984375,-0.00146484375
7.187,521,3147,2259,636,-0.283447265625,-0.0523681640625,-0.0228271484375
7.194,487,3147,2493,927,-0.1234130859375,-0.119140625,-0.082763671875
7.211,1365,3147,1914,1287,-0.1007080078125,-0.1781005859375,-0.0738525390625
7.215,840,3147,2350,1676,-0.3282470703125,-0.1165771484375,0.1171875
7.224,594,3147,2633,2010,-0.823486328125,0.0914306640625,0.4071044921875
7.237,687,3147,2625,2430,-1.44970703125,0.4700927734375,0.6187744140625
7.248,548,3147,2676,2674,-1.990478515625,0.7659912109375,0.6539306640625
7.253,493,3147,2949,2864,-2.4534912109375,0.70654296875,0.5255126953125
7.285,794,3147,2978,2710,-2.78515625,0.5631103515625,0.3162841796875
7.286,2858,3147,1476,2442,-2.49755859375,0.5299072265625,-0.0609130859375
7.286,705,3147,2750,2608,-1.6754150390625,0.6182861328125,-0.4405517578125
7.297,554,3147,2901,2461,-1.28271484375,0.6641845703125,-0.234375
7.305,525,3147,2916,2333,-1.469970703125,0.415283203125,0.35546875
7.315,591,3147,2793,2244,-1.594970703125,0.0528564453125,0.640380859375
7.327,593,3147,2679,2078,-1.51611328125,-0.031005859375,0.5087890625
7.335,559,3147,2657,1933,-1.4163818359375,0.10009765625,0.20654296875
7.351,532,3147,2636,1820,-1.3338623046875,0.126220703125,-0.0101318359375
7.357,537,3147,2519,1480,-1.229736328125,0.127197265625,-0.0631103515625
7.379,1041,3147,2054,1253,-1.09228515625,0.2958984375,-0.0206298828125
7.380,805,3147,2269,1045,-0.95458984375,0.466796875,0.04248046875
7.397,430,3147,2368,725,-0.8621826171875,0.444580078125,0.08203125
7.398,481,3147,2261,500,-0.795654296875,0.323974609375,0.092529296875
7.403,444,3101,2233,419,-0.7041015625,0.239501953125,0.0845947265625
7.422,430,2497,2083,402,-0.5723876953125,0.2159423828125,0.0322265625
7.425,400,2296,2024,405,-0.4451904296875,0.209716796875,-0.037109375
7.434,383,2087,1966,398,-0.40234375,0.1722412109375,-0.1044921875
7.452,364,1794,1768,375,-0.4642333984375,0.105224609375,-0.1541748046875
7.455,360,1770,1709,376,-0.5772705078125,0.0504150390625,-0.11767578125
7.466,362,1666,1640,371,-0.691650390625,0.0435791015625,0.025390625
7.483,359,1616,1546,371,-0.773681640625,0.04150390625,0.214599609375
7.485,356,1635,1527,364,-0.8248291015625,0.0013427734375,0.3486328125
7.494,356,1693,1536,361,-0.8607177734375,-0.03271484375,0.36962890625
7.502,356,1681,1528,362,-0.8841552734375,-0.0054931640625,0.2916259765625
7.516,354,1761,1506,359,-0.898681640625,0.0731201171875,0.178955078125
7.530,356,1757,1501,360,-0.906494140625,0.154296875,0.09423828125
7.532,691,1806,351,318,-0.9052734375,0.2191162109375,0.05419921875
7.546,555,1828,1224,344,-0.8856201171875,0.265869140625,0.03564453125
7.555,376,1862,1453,359,-0.851806640625,0.283203125,0.0142822265625
7.585,419,2003,1472,359,-0.851806640625,0.283203125,0.0142822265625
7.585,478,2061,1443,332,-0.8565673828125,0.2808837890625,-0.0335693359375
7.585,479,2118,1429,333,-0.86669921875,0.254638671875,-0.035400390625
7.594,484,2246,1536,359,-0.86669921875,0.254638671875,-0.035400390625
7.606,519,2493,1704,360,-0.773681640625,0.1026611328125,-0.027099609375
7.614,513,2648,1824,371,-0.7384033203125,0.084716796875,0.0203857421875
7.623,554,2757,1757,371,-0.7384033203125,0.084716796875,0.0203857421875
7.636,642,3044,1878,383,-0.5386962890625,0.1197509765625,0.1640625
7.644,669,3147,1880,388,-0.3997802734375,0.084716796875,0.16162109375
7.657,586,3147,2122,501,-0.3997802734375,0.084716796875,0.16162109375
7.666,484,3147,2381,816,-0.1778564453125,0.0230712890625,-0.0513916015625
7.687,806,3147,2249,949,-0.202392578125,0.0423583984375,-0.1451416015625
7.687,473,3147,2479,1163,-0.202392578125,0.0423583984375,-0.1451416015625
7.696,490,3147,2498,1529,-0.730712890625,0.1092529296875,0.0390625
7.704,712,3147,2374,1715,-1.0545654296875,0.06103515625,0.3048095703125
7.712,642,3147,2503,2075,-1.0545654296875,0.06103515625,0.3048095703125
7.785,548,3147,2715,2493,-1.70458984375,0.0703125,0.8612060546875
7.785,445,3147,2891,2702,-1.8818359375,0.119873046875,0.88525390625
7.785,473,3147,2887,2882,-1.8818359375,0.119873046875,0.88525390625
7.786,505,3147,2701,2984,-2.088134765625,0.3831787109375,0.289794921875
7.786,1282,3147,891,619,-1.8199462890625,0.6748046875,-0.25341796875
7.791,2683,3147,431,793,-1.8199462890625,0.6748046875,-0.25341796875
7.791,495,3147,2877,2863,-1.4625244140625,0.963134765625,-0.185546875
7.796,687,3147,2647,2728,-1.4625244140625,0.963134765625,-0.185546875
7.802,684,3147,2590,2637,-1.6326904296875,0.6865234375,0.343017578125
7.816,675,3147,2519,2277,-1.4901123046875,0.2484130859375,0.4547119140625
7.826,666,3147,2477,2076,-1.4901123046875,0.2484130859375,0.4547119140625
7.833,658,3147,2435,1952,-1.3848876953125,0.17724609375,0.2447509765625
7.853,639,3147,2345,1401,-1.160888671875,0.1092529296875,0.1199951171875
7.854,632,3147,2296,1163,-1.160888671875,0.1092529296875,0.1199951171875
7.862,437,3147,2440,947,-1.03955078125,0.1751708984375,0.1424560546875
7.876,654,3147,2113,540,-0.8907470703125,0.2421875,0.0897216796875
7.889,740,3147,1915,401,-0.8907470703125,0.2421875,0.0897216796875
7.903,648,3031,1891,400,-0.8349609375,0.2843017578125,0.05078125
7.906,508,2437,1762,378,-0.64501953125,0.302978515625,-0.0433349609375
7.915,473,2192,1653,379,-0.64501953125,0.302978515625,-0.0433349609375
7.922,519,1906,1447,363,-0.5736083984375,0.1990966796875,-0.093994140625
7.936,413,1497,1357,348,-0.57666015625,0.0557861328125,-0.09765625
7.944,430,1399,1399,352,-0.57666015625,0.0557861328125,-0.09765625
7.970,356,1173,1323,338,-0.6014404296875,0.0701904296875,0.0406494140625
7.970,470,1098,1170,336,-0.6376953125,0.0452880859375,0.3365478515625
7.974,347,1112,1302,348,-0.6376953125,0.0452880859375,0.3365478515625
7.992,654,1137,927,328,-0.631103515625,0.0316162109375,0.311767578125
7.996,1306,1286,361,307,-0.6490478515625,0.10888671875,0.1500244140625
8.005,761,1303,947,330,-0.6490478515625,0.10888671875,0.1500244140625
8.012,418,1373,1328,346,-0.6932373046875,0.144775390625,0.1099853515625
8.026,388,1474,1387,347,-0.7559814453125,0.1767578125,0.0877685546875
8.035,364,1540,1443,351,-0.8201904296875,0.20361328125,0.070068359375
8.042,348,1536,1478,354,-0.862548828125,0.205322265625,0.0545654296875
8.100,388,1640,1464,356,-0.880615234375,0.182861328125,0.035888671875
8.103,398,1783,1509,327,-0.8868408203125,0.157470703125,0.005859375
8.103,402,1927,1582,361,-0.880859375,0.1488037109375,-0.0244140625
8.103,416,2180,1686,373,-0.8577880859375,0.1510009765625,-0.032958984375
8.103,430,2384,1877,371,-0.8218994140625,0.1500244140625,-0.0159912109375
8.103,440,2633,1960,382,-0.751953125,0.14404296875,0.0035400390625
8.116,462,3028,2102,388,-0.643798828125,0.1151123046875,0.0050048828125
8.126,473,3147,2235,411,-0.4874267578125,0.0501708984375,-0.012939453125
8.132,483,3147,2299,465,-0.2550048828125,-0.0537109375,-0.093994140625
8.146,416,3147,2484,723,-0.04736328125,-0.138671875,-0.21875
8.156,470,3147,2473,1029,-0.0047607421875,-0.1544189453125,-0.2703857421875
8.173,614,3147,2299,1292,-0.2342529296875,-0.144775390625,-0.1671142578125
8.176,1850,3147,337,484,-0.7288818359375,-0.085693359375,0.1416015625
8.204,2599,3147,338,498,-1.357666015625,0.1502685546875,0.5509033203125
8.205,2604,3147,1834,518,-1.842529296875,0.4842529296875,0.8250732421875
8.209,2497,3147,1627,2271,-2.0762939453125,0.592041015625,0.826171875
8.215,2724,3147,1398,2717,-2.24169921875,0.5379638671875,0.6241455078125
8.222,2738,3147,1334,3022,-2.2542724609375,0.570068359375,0.3905029296875
8.237,571,3147,2684,3090,-1.8876953125,0.673828125,0.0828857421875
8.245,567,3147,2698,3061,-1.5030517578125,0.7989501953125,-0.153564453125
8.252,555,3147,2703,2976,-1.487548828125,0.7908935546875,-0.104736328125
8.289,548,3147,2657,2643,-1.59814453125,0.5601806640625,0.070556640625
8.289,575,3147,2551,2449,-1.5948486328125,0.309326171875,0.1861572265625
8.312,625,3147,2419,2127,-1.4918212890625,0.2213134765625,0.162841796875
8.312,687,3147,2247,1739,-1.3780517578125,0.2437744140625,0.0618896484375
8.313,1123,3147,1603,1336,-1.2813720703125,0.26611328125,-0.0029296875
8.313,2287,3147,1173,1029,-1.1680908203125,0.298828125,-0.0091552734375
8.326,2272,3147,748,605,-1.017578125,0.338134765625,-0.00537109375
8.334,2190,3147,546,411,-0.8729248046875,0.327392578125,-0.0048828125
8.342,2119,3147,348,310,-0.765869140625,0.29345703125,0.0126953125
8.356,1963,2801,355,311,-0.6572265625,0.2852783203125,0.0135498046875
8.364,1878,2601,344,310,-0.5330810546875,0.2918701171875,-0.040283203125
8.382,1271,2323,1095,361,-0.454833984375,0.2724609375,-0.0982666015625
8.401,740,1994,1173,363,-0.459228515625,0.233154296875,-0.10888671875
8.401,630,1789,1160,356,-0.517578125,0.192626953125,-0.0614013671875
8.414,1186,1715,445,297,-0.5975341796875,0.13818359375,0.06103515625
8.416,1366,1488,324,309,-0.6790771484375,0.05029296875,0.23583984375
8.425,1340,1404,336,308,-0.7490234375,-0.035888671875,0.3670654296875
8.432,1331,1375,337,308,-0.7933349609375,-0.0567626953125,0.364013671875
8.446,1280,1508,336,309,-0.8106689453125,-0.00830078125,0.2489013671875
8.455,1266,1490,338,310,-0.8184814453125,0.0693359375,0.125244140625
8.462,1078,1531,553,318,-0.83056640625,0.136474609375,0.051025390625
8.476,1255,1615,356,310,-0.8460693359375,0.1712646484375,0.0235595703125
8.485,1151,1666,438,315,-0.85595703125,0.1878662109375,0.018798828125
8.492,794,1704,841,331,-0.8582763671875,0.222412109375,0.0008544921875
8.509,837,1794,865,330,-0.8665771484375,0.2777099609375,-0.031494140625
8.516,788,1808,912,333,-0.8858642578125,0.3099365234375,-0.0582275390625
8.524,799,1882,905,334,-0.8917236328125,0.2877197265625,-0.0794677734375
8.536,840,2083,975,336,-0.8731689453125,0.2347412109375,-0.08935546875
8.544,540,2260,1345,359,-0.869873046875,0.200439453125,-0.0709228515625
8.553,483,2337,1550,369,-0.8590087890625,0.1927490234375,-0.017822265625
8.566,1560,2684,603,319,-0.776611328125,0.1495361328125,0.0523681640625
8.579,1877,2840,389,315,-0.6221923828125,0.05517578125,0.1029052734375
8.582,713,2981,1455,361,-0.4180908203125,-0.0235595703125,0.0806884765625
8.604,985,3147,1453,364,-0.2105712890625,-0.057861328125,-0.008056640625
8.604,1310,3147,1328,482,-0.03369140625,-0.0689697265625,-0.081787109375
8.612,1334,3147,1385,759,0.062744140625,-0.0579833984375,-0.099609375
8.626,2418,3147,360,478,-0.0338134765625,-0.028076171875,-0.008056640625
8.637,1996,3147,360,484,-0.385498046875,0.065185546875,0.2454833984375
8.643,2541,3147,356,543,-0.9169921875,0.308837890625,0.5863037109375
8.656,707,3147,2465,2504,-1.38037109375,0.662353515625,0.7989501953125
8.664,1134,3147,2419,2727,-1.706787109375,0.856201171875,0.70556640625
8.672,841,3147,2651,2908,-2.059814453125,0.7137451171875,0.442138671875
8.686,754,3147,2503,2928,-2.4254150390625,0.3406982421875,0.224365234375
8.709,582,3147,2916,3056,-2.4677734375,0.021728515625,0.111083984375
8.709,473,3147,2830,3089,-2.4677734375,0.021728515625,0.111083984375
8.716,385,3147,2877,3000,-1.2861328125,0.365966796875,-0.3826904296875
8.724,401,3147,2891,3016,-1.10791015625,0.6728515625,-0.380126953125
8.732,391,3147,2900,3039,-1.10791015625,0.6728515625,-0.380126953125
8.750,391,3147,2844,2919,-1.75927734375,0.45458984375,0.2669677734375
8.755,389,3147,2821,2807,-1.78955078125,0.24169921875,0.3931884765625
8.762,388,3147,2780,2624,-1.78955078125,0.24169921875,0.3931884765625
8.776,391,3147,2665,2155,-1.3817138671875,0.274169921875,0.2684326171875
8.784,399,3147,2605,1922,-1.240478515625,0.244873046875,0.1943359375
8.792,402,3147,2507,1669,-1.240478515625,0.244873046875,0.1943359375
8.808,390,3147,2392,1213,-0.9989013671875,0.336181640625,0.0628662109375
8.819,385,3147,2357,959,-0.882080078125,0.3404541015625,-0.00341796875
8.823,376,3147,2290,725,-0.882080078125,0.3404541015625,-0.00341796875
8.836,369,3147,2152,414,-0.699462890625,0.2510986328125,-0.0535888671875
8.844,359,2959,2026,409,-0.616455078125,0.2659912109375,-0.07373046875
8.852,364,2692,1865,391,-0.616455078125,0.2659912109375,-0.07373046875
8.866,363,2202,1650,371,-0.488037109375,0.2420654296875,-0.1617431640625
8.874,354,1911,1577,370,-0.4942626953125,0.2489013671875,-0.218505859375
8.886,430,1861,1424,359,-0.4942626953125,0.2489013671875,-0.218505859375
8.896,364,1682,1377,351,-0.6053466796875,0.2733154296875,-0.0325927734375
8.918,385,1597,1306,354,-0.6473388671875,0.2149658203125,0.2200927734375
8.919,506,1564,1266,348,-0.6473388671875,0.2149658203125,0.2200927734375
8.926,1343,1533,321,308,-0.656982421875,0.0675048828125,0.3616943359375
8.934,480,1595,1222,348,-0.656982421875,0.0675048828125,0.3616943359375
8.942,634,1762,1067,343,-0.666015625,0.009521484375,0.2366943359375
8.956,1054,1983,416,308,-0.7669677734375,0.1087646484375,0.1090087890625
8.964,942,2078,766,327,-0.7669677734375,0.1087646484375,0.1090087890625
8.975,1450,2233,330,310,-0.8101806640625,0.1949462890625,0.109619140625
8.988,723,2392,1231,347,-0.8076171875,0.2562255859375,0.0777587890625
8.994,1551,2481,342,309,-0.8076171875,0.2562255859375,0.0777587890625
9.003,1615,2621,369,313,-0.826171875,0.2689208984375,0.04638671875
9.020,1824,2921,336,309,-0.84130859375,0.251708984375,-0.0140380859375
9.024,731,3024,372,308,-0.84130859375,0.251708984375,-0.0140380859375
9.032,1282,3147,1258,361,-0.8060302734375,0.16455078125,-0.0220947265625
9.046,1170,3147,1292,461,-0.612060546875,0.09716796875,0.018310546875
9.054,1125,3147,1422,600,-0.612060546875,0.09716796875,0.018310546875
9.062,2215,3147,966,693,-0.447998046875,0.072998046875,0.042724609375
9.076,2344,3147,414,497,-0.0841064453125,-0.1214599609375,0.0205078125
9.094,1739,3147,1050,1131,-0.0841064453125,-0.1214599609375,0.0205078125
9.098,1659,3147,1188,1290,-0.003173828125,-0.2828369140625,0.0595703125
9.116,1545,3147,1697,437,-0.6322021484375,-0.0609130859375,0.28955078125
9.127,1463,3147,2590,2507,-0.6322021484375,-0.0609130859375,0.28955078125
9.128,458,3147,2753,2808,-1.401123046875,0.427001953125,0.2994384765625
9.136,419,3147,2861,3147,-2.0377197265625,0.75390625,0.1854248046875
9.144,648,3147,2568,3147,-2.40380859375,0.862548828125,0.1568603515625
9.152,523,3147,2797,3147,-2.5484619140625,0.892333984375,0.2115478515625
9.166,2290,3147,2386,3015,-2.3433837890625,0.77197265625,0.2039794921875
9.174,720,3147,2524,2993,-1.6754150390625,0.6051025390625,0.03564453125
9.182,521,3147,2713,2916,-1.047119140625,0.593994140625,-0.045166015625
9.200,501,3147,2754,2674,-1.0819091796875,0.57958984375,0.1387939453125
9.205,435,3147,2788,2593,-1.4639892578125,0.3826904296875,0.3199462890625
9.221,418,3147,2790,2465,-1.6524658203125,0.187255859375,0.3505859375
9.233,401,3147,2769,2186,-1.5986328125,0.157470703125,0.2724609375
9.237,406,3147,2724,2060,-1.426025390625,0.1954345703125,0.171142578125
9.243,406,3147,2684,1914,-1.22509765625,0.1964111328125,0.1273193359375
9.256,426,3147,2557,1608,-1.0499267578125,0.147216796875,0.1436767578125
9.264,425,3147,2538,1452,-0.9361572265625,0.1353759765625,0.1756591796875
9.272,426,3147,2479,1282,-0.8677978515625,0.2021484375,0.1761474609375
9.286,424,3147,2359,936,-0.828369140625,0.2510986328125,0.13671875
9.296,405,3147,2323,799,-0.8084716796875,0.2620849609375,0.0877685546875
9.303,406,3147,2271,683,-0.7889404296875,0.2811279296875,0.064697265625
9.325,385,3147,2203,411,-0.7706298828125,0.30078125,0.058837890625
9.325,385,3040,2127,391,-0.7586669921875,0.30224609375,0.0394287109375
9.339,385,2727,2030,404,-0.7518310546875,0.2969970703125,0.0191650390625
9.346,373,2240,1785,389,-0.74853515625,0.28857421875,-0.001220703125
9.354,371,2133,1669,388,-0.7589111328125,0.2552490234375,-0.0623779296875
9.363,346,1891,1636,383,-0.7921142578125,0.20849609375,-0.129638671875
9.376,351,1613,1494,371,-0.8408203125,0.1697998046875,-0.116455078125
9.384,354,1437,1440,364,-0.8743896484375,0.140625,-0.0096435546875
9.399,336,1369,1411,359,-0.8568115234375,0.1180419921875,0.1402587890625
9.430,328,1255,1399,351,-0.7877197265625,0.072998046875,0.24951171875
9.430,330,1220,1383,354,-0.7095947265625,0.0159912109375,0.2532958984375
9.431,330,1290,1397,348,-0.6614990234375,0.00732421875,0.1646728515625
9.445,333,1395,1398,351,-0.6619873046875,0.053466796875,0.0699462890625
9.445,334,1455,1393,351,-0.6988525390625,0.1083984375,0.0548095703125
9.452,346,1487,1395,354,-0.7357177734375,0.1458740234375,0.0963134765625
9.466,345,1641,1427,354,-0.7552490234375,0.1754150390625,0.119873046875
9.474,351,1757,1439,351,-0.756103515625,0.1932373046875,0.0938720703125
9.482,354,1869,1494,361,-0.742431640625,0.1868896484375,0.030029296875
9.501,346,2037,1569,362,-0.7235107421875,0.1546630859375,-0.025390625
9.505,371,2374,1694,371,-0.7137451171875,0.1109619140625,-0.033447265625
9.529,356,2557,1860,378,-0.7154541015625,0.097412109375,-0.0015869140625
9.530,371,2877,2035,383,-0.667724609375,0.0858154296875,0.0450439453125
9.538,373,3098,2162,410,-0.522216796875,0.005126953125,0.0906982421875
9.542,400,3147,2233,487,-0.292724609375,-0.1275634765625,0.0750732421875
9.556,415,3147,2372,736,-0.076904296875,-0.19921875,0.0072021484375
9.564,418,3147,2448,991,0.0076904296875,-0.174072265625,-0.018798828125
9.572,426,3147,2541,1264,-0.0614013671875,-0.1326904296875,-0.00048828125
9.586,433,3147,2635,2007,-0.2705078125,-0.03955078125,0.0675048828125
9.594,384,3147,2770,2337,-0.6976318359375,0.3095703125,0.182373046875
9.603,400,3147,2801,2622,-1.3155517578125,0.788818359375,0.2586669921875
9.619,404,3147,2875,3126,-1.91455078125,0.9508056640625,0.2938232421875
9.629,431,3147,2867,3147,-2.3753662109375,0.7735595703125,0.3814697265625
9.639,407,3147,2930,3147,-2.6270751953125,0.5185546875,0.5211181640625
9.650,438,3147,2863,3147,-2.564453125,0.3623046875,0.550048828125
9.654,456,3147,2875,3048,-1.9910888671875,0.486083984375,0.1900634765625
9.662,447,3147,2909,2940,-1.4090576171875,0.8433837890625,-0.1998291015625
9.676,455,3147,2890,2610,-1.4566650390625,0.844482421875,-0.029296875
9.684,444,3147,2870,2478,-1.697509765625,0.378173828125,0.3497314453125
9.692,441,3147,2830,2306,-1.6810302734375,0.092041015625,0.4542236328125
9.706,508,3147,2672,1960,-1.490478515625,0.09912109375,0.33837890625
9.714,527,3147,2598,1759,-1.29931640625,0.0965576171875,0.2144775390625
9.732,481,3147,2573,1624,-1.170166015625,0.0445556640625,0.1617431640625
9.737,521,3147,2421,1184,-1.0601806640625,0.0723876953125,0.134765625
9.744,607,3147,2293,996,-0.9261474609375,0.211669921875,0.072509765625
9.752,1228,3147,1943,759,-0.7891845703125,0.344482421875,-0.0286865234375
9.770,636,3147,2192,466,-0.69775390625,0.3974609375,-0.1217041015625
9.774,636,3147,2008,404,-0.65673828125,0.4144287109375,-0.16162109375
9.782,498,2981,2076,406,-0.635986328125,0.40771484375,-0.139404296875
9.796,517,2585,1898,388,-0.616943359375,0.348876953125,-0.097900390625
9.807,418,2460,1900,390,-0.6131591796875,0.2733154296875,-0.0498046875
9.812,402,2284,1789,385,-0.641845703125,0.2449951171875,-0.0120849609375
9.843,373,2032,1595,371,-0.6861572265625,0.25048828125,-0.0198974609375
9.863,376,1882,1526,370,-0.7275390625,0.2197265625,-0.0283203125
9.867,409,1733,1463,361,-0.7275390625,0.2197265625,-0.0283203125
9.883,376,1595,1413,351,-0.8072509765625,0.162353515625,0.139892578125
9.884,371,1452,1398,353,-0.784423828125,0.119140625,0.2178955078125
9.884,371,1472,1397,353,-0.784423828125,0.119140625,0.2178955078125
9.886,359,1575,1397,348,-0.688232421875,0.0054931640625,0.1568603515625
9.895,359,1653,1424,351,-0.6851806640625,0.0472412109375,0.0811767578125
9.902,375,1715,1422,351,-0.6851806640625,0.0472412109375,0.0811767578125
9.916,390,1846,1457,349,-0.7142333984375,0.2030029296875,0.066650390625
9.931,415,1931,1483,354,-0.7296142578125,0.2003173828125,0.085205078125
9.941,513,2110,1467,354,-0.7296142578125,0.2003173828125,0.085205078125
9.946,373,2284,1686,363,-0.75830078125,0.178955078125,0.078369140625
9.954,739,2430,536,323,-0.7564697265625,0.1717529296875,0.0592041015625
9.963,1816,2587,414,315,-0.7564697265625,0.1717529296875,0.0592041015625
9.978,1000,2927,1842,382,-0.6502685546875,0.114013671875,0.0548095703125
9.989,625,3089,1974,393,-0.5550537109375,0.0557861328125,0.086669921875
9.992,465,3147,2133,402,-0.5550537109375,0.0557861328125,0.086669921875
10.013,774,3147,1904,623,-0.3492431640625,0.0067138671875,0.17431640625
10.015,1470,3147,1422,833,-0.2525634765625,-0.0025634765625,0.1429443359375
10.022,1508,3147,1182,1025,-0.2525634765625,-0.0025634765625,0.1429443359375
10.042,1170,3147,2432,1453,-0.1761474609375,-0.152587890625,0.025634765625
10.044,539,3147,2619,2190,-0.4918212890625,-0.04150390625,-0.07861328125
10.053,472,3147,2801,2497,-0.4918212890625,-0.04150390625,-0.07861328125
10.066,414,3147,2912,2943,-1.5855712890625,0.7108154296875,0.157470703125
10.074,416,3147,2927,3147,-1.5855712890625,0.7108154296875,0.157470703125
10.085,464,3147,2964,3147,-1.9478759765625,0.6622314453125,0.416015625
10.102,1914,3147,1056,932,-2.370849609375,0.478271484375,0.56201171875
10.105,549,3147,2742,3147,-2.370849609375,0.478271484375,0.56201171875
10.115,603,3147,2691,3147,-2.248046875,0.5321044921875,0.254638671875
10.138,1231,3147,2024,2837,-1.171630859375,0.9290771484375,-0.5074462890625
10.146,2745,3147,2388,2820,-1.171630859375,0.9290771484375,-0.5074462890625
10.147,2847,3147,390,832,-1.1331787109375,0.824951171875,-0.2391357421875
10.156,468,3147,2905,2587,-1.7264404296875,0.1273193359375,0.5335693359375
10.166,445,3147,2897,2407,-1.7264404296875,0.1273193359375,0.5335693359375
10.172,439,3147,2843,2210,-1.7283935546875,-0.0076904296875,0.4884033203125
10.193,445,3147,2713,1865,-1.326171875,0.028076171875,0.1666259765625
10.195,441,3147,2630,1733,-1.326171875,0.028076171875,0.1666259765625
10.202,431,3147,2581,1610,-1.1268310546875,0.0418701171875,0.0872802734375
10.222,428,3147,2472,1280,-0.9097900390625,0.304443359375,0.0859375
10.224,424,3147,2414,1056,-0.9097900390625,0.304443359375,0.0859375
10.243,364,3147,2386,794,-0.8509521484375,0.3922119140625,0.080810546875
10.246,404,3147,2183,431,-0.7523193359375,0.386962890625,0.0692138671875
10.257,391,2985,2087,414,-0.7523193359375,0.386962890625,0.0692138671875
10.262,388,2494,1959,404,-0.693359375,0.3741455078125,0.0323486328125
10.276,376,2005,1676,378,-0.6416015625,0.3214111328125,-0.0318603515625
10.284,523,1809,1392,369,-0.60986328125,0.2503662109375,-0.1214599609375
10.298,411,1709,1490,363,-0.593994140625,0.2103271484375,-0.22216796875
10.306,364,1561,1463,360,-0.5931396484375,0.189453125,-0.224365234375
10.327,359,1503,1445,357,-0.615478515625,0.15185546875,-0.087646484375
10.328,354,1397,1390,356,-0.6424560546875,0.135009765625,0.105712890625
10.347,352,1387,1411,348,-0.637451171875,0.1302490234375,0.2857666015625
10.349,332,1344,1430,352,-0.611572265625,0.0743408203125,0.3751220703125
10.352,336,1443,1450,354,-0.6080322265625,-0.0023193359375,0.3282470703125
10.367,347,1590,1441,351,-0.6470947265625,-0.030517578125,0.2080078125
10.375,347,1669,1452,354,-0.7164306640625,0.0040283203125,0.11474609375
10.382,359,1798,1460,359,-0.7789306640625,0.07421875,0.078369140625
10.406,361,2019,1523,363,-0.81396484375,0.1302490234375,0.0775146484375
10.406,347,2100,1592,364,-0.827392578125,0.1639404296875,0.094970703125
10.412,354,2280,1655,364,-0.8262939453125,0.199462890625,0.1038818359375
10.426,363,2555,1815,381,-0.8248291015625,0.2303466796875,0.094970703125
10.439,371,2608,1943,385,-0.810791015625,0.2205810546875,0.078857421875
10.455,375,2785,2024,388,-0.776123046875,0.1614990234375,0.0604248046875
10.456,370,3125,2131,387,-0.7314453125,0.0865478515625,0.052734375
10.464,390,3147,2225,423,-0.65869140625,0.015625,0.0726318359375
10.475,424,3147,2295,639,-0.5269775390625,-0.020751953125,0.1015625
10.487,415,3147,2421,936,-0.3551025390625,-0.0125732421875,0.0994873046875
10.495,437,3147,2490,1163,-0.2041015625,-0.016845703125,0.0069580078125
10.510,445,3147,2579,1336,-0.14990234375,-0.0216064453125,-0.200439453125
10.516,441,3147,2702,1792,-0.2684326171875,0.0343017578125,-0.3760986328125
10.526,390,3147,2810,2060,-0.6585693359375,0.240234375,-0.2525634765625
10.534,391,3147,2879,2330,-1.21435546875,0.6268310546875,0.1541748046875
10.557,388,3147,2955,2708,-1.650390625,0.8238525390625,0.5537109375
10.557,383,3147,3014,2853,-1.9205322265625,0.7020263671875,0.74658203125
10.566,385,3147,3054,2946,-2.1544189453125,0.53125,0.699462890625
10.578,400,3147,3035,2854,-2.3255615234375,0.322265625,0.515625
10.585,406,3147,3025,2775,-2.097412109375,0.1929931640625,0.1651611328125
10.592,411,3147,3027,2665,-1.493408203125,0.32861328125,-0.2628173828125
10.606,408,3147,3025,2633,-1.157470703125,0.50830078125,-0.3380126953125
10.617,401,3147,3027,2516,-1.3740234375,0.4512939453125,0.02783203125
10.628,400,3147,3022,2430,-1.6964111328125,0.2366943359375,0.412841796875
10.638,391,3147,2930,2190,-1.7369384765625,0.106689453125,0.52392578125
10.655,390,3147,2863,1997,-1.577392578125,0.1221923828125,0.4244384765625
10.655,384,3147,2775,1761,-1.3809814453125,0.1488037109375,0.2659912109375
10.668,383,3147,2654,1434,-1.2125244140625,0.1439208984375,0.149169921875
10.674,378,3147,2584,1222,-1.093505859375,0.2232666015625,0.0963134765625
10.683,375,3147,2517,1029,-1.0120849609375,0.3577880859375,0.051513671875
10.696,361,3147,2400,702,-0.94775390625,0.37841796875,-0.010498046875
10.705,361,3147,2334,532,-0.883544921875,0.2896728515625,-0.050537109375
10.712,360,3064,2225,423,-0.803466796875,0.2081298828125,-0.0618896484375
10.730,349,2261,1929,389,-0.7071533203125,0.188232421875,-0.0806884765625
10.735,338,1843,1716,388,-0.6063232421875,0.2108154296875,-0.1207275390625
10.765,334,1592,1607,385,-0.5220947265625,0.2191162109375,-0.180908203125
10.765,344,1483,1494,338,-0.4945068359375,0.209716796875,-0.2354736328125
10.765,325,1478,1488,354,-0.544189453125,0.1805419921875,-0.203369140625
10.777,338,1413,1430,353,-0.625244140625,0.1378173828125,-0.0626220703125
10.786,321,1228,1375,348,-0.6689453125,0.1312255859375,0.122314453125
10.794,313,1211,1390,352,-0.6649169921875,0.1314697265625,0.27685546875
10.802,314,1211,1411,347,-0.6527099609375,0.074462890625,0.330322265625
10.816,313,1306,1412,346,-0.658935546875,-0.013916015625,0.265625
10.837,315,1386,1427,348,-0.6907958984375,-0.0701904296875,0.1513671875
10.838,316,1467,1426,348,-0.743896484375,-0.06640625,0.0745849609375
10.866,317,1611,1445,346,-0.7974853515625,0.0074462890625,0.06201171875
10.867,316,1634,1464,346,-0.8265380859375,0.115478515625,0.0765380859375
10.867,318,1686,1490,357,-0.833251953125,0.192138671875,0.078125
10.876,322,1775,1572,359,-0.8304443359375,0.221923828125,0.057373046875
10.890,324,1922,1636,364,-0.821044921875,0.228515625,0.0123291015625
10.892,328,2032,1721,373,-0.8133544921875,0.221923828125,-0.029541015625
10.906,334,2272,1959,372,-0.7904052734375,0.19677734375,-0.0333251953125
10.914,338,2477,2058,385,-0.7398681640625,0.1387939453125,0.0047607421875
10.922,346,2704,2136,401,-0.6646728515625,0.0570068359375,0.06884765625
10.942,351,3120,2286,404,-0.5443115234375,0.004150390625,0.1221923828125
10.964,356,3147,2384,525,-0.388671875,-0.01904296875,0.1431884765625
10.964,346,3147,2464,566,-0.2559814453125,-0.04296875,0.135498046875
10.966,364,3147,2574,1188,-0.1796875,-0.0701904296875,0.1109619140625
10.975,371,3147,2710,1469,-0.26123046875,-0.063232421875,0.0958251953125
10.984,374,3147,2790,1861,-0.5687255859375,0.05712890625,0.06591796875
11.002,382,3147,2930,2281,-1.0372314453125,0.3009033203125,0.0421142578125
11.006,382,3147,2973,2565,-1.5262451171875,0.6025390625,0.1383056640625
11.014,385,3147,3006,2788,-1.889404296875,0.6766357421875,0.2945556640625
11.027,427,3147,2992,3057,-2.0965576171875,0.4644775390625,0.365478515625
11.046,458,3147,2985,3147,-2.1597900390625,0.3118896484375,0.3363037109375
11.049,464,3147,2904,3147,-2.05224609375,0.27734375,0.224365234375
11.064,465,3147,2909,3147,-1.6629638671875,0.3389892578125,-0.009765625
11.065,413,3147,3022,3147,-1.18896484375,0.5391845703125,-0.208984375
11.076,2543,3147,729,462,-1.18896484375,0.5391845703125,-0.208984375
11.088,891,3147,2621,2936,-1.23046875,0.5147705078125,0.16748046875
11.096,601,3147,2820,2795,-1.5687255859375,0.3131103515625,0.4547119140625
11.103,620,3147,2769,2638,-1.5687255859375,0.3131103515625,0.4547119140625
11.117,548,3147,2772,2280,-1.632080078125,0.325927734375,0.23486328125
11.125,514,3147,2744,2010,-1.4820556640625,0.3477783203125,0.0662841796875
11.139,505,3147,2692,1772,-1.4820556640625,0.3477783203125,0.0662841796875
11.164,684,3147,2314,1370,-1.1839599609375,0.19091796875,0.0712890625
11.165,525,3147,2445,1120,-1.052001953125,0.207275390625,0.110107421875
11.165,452,3147,2463,872,-1.052001953125,0.207275390625,0.110107421875
11.179,465,3147,2301,561,-0.8358154296875,0.2392578125,0.04443359375
11.186,428,3147,2263,426,-0.7645263671875,0.2545166015625,0.02734375
11.194,401,2959,2221,426,-0.7645263671875,0.2545166015625,0.02734375
11.207,383,2309,2012,400,-0.6220703125,0.3046875,0.0
11.216,417,2037,1837,400,-0.5406494140625,0.2987060546875,-0.0721435546875
11.228,386,1904,1735,388,-0.5406494140625,0.2987060546875,-0.0721435546875
11.242,406,1697,1536,371,-0.503662109375,0.2276611328125,-0.1837158203125
11.245,398,1545,1453,364,-0.5738525390625,0.1793212890625,-0.0748291015625
11.271,378,1469,1411,360,-0.5738525390625,0.1793212890625,-0.0748291015625
11.271,383,1397,1382,354,-0.692626953125,0.0904541015625,0.3394775390625
11.275,383,1419,1377,354,-0.7138671875,-0.00634765625,0.40234375
11.285,385,1398,1373,354,-0.7138671875,-0.00634765625,0.40234375
11.297,385,1443,1370,351,-0.764404296875,-0.09130859375,0.192626953125
11.306,382,1529,1384,356,-0.764404296875,-0.09130859375,0.192626953125
11.313,385,1616,1396,356,-0.797119140625,-0.0311279296875,0.1005859375
11.327,387,1838,1415,354,-0.8262939453125,0.1717529296875,0.0589599609375
11.348,390,1856,1464,360,-0.8262939453125,0.1717529296875,0.0589599609375
11.348,400,2024,1509,359,-0.8072509765625,0.2569580078125,0.052978515625
11.375,400,2318,1667,363,-0.7259521484375,0.24365234375,0.016845703125
11.376,405,2444,1798,375,-0.7259521484375,0.24365234375,0.016845703125
11.376,409,2648,1941,383,-0.702880859375,0.2366943359375,0.025390625
11.388,370,3000,2089,390,-0.619140625,0.108642578125,0.0758056640625
11.395,382,3147,2194,409,-0.619140625,0.108642578125,0.0758056640625
11.403,375,3147,2324,559,-0.513427734375,-0.0245361328125,0.064453125
11.417,419,3147,2424,704,-0.1219482421875,-0.1370849609375,-0.088134765625
11.426,431,3147,2484,879,-0.1219482421875,-0.1370849609375,-0.088134765625
11.435,621,3147,1808,1078,0.00537109375,-0.082275390625,-0.181640625
11.454,473,3147,2668,1656,-0.4619140625,0.284912109375,0.162353515625
11.455,694,3147,2519,1941,-0.4619140625,0.284912109375,0.162353515625
11.490,2585,3147,1217,2030,-1.04541015625,0.4725341796875,0.4962158203125
11.490,2750,3147,1424,787,-2.067138671875,0.58203125,0.731201171875
11.491,479,3147,3014,2765,-2.067138671875,0.58203125,0.731201171875
11.495,1183,3147,2472,2456,-2.4302978515625,0.2457275390625,0.6519775390625
11.507,651,3147,2869,2662,-2.1524658203125,0.2835693359375,0.1099853515625
11.515,487,3147,2921,2605,-2.1524658203125,0.2835693359375,0.1099853515625
11.524,2412,3147,765,1533,-1.5130615234375,0.5462646484375,-0.3758544921875
11.537,592,3147,2866,2561,-1.169189453125,0.532470703125,-0.4295654296875
11.552,571,3147,2890,2532,-1.347412109375,0.2340087890625,0.0762939453125
11.554,525,3147,2954,2503,-1.6114501953125,0.0438232421875,0.572265625
11.582,493,3147,2919,2370,-1.592041015625,0.093994140625,0.6602783203125
11.582,618,3147,2724,2197,-1.4039306640625,0.237548828125,0.451171875
11.584,607,3147,2645,2102,-1.245849609375,0.3612060546875,0.203369140625
11.598,603,3147,2585,1820,-1.1531982421875,0.400146484375,0.0616455078125
11.608,588,3147,2554,1632,-1.07080078125,0.3699951171875,0.035400390625
11.613,531,3147,2567,1516,-0.9742431640625,0.33984375,0.0400390625
11.627,470,3147,2516,1104,-0.8876953125,0.3145751953125,0.033203125
11.635,473,3147,2442,963,-0.848876953125,0.265380859375,0.0322265625
11.643,455,3147,2391,667,-0.85400390625,0.230224609375,0.0328369140625
11.657,447,3147,2296,419,-0.8719482421875,0.2196044921875,0.0382080078125
11.691,424,3059,2247,418,-0.892578125,0.2039794921875,0.0386962890625
11.691,423,2840,2104,413,-0.8978271484375,0.201416015625,0.032470703125
11.691,390,2203,1874,388,-0.8577880859375,0.2186279296875,0.01220703125
11.695,356,1908,1750,391,-0.7666015625,0.2236328125,-0.0802001953125
11.703,356,1743,1683,378,-0.684814453125,0.2138671875,-0.1993408203125
11.717,382,1607,1533,363,-0.676025390625,0.2252197265625,-0.2110595703125
11.725,376,1439,1478,361,-0.71728515625,0.2547607421875,-0.1004638671875
11.735,371,1236,1412,352,-0.7327880859375,0.2607421875,0.067138671875
11.755,355,1103,1331,347,-0.68359375,0.228759765625,0.2197265625
11.755,361,1094,1315,347,-0.619140625,0.1702880859375,0.2799072265625
11.796,360,1191,1318,348,-0.6051025390625,0.1107177734375,0.2303466796875
11.796,334,1231,1348,347,-0.6304931640625,0.087158203125,0.1373291015625
11.796,348,1355,1380,348,-0.6529541015625,0.1199951171875,0.0819091796875
11.796,356,1529,1398,354,-0.6651611328125,0.1993408203125,0.100830078125
11.807,416,1669,1433,354,-0.6612548828125,0.2625732421875,0.159912109375
11.816,588,1855,1370,359,-0.62646484375,0.2559814453125,0.18310546875
11.823,1306,2100,713,329,-0.5797119140625,0.216064453125,0.143310546875
11.837,400,2430,1989,388,-0.5386962890625,0.180908203125,0.06494140625
11.845,387,2722,2135,401,-0.4771728515625,0.1385498046875,-0.012939453125
11.858,374,2974,2247,404,-0.3861083984375,0.06884765625,-0.0545654296875
11.882,386,3147,2418,562,-0.3150634765625,-0.0047607421875,-0.0321044921875
11.882,445,3147,2440,759,-0.2791748046875,-0.0477294921875,0.0350341796875
11.884,498,3147,2456,1003,-0.271484375,-0.0772705078125,0.0771484375
11.908,446,3147,2626,1411,-0.3251953125,-0.0924072265625,0.1285400390625
11.908,1051,3147,2222,1675,-0.458251953125,-0.021240234375,0.2645263671875
11.913,537,3147,2166,1948,-0.717041015625,0.1904296875,0.45751953125
11.926,2739,3147,475,1855,-1.109130859375,0.53759765625,0.5771484375
11.935,2736,3147,2792,2608,-1.562255859375,0.805908203125,0.5068359375
11.942,1393,3147,867,978,-2.0594482421875,0.7099609375,0.399169921875
11.959,2884,3147,553,1546,-2.51953125,0.3917236328125,0.3360595703125
11.965,2853,3147,548,1287,-2.651123046875,0.1693115234375,0.1724853515625
11.972,3010,3147,331,391,-2.2054443359375,0.17578125,-0.19677734375
11.989,420,3147,3130,2821,-1.49560546875,0.3248291015625,-0.5826416015625
12.006,423,3147,3147,2854,-1.15380859375,0.356689453125,-0.4813232421875
12.006,417,3147,3147,2803,-1.368896484375,0.2191162109375,0.1275634765625
12.016,415,3147,3125,2662,-1.6859130859375,0.110107421875,0.6485595703125
12.024,414,3147,3106,2569,-1.67138671875,0.13916015625,0.6962890625
12.033,411,3147,3071,2449,-1.4365234375,0.2586669921875,0.40576171875
12.046,409,3147,3000,2131,-1.2325439453125,0.326416015625,0.0859375
12.060,404,3147,2950,1921,-1.10693359375,0.251953125,-0.0782470703125
12.062,401,3147,2890,1819,-1.00830078125,0.1317138671875,-0.06494140625
12.088,398,3147,2758,1521,-0.9307861328125,0.089599609375,0.035400390625
12.094,398,3147,2689,1330,-0.8729248046875,0.121337890625,0.109130859375
12.097,390,3147,2633,1191,-0.8729248046875,0.121337890625,0.109130859375
12.108,385,3147,2492,840,-0.8233642578125,0.194580078125,0.0823974609375
12.115,382,3147,2435,591,-0.839599609375,0.2969970703125,0.0621337890625
12.129,376,3147,2367,454,-0.839599609375,0.2969970703125,0.0621337890625
12.136,371,2853,2221,418,-0.82568359375,0.4837646484375,0.02197265625
12.145,2070,2551,439,359,-0.756103515625,0.4322509765625,-0.035888671875
12.152,871,2314,750,363,-0.756103515625,0.4322509765625,-0.035888671875
12.166,1803,1922,1562,336,-0.67333984375,0.240478515625,-0.2161865234375
12.191,1701,1824,332,310,-0.6768798828125,0.1947021484375,-0.2552490234375
12.191,1610,1634,354,313,-0.6768798828125,0.1947021484375,-0.2552490234375
12.197,1173,1514,749,327,-0.7362060546875,0.05615234375,-0.004150390625
12.205,1467,1487,347,310,-0.765380859375,0.031982421875,0.1778564453125
12.213,1470,1445,328,309,-0.765380859375,0.031982421875,0.1778564453125
12.228,1463,1437,318,308,-0.7470703125,0.0274658203125,0.2451171875
12.234,1450,1540,780,336,-0.71923828125,0.01953125,0.14697265625
12.242,740,1569,338,310,-0.71923828125,0.01953125,0.14697265625
12.256,644,1669,1064,345,-0.726806640625,0.065673828125,0.09033203125
12.265,521,1785,1435,355,-0.7420654296875,0.094482421875,0.1153564453125
12.272,651,1862,1464,364,-0.7420654296875,0.094482421875,0.1153564453125
12.298,518,2065,1678,377,-0.70166015625,0.114501953125,0.0762939453125
12.298,447,2290,1808,376,-0.6832275390625,0.1405029296875,0.0323486328125
12.305,506,2442,1869,382,-0.6832275390625,0.1405029296875,0.0323486328125
12.325,519,2949,1999,388,-0.6658935546875,0.2056884765625,-0.0025634765625
12.325,538,3147,1997,376,-0.6658935546875,0.2056884765625,-0.0025634765625
12.333,2268,3147,327,317,-0.61279296875,0.1959228515625,0.0081787109375
12.346,1278,3147,1959,589,-0.2821044921875,-0.074951171875,0.00927734375
12.355,2295,3147,363,566,-0.2821044921875,-0.074951171875,0.00927734375
12.369,2514,3147,331,414,-0.0682373046875,-0.1480712890625,0.007080078125
12.376,1303,3147,331,1781,0.00244140625,-0.02587890625,0.11181640625
12.399,2710,3147,344,493,0.00244140625,-0.02587890625,0.11181640625
12.400,408,3147,2949,2566,-0.4302978515625,0.2215576171875,0.3089599609375
12.407,406,3147,3070,3001,-1.8402099609375,0.7633056640625,0.3619384765625
12.414,411,3147,3121,3147,-1.8402099609375,0.7633056640625,0.3619384765625
12.452,625,3147,2325,3147,-2.3179931640625,0.6102294921875,0.2169189453125
12.467,2654,3147,481,2543,-2.5047607421875,0.27587890625,0.2181396484375
12.471,567,3147,2905,3147,-2.5047607421875,0.27587890625,0.2181396484375
12.484,2106,3147,407,739,-2.143798828125,0.3123779296875,0.1571044921875
12.487,630,3147,2886,3147,-1.118896484375,0.73681640625,-0.1907958984375
12.487,577,3147,2790,3147,-1.118896484375,0.73681640625,-0.1907958984375
12.499,660,3147,2888,3147,-1.1923828125,0.714111328125,0.0621337890625
12.500,855,3147,2437,2912,-1.689697265625,0.25439453125,0.5927734375
12.505,1024,3147,2360,2807,-1.689697265625,0.25439453125,0.5927734375
12.512,631,3147,2818,2728,-1.5804443359375,0.1636962890625,0.495849609375
12.526,513,3147,2807,2348,-1.2315673828125,0.0491943359375,0.142333984375
12.536,519,3147,2710,2167,-1.2315673828125,0.0491943359375,0.142333984375
12.542,462,3147,2737,2005,-1.1307373046875,-0.0484619140625,0.0540771484375
12.556,527,3147,2587,1675,-1.0252685546875,-0.03515625,0.0289306640625
12.564,464,3147,2347,1439,-0.8963623046875,0.0916748046875,0.0107421875
12.579,614,3147,2287,1182,-0.8013916015625,0.251953125,-0.03076171875
12.601,487,3147,2221,815,-0.7679443359375,0.369384765625,-0.0794677734375
12.602,2233,3147,363,371,-0.7547607421875,0.425537109375,-0.0880126953125
12.603,2010,3147,352,391,-0.7418212890625,0.4130859375,-0.037841796875
12.616,2130,3147,327,311,-0.728271484375,0.3704833984375,0.0133056640625
12.624,2035,2874,324,315,-0.6951904296875,0.3392333984375,0.035888671875
12.641,1079,2622,1202,354,-0.6439208984375,0.3111572265625,0.0418701171875
12.646,631,2217,1464,375,-0.6043701171875,0.2882080078125,0.007080078125
12.654,1636,2105,865,356,-0.609619140625,0.286376953125,-0.0457763671875
12.662,1478,1961,947,336,-0.6614990234375,0.270751953125,-0.02587890625
12.676,844,1700,1214,359,-0.72265625,0.196044921875,0.0799560546875
12.685,630,1596,1262,359,-0.7587890625,0.0662841796875,0.1907958984375
12.701,438,1695,1445,361,-0.758544921875,-0.06103515625,0.2275390625
12.709,539,1874,1387,357,-0.73876953125,-0.1298828125,0.170654296875
12.714,559,1967,1411,359,-0.727294921875,-0.12646484375,0.076416015625
12.722,531,2117,1508,361,-0.7388916015625,-0.048828125,0.0289306640625
12.736,525,2364,1584,371,-0.74560546875,0.062255859375,0.0291748046875
12.748,521,2519,1655,373,-0.7294921875,0.1278076171875,0.0421142578125
12.752,487,2632,1840,376,-0.7108154296875,0.1348876953125,0.0706787109375
12.766,487,2939,1967,389,-0.7152099609375,0.1590576171875,0.0997314453125
12.778,495,3125,2032,391,-0.73095703125,0.2122802734375,0.1124267578125
12.783,490,3147,2104,409,-0.7076416015625,0.21044921875,0.099853515625
12.810,625,3147,2061,658,-0.6107177734375,0.1292724609375,0.0501708984375
12.810,600,3147,2167,820,-0.4512939453125,0.028076171875,-0.0157470703125
12.812,1290,3147,1750,984,-0.2757568359375,-0.029541015625,-0.0618896484375
12.826,1978,3147,888,1134,-0.1026611328125,-0.024658203125,-0.0908203125
12.834,1402,3147,1564,1527,-0.0185546875,0.012939453125,-0.0548095703125
12.842,1380,3147,2178,1862,-0.159912109375,0.136474609375,0.0550537109375
12.856,2194,3147,2330,2068,-0.6046142578125,0.3597412109375,0.1024169921875
12.865,1550,3147,1683,2286,-1.25,0.6668701171875,0.1055908203125
12.880,1943,3147,1383,2275,-1.81591796875,0.8553466796875,0.1844482421875
12.886,1214,3147,2001,2692,-2.181884765625,0.650390625,0.3592529296875
12.909,2128,3147,1326,2361,-2.3570556640625,0.325927734375,0.5477294921875
12.909,2832,3147,2489,2765,-2.3319091796875,0.2205810546875,0.57373046875
12.926,799,3147,354,561,-2.08251953125,0.2794189453125,0.3182373046875
12.926,2842,3147,333,519,-1.584716796875,0.3863525390625,-0.1058349609375
12.933,2939,3147,1104,2167,-1.15869140625,0.3848876953125,-0.228759765625
12.946,962,3147,2472,2456,-1.21923828125,0.199951171875,0.15966796875
12.960,728,3147,2741,2465,-1.607177734375,-0.0240478515625,0.662841796875
12.963,753,3147,2677,2379,-1.833984375,-0.10107421875,0.850830078125
12.982,725,3147,2616,2160,-1.725830078125,0.049072265625,0.6572265625
12.984,702,3147,2576,2023,-1.4576416015625,0.23388671875,0.3575439453125
12.993,713,3147,2489,1897,-1.2080078125,0.27685546875,0.185791015625
13.008,2620,3147,354,526,-1.016357421875,0.2691650390625,0.143310546875
13.014,2557,3147,336,414,-0.8450927734375,0.3037109375,0.088134765625
13.023,2464,3147,346,428,-0.72412109375,0.3326416015625,-0.0203857421875
13.036,2354,3147,747,793,-0.696533203125,0.3271484375,-0.099365234375
13.052,2316,3147,344,371,-0.713134765625,0.307861328125,-0.1016845703125
13.052,512,3147,2172,540,-0.7158203125,0.274658203125,-0.0484619140625
13.066,1107,2788,1323,361,-0.6806640625,0.234619140625,-0.0145263671875
13.075,1961,2698,437,378,-0.595947265625,0.166259765625,-0.0458984375
13.085,519,2448,1848,398,-0.5174560546875,0.0498046875,-0.1209716796875
13.099,920,2314,1474,378,-0.5250244140625,-0.0291748046875,-0.142822265625
13.120,607,2180,1624,378,-0.6043701171875,-0.0218505859375,-0.0416259765625
13.120,466,2110,1610,375,-0.68017578125,0.0201416015625,0.140869140625
13.127,402,2207,1676,376,-0.7159423828125,0.038330078125,0.3006591796875
13.135,382,2192,1703,376,-0.7265625,0.039794921875,0.3653564453125
13.142,378,2238,1722,377,-0.7392578125,0.06201171875,0.326416015625
13.161,382,2388,1766,378,-0.77294921875,0.0972900390625,0.2391357421875
13.178,383,2458,1803,376,-0.824951171875,0.134521484375,0.178466796875
13.178,381,2529,1874,378,-0.8743896484375,0.1705322265625,0.1522216796875
13.188,389,2657,1934,376,-0.8953857421875,0.201904296875,0.1353759765625
13.195,388,2736,1996,384,-0.881591796875,0.2080078125,0.1165771484375
13.216,383,2823,2028,387,-0.862060546875,0.2010498046875,0.0902099609375
13.216,388,2984,2087,386,-0.864501953125,0.2110595703125,0.0545654296875
13.227,398,3095,2110,391,-0.8853759765625,0.2017822265625,0.0267333984375
13.233,402,3147,2131,400,-0.9005126953125,0.1519775390625,0.0206298828125
13.248,408,3147,2190,441,-0.888671875,0.1029052734375,0.023681640625
13.255,414,3147,2220,523,-0.8480224609375,0.08251953125,0.0303955078125
13.263,418,3147,2247,601,-0.8480224609375,0.08251953125,0.0303955078125
13.279,430,3147,2337,814,-0.6749267578125,0.0882568359375,0.0933837890625
13.291,442,3147,2381,882,-0.5372314453125,0.1041259765625,0.135986328125
13.293,411,3147,2473,1029,-0.5372314453125,0.1041259765625,0.135986328125
13.323,533,3147,2442,1326,-0.219482421875,0.0555419921875,0.16357421875
13.325,551,3147,2565,1496,-0.161376953125,-0.0166015625,0.0777587890625
13.330,644,3147,2534,1588,-0.161376953125,-0.0166015625,0.0777587890625
13.337,656,3147,2627,1863,-0.44482421875,-0.0601806640625,-0.1123046875
13.344,533,3147,2867,2060,-0.8404541015625,0.104736328125,-0.028076171875
13.353,455,3147,2964,2279,-0.8404541015625,0.104736328125,-0.028076171875
13.368,414,3147,3075,2591,-1.84228515625,0.7225341796875,0.3250732421875
13.375,424,3147,3099,2801,-2.1885986328125,0.613037109375,0.405517578125
13.393,424,3147,3130,2882,-2.1885986328125,0.613037109375,0.405517578125
13.396,430,3147,3144,2715,-2.2064208984375,0.1649169921875,0.384765625
13.405,424,3147,3140,2549,-1.686279296875,0.25048828125,0.2060546875
13.422,416,3147,3125,2473,-1.686279296875,0.25048828125,0.2060546875
13.426,424,3147,3137,2415,-1.0709228515625,0.5086669921875,0.09814453125
13.434,437,3147,3117,2348,-1.422607421875,0.3643798828125,0.3040771484375
13.442,438,3147,3095,2271,-1.422607421875,0.3643798828125,0.3040771484375
13.470,428,3147,3056,2100,-1.736572265625,0.2763671875,0.214599609375
13.470,428,3147,3000,1967,-1.736572265625,0.2763671875,0.214599609375
13.473,432,3147,2940,1759,-1.6077880859375,0.2921142578125,0.0859375
13.522,430,3147,2811,1463,-1.184814453125,0.110595703125,0.126220703125
13.522,428,3147,2736,1306,-1.184814453125,0.110595703125,0.126220703125
13.522,424,3147,2632,1067,-1.010986328125,0.0797119140625,0.222900390625
13.523,400,3147,2517,811,-0.822998046875,0.17529296875,0.1341552734375
13.525,409,3147,2463,625,-0.822998046875,0.17529296875,0.1341552734375
13.533,402,3147,2370,444,-0.820556640625,0.229248046875,-0.0076904296875
13.552,388,2580,2162,404,-0.8367919921875,0.2833251953125,-0.1552734375
13.555,382,2194,2007,400,-0.8367919921875,0.2833251953125,-0.1552734375
13.563,373,1865,1845,391,-0.77197265625,0.27001953125,-0.170166015625
13.577,354,1572,1574,369,-0.616455078125,0.087890625,-0.1732177734375
13.584,351,1477,1500,361,-0.616455078125,0.087890625,-0.1732177734375
13.602,344,1348,1427,351,-0.6361083984375,0.0328369140625,-0.1002197265625
13.607,337,1160,1323,348,-0.65234375,0.0987548828125,0.195556640625
13.620,342,1157,1289,347,-0.65234375,0.0987548828125,0.195556640625
13.623,346,1185,1255,347,-0.598388671875,0.0693359375,0.2703857421875
13.637,348,1305,1282,344,-0.552978515625,0.0018310546875,0.19677734375
13.645,351,1349,1320,345,-0.552978515625,0.0018310546875,0.19677734375
13.653,352,1447,1383,346,-0.60009765625,0.0611572265625,0.1485595703125
13.667,354,1596,1437,354,-0.6754150390625,0.11474609375,0.13916015625
13.675,352,1655,1477,352,-0.7449951171875,0.15625,0.147216796875
13.683,356,1800,1508,356,-0.783203125,0.174560546875,0.1298828125
13.727,360,1945,1582,361,-0.80322265625,0.1441650390625,0.0909423828125
13.727,364,2113,1689,369,-0.8128662109375,0.10888671875,0.036376953125
13.727,376,2354,1882,375,-0.8114013671875,0.1146240234375,-0.0155029296875
13.727,388,2703,2009,371,-0.7802734375,0.1163330078125,-0.0096435546875
13.740,388,3000,2174,401,-0.668701171875,0.0869140625,0.0408935546875
13.743,391,3147,2271,418,-0.50439453125,0.029541015625,0.089599609375
13.756,427,3147,2381,788,-0.3148193359375,-0.05419921875,0.124755859375
13.765,473,3147,2472,1050,-0.082275390625,-0.114990234375,0.0843505859375
13.772,523,3147,2477,1262,0.0458984375,-0.0714111328125,-0.0020751953125
13.786,484,3147,2713,1757,-0.1322021484375,0.0928955078125,-0.0633544921875
13.803,507,3147,2765,1905,-0.5916748046875,0.175048828125,-0.1552734375
13.810,479,3147,2832,2133,-1.125244140625,0.13623046875,-0.202880859375
13.827,524,3147,2919,2607,-1.5775146484375,0.245849609375,-0.03173828125
13.827,484,3147,2978,2874,-1.8956298828125,0.40380859375,0.2783203125
13.834,1037,3147,2370,2965,-2.076904296875,0.3551025390625,0.546142578125
13.846,933,3147,952,922,-2.1463623046875,0.266357421875,0.690673828125
13.854,963,3147,2840,3147,-2.133544921875,0.3316650390625,0.643310546875
13.862,496,3147,3048,3147,-1.9166259765625,0.5408935546875,0.31103515625
13.877,466,3147,3070,3101,-1.4417724609375,0.7799072265625,-0.1448974609375
13.885,467,3147,3078,3020,-1.1602783203125,0.8001708984375,-0.215576171875
13.894,466,3147,3072,2919,-1.370849609375,0.5435791015625,0.18017578125
13.907,456,3147,3032,2656,-1.686279296875,0.2652587890625,0.5435791015625
13.937,455,3147,2981,2514,-1.7200927734375,0.15380859375,0.584228515625
13.937,445,3147,2936,2370,-1.509521484375,0.127197265625,0.41650390625
13.937,439,3147,2807,2058,-1.2467041015625,0.049072265625,0.2449951171875
13.951,437,3147,2765,1927,-1.06298828125,-0.0244140625,0.1773681640625
13.991,423,3147,2677,1648,-0.982666015625,0.0133056640625,0.1875
13.996,411,3147,2591,1206,-0.9298095703125,0.16552734375,0.1746826171875
14.009,420,3147,2534,1026,-0.8482666015625,0.298095703125,0.0802001953125
14.010,411,3147,2467,846,-0.778564453125,0.3399658203125,-0.0394287109375
14.010,413,3147,2384,564,-0.762939453125,0.3470458984375,-0.114013671875
14.011,406,3147,2325,481,-0.7762451171875,0.339111328125,-0.1177978515625
14.013,402,3147,2268,421,-0.7783203125,0.30615234375,-0.087646484375
14.053,401,2828,2129,406,-0.74560546875,0.2606201171875,-0.072509765625
14.054,470,2584,1987,401,-0.669921875,0.2254638671875,-0.06982421875
14.054,697,2484,1703,383,-0.5892333984375,0.19091796875,-0.0806884765625
14.057,442,2350,1770,374,-0.56689453125,0.16943359375,-0.0716552734375
14.065,590,2356,1569,375,-0.61181640625,0.1810302734375,0.0001220703125
14.074,640,2249,1508,374,-0.6854248046875,0.197998046875,0.119140625
14.087,1063,2137,957,344,-0.7567138671875,0.185546875,0.2427978515625
14.095,614,2133,1462,364,-0.7957763671875,0.1329345703125,0.3031005859375
14.110,682,2162,1427,359,-0.802490234375,0.0574951171875,0.2528076171875
14.117,631,2356,1469,361,-0.8055419921875,0.0137939453125,0.1348876953125
14.149,579,2440,1548,369,-0.8133544921875,0.0413818359375,0.038330078125
14.149,578,2557,1627,370,-0.809814453125,0.08642578125,0.0052490234375
14.149,525,2676,1825,376,-0.7874755859375,0.0938720703125,0.0286865234375
14.156,519,2863,1897,385,-0.75830078125,0.0965576171875,0.0819091796875
14.163,551,2962,1904,382,-0.7352294921875,0.12353515625,0.1175537109375
14.176,601,3102,1927,383,-0.7255859375,0.1553955078125,0.1187744140625
14.185,598,3147,1987,433,-0.7130126953125,0.1539306640625,0.11083984375
14.193,591,3147,2047,518,-0.6744384765625,0.10888671875,0.0845947265625
14.214,621,3147,2113,725,-0.588134765625,0.04833984375,0.0428466796875
14.215,567,3147,2119,872,-0.4371337890625,0.0006103515625,0.007568359375
14.245,644,3147,2310,1018,-0.232421875,-0.031005859375,-0.0528564453125
14.246,506,3147,2484,1529,-0.0455322265625,-0.0516357421875,-0.0970458984375
14.246,548,3147,2530,1757,-0.03564453125,0.035888671875,-0.01806640625
14.253,526,3147,2601,2012,-0.3297119140625,0.2852783203125,0.0810546875
14.269,607,3147,2695,2299,-0.8746337890625,0.612060546875,0.0777587890625
14.275,1173,3147,2217,2247,-1.4658203125,0.911865234375,0.0626220703125
14.283,658,3147,2966,2622,-1.9056396484375,0.8663330078125,0.147216796875
14.296,385,3147,3084,2912,-2.1478271484375,0.4130859375,0.359375
14.304,437,3147,3056,2961,-2.2613525390625,0.0108642578125,0.606201171875
14.315,428,3147,3063,2965,-2.255615234375,-0.1240234375,0.6953125
14.347,513,3147,2928,2760,-1.8878173828125,-0.0081787109375,0.3798828125
14.347,582,3147,2833,2782,-1.3028564453125,0.205078125,-0.0989990234375
14.347,603,3147,2859,2758,-1.1649169921875,0.2396240234375,-0.03662109375
14.357,586,3147,2847,2716,-1.4642333984375,0.2415771484375,0.445068359375
14.365,523,3147,2912,2601,-1.6630859375,0.3564453125,0.67333984375
14.374,505,3147,2887,2456,-1.6630859375,0.3564453125,0.67333984375
14.387,409,3147,2901,2233,-1.4425048828125,0.406982421875,0.2412109375
14.395,404,3147,2831,2074,-1.30126953125,0.3033447265625,0.0526123046875
14.404,430,3147,2723,1862,-1.30126953125,0.3033447265625,0.0526123046875
14.417,391,3147,2622,1440,-1.0731201171875,0.1719970703125,0.0087890625
14.425,414,3147,2514,1185,-0.9705810546875,0.294921875,0.0235595703125
14.433,401,3147,2479,853,-0.9705810546875,0.294921875,0.0235595703125
14.451,369,3147,2364,433,-0.8975830078125,0.3682861328125,-0.051513671875
14.455,370,3088,2263,411,-0.9046630859375,0.3701171875,-0.074951171875
14.463,351,2765,2180,404,-0.9046630859375,0.3701171875,-0.074951171875
14.476,349,2266,1912,376,-0.750732421875,0.2713623046875,-0.142333984375
14.486,332,2102,1768,371,-0.6055908203125,0.18505859375,-0.189697265625
14.494,328,1894,1640,364,-0.6055908203125,0.18505859375,-0.189697265625
14.507,321,1490,1543,354,-0.4842529296875,0.108154296875,-0.1566162109375
14.518,321,1345,1498,354,-0.5079345703125,0.1055908203125,0.025390625
14.522,318,1224,1437,348,-0.5079345703125,0.1055908203125,0.025390625
14.540,319,1191,1409,346,-0.515380859375,0.06640625,0.377197265625
14.559,323,1262,1416,347,-0.5162353515625,-0.003173828125,0.3543701171875
14.560,346,1340,1456,351,-0.5162353515625,-0.003173828125,0.3543701171875
14.567,354,1640,1497,356,-0.6519775390625,-0.02880859375,0.1424560546875
14.575,359,1759,1504,352,-0.75146484375,0.075927734375,0.0833740234375
14.583,361,1944,1549,356,-0.75146484375,0.075927734375,0.0833740234375
14.596,371,2186,1640,359,-0.8095703125,0.26708984375,0.0675048828125
14.607,375,2319,1735,364,-0.8095703125,0.26708984375,0.0675048828125
14.622,385,2538,1874,372,-0.7860107421875,0.2457275390625,0.0694580078125
14.626,398,2813,2058,387,-0.701904296875,0.230712890625,0.0484619140625
14.649,402,2949,2126,388,-0.701904296875,0.230712890625,0.0484619140625
14.649,387,3147,2203,388,-0.6328125,0.199951171875,0.0677490234375
14.664,423,3147,2347,574,-0.4237060546875,0.076416015625,0.118896484375
14.665,376,3147,2467,827,-0.4237060546875,0.076416015625,0.118896484375
14.672,375,3147,2551,1069,-0.215087890625,-0.04052734375,0.0689697265625
14.687,383,3147,2679,1531,0.1495361328125,-0.222412109375,-0.0589599609375
14.695,393,3147,2777,1864,0.1495361328125,-0.222412109375,-0.0589599609375
14.703,404,3147,2864,2155,-0.1480712890625,-0.1171875,0.0218505859375
14.728,385,3147,3011,2681,-1.6932373046875,0.4183349609375,-0.074951171875
14.728,387,3147,3059,2991,-1.6932373046875,0.4183349609375,-0.074951171875
14.754,388,3147,3084,3147,-2.1732177734375,0.6025390625,-0.0528564453125
14.771,413,3147,3101,3147,-2.1927490234375,0.3948974609375,0.522705078125
14.775,390,3147,3146,3147,-2.1927490234375,0.3948974609375,0.522705078125
14.779,390,3147,3137,3147,-2.1181640625,0.5328369140625,0.644287109375
14.796,426,3147,3086,3147,-1.494873046875,0.829345703125,0.0631103515625
14.799,428,3147,3102,3117,-1.494873046875,0.829345703125,0.0631103515625
14.800,437,3147,3090,2990,-1.213134765625,0.7745361328125,-0.046142578125
14.807,433,3147,3064,2748,-1.4342041015625,0.5068359375,0.2762451171875
14.816,430,3147,3039,2616,-1.697265625,0.18408203125,0.490966796875
14.835,430,3147,2985,2447,-1.675048828125,0.04638671875,0.40576171875
14.853,805,3147,2487,2162,-1.48388671875,0.068359375,0.1966552734375
14.859,765,3147,2613,2058,-1.2928466796875,0.0740966796875,0.0498046875
14.860,1018,3147,1896,1774,-1.146484375,0.0675048828125,0.0384521484375
14.867,922,3147,2104,1506,-1.0172119140625,0.1151123046875,0.1195068359375
14.876,617,3147,2421,1338,-0.885498046875,0.206787109375,0.169921875
14.883,455,3147,2519,1097,-0.790771484375,0.28662109375,0.1317138671875
14.897,631,3147,2217,628,-0.7510986328125,0.36279296875,0.051025390625
14.905,1251,3147,374,456,-0.724365234375,0.456787109375,-0.0120849609375
14.913,2139,3147,361,316,-0.6820068359375,0.5052490234375,-0.0079345703125
14.929,1806,3099,360,310,-0.6302490234375,0.4771728515625,0.0159912109375
14.935,2104,2830,507,378,-0.596923828125,0.399169921875,-0.0013427734375
14.957,411,2529,2053,401,-0.6058349609375,0.32568359375,-0.0328369140625
14.958,564,2354,1323,344,-0.64111328125,0.2833251953125,-0.0682373046875
14.968,1487,2233,1268,308,-0.6717529296875,0.2308349609375,-0.1082763671875
14.973,1713,2139,338,308,-0.70849609375,0.13671875,-0.0863037109375
14.987,455,1927,1266,338,-0.7562255859375,0.0479736328125,0.03271484375
14.995,750,1980,1401,361,-0.7718505859375,-0.0020751953125,0.179443359375
15.003,1138,2012,1005,338,-0.7320556640625,-0.052490234375,0.2808837890625
15.016,1662,2268,334,308,-0.6903076171875,-0.10546875,0.308837890625
15.032,1669,2347,354,308,-0.691650390625,-0.0867919921875,0.27490234375
15.033,1691,2438,346,296,-0.724853515625,0.0123291015625,0.2191162109375
15.063,1810,2598,361,310,-0.7628173828125,0.10498046875,0.1561279296875
15.076,1862,2777,356,310,-0.7760009765625,0.15576171875,0.0833740234375
15.078,1985,2851,360,310,-0.7557373046875,0.1845703125,0.0216064453125
15.078,1987,3104,445,316,-0.7255859375,0.20361328125,0.001953125
15.091,1973,3147,526,315,-0.68115234375,0.2266845703125,0.017822265625
15.093,1929,3147,750,390,-0.5921630859375,0.2274169921875,0.028076171875
15.106,617,3147,2221,753,-0.472900390625,0.1612548828125,0.0537109375
15.115,859,3147,1915,907,-0.3394775390625,0.069580078125,0.1055908203125
15.123,1039,3147,1927,1101,-0.1878662109375,0.001220703125,0.06591796875
15.136,2561,3147,430,682,-0.046142578125,-0.04345703125,-0.056640625
15.172,658,3147,1974,589,-0.01416015625,-0.031494140625,-0.1302490234375
15.173,1038,3147,2244,2172,-0.1981201171875,0.098388671875,-0.13427734375
15.173,937,3147,2160,2573,-0.6685791015625,0.3978271484375,0.024658203125
15.175,2797,3147,678,1753,-1.3277587890625,0.8209228515625,0.356201171875
15.183,766,3147,1273,1597,-1.9781494140625,0.92578125,0.6746826171875
15.199,975,3147,2749,3147,-2.428955078125,0.5457763671875,0.8175048828125
15.205,2440,3147,490,1610,-2.5604248046875,0.17822265625,0.6793212890625
15.213,2792,3147,1534,2973,-2.426025390625,0.0670166015625,0.28466796875
15.226,780,3147,2677,3080,-1.9349365234375,0.1842041015625,-0.3031005859375
15.235,651,3147,2758,3094,-1.34326171875,0.32568359375,-0.6661376953125
15.243,887,3147,2689,3102,-1.2286376953125,0.3126220703125,-0.3486328125
15.268,571,3147,2955,3039,-1.5572509765625,0.2369384765625,0.296630859375
15.268,567,3147,2927,2935,-1.7908935546875,0.16259765625,0.59375
15.275,548,3147,2909,2832,-1.6854248046875,0.10693359375,0.4403076171875
15.286,562,3147,2820,2490,-1.43212890625,0.13134765625,0.1981201171875
15.295,539,3147,2801,2319,-1.1937255859375,0.2052001953125,0.0704345703125
15.302,566,3147,2683,2129,-1.0169677734375,0.25390625,0.0653076171875
15.317,811,3147,2375,1800,-0.9049072265625,0.270751953125,0.1104736328125
15.326,1675,3147,693,1290,-0.8460693359375,0.296630859375,0.1260986328125
15.339,1004,3147,1800,1357,-0.82666015625,0.3155517578125,0.0870361328125
15.348,910,3147,1602,1004,-0.825927734375,0.28173828125,0.016845703125
15.379,630,3147,2287,858,-0.800537109375,0.25146484375,-0.0399169921875
15.380,541,3147,2197,669,-0.7451171875,0.2391357421875,-0.07421875
15.380,794,3147,1978,402,-0.7149658203125,0.2197265625,-0.098388671875
15.385,695,2833,1761,382,-0.74462890625,0.2283935546875,-0.1026611328125
15.396,1637,2622,1290,378,-0.7821044921875,0.2784423828125,-0.1051025390625
15.411,1694,2186,364,313,-0.7685546875,0.3125,-0.15771484375
15.415,1769,2041,391,323,-0.7039794921875,0.3021240234375,-0.2027587890625
15.423,1702,1952,373,312,-0.6396484375,0.2376708984375,-0.1363525390625
15.441,1380,1848,1289,344,-0.6021728515625,0.152587890625,0.025634765625
15.445,493,1794,1516,361,-0.5767822265625,0.1156005859375,0.2105712890625
15.467,376,1845,1616,361,-0.5537109375,0.1033935546875,0.3349609375
15.468,401,2050,1683,369,-0.559326171875,0.050048828125,0.33154296875
15.475,542,2192,1616,364,-0.6270751953125,-0.014404296875,0.226318359375
15.483,501,2287,1640,365,-0.718505859375,-0.0155029296875,0.109619140625
15.497,419,2458,1925,374,-0.7806396484375,0.0604248046875,0.061279296875
15.508,813,2610,1577,364,-0.80419921875,0.1441650390625,0.0760498046875
15.519,889,2756,1557,365,-0.80419921875,0.1441650390625,0.0760498046875
15.527,1039,2993,1504,363,-0.779052734375,0.21240234375,0.116943359375
15.535,1769,3147,841,338,-0.73583984375,0.2308349609375,0.0968017578125
15.543,2115,3147,427,346,-0.73583984375,0.2308349609375,0.0968017578125
15.572,2214,3147,418,447,-0.644775390625,0.146728515625,0.06689453125
15.573,2215,3147,424,518,-0.5760498046875,0.090576171875,0.07568359375
15.573,1973,3147,401,555,-0.5760498046875,0.090576171875,0.07568359375
15.587,871,3147,1959,1623,-0.2987060546875,0.07666015625,0.078369140625
15.595,2590,3147,2421,1850,-0.1339111328125,0.1336669921875,-0.0628662109375
15.603,561,3147,1022,1622,-0.1339111328125,0.1336669921875,-0.0628662109375
15.627,2801,3147,386,625,-0.150390625,0.2144775390625,-0.2828369140625
15.628,906,3147,899,2479,-0.79296875,0.5079345703125,-0.011962890625
15.633,1373,3147,2010,2777,-0.79296875,0.5079345703125,-0.011962890625
15.646,1383,3147,2076,2921,-2.3572998046875,0.7236328125,0.578369140625
15.655,1228,3147,2298,3020,-2.7216796875,0.34521484375,0.708740234375
15.670,1064,3147,2626,3143,-2.7216796875,0.34521484375,0.708740234375
15.689,1038,3147,991,1715,-2.1163330078125,0.1285400390625,0.095947265625
15.689,887,3147,2637,2810,-1.3287353515625,0.3687744140625,-0.3995361328125
15.694,1613,3147,1761,2512,-1.3287353515625,0.3687744140625,-0.3995361328125
15.708,788,3147,2689,2739,-1.3179931640625,0.4208984375,0.0682373046875
15.716,995,3147,2498,2652,-1.662109375,0.29833984375,0.38330078125
15.737,1336,3147,1994,2512,-1.662109375,0.29833984375,0.38330078125
15.738,523,3147,2921,2471,-1.59716796875,0.162841796875,0.224365234375
15.748,531,3147,2877,2286,-1.4105224609375,0.1324462890625,0.09814453125
15.754,990,3147,2337,2035,-1.4105224609375,0.1324462890625,0.09814453125
15.776,693,3147,2581,1826,-1.120849609375,0.111083984375,0.0462646484375
15.776,1034,3147,2010,1552,-1.0213623046875,0.1405029296875,0.125
15.784,1138,3147,2014,1390,-1.0213623046875,0.1405029296875,0.125
15.798,584,3147,2142,968,-0.8475341796875,0.238525390625,0.1326904296875
15.806,907,3147,1908,728,-0.7503662109375,0.296142578125,0.071044921875
15.814,607,3137,1973,386,-0.7503662109375,0.296142578125,0.071044921875
15.836,2041,2541,423,313,-0.6240234375,0.30859375,-0.0972900390625
15.836,1970,2299,461,317,-0.6240234375,0.30859375,-0.0972900390625
15.855,482,1915,1800,386,-0.6124267578125,0.239501953125,-0.1436767578125
15.858,461,1665,1557,309,-0.609619140625,0.181884765625,-0.2369384765625
15.875,1611,1592,400,310,-0.609619140625,0.181884765625,-0.2369384765625
15.875,369,1514,1627,371,-0.621826171875,0.150634765625,-0.1783447265625
15.889,1365,1371,1067,342,-0.6251220703125,0.1845703125,0.1259765625
15.896,540,1323,1306,346,-0.6251220703125,0.1845703125,0.1259765625
15.904,1025,1413,458,310,-0.613037109375,0.16015625,0.2498779296875
15.918,1038,1536,780,323,-0.67236328125,-0.0264892578125,0.2305908203125
15.926,1251,1596,647,321,-0.67236328125,-0.0264892578125,0.2305908203125
15.940,561,1635,1370,348,-0.749755859375,0.0032958984375,0.1409912109375
15.959,497,1755,1469,354,-0.8780517578125,0.1248779296875,0.1109619140625
15.960,493,1801,1504,360,-0.8780517578125,0.1248779296875,0.1109619140625
15.981,482,1931,1564,361,-0.881591796875,0.169921875,0.1212158203125
15.981,574,2091,1501,360,-0.8660888671875,0.197021484375,0.0791015625
15.986,601,2150,1560,363,-0.8660888671875,0.197021484375,0.0791015625
15.994,859,2280,1248,347,-0.8621826171875,0.201904296875,0.0338134765625
16.007,1911,2608,404,313,-0.8492431640625,0.177978515625,-0.0166015625
16.016,1433,2766,975,342,-0.8492431640625,0.177978515625,-0.0166015625
16.024,1428,2948,1025,337,-0.8338623046875,0.140869140625,0.0001220703125
16.037,1453,3147,1101,353,-0.6904296875,0.077880859375,0.140625
16.057,1516,3147,1091,473,-0.6904296875,0.077880859375,0.140625
16.057,1863,3147,922,587,-0.5159912109375,-0.0115966796875,0.1888427734375
16.086,1243,3147,1334,964,-0.274169921875,-0.1514892578125,0.1729736328125
16.087,985,3147,1869,1377,-0.00048828125,-0.267578125,0.0692138671875
16.087,966,3147,1112,620,0.154296875,-0.240234375,-0.0972900390625
16.098,508,3147,2724,2345,-0.0302734375,0.0107421875,-0.1763916015625
16.106,894,3147,1705,1931,-0.6610107421875,0.490234375,-0.047607421875
16.114,1934,3147,1428,2167,-1.444580078125,0.9776611328125,0.1673583984375
16.127,2864,3147,387,1882,-1.9879150390625,1.036376953125,0.3365478515625
16.136,1490,3147,778,704,-2.2623291015625,0.624267578125,0.4122314453125
16.143,2909,3147,2962,3147,-2.3165283203125,0.246826171875,0.3150634765625
16.160,614,3147,2938,3147,-2.1624755859375,0.1136474609375,0.1243896484375
16.166,1189,3147,2272,3079,-1.814697265625,0.143798828125,-0.0614013671875
16.192,607,3147,2864,3084,-1.342041015625,0.3060302734375,-0.241943359375
16.193,625,3147,2841,2944,-1.0311279296875,0.4552001953125,-0.263427734375
16.196,591,3147,2882,2948,-1.0389404296875,0.4296875,-0.0960693359375
16.204,607,3147,2853,2899,-1.28173828125,0.2254638671875,0.1658935546875
16.217,912,3147,2449,2632,-1.5228271484375,0.041259765625,0.3843994140625
16.226,867,3147,2449,2543,-1.522705078125,0.02392578125,0.385986328125
16.233,853,3147,2417,2400,-1.35107421875,0.1015625,0.2386474609375
16.247,603,3147,2630,2100,-1.1893310546875,0.18994140625,0.108154296875
16.268,481,3147,2713,1948,-1.1121826171875,0.2578125,0.0677490234375
16.268,638,3147,2497,1830,-1.0916748046875,0.269775390625,0.0782470703125
16.287,1071,3147,1878,1455,-1.089111328125,0.24462890625,0.072509765625
16.287,1226,3147,1577,1211,-1.067138671875,0.268310546875,0.017578125
16.301,2367,3147,361,470,-1.0218505859375,0.3189697265625,-0.078369140625
16.308,2230,3147,424,482,-0.99462890625,0.32568359375,-0.1551513671875
16.316,521,3147,2190,493,-1.00048828125,0.3074951171875,-0.1395263671875
16.324,712,2869,1954,401,-0.9976806640625,0.3055419921875,-0.041015625
16.337,653,2085,1727,387,-0.9454345703125,0.3203125,0.0247802734375
16.346,482,1808,1742,391,-0.8538818359375,0.3216552734375,0.004638671875
16.354,693,1540,780,336,-0.772705078125,0.2855224609375,-0.0806884765625
16.369,1375,1386,465,315,-0.7467041015625,0.2396240234375,-0.18408203125
16.395,1248,1146,1198,344,-0.7611083984375,0.1895751953125,-0.231689453125
16.395,1213,968,446,315,-0.7757568359375,0.1357421875,-0.2098388671875
16.398,456,808,1101,334,-0.7640380859375,0.1156005859375,-0.1051025390625
16.409,842,763,402,313,-0.7320556640625,0.09814453125,0.0653076171875
16.414,820,721,404,313,-0.7017822265625,0.020751953125,0.185302734375
16.428,872,738,442,315,-0.6741943359375,-0.091064453125,0.191162109375
16.436,871,778,387,318,-0.63818359375,-0.1248779296875,0.132568359375
16.444,714,788,620,321,-0.5947265625,-0.0537109375,0.0848388671875
16.466,984,820,406,310,-0.56005859375,0.0401611328125,0.08251953125
16.473,1025,842,421,313,-0.5313720703125,0.092529296875,0.0966796875
16.477,328,934,1243,336,-0.514892578125,0.0789794921875,0.080078125
16.491,323,1251,1476,346,-0.5340576171875,0.0291748046875,0.0323486328125
16.499,418,1387,1345,347,-0.5660400390625,0.03515625,-0.01123046875
16.505,1206,1610,656,324,-0.5897216796875,0.1192626953125,-0.0284423828125
16.513,570,1861,1424,348,-0.617919921875,0.209716796875,-0.0230712890625
16.527,1878,2456,539,319,-0.6053466796875,0.2689208984375,0.0050048828125
16.535,1681,2780,710,329,-0.5350341796875,0.2359619140625,0.052001953125
16.543,2050,3147,625,318,-0.4595947265625,0.097412109375,0.1151123046875
16.556,2192,3147,561,523,-0.376220703125,0.0032958984375,0.1661376953125
16.566,553,3147,1754,974,-0.3018798828125,0.0142822265625,0.1898193359375
16.596,2484,3147,514,689,-0.3026123046875,0.0445556640625,0.286376953125
