time,compression0,compression1,compression2,compression3,accel_x,accel_y,accel_z
0.003,306,2279,698,336,-0.76416015625,0.0224609375,-0.5982666015625
0.024,305,2238,713,336,-0.7578125,0.0325927734375,-0.6141357421875
0.024,306,2210,725,338,-0.7664794921875,0.0546875,-0.6375732421875
0.045,305,2156,721,332,-0.784423828125,0.0831298828125,-0.6513671875
0.046,308,2165,740,344,-0.798828125,0.110595703125,-0.635498046875
0.049,306,2047,772,334,-0.800048828125,0.119140625,-0.586669921875
0.063,306,2019,846,333,-0.79248046875,0.096435546875,-0.527099609375
0.071,306,2010,883,336,-0.7911376953125,0.0550537109375,-0.4735107421875
0.079,306,2076,853,338,-0.8179931640625,0.0311279296875,-0.4404296875
0.093,306,2203,888,334,-0.8673095703125,0.0537109375,-0.4434814453125
0.101,304,2279,858,337,-0.89892578125,0.0860595703125,-0.4639892578125
0.109,304,2424,833,338,-0.901611328125,0.087890625,-0.4783935546875
0.123,306,2505,873,344,-0.8917236328125,0.0755615234375,-0.4898681640625
0.154,304,2504,887,342,-0.88134765625,0.0654296875,-0.4984130859375
0.158,305,2492,872,338,-0.877197265625,0.066650390625,-0.5050048828125
0.158,304,2468,893,342,-0.8736572265625,0.09375,-0.5242919921875
0.161,304,2424,894,342,-0.859130859375,0.1356201171875,-0.552978515625
0.191,304,2418,879,342,-0.8424072265625,0.16162109375,-0.5743408203125
0.194,306,2368,906,338,-0.8411865234375,0.158447265625,-0.5821533203125
0.209,307,2314,879,338,-0.8526611328125,0.1324462890625,-0.5811767578125
0.209,308,2240,860,338,-0.8526611328125,0.1324462890625,-0.5811767578125
0.231,306,2065,830,334,-0.8697509765625,0.079833984375,-0.558349609375
0.231,304,1918,803,338,-0.86865234375,0.06787109375,-0.549560546875
0.231,306,1788,788,332,-0.86865234375,0.06787109375,-0.549560546875
0.255,305,1471,739,331,-0.8685302734375,0.05126953125,-0.5538330078125
0.256,305,1355,740,330,-0.8656005859375,0.0496826171875,-0.5511474609375
0.260,304,1195,721,328,-0.8656005859375,0.0496826171875,-0.5511474609375
0.277,302,1074,652,327,-0.834716796875,0.050048828125,-0.5101318359375
0.281,302,1074,636,328,-0.8199462890625,0.05712890625,-0.49755859375
0.289,304,1024,632,328,-0.8199462890625,0.05712890625,-0.49755859375
0.303,304,923,628,324,-0.804443359375,0.11962890625,-0.562255859375
0.311,304,894,607,327,-0.8021240234375,0.1533203125,-0.5908203125
0.325,304,803,582,327,-0.8021240234375,0.1533203125,-0.5908203125
0.333,304,754,525,323,-0.795654296875,0.1334228515625,-0.5953369140625
0.341,302,766,500,325,-0.7908935546875,0.1063232421875,-0.576904296875
0.351,302,736,495,323,-0.7908935546875,0.1063232421875,-0.576904296875
0.368,301,738,482,324,-0.7864990234375,0.0762939453125,-0.5406494140625
0.371,304,739,458,324,-0.7841796875,0.08251953125,-0.5357666015625
0.385,304,751,484,324,-0.7841796875,0.08251953125,-0.5357666015625
0.393,300,761,473,323,-0.78125,0.0941162109375,-0.5205078125
0.401,301,832,499,324,-0.7825927734375,0.0853271484375,-0.509033203125
0.409,304,853,501,323,-0.7825927734375,0.0853271484375,-0.509033203125
0.427,302,900,513,323,-0.7864990234375,0.07373046875,-0.497314453125
0.431,304,927,524,324,-0.7864990234375,0.07373046875,-0.497314453125
0.441,302,969,532,324,-0.789794921875,0.070068359375,-0.4970703125
0.456,304,1138,548,327,-0.78515625,0.0777587890625,-0.485595703125
0.461,304,1213,646,328,-0.78515625,0.0777587890625,-0.485595703125
0.480,304,1264,684,330,-0.7811279296875,0.092529296875,-0.4813232421875
0.490,304,1393,695,330,-0.774658203125,0.10400390625,-0.4833984375
0.491,308,1561,689,315,-0.774658203125,0.10400390625,-0.4833984375
0.538,304,1789,706,329,-0.7728271484375,0.100830078125,-0.4873046875
0.558,306,2167,693,336,-0.7894287109375,0.095703125,-0.4818115234375
0.559,304,2379,702,338,-0.7894287109375,0.095703125,-0.4818115234375
0.559,306,2493,700,338,-0.7960205078125,0.0860595703125,-0.4765625
0.560,304,2988,669,338,-0.769287109375,0.0911865234375,-0.4302978515625
0.560,304,3147,707,346,-0.769287109375,0.0911865234375,-0.4302978515625
0.561,306,3147,710,461,-0.73779296875,0.1109619140625,-0.421630859375
0.574,304,3147,815,917,-0.6387939453125,0.19091796875,-0.43701171875
0.589,308,3147,860,1163,-0.6387939453125,0.19091796875,-0.43701171875
0.598,307,3147,890,1467,-0.5718994140625,0.188720703125,-0.398193359375
0.603,306,3147,1011,2087,-0.4622802734375,0.1302490234375,-0.2138671875
0.611,308,3147,1041,2323,-0.4622802734375,0.1302490234375,-0.2138671875
0.620,306,3147,1091,2668,-0.461181640625,0.2357177734375,-0.2132568359375
0.633,308,3147,1231,3095,-0.64990234375,0.432373046875,-0.693359375
0.641,308,3147,1312,3147,-0.64990234375,0.432373046875,-0.693359375
0.650,310,3147,1362,3147,-0.8402099609375,0.203125,-0.934814453125
0.663,310,3147,1422,3147,-1.0098876953125,-0.0445556640625,-1.031005859375
0.671,310,3147,1453,3147,-1.0648193359375,-0.118408203125,-0.9786376953125
0.679,310,3147,1497,3147,-1.039794921875,-0.0556640625,-0.831298828125
0.709,313,3147,1585,3147,-1.022705078125,-0.0113525390625,-0.7684326171875
0.710,313,3147,1615,3147,-1.0960693359375,0.0867919921875,-0.85546875
0.710,312,3147,1613,3147,-1.2352294921875,0.22509765625,-0.9527587890625
0.723,313,3147,1665,3147,-1.2998046875,0.241943359375,-0.91552734375
0.736,313,3147,1624,3147,-1.265380859375,0.236328125,-0.7515869140625
0.739,310,3147,1550,3147,-1.101318359375,0.2353515625,-0.532470703125
0.753,314,3147,1500,3147,-0.8428955078125,0.2464599609375,-0.4259033203125
0.773,310,3147,1488,3147,-0.7374267578125,0.3427734375,-0.540283203125
0.773,310,3147,1463,3147,-0.880859375,0.4141845703125,-0.7628173828125
0.783,310,3147,1390,3147,-1.16015625,0.3726806640625,-0.9141845703125
0.791,309,3147,1318,3147,-1.3614501953125,0.2410888671875,-0.9083251953125
0.799,308,3147,1249,3147,-1.3238525390625,0.0770263671875,-0.796875
0.817,308,3147,1185,3147,-1.159423828125,-0.05322265625,-0.673828125
0.821,306,3147,1078,2985,-1.0107421875,-0.0787353515625,-0.609375
0.836,309,3147,992,2775,-0.8853759765625,-0.032470703125,-0.5760498046875
0.843,306,3147,918,2278,-0.77978515625,-0.0211181640625,-0.53564453125
0.854,306,3147,854,1891,-0.7098388671875,-0.036865234375,-0.505126953125
0.868,305,3147,797,1580,-0.6641845703125,0.011474609375,-0.5050048828125
0.874,304,3147,725,958,-0.6307373046875,0.126708984375,-0.5281982421875
0.881,304,3147,628,532,-0.63037109375,0.2216796875,-0.5491943359375
0.889,304,3017,625,338,-0.6541748046875,0.2822265625,-0.5213623046875
0.904,304,2364,571,333,-0.6611328125,0.3505859375,-0.43017578125
0.917,302,1861,548,330,-0.666015625,0.3311767578125,-0.33544921875
0.925,304,1477,533,324,-0.6844482421875,0.147705078125,-0.2830810546875
0.940,302,1096,499,323,-0.7017822265625,-0.02587890625,-0.2799072265625
0.941,304,912,497,304,-0.7178955078125,-0.0076904296875,-0.3441162109375
0.949,304,808,506,323,-0.741455078125,0.1505126953125,-0.43701171875
0.971,304,802,468,321,-0.7650146484375,0.2489013671875,-0.4752197265625
0.972,302,806,483,304,-0.776611328125,0.1915283203125,-0.436767578125
0.979,304,746,484,321,-0.7786865234375,0.0567626953125,-0.3707275390625
0.996,300,746,488,321,-0.7757568359375,-0.0447998046875,-0.336181640625
1.001,302,784,482,321,-0.7745361328125,-0.0679931640625,-0.347900390625
1.009,302,787,499,318,-0.78369140625,-0.0340576171875,-0.3870849609375
1.023,302,777,509,321,-0.7847900390625,0.0216064453125,-0.4183349609375
1.048,300,790,526,321,-0.7760009765625,0.0618896484375,-0.4202880859375
1.048,301,794,546,321,-0.7711181640625,0.0799560546875,-0.4107666015625
1.059,304,899,552,323,-0.7645263671875,0.092041015625,-0.40087890625
1.070,304,1009,563,326,-0.7569580078125,0.084228515625,-0.3895263671875
1.071,302,1138,578,323,-0.747314453125,0.063232421875,-0.387451171875
1.083,302,1584,576,328,-0.73681640625,0.0582275390625,-0.3984375
1.091,304,2001,551,330,-0.728271484375,0.0589599609375,-0.408203125
1.099,302,2449,554,334,-0.731689453125,0.05078125,-0.4066162109375
1.113,302,3147,539,342,-0.7464599609375,0.0523681640625,-0.40087890625
1.121,300,3147,551,725,-0.7626953125,0.064453125,-0.405029296875
1.132,304,3147,547,1085,-0.7781982421875,0.067626953125,-0.4100341796875
1.152,300,3147,555,1524,-0.7760009765625,0.059814453125,-0.395263671875
1.152,300,3147,591,1698,-0.73828125,0.07421875,-0.3697509765625
1.173,304,3147,667,1983,-0.6854248046875,0.1512451171875,-0.3360595703125
1.174,302,3147,732,2367,-0.65771484375,0.2196044921875,-0.281494140625
1.184,305,3147,814,2622,-0.663818359375,0.1839599609375,-0.194091796875
1.189,305,3147,894,2879,-0.6878662109375,0.1500244140625,-0.107177734375
1.208,306,3147,978,3147,-0.7373046875,0.206787109375,-0.140625
1.213,304,3147,1007,3147,-0.789306640625,0.2449951171875,-0.32861328125
1.219,304,3147,1042,3147,-0.76806640625,0.1595458984375,-0.55322265625
1.236,305,3147,1071,3147,-0.7003173828125,0.072265625,-0.698486328125
1.247,306,3147,1107,3147,-0.6875,0.1505126953125,-0.7186279296875
1.249,309,3147,1108,3147,-0.775390625,0.265869140625,-0.701171875
1.274,308,3147,1103,3147,-0.9521484375,0.306884765625,-0.7462158203125
1.274,306,3147,1116,3147,-1.1658935546875,0.2843017578125,-0.8427734375
1.284,306,3147,1104,3147,-1.3421630859375,0.18359375,-0.9332275390625
1.293,308,3147,1137,3147,-1.427734375,0.1407470703125,-0.888671875
1.301,308,3147,1151,3147,-1.4298095703125,0.175537109375,-0.6982421875
1.309,308,3147,1149,3147,-1.3997802734375,0.1630859375,-0.5450439453125
1.323,307,3147,1118,3147,-1.2747802734375,0.11474609375,-0.503173828125
1.331,307,3147,1082,3147,-0.9718017578125,0.129638671875,-0.55859375
1.349,308,3147,1092,3147,-0.9718017578125,0.129638671875,-0.55859375
1.353,308,3147,1091,3147,-0.802001953125,0.36669921875,-0.7674560546875
1.388,308,3147,1120,3147,-1.0150146484375,0.3509521484375,-0.7344970703125
1.388,308,3147,1112,3147,-1.0150146484375,0.3509521484375,-0.7344970703125
1.388,306,3147,1050,3147,-1.6783447265625,0.2947998046875,-0.6004638671875
1.391,306,3147,1042,3147,-1.630615234375,0.1605224609375,-0.5498046875
1.399,306,3147,978,3147,-1.630615234375,0.1605224609375,-0.5498046875
1.413,306,3147,913,3147,-1.15869140625,0.144287109375,-0.664794921875
1.421,306,3147,841,3147,-1.04345703125,0.1031494140625,-0.6468505859375
1.429,302,3147,725,2854,-1.04345703125,0.1031494140625,-0.6468505859375
1.456,300,3147,532,2328,-0.6617431640625,0.047607421875,-0.37109375
1.456,302,3147,421,1927,-0.40673828125,0.0594482421875,-0.3812255859375
1.459,301,3147,369,1574,-0.40673828125,0.0594482421875,-0.3812255859375
1.479,300,3147,363,890,-0.326171875,0.180908203125,-0.5484619140625
1.497,300,3147,334,404,-0.4500732421875,0.3409423828125,-0.5906982421875
1.497,300,2955,328,334,-0.4500732421875,0.3409423828125,-0.5906982421875
1.503,302,2161,330,334,-0.6068115234375,0.4326171875,-0.4080810546875
1.511,300,1580,330,324,-0.695068359375,0.2208251953125,-0.325927734375
1.519,302,1266,330,324,-0.695068359375,0.2208251953125,-0.325927734375
1.533,301,871,324,323,-0.7998046875,0.035400390625,-0.2618408203125
1.541,301,849,323,319,-0.813232421875,0.1153564453125,-0.264404296875
1.562,301,774,324,324,-0.813232421875,0.1153564453125,-0.264404296875
1.567,300,735,347,322,-0.80322265625,0.103759765625,-0.277587890625
1.581,300,710,344,321,-0.80322265625,0.103759765625,-0.277587890625
1.581,302,744,343,318,-0.79296875,0.044189453125,-0.2840576171875
1.593,301,661,351,321,-0.802978515625,0.0457763671875,-0.3048095703125
1.601,302,621,338,321,-0.802978515625,0.0457763671875,-0.3048095703125
1.609,300,679,354,318,-0.814453125,0.072509765625,-0.3201904296875
1.623,300,725,324,321,-0.8145751953125,0.1031494140625,-0.328857421875
1.631,300,774,378,321,-0.8145751953125,0.1031494140625,-0.328857421875
1.639,300,779,375,319,-0.7977294921875,0.102783203125,-0.3297119140625
1.664,300,962,389,321,-0.739013671875,0.085205078125,-0.3414306640625
1.664,300,1079,417,327,-0.739013671875,0.085205078125,-0.3414306640625
1.684,302,1450,431,324,-0.7020263671875,0.0648193359375,-0.330322265625
1.684,302,2415,426,334,-0.6324462890625,0.0443115234375,-0.3665771484375
1.693,301,2951,404,338,-0.6324462890625,0.0443115234375,-0.3665771484375
1.699,299,3147,414,423,-0.63525390625,0.1014404296875,-0.40234375
1.715,302,3147,390,1237,-0.698486328125,0.2264404296875,-0.3868408203125
1.721,301,3147,385,1536,-0.698486328125,0.2264404296875,-0.3868408203125
1.729,300,3147,439,1819,-0.7373046875,0.2000732421875,-0.3499755859375
1.743,304,3147,654,2370,-0.5906982421875,0.1483154296875,-0.176025390625
1.758,307,3147,735,2624,-0.5906982421875,0.1483154296875,-0.176025390625
1.759,306,3147,917,2936,-0.4952392578125,0.1207275390625,-0.09521484375
1.776,304,3147,1184,3147,-0.517333984375,0.14111328125,-0.0418701171875
1.792,307,3147,1231,3147,-0.68505859375,0.1788330078125,-0.0885009765625
1.792,306,3147,1282,3147,-0.8812255859375,0.165771484375,-0.2545166015625
1.803,309,3147,1336,3147,-0.9578857421875,0.127685546875,-0.488037109375
1.811,307,3147,1365,3147,-0.946533203125,0.1417236328125,-0.67919921875
1.826,310,3147,1404,3147,-0.9383544921875,0.240478515625,-0.750244140625
1.833,308,3147,1456,3147,-0.96826171875,0.3455810546875,-0.78271484375
1.841,310,3147,1518,3147,-1.036376953125,0.336181640625,-0.882568359375
1.849,310,3147,1574,3147,-1.158447265625,0.2723388671875,-1.0465087890625
1.863,310,3147,1634,3147,-1.3026123046875,0.3692626953125,-1.061767578125
1.880,313,3147,1669,3147,-1.3873291015625,0.50830078125,-0.860107421875
1.880,313,3147,1627,3147,-1.435546875,0.4453125,-0.61474609375
1.902,313,3147,1584,3147,-1.4583740234375,0.20458984375,-0.416748046875
1.903,310,3147,1541,3147,-1.2479248046875,-0.0338134765625,-0.290283203125
1.909,310,3147,1514,3147,-0.899658203125,-0.0511474609375,-0.341064453125
1.923,310,3147,1546,3147,-0.823974609375,0.13623046875,-0.5611572265625
1.931,310,3147,1533,3147,-0.9862060546875,0.325439453125,-0.7353515625
1.939,310,3147,1498,3147,-1.26904296875,0.4173583984375,-0.75830078125
1.953,309,3147,1390,3147,-1.5638427734375,0.3551025390625,-0.6480712890625
1.964,308,3147,1336,3147,-1.609619140625,0.2012939453125,-0.5089111328125
1.969,314,3147,1292,3147,-1.43603515625,0.16455078125,-0.4969482421875
1.994,307,3147,1217,3147,-1.2310791015625,0.2572021484375,-0.6065673828125
1.995,306,3147,1160,3147,-1.06982421875,0.2896728515625,-0.6787109375
2.001,307,3147,1065,3147,-0.966552734375,0.2156982421875,-0.6280517578125
2.013,304,3147,938,2772,-0.8955078125,0.16455078125,-0.50390625
2.022,304,3147,860,2344,-0.7958984375,0.12548828125,-0.3963623046875
2.029,304,3147,764,1819,-0.6624755859375,0.0621337890625,-0.3587646484375
2.043,300,3147,574,992,-0.5606689453125,-0.00048828125,-0.37939453125
2.051,304,3147,574,342,-0.5362548828125,-0.0616455078125,-0.40185546875
2.068,304,2498,562,336,-0.5621337890625,-0.0726318359375,-0.412841796875
2.073,302,1213,546,321,-0.579833984375,0.0673828125,-0.3902587890625
2.094,302,853,529,316,-0.593994140625,0.2587890625,-0.3309326171875
2.095,302,630,527,296,-0.6488037109375,0.30810546875,-0.282470703125
2.103,302,608,533,323,-0.713134765625,0.25634765625,-0.2542724609375
2.112,302,497,537,316,-0.7491455078125,0.19873046875,-0.2587890625
2.120,300,456,485,321,-0.76953125,0.1812744140625,-0.2916259765625
2.134,302,458,484,318,-0.7711181640625,0.1632080078125,-0.3045654296875
2.142,302,418,478,318,-0.765869140625,0.09326171875,-0.2872314453125
2.150,304,456,497,317,-0.76708984375,0.02392578125,-0.2628173828125
2.171,304,466,530,318,-0.7620849609375,0.00732421875,-0.2452392578125
2.172,302,442,519,317,-0.7635498046875,0.03759765625,-0.244140625
2.183,304,410,571,317,-0.781005859375,0.08349609375,-0.25146484375
2.194,302,373,582,316,-0.790283203125,0.1072998046875,-0.2666015625
2.205,304,373,603,316,-0.783935546875,0.1007080078125,-0.286376953125
2.210,302,363,607,316,-0.774169921875,0.0933837890625,-0.298828125
2.224,300,482,614,318,-0.7557373046875,0.10498046875,-0.3048095703125
2.232,304,521,630,324,-0.7235107421875,0.1141357421875,-0.3126220703125
2.240,306,724,625,318,-0.6832275390625,0.10302734375,-0.3101806640625
2.254,304,815,687,316,-0.6446533203125,0.07177734375,-0.2969970703125
2.262,302,1112,660,328,-0.619140625,0.0235595703125,-0.295654296875
2.278,302,1800,723,330,-0.611083984375,-0.0054931640625,-0.322021484375
2.287,304,3134,674,344,-0.628173828125,0.0233154296875,-0.3843994140625
2.309,302,3147,679,691,-0.7012939453125,0.10498046875,-0.46826171875
2.310,291,3147,673,1178,-0.8128662109375,0.185791015625,-0.50244140625
2.316,305,3147,636,1704,-0.8890380859375,0.18603515625,-0.46533203125
2.324,302,3147,680,1978,-0.8701171875,0.125732421875,-0.38427734375
2.330,304,3147,740,2287,-0.707275390625,0.1021728515625,-0.247314453125
2.344,306,3147,890,2827,-0.4583740234375,0.0899658203125,-0.0908203125
2.352,306,3147,1025,3134,-0.301513671875,0.0714111328125,0.074951171875
2.360,306,3147,1070,3147,-0.358154296875,0.13671875,0.1400146484375
2.374,304,3147,1173,3147,-0.5933837890625,0.1773681640625,-0.073974609375
2.382,308,3147,1213,3147,-0.8411865234375,0.1009521484375,-0.4815673828125
2.412,308,3147,1254,3147,-1.014404296875,0.0296630859375,-0.8836669921875
2.413,308,3147,1310,3147,-1.1246337890625,0.1077880859375,-1.135009765625
2.413,307,3147,1317,3147,-1.2159423828125,0.287353515625,-1.147705078125
2.423,308,3147,1357,3147,-1.2913818359375,0.3221435546875,-0.9676513671875
2.434,308,3147,1411,3147,-1.34326171875,0.2396240234375,-0.7374267578125
2.442,310,3147,1452,3147,-1.44287109375,0.2003173828125,-0.6148681640625
2.451,312,3147,1474,3147,-1.5804443359375,0.2188720703125,-0.654541015625
2.464,308,3147,1341,3147,-1.6279296875,0.2301025390625,-0.7305908203125
2.477,310,3147,1294,3147,-1.36328125,0.1480712890625,-0.692138671875
2.480,308,3147,1251,3147,-0.8857421875,0.1011962890625,-0.6434326171875
2.494,307,3147,1225,3147,-0.70166015625,0.19970703125,-0.7247314453125
2.521,308,3147,1239,3147,-0.855712890625,0.2650146484375,-0.780029296875
2.521,308,3147,1229,3147,-1.12255859375,0.2655029296875,-0.7391357421875
2.526,308,3147,1156,3147,-1.4932861328125,0.2813720703125,-0.6939697265625
2.533,308,3147,1107,3147,-1.7186279296875,0.1978759765625,-0.62548828125
2.540,308,3147,1037,3147,-1.5985107421875,0.0589599609375,-0.544921875
2.554,304,3147,944,3147,-1.328857421875,0.050537109375,-0.565673828125
2.563,304,3147,845,3147,-1.082763671875,0.1312255859375,-0.640869140625
2.577,306,3147,811,3147,-1.082763671875,0.1312255859375,-0.640869140625
2.584,301,3147,775,3080,-0.772216796875,0.07861328125,-0.5594482421875
2.594,302,3147,683,2722,-0.67529296875,0.0716552734375,-0.5123291015625
2.627,304,3147,636,2337,-0.67529296875,0.0716552734375,-0.5123291015625
2.627,300,3147,499,1820,-0.544921875,0.038818359375,-0.5360107421875
2.627,301,3147,395,1341,-0.5509033203125,0.008544921875,-0.5299072265625
2.631,302,3147,360,865,-0.5509033203125,0.008544921875,-0.5299072265625
2.644,300,2733,346,333,-0.6474609375,0.006103515625,-0.4228515625
2.652,300,2035,336,330,-0.614501953125,0.109130859375,-0.3134765625
2.660,302,1456,359,328,-0.614501953125,0.109130859375,-0.3134765625
2.682,302,934,354,321,-0.58837890625,0.2366943359375,-0.2247314453125
2.682,302,788,359,318,-0.6387939453125,0.203857421875,-0.260009765625
2.690,302,731,363,319,-0.6387939453125,0.203857421875,-0.260009765625
2.713,302,691,359,319,-0.690673828125,0.1728515625,-0.3289794921875
2.714,302,683,338,321,-0.7108154296875,0.1798095703125,-0.355712890625
2.736,300,725,342,323,-0.7108154296875,0.1798095703125,-0.355712890625
2.736,300,777,342,321,-0.754638671875,0.0576171875,-0.2989501953125
2.742,302,844,369,321,-0.7626953125,-0.0177001953125,-0.2501220703125
2.750,302,855,360,324,-0.7626953125,-0.0177001953125,-0.2501220703125
2.764,300,949,357,323,-0.77294921875,-0.0045166015625,-0.2623291015625
2.772,302,1092,363,324,-0.7745361328125,0.014404296875,-0.2991943359375
2.784,302,1202,382,325,-0.7745361328125,0.014404296875,-0.2991943359375
2.794,304,1785,386,328,-0.7691650390625,-0.0037841796875,-0.3287353515625
2.807,304,2231,385,334,-0.7691650390625,-0.0037841796875,-0.3287353515625
2.811,302,2736,399,342,-0.7691650390625,-0.0145263671875,-0.329833984375
2.842,299,3147,383,497,-0.7786865234375,0.022216796875,-0.3441162109375
2.843,302,3147,331,846,-0.7786865234375,0.022216796875,-0.3441162109375
2.843,300,3147,348,1233,-0.7659912109375,0.0626220703125,-0.3701171875
2.854,301,3147,344,1801,-0.67431640625,0.12646484375,-0.392578125
2.862,304,3147,442,2105,-0.67431640625,0.12646484375,-0.392578125
2.870,304,3147,530,2419,-0.60498046875,0.184814453125,-0.3602294921875
2.886,304,3147,697,2944,-0.3887939453125,0.2017822265625,-0.144287109375
2.894,304,3147,763,3147,-0.3887939453125,0.2017822265625,-0.144287109375
2.903,305,3147,878,3147,-0.3487548828125,0.1732177734375,-0.01953125
2.919,305,3147,998,3147,-0.557373046875,0.0457763671875,-0.07861328125
2.924,308,3147,1109,3147,-0.557373046875,0.0457763671875,-0.07861328125
2.930,308,3147,1160,3147,-0.724853515625,0.006103515625,-0.340576171875
2.944,308,3147,1258,3147,-1.15380859375,0.3272705078125,-0.83642578125
2.952,308,3147,1306,3147,-1.15380859375,0.3272705078125,-0.83642578125
2.960,310,3147,1416,3147,-1.31103515625,0.2601318359375,-0.885498046875
2.974,314,3147,1548,3147,-1.4779052734375,0.1793212890625,-0.911865234375
2.988,313,3147,1590,3147,-1.4779052734375,0.1793212890625,-0.911865234375
2.990,314,3147,1650,3147,-1.5252685546875,0.207275390625,-0.8145751953125
3.004,310,3147,1632,3147,-1.5977783203125,0.2489013671875,-0.58203125
3.017,313,3147,1634,3147,-1.5977783203125,0.2489013671875,-0.58203125
3.024,313,3147,1580,3147,-1.4049072265625,0.2222900390625,-0.4468994140625
3.034,313,3147,1548,3147,-0.9884033203125,0.105712890625,-0.3870849609375
3.047,314,3147,1550,3147,-0.7467041015625,0.1929931640625,-0.5670166015625
3.050,313,3147,1533,3147,-0.9072265625,0.401611328125,-0.7698974609375
3.067,312,3147,1409,3147,-1.293212890625,0.39794921875,-0.747314453125
3.074,305,3147,1331,3147,-1.5986328125,0.198974609375,-0.552978515625
3.080,309,3147,1228,3147,-1.584228515625,0.03759765625,-0.385986328125
3.095,308,3147,1120,3147,-1.396728515625,0.009521484375,-0.373779296875
3.108,308,3147,1043,3147,-1.24755859375,0.0943603515625,-0.497314453125
3.122,307,3147,978,3147,-1.1103515625,0.20703125,-0.62548828125
3.124,306,3147,890,3147,-0.9674072265625,0.216552734375,-0.637451171875
3.134,304,3147,841,3147,-0.873779296875,0.13037109375,-0.5650634765625
3.142,304,3147,765,3147,-0.8233642578125,0.1075439453125,-0.50390625
3.154,304,3147,621,2671,-0.773681640625,0.1697998046875,-0.4837646484375
3.162,304,3147,531,2317,-0.703369140625,0.16845703125,-0.4871826171875
3.170,301,3147,439,1846,-0.6346435546875,0.08984375,-0.4898681640625
3.184,300,3147,363,1243,-0.594970703125,-0.0079345703125,-0.479736328125
3.192,300,3147,364,653,-0.5802001953125,-0.08447265625,-0.4573974609375
3.200,301,3147,373,346,-0.5797119140625,-0.06494140625,-0.4326171875
3.218,304,2345,371,333,-0.5946044921875,0.1214599609375,-0.3634033203125
3.223,300,1741,356,327,-0.6302490234375,0.3236083984375,-0.247802734375
3.232,300,1085,364,323,-0.677734375,0.3187255859375,-0.168701171875
3.239,301,986,346,324,-0.705322265625,0.1824951171875,-0.153564453125
3.253,300,742,375,327,-0.6961669921875,0.080078125,-0.1971435546875
3.267,300,780,363,318,-0.6912841796875,0.051025390625,-0.2686767578125
3.270,300,819,371,323,-0.71630859375,0.0574951171875,-0.3006591796875
3.283,302,837,423,321,-0.7481689453125,0.041259765625,-0.2862548828125
3.298,302,878,432,323,-0.77197265625,-0.0006103515625,-0.2510986328125
3.299,290,888,404,322,-0.7900390625,-0.0396728515625,-0.237548828125
3.313,302,947,426,324,-0.804931640625,-0.0419921875,-0.272705078125
3.333,302,1000,414,323,-0.81640625,0.0062255859375,-0.332763671875
3.333,302,1031,426,297,-0.815185546875,0.047119140625,-0.3828125
3.343,302,1320,418,327,-0.80029296875,0.050537109375,-0.3963623046875
3.351,302,1625,401,329,-0.7857666015625,0.03564453125,-0.379638671875
3.383,300,1968,388,334,-0.77783203125,0.021240234375,-0.3525390625
3.384,301,2679,376,317,-0.7730712890625,0.02001953125,-0.32373046875
3.384,302,3098,356,338,-0.77099609375,0.0343017578125,-0.2940673828125
3.389,302,3147,364,546,-0.7705078125,0.0546875,-0.2833251953125
3.403,299,3147,354,1149,-0.760498046875,0.075927734375,-0.31396484375
3.431,302,3147,365,1496,-0.725341796875,0.0897216796875,-0.3397216796875
3.435,300,3147,382,1810,-0.6719970703125,0.0831298828125,-0.32421875
3.435,291,3147,540,2290,-0.611572265625,0.0906982421875,-0.3017578125
3.441,304,3147,618,2587,-0.521728515625,0.1107177734375,-0.2576904296875
3.449,306,3147,738,2935,-0.4130859375,0.0855712890625,-0.140869140625
3.463,304,3147,944,3147,-0.3826904296875,0.0594482421875,-0.0098876953125
3.473,306,3147,987,3147,-0.509033203125,0.0860595703125,-0.022705078125
3.479,307,3147,1027,3147,-0.6712646484375,0.1048583984375,-0.17138671875
3.501,308,3147,1103,3147,-0.8150634765625,0.1422119140625,-0.41455078125
3.502,315,3147,1104,3147,-0.9857177734375,0.2789306640625,-0.667236328125
3.530,308,3147,1143,3147,-1.0877685546875,0.40087890625,-0.7421875
3.531,308,3147,1316,3147,-1.1011962890625,0.3834228515625,-0.7459716796875
3.531,311,3147,1397,3147,-1.1151123046875,0.323974609375,-0.8162841796875
3.539,309,3147,1488,3147,-1.1939697265625,0.3271484375,-0.85791015625
3.553,310,3147,1572,3147,-1.3426513671875,0.27783203125,-0.82763671875
3.561,313,3147,1613,3147,-1.5262451171875,0.124267578125,-0.75146484375
3.569,315,3147,1580,3147,-1.6800537109375,0.060791015625,-0.6475830078125
3.583,310,3147,1480,3147,-1.681396484375,0.062744140625,-0.508544921875
3.591,310,3147,1369,3147,-1.348876953125,-0.055908203125,-0.3941650390625
3.603,309,3147,1357,3147,-1.348876953125,-0.055908203125,-0.3941650390625
3.613,309,3147,1336,3147,-0.7685546875,0.3525390625,-0.8065185546875
3.641,308,3147,1255,3147,-1.124755859375,0.54638671875,-0.849853515625
3.641,309,3147,1191,3147,-1.124755859375,0.54638671875,-0.849853515625
3.643,307,3147,1063,3147,-1.615234375,0.124267578125,-0.4354248046875
3.651,306,3147,1047,3147,-1.4613037109375,0.02392578125,-0.399658203125
3.659,308,3147,976,3147,-1.4613037109375,0.02392578125,-0.399658203125
3.673,308,3147,899,3147,-1.184814453125,0.1229248046875,-0.535400390625
3.684,307,3147,816,3147,-0.9964599609375,0.1990966796875,-0.569580078125
3.689,305,3147,806,3147,-0.9964599609375,0.1990966796875,-0.569580078125
3.705,304,3147,723,3147,-0.7752685546875,0.1512451171875,-0.5904541015625
3.711,304,3147,678,3147,-0.7078857421875,0.1943359375,-0.5849609375
3.743,302,3147,596,3035,-0.7078857421875,0.1943359375,-0.5849609375
3.744,302,3147,430,2539,-0.5595703125,0.1636962890625,-0.5137939453125
3.745,302,3147,388,2266,-0.5303955078125,0.0545654296875,-0.4385986328125
3.750,296,3147,385,1900,-0.5303955078125,0.0545654296875,-0.4385986328125
3.763,304,3147,375,1224,-0.5770263671875,0.133544921875,-0.33740234375
3.771,300,3147,371,949,-0.5716552734375,0.180908203125,-0.2789306640625
3.779,302,3147,373,614,-0.5716552734375,0.180908203125,-0.2789306640625
3.794,304,3003,371,334,-0.56884765625,0.170166015625,-0.2149658203125
3.809,302,2703,382,336,-0.664794921875,0.146728515625,-0.2437744140625
3.809,301,2415,344,334,-0.664794921875,0.146728515625,-0.2437744140625
3.824,304,2076,419,332,-0.8157958984375,0.1373291015625,-0.3128662109375
3.854,304,1838,400,330,-0.8157958984375,0.1373291015625,-0.3128662109375
3.855,302,1649,431,327,-0.8416748046875,0.099365234375,-0.33837890625
3.855,304,1624,383,328,-0.840576171875,0.0289306640625,-0.350830078125
3.862,302,1536,378,328,-0.840576171875,0.0289306640625,-0.350830078125
3.869,300,1518,378,327,-0.84765625,0.03125,-0.347412109375
3.883,300,1516,386,327,-0.855224609375,0.0047607421875,-0.3541259765625
3.900,302,1574,391,330,-0.855224609375,0.0047607421875,-0.3541259765625
3.901,300,1713,388,328,-0.837158203125,0.0068359375,-0.370849609375
3.913,302,2161,383,330,-0.77001953125,0.0341796875,-0.4122314453125
3.921,298,2430,383,338,-0.77001953125,0.0341796875,-0.4122314453125
3.942,301,2679,400,334,-0.7647705078125,0.06298828125,-0.4256591796875
3.943,304,3147,378,343,-0.77392578125,0.1217041015625,-0.3946533203125
3.951,301,3147,361,513,-0.77392578125,0.1217041015625,-0.3946533203125
3.967,300,3147,363,757,-0.7650146484375,0.1334228515625,-0.365478515625
3.973,302,3147,361,1211,-0.7222900390625,0.095458984375,-0.3092041015625
3.981,302,3147,363,1585,-0.7222900390625,0.095458984375,-0.3092041015625
3.989,302,3147,371,1914,-0.6798095703125,0.06640625,-0.292236328125
4.013,298,3147,376,2367,-0.55322265625,0.108154296875,-0.2978515625
4.014,281,3147,461,2638,-0.55322265625,0.108154296875,-0.2978515625
4.019,304,3147,580,2928,-0.4561767578125,0.166748046875,-0.2501220703125
4.049,306,3147,784,3147,-0.33056640625,0.2215576171875,-0.142333984375
4.049,304,3147,922,3147,-0.23828125,0.273193359375,-0.010498046875
4.050,311,3147,986,3147,-0.2666015625,0.238037109375,0.0560302734375
4.063,307,3147,1043,3147,-0.4505615234375,0.1085205078125,0.03271484375
4.079,306,3147,1176,3147,-0.8125,0.0523681640625,-0.2008056640625
4.079,308,3147,1274,3147,-1.2431640625,0.1412353515625,-0.682373046875
4.095,310,3147,1343,3147,-1.546875,0.2083740234375,-1.0772705078125
4.122,308,3147,1372,3147,-1.6531982421875,0.16455078125,-1.049560546875
4.124,297,3147,1441,3147,-1.5994873046875,0.134521484375,-0.673828125
4.126,310,3147,1496,3147,-1.5546875,0.16552734375,-0.40234375
4.143,309,3147,1407,3147,-1.6085205078125,0.2049560546875,-0.44091796875
4.144,287,3147,1383,3147,-1.638671875,0.2161865234375,-0.6214599609375
4.153,310,3147,1276,3147,-1.3587646484375,0.1922607421875,-0.7066650390625
4.161,308,3147,1306,3147,-0.8912353515625,0.26953125,-0.655029296875
4.169,308,3147,1290,3147,-0.7469482421875,0.4453125,-0.603271484375
4.183,306,3147,1278,3147,-0.9742431640625,0.528564453125,-0.578857421875
4.192,308,3147,1173,3147,-1.28515625,0.4664306640625,-0.5252685546875
4.199,306,3147,1148,3147,-1.4713134765625,0.27197265625,-0.4266357421875
4.224,302,3147,1054,3147,-1.4830322265625,0.0316162109375,-0.3043212890625
4.224,306,3147,987,3147,-1.3712158203125,-0.03857421875,-0.281005859375
4.231,306,3147,934,3147,-1.2216796875,0.061767578125,-0.357177734375
4.243,306,3147,882,3147,-1.096435546875,0.16357421875,-0.4400634765625
4.254,304,3147,815,3147,-0.984130859375,0.232177734375,-0.5262451171875
4.260,304,3147,778,3147,-0.929443359375,0.23681640625,-0.5826416015625
4.276,304,3147,617,3147,-0.9425048828125,0.1763916015625,-0.589111328125
4.283,301,3147,578,3147,-0.9180908203125,0.13623046875,-0.547607421875
4.289,304,3147,526,3079,-0.8131103515625,0.126708984375,-0.490966796875
4.307,300,3147,376,2563,-0.6925048828125,0.10498046875,-0.4466552734375
4.346,304,3147,356,1775,-0.58349609375,0.0528564453125,-0.4036865234375
4.351,300,3147,371,905,-0.5775146484375,0.0257568359375,-0.40673828125
4.351,301,3147,437,505,-0.5732421875,0.06689453125,-0.4024658203125
4.351,302,2911,426,321,-0.5572509765625,0.1884765625,-0.3519287109375
4.375,302,2008,411,310,-0.5716552734375,0.27001953125,-0.3155517578125
4.375,300,1543,385,322,-0.65576171875,0.2755126953125,-0.3165283203125
4.380,301,1228,376,323,-0.7503662109375,0.2623291015625,-0.306396484375
4.395,302,1255,363,321,-0.8065185546875,0.214599609375,-0.2879638671875
4.403,304,1107,360,322,-0.837158203125,0.14111328125,-0.2698974609375
4.439,300,1074,373,324,-0.8492431640625,0.0867919921875,-0.2669677734375
4.439,300,963,371,323,-0.8460693359375,0.0616455078125,-0.2845458984375
4.440,301,922,373,323,-0.8331298828125,0.0548095703125,-0.302978515625
4.442,286,906,408,308,-0.8134765625,0.0489501953125,-0.302001953125
4.459,300,933,426,318,-0.796875,0.030517578125,-0.29736328125
4.462,300,999,453,323,-0.7884521484375,0.013916015625,-0.309326171875
4.471,301,1014,418,321,-0.78564453125,0.0186767578125,-0.328369140625
4.484,300,1148,414,324,-0.78662109375,0.03857421875,-0.343994140625
4.492,304,1237,391,324,-0.785400390625,0.0576171875,-0.3541259765625
4.501,304,1409,389,326,-0.777587890625,0.0723876953125,-0.3597412109375
4.514,302,2041,391,332,-0.7637939453125,0.0794677734375,-0.3609619140625
4.553,302,2507,401,334,-0.7508544921875,0.0823974609375,-0.3607177734375
4.554,302,2965,401,338,-0.748046875,0.10498046875,-0.3643798828125
4.555,302,3147,385,673,-0.74365234375,0.141845703125,-0.3685302734375
4.555,302,3147,411,934,-0.7291259765625,0.1593017578125,-0.366455078125
4.561,302,3147,419,1370,-0.7127685546875,0.142578125,-0.34814453125
4.574,304,3147,497,2024,-0.680908203125,0.099853515625,-0.3131103515625
4.582,302,3147,618,2279,-0.6324462890625,0.07080078125,-0.2784423828125
4.590,304,3147,654,2525,-0.545654296875,0.0443115234375,-0.22802734375
4.604,306,3147,902,3130,-0.3951416015625,0.0133056640625,-0.141357421875
4.615,306,3147,939,3147,-0.27783203125,0.072998046875,-0.0528564453125
4.626,306,3147,1000,3147,-0.2974853515625,0.19287109375,-0.0238037109375
4.634,306,3147,1224,3147,-0.4100341796875,0.263916015625,-0.08056640625
4.664,308,3147,1318,3147,-0.6112060546875,0.3643798828125,-0.29248046875
4.665,308,3147,1386,3147,-0.94873046875,0.493408203125,-0.6678466796875
4.665,309,3147,1533,3147,-1.30419921875,0.459228515625,-0.9658203125
4.672,313,3147,1610,3147,-1.505126953125,0.248046875,-1.0291748046875
4.681,313,3147,1642,3147,-1.5611572265625,0.169921875,-0.89892578125
4.694,310,3147,1675,3147,-1.5712890625,0.3131103515625,-0.709228515625
4.702,313,3147,1659,3147,-1.633056640625,0.4022216796875,-0.6083984375
4.710,313,3147,1595,3147,-1.76416015625,0.16796875,-0.5318603515625
4.730,308,3147,1503,3147,-1.573974609375,-0.2044677734375,-0.4534912109375
4.733,309,3147,1548,3147,-1.0155029296875,-0.1363525390625,-0.5740966796875
4.767,304,3147,1534,3147,-0.767333984375,0.329833984375,-0.876708984375
4.767,310,3147,1474,3147,-1.1513671875,0.605224609375,-1.00146484375
4.767,306,3147,1387,3147,-1.66455078125,0.4542236328125,-0.7869873046875
4.771,309,3147,1323,3147,-1.78125,0.1468505859375,-0.47509765625
4.784,308,3147,1220,3147,-1.592041015625,0.00537109375,-0.3902587890625
4.792,308,3147,1117,3147,-1.3770751953125,0.1201171875,-0.5836181640625
4.800,306,3147,962,3147,-1.2177734375,0.2926025390625,-0.7774658203125
4.814,304,3147,826,3147,-1.0526123046875,0.25390625,-0.732177734375
4.822,302,3147,748,3139,-0.8388671875,0.077392578125,-0.492919921875
4.832,302,3147,631,2810,-0.5731201171875,-0.0240478515625,-0.2493896484375
4.844,299,3147,384,2202,-0.2900390625,-0.05517578125,-0.165283203125
4.875,302,3147,418,1791,-0.082275390625,-0.1456298828125,-0.2564697265625
4.875,300,3147,401,1331,-0.082275390625,-0.1456298828125,-0.2564697265625
4.875,300,3147,390,883,-0.1873779296875,0.142822265625,-0.5599365234375
4.882,304,3147,401,647,-0.4083251953125,0.583251953125,-0.6187744140625
4.891,301,3147,391,404,-0.4083251953125,0.583251953125,-0.6187744140625
4.905,302,3061,378,337,-0.7720947265625,0.6114501953125,-0.43994140625
4.912,302,2810,385,336,-0.87109375,0.2247314453125,-0.3226318359375
4.920,302,2561,386,334,-0.87109375,0.2247314453125,-0.3226318359375
4.934,302,2240,378,327,-0.8924560546875,-0.000244140625,-0.2493896484375
4.942,302,2118,375,328,-0.881591796875,0.0546875,-0.264404296875
4.952,302,1921,371,329,-0.881591796875,0.0546875,-0.264404296875
4.970,302,1821,389,328,-0.8514404296875,0.0098876953125,-0.327880859375
4.972,302,1596,430,328,-0.828125,-0.005615234375,-0.37939453125
4.980,300,1509,455,306,-0.828125,-0.005615234375,-0.37939453125
4.994,302,1236,458,324,-0.845458984375,-0.0133056640625,-0.4146728515625
5.002,302,1163,466,323,-0.8697509765625,-0.013916015625,-0.4068603515625
5.010,300,1112,482,323,-0.8697509765625,-0.013916015625,-0.4068603515625
5.024,299,1057,452,324,-0.8721923828125,0.0023193359375,-0.4178466796875
5.035,304,1063,473,324,-0.8367919921875,0.0167236328125,-0.4227294921875
5.040,301,1108,484,323,-0.8367919921875,0.0167236328125,-0.4227294921875
5.054,302,1271,464,322,-0.763671875,0.075927734375,-0.4302978515625
5.074,302,1401,455,326,-0.763671875,0.075927734375,-0.4302978515625
5.076,302,1715,441,327,-0.7491455078125,0.1177978515625,-0.4222412109375
5.084,304,2263,387,332,-0.76318359375,0.1455078125,-0.3780517578125
5.093,304,2601,382,336,-0.76318359375,0.1455078125,-0.3780517578125
5.100,300,2782,361,336,-0.7921142578125,0.1416015625,-0.3525390625
5.114,302,3147,347,430,-0.7867431640625,0.0679931640625,-0.3101806640625
5.122,304,3147,338,749,-0.7867431640625,0.0679931640625,-0.3101806640625
5.137,302,3147,323,958,-0.7611083984375,0.0283203125,-0.3175048828125
5.144,302,3147,334,1611,-0.6944580078125,0.0645751953125,-0.3211669921875
5.157,302,3147,414,1955,-0.6944580078125,0.0645751953125,-0.3211669921875
5.180,302,3147,527,2271,-0.6131591796875,0.1278076171875,-0.236083984375
5.180,282,3147,713,2874,-0.12451171875,0.370849609375,-0.0848388671875
5.182,304,3147,750,3147,-0.12451171875,0.370849609375,-0.0848388671875
5.190,304,3147,976,3147,-0.0233154296875,0.420166015625,-0.083984375
5.205,308,3147,1222,3147,-0.55126953125,0.1453857421875,-0.095947265625
5.212,306,3147,1274,3147,-0.55126953125,0.1453857421875,-0.095947265625
5.220,308,3147,1345,3147,-0.8887939453125,0.1593017578125,-0.3829345703125
5.240,309,3147,1411,3147,-1.572998046875,-0.0228271484375,-1.169921875
5.243,313,3147,1503,3147,-1.572998046875,-0.0228271484375,-1.169921875
5.250,313,3147,1592,3147,-1.6514892578125,-0.1123046875,-1.024658203125
5.273,313,3147,1697,3147,-1.5904541015625,0.0887451171875,-0.4718017578125
5.273,313,3147,1735,3147,-1.5904541015625,0.0887451171875,-0.4718017578125
5.287,313,3147,1757,3147,-1.5914306640625,0.0279541015625,-0.4449462890625
5.294,313,3147,1757,3147,-1.4915771484375,0.064208984375,-0.5958251953125
5.302,310,3147,1730,3147,-1.203857421875,0.1800537109375,-0.777587890625
5.310,308,3147,1659,3147,-0.859375,0.2791748046875,-0.8800048828125
5.324,310,3147,1646,3147,-0.7679443359375,0.34765625,-0.864013671875
5.332,313,3147,1596,3147,-0.9276123046875,0.3428955078125,-0.726806640625
5.342,310,3147,1504,3147,-1.2342529296875,0.3421630859375,-0.6065673828125
5.355,310,3147,1386,3147,-1.60986328125,0.322998046875,-0.5533447265625
5.362,308,3147,1316,3147,-1.737548828125,0.180419921875,-0.5023193359375
5.370,306,3147,1251,3147,-1.5313720703125,0.0875244140625,-0.49560546875
5.392,306,3147,1149,3147,-1.242431640625,0.13232421875,-0.5462646484375
5.393,306,3147,1067,3147,-1.0224609375,0.170166015625,-0.5758056640625
5.400,306,3147,947,3147,-0.869384765625,0.1351318359375,-0.5494384765625
5.414,302,3147,840,3065,-0.76953125,0.0931396484375,-0.4903564453125
5.422,304,3147,748,2648,-0.6966552734375,0.11474609375,-0.43017578125
5.431,304,3147,658,2235,-0.6190185546875,0.1279296875,-0.3978271484375
5.446,302,3147,479,1416,-0.529541015625,-0.0538330078125,-0.431396484375
5.452,299,3147,413,1024,-0.4925537109375,-0.2178955078125,-0.482177734375
5.463,300,3147,383,567,-0.5574951171875,-0.08154296875,-0.4842529296875
5.479,301,2864,388,338,-0.65673828125,0.1602783203125,-0.444091796875
5.485,300,2292,376,330,-0.71142578125,0.305908203125,-0.34814453125
5.496,302,1733,375,313,-0.7293701171875,0.3358154296875,-0.2476806640625
5.504,299,871,359,327,-0.7388916015625,0.2703857421875,-0.1888427734375
5.513,300,837,348,323,-0.7305908203125,0.1502685546875,-0.1646728515625
5.554,302,725,344,318,-0.7200927734375,0.0465087890625,-0.2059326171875
5.563,300,653,371,316,-0.73095703125,0.0338134765625,-0.2791748046875
5.570,302,754,379,323,-0.7542724609375,0.086181640625,-0.324462890625
5.570,304,683,363,318,-0.7816162109375,0.1217041015625,-0.3394775390625
5.581,302,614,338,321,-0.8045654296875,0.1112060546875,-0.320556640625
5.584,301,661,347,321,-0.8193359375,0.066650390625,-0.2783203125
5.584,300,636,387,319,-0.82958984375,0.02099609375,-0.2650146484375
5.594,300,648,371,318,-0.8338623046875,0.0030517578125,-0.3045654296875
5.602,302,653,382,318,-0.8253173828125,0.0233154296875,-0.35400390625
5.610,302,721,424,321,-0.8070068359375,0.06396484375,-0.378173828125
5.624,302,784,364,319,-0.7861328125,0.0843505859375,-0.3779296875
5.632,301,871,369,321,-0.7694091796875,0.07470703125,-0.35595703125
5.640,301,938,356,323,-0.7584228515625,0.0592041015625,-0.33203125
5.656,302,1317,328,324,-0.7467041015625,0.0577392578125,-0.3223876953125
5.667,300,1936,323,328,-0.7398681640625,0.0655517578125,-0.319091796875
5.680,300,2364,323,330,-0.7462158203125,0.0799560546875,-0.3125
5.684,300,3147,323,338,-0.75341796875,0.1036376953125,-0.316162109375
5.692,300,3147,323,579,-0.744140625,0.1268310546875,-0.331787109375
5.700,301,3147,321,958,-0.71875,0.137939453125,-0.333984375
5.715,300,3147,324,1646,-0.6771240234375,0.132568359375,-0.2989501953125
5.722,304,3147,324,2001,-0.614501953125,0.1331787109375,-0.2406005859375
5.730,304,3147,444,2271,-0.513916015625,0.1588134765625,-0.1650390625
5.744,304,3147,621,2880,-0.3607177734375,0.186767578125,-0.038818359375
5.752,302,3147,737,3144,-0.238525390625,0.20947265625,0.0980224609375
5.760,302,3147,900,3147,-0.270751953125,0.2501220703125,0.149169921875
5.780,305,3147,1213,3147,-0.452392578125,0.2947998046875,0.0850830078125
5.782,304,3147,1255,3147,-0.7156982421875,0.261474609375,-0.226318359375
5.790,306,3147,1302,3147,-1.0389404296875,0.0933837890625,-0.7872314453125
5.804,310,3147,1386,3147,-1.393310546875,-0.0296630859375,-1.3011474609375
5.817,306,3147,1445,3147,-1.61865234375,0.0645751953125,-1.454833984375
5.820,308,3147,1497,3147,-1.632080078125,0.26513671875,-1.117431640625
5.834,310,3147,1598,3147,-1.5589599609375,0.3311767578125,-0.6158447265625
5.842,313,3147,1646,3147,-1.5064697265625,0.2919921875,-0.382568359375
5.855,310,3147,1616,3147,-1.474609375,0.2767333984375,-0.486572265625
5.864,310,3147,1548,3147,-1.3623046875,0.165771484375,-0.6986083984375
5.873,311,3147,1527,3147,-1.04833984375,0.0906982421875,-0.86181640625
5.895,310,3147,1499,3147,-0.767822265625,0.2501220703125,-0.955810546875
5.895,310,3147,1523,3147,-0.8326416015625,0.3837890625,-0.884033203125
5.902,308,3147,1483,3147,-1.1392822265625,0.3917236328125,-0.73876953125
5.912,308,3147,1428,3147,-1.5362548828125,0.397705078125,-0.65478515625
5.924,309,3147,1348,3147,-1.7947998046875,0.2476806640625,-0.5408935546875
5.932,308,3147,1282,3147,-1.7039794921875,0.0240478515625,-0.4495849609375
5.940,308,3147,1211,3147,-1.4202880859375,0.0648193359375,-0.560791015625
5.957,306,3147,951,3147,-1.1436767578125,0.2633056640625,-0.7210693359375
5.962,305,3147,856,3147,-0.898193359375,0.27978515625,-0.6446533203125
5.974,304,3147,818,3133,-0.898193359375,0.27978515625,-0.6446533203125
5.984,302,3147,694,2647,-0.4952392578125,0.0765380859375,-0.3800048828125
5.995,300,3147,600,2308,-0.357421875,0.11328125,-0.3831787109375
6.000,300,3147,519,2018,-0.357421875,0.11328125,-0.3831787109375
6.014,302,3147,391,1440,-0.4132080078125,0.0706787109375,-0.49560546875
6.028,302,3147,348,1004,-0.537109375,0.0596923828125,-0.54150390625
6.030,302,3147,348,782,-0.537109375,0.0596923828125,-0.54150390625
6.044,302,3147,334,342,-0.607421875,0.2750244140625,-0.420166015625
6.060,296,2973,327,334,-0.6226806640625,0.3463134765625,-0.2825927734375
6.060,301,2769,334,338,-0.6226806640625,0.3463134765625,-0.2825927734375
6.075,302,2375,351,332,-0.7744140625,0.093505859375,-0.19384765625
6.090,300,2233,353,332,-0.806396484375,0.0177001953125,-0.1966552734375
6.090,302,2063,359,332,-0.806396484375,0.0177001953125,-0.1966552734375
6.106,296,1828,347,328,-0.798828125,0.11572265625,-0.2989501953125
6.112,302,1721,356,330,-0.81201171875,0.140869140625,-0.34228515625
6.120,301,1580,344,328,-0.81201171875,0.140869140625,-0.34228515625
6.136,300,1557,332,326,-0.8284912109375,0.0682373046875,-0.3773193359375
6.142,302,1490,332,329,-0.841796875,0.0469970703125,-0.376220703125
6.150,300,1574,331,325,-0.841796875,0.0469970703125,-0.376220703125
6.164,301,1691,334,328,-0.855712890625,0.0885009765625,-0.379150390625
6.172,301,1743,331,328,-0.84912109375,0.121337890625,-0.397216796875
6.180,302,1848,323,330,-0.84912109375,0.121337890625,-0.397216796875
6.204,300,1996,322,330,-0.8211669921875,0.1417236328125,-0.414306640625
6.204,300,2176,323,332,-0.8211669921875,0.1417236328125,-0.414306640625
6.210,300,2356,323,334,-0.8072509765625,0.12548828125,-0.4110107421875
6.225,302,2645,327,336,-0.7955322265625,0.08837890625,-0.3846435546875
6.232,301,2842,329,337,-0.7955322265625,0.08837890625,-0.3846435546875
6.241,302,3053,327,336,-0.7845458984375,0.0904541015625,-0.3663330078125
6.254,301,3147,327,590,-0.7178955078125,0.108642578125,-0.3511962890625
6.264,300,3147,328,899,-0.7178955078125,0.108642578125,-0.3511962890625
6.270,300,3147,332,1213,-0.6734619140625,0.1429443359375,-0.35400390625
6.288,302,3147,338,1829,-0.53759765625,0.1922607421875,-0.327392578125
6.292,301,3147,332,2190,-0.53759765625,0.1922607421875,-0.327392578125
6.304,302,3147,332,2527,-0.479736328125,0.20361328125,-0.3076171875
6.314,301,3147,447,3077,-0.2874755859375,0.2685546875,-0.173828125
6.322,302,3147,543,3147,-0.2874755859375,0.2685546875,-0.173828125
6.332,304,3147,710,3147,-0.18310546875,0.3306884765625,-0.075439453125
6.351,304,3147,1054,3147,-0.479736328125,0.32763671875,-0.091064453125
6.353,306,3147,1173,3147,-0.479736328125,0.32763671875,-0.091064453125
6.366,306,3147,1216,3147,-0.8521728515625,0.1427001953125,-0.39501953125
6.374,308,3147,1255,3147,-1.595947265625,-0.1590576171875,-1.05078125
6.405,308,3147,1318,3147,-1.595947265625,-0.1590576171875,-1.05078125
6.405,296,3147,1341,3147,-1.7867431640625,0.0159912109375,-0.8514404296875
6.405,308,3147,1371,3147,-1.822998046875,0.2249755859375,-0.359619140625
6.412,306,3147,1348,3147,-1.822998046875,0.2249755859375,-0.359619140625
6.420,306,3147,1331,3147,-1.691650390625,0.1988525390625,-0.4725341796875
6.434,308,3147,1292,3147,-1.2872314453125,0.267822265625,-0.709228515625
6.445,307,3147,1264,3147,-0.7552490234375,0.41552734375,-0.96533203125
6.459,307,3147,1306,3147,-0.5953369140625,0.521484375,-1.0950927734375
6.471,308,3147,1292,3147,-0.845703125,0.41943359375,-0.9422607421875
6.472,295,3147,1276,3147,-1.199951171875,0.2642822265625,-0.6697998046875
6.483,308,3147,1222,3147,-1.5748291015625,0.2093505859375,-0.5194091796875
6.502,306,3147,1018,3147,-1.7476806640625,0.1326904296875,-0.445556640625
6.502,292,3147,918,3147,-1.5892333984375,0.0496826171875,-0.4229736328125
6.510,304,3147,865,3147,-1.322265625,0.091064453125,-0.5157470703125
6.524,306,3147,801,3147,-1.07861328125,0.1734619140625,-0.6065673828125
6.532,302,3147,739,3147,-0.859375,0.13134765625,-0.5614013671875
6.540,304,3147,628,3147,-0.673583984375,0.0443115234375,-0.4609375
6.564,304,3147,553,3056,-0.5289306640625,0.0792236328125,-0.430908203125
6.572,302,3147,458,2787,-0.4600830078125,0.220458984375,-0.481201171875
6.573,302,3147,382,2567,-0.48681640625,0.3037109375,-0.535888671875
6.597,300,3147,344,2151,-0.5548095703125,0.1898193359375,-0.522216796875
6.599,302,3147,326,1862,-0.6248779296875,0.0318603515625,-0.4610595703125
6.603,301,3147,324,1416,-0.685546875,0.0108642578125,-0.4461669921875
6.614,304,3147,324,858,-0.71044921875,0.072998046875,-0.4661865234375
6.622,302,3147,330,714,-0.6888427734375,0.2000732421875,-0.384765625
6.630,302,3147,323,567,-0.6483154296875,0.3189697265625,-0.238037109375
6.644,302,3147,328,338,-0.652587890625,0.263916015625,-0.15869140625
6.652,301,3022,328,338,-0.7274169921875,0.102294921875,-0.1717529296875
6.683,300,2785,330,343,-0.829345703125,0.032470703125,-0.2569580078125
6.683,302,2471,328,336,-0.8773193359375,0.0904541015625,-0.3643798828125
6.684,300,2253,330,329,-0.8565673828125,0.178955078125,-0.4537353515625
6.691,300,2048,334,332,-0.8370361328125,0.2171630859375,-0.5052490234375
6.706,300,1600,336,328,-0.8431396484375,0.2034912109375,-0.514892578125
6.713,302,1335,323,321,-0.8504638671875,0.161376953125,-0.495361328125
6.721,300,1179,323,323,-0.8505859375,0.1070556640625,-0.4559326171875
6.732,300,992,371,324,-0.85498046875,0.058837890625,-0.4178466796875
6.743,302,907,346,323,-0.8631591796875,0.0369873046875,-0.3939208984375
6.752,302,884,372,323,-0.8580322265625,0.0294189453125,-0.395263671875
6.761,302,832,382,321,-0.8333740234375,0.0223388671875,-0.4130859375
6.787,300,869,382,321,-0.8013916015625,0.0269775390625,-0.412109375
6.787,301,968,369,323,-0.7724609375,0.037841796875,-0.399658203125
6.805,302,1065,346,323,-0.7451171875,0.043212890625,-0.3992919921875
6.806,301,1509,316,324,-0.721435546875,0.064697265625,-0.402587890625
6.815,302,1735,316,328,-0.7132568359375,0.1121826171875,-0.4010009765625
6.819,300,2119,317,331,-0.7166748046875,0.13916015625,-0.3936767578125
6.833,304,2727,316,334,-0.71142578125,0.12451171875,-0.3724365234375
6.841,302,3147,316,344,-0.6884765625,0.0975341796875,-0.34375
6.849,302,3147,316,702,-0.642333984375,0.0806884765625,-0.3193359375
6.863,304,3147,319,1494,-0.587890625,0.1048583984375,-0.3055419921875
6.887,299,3147,352,1877,-0.5394287109375,0.1795654296875,-0.3087158203125
6.908,304,3147,419,2306,-0.458251953125,0.248291015625,-0.3216552734375
6.908,304,3147,683,2909,-0.2965087890625,0.265869140625,-0.2982177734375
6.908,307,3147,923,3147,-0.0872802734375,0.27099609375,-0.22998046875
6.910,304,3147,1067,3147,-0.014892578125,0.31005859375,-0.205078125
6.924,308,3147,1289,3147,-0.2413330078125,0.329833984375,-0.2073974609375
6.931,308,3147,1429,3147,-0.6865234375,0.2825927734375,-0.248046875
6.939,310,3147,1476,3147,-1.16748046875,0.260498046875,-0.4046630859375
6.953,308,3147,1616,3147,-1.552734375,0.2933349609375,-0.6488037109375
6.961,315,3147,1715,3147,-1.8345947265625,0.2255859375,-0.920166015625
6.969,313,3147,1796,3147,-2.0809326171875,0.0526123046875,-0.9952392578125
6.989,313,3147,1803,3147,-2.21728515625,-0.1705322265625,-0.7220458984375
6.991,314,3147,1787,3147,-2.021240234375,-0.3475341796875,-0.2430419921875
7.014,314,3147,1766,3147,-2.021240234375,-0.3475341796875,-0.2430419921875
7.014,314,3147,1704,3147,-0.6424560546875,0.25732421875,-0.2596435546875
7.021,310,3147,1715,3147,-0.513671875,0.7232666015625,-0.8046875
7.029,315,3147,1719,3147,-0.513671875,0.7232666015625,-0.8046875
7.043,310,3147,1656,3147,-1.4732666015625,0.39892578125,-0.8973388671875
7.052,313,3147,1624,3147,-1.7916259765625,0.0562744140625,-0.6044921875
7.060,313,3147,1569,3147,-1.7916259765625,0.0562744140625,-0.6044921875
7.073,309,3147,1440,3147,-1.48291015625,0.113525390625,-0.4139404296875
7.085,308,3147,1369,3147,-1.23583984375,0.2196044921875,-0.4371337890625
7.094,308,3147,1312,3147,-1.23583984375,0.2196044921875,-0.4371337890625
7.112,305,3147,1132,3147,-0.8785400390625,0.1571044921875,-0.46728515625
7.113,304,3147,1050,3147,-0.7293701171875,0.1055908203125,-0.4468994140625
7.121,304,3147,895,3072,-0.7293701171875,0.1055908203125,-0.4468994140625
7.133,304,3147,669,2389,-0.5467529296875,0.0538330078125,-0.309814453125
7.141,302,3147,568,2048,-0.4920654296875,-0.17919921875,-0.33935546875
7.149,305,3147,497,1656,-0.4920654296875,-0.17919921875,-0.33935546875
7.163,304,3147,424,1063,-0.5797119140625,-0.049560546875,-0.5101318359375
7.171,304,3147,419,692,-0.671630859375,0.1834716796875,-0.5465087890625
7.187,304,3147,401,344,-0.671630859375,0.1834716796875,-0.5465087890625
7.205,302,2567,393,332,-0.733642578125,0.26611328125,-0.347412109375
7.206,300,2162,430,330,-0.7056884765625,0.26513671875,-0.2919921875
7.219,302,1800,383,328,-0.7056884765625,0.26513671875,-0.2919921875
7.223,302,1428,406,328,-0.749267578125,0.105224609375,-0.2098388671875
7.233,302,1274,406,329,-0.749267578125,0.105224609375,-0.2098388671875
7.242,302,1108,383,327,-0.755126953125,0.0560302734375,-0.236572265625
7.253,301,913,371,323,-0.7794189453125,0.2359619140625,-0.3944091796875
7.261,302,1017,371,325,-0.7794189453125,0.2359619140625,-0.3944091796875
7.269,302,888,373,323,-0.7989501953125,0.2689208984375,-0.4183349609375
7.292,304,871,387,322,-0.813720703125,0.1146240234375,-0.3414306640625
7.292,302,923,369,302,-0.813720703125,0.1146240234375,-0.3414306640625
7.321,300,905,373,324,-0.828125,0.043701171875,-0.3228759765625
7.321,302,971,375,323,-0.8564453125,0.04150390625,-0.37109375
7.322,289,1009,378,321,-0.8564453125,0.04150390625,-0.37109375
7.330,296,1091,383,323,-0.84765625,0.044921875,-0.4029541015625
7.350,302,1251,376,326,-0.810791015625,0.078125,-0.43701171875
7.352,300,1428,371,325,-0.810791015625,0.078125,-0.43701171875
7.360,302,1708,373,328,-0.792724609375,0.0946044921875,-0.4466552734375
7.374,300,2105,371,328,-0.793701171875,0.0999755859375,-0.4146728515625
7.382,302,2340,376,334,-0.793701171875,0.0999755859375,-0.4146728515625
7.390,302,2529,382,334,-0.8026123046875,0.1033935546875,-0.3822021484375
7.414,304,3031,390,342,-0.7940673828125,0.071533203125,-0.3359375
7.417,300,3147,388,401,-0.7940673828125,0.071533203125,-0.3359375
7.431,304,3147,411,725,-0.757080078125,0.0408935546875,-0.3177490234375
7.434,302,3147,587,1499,-0.559814453125,0.146728515625,-0.257568359375
7.442,304,3147,766,1925,-0.559814453125,0.146728515625,-0.257568359375
7.450,304,3147,952,2322,-0.3997802734375,0.31787109375,-0.244873046875
7.465,306,3147,1178,2929,0.0262451171875,0.3804931640625,-0.1280517578125
7.472,313,3147,1369,3147,0.0262451171875,0.3804931640625,-0.1280517578125
7.480,310,3147,1452,3147,0.05517578125,0.2720947265625,-0.04638671875
7.496,313,3147,1613,3147,-0.7757568359375,0.042724609375,-0.216796875
7.503,314,3147,1704,3147,-0.7757568359375,0.042724609375,-0.216796875
7.523,314,3147,1806,3147,-1.364013671875,0.021240234375,-0.75439453125
7.528,315,3147,1877,3147,-1.900146484375,0.1573486328125,-1.134765625
7.532,314,3147,1850,3147,-1.900146484375,0.1573486328125,-1.134765625
7.540,315,3147,1854,3147,-1.87841796875,0.16357421875,-0.5797119140625
7.554,315,3147,1899,3147,-1.8131103515625,0.0458984375,-0.1151123046875
7.562,314,3147,1882,3147,-1.624267578125,-0.067138671875,-0.1798095703125
7.572,315,3147,1892,3147,-1.2974853515625,0.08349609375,-0.689697265625
7.584,313,3147,1838,3147,-0.9061279296875,0.3236083984375,-1.2269287109375
7.598,315,3147,1769,3147,-0.74072265625,0.44921875,-1.3226318359375
7.600,313,3147,1815,3147,-0.8814697265625,0.380859375,-0.9122314453125
7.614,313,3147,1766,3147,-1.0540771484375,0.232421875,-0.4324951171875
7.638,311,3147,1693,3147,-1.2706298828125,0.2735595703125,-0.28759765625
7.639,297,3147,1623,3147,-1.6082763671875,0.3980712890625,-0.4422607421875
7.645,310,3147,1488,3147,-1.705322265625,0.352294921875,-0.5718994140625
7.653,310,3147,1361,3147,-1.4527587890625,0.2252197265625,-0.5626220703125
7.660,308,3147,1345,3147,-1.1607666015625,0.1505126953125,-0.5345458984375
7.674,304,3147,1231,3147,-0.976806640625,0.0908203125,-0.5325927734375
7.684,308,3147,1191,2993,-0.861572265625,0.0321044921875,-0.5048828125
7.699,305,3147,1091,2679,-0.751953125,0.037109375,-0.455810546875
7.704,311,3147,986,2078,-0.6273193359375,0.040771484375,-0.414794921875
7.738,304,3147,858,1702,-0.5245361328125,-0.099365234375,-0.41455078125
7.738,304,3147,780,1387,-0.50146484375,-0.1907958984375,-0.460205078125
7.738,304,3147,632,735,-0.5556640625,-0.028564453125,-0.515380859375
7.742,302,3147,508,354,-0.6279296875,0.180908203125,-0.5150146484375
7.750,302,2703,478,338,-0.672119140625,0.2569580078125,-0.4033203125
7.764,299,2063,462,330,-0.6885986328125,0.3009033203125,-0.260009765625
7.772,300,1557,424,327,-0.708251953125,0.3582763671875,-0.1949462890625
7.780,302,1108,441,327,-0.741943359375,0.32861328125,-0.1671142578125
7.804,302,858,414,324,-0.756103515625,0.199462890625,-0.156982421875
7.804,304,692,434,322,-0.7408447265625,0.0950927734375,-0.210693359375
7.811,302,721,462,328,-0.7406005859375,0.1090087890625,-0.307373046875
7.829,302,702,454,323,-0.770263671875,0.183837890625,-0.3941650390625
7.843,302,695,455,321,-0.798583984375,0.2120361328125,-0.4293212890625
7.843,302,694,437,318,-0.8243408203125,0.1708984375,-0.4146728515625
7.854,300,692,384,321,-0.8525390625,0.1119384765625,-0.375
7.862,301,642,378,319,-0.864501953125,0.0665283203125,-0.3463134765625
7.870,302,599,383,323,-0.8609619140625,0.0430908203125,-0.34326171875
7.884,302,630,391,318,-0.8446044921875,0.03515625,-0.3626708984375
7.893,302,639,390,321,-0.8173828125,0.0335693359375,-0.3941650390625
7.911,301,644,411,321,-0.7940673828125,0.0465087890625,-0.418212890625
7.914,300,673,400,321,-0.7763671875,0.062744140625,-0.422607421875
7.925,300,707,404,323,-0.7630615234375,0.064453125,-0.4010009765625
7.945,302,808,388,324,-0.7574462890625,0.0616455078125,-0.3638916015625
7.945,302,989,401,323,-0.75439453125,0.069580078125,-0.331298828125
7.952,301,1281,418,327,-0.7431640625,0.0849609375,-0.30908203125
7.960,300,1773,416,327,-0.719970703125,0.0943603515625,-0.296142578125
7.974,299,2813,458,333,-0.6961669921875,0.1025390625,-0.3074951171875
7.982,300,3147,473,363,-0.686767578125,0.1318359375,-0.3472900390625
7.990,304,3147,497,746,-0.68798828125,0.187255859375,-0.369873046875
8.006,306,3147,514,1560,-0.670166015625,0.21142578125,-0.3428955078125
8.012,300,3147,526,1978,-0.6075439453125,0.174560546875,-0.2855224609375
8.033,300,3147,614,2337,-0.4881591796875,0.168701171875,-0.220947265625
8.038,308,3147,1014,2993,-0.26513671875,0.229248046875,-0.16162109375
8.042,311,3147,1233,3147,0.004150390625,0.315185546875,-0.113525390625
8.053,308,3147,1326,3147,0.0,0.41064453125,-0.1204833984375
8.064,310,3147,1518,3147,-0.3619384765625,0.3951416015625,-0.1715087890625
8.072,314,3147,1624,3147,-0.835205078125,0.2109375,-0.3489990234375
8.080,310,3147,1755,3147,-1.2757568359375,0.030029296875,-0.7210693359375
8.094,313,3147,1874,3147,-1.6597900390625,0.011474609375,-1.0291748046875
8.108,315,3147,1954,3147,-1.916015625,0.0430908203125,-1.0228271484375
8.112,316,3147,2005,3147,-1.999755859375,0.02734375,-0.7017822265625
8.127,315,3147,2018,3147,-1.978271484375,-0.0318603515625,-0.3660888671875
8.184,316,3147,2007,3147,-1.8326416015625,-0.055908203125,-0.289306640625
8.184,315,3147,2035,3147,-1.4029541015625,0.065673828125,-0.4512939453125
8.185,316,3147,2005,3147,-0.8104248046875,0.354736328125,-0.7633056640625
8.185,302,3147,2010,3147,-0.5965576171875,0.66796875,-0.9915771484375
8.185,316,3147,2005,3147,-0.874755859375,0.656494140625,-0.8963623046875
8.185,315,3147,1927,3147,-1.3370361328125,0.4224853515625,-0.62841796875
8.192,314,3147,1877,3147,-1.7423095703125,0.240234375,-0.486083984375
8.200,314,3147,1733,3147,-1.8062744140625,0.125,-0.4971923828125
8.214,313,3147,1537,3147,-1.559814453125,0.1015625,-0.5357666015625
8.236,310,3147,1399,3147,-1.3094482421875,0.164794921875,-0.5760498046875
8.251,308,3147,1292,3147,-1.3094482421875,0.164794921875,-0.5760498046875
8.251,304,3147,1148,3147,-0.921630859375,0.1541748046875,-0.540283203125
8.252,304,3147,999,2901,-0.6959228515625,0.0482177734375,-0.38232421875
8.266,304,3147,874,2494,-0.6959228515625,0.0482177734375,-0.38232421875
8.274,304,3147,625,1882,-0.3280029296875,-0.1871337890625,-0.1781005859375
8.282,304,3147,549,1518,-0.24267578125,-0.31396484375,-0.2745361328125
8.292,304,3147,442,1249,-0.24267578125,-0.31396484375,-0.2745361328125
8.305,302,3147,473,733,-0.5240478515625,0.3614501953125,-0.565673828125
8.312,302,3147,438,524,-0.7274169921875,0.610595703125,-0.5609130859375
8.320,300,3147,447,342,-0.7274169921875,0.610595703125,-0.5609130859375
8.345,302,2541,424,332,-0.7845458984375,0.310302734375,-0.355224609375
8.345,300,2308,442,332,-0.76904296875,0.1505126953125,-0.26953125
8.351,304,2018,445,330,-0.76904296875,0.1505126953125,-0.26953125
8.372,302,1629,442,328,-0.765380859375,0.0164794921875,-0.166015625
8.373,300,1468,470,331,-0.80126953125,0.0535888671875,-0.2423095703125
8.382,302,1303,455,318,-0.80126953125,0.0535888671875,-0.2423095703125
8.394,302,976,431,318,-0.8477783203125,0.191650390625,-0.4163818359375
8.402,302,946,438,328,-0.8455810546875,0.1553955078125,-0.43798828125
8.416,302,922,409,324,-0.8455810546875,0.1553955078125,-0.43798828125
8.424,302,920,378,321,-0.828369140625,0.066650390625,-0.4222412109375
8.432,301,922,377,323,-0.8447265625,0.06787109375,-0.425537109375
8.441,300,895,363,323,-0.8447265625,0.06787109375,-0.425537109375
8.454,300,872,369,323,-0.8504638671875,0.0797119140625,-0.4058837890625
8.462,301,867,364,321,-0.8504638671875,0.0797119140625,-0.4058837890625
8.473,302,900,371,323,-0.832763671875,0.088134765625,-0.398193359375
8.485,301,1014,376,323,-0.7874755859375,0.156005859375,-0.3714599609375
8.492,302,1056,375,324,-0.7874755859375,0.156005859375,-0.3714599609375
8.500,302,1188,382,327,-0.761962890625,0.1573486328125,-0.3656005859375
8.518,300,1629,402,327,-0.7469482421875,0.103759765625,-0.332763671875
8.522,302,2039,400,330,-0.7469482421875,0.103759765625,-0.332763671875
8.536,304,2417,403,334,-0.7501220703125,0.0909423828125,-0.31689453125
8.548,304,3147,465,371,-0.75341796875,0.0743408203125,-0.3115234375
8.556,304,3147,442,766,-0.75341796875,0.0743408203125,-0.3115234375
8.560,302,3147,468,1155,-0.7249755859375,0.0733642578125,-0.3045654296875
8.574,304,3147,674,1890,-0.6256103515625,0.158447265625,-0.2781982421875
8.593,306,3147,811,2242,-0.6256103515625,0.158447265625,-0.2781982421875
8.593,304,3147,922,2505,-0.5228271484375,0.2354736328125,-0.2745361328125
8.604,308,3147,1266,3141,-0.0377197265625,0.1513671875,-0.168212890625
8.621,310,3147,1373,3147,-0.0377197265625,0.1513671875,-0.168212890625
8.622,308,3147,1452,3147,-0.0059814453125,0.1798095703125,-0.0018310546875
8.634,313,3147,1669,3147,-0.8734130859375,0.405029296875,-0.3458251953125
8.660,313,3147,1709,3147,-0.8734130859375,0.405029296875,-0.3458251953125
8.660,311,3147,1762,3147,-1.4361572265625,0.3309326171875,-0.833251953125
8.665,315,3147,1870,3147,-1.7899169921875,-0.0301513671875,-0.8118896484375
8.672,315,3147,1920,3147,-1.7899169921875,-0.0301513671875,-0.8118896484375
8.681,315,3147,1957,3147,-1.7003173828125,-0.0872802734375,-0.45849609375
8.700,316,3147,1959,3147,-1.677734375,0.08349609375,-0.2384033203125
8.702,310,3147,1920,3147,-1.679443359375,0.164794921875,-0.2215576171875
8.711,316,3147,1943,3147,-1.4693603515625,0.069091796875,-0.3583984375
8.724,314,3147,1904,3147,-1.032958984375,0.0430908203125,-0.6776123046875
8.732,315,3147,1920,3147,-0.819091796875,0.2723388671875,-1.0140380859375
8.740,316,3147,1882,3147,-0.9483642578125,0.4315185546875,-0.9864501953125
8.754,314,3147,1826,3147,-1.2012939453125,0.39990234375,-0.6605224609375
8.762,313,3147,1770,3147,-1.563232421875,0.357177734375,-0.4349365234375
8.770,313,3147,1675,3147,-1.784912109375,0.2392578125,-0.3785400390625
8.784,313,3147,1483,3147,-1.6446533203125,0.1373291015625,-0.4150390625
8.800,309,3147,1377,3147,-1.3699951171875,0.1705322265625,-0.4923095703125
8.800,291,3147,1282,3147,-1.11328125,0.2054443359375,-0.5135498046875
8.814,305,3147,1129,3147,-0.891357421875,0.1754150390625,-0.46044921875
8.828,305,3147,1039,2807,-0.7183837890625,0.1712646484375,-0.3709716796875
8.831,308,3147,946,2354,-0.57958984375,0.204345703125,-0.29052734375
8.853,307,3147,761,1681,-0.488525390625,0.0577392578125,-0.270263671875
8.853,304,3147,667,1266,-0.4656982421875,-0.23583984375,-0.3045654296875
8.866,304,3147,562,932,-0.5194091796875,-0.261474609375,-0.37353515625
8.874,304,3064,498,336,-0.64306640625,0.0240478515625,-0.44970703125
8.882,304,2525,508,338,-0.7777099609375,0.28515625,-0.43798828125
8.890,301,2105,482,332,-0.8134765625,0.35498046875,-0.32373046875
8.904,304,1317,416,327,-0.7552490234375,0.2862548828125,-0.2366943359375
8.913,302,1039,444,322,-0.7086181640625,0.1851806640625,-0.205078125
8.929,304,912,402,318,-0.690185546875,0.096923828125,-0.17529296875
8.934,301,735,408,324,-0.689697265625,0.0511474609375,-0.1949462890625
8.957,301,721,411,322,-0.7216796875,0.0999755859375,-0.2724609375
8.958,302,682,410,319,-0.767333984375,0.179931640625,-0.3446044921875
8.966,302,679,361,321,-0.799560546875,0.1973876953125,-0.37548828125
8.974,300,693,364,321,-0.8189697265625,0.1553955078125,-0.366455078125
8.980,300,734,378,323,-0.840576171875,0.0931396484375,-0.337646484375
8.994,300,750,419,321,-0.8609619140625,0.0416259765625,-0.317138671875
9.014,302,766,402,325,-0.8714599609375,0.0303955078125,-0.3250732421875
9.014,300,774,419,321,-0.8743896484375,0.058349609375,-0.3515625
9.038,302,801,399,323,-0.8631591796875,0.083984375,-0.3687744140625
9.039,304,788,411,323,-0.8388671875,0.077392578125,-0.37109375
9.046,301,833,414,322,-0.816162109375,0.0556640625,-0.3665771484375
9.056,299,932,415,323,-0.797119140625,0.046630859375,-0.3564453125
9.069,302,1055,433,324,-0.7833251953125,0.048583984375,-0.340087890625
9.071,302,1317,402,328,-0.77685546875,0.059326171875,-0.3150634765625
9.081,301,1610,411,330,-0.769775390625,0.088623046875,-0.30126953125
9.093,302,2379,482,334,-0.7503662109375,0.1217041015625,-0.316162109375
9.102,302,2876,481,346,-0.71728515625,0.1279296875,-0.3310546875
9.109,301,3147,540,548,-0.682373046875,0.1163330078125,-0.3271484375
9.123,304,3147,682,1357,-0.6431884765625,0.1177978515625,-0.3262939453125
9.134,305,3147,829,1820,-0.585693359375,0.1766357421875,-0.340576171875
9.139,307,3147,943,2114,-0.47265625,0.2777099609375,-0.3494873046875
9.161,306,3147,1233,2647,-0.300048828125,0.312255859375,-0.3016357421875
9.161,310,3147,1348,2929,-0.1610107421875,0.261962890625,-0.18603515625
9.169,310,3147,1440,3147,-0.159912109375,0.2291259765625,-0.072998046875
9.183,314,3147,1746,3147,-0.281494140625,0.2327880859375,-0.046875
9.192,316,3147,1905,3147,-0.526611328125,0.2685546875,-0.141357421875
9.200,316,3147,2026,3147,-0.94677734375,0.36767578125,-0.2880859375
9.214,317,3147,2287,3147,-1.446044921875,0.4154052734375,-0.432373046875
9.225,321,3147,2348,3147,-1.930908203125,0.1729736328125,-0.65380859375
9.236,321,3147,2428,3147,-2.364990234375,-0.2059326171875,-0.8162841796875
9.243,323,3147,2435,3147,-2.48974609375,-0.3140869140625,-0.78564453125
9.251,321,3147,2484,3147,-2.017822265625,-0.241943359375,-0.5880126953125
9.269,321,3147,2489,3147,-2.017822265625,-0.241943359375,-0.5880126953125
9.274,321,3147,2517,3147,-0.529541015625,0.4898681640625,-0.6551513671875
9.283,321,3147,2505,3147,-0.6607666015625,0.8662109375,-1.061767578125
9.289,321,3147,2510,3147,-0.6607666015625,0.8662109375,-1.061767578125
9.303,319,3147,2448,3147,-1.5511474609375,0.271484375,-0.7359619140625
9.311,323,3147,2366,3147,-1.81005859375,0.224365234375,-0.5648193359375
9.320,316,3147,2273,3147,-1.81005859375,0.224365234375,-0.5648193359375
9.339,316,3147,2115,3147,-1.4969482421875,0.28271484375,-0.4202880859375
9.342,316,3147,1978,3147,-1.251708984375,0.2178955078125,-0.388427734375
9.356,314,3147,1792,3147,-1.251708984375,0.2178955078125,-0.388427734375
9.376,310,3147,1441,3062,-0.903564453125,0.1173095703125,-0.3900146484375
9.376,313,3147,1283,2658,-0.7310791015625,0.109619140625,-0.3526611328125
9.379,306,3147,1178,2246,-0.7310791015625,0.109619140625,-0.3526611328125
9.396,306,3147,957,1343,-0.4901123046875,-0.06201171875,-0.0894775390625
9.402,304,3147,774,757,-0.5111083984375,-0.31884765625,-0.069580078125
9.409,304,3147,659,344,-0.5111083984375,-0.31884765625,-0.069580078125
9.423,306,2328,594,331,-0.645751953125,0.2178955078125,-0.3472900390625
9.444,299,1702,529,334,-0.7340087890625,0.438232421875,-0.4088134765625
9.444,302,1155,508,331,-0.7340087890625,0.438232421875,-0.4088134765625
9.470,302,811,403,321,-0.7650146484375,0.10888671875,-0.313232421875
9.471,300,694,408,319,-0.6939697265625,0.0069580078125,-0.294189453125
9.471,301,585,391,318,-0.6939697265625,0.0069580078125,-0.294189453125
9.486,302,481,401,317,-0.7081298828125,0.114990234375,-0.342529296875
9.491,302,433,398,318,-0.7081298828125,0.114990234375,-0.342529296875
9.500,301,399,402,318,-0.7406005859375,0.1563720703125,-0.3878173828125
9.513,300,419,384,316,-0.7340087890625,0.1585693359375,-0.4249267578125
9.522,299,409,371,316,-0.7340087890625,0.1585693359375,-0.4249267578125
9.530,302,387,359,321,-0.73095703125,0.1654052734375,-0.427978515625
9.549,302,424,365,317,-0.7342529296875,0.177490234375,-0.4166259765625
9.552,302,426,363,318,-0.7342529296875,0.177490234375,-0.4166259765625
9.559,302,402,378,321,-0.7294921875,0.1739501953125,-0.4068603515625
9.573,304,454,351,318,-0.7420654296875,0.1683349609375,-0.4091796875
9.582,302,455,349,321,-0.7420654296875,0.1683349609375,-0.4091796875
9.590,300,481,348,317,-0.765625,0.125732421875,-0.4097900390625
9.604,300,624,348,321,-0.8089599609375,0.0091552734375,-0.41357421875
9.611,301,754,383,321,-0.8089599609375,0.0091552734375,-0.41357421875
9.619,300,829,409,323,-0.8309326171875,-0.004150390625,-0.4091796875
9.633,304,1031,473,323,-0.8580322265625,0.059814453125,-0.3875732421875
9.652,304,1117,493,324,-0.8580322265625,0.059814453125,-0.3875732421875
9.652,304,1224,497,328,-0.850830078125,0.083740234375,-0.373779296875
9.673,304,1656,540,327,-0.8369140625,0.1260986328125,-0.365478515625
9.673,304,1904,532,331,-0.8369140625,0.1260986328125,-0.365478515625
9.681,302,2217,561,336,-0.8358154296875,0.1517333984375,-0.375
9.696,304,2964,652,338,-0.8389892578125,0.1824951171875,-0.3963623046875
9.702,306,3147,685,375,-0.838134765625,0.20263671875,-0.4093017578125
9.711,304,3147,678,669,-0.8310546875,0.201904296875,-0.41650390625
9.723,304,3147,816,1283,-0.8155517578125,0.1781005859375,-0.42138671875
9.731,308,3147,1026,1655,-0.76611328125,0.115478515625,-0.4044189453125
9.757,305,3147,1160,2012,-0.6658935546875,0.0439453125,-0.35009765625
9.761,310,3147,1419,2560,-0.518310546875,0.0672607421875,-0.283935546875
9.774,299,3147,1592,2869,-0.339599609375,0.166015625,-0.2462158203125
9.775,314,3147,1820,3094,-0.2125244140625,0.2208251953125,-0.2220458984375
9.784,316,3147,2144,3147,-0.2518310546875,0.252197265625,-0.2232666015625
9.791,316,3147,2310,3147,-0.4288330078125,0.3175048828125,-0.286865234375
9.801,321,3147,2428,3147,-0.653564453125,0.3411865234375,-0.434814453125
9.813,323,3147,2677,3147,-0.921142578125,0.29248046875,-0.5511474609375
9.824,323,3147,2827,3147,-1.163818359375,0.2001953125,-0.5380859375
9.830,330,3147,2976,3147,-1.345947265625,0.06591796875,-0.53515625
9.852,324,3147,3107,3147,-1.5465087890625,0.0042724609375,-0.561767578125
9.852,325,3147,3147,3147,-1.7489013671875,0.0133056640625,-0.4771728515625
9.866,326,3147,3147,3147,-1.86767578125,0.0123291015625,-0.28564453125
9.876,327,3147,3147,3147,-1.8359375,0.0718994140625,-0.186279296875
9.886,327,3147,3147,3147,-1.5487060546875,0.2020263671875,-0.3358154296875
9.889,327,3147,3147,3147,-1.047119140625,0.36767578125,-0.6431884765625
9.903,328,3147,3147,3147,-0.7442626953125,0.5020751953125,-0.86376953125
9.911,346,3147,3147,3147,-0.8321533203125,0.45166015625,-0.8116455078125
9.919,361,3147,3147,3147,-1.066162109375,0.3218994140625,-0.58251953125
9.937,325,3147,3147,3147,-1.38671875,0.2783203125,-0.442626953125
9.941,323,3147,3147,3147,-1.64892578125,0.256591796875,-0.42919921875
9.952,323,3147,3129,3147,-1.6326904296875,0.254150390625,-0.4439697265625
9.978,323,3147,2897,3147,-1.4549560546875,0.26904296875,-0.4561767578125
9.978,323,3147,2763,3147,-1.2550048828125,0.2425537109375,-0.439453125
9.991,316,3147,2599,3147,-1.04931640625,0.169677734375,-0.417236328125
9.996,316,3147,2308,3147,-0.859375,0.1317138671875,-0.4312744140625
10.003,317,3147,2188,3115,-0.7171630859375,0.1436767578125,-0.4608154296875
10.010,316,3147,2021,2753,-0.64501953125,0.1893310546875,-0.4613037109375
10.023,313,3147,1750,2132,-0.619384765625,0.1676025390625,-0.451171875
10.031,312,3147,1700,1746,-0.59130859375,-0.0390625,-0.445068359375
10.039,310,3147,1667,1280,-0.564453125,-0.1729736328125,-0.4078369140625
10.058,308,3147,1501,464,-0.5712890625,-0.058349609375,-0.3603515625
10.061,308,2843,1474,344,-0.650634765625,0.1634521484375,-0.29833984375
10.080,308,2242,1456,334,-0.738525390625,0.32568359375,-0.1932373046875
10.092,304,1667,1445,332,-0.7474365234375,0.3350830078125,-0.12451171875
10.092,308,1382,1428,328,-0.7174072265625,0.278564453125,-0.1396484375
10.099,307,1267,1416,330,-0.7000732421875,0.2420654296875,-0.2034912109375
10.113,308,1091,1404,323,-0.707763671875,0.21044921875,-0.2872314453125
10.122,307,1067,1409,328,-0.7344970703125,0.177978515625,-0.36962890625
10.129,304,1014,1382,326,-0.7607421875,0.1561279296875,-0.4306640625
10.143,308,895,1320,323,-0.776611328125,0.138671875,-0.4549560546875
10.164,313,855,1294,323,-0.786865234375,0.1044921875,-0.4412841796875
10.164,306,883,1289,324,-0.7940673828125,0.06787109375,-0.4000244140625
10.195,306,946,1306,323,-0.799072265625,0.06005859375,-0.3760986328125
10.196,292,938,1283,324,-0.8077392578125,0.0836181640625,-0.388427734375
10.196,306,973,1310,324,-0.8154296875,0.10693359375,-0.4114990234375
10.205,306,1051,1348,324,-0.8131103515625,0.1142578125,-0.4305419921875
10.212,306,1107,1373,327,-0.8074951171875,0.1199951171875,-0.4398193359375
10.220,308,1182,1387,327,-0.8077392578125,0.1248779296875,-0.4307861328125
10.233,307,1292,1427,328,-0.8114013671875,0.11962890625,-0.4056396484375
10.241,308,1398,1467,329,-0.80810546875,0.115478515625,-0.3818359375
10.249,308,1552,1447,330,-0.791748046875,0.1248779296875,-0.365966796875
10.263,306,1951,1442,334,-0.7725830078125,0.133056640625,-0.3614501953125
10.274,308,2356,1443,334,-0.75830078125,0.129150390625,-0.37451171875
10.299,308,2833,1441,347,-0.74658203125,0.1197509765625,-0.3902587890625
10.299,313,3147,1415,625,-0.7359619140625,0.1141357421875,-0.4017333984375
10.302,309,3147,1450,1085,-0.716064453125,0.1290283203125,-0.4068603515625
10.311,308,3147,1464,1474,-0.6741943359375,0.174072265625,-0.3909912109375
10.323,310,3147,1546,2062,-0.5867919921875,0.2213134765625,-0.3345947265625
10.332,306,3147,1624,2412,-0.4508056640625,0.2203369140625,-0.24853515625
10.340,315,3147,1792,2734,-0.3250732421875,0.2103271484375,-0.1748046875
10.362,315,3147,2183,3147,-0.27294921875,0.257568359375,-0.1175537109375
10.362,318,3147,2404,3147,-0.3140869140625,0.2811279296875,-0.1158447265625
10.370,318,3147,2571,3147,-0.465087890625,0.281494140625,-0.2125244140625
10.402,323,3147,2905,3147,-0.753173828125,0.279052734375,-0.3907470703125
10.403,324,3147,3042,3147,-1.087890625,0.2249755859375,-0.5233154296875
10.403,325,3147,3107,3147,-1.087890625,0.2249755859375,-0.5233154296875
10.413,324,3147,3147,3147,-1.5338134765625,0.0882568359375,-0.6536865234375
10.421,360,3147,3147,3147,-1.758056640625,-0.045166015625,-0.7247314453125
10.429,400,3147,3147,3147,-1.758056640625,-0.045166015625,-0.7247314453125
10.443,418,3147,3147,3147,-1.96533203125,-0.0338134765625,-0.4068603515625
10.452,411,3147,3147,3147,-1.5777587890625,0.1260986328125,-0.406982421875
10.464,401,3147,3147,3147,-1.5777587890625,0.1260986328125,-0.406982421875
10.473,398,3147,3147,3147,-0.69580078125,0.579833984375,-0.8177490234375
10.536,391,3147,3147,3147,-0.8302001953125,0.5404052734375,-0.8470458984375
10.536,378,3147,3147,3147,-0.8302001953125,0.5404052734375,-0.8470458984375
10.536,330,3147,3147,3147,-1.6416015625,0.18310546875,-0.5445556640625
10.536,323,3147,3147,3147,-1.7406005859375,0.191650390625,-0.490478515625
10.536,324,3147,3079,3147,-1.7406005859375,0.191650390625,-0.490478515625
10.537,322,3147,2863,3147,-1.3779296875,0.234375,-0.4395751953125
10.541,319,3147,2668,3147,-1.1522216796875,0.2020263671875,-0.4432373046875
10.549,316,3147,2486,3147,-1.1522216796875,0.2020263671875,-0.4432373046875
10.565,316,3147,2207,3090,-0.7081298828125,0.1429443359375,-0.4637451171875
10.572,315,3147,1996,2611,-0.5133056640625,0.17724609375,-0.4149169921875
10.594,313,3147,1837,2178,-0.5133056640625,0.17724609375,-0.4149169921875
10.594,310,3147,1568,1488,-0.4561767578125,-0.0963134765625,-0.4017333984375
10.616,309,3147,1497,894,-0.5467529296875,-0.1649169921875,-0.4169921875
10.616,308,3147,1383,383,-0.5467529296875,-0.1649169921875,-0.4169921875
10.625,307,2415,1251,334,-0.7464599609375,0.275634765625,-0.35107421875
10.631,305,1931,1173,332,-0.7464599609375,0.275634765625,-0.35107421875
10.640,305,1547,1120,330,-0.80908203125,0.318115234375,-0.20361328125
10.653,305,1083,1051,323,-0.7818603515625,0.10791015625,-0.09130859375
10.669,304,895,1004,321,-0.7818603515625,0.10791015625,-0.09130859375
10.670,292,794,951,324,-0.7532958984375,0.125,-0.154541015625
10.687,304,769,846,323,-0.725830078125,0.1890869140625,-0.3145751953125
10.717,304,793,811,323,-0.725830078125,0.1890869140625,-0.3145751953125
10.717,304,815,803,302,-0.759521484375,0.1461181640625,-0.3468017578125
10.717,304,763,799,300,-0.7972412109375,0.1290283203125,-0.3377685546875
10.727,304,756,811,323,-0.7972412109375,0.1290283203125,-0.3377685546875
10.730,304,748,820,322,-0.7939453125,0.1268310546875,-0.3218994140625
10.743,305,759,826,321,-0.7816162109375,0.0867919921875,-0.30615234375
10.752,304,799,823,323,-0.7816162109375,0.0867919921875,-0.30615234375
10.760,304,837,849,323,-0.781982421875,0.0653076171875,-0.3187255859375
10.773,305,944,934,321,-0.806884765625,0.0784912109375,-0.375732421875
10.781,304,1064,934,323,-0.806884765625,0.0784912109375,-0.375732421875
10.797,304,1188,918,328,-0.8194580078125,0.093017578125,-0.3876953125
10.823,306,1443,934,330,-0.8154296875,0.083984375,-0.3544921875
10.823,304,1675,894,338,-0.8154296875,0.083984375,-0.3544921875
10.824,304,2028,842,334,-0.8153076171875,0.099365234375,-0.348388671875
10.839,306,2568,867,334,-0.81005859375,0.1328125,-0.355224609375
10.842,306,2978,917,344,-0.803955078125,0.1553955078125,-0.3544921875
10.850,306,3147,1018,495,-0.7918701171875,0.146728515625,-0.3448486328125
10.864,308,3147,1120,1183,-0.763916015625,0.1357421875,-0.3455810546875
10.873,308,3147,1234,1557,-0.7288818359375,0.149169921875,-0.348876953125
10.880,308,3147,1343,1815,-0.6966552734375,0.1807861328125,-0.3525390625
10.902,313,3147,1662,2167,-0.6591796875,0.217041015625,-0.3739013671875
10.914,313,3147,1808,2419,-0.603759765625,0.23876953125,-0.3895263671875
10.914,317,3147,2047,2695,-0.580810546875,0.206298828125,-0.3790283203125
10.923,317,3147,2284,3110,-0.6370849609375,0.1572265625,-0.324462890625
10.931,318,3147,2430,3147,-0.727783203125,0.1656494140625,-0.27978515625
10.939,319,3147,2573,3147,-0.7950439453125,0.2215576171875,-0.3353271484375
10.953,323,3147,2785,3147,-0.82275390625,0.258056640625,-0.4232177734375
10.961,321,3147,2941,3147,-0.837158203125,0.20166015625,-0.50830078125
10.976,324,3147,3106,3147,-0.85888671875,0.1236572265625,-0.5740966796875
10.983,406,3147,3147,3147,-0.9326171875,0.1265869140625,-0.5406494140625
10.991,497,3147,3147,3147,-1.1405029296875,0.142333984375,-0.4100341796875
11.002,572,3147,3147,3147,-1.483154296875,0.0638427734375,-0.2176513671875
11.013,678,3147,3147,3147,-1.73388671875,-0.0159912109375,-0.0787353515625
11.021,736,3147,3147,3147,-1.6871337890625,0.0760498046875,-0.0919189453125
11.035,761,3147,3147,3147,-1.46240234375,0.283935546875,-0.2359619140625
11.043,733,3147,3147,3147,-1.26025390625,0.473388671875,-0.419921875
11.051,713,3147,3147,3147,-1.122314453125,0.5318603515625,-0.5240478515625
11.063,710,3147,3147,3147,-0.9693603515625,0.435546875,-0.520263671875
11.079,698,3147,3147,3147,-0.9561767578125,0.368408203125,-0.494140625
11.081,668,3147,3147,3147,-1.254150390625,0.3695068359375,-0.4908447265625
11.090,632,3147,3147,3147,-1.567138671875,0.2994384765625,-0.4486083984375
11.109,484,3147,3147,3147,-1.6497802734375,0.2020263671875,-0.384765625
11.112,360,3147,3147,3147,-1.575927734375,0.1962890625,-0.3563232421875
11.122,322,3147,3141,3147,-1.4307861328125,0.2308349609375,-0.349853515625
11.141,323,3147,2787,3147,-1.245361328125,0.22216796875,-0.3299560546875
11.142,317,3147,2465,3147,-1.0364990234375,0.1796875,-0.28369140625
11.149,316,3147,2238,3147,-0.85205078125,0.1224365234375,-0.2076416015625
11.163,315,3147,1803,2487,-0.7152099609375,0.0731201171875,-0.0870361328125
11.185,312,3147,1610,2009,-0.6339111328125,0.012451171875,-0.0377197265625
11.185,310,3147,1395,1516,-0.61181640625,-0.131591796875,-0.0869140625
11.205,307,3147,1172,679,-0.640380859375,-0.23876953125,-0.134521484375
11.211,304,3147,1073,359,-0.7022705078125,-0.10302734375,-0.1927490234375
11.212,304,2813,909,336,-0.73974609375,0.1304931640625,-0.28759765625
11.225,302,2010,759,331,-0.745849609375,0.2291259765625,-0.363525390625
11.233,304,1557,713,327,-0.7237548828125,0.2301025390625,-0.3570556640625
11.240,302,1267,651,327,-0.6658935546875,0.2017822265625,-0.3052978515625
11.253,304,971,536,327,-0.6085205078125,0.1910400390625,-0.2713623046875
11.261,300,985,513,323,-0.6005859375,0.2254638671875,-0.2686767578125
11.269,304,1056,440,327,-0.647216796875,0.2559814453125,-0.267578125
11.283,302,1091,439,324,-0.7100830078125,0.247314453125,-0.2589111328125
11.291,301,1157,424,324,-0.7598876953125,0.2117919921875,-0.2744140625
11.300,302,1231,454,324,-0.794921875,0.19140625,-0.3133544921875
11.321,302,1278,428,325,-0.8214111328125,0.1802978515625,-0.3397216796875
11.325,286,1398,470,324,-0.8363037109375,0.14501953125,-0.3377685546875
11.331,302,1399,458,328,-0.8458251953125,0.114990234375,-0.324951171875
11.345,304,1543,482,328,-0.861083984375,0.1112060546875,-0.3236083984375
11.354,302,1695,499,330,-0.88232421875,0.10498046875,-0.33056640625
11.361,300,1790,491,328,-0.8948974609375,0.0780029296875,-0.33203125
11.374,301,2131,514,332,-0.8892822265625,0.0540771484375,-0.3389892578125
11.386,304,2314,525,336,-0.8736572265625,0.0667724609375,-0.36328125
11.390,304,2624,519,338,-0.855712890625,0.095703125,-0.38720703125
11.417,304,3027,501,338,-0.8314208984375,0.1080322265625,-0.3878173828125
11.418,291,3147,509,371,-0.80322265625,0.107177734375,-0.351806640625
11.422,302,3147,548,750,-0.765869140625,0.09912109375,-0.2886962890625
11.437,304,3147,614,1345,-0.708984375,0.0826416015625,-0.2567138671875
11.443,304,3147,707,1816,-0.6458740234375,0.0860595703125,-0.2418212890625
11.450,304,3147,787,2144,-0.5692138671875,0.12255859375,-0.1978759765625
11.465,306,3147,853,2741,-0.47607421875,0.211181640625,-0.1446533203125
11.474,308,3147,987,3064,-0.3795166015625,0.344970703125,-0.1077880859375
11.489,308,3147,1206,3147,-0.298583984375,0.3856201171875,-0.1217041015625
11.495,313,3147,1662,3147,-0.3050537109375,0.272705078125,-0.246826171875
11.505,314,3147,1743,3147,-0.447021484375,0.113525390625,-0.4945068359375
11.524,314,3147,1820,3147,-0.687744140625,0.0064697265625,-0.7396240234375
11.525,316,3147,1997,3147,-1.0040283203125,0.0604248046875,-0.8192138671875
11.533,316,3147,2071,3147,-1.3350830078125,0.2623291015625,-0.753173828125
11.541,316,3147,2133,3147,-1.529296875,0.332763671875,-0.6876220703125
11.555,316,3147,2192,3147,-1.5867919921875,0.165771484375,-0.697265625
11.567,317,3147,2235,3147,-1.6253662109375,0.0794677734375,-0.76806640625
11.571,317,3147,2254,3147,-1.6817626953125,0.2125244140625,-0.7520751953125
11.593,316,3147,2093,3147,-1.6458740234375,0.2635498046875,-0.554931640625
11.593,294,3147,2024,3147,-1.2811279296875,0.1552734375,-0.3314208984375
11.603,315,3147,1941,3147,-0.8006591796875,0.17431640625,-0.38427734375
11.630,314,3147,1920,3147,-0.6925048828125,0.36083984375,-0.6939697265625
11.630,315,3147,1974,3147,-0.9189453125,0.43896484375,-0.8861083984375
11.631,315,3147,1973,3147,-0.9189453125,0.43896484375,-0.8861083984375
11.646,314,3147,1941,3147,-1.6063232421875,0.2353515625,-0.6297607421875
11.654,315,3147,1826,3147,-1.6392822265625,0.1029052734375,-0.4764404296875
11.661,313,3147,1735,3147,-1.6392822265625,0.1029052734375,-0.4764404296875
11.674,308,3147,1472,3147,-1.191650390625,0.140625,-0.5792236328125
11.683,308,3147,1331,3147,-1.0357666015625,0.1243896484375,-0.6280517578125
11.693,308,3147,1229,3147,-1.0357666015625,0.1243896484375,-0.6280517578125
11.721,302,3147,1067,2944,-0.784912109375,0.027587890625,-0.4349365234375
11.721,306,3147,987,2683,-0.6182861328125,-0.005615234375,-0.355712890625
11.721,304,3147,794,2397,-0.6182861328125,-0.005615234375,-0.355712890625
11.739,304,3147,694,1948,-0.4227294921875,0.098876953125,-0.3658447265625
11.743,304,3147,594,1615,-0.5025634765625,0.2017822265625,-0.4058837890625
11.750,302,3147,554,1313,-0.5025634765625,0.2017822265625,-0.4058837890625
11.764,302,3147,457,723,-0.7239990234375,0.2176513671875,-0.435546875
11.773,300,3147,411,464,-0.6978759765625,0.2880859375,-0.388916015625
11.782,300,3078,406,346,-0.6978759765625,0.2880859375,-0.388916015625
11.795,302,2578,404,334,-0.6856689453125,0.2098388671875,-0.2679443359375
11.803,302,2334,419,329,-0.7459716796875,0.081787109375,-0.2479248046875
11.810,302,2076,391,331,-0.7459716796875,0.081787109375,-0.2479248046875
11.833,298,1808,391,327,-0.8040771484375,0.081298828125,-0.333984375
11.833,302,1662,391,307,-0.80712890625,0.1575927734375,-0.3800048828125
11.841,302,1552,402,329,-0.80712890625,0.1575927734375,-0.3800048828125
11.856,304,1439,400,327,-0.813720703125,0.1815185546875,-0.3868408203125
11.863,300,1390,409,327,-0.813720703125,0.1815185546875,-0.3868408203125
11.871,302,1388,371,328,-0.8238525390625,0.1280517578125,-0.3724365234375
11.887,302,1441,391,327,-0.8458251953125,0.0697021484375,-0.356689453125
11.898,300,1523,398,327,-0.8458251953125,0.0697021484375,-0.356689453125
11.901,302,1640,385,328,-0.8377685546875,0.087158203125,-0.36669921875
11.924,300,1840,431,330,-0.7987060546875,0.1229248046875,-0.3837890625
11.924,302,2100,430,332,-0.7987060546875,0.1229248046875,-0.3837890625
11.940,302,2306,441,334,-0.785400390625,0.1099853515625,-0.3880615234375
11.945,300,2788,393,336,-0.764892578125,0.1124267578125,-0.3621826171875
11.952,302,3147,400,344,-0.764892578125,0.1124267578125,-0.3621826171875
11.964,302,3147,402,586,-0.744140625,0.115234375,-0.33544921875
11.974,304,3147,564,1172,-0.6722412109375,0.130615234375,-0.313232421875
11.983,304,3147,625,1546,-0.6722412109375,0.130615234375,-0.313232421875
12.038,304,3147,673,1894,-0.6298828125,0.15673828125,-0.2926025390625
12.040,304,3147,846,2456,-0.4935302734375,0.264892578125,-0.1873779296875
12.041,305,3147,894,2832,-0.4935302734375,0.264892578125,-0.1873779296875
12.041,308,3147,1074,3140,-0.3756103515625,0.2733154296875,-0.183349609375
12.041,310,3147,1608,3147,-0.3695068359375,0.120849609375,-0.110107421875
12.043,310,3147,1803,3147,-0.3695068359375,0.120849609375,-0.110107421875
12.052,315,3147,1914,3147,-0.6060791015625,-0.015869140625,-0.2076416015625
12.065,315,3147,2111,3147,-1.06005859375,0.0186767578125,-0.7664794921875
12.077,318,3147,2202,3147,-1.06005859375,0.0186767578125,-0.7664794921875
12.081,318,3147,2317,3147,-1.2718505859375,0.2894287109375,-0.9117431640625
12.108,316,3147,2565,3147,-1.3955078125,0.3968505859375,-0.839599609375
12.115,318,3147,2691,3147,-1.3934326171875,0.2332763671875,-0.7049560546875
12.116,318,3147,2788,3147,-1.4129638671875,0.183349609375,-0.628662109375
12.129,323,3147,2861,3147,-1.525634765625,0.366455078125,-0.5826416015625
12.141,323,3147,2851,3147,-1.6422119140625,0.4822998046875,-0.505126953125
12.141,323,3147,2787,3147,-1.55859375,0.2813720703125,-0.33642578125
12.155,321,3147,2748,3147,-1.1641845703125,-0.00048828125,-0.2274169921875
12.163,322,3147,2778,3147,-0.8128662109375,0.0989990234375,-0.41796875
12.171,321,3147,2777,3147,-0.875732421875,0.444580078125,-0.726318359375
12.189,321,3147,2735,3147,-1.2548828125,0.54443359375,-0.77880859375
12.193,317,3147,2627,3147,-1.6004638671875,0.313720703125,-0.552734375
12.212,318,3147,2521,3147,-1.6766357421875,0.0670166015625,-0.3594970703125
12.218,318,3147,2269,3147,-1.5604248046875,0.05859375,-0.4134521484375
12.223,315,3147,2060,3147,-1.38427734375,0.212646484375,-0.5653076171875
12.237,315,3147,1854,3147,-1.1824951171875,0.2799072265625,-0.587890625
12.245,308,3147,1340,3147,-0.98095703125,0.1915283203125,-0.47265625
12.254,308,3147,1148,3034,-0.773193359375,0.0693359375,-0.31689453125
12.261,304,3147,1029,2717,-0.55810546875,-0.0015869140625,-0.23291015625
12.275,305,3147,869,2213,-0.4017333984375,-0.010498046875,-0.267822265625
12.283,304,3147,766,1895,-0.35791015625,-0.0081787109375,-0.3734130859375
12.291,304,3147,646,1550,-0.4361572265625,0.013671875,-0.47607421875
12.326,302,3147,473,844,-0.5875244140625,0.10693359375,-0.553955078125
12.326,302,3147,390,455,-0.69775390625,0.256103515625,-0.573974609375
12.326,302,2918,409,338,-0.7154541015625,0.412841796875,-0.4844970703125
12.336,300,2119,378,333,-0.7216796875,0.4383544921875,-0.3392333984375
12.346,302,1703,388,330,-0.7474365234375,0.26171875,-0.2147216796875
12.351,300,1502,407,327,-0.759765625,0.0230712890625,-0.1632080078125
12.365,302,1255,416,327,-0.760986328125,-0.05908203125,-0.1826171875
12.373,300,1112,404,323,-0.762939453125,0.0594482421875,-0.2437744140625
12.381,301,1018,414,324,-0.782958984375,0.216796875,-0.3212890625
12.395,302,1014,388,324,-0.8004150390625,0.2796630859375,-0.3677978515625
12.428,300,1063,391,323,-0.7987060546875,0.2386474609375,-0.3682861328125
12.428,302,1098,401,324,-0.8009033203125,0.1512451171875,-0.3385009765625
12.428,302,1093,393,324,-0.8182373046875,0.077392578125,-0.3082275390625
12.447,302,1134,406,324,-0.8421630859375,0.048828125,-0.3037109375
12.447,302,1170,386,306,-0.8568115234375,0.0546875,-0.331298828125
12.459,302,1276,402,328,-0.8583984375,0.072509765625,-0.3758544921875
12.463,302,1381,428,327,-0.850830078125,0.0909423828125,-0.407958984375
12.471,304,1504,428,330,-0.828125,0.0926513671875,-0.41357421875
12.485,296,1968,391,329,-0.7972412109375,0.0872802734375,-0.3984375
12.558,302,2286,400,334,-0.774169921875,0.091064453125,-0.370849609375
12.559,300,2676,404,334,-0.7540283203125,0.0936279296875,-0.3319091796875
12.559,300,3147,431,454,-0.72607421875,0.10009765625,-0.2969970703125
12.559,302,3147,493,859,-0.6839599609375,0.111083984375,-0.2899169921875
12.559,300,3147,576,1334,-0.6326904296875,0.1358642578125,-0.285888671875
12.561,304,3147,759,2083,-0.5662841796875,0.2030029296875,-0.2708740234375
12.561,302,3147,837,2386,-0.467529296875,0.2911376953125,-0.2474365234375
12.563,304,3147,922,2734,-0.3453369140625,0.346435546875,-0.220703125
12.575,310,3147,1582,3147,-0.2412109375,0.352294921875,-0.1981201171875
12.586,315,3147,1855,3147,-0.254638671875,0.35009765625,-0.185302734375
12.591,315,3147,2139,3147,-0.4881591796875,0.2525634765625,-0.2667236328125
12.605,315,3147,2400,3147,-0.800537109375,0.021484375,-0.4716796875
12.614,318,3147,2510,3147,-1.036865234375,-0.0963134765625,-0.7308349609375
12.621,321,3147,2643,3147,-1.272705078125,0.0712890625,-0.8546142578125
12.658,321,3147,2844,3147,-1.45068359375,0.266357421875,-0.725341796875
12.659,322,3147,2945,3147,-1.554443359375,0.2232666015625,-0.49658203125
12.659,323,3147,2996,3147,-1.7037353515625,0.1279296875,-0.37841796875
12.667,323,3147,3084,3147,-1.8431396484375,0.1300048828125,-0.3515625
12.675,324,3147,3058,3147,-1.8116455078125,0.0814208984375,-0.2353515625
12.681,323,3147,3022,3147,-1.426025390625,-0.036865234375,-0.0653076171875
12.694,321,3147,2930,3147,-0.88330078125,0.0498046875,-0.1553955078125
12.703,323,3147,2938,3147,-0.7183837890625,0.3870849609375,-0.564208984375
12.718,323,3147,2925,3147,-0.92333984375,0.5469970703125,-0.8433837890625
12.725,323,3147,2909,3147,-1.2203369140625,0.4085693359375,-0.7581787109375
12.738,321,3147,2851,3147,-1.5050048828125,0.245849609375,-0.5399169921875
12.761,319,3147,2790,3147,-1.60986328125,0.1810302734375,-0.3980712890625
12.761,319,3147,2598,3147,-1.523681640625,0.2076416015625,-0.37060546875
12.763,306,3147,2469,3147,-1.3662109375,0.2357177734375,-0.4071044921875
12.771,316,3147,2359,3147,-1.3662109375,0.2357177734375,-0.4071044921875
12.784,315,3147,2008,3147,-1.096435546875,0.093017578125,-0.4119873046875
12.792,313,3147,1757,3147,-1.021240234375,0.0355224609375,-0.3558349609375
12.801,310,3147,1400,3147,-1.021240234375,0.0355224609375,-0.3558349609375
12.819,304,3147,1054,2851,-0.7808837890625,0.0009765625,-0.3148193359375
12.823,301,3147,944,2456,-0.6259765625,0.041748046875,-0.33984375
12.846,304,3147,808,2155,-0.6259765625,0.041748046875,-0.33984375
12.856,302,3147,605,1424,-0.4742431640625,-0.0545654296875,-0.4112548828125
12.856,299,3147,490,1058,-0.4859619140625,0.052490234375,-0.4091796875
12.865,304,3147,416,678,-0.4859619140625,0.052490234375,-0.4091796875
12.902,304,3076,375,338,-0.564208984375,0.4381103515625,-0.3094482421875
12.924,302,2683,377,336,-0.629150390625,0.5457763671875,-0.2249755859375
12.931,302,2432,416,338,-0.629150390625,0.5457763671875,-0.2249755859375
12.931,300,2131,411,332,-0.758056640625,0.167724609375,-0.1644287109375
12.931,301,2131,411,334,-0.7591552734375,0.0,-0.1900634765625
12.931,302,2066,402,336,-0.7591552734375,0.0,-0.1900634765625
12.960,304,2028,386,332,-0.8157958984375,0.13720703125,-0.346923828125
12.960,290,1959,385,330,-0.8494873046875,0.19921875,-0.3831787109375
12.960,300,1973,400,330,-0.8494873046875,0.19921875,-0.3831787109375
12.965,302,1996,418,332,-0.844482421875,0.1240234375,-0.32421875
12.978,304,2087,434,334,-0.853759765625,0.07861328125,-0.304931640625
12.981,302,2178,433,333,-0.853759765625,0.07861328125,-0.304931640625
12.994,302,2362,411,334,-0.8760986328125,0.080322265625,-0.36181640625
13.003,302,2486,398,334,-0.8760986328125,0.080322265625,-0.36181640625
13.010,302,2587,418,336,-0.876953125,0.0865478515625,-0.38427734375
13.024,300,2807,411,336,-0.8502197265625,0.0517578125,-0.3778076171875
13.032,302,2944,414,338,-0.8502197265625,0.0517578125,-0.3778076171875
13.061,302,3101,453,342,-0.8323974609375,0.063232421875,-0.372314453125
13.062,302,3147,421,484,-0.8099365234375,0.09716796875,-0.3380126953125
13.062,300,3147,465,682,-0.8099365234375,0.09716796875,-0.3380126953125
13.071,300,3147,548,766,-0.8092041015625,0.0924072265625,-0.3128662109375
13.091,300,3147,656,1091,-0.8385009765625,0.0814208984375,-0.279541015625
13.094,304,3147,697,1348,-0.8385009765625,0.0814208984375,-0.279541015625
13.103,305,3147,751,1574,-0.8477783203125,0.07080078125,-0.2789306640625
13.114,304,3147,842,2048,-0.7076416015625,0.13525390625,-0.28125
13.127,304,3147,895,2347,-0.7076416015625,0.13525390625,-0.28125
13.131,305,3147,989,2579,-0.5556640625,0.2161865234375,-0.2872314453125
13.156,306,3147,1251,3119,-0.2529296875,0.326171875,-0.1968994140625
13.166,313,3147,1634,3147,-0.2529296875,0.326171875,-0.1968994140625
13.168,315,3147,1904,3147,-0.171142578125,0.3275146484375,-0.1356201171875
13.176,316,3147,2172,3147,-0.441162109375,0.1490478515625,-0.375
13.183,321,3147,2308,3147,-0.441162109375,0.1490478515625,-0.375
13.191,318,3147,2432,3147,-0.8021240234375,0.2286376953125,-0.597900390625
13.205,318,3147,2612,3147,-1.1912841796875,0.4005126953125,-0.7562255859375
13.213,321,3147,2710,3147,-1.4393310546875,0.4168701171875,-0.7662353515625
13.230,322,3147,2801,3147,-1.55126953125,0.277099609375,-0.7005615234375
13.235,323,3147,2912,3147,-1.634033203125,0.1904296875,-0.6800537109375
13.255,321,3147,2949,3147,-1.6956787109375,0.2801513671875,-0.6300048828125
13.258,292,3147,2891,3147,-1.6954345703125,0.3072509765625,-0.467529296875
13.270,322,3147,2797,3147,-1.5272216796875,0.1595458984375,-0.3238525390625
13.273,321,3147,2727,3147,-1.12353515625,0.11962890625,-0.371826171875
13.282,318,3147,2633,3147,-0.75732421875,0.3240966796875,-0.604736328125
13.295,318,3147,2676,3147,-0.76806640625,0.5013427734375,-0.7850341796875
13.303,321,3147,2638,3147,-1.02734375,0.4622802734375,-0.729736328125
13.316,319,3147,2565,3147,-1.4013671875,0.4022216796875,-0.556396484375
13.331,318,3147,2308,3147,-1.73095703125,0.30615234375,-0.4429931640625
13.333,304,3147,2133,3147,-1.7296142578125,0.1278076171875,-0.41064453125
13.341,316,3147,1935,3147,-1.47900390625,0.1016845703125,-0.488525390625
13.379,312,3147,1521,3147,-1.208740234375,0.25341796875,-0.6502685546875
13.379,292,3147,1204,3147,-1.0078125,0.3448486328125,-0.694580078125
13.379,306,3147,1026,3147,-0.88525390625,0.2755126953125,-0.564453125
13.385,304,3147,872,2781,-0.76513671875,0.176513671875,-0.37255859375
13.393,304,3147,818,2480,-0.5662841796875,0.11572265625,-0.2342529296875
13.400,299,3147,778,2215,-0.3370361328125,0.0067138671875,-0.2113037109375
13.414,304,3147,645,1656,-0.207763671875,-0.137939453125,-0.2896728515625
13.437,302,3147,594,1447,-0.27783203125,-0.095947265625,-0.4149169921875
13.437,302,3147,559,1107,-0.4678955078125,0.2078857421875,-0.5413818359375
13.444,304,3147,447,746,-0.5982666015625,0.5596923828125,-0.5828857421875
13.467,304,3147,441,486,-0.6551513671875,0.655029296875,-0.491455078125
13.467,304,3147,424,343,-0.7452392578125,0.41455078125,-0.3544921875
13.474,302,2908,423,336,-0.8531494140625,0.11181640625,-0.238525390625
13.484,302,2627,437,336,-0.89306640625,-0.02734375,-0.1904296875
13.491,302,2398,423,332,-0.889404296875,0.009521484375,-0.2174072265625
13.505,302,2068,382,336,-0.88623046875,0.1121826171875,-0.2509765625
13.513,300,1920,388,336,-0.8724365234375,0.1634521484375,-0.2740478515625
13.521,300,1849,404,330,-0.8558349609375,0.16552734375,-0.3134765625
13.543,304,1383,371,327,-0.84716796875,0.1702880859375,-0.35302734375
13.543,302,1340,402,323,-0.8414306640625,0.1690673828125,-0.3741455078125
13.551,300,1343,393,327,-0.8433837890625,0.1395263671875,-0.3841552734375
13.569,301,1201,409,324,-0.8564453125,0.112060546875,-0.384033203125
13.576,308,1250,414,327,-0.861083984375,0.1165771484375,-0.3726806640625
13.581,302,1267,404,327,-0.8441162109375,0.135498046875,-0.3634033203125
13.595,304,1372,419,324,-0.8209228515625,0.1431884765625,-0.37451171875
13.603,302,1416,430,327,-0.81103515625,0.1429443359375,-0.39990234375
13.615,302,1504,418,328,-0.8216552734375,0.137939453125,-0.40869140625
13.629,302,1766,400,330,-0.837158203125,0.11962890625,-0.38916015625
13.639,300,1961,416,328,-0.83251953125,0.0921630859375,-0.350341796875
13.641,302,2113,427,330,-0.8126220703125,0.0867919921875,-0.301513671875
13.655,302,2469,431,334,-0.794677734375,0.118896484375,-0.265625
13.664,302,2851,445,346,-0.768798828125,0.143310546875,-0.2562255859375
13.678,302,3147,479,348,-0.72509765625,0.1380615234375,-0.2650146484375
13.680,302,3147,623,788,-0.72509765625,0.1380615234375,-0.2650146484375
13.697,304,3147,799,1695,-0.5848388671875,0.14404296875,-0.23681640625
13.702,306,3147,864,2087,-0.466552734375,0.1837158203125,-0.1962890625
13.710,305,3147,951,2453,-0.306640625,0.2735595703125,-0.1329345703125
13.723,307,3147,1228,3107,-0.072509765625,0.3797607421875,-0.054931640625
13.732,313,3147,1649,3147,0.0882568359375,0.517822265625,-0.0380859375
13.740,314,3147,1912,3147,-0.13916015625,0.592529296875,-0.1651611328125
13.773,316,3147,2180,3147,-0.7425537109375,0.2999267578125,-0.415283203125
13.774,319,3147,2284,3147,-1.3134765625,-0.0843505859375,-0.7081298828125
13.774,318,3147,2418,3147,-1.6658935546875,-0.066162109375,-0.9149169921875
13.784,321,3147,2651,3147,-1.792724609375,0.04931640625,-0.88134765625
13.792,322,3147,2756,3147,-1.7218017578125,-0.019287109375,-0.6942138671875
13.804,323,3147,2818,3147,-1.7218017578125,-0.019287109375,-0.6942138671875
13.814,321,3147,2859,3147,-1.660888671875,0.056396484375,-0.5166015625
13.822,323,3147,2853,3147,-1.64794921875,0.0836181640625,-0.5001220703125
13.830,323,3147,2848,3147,-1.64794921875,0.0836181640625,-0.5001220703125
13.844,321,3147,2798,3147,-0.8707275390625,0.3262939453125,-0.4195556640625
13.852,321,3147,2727,3147,-0.694091796875,0.516845703125,-0.4267578125
13.872,321,3147,2715,3147,-0.694091796875,0.516845703125,-0.4267578125
13.880,321,3147,2708,3147,-1.010498046875,0.3814697265625,-0.4552001953125
13.883,318,3147,2660,3147,-1.238525390625,0.250244140625,-0.44482421875
13.890,321,3147,2613,3147,-1.238525390625,0.250244140625,-0.44482421875
13.912,319,3147,2473,3147,-1.473388671875,0.0252685546875,-0.3990478515625
13.912,317,3147,2337,3147,-1.3880615234375,0.0438232421875,-0.43505859375
13.920,316,3147,2306,3147,-1.3880615234375,0.0438232421875,-0.43505859375
13.934,314,3147,2072,3147,-1.183837890625,0.0628662109375,-0.404541015625
13.948,314,3147,1838,3147,-1.1304931640625,-0.006591796875,-0.3392333984375
13.950,308,3147,1623,3147,-1.1304931640625,-0.006591796875,-0.3392333984375
13.979,306,3147,1163,2886,-1.0074462890625,-0.006103515625,-0.2657470703125
13.979,304,3147,1012,2384,-0.8350830078125,0.0389404296875,-0.2657470703125
13.982,304,3147,932,1920,-0.8350830078125,0.0389404296875,-0.2657470703125
13.994,304,3147,774,1014,-0.33544921875,-0.2396240234375,-0.2607421875
14.002,308,3147,721,687,-0.33544921875,-0.2396240234375,-0.2607421875
14.018,304,3147,673,386,-0.2711181640625,-0.1317138671875,-0.263427734375
14.024,302,2703,632,344,-0.52099609375,0.6580810546875,-0.478759765625
14.032,300,2539,625,337,-0.52099609375,0.6580810546875,-0.478759765625
14.047,304,2293,598,334,-0.6141357421875,0.772705078125,-0.5655517578125
14.054,302,2104,545,332,-0.8070068359375,0.354736328125,-0.499267578125
14.068,302,1880,506,328,-0.8070068359375,0.354736328125,-0.499267578125
14.077,302,1779,490,329,-0.84521484375,0.159912109375,-0.3651123046875
14.088,302,1546,468,329,-0.8109130859375,-0.0128173828125,-0.1964111328125
14.092,302,1622,468,328,-0.8109130859375,-0.0128173828125,-0.1964111328125
14.104,302,1534,473,330,-0.8160400390625,0.0635986328125,-0.2568359375
14.114,302,1527,456,328,-0.849609375,0.2236328125,-0.380859375
14.123,302,1395,481,326,-0.849609375,0.2236328125,-0.380859375
14.130,298,1434,473,328,-0.8580322265625,0.2115478515625,-0.3826904296875
14.152,302,1430,484,327,-0.83642578125,0.2447509765625,-0.4019775390625
14.152,300,1480,469,328,-0.83642578125,0.2447509765625,-0.4019775390625
14.160,302,1640,473,328,-0.817138671875,0.2359619140625,-0.3941650390625
14.174,304,1852,473,328,-0.750244140625,0.1451416015625,-0.3558349609375
14.189,301,2076,481,332,-0.750244140625,0.1451416015625,-0.3558349609375
14.190,304,2348,485,332,-0.735107421875,0.15234375,-0.3656005859375
14.204,299,3106,497,338,-0.7425537109375,0.24853515625,-0.4163818359375
14.218,302,3147,526,473,-0.7425537109375,0.24853515625,-0.4163818359375
14.220,302,3147,576,801,-0.7374267578125,0.2310791015625,-0.4124755859375
14.234,308,3147,684,1424,-0.72021484375,0.1591796875,-0.36474609375
14.242,304,3147,756,1978,-0.6873779296875,0.1046142578125,-0.298583984375
14.253,304,3147,842,2396,-0.5999755859375,0.1094970703125,-0.249267578125
14.264,305,3147,935,3017,-0.448486328125,0.2125244140625,-0.217041015625
14.272,304,3147,1050,3147,-0.2666015625,0.395263671875,-0.15234375
14.285,305,3147,1228,3147,-0.1141357421875,0.52734375,-0.0567626953125
14.294,313,3147,1757,3147,-0.157958984375,0.5660400390625,0.0035400390625
14.302,315,3147,1874,3147,-0.5260009765625,0.40234375,-0.12939453125
14.310,316,3147,1957,3147,-1.025390625,-0.0029296875,-0.519287109375
14.338,316,3147,2085,3147,-1.4088134765625,-0.2705078125,-1.0103759765625
14.339,314,3147,2186,3147,-1.671875,-0.1436767578125,-1.3023681640625
14.340,318,3147,2233,3147,-1.74267578125,0.0179443359375,-1.1451416015625
14.354,316,3147,2418,3147,-1.6370849609375,-0.0115966796875,-0.7086181640625
14.362,318,3147,2474,3147,-1.5526123046875,-0.0013427734375,-0.3526611328125
14.384,318,3147,2461,3147,-1.509521484375,0.0616455078125,-0.191650390625
14.384,316,3147,2394,3147,-1.377197265625,0.0472412109375,-0.1527099609375
14.395,317,3147,2333,3147,-1.0751953125,0.0198974609375,-0.2144775390625
14.400,317,3147,2261,3147,-0.8209228515625,0.124755859375,-0.3670654296875
14.413,316,3147,2242,3147,-0.8262939453125,0.2579345703125,-0.468505859375
14.423,316,3147,2225,3147,-0.9417724609375,0.255126953125,-0.4412841796875
14.430,316,3147,2180,3147,-1.149658203125,0.2513427734375,-0.384033203125
14.460,315,3147,2032,3147,-1.4698486328125,0.260986328125,-0.3623046875
14.461,315,3147,1935,3147,-1.6087646484375,0.162109375,-0.3701171875
14.461,315,3147,1830,3147,-1.4642333984375,0.0411376953125,-0.408935546875
14.486,310,3147,1470,3147,-1.2601318359375,-0.019287109375,-0.47802734375
14.486,310,3147,1269,3147,-1.132080078125,-0.0218505859375,-0.5208740234375
14.490,308,3147,1155,3147,-1.026123046875,0.0189208984375,-0.4906005859375
14.504,306,3147,1004,2828,-0.8785400390625,0.0902099609375,-0.4072265625
14.512,306,3147,927,2580,-0.6903076171875,0.1085205078125,-0.32763671875
14.520,304,3147,937,2238,-0.541015625,-0.00634765625,-0.3526611328125
14.534,304,3147,849,1540,-0.5340576171875,-0.062255859375,-0.4464111328125
14.563,302,3147,788,1117,-0.6243896484375,0.043701171875,-0.5145263671875
14.564,302,3147,725,644,-0.6844482421875,0.1822509765625,-0.544189453125
14.564,286,3028,648,344,-0.67822265625,0.3536376953125,-0.4959716796875
14.593,304,2569,624,333,-0.648681640625,0.5172119140625,-0.3760986328125
14.593,289,2409,605,338,-0.6507568359375,0.4891357421875,-0.278564453125
14.597,283,1968,517,332,-0.698486328125,0.2774658203125,-0.25439453125
14.602,302,1803,455,328,-0.7476806640625,0.086669921875,-0.275634765625
14.610,300,1483,446,328,-0.7633056640625,0.065185546875,-0.314208984375
14.624,302,1320,431,324,-0.7716064453125,0.17529296875,-0.3721923828125
14.632,302,1262,430,327,-0.8023681640625,0.259033203125,-0.419921875
14.640,302,1183,438,323,-0.827392578125,0.2369384765625,-0.4002685546875
14.671,302,1214,454,324,-0.819580078125,0.14013671875,-0.3369140625
14.672,304,1213,439,327,-0.8009033203125,0.0472412109375,-0.28955078125
14.672,302,1233,445,324,-0.7919921875,0.0159912109375,-0.2813720703125
14.700,301,1440,478,328,-0.7960205078125,0.0400390625,-0.3145751953125
14.700,302,1608,485,328,-0.81005859375,0.0758056640625,-0.3653564453125
14.701,302,1716,497,328,-0.8270263671875,0.0902099609375,-0.4044189453125
14.714,302,1981,508,332,-0.8446044921875,0.087890625,-0.42333984375
14.722,301,2141,539,332,-0.8607177734375,0.09765625,-0.418701171875
14.730,301,2337,582,336,-0.86328125,0.1158447265625,-0.399169921875
14.744,304,2760,625,343,-0.8555908203125,0.1201171875,-0.37841796875
14.752,302,3000,669,342,-0.8480224609375,0.1173095703125,-0.3597412109375
14.770,304,3147,715,390,-0.8302001953125,0.11279296875,-0.3427734375
14.791,304,3147,802,934,-0.787353515625,0.1041259765625,-0.3135986328125
14.797,304,3147,853,1386,-0.7049560546875,0.0938720703125,-0.272216796875
14.797,305,3147,895,1855,-0.58984375,0.107421875,-0.2432861328125
14.804,306,3147,951,2437,-0.479248046875,0.176025390625,-0.2369384765625
14.812,306,3147,980,2778,-0.4139404296875,0.2408447265625,-0.2574462890625
14.820,308,3147,1149,3147,-0.4075927734375,0.2667236328125,-0.2451171875
14.833,310,3147,1584,3147,-0.41357421875,0.2982177734375,-0.15869140625
14.842,314,3147,1796,3147,-0.4765625,0.2601318359375,-0.14306640625
14.850,313,3147,1946,3147,-0.658203125,0.119873046875,-0.2943115234375
14.874,316,3147,2050,3147,-0.8563232421875,0.021240234375,-0.5120849609375
14.875,316,3147,2192,3147,-1.041015625,0.0552978515625,-0.6536865234375
14.897,316,3147,2266,3147,-1.2216796875,0.1590576171875,-0.6590576171875
14.897,316,3147,2362,3147,-1.36279296875,0.1715087890625,-0.5919189453125
14.904,317,3147,2435,3147,-1.47412109375,0.0782470703125,-0.5723876953125
14.912,318,3147,2507,3147,-1.47412109375,0.0782470703125,-0.5723876953125
14.924,319,3147,2579,3147,-1.655517578125,0.2572021484375,-0.7607421875
14.932,318,3147,2567,3147,-1.634521484375,0.2965087890625,-0.63671875
14.940,318,3147,2530,3147,-1.634521484375,0.2965087890625,-0.63671875
14.954,317,3147,2375,3147,-0.94140625,0.0755615234375,-0.24755859375
14.977,317,3147,2330,3147,-0.7115478515625,0.2255859375,-0.2960205078125
14.977,316,3147,2322,3147,-0.7115478515625,0.2255859375,-0.2960205078125
14.995,316,3147,2286,3147,-1.087646484375,0.3072509765625,-0.476806640625
15.010,316,3147,2194,3147,-1.378662109375,0.3480224609375,-0.5003662109375
15.010,315,3147,2165,3147,-1.378662109375,0.3480224609375,-0.5003662109375
15.014,299,3147,1983,3147,-1.52685546875,0.081298828125,-0.38134765625
15.022,315,3147,1852,3147,-1.3505859375,0.056884765625,-0.438720703125
15.030,313,3147,1759,3147,-1.3505859375,0.056884765625,-0.438720703125
15.044,304,3147,1434,3147,-1.0909423828125,0.10400390625,-0.596923828125
15.052,308,3147,1263,3147,-1.0687255859375,0.0308837890625,-0.5567626953125
15.060,306,3147,1148,3147,-1.0687255859375,0.0308837890625,-0.5567626953125
15.101,304,3147,932,2766,-0.9822998046875,-0.0660400390625,-0.312744140625
15.101,304,3147,905,2396,-0.7867431640625,-0.103515625,-0.2413330078125
15.101,304,3147,855,1925,-0.7867431640625,-0.103515625,-0.2413330078125
15.105,304,3147,725,913,-0.31884765625,-0.0540771484375,-0.3223876953125
15.118,302,3147,651,468,-0.2498779296875,0.128173828125,-0.409912109375
15.120,302,3121,632,338,-0.2498779296875,0.128173828125,-0.409912109375
15.134,302,2717,625,334,-0.4285888671875,0.7125244140625,-0.424072265625
15.142,302,2552,624,336,-0.4285888671875,0.7125244140625,-0.424072265625
15.150,304,2430,630,336,-0.5943603515625,0.68359375,-0.4332275390625
15.164,304,2235,601,331,-0.874267578125,0.2598876953125,-0.360595703125
15.175,304,2028,588,334,-0.874267578125,0.2598876953125,-0.360595703125
15.202,300,1854,516,332,-0.9154052734375,0.19580078125,-0.3072509765625
15.203,302,1456,455,327,-0.9014892578125,0.140869140625,-0.268798828125
15.203,302,1269,438,324,-0.9014892578125,0.140869140625,-0.268798828125
15.211,302,1207,439,328,-0.8712158203125,0.0753173828125,-0.265380859375
15.224,302,1058,438,324,-0.8369140625,0.0546875,-0.3143310546875
15.232,301,922,437,323,-0.8369140625,0.0546875,-0.3143310546875
15.240,302,968,445,328,-0.8193359375,0.05224609375,-0.3516845703125
15.254,302,947,473,323,-0.8238525390625,-0.0203857421875,-0.371337890625
15.262,302,1014,468,323,-0.8238525390625,-0.0203857421875,-0.371337890625
15.278,300,1091,479,324,-0.8336181640625,-0.0135498046875,-0.4136962890625
15.284,302,1268,482,327,-0.8316650390625,0.114501953125,-0.46728515625
15.306,302,1345,487,327,-0.8316650390625,0.114501953125,-0.46728515625
15.306,302,1516,478,324,-0.8184814453125,0.1419677734375,-0.436279296875
15.314,302,1764,513,330,-0.80126953125,0.115234375,-0.3519287109375
15.322,302,2018,537,330,-0.80126953125,0.115234375,-0.3519287109375
15.330,302,2364,571,334,-0.791259765625,0.13134765625,-0.330322265625
15.344,304,3057,648,338,-0.7642822265625,0.1710205078125,-0.3162841796875
15.352,304,3147,683,493,-0.7642822265625,0.1710205078125,-0.3162841796875
15.363,299,3147,712,907,-0.73388671875,0.16064453125,-0.3133544921875
15.408,302,3147,799,1798,-0.693359375,0.1815185546875,-0.3265380859375
15.408,290,3147,803,2263,-0.6446533203125,0.2568359375,-0.3543701171875
15.408,304,3147,1056,3147,-0.357177734375,0.4007568359375,-0.371826171875
15.420,306,3147,1237,3147,-0.1318359375,0.2696533203125,-0.26318359375
15.420,310,3147,1519,3147,-0.0894775390625,0.14892578125,-0.10791015625
15.433,313,3147,1999,3147,-0.3212890625,0.203369140625,-0.0399169921875
15.442,315,3147,2122,3147,-0.6524658203125,0.2091064453125,-0.155029296875
15.456,316,3147,2197,3147,-1.046875,0.0469970703125,-0.4178466796875
15.464,315,3147,2367,3147,-1.4935302734375,0.0198974609375,-0.7025146484375
15.472,316,3147,2568,3147,-1.73388671875,0.167236328125,-0.819091796875
15.482,318,3147,2635,3147,-1.704345703125,0.169921875,-0.6810302734375
15.496,318,3147,2704,3147,-1.5916748046875,0.05029296875,-0.3779296875
15.519,321,3147,2677,3147,-1.5184326171875,-0.0294189453125,-0.1702880859375
15.519,318,3147,2621,3147,-1.478759765625,-0.01611328125,-0.228271484375
15.524,318,3147,2552,3147,-1.3511962890625,0.1005859375,-0.466064453125
15.532,317,3147,2521,3147,-1.048828125,0.26123046875,-0.749755859375
15.540,317,3147,2440,3147,-0.8045654296875,0.44482421875,-0.9375
15.553,316,3147,2384,3147,-0.8419189453125,0.4967041015625,-0.8841552734375
15.569,315,3147,2396,3147,-0.966796875,0.34375,-0.6102294921875
15.570,318,3147,2381,3147,-1.051513671875,0.2220458984375,-0.3538818359375
15.584,316,3147,2293,3147,-1.2845458984375,0.2445068359375,-0.2977294921875
15.592,315,3147,2203,3147,-1.57080078125,0.2508544921875,-0.3885498046875
15.600,315,3147,2093,3147,-1.5682373046875,0.1611328125,-0.4715576171875
15.616,309,3147,1735,3147,-1.32177734375,0.083740234375,-0.48193359375
15.622,310,3147,1497,3147,-1.1051025390625,0.0570068359375,-0.4906005859375
15.630,310,3147,1336,3147,-0.997802734375,0.0633544921875,-0.505859375
15.644,304,3147,1183,3147,-0.9130859375,0.08837890625,-0.4730224609375
15.652,307,3147,1067,3147,-0.7998046875,0.119384765625,-0.4219970703125
15.661,306,3147,944,3147,-0.687744140625,0.1505126953125,-0.384765625
15.674,304,3147,862,2701,-0.5909423828125,0.058349609375,-0.39208984375
15.690,304,3147,819,2412,-0.5260009765625,-0.11279296875,-0.457763671875
15.690,302,3147,746,2084,-0.530517578125,-0.0848388671875,-0.527099609375
15.704,304,3147,658,1453,-0.595703125,0.118896484375,-0.54833984375
15.724,300,3147,551,1031,-0.676513671875,0.3021240234375,-0.4781494140625
15.724,304,3147,543,740,-0.7239990234375,0.4368896484375,-0.340087890625
15.734,302,3068,481,336,-0.725341796875,0.4493408203125,-0.2542724609375
15.742,300,2765,416,336,-0.732666015625,0.287841796875,-0.254638671875
15.750,302,2498,414,338,-0.776123046875,0.124267578125,-0.259765625
15.764,299,2131,385,330,-0.8095703125,0.08935546875,-0.267333984375
15.772,300,1718,404,330,-0.8123779296875,0.145751953125,-0.3206787109375
15.780,300,1595,418,327,-0.8167724609375,0.2103271484375,-0.399169921875
15.795,301,1483,418,328,-0.82861328125,0.22412109375,-0.45849609375
15.806,301,1434,419,332,-0.8333740234375,0.2041015625,-0.4527587890625
15.812,304,1468,426,327,-0.829833984375,0.1741943359375,-0.3973388671875
15.831,302,1380,414,327,-0.8236083984375,0.1390380859375,-0.3592529296875
15.832,291,1355,411,323,-0.8216552734375,0.122314453125,-0.3597412109375
15.840,302,1341,402,328,-0.8177490234375,0.11962890625,-0.37548828125
15.854,302,1419,411,324,-0.8087158203125,0.1134033203125,-0.3837890625
15.862,300,1398,409,325,-0.79931640625,0.1011962890625,-0.381103515625
15.870,304,1441,419,327,-0.7921142578125,0.091064453125,-0.3818359375
15.892,302,1640,441,327,-0.7921142578125,0.0958251953125,-0.3963623046875
15.892,300,1788,424,328,-0.7977294921875,0.111083984375,-0.410400390625
15.908,302,1920,433,332,-0.80224609375,0.1181640625,-0.4117431640625
15.934,294,2275,465,333,-0.8021240234375,0.1168212890625,-0.4022216796875
15.934,301,2601,467,336,-0.7926025390625,0.12451171875,-0.385986328125
15.935,302,3086,481,343,-0.77099609375,0.1552734375,-0.3631591796875
15.945,304,3147,552,844,-0.7301025390625,0.194580078125,-0.346435546875
15.954,302,3147,710,1216,-0.6656494140625,0.2108154296875,-0.35302734375
15.961,305,3147,849,1675,-0.5799560546875,0.184326171875,-0.347900390625
15.974,313,3147,1065,2323,-0.4639892578125,0.1263427734375,-0.28466796875
15.983,307,3147,1211,2701,-0.2904052734375,0.0980224609375,-0.2073974609375
15.994,308,3147,1440,3104,-0.0430908203125,0.1517333984375,-0.2138671875
16.005,315,3147,1906,3147,0.0635986328125,0.2698974609375,-0.290283203125
16.040,315,3147,2137,3147,-0.2320556640625,0.3466796875,-0.354736328125
16.041,300,3147,2317,3147,-0.7681884765625,0.35009765625,-0.433349609375
16.044,316,3147,2622,3147,-1.267822265625,0.3834228515625,-0.5748291015625
16.045,321,3147,2741,3147,-1.5592041015625,0.39404296875,-0.63916015625
16.051,321,3147,2872,3147,-1.5986328125,0.236328125,-0.6334228515625
16.065,321,3147,3000,3147,-1.66259765625,0.0128173828125,-0.6470947265625
16.073,322,3147,3017,3147,-1.8673095703125,-0.0230712890625,-0.5050048828125
16.081,321,3147,2905,3147,-1.953125,-0.00732421875,-0.2630615234375
16.096,322,3147,2830,3147,-1.5975341796875,-0.088623046875,-0.1640625
16.103,322,3147,2736,3147,-0.945068359375,0.0555419921875,-0.3604736328125
16.113,318,3147,2638,3147,-0.5748291015625,0.469482421875,-0.756103515625
16.148,315,3147,2544,3147,-0.6739501953125,0.622314453125,-1.0072021484375
16.149,318,3147,2573,3147,-0.927734375,0.373046875,-0.9337158203125
16.149,304,3147,2555,3147,-1.1580810546875,0.1685791015625,-0.6834716796875
16.155,316,3147,2419,3147,-1.480224609375,0.1783447265625,-0.5556640625
16.163,316,3147,2258,3147,-1.7418212890625,0.229248046875,-0.58056640625
16.171,316,3147,2080,3147,-1.7418212890625,0.229248046875,-0.58056640625
16.185,310,3147,1640,3147,-1.363525390625,0.2115478515625,-0.5047607421875
16.200,308,3147,1440,3147,-1.109619140625,0.17724609375,-0.479248046875
16.201,306,3147,1283,3147,-1.109619140625,0.17724609375,-0.479248046875
16.231,306,3147,1000,3147,-0.736572265625,0.1279296875,-0.3355712890625
16.232,304,3147,900,2944,-0.574951171875,0.087890625,-0.2626953125
16.232,304,3147,840,2544,-0.574951171875,0.087890625,-0.2626953125
16.256,302,3147,733,2150,-0.30517578125,-0.232421875,-0.32958984375
16.256,304,3147,625,1869,-0.35791015625,-0.083984375,-0.4285888671875
16.262,304,3147,571,1559,-0.35791015625,-0.083984375,-0.4285888671875
16.275,304,3147,539,1120,-0.7794189453125,0.4892578125,-0.48046875
16.283,302,3147,539,951,-0.80859375,0.4454345703125,-0.4239501953125
16.291,302,3147,506,713,-0.80859375,0.4454345703125,-0.4239501953125
16.305,300,3147,482,344,-0.7376708984375,0.0992431640625,-0.3671875
16.314,302,3072,441,345,-0.79052734375,0.04150390625,-0.3223876953125
16.330,304,2807,438,334,-0.79052734375,0.04150390625,-0.3223876953125
16.337,302,2330,427,331,-0.8287353515625,0.1337890625,-0.34716796875
16.343,304,2115,416,328,-0.8443603515625,0.2003173828125,-0.379150390625
16.357,302,1918,405,330,-0.8443603515625,0.2003173828125,-0.379150390625
16.367,299,1669,404,328,-0.824462890625,0.1805419921875,-0.386474609375
16.373,302,1604,400,328,-0.8045654296875,0.1632080078125,-0.369384765625
16.381,302,1557,388,328,-0.8045654296875,0.1632080078125,-0.369384765625
16.395,302,1550,383,328,-0.783447265625,0.154296875,-0.3934326171875
16.403,302,1636,382,328,-0.783447265625,0.154296875,-0.3934326171875
16.411,302,1664,387,328,-0.7864990234375,0.14794921875,-0.4249267578125
16.433,304,1850,402,329,-0.785888671875,0.109130859375,-0.452392578125
16.433,304,1961,398,334,-0.785888671875,0.109130859375,-0.452392578125
16.443,304,2180,416,328,-0.791259765625,0.1029052734375,-0.444091796875
16.455,304,2477,433,334,-0.8223876953125,0.11181640625,-0.4100341796875
16.473,302,2710,442,336,-0.8223876953125,0.11181640625,-0.4100341796875
16.473,304,3022,456,342,-0.821044921875,0.1180419921875,-0.3919677734375
16.485,302,3147,456,654,-0.7857666015625,0.108154296875,-0.3330078125
16.493,301,3147,456,946,-0.7857666015625,0.108154296875,-0.3330078125
16.507,302,3147,470,1258,-0.738037109375,0.122314453125,-0.3275146484375
16.515,298,3147,600,1824,-0.577392578125,0.3089599609375,-0.3543701171875
16.523,304,3147,656,2170,-0.577392578125,0.3089599609375,-0.3543701171875
16.539,304,3147,754,2464,-0.52197265625,0.43115234375,-0.3978271484375
16.545,306,3147,879,2990,-0.3983154296875,0.359619140625,-0.3946533203125
16.553,302,3147,1014,3147,-0.3983154296875,0.359619140625,-0.3946533203125
16.561,307,3147,1225,3147,-0.271728515625,0.2362060546875,-0.2353515625
16.575,310,3147,1641,3147,-0.47265625,0.118408203125,-0.125244140625
16.583,313,3147,1850,3147,-0.47265625,0.118408203125,-0.125244140625
16.591,315,3147,2004,3147,-0.804931640625,0.1397705078125,-0.294677734375
