time,compression0,compression1,compression2,compression3,accel_x,accel_y,accel_z
0.627,313,2554,873,338,-0.7689208984375,0.5274658203125,-0.3482666015625
0.627,313,2541,871,342,-0.7689208984375,0.5274658203125,-0.3482666015625
0.627,313,2481,874,338,-0.767822265625,0.5283203125,-0.3480224609375
0.627,313,2484,874,338,-0.768310546875,0.5289306640625,-0.34619140625
0.627,315,2456,879,338,-0.768310546875,0.5289306640625,-0.34619140625
0.627,313,2424,883,338,-0.767578125,0.5228271484375,-0.3404541015625
0.627,314,2374,883,338,-0.7696533203125,0.525390625,-0.339599609375
0.628,315,2357,885,337,-0.7696533203125,0.525390625,-0.339599609375
0.628,315,2320,883,337,-0.7738037109375,0.522216796875,-0.338623046875
0.628,312,2286,887,336,-0.773681640625,0.517333984375,-0.3387451171875
0.628,313,2275,887,338,-0.773681640625,0.517333984375,-0.3387451171875
0.628,313,2261,883,336,-0.771728515625,0.5281982421875,-0.3441162109375
0.628,314,2263,869,338,-0.77099609375,0.5325927734375,-0.348388671875
0.628,313,2254,874,338,-0.77099609375,0.5325927734375,-0.348388671875
0.628,313,2233,869,336,-0.76904296875,0.52880859375,-0.354736328125
0.628,315,2202,859,342,-0.7733154296875,0.528076171875,-0.35498046875
0.628,315,2180,864,338,-0.7733154296875,0.528076171875,-0.35498046875
0.628,313,2142,864,338,-0.781005859375,0.5267333984375,-0.3536376953125
0.628,315,2127,867,338,-0.781005859375,0.5267333984375,-0.3536376953125
0.731,313,2071,869,338,-0.78271484375,0.52783203125,-0.3519287109375
0.731,313,2024,865,336,-0.7833251953125,0.5189208984375,-0.3426513671875
0.874,313,2032,864,337,-0.7833251953125,0.5189208984375,-0.3426513671875
1.732,315,1985,860,337,-0.7808837890625,0.513916015625,-0.337646484375
1.733,313,2003,869,334,-0.7781982421875,0.5174560546875,-0.3277587890625
1.733,315,1981,883,336,-0.7781982421875,0.5174560546875,-0.3277587890625
1.733,315,1985,872,338,-0.78173828125,0.5142822265625,-0.329833984375
1.733,313,1987,868,336,-0.781982421875,0.4908447265625,-0.333984375
1.733,315,2023,865,338,-0.781982421875,0.4908447265625,-0.333984375
1.733,313,2039,867,338,-0.7803955078125,0.4774169921875,-0.329833984375
1.733,313,2111,849,336,-0.784423828125,0.472900390625,-0.3153076171875
1.734,313,2172,846,336,-0.784423828125,0.472900390625,-0.3153076171875
1.734,312,2195,853,336,-0.7860107421875,0.47900390625,-0.30908203125
1.734,313,2217,853,336,-0.7880859375,0.499267578125,-0.2943115234375
1.734,313,2266,824,321,-0.7880859375,0.499267578125,-0.2943115234375
1.734,315,2263,830,336,-0.7911376953125,0.500732421875,-0.291259765625
1.734,315,2280,800,336,-0.795166015625,0.47900390625,-0.2916259765625
1.734,315,2280,813,338,-0.795166015625,0.47900390625,-0.2916259765625
1.735,315,2293,826,334,-0.7952880859375,0.47802734375,-0.293701171875
1.735,315,2374,829,334,-0.7899169921875,0.48583984375,-0.3028564453125
1.735,310,2364,830,342,-0.7786865234375,0.4981689453125,-0.3143310546875
1.735,315,2435,841,338,-0.772216796875,0.517333984375,-0.3243408203125
1.735,315,2479,871,338,-0.7742919921875,0.52587890625,-0.330810546875
1.735,313,2505,879,338,-0.77978515625,0.507568359375,-0.325927734375
1.735,314,2551,890,338,-0.7825927734375,0.468505859375,-0.307861328125
1.735,312,2737,894,337,-0.77685546875,0.4222412109375,-0.2825927734375
1.735,313,2890,912,343,-0.7664794921875,0.3880615234375,-0.257080078125
1.735,315,2968,869,344,-0.73095703125,0.36376953125,-0.2265625
1.735,310,3147,948,512,-0.6533203125,0.3514404296875,-0.175048828125
1.735,316,3147,951,735,-0.5623779296875,0.3785400390625,-0.1201171875
1.736,316,3147,999,1129,-0.4517822265625,0.4169921875,-0.09423828125
1.736,316,3147,1039,1735,-0.2880859375,0.4007568359375,-0.066162109375
1.736,321,3147,1131,2010,-0.116455078125,0.3818359375,-0.0028076171875
1.736,324,3147,1281,2275,-0.0228271484375,0.4459228515625,0.0390625
1.736,330,3147,1384,2637,-0.0517578125,0.51953125,-0.0057373046875
1.736,334,3147,1455,2864,-0.265380859375,0.5517578125,-0.1387939453125
1.736,345,3147,1529,2981,-0.696044921875,0.6591796875,-0.319580078125
1.736,356,3147,1705,3137,-1.201171875,0.8970947265625,-0.47509765625
1.736,356,3147,1719,3147,-1.6358642578125,1.12451171875,-0.5355224609375
1.736,321,3147,1123,1155,-0.535888671875,0.3773193359375,-0.0810546875
1.736,316,3147,1120,628,-0.535400390625,0.3956298828125,-0.0997314453125
1.736,318,3147,1112,351,-0.5693359375,0.4423828125,-0.1632080078125
1.736,316,3082,1093,347,-0.595458984375,0.4951171875,-0.2281494140625
1.736,318,2636,1074,344,-0.6353759765625,0.4993896484375,-0.2545166015625
1.736,318,2468,1067,347,-0.698974609375,0.440673828125,-0.226806640625
1.736,316,2228,1039,345,-0.7679443359375,0.357177734375,-0.171142578125
1.736,318,2048,1000,342,-0.80126953125,0.282470703125,-0.1143798828125
1.737,316,1927,989,338,-0.7886962890625,0.250244140625,-0.066162109375
1.737,315,1863,980,337,-0.7674560546875,0.2669677734375,-0.0572509765625
1.737,314,1855,1000,338,-0.7601318359375,0.3299560546875,-0.0777587890625
1.737,316,1895,1003,342,-0.7540283203125,0.408203125,-0.1072998046875
1.737,316,2041,1025,342,-0.744873046875,0.43310546875,-0.1495361328125
1.737,316,2271,1063,338,-0.7432861328125,0.3797607421875,-0.1822509765625
1.737,316,2464,1071,342,-0.7569580078125,0.2764892578125,-0.191650390625
1.738,316,2703,1083,342,-0.7647705078125,0.17822265625,-0.188720703125
1.738,316,3147,1112,344,-0.7442626953125,0.1563720703125,-0.1829833984375
1.738,316,3147,1125,548,-0.703857421875,0.205810546875,-0.1817626953125
1.738,315,3147,1156,859,-0.6546630859375,0.259765625,-0.1849365234375
1.738,317,3147,1202,1467,-0.610595703125,0.3038330078125,-0.1669921875
1.738,321,3147,1231,1669,-0.55517578125,0.318603515625,-0.106689453125
1.738,324,3147,1306,1967,-0.4625244140625,0.31982421875,0.0035400390625
1.738,328,3147,1474,2333,-0.3134765625,0.3162841796875,0.11328125
1.738,333,3147,1580,2557,-0.137939453125,0.2750244140625,0.13623046875
1.738,338,3147,1642,2794,-0.077880859375,0.2896728515625,0.089111328125
1.739,347,3147,1709,3056,-0.27392578125,0.431396484375,-0.010986328125
1.739,351,3147,1757,3130,-0.7354736328125,0.6456298828125,-0.1749267578125
1.740,351,3147,1775,3141,-1.324951171875,0.84375,-0.33740234375
1.743,361,3147,1867,3147,-1.861328125,0.9158935546875,-0.4163818359375
1.743,361,3147,1883,3147,-2.248046875,0.8050537109375,-0.3936767578125
1.743,361,3147,1945,3147,-2.3531494140625,0.510498046875,-0.2916259765625
1.744,360,3147,1954,3147,-1.85302734375,0.1337890625,-0.107666015625
1.744,359,3147,1877,3147,-1.113525390625,0.1917724609375,0.06201171875
1.744,344,3147,1880,3147,-0.771484375,0.7393798828125,-0.0321044921875
1.744,356,3147,1935,3147,-0.9022216796875,1.176513671875,-0.3214111328125
1.744,351,3147,1895,3147,-1.318359375,1.173828125,-0.5274658203125
1.745,351,3147,1860,3112,-1.6021728515625,0.769775390625,-0.5533447265625
1.745,346,3147,1756,2916,-1.580322265625,0.3587646484375,-0.40771484375
1.745,344,3147,1647,2763,-1.364501953125,0.239501953125,-0.243896484375
1.745,338,3147,1561,2569,-1.082275390625,0.36669921875,-0.1502685546875
1.745,332,3147,1284,2228,-0.8253173828125,0.521484375,-0.0684814453125
1.745,324,3147,1239,1996,-0.64208984375,0.5035400390625,-0.0106201171875
1.745,328,3147,1225,1709,-0.591064453125,0.36474609375,-0.017822265625
1.745,330,3147,1149,1129,-0.6337890625,0.2620849609375,-0.04248046875
1.745,323,3147,1123,711,-0.681396484375,0.2210693359375,-0.059814453125
1.745,319,3147,1091,378,-0.7275390625,0.1900634765625,-0.1055908203125
1.745,318,2684,1053,348,-0.7578125,0.1397705078125,-0.1673583984375
1.745,318,2417,1050,348,-0.7586669921875,0.1044921875,-0.205078125
1.747,316,2142,1009,345,-0.7586669921875,0.1044921875,-0.205078125
1.747,313,1700,944,343,-0.7275390625,0.1708984375,-0.18994140625
1.747,316,1362,894,334,-0.71728515625,0.2811279296875,-0.1610107421875
1.748,315,1160,860,344,-0.71728515625,0.2811279296875,-0.1610107421875
1.748,315,1206,829,338,-0.69091796875,0.4918212890625,-0.13916015625
1.749,315,1093,811,322,-0.7003173828125,0.525146484375,-0.14794921875
1.750,316,1071,835,332,-0.7003173828125,0.525146484375,-0.14794921875
1.751,315,1179,853,334,-0.7032470703125,0.4105224609375,-0.1556396484375
1.751,315,1262,869,334,-0.7030029296875,0.334228515625,-0.1436767578125
1.752,315,1377,917,336,-0.7030029296875,0.334228515625,-0.1436767578125
1.753,315,1608,980,338,-0.7364501953125,0.2159423828125,-0.1473388671875
1.754,316,1775,980,336,-0.7576904296875,0.176513671875,-0.1658935546875
1.755,315,1983,1004,344,-0.7576904296875,0.176513671875,-0.1658935546875
1.756,316,2417,1063,344,-0.777099609375,0.17529296875,-0.164794921875
1.756,316,2769,1078,344,-0.7774658203125,0.24951171875,-0.14990234375
1.756,315,3110,1067,346,-0.7774658203125,0.24951171875,-0.14990234375
1.757,317,3147,1112,772,-0.71923828125,0.39892578125,-0.13916015625
1.757,318,3147,1178,1214,-0.636962890625,0.40576171875,-0.099853515625
1.757,321,3147,1303,1555,-0.636962890625,0.40576171875,-0.099853515625
1.759,328,3147,1437,2114,-0.294189453125,0.282958984375,0.032958984375
1.760,331,3147,1533,2445,-0.1510009765625,0.30859375,0.0784912109375
1.760,357,3147,1774,3104,-1.055908203125,0.6614990234375,-0.09814453125
1.760,364,3147,1848,3098,-1.4658203125,0.8028564453125,-0.1995849609375
1.760,364,3147,1874,3130,-1.8875732421875,0.8660888671875,-0.32177734375
1.760,364,3147,1861,3147,-2.210205078125,0.71044921875,-0.4407958984375
1.761,371,3147,1850,3147,-2.1011962890625,0.328369140625,-0.4237060546875
1.761,359,3147,1786,3126,-0.9290771484375,0.1978759765625,0.083251953125
1.761,314,1004,736,336,-0.67578125,0.244140625,-0.1689453125
1.762,316,946,739,332,-0.6007080078125,0.435546875,-0.0960693359375
1.762,315,986,759,332,-0.6007080078125,0.435546875,-0.0960693359375
1.770,314,1091,774,332,-0.5960693359375,0.369384765625,-0.08203125
1.771,314,1143,788,334,-0.628173828125,0.3267822265625,-0.10546875
1.780,313,1204,794,338,-0.6861572265625,0.2979736328125,-0.133544921875
1.817,313,1266,833,334,-0.731689453125,0.256103515625,-0.1636962890625
1.829,316,1429,860,344,-0.7476806640625,0.200439453125,-0.193603515625
1.829,316,1592,920,336,-0.765380859375,0.1541748046875,-0.2032470703125
1.829,315,2257,957,342,-0.78515625,0.1236572265625,-0.195068359375
1.846,316,2760,978,346,-0.7880859375,0.104736328125,-0.189453125
1.846,317,3137,1038,348,-0.801025390625,0.162109375,-0.166748046875
1.853,316,3147,1134,731,-0.7989501953125,0.259765625,-0.1204833984375
1.862,317,3147,1159,1116,-0.7271728515625,0.307861328125,-0.07666015625
1.874,318,3147,1222,1464,-0.6136474609375,0.3341064453125,-0.0186767578125
1.903,323,3147,1372,1996,-0.474853515625,0.3671875,0.0345458984375
1.904,324,3147,1469,2176,-0.3428955078125,0.4580078125,0.0567626953125
1.904,329,3147,1616,2337,-0.29541015625,0.578857421875,0.0623779296875
1.921,336,3147,1772,2671,-0.38623046875,0.6181640625,0.033935546875
1.922,346,3147,1840,2790,-0.630615234375,0.557861328125,-0.03515625
1.929,347,3147,1856,2884,-0.630615234375,0.557861328125,-0.03515625
1.943,359,3147,1970,2981,-1.6356201171875,0.441650390625,-0.278564453125
1.952,361,3147,2021,3018,-2.11083984375,0.350341796875,-0.44384765625
1.959,361,3147,2024,3073,-2.11083984375,0.350341796875,-0.44384765625
1.976,360,3147,2061,3092,-2.1060791015625,0.239990234375,-0.4197998046875
1.984,359,3147,2035,3068,-1.4468994140625,0.298828125,-0.1885986328125
2.005,356,3147,2012,2984,-1.4468994140625,0.298828125,-0.1885986328125
2.006,347,3147,1920,2879,-0.6807861328125,0.8818359375,0.1300048828125
2.023,348,3147,1895,2912,-0.8291015625,0.8614501953125,0.0113525390625
2.024,346,3147,1861,2872,-0.8291015625,0.8614501953125,0.0113525390625
2.033,342,3147,1730,2728,-1.6190185546875,0.58203125,-0.340087890625
2.042,338,3147,1588,2621,-1.718994140625,0.4381103515625,-0.5115966796875
2.050,334,3147,1427,2458,-1.718994140625,0.4381103515625,-0.5115966796875
2.063,328,3147,1278,2104,-1.2264404296875,0.2630615234375,-0.32763671875
2.090,324,3147,1213,1878,-0.9066162109375,0.278076171875,-0.1495361328125
2.090,324,3147,1170,1529,-0.9066162109375,0.278076171875,-0.1495361328125
2.110,317,3147,1129,1014,-0.5810546875,0.3267822265625,0.04931640625
2.110,318,3147,1071,623,-0.627685546875,0.3021240234375,0.0924072265625
2.111,316,3147,1029,346,-0.627685546875,0.3021240234375,0.0924072265625
2.129,313,2539,966,347,-0.7996826171875,0.1468505859375,-0.0611572265625
2.131,316,2306,947,343,-0.8291015625,0.04052734375,-0.1810302734375
2.146,315,1996,935,346,-0.8291015625,0.04052734375,-0.1810302734375
2.153,315,1681,848,334,-0.81884765625,0.0020751953125,-0.210205078125
2.162,315,1592,826,334,-0.81884765625,0.0020751953125,-0.210205078125
2.169,315,1463,802,336,-0.802001953125,0.0697021484375,-0.1492919921875
2.184,315,1253,813,336,-0.6883544921875,0.3388671875,-0.106689453125
2.198,314,1143,784,331,-0.6883544921875,0.3388671875,-0.106689453125
2.214,313,1129,759,331,-0.64794921875,0.4622802734375,-0.1383056640625
2.214,313,1231,774,330,-0.63916015625,0.5067138671875,-0.148193359375
2.222,310,1334,787,332,-0.63916015625,0.5067138671875,-0.148193359375
2.273,313,1456,808,332,-0.622802734375,0.4326171875,-0.162109375
2.273,313,1624,841,332,-0.67041015625,0.3070068359375,-0.185546875
2.274,315,1812,832,338,-0.67041015625,0.3070068359375,-0.185546875
2.274,315,2007,840,333,-0.7022705078125,0.249755859375,-0.1964111328125
2.275,314,2668,905,316,-0.7271728515625,0.1021728515625,-0.217041015625
2.283,316,3016,938,344,-0.7271728515625,0.1021728515625,-0.217041015625
2.290,314,3147,968,447,-0.7264404296875,0.0743408203125,-0.2225341796875
2.310,316,3147,1039,1067,-0.7371826171875,0.1806640625,-0.0833740234375
2.312,302,3147,1066,1437,-0.7371826171875,0.1806640625,-0.0833740234375
2.326,319,3147,1132,1770,-0.6512451171875,0.23388671875,0.019287109375
2.341,325,3147,1268,2171,-0.3509521484375,0.2742919921875,0.052490234375
2.343,328,3147,1372,2391,-0.3509521484375,0.2742919921875,0.052490234375
2.350,328,3147,1503,2538,-0.27490234375,0.4063720703125,0.0494384765625
2.363,334,3147,1744,2769,-0.5877685546875,0.8372802734375,0.0323486328125
2.372,338,3147,1809,2822,-0.5877685546875,0.8372802734375,0.0323486328125
2.387,345,3147,1816,2886,-0.9957275390625,0.928955078125,-0.0728759765625
2.393,348,3147,1941,2863,-1.4591064453125,0.9053955078125,-0.207763671875
2.415,354,3147,1920,2861,-1.888916015625,0.7205810546875,-0.3426513671875
2.415,336,3147,1914,2886,-2.205078125,0.359375,-0.4580078125
2.424,349,3147,1929,2940,-2.263916015625,0.0037841796875,-0.4332275390625
2.432,348,3147,1920,2874,-1.786865234375,-0.1949462890625,-0.2135009765625
2.448,346,3147,1816,2781,-1.0904541015625,0.0662841796875,0.116455078125
2.453,344,3147,1693,2808,-0.7581787109375,0.68603515625,0.2545166015625
2.462,338,3147,1662,2810,-0.7706298828125,1.031982421875,0.1041259765625
2.472,338,3147,1608,2769,-1.1278076171875,0.9967041015625,-0.1055908203125
3.211,332,3147,1455,2608,-1.6109619140625,0.7403564453125,-0.3360595703125
3.212,332,3147,1366,2507,-1.775390625,0.395751953125,-0.5179443359375
3.212,330,3147,1306,2334,-1.6002197265625,0.177001953125,-0.494384765625
3.551,321,3147,1160,1552,-0.6617431640625,0.3697509765625,0.01513671875
3.551,321,3147,1108,1004,-0.55126953125,0.392333984375,0.0552978515625
3.552,316,3147,1058,694,-0.577880859375,0.3604736328125,0.0799560546875
3.552,317,3147,1039,364,-0.6346435546875,0.2833251953125,0.0738525390625
3.552,316,2976,988,346,-0.6968994140625,0.1651611328125,-0.026123046875
3.554,316,2673,966,345,-0.7557373046875,0.037109375,-0.1630859375
3.554,316,2493,923,345,-0.771240234375,-0.0487060546875,-0.25439453125
3.554,315,2330,883,342,-0.7503662109375,-0.032470703125,-0.2694091796875
3.554,316,2175,846,338,-0.7283935546875,0.08349609375,-0.2197265625
3.554,316,2070,816,338,-0.7177734375,0.2474365234375,-0.1522216796875
3.554,315,2005,811,338,-0.6954345703125,0.4188232421875,-0.1029052734375
3.554,315,2024,803,338,-0.667236328125,0.5643310546875,-0.0660400390625
3.554,310,2122,842,338,-0.6444091796875,0.619140625,-0.04638671875
3.554,315,2359,894,338,-0.6383056640625,0.591552734375,-0.0670166015625
3.554,313,2504,923,338,-0.6724853515625,0.539794921875,-0.1180419921875
3.554,315,2599,947,338,-0.7235107421875,0.4532470703125,-0.177490234375
3.555,316,2937,980,336,-0.7562255859375,0.337158203125,-0.228759765625
3.555,316,3057,1005,338,-0.7706298828125,0.2401123046875,-0.2432861328125
3.555,315,3147,1031,345,-0.7830810546875,0.1971435546875,-0.217529296875
3.555,310,3147,1074,564,-0.79443359375,0.1844482421875,-0.18505859375
3.555,316,3147,1058,748,-0.8299560546875,0.1807861328125,-0.1787109375
3.555,316,3147,1098,1024,-0.8631591796875,0.2060546875,-0.1727294921875
3.555,317,3147,1131,1401,-0.79248046875,0.223876953125,-0.172119140625
3.555,318,3147,1204,1632,-0.65966796875,0.23583984375,-0.1361083984375
3.555,318,3147,1226,1820,-0.53515625,0.1949462890625,-0.040283203125
3.555,321,3147,1318,2174,-0.4381103515625,0.1322021484375,0.031982421875
3.555,326,3147,1365,2381,-0.39794921875,0.210693359375,0.0838623046875
3.555,328,3147,1472,2557,-0.4171142578125,0.35693359375,0.10791015625
3.555,334,3147,1600,2832,-0.515869140625,0.4163818359375,0.101806640625
3.555,344,3147,1703,2928,-0.6971435546875,0.38818359375,0.0980224609375
3.555,346,3147,1744,2988,-0.9644775390625,0.397705078125,0.04248046875
3.555,348,3147,1874,3072,-1.309814453125,0.4969482421875,-0.12890625
3.555,356,3147,1945,3112,-1.662841796875,0.595458984375,-0.3590087890625
3.555,354,3147,1968,3114,-1.926025390625,0.6385498046875,-0.49853515625
3.556,315,3147,1047,1428,-0.7015380859375,0.1951904296875,-0.0631103515625
3.556,346,3147,1484,2828,-1.87939453125,0.97802734375,-0.45263671875
3.556,344,3147,1345,2654,-1.87939453125,0.97802734375,-0.45263671875
3.556,337,3147,1231,2461,-1.7857666015625,0.431884765625,-0.403076171875
3.556,328,3147,1108,1957,-1.03857421875,0.31640625,-0.1661376953125
3.556,324,3147,1022,1704,-1.03857421875,0.31640625,-0.1661376953125
3.556,324,3147,1024,1334,-0.67431640625,0.342529296875,-0.0177001953125
3.556,321,3147,998,582,-0.447021484375,0.06689453125,0.080078125
3.556,318,2959,994,351,-0.447021484375,0.06689453125,0.080078125
3.556,315,2473,936,347,-0.52392578125,0.065673828125,0.0489501953125
3.556,315,1914,864,345,-0.6263427734375,0.1180419921875,-0.125244140625
3.556,316,1662,832,338,-0.6263427734375,0.1180419921875,-0.125244140625
3.556,315,1450,792,338,-0.651123046875,0.095458984375,-0.16796875
3.556,315,1206,714,330,-0.6019287109375,0.17578125,-0.16845703125
3.556,313,1185,725,334,-0.6019287109375,0.17578125,-0.16845703125
3.556,313,1112,721,334,-0.552978515625,0.328369140625,-0.1597900390625
3.556,311,1163,744,332,-0.5487060546875,0.4617919921875,-0.141357421875
3.556,313,1289,739,333,-0.5665283203125,0.51513671875,-0.10595703125
3.556,313,1447,784,333,-0.602294921875,0.4906005859375,-0.07958984375
3.556,314,1524,826,332,-0.6502685546875,0.4371337890625,-0.0810546875
3.556,314,1564,842,332,-0.693359375,0.3548583984375,-0.1043701171875
3.560,313,1775,846,334,-0.720947265625,0.239013671875,-0.143310546875
3.574,314,2263,883,344,-0.7276611328125,0.15966796875,-0.1876220703125
3.582,315,2525,958,328,-0.7440185546875,0.1689453125,-0.2188720703125
3.590,315,2703,998,338,-0.7852783203125,0.2125244140625,-0.232421875
3.644,315,3147,1009,400,-0.822998046875,0.232421875,-0.234130859375
3.644,316,3147,1042,707,-0.850830078125,0.2459716796875,-0.2255859375
3.645,316,3147,1042,969,-0.8681640625,0.2701416015625,-0.18798828125
3.645,316,3147,1054,1519,-0.80712890625,0.25048828125,-0.114501953125
3.645,318,3147,1094,1763,-0.693603515625,0.177001953125,-0.018798828125
3.650,322,3147,1201,1968,-0.562255859375,0.1002197265625,0.078369140625
3.664,332,3147,1428,2384,-0.3895263671875,0.0634765625,0.150390625
3.672,338,3147,1575,2544,-0.250732421875,0.1190185546875,0.2135009765625
3.680,346,3147,1704,2726,-0.22119140625,0.2822265625,0.2474365234375
3.694,354,3147,1811,2965,-0.3668212890625,0.511474609375,0.20263671875
3.702,360,3147,1891,3027,-0.74658203125,0.7154541015625,0.0780029296875
3.747,361,3147,1922,3040,-1.2818603515625,0.8291015625,-0.113037109375
3.747,368,3147,1983,3057,-1.816162109375,0.7655029296875,-0.3756103515625
3.748,369,3147,2053,3112,-2.245849609375,0.5498046875,-0.648681640625
3.748,364,3147,2008,3112,-2.449951171875,0.3875732421875,-0.77685546875
3.755,363,3147,1912,3061,-2.0938720703125,0.3037109375,-0.6505126953125
3.762,363,3147,1913,3080,-1.2373046875,0.373779296875,-0.2529296875
3.770,361,3147,1899,3071,-0.7271728515625,0.7515869140625,0.056640625
3.783,361,3147,1830,3018,-0.9559326171875,1.1378173828125,-0.033203125
3.792,360,3147,1772,2951,-1.4481201171875,1.0689697265625,-0.2322998046875
3.800,359,3147,1678,2848,-1.6947021484375,0.6021728515625,-0.24609375
3.818,348,3147,1397,2622,-1.6007080078125,0.275390625,-0.16015625
3.823,338,3147,1258,2489,-1.34228515625,0.328857421875,-0.1436767578125
3.850,334,3147,1160,2238,-1.056884765625,0.49658203125,-0.18115234375
3.850,318,3147,1070,1861,-0.818603515625,0.506103515625,-0.177490234375
3.852,328,3147,1000,1546,-0.6649169921875,0.349365234375,-0.10986328125
3.860,324,3147,963,1173,-0.6341552734375,0.203369140625,-0.0565185546875
3.875,322,3147,962,455,-0.6998291015625,0.1531982421875,-0.061767578125
3.882,317,2953,935,351,-0.759033203125,0.1141357421875,-0.0711669921875
3.890,317,2563,932,348,-0.7838134765625,0.0113525390625,-0.0794677734375
3.904,316,2024,898,344,-0.7978515625,-0.0872802734375,-0.101318359375
3.912,316,1748,859,344,-0.78369140625,-0.0638427734375,-0.115234375
3.922,316,1478,848,338,-0.7293701171875,0.0706787109375,-0.127685546875
3.962,318,1330,777,334,-0.6573486328125,0.2110595703125,-0.1463623046875
3.966,313,1231,753,322,-0.594970703125,0.3095703125,-0.14794921875
3.966,315,1160,792,332,-0.5684814453125,0.38623046875,-0.12646484375
3.966,308,1178,793,334,-0.566650390625,0.43505859375,-0.109619140625
3.973,313,1287,808,332,-0.5711669921875,0.427490234375,-0.1241455078125
3.980,313,1393,840,336,-0.5850830078125,0.3995361328125,-0.1622314453125
3.994,308,1579,841,336,-0.6234130859375,0.400634765625,-0.19677734375
4.002,315,1678,844,336,-0.689208984375,0.4002685546875,-0.204833984375
4.010,314,1801,828,334,-0.7286376953125,0.3388671875,-0.1947021484375
4.024,315,2230,887,342,-0.7158203125,0.2310791015625,-0.17626953125
4.032,315,2587,932,342,-0.689208984375,0.1595458984375,-0.1346435546875
4.065,315,2929,971,344,-0.6595458984375,0.139404296875,-0.10107421875
4.065,323,3147,1051,633,-0.6142578125,0.1490478515625,-0.0869140625
4.065,317,3147,1064,960,-0.58642578125,0.184814453125,-0.0819091796875
4.070,319,3147,1143,1276,-0.5926513671875,0.2508544921875,-0.067626953125
4.084,321,3147,1225,1894,-0.53173828125,0.294189453125,-0.05126953125
4.092,332,3147,1343,2118,-0.4249267578125,0.3038330078125,-0.0675048828125
4.100,336,3147,1488,2362,-0.3900146484375,0.3798828125,-0.064208984375
4.113,344,3147,1709,2635,-0.4366455078125,0.54296875,-0.03955078125
4.128,359,3147,1786,2727,-0.5965576171875,0.7381591796875,-0.0457763671875
4.131,355,3147,1880,2807,-0.9217529296875,0.8948974609375,-0.1256103515625
4.139,360,3147,1961,2859,-0.9217529296875,0.8948974609375,-0.1256103515625
4.186,371,3147,2074,2921,-1.8792724609375,0.8443603515625,-0.394287109375
4.188,364,3147,1996,2912,-2.2584228515625,0.5732421875,-0.4384765625
4.188,351,3147,2005,2973,-2.2584228515625,0.5732421875,-0.4384765625
4.188,364,3147,1985,2919,-1.5338134765625,-0.103759765625,-0.1116943359375
4.191,363,3147,1912,2869,-0.93603515625,0.1451416015625,0.0733642578125
4.199,363,3147,1908,2916,-0.93603515625,0.1451416015625,0.0733642578125
4.213,361,3147,1890,2876,-1.00439453125,1.3060302734375,-0.3699951171875
4.230,361,3147,1844,2801,-1.4061279296875,1.3382568359375,-0.53564453125
4.230,338,3147,1769,2672,-1.4061279296875,1.3382568359375,-0.53564453125
4.242,348,3147,1508,2421,-1.5184326171875,0.5089111328125,-0.4312744140625
4.269,346,3147,1357,2176,-1.2830810546875,0.3095703125,-0.2572021484375
4.270,338,3147,1213,1974,-1.2830810546875,0.3095703125,-0.2572021484375
4.273,328,3147,1025,1536,-0.7679443359375,0.3038330078125,-0.0491943359375
4.288,328,3147,944,1198,-0.64599609375,0.3427734375,-0.0386962890625
4.289,327,3147,887,764,-0.64599609375,0.3427734375,-0.0386962890625
4.304,323,3076,891,351,-0.657470703125,0.233154296875,-0.003662109375
4.311,319,2716,858,351,-0.6944580078125,0.1656494140625,-0.0478515625
4.319,318,2399,858,347,-0.6944580078125,0.1656494140625,-0.0478515625
4.333,317,1867,793,342,-0.716064453125,0.180419921875,-0.14990234375
4.341,315,1713,785,346,-0.716064453125,0.180419921875,-0.14990234375
4.368,315,1437,780,338,-0.72314453125,0.2318115234375,-0.153564453125
4.370,315,1160,689,336,-0.7252197265625,0.3834228515625,-0.1488037109375
4.371,316,1222,714,337,-0.7252197265625,0.3834228515625,-0.1488037109375
4.380,315,1251,707,334,-0.673095703125,0.424072265625,-0.1568603515625
4.399,315,1184,723,336,-0.642578125,0.440185546875,-0.173828125
4.402,315,1239,759,334,-0.6444091796875,0.3856201171875,-0.166259765625
4.410,314,1328,757,334,-0.6444091796875,0.3856201171875,-0.166259765625
4.424,313,1544,750,330,-0.661376953125,0.3223876953125,-0.12548828125
4.433,315,1582,754,338,-0.661376953125,0.3223876953125,-0.12548828125
4.440,315,1715,764,337,-0.668701171875,0.31494140625,-0.107421875
4.459,315,2188,767,338,-0.67431640625,0.2276611328125,-0.1204833984375
4.473,315,2359,802,342,-0.67431640625,0.2276611328125,-0.1204833984375
4.474,314,2538,826,338,-0.6883544921875,0.1968994140625,-0.1390380859375
4.485,316,3084,853,338,-0.7796630859375,0.25341796875,-0.1771240234375
4.492,315,3147,879,497,-0.7796630859375,0.25341796875,-0.1771240234375
4.500,316,3147,899,854,-0.8165283203125,0.2454833984375,-0.18603515625
4.514,310,3147,1063,1464,-0.6746826171875,0.186767578125,-0.046875
4.523,323,3147,1170,1715,-0.6746826171875,0.186767578125,-0.046875
4.537,327,3147,1241,2039,-0.4847412109375,0.1348876953125,0.068603515625
4.544,336,3147,1508,2414,-0.154052734375,0.2584228515625,0.1793212890625
4.566,346,3147,1662,2638,-0.154052734375,0.2584228515625,0.1793212890625
4.566,354,3147,1703,2807,-0.093017578125,0.539306640625,0.18896484375
4.579,361,3147,1800,2961,-0.732177734375,1.02197265625,-0.2672119140625
4.582,364,3147,1882,3020,-0.732177734375,1.02197265625,-0.2672119140625
4.590,365,3147,1943,3003,-1.364501953125,1.0706787109375,-0.5953369140625
4.604,369,3147,1826,2965,-2.654296875,0.81298828125,-0.7706298828125
4.612,370,3147,1854,2968,-2.654296875,0.81298828125,-0.7706298828125
4.626,364,3147,1864,2955,-2.5899658203125,0.1431884765625,-0.5357666015625
4.641,364,3147,1869,2973,-0.8427734375,-0.1622314453125,0.4906005859375
4.642,348,3147,1894,2997,-0.8427734375,-0.1622314453125,0.4906005859375
4.669,363,3147,1869,3012,-0.7919921875,0.923828125,0.2166748046875
4.670,361,3147,1770,2880,-1.2001953125,1.747802734375,-0.3856201171875
4.672,360,3147,1656,2726,-1.5772705078125,1.5989990234375,-0.6790771484375
4.684,359,3147,1524,2613,-1.594970703125,0.7689208984375,-0.561767578125
4.694,347,3147,1335,2255,-1.3916015625,0.171630859375,-0.3155517578125
4.702,344,3147,1206,2054,-1.12939453125,0.1173095703125,-0.2069091796875
4.710,338,3147,1134,1820,-0.881591796875,0.31396484375,-0.1549072265625
4.723,328,3147,1010,1415,-0.68896484375,0.4173583984375,-0.076904296875
4.745,324,3147,1000,1050,-0.591796875,0.332275390625,-0.04833984375
4.746,306,3147,1005,750,-0.5845947265625,0.2109375,-0.034912109375
4.763,324,3104,939,351,-0.6107177734375,0.177978515625,-0.0150146484375
4.774,318,2668,913,330,-0.6502685546875,0.198974609375,-0.058349609375
4.776,316,2486,905,347,-0.6845703125,0.2227783203125,-0.1280517578125
4.791,319,2225,833,345,-0.6929931640625,0.2386474609375,-0.15380859375
4.792,299,2074,773,344,-0.6856689453125,0.2470703125,-0.1468505859375
4.800,316,1807,785,346,-0.667724609375,0.2823486328125,-0.130615234375
4.813,315,1743,751,344,-0.64111328125,0.3377685546875,-0.1143798828125
4.822,316,1744,774,345,-0.6275634765625,0.380615234375,-0.1192626953125
4.829,316,1739,740,344,-0.6492919921875,0.4254150390625,-0.1544189453125
4.849,313,1796,774,342,-0.699951171875,0.4630126953125,-0.1927490234375
4.852,316,1941,787,342,-0.743408203125,0.445556640625,-0.200927734375
4.871,315,2087,778,342,-0.7537841796875,0.366943359375,-0.1744384765625
4.874,315,2273,793,338,-0.7509765625,0.2930908203125,-0.141357421875
4.882,316,2448,790,342,-0.750732421875,0.25732421875,-0.1270751953125
4.897,316,2607,794,344,-0.732421875,0.227294921875,-0.136962890625
4.904,316,2985,853,344,-0.715576171875,0.21533203125,-0.149658203125
4.912,316,3147,891,426,-0.718994140625,0.2357177734375,-0.1419677734375
4.920,316,3147,944,651,-0.7139892578125,0.264892578125,-0.1407470703125
4.933,317,3147,998,1070,-0.7213134765625,0.31591796875,-0.141357421875
4.947,316,3147,1012,1373,-0.7083740234375,0.353759765625,-0.1131591796875
4.950,318,3147,1081,1627,-0.6187744140625,0.3330078125,-0.0733642578125
4.981,323,3147,1170,2076,-0.5157470703125,0.283447265625,-0.03173828125
4.981,328,3147,1251,2316,-0.439208984375,0.2244873046875,0.01171875
4.981,330,3147,1470,2497,-0.3646240234375,0.18310546875,0.0562744140625
5.002,346,3147,1689,2807,-0.291748046875,0.2255859375,0.10888671875
5.004,354,3147,1750,2920,-0.304443359375,0.3819580078125,0.1328125
5.010,359,3147,1840,3040,-0.529052734375,0.6107177734375,0.005126953125
5.024,360,3147,1943,3147,-0.9439697265625,0.85107421875,-0.2635498046875
5.032,369,3147,1989,3128,-1.4234619140625,1.0482177734375,-0.48486328125
5.040,365,3147,2008,3147,-1.9609375,1.1019287109375,-0.6070556640625
5.054,364,3147,2010,3147,-2.4488525390625,0.8233642578125,-0.631103515625
5.081,365,3147,2010,3147,-2.3336181640625,0.1812744140625,-0.4078369140625
5.081,348,3147,1968,3147,-1.5245361328125,-0.24267578125,0.056396484375
5.087,363,3147,1973,3147,-0.8955078125,0.2034912109375,0.2720947265625
5.092,362,3147,1936,3147,-0.899658203125,1.135009765625,-0.0467529296875
5.101,361,3147,1892,3140,-1.308349609375,1.634765625,-0.470947265625
5.114,359,3147,1730,2973,-1.6771240234375,1.2960205078125,-0.5941162109375
5.122,354,3147,1579,2770,-1.69140625,0.579345703125,-0.434814453125
5.130,348,3147,1395,2568,-1.4635009765625,0.182861328125,-0.2501220703125
5.153,336,3147,1202,2162,-1.147705078125,0.2181396484375,-0.1839599609375
5.153,332,3147,1137,1927,-0.848388671875,0.385986328125,-0.131103515625
5.160,328,3147,1050,1636,-0.6136474609375,0.39208984375,-0.0435791015625
5.180,323,3147,1067,1131,-0.491943359375,0.2235107421875,0.0172119140625
5.189,324,3147,1051,742,-0.5120849609375,0.0740966796875,0.0484619140625
5.190,323,3147,1005,390,-0.5958251953125,0.0634765625,0.043212890625
5.204,315,2672,943,346,-0.6632080078125,0.1368408203125,-0.0364990234375
5.217,317,2410,878,347,-0.688720703125,0.215087890625,-0.1402587890625
5.220,324,2085,859,346,-0.6922607421875,0.261962890625,-0.1925048828125
5.234,313,1770,787,342,-0.6832275390625,0.2816162109375,-0.1959228515625
5.242,316,1666,772,342,-0.6474609375,0.301513671875,-0.175537109375
5.252,315,1545,767,343,-0.5970458984375,0.331787109375,-0.154296875
5.266,316,1500,764,336,-0.5855712890625,0.4012451171875,-0.15185546875
5.285,316,1527,790,338,-0.6180419921875,0.4805908203125,-0.1497802734375
5.285,299,1616,793,336,-0.655517578125,0.4835205078125,-0.1378173828125
5.300,314,1820,803,338,-0.692626953125,0.412353515625,-0.1209716796875
5.302,313,1895,801,344,-0.7237548828125,0.3232421875,-0.0994873046875
5.310,316,1961,826,338,-0.735595703125,0.2266845703125,-0.09130859375
5.324,315,2275,855,338,-0.733154296875,0.1318359375,-0.108642578125
5.332,315,2484,891,338,-0.7452392578125,0.095458984375,-0.1346435546875
5.340,316,2679,933,342,-0.7452392578125,0.095458984375,-0.1346435546875
5.357,314,3015,909,343,-0.85302734375,0.17333984375,-0.1849365234375
5.363,316,3147,917,402,-0.8857421875,0.1634521484375,-0.1966552734375
5.370,316,3147,939,656,-0.8857421875,0.1634521484375,-0.1966552734375
5.390,316,3147,1039,1125,-0.78125,0.2100830078125,-0.0706787109375
5.394,318,3147,1103,1415,-0.639404296875,0.312255859375,0.0054931640625
5.400,321,3147,1136,1669,-0.639404296875,0.312255859375,0.0054931640625
5.414,330,3147,1363,2053,-0.356689453125,0.395751953125,0.02294921875
5.423,334,3147,1504,2316,-0.2698974609375,0.341552734375,-0.0196533203125
5.433,344,3147,1629,2525,-0.2698974609375,0.341552734375,-0.0196533203125
5.444,356,3147,1850,2851,-0.260009765625,0.42626953125,0.0068359375
5.460,360,3147,1979,2984,-0.4849853515625,0.6641845703125,-0.0950927734375
5.462,364,3147,1954,3089,-0.4849853515625,0.6641845703125,-0.0950927734375
5.474,371,3147,2083,3147,-1.2611083984375,1.178955078125,-0.5279541015625
5.490,373,3147,2142,3101,-1.751708984375,1.3426513671875,-0.64892578125
5.491,373,3147,2076,3106,-1.751708984375,1.3426513671875,-0.64892578125
5.504,371,3147,2076,3147,-2.3380126953125,0.60205078125,-0.2294921875
5.512,372,3147,2035,3147,-1.8338623046875,-0.2197265625,0.0858154296875
5.525,372,3147,2021,3143,-1.8338623046875,-0.2197265625,0.0858154296875
5.536,369,3147,2012,3114,-0.9791259765625,0.6319580078125,-0.0531005859375
5.542,369,3147,1969,3057,-1.286865234375,1.5546875,-0.50927734375
5.550,364,3147,1864,2918,-1.286865234375,1.5546875,-0.50927734375
5.564,356,3147,1635,2645,-1.7613525390625,0.7877197265625,-0.552978515625
5.577,351,3147,1483,2472,-1.7613525390625,0.7877197265625,-0.552978515625
5.590,348,3147,1303,2230,-1.578369140625,0.1368408203125,-0.2418212890625
5.594,344,3147,1048,1766,-0.8929443359375,0.281494140625,-0.0357666015625
5.602,332,3147,1031,1397,-0.8929443359375,0.281494140625,-0.0357666015625
5.610,328,3147,996,1055,-0.5577392578125,0.4317626953125,0.0262451171875
5.624,326,3147,933,531,-0.4022216796875,0.23681640625,0.0382080078125
5.647,321,3076,907,352,-0.4022216796875,0.23681640625,0.0382080078125
5.648,321,2648,859,327,-0.537353515625,0.173583984375,-0.0067138671875
5.654,318,1954,811,348,-0.6915283203125,0.2249755859375,-0.2237548828125
5.664,317,1715,780,346,-0.6915283203125,0.2249755859375,-0.2237548828125
5.670,317,1608,787,346,-0.6610107421875,0.2335205078125,-0.2225341796875
5.694,315,1386,757,337,-0.679443359375,0.1610107421875,-0.1207275390625
5.694,318,1318,678,344,-0.679443359375,0.1610107421875,-0.1207275390625
5.701,315,1310,693,344,-0.64501953125,0.208984375,-0.139892578125
5.714,315,1370,695,337,-0.6851806640625,0.3375244140625,-0.172119140625
5.723,316,1440,705,344,-0.6851806640625,0.3375244140625,-0.172119140625
5.730,315,1483,738,344,-0.7049560546875,0.2894287109375,-0.11181640625
5.756,315,1613,766,336,-0.740966796875,0.2509765625,0.0091552734375
5.765,313,1703,785,342,-0.740966796875,0.2509765625,0.0091552734375
5.767,300,1770,808,342,-0.756103515625,0.2437744140625,0.01806640625
5.774,315,2039,874,344,-0.7314453125,0.141357421875,-0.0716552734375
5.782,315,2345,900,344,-0.7314453125,0.141357421875,-0.0716552734375
5.799,315,2598,936,347,-0.751953125,0.117431640625,-0.1429443359375
5.804,315,2959,947,347,-0.8111572265625,0.1409912109375,-0.2137451171875
5.812,313,3128,944,346,-0.864501953125,0.1905517578125,-0.25634765625
5.820,318,3147,962,437,-0.8687744140625,0.2275390625,-0.2568359375
5.834,318,3147,1012,931,-0.8238525390625,0.2574462890625,-0.19970703125
5.842,321,3147,1081,1211,-0.7322998046875,0.2747802734375,-0.128662109375
5.855,322,3147,1156,1439,-0.6131591796875,0.273681640625,-0.1019287109375
5.871,328,3147,1224,1925,-0.5087890625,0.2685546875,-0.085205078125
5.873,318,3147,1377,2167,-0.4447021484375,0.284423828125,-0.047119140625
5.898,336,3147,1506,2418,-0.415283203125,0.3360595703125,0.000244140625
5.899,348,3147,1757,2707,-0.4024658203125,0.4365234375,0.0618896484375
5.902,356,3147,1824,2847,-0.4805908203125,0.615966796875,0.1131591796875
5.910,360,3147,1892,2955,-0.7381591796875,0.8050537109375,0.053955078125
5.924,363,3147,1929,3028,-1.14794921875,0.9168701171875,-0.116455078125
5.932,370,3147,1987,3044,-1.5994873046875,0.8883056640625,-0.30419921875
5.940,371,3147,1960,3016,-2.02783203125,0.68505859375,-0.4580078125
5.976,364,3147,1907,2996,-2.35009765625,0.3426513671875,-0.5228271484375
5.976,362,3147,1877,2928,-2.123046875,-0.1396484375,-0.3880615234375
5.984,361,3147,1860,2870,-1.36376953125,-0.319091796875,-0.028076171875
5.998,360,3147,1812,2890,-0.85546875,0.1968994140625,0.1900634765625
5.999,359,3147,1801,2861,-0.9599609375,0.9508056640625,0.0233154296875
6.000,344,3147,1755,2795,-1.388427734375,1.2777099609375,-0.2530517578125
6.014,348,3147,1547,2519,-1.6307373046875,0.986083984375,-0.35986328125
6.023,346,3147,1404,2368,-1.5294189453125,0.5382080078125,-0.276611328125
6.030,344,3147,1276,2111,-1.265625,0.3359375,-0.1761474609375
6.044,332,3147,1129,1705,-0.9681396484375,0.3046875,-0.119384765625
6.052,328,3147,1104,1452,-0.7279052734375,0.26806640625,-0.0491943359375
6.075,327,3147,1070,1056,-0.6055908203125,0.18896484375,-0.0177001953125
6.075,322,3147,990,481,-0.61474609375,0.158935546875,-0.042724609375
6.101,323,3115,991,353,-0.683837890625,0.1954345703125,-0.0908203125
6.101,321,2827,933,347,-0.744384765625,0.2186279296875,-0.1773681640625
6.104,317,2312,895,345,-0.7823486328125,0.1912841796875,-0.242919921875
6.112,319,2014,858,348,-0.793212890625,0.131591796875,-0.2269287109375
6.120,316,1961,816,347,-0.7779541015625,0.0814208984375,-0.1668701171875
6.134,316,1568,767,344,-0.7432861328125,0.091552734375,-0.109619140625
6.142,316,1422,754,344,-0.6871337890625,0.168212890625,-0.0615234375
6.150,316,1426,723,334,-0.62646484375,0.2886962890625,-0.0157470703125
6.164,315,1531,721,344,-0.59228515625,0.41748046875,0.011962890625
6.187,315,1683,733,344,-0.5938720703125,0.50341796875,-0.000244140625
6.187,300,1852,757,342,-0.6263427734375,0.5340576171875,-0.0418701171875
6.207,317,2192,828,338,-0.672607421875,0.5050048828125,-0.0977783203125
6.207,315,2370,868,343,-0.717529296875,0.4267578125,-0.1531982421875
6.213,316,2507,898,346,-0.752685546875,0.3463134765625,-0.1915283203125
6.224,316,2867,918,344,-0.7701416015625,0.2845458984375,-0.205322265625
6.232,321,3056,920,346,-0.784912109375,0.23681640625,-0.2000732421875
6.240,317,3147,958,356,-0.8082275390625,0.191650390625,-0.1744384765625
6.254,316,3147,1045,780,-0.79931640625,0.146484375,-0.12890625
6.262,318,3147,1107,1055,-0.7449951171875,0.17529296875,-0.0516357421875
6.284,318,3147,1153,1317,-0.6488037109375,0.23828125,0.0321044921875
6.284,321,3147,1257,1808,-0.47998046875,0.23046875,0.0882568359375
6.306,330,3147,1386,2061,-0.2664794921875,0.197509765625,0.125244140625
6.306,328,3147,1533,2330,-0.0865478515625,0.2174072265625,0.099853515625
6.314,344,3147,1704,2713,-0.086181640625,0.4871826171875,0.0087890625
6.323,348,3147,1739,2848,-0.395263671875,0.973876953125,-0.197509765625
6.330,356,3147,1757,2978,-0.952880859375,1.3538818359375,-0.518798828125
6.345,361,3147,1824,2949,-1.601318359375,1.4595947265625,-0.7257080078125
6.352,360,3147,1861,2950,-2.2119140625,1.1737060546875,-0.66650390625
6.360,361,3147,1838,2937,-2.5701904296875,0.4278564453125,-0.448974609375
6.379,359,3147,1889,2854,-2.3385009765625,-0.579345703125,-0.12841796875
6.388,360,3147,1865,2760,-1.52001953125,-1.0557861328125,0.33544921875
6.390,359,3147,1846,2748,-0.814697265625,-0.4031982421875,0.6209716796875
6.409,354,3147,1826,2821,-0.7138671875,0.6864013671875,0.4193115234375
6.413,354,3147,1824,2803,-1.115234375,1.2410888671875,-0.0333251953125
6.427,352,3147,1773,2750,-1.59130859375,1.0196533203125,-0.418212890625
6.434,345,3147,1572,2541,-1.7073974609375,0.5308837890625,-0.5716552734375
6.442,344,3147,1447,2317,-1.4920654296875,0.2926025390625,-0.4876708984375
6.450,336,3147,1330,2074,-1.15576171875,0.2720947265625,-0.31591796875
6.464,330,3147,1156,1681,-0.8468017578125,0.335693359375,-0.1383056640625
6.474,327,3147,1159,1379,-0.6494140625,0.384033203125,-0.0084228515625
6.482,324,3147,1100,1083,-0.6494140625,0.384033203125,-0.0084228515625
6.509,323,3147,1014,568,-0.6649169921875,0.2996826171875,0.0892333984375
6.509,305,3147,998,348,-0.7435302734375,0.203369140625,0.08349609375
6.510,304,2825,962,331,-0.7435302734375,0.203369140625,0.08349609375
6.524,317,2567,899,347,-0.83203125,0.031494140625,-0.0635986328125
6.539,316,2142,853,347,-0.8115234375,0.015625,-0.0960693359375
6.540,318,2072,841,351,-0.8115234375,0.015625,-0.0960693359375
6.554,310,1912,794,344,-0.67919921875,0.0877685546875,-0.1041259765625
6.562,317,1855,790,346,-0.6397705078125,0.22412109375,-0.0816650390625
6.570,318,1769,775,346,-0.6397705078125,0.22412109375,-0.0816650390625
6.584,315,1874,800,338,-0.6226806640625,0.5482177734375,-0.0985107421875
6.592,316,1959,777,344,-0.6546630859375,0.6175537109375,-0.1185302734375
6.603,316,2041,793,345,-0.6546630859375,0.6175537109375,-0.1185302734375
6.617,315,2316,820,342,-0.712890625,0.5023193359375,-0.1768798828125
6.624,315,2379,884,344,-0.7255859375,0.400390625,-0.20166015625
6.630,316,2435,912,344,-0.7255859375,0.400390625,-0.20166015625
6.644,316,2754,959,344,-0.7420654296875,0.2286376953125,-0.2169189453125
6.652,316,2988,998,346,-0.755615234375,0.1187744140625,-0.15771484375
6.660,316,3128,1021,346,-0.755615234375,0.1187744140625,-0.15771484375
6.674,313,3147,998,509,-0.8544921875,0.13525390625,-0.0823974609375
6.687,317,3147,1004,684,-0.8853759765625,0.2352294921875,-0.115478515625
6.690,316,3147,1014,885,-0.8853759765625,0.2352294921875,-0.115478515625
6.715,317,3147,1017,1185,-0.8563232421875,0.17724609375,-0.09716796875
6.715,317,3147,1071,1419,-0.8563232421875,0.17724609375,-0.09716796875
6.726,322,3147,1100,1686,-0.7593994140625,0.0968017578125,-0.0406494140625
6.734,324,3147,1183,2100,-0.5169677734375,0.2249755859375,0.083251953125
6.742,327,3147,1319,2328,-0.5169677734375,0.2249755859375,0.083251953125
6.750,330,3147,1483,2504,-0.350830078125,0.37548828125,0.111083984375
6.765,344,3147,1656,2832,-0.1514892578125,0.6668701171875,0.12353515625
6.772,348,3147,1739,2981,-0.1514892578125,0.6668701171875,0.12353515625
6.780,354,3147,1835,3099,-0.3575439453125,0.8411865234375,0.00439453125
6.794,360,3147,1921,3147,-1.1456298828125,1.0423583984375,-0.52685546875
6.803,364,3147,1973,3147,-1.1456298828125,1.0423583984375,-0.52685546875
6.828,369,3147,2058,3147,-1.5111083984375,1.0626220703125,-0.669189453125
6.828,369,3147,1954,3112,-2.2689208984375,0.748046875,-0.597412109375
6.832,369,3147,1974,3143,-2.2689208984375,0.748046875,-0.597412109375
6.840,365,3147,1955,3147,-2.07275390625,0.0467529296875,-0.2479248046875
6.854,364,3147,1973,3147,-0.9337158203125,0.2010498046875,0.2630615234375
6.862,364,3147,1973,3147,-0.9337158203125,0.2010498046875,0.2630615234375
6.877,363,3147,1922,3121,-1.040771484375,1.2105712890625,-0.1844482421875
6.892,359,3147,1806,2955,-1.5855712890625,1.1588134765625,-0.56884765625
6.892,355,3147,1665,2733,-1.5855712890625,1.1588134765625,-0.56884765625
6.900,348,3147,1557,2569,-1.5269775390625,0.3958740234375,-0.30810546875
6.925,338,3147,1268,2195,-1.310791015625,0.1307373046875,-0.113525390625
6.926,332,3147,1189,1983,-1.04150390625,0.3177490234375,-0.076904296875
6.930,328,3147,1098,1757,-0.794921875,0.4976806640625,-0.0665283203125
6.944,323,3147,1034,1188,-0.629638671875,0.4686279296875,-0.046142578125
6.952,321,3147,949,858,-0.5919189453125,0.3072509765625,-0.049072265625
6.960,321,3147,959,500,-0.647216796875,0.143310546875,-0.037109375
6.974,317,2683,951,344,-0.704345703125,0.070068359375,-0.0528564453125
6.982,316,2295,855,347,-0.7298583984375,0.090087890625,-0.136474609375
6.998,318,1855,780,344,-0.7310791015625,0.1885986328125,-0.1922607421875
7.027,315,1401,711,338,-0.72265625,0.284423828125,-0.1795654296875
7.027,316,1129,674,338,-0.722412109375,0.3033447265625,-0.14990234375
7.028,314,1051,594,338,-0.707275390625,0.28955078125,-0.128662109375
7.034,316,871,568,334,-0.6572265625,0.3111572265625,-0.1190185546875
7.042,315,806,614,337,-0.6151123046875,0.369140625,-0.12109375
7.050,315,853,590,334,-0.61669921875,0.4061279296875,-0.1171875
7.064,313,934,604,332,-0.6260986328125,0.3935546875,-0.0927734375
7.072,315,927,614,333,-0.6317138671875,0.3651123046875,-0.0556640625
7.080,315,929,674,334,-0.658447265625,0.3388671875,-0.025146484375
7.102,315,1143,723,334,-0.6905517578125,0.271240234375,-0.0321044921875
7.103,315,1292,721,336,-0.7135009765625,0.163330078125,-0.0709228515625
7.115,315,1401,786,338,-0.732421875,0.0926513671875,-0.1041259765625
7.136,315,1908,814,336,-0.7618408203125,0.1051025390625,-0.117919921875
7.136,315,2047,858,338,-0.790771484375,0.1771240234375,-0.135009765625
7.140,314,2254,907,338,-0.813720703125,0.2493896484375,-0.1715087890625
7.155,316,2613,885,344,-0.8441162109375,0.2767333984375,-0.197509765625
7.162,315,2916,899,346,-0.8543701171875,0.247802734375,-0.200439453125
7.170,316,3147,966,361,-0.8365478515625,0.20849609375,-0.1807861328125
7.185,321,3147,1055,894,-0.79052734375,0.2109375,-0.1185302734375
7.200,319,3147,1148,1129,-0.693115234375,0.239013671875,-0.033447265625
7.201,323,3147,1220,1348,-0.58837890625,0.2960205078125,0.037353515625
7.229,331,3147,1433,1753,-0.49658203125,0.3331298828125,0.0660400390625
7.229,334,3147,1588,2035,-0.3553466796875,0.3165283203125,0.070556640625
7.230,338,3147,1695,2231,-0.2371826171875,0.3621826171875,0.074951171875
7.246,354,3147,1850,2504,-0.3062744140625,0.5435791015625,-0.00390625
7.252,359,3147,1922,2633,-0.6180419921875,0.8399658203125,-0.212158203125
7.260,361,3147,1966,2703,-1.0511474609375,1.1070556640625,-0.4090576171875
7.274,371,3147,2087,2757,-1.4931640625,1.208740234375,-0.4254150390625
7.282,369,3147,2104,2820,-1.9324951171875,1.1026611328125,-0.3092041015625
7.290,371,3147,2018,2810,-2.27099609375,0.7421875,-0.2391357421875
7.304,364,3147,1927,2722,-2.256103515625,0.2098388671875,-0.2532958984375
7.312,363,3147,1912,2569,-1.664794921875,-0.200927734375,-0.1776123046875
7.349,361,3147,1934,2587,-1.0089111328125,-0.030029296875,0.00390625
7.349,360,3147,1891,2521,-0.8665771484375,0.5570068359375,0.022705078125
7.349,360,3147,1861,2435,-1.1865234375,0.9088134765625,-0.09765625
7.350,338,3147,1815,2323,-1.5867919921875,0.7330322265625,-0.1400146484375
7.364,351,3147,1712,2165,-1.66650390625,0.32861328125,-0.0869140625
7.372,347,3147,1572,1985,-1.461669921875,0.192138671875,-0.064208984375
7.380,344,3147,1377,1757,-1.1544189453125,0.3226318359375,-0.126953125
7.394,331,3147,1173,1318,-0.864013671875,0.4703369140625,-0.151123046875
7.407,328,3147,1148,963,-0.643310546875,0.4840087890625,-0.1199951171875
7.411,323,3147,1083,614,-0.551025390625,0.4249267578125,-0.10693359375
7.443,317,3047,1045,352,-0.614990234375,0.35595703125,-0.0902099609375
7.443,304,2622,1000,346,-0.7587890625,0.2598876953125,-0.078857421875
7.443,321,2131,939,348,-0.8804931640625,0.1353759765625,-0.1331787109375
7.454,318,1529,871,346,-0.9144287109375,0.0040283203125,-0.1956787109375
7.462,316,1424,834,342,-0.8751220703125,-0.073486328125,-0.1844482421875
7.471,316,1294,801,342,-0.79443359375,-0.0999755859375,-0.12109375
7.484,316,1318,706,338,-0.69189453125,-0.052490234375,-0.0491943359375
7.492,315,1243,631,342,-0.598876953125,0.1099853515625,0.0157470703125
7.506,316,1163,631,334,-0.5548095703125,0.323974609375,0.0545654296875
7.514,315,1217,698,336,-0.569580078125,0.5008544921875,0.06103515625
7.533,314,1340,710,338,-0.615478515625,0.59423828125,0.04052734375
7.534,315,1422,711,319,-0.661865234375,0.59521484375,-0.0048828125
7.544,315,1627,781,336,-0.69189453125,0.501220703125,-0.0660400390625
7.561,315,1772,808,338,-0.6983642578125,0.3505859375,-0.1292724609375
7.561,316,1855,859,342,-0.705810546875,0.248046875,-0.1856689453125
7.574,316,2257,907,336,-0.728515625,0.224365234375,-0.2281494140625
7.582,316,2503,974,342,-0.755615234375,0.227783203125,-0.2493896484375
7.590,316,2673,999,346,-0.78564453125,0.2281494140625,-0.2440185546875
7.609,315,3045,1004,346,-0.8228759765625,0.2171630859375,-0.2169189453125
7.612,300,3147,1012,347,-0.843994140625,0.1771240234375,-0.1865234375
7.640,323,3147,1014,548,-0.843994140625,0.1771240234375,-0.1865234375
7.640,305,3147,1022,996,-0.8641357421875,0.1666259765625,-0.081298828125
7.642,318,3147,1098,1279,-0.8018798828125,0.176025390625,-0.015869140625
7.650,321,3147,1129,1467,-0.8018798828125,0.176025390625,-0.015869140625
7.671,327,3147,1341,1914,-0.635498046875,0.2908935546875,0.0267333984375
7.672,330,3147,1474,2093,-0.5078125,0.3343505859375,0.0335693359375
7.680,334,3147,1557,2281,-0.5078125,0.3343505859375,0.0335693359375
7.694,344,3147,1739,2580,-0.3385009765625,0.47705078125,0.1014404296875
7.702,351,3147,1820,2738,-0.493896484375,0.695556640625,0.0145263671875
7.710,354,3147,1899,2837,-0.493896484375,0.695556640625,0.0145263671875
7.739,360,3147,1974,2919,-1.2366943359375,1.04638671875,-0.404541015625
7.739,364,3147,2060,2938,-1.575927734375,1.01416015625,-0.4671630859375
7.740,363,3147,2035,2955,-1.575927734375,1.01416015625,-0.4671630859375
7.756,371,3147,1912,2904,-2.155517578125,0.4493408203125,-0.393798828125
7.762,361,3147,1890,2887,-1.895263671875,-0.094970703125,-0.28369140625
7.779,360,3147,1867,2847,-1.895263671875,-0.094970703125,-0.28369140625
7.784,359,3147,1882,2825,-0.9110107421875,0.200927734375,0.14599609375
7.792,359,3147,1861,2821,-1.0364990234375,0.8380126953125,-0.0557861328125
7.800,356,3147,1813,2741,-1.0364990234375,0.8380126953125,-0.0557861328125
7.814,352,3147,1681,2552,-1.6234130859375,0.778076171875,-0.34814453125
7.822,348,3147,1569,2404,-1.5008544921875,0.41552734375,-0.218994140625
7.841,344,3147,1413,2190,-1.5008544921875,0.41552734375,-0.218994140625
7.844,334,3147,1201,1796,-0.9111328125,0.428955078125,-0.0560302734375
7.852,324,3147,1129,1561,-0.9111328125,0.428955078125,-0.0560302734375
7.860,325,3147,1066,1358,-0.665283203125,0.42138671875,-0.0069580078125
7.881,321,3147,1001,932,-0.6107177734375,0.2388916015625,0.005126953125
7.882,318,3147,986,631,-0.6107177734375,0.2388916015625,0.005126953125
7.891,321,3147,958,348,-0.762939453125,0.212890625,-0.0556640625
7.904,316,2824,887,348,-0.9141845703125,0.1746826171875,-0.27392578125
7.917,318,2510,864,347,-0.9141845703125,0.1746826171875,-0.27392578125
7.920,321,2160,846,346,-0.86865234375,0.099609375,-0.2645263671875
7.938,315,1748,759,338,-0.7763671875,0.03955078125,-0.0947265625
7.946,317,1592,721,344,-0.7763671875,0.03955078125,-0.0947265625
7.957,316,1613,691,336,-0.724853515625,0.1121826171875,-0.019287109375
7.964,315,1456,673,334,-0.637939453125,0.4085693359375,0.021484375
7.972,316,1492,697,338,-0.637939453125,0.4085693359375,0.021484375
7.990,316,1501,689,338,-0.6484375,0.5377197265625,-0.017333984375
7.994,315,1713,741,338,-0.6712646484375,0.5269775390625,-0.111083984375
8.004,315,1852,782,338,-0.6712646484375,0.5269775390625,-0.111083984375
8.017,316,2079,859,344,-0.6710205078125,0.446044921875,-0.1484375
8.024,316,2281,890,338,-0.71826171875,0.3740234375,-0.2083740234375
8.038,316,2414,920,343,-0.71826171875,0.3740234375,-0.2083740234375
8.050,315,2581,992,346,-0.74658203125,0.336181640625,-0.2193603515625
8.056,315,2771,1078,345,-0.76611328125,0.272216796875,-0.2001953125
8.062,316,3066,1095,346,-0.7850341796875,0.2061767578125,-0.1632080078125
8.070,318,3147,1095,345,-0.804443359375,0.1429443359375,-0.143310546875
8.084,315,3147,1085,673,-0.814697265625,0.1016845703125,-0.161376953125
8.092,318,3147,1042,871,-0.828369140625,0.128662109375,-0.1817626953125
8.100,316,3147,1095,1129,-0.8397216796875,0.2174072265625,-0.1632080078125
8.124,321,3147,1120,1569,-0.786376953125,0.295654296875,-0.1336669921875
8.125,323,3147,1178,1794,-0.6922607421875,0.337890625,-0.1068115234375
8.145,328,3147,1242,2030,-0.6270751953125,0.3651123046875,-0.080810546875
8.146,333,3147,1434,2379,-0.5494384765625,0.38232421875,-0.0560302734375
8.152,334,3147,1577,2543,-0.49072265625,0.428466796875,0.0052490234375
8.160,344,3147,1669,2722,-0.5587158203125,0.5311279296875,0.0738525390625
8.174,351,3147,1795,2887,-0.7327880859375,0.6256103515625,0.071044921875
8.182,354,3147,1834,2968,-0.954833984375,0.6490478515625,0.001708984375
8.198,359,3147,1874,2981,-1.2071533203125,0.6431884765625,-0.08251953125
8.204,361,3147,1931,2965,-1.4490966796875,0.6475830078125,-0.1619873046875
8.212,364,3147,1920,2964,-1.6434326171875,0.5963134765625,-0.23828125
8.229,361,3147,1840,2905,-1.7978515625,0.4735107421875,-0.3154296875
8.249,355,3147,1769,2695,-1.7230224609375,0.28515625,-0.3642578125
8.249,354,3147,1715,2514,-1.3194580078125,0.1656494140625,-0.2724609375
8.251,344,3147,1691,2492,-0.9810791015625,0.3424072265625,-0.0899658203125
8.264,347,3147,1683,2527,-0.90771484375,0.614990234375,-0.010498046875
8.273,347,3147,1664,2461,-1.0994873046875,0.7568359375,-0.0120849609375
8.280,346,3147,1569,2392,-1.4462890625,0.7376708984375,-0.067626953125
8.294,343,3147,1366,2191,-1.576171875,0.592529296875,-0.17333984375
8.304,332,3147,1236,1985,-1.419677734375,0.5260009765625,-0.237548828125
8.311,327,3147,1138,1756,-1.14013671875,0.5477294921875,-0.2305908203125
8.326,323,3147,946,1319,-0.8575439453125,0.5152587890625,-0.1639404296875
8.332,322,3147,907,980,-0.6751708984375,0.3883056640625,-0.07763671875
8.354,321,3147,879,714,-0.638427734375,0.231689453125,0.0001220703125
8.354,318,3039,843,348,-0.6990966796875,0.1650390625,0.0396728515625
8.363,316,2765,805,346,-0.782958984375,0.1861572265625,-0.0264892578125
8.370,317,2375,816,348,-0.8505859375,0.218505859375,-0.137939453125
8.384,316,2054,764,343,-0.8785400390625,0.1915283203125,-0.1968994140625
8.392,316,1808,738,344,-0.861328125,0.093017578125,-0.1925048828125
8.400,313,1521,698,337,-0.8179931640625,0.0509033203125,-0.135498046875
8.414,313,1254,630,338,-0.7623291015625,0.14453125,-0.072998046875
8.427,316,1224,582,345,-0.6849365234375,0.311279296875,-0.043212890625
8.430,314,1131,559,334,-0.607421875,0.4599609375,-0.046142578125
8.458,310,1038,588,334,-0.57666015625,0.5531005859375,-0.0555419921875
8.466,314,1151,561,336,-0.5814208984375,0.5816650390625,-0.0592041015625
8.466,315,1302,572,330,-0.5965576171875,0.562744140625,-0.068359375
8.474,310,1442,632,336,-0.6138916015625,0.4991455078125,-0.0948486328125
8.482,315,1610,710,343,-0.638427734375,0.402587890625,-0.1402587890625
8.490,315,1773,739,334,-0.680908203125,0.3231201171875,-0.189453125
8.504,316,2160,772,332,-0.7197265625,0.2666015625,-0.2249755859375
8.518,316,2330,806,345,-0.745361328125,0.229736328125,-0.226318359375
8.520,315,2527,859,342,-0.7650146484375,0.21923828125,-0.1966552734375
8.534,310,2797,890,344,-0.782958984375,0.238037109375,-0.170166015625
8.555,315,3106,871,346,-0.7857666015625,0.2537841796875,-0.1585693359375
8.555,300,3147,887,548,-0.7667236328125,0.2503662109375,-0.154296875
8.568,315,3147,986,1058,-0.7523193359375,0.2691650390625,-0.11328125
8.572,318,3147,1071,1310,-0.681640625,0.27734375,-0.0767822265625
8.581,323,3147,1184,1662,-0.541259765625,0.2772216796875,-0.08056640625
8.594,328,3147,1399,2105,-0.45263671875,0.3013916015625,-0.075927734375
8.602,334,3147,1478,2359,-0.4190673828125,0.3104248046875,-0.0421142578125
8.610,342,3147,1596,2587,-0.4508056640625,0.3900146484375,0.0726318359375
8.636,351,3147,1721,2799,-0.622802734375,0.5584716796875,0.1705322265625
8.636,348,3147,1732,2851,-0.8896484375,0.685791015625,0.095458984375
8.640,359,3147,1837,2912,-1.1903076171875,0.7977294921875,-0.1004638671875
8.682,360,3147,1819,2922,-1.4815673828125,0.89892578125,-0.289794921875
8.682,363,3147,1803,2898,-1.7294921875,0.8946533203125,-0.3988037109375
8.682,356,3147,1757,2823,-1.91943359375,0.75341796875,-0.4078369140625
8.685,360,3147,1691,2818,-1.860107421875,0.422607421875,-0.338134765625
8.693,354,3147,1691,2722,-1.426513671875,0.086181640625,-0.1451416015625
8.700,348,3147,1747,2750,-1.027099609375,0.1365966796875,0.0679931640625
8.714,351,3147,1769,2770,-1.0062255859375,0.5555419921875,0.043701171875
8.722,347,3147,1711,2748,-1.30224609375,0.968505859375,-0.18994140625
8.739,347,3147,1640,2633,-1.571533203125,1.0120849609375,-0.404052734375
8.752,336,3147,1387,2386,-1.542236328125,0.7503662109375,-0.4210205078125
8.763,332,3147,1184,2213,-1.32421875,0.535888671875,-0.2835693359375
8.764,313,3147,1054,1985,-1.32421875,0.535888671875,-0.2835693359375
8.774,324,3147,934,1628,-0.7777099609375,0.422607421875,0.01318359375
8.782,321,3147,865,1312,-0.6148681640625,0.327392578125,0.0989990234375
8.792,321,3147,816,1065,-0.6148681640625,0.327392578125,0.0989990234375
8.804,318,3147,808,495,-0.7166748046875,0.171142578125,-0.008056640625
8.812,318,3070,808,347,-0.7818603515625,0.1483154296875,-0.12646484375
8.820,317,2749,828,344,-0.7818603515625,0.1483154296875,-0.12646484375
8.844,313,2161,748,346,-0.78173828125,0.09375,-0.2281494140625
8.845,300,1747,707,336,-0.77734375,0.111083984375,-0.1773681640625
8.864,315,1535,738,342,-0.77734375,0.111083984375,-0.1773681640625
8.864,315,1345,671,332,-0.6875,0.2581787109375,-0.0552978515625
8.872,316,1346,673,342,-0.5858154296875,0.35888671875,-0.01904296875
8.880,316,1318,644,336,-0.5858154296875,0.35888671875,-0.01904296875
8.894,313,1372,614,338,-0.6083984375,0.653564453125,-0.04443359375
8.906,315,1387,705,338,-0.6392822265625,0.660888671875,-0.076416015625
8.911,314,1506,720,337,-0.6392822265625,0.660888671875,-0.076416015625
8.924,315,1677,763,334,-0.6888427734375,0.4166259765625,-0.1741943359375
8.969,313,1853,754,342,-0.7142333984375,0.3363037109375,-0.231689453125
8.969,314,1900,748,319,-0.7142333984375,0.3363037109375,-0.231689453125
8.969,314,2167,829,338,-0.718017578125,0.1942138671875,-0.25830078125
8.969,315,2330,853,342,-0.720947265625,0.171142578125,-0.193115234375
8.970,314,2432,844,351,-0.720947265625,0.171142578125,-0.193115234375
8.984,315,2879,913,345,-0.7928466796875,0.320556640625,-0.12890625
8.992,315,3063,922,347,-0.7928466796875,0.320556640625,-0.12890625
9.000,316,3147,923,482,-0.793701171875,0.3323974609375,-0.1541748046875
9.018,310,3147,867,948,-0.77587890625,0.2620849609375,-0.203369140625
9.022,308,3147,900,1178,-0.77587890625,0.2620849609375,-0.203369140625
9.030,316,3147,974,1445,-0.7740478515625,0.3031005859375,-0.176025390625
9.050,321,3147,1155,1798,-0.4849853515625,0.2410888671875,-0.0701904296875
9.057,325,3147,1272,2091,-0.4849853515625,0.2410888671875,-0.0701904296875
9.070,329,3147,1387,2325,-0.4376220703125,0.227294921875,0.0096435546875
9.074,342,3147,1616,2627,-0.4583740234375,0.5130615234375,0.124267578125
9.083,348,3147,1727,2746,-0.4583740234375,0.5130615234375,0.124267578125
9.090,355,3147,1792,2827,-0.651123046875,0.728759765625,0.1094970703125
9.104,359,3147,1878,2882,-1.3641357421875,0.9000244140625,-0.0869140625
9.112,362,3147,1894,2875,-1.3641357421875,0.9000244140625,-0.0869140625
9.122,364,3147,1943,2884,-1.6785888671875,0.8250732421875,-0.212646484375
9.134,361,3147,1864,2766,-2.0152587890625,0.46044921875,-0.4705810546875
9.144,359,3147,1834,2713,-2.0152587890625,0.46044921875,-0.4705810546875
9.169,357,3147,1815,2635,-1.665771484375,0.195556640625,-0.4351806640625
9.170,351,3147,1734,2569,-0.903076171875,0.4742431640625,-0.05224609375
9.178,352,3147,1786,2621,-0.903076171875,0.4742431640625,-0.05224609375
9.183,349,3147,1774,2591,-0.9876708984375,0.7384033203125,-0.0762939453125
9.196,346,3147,1650,2469,-1.3201904296875,0.8538818359375,-0.137451171875
9.202,344,3147,1519,2345,-1.608642578125,0.774169921875,-0.2325439453125
9.229,338,3147,1373,2202,-1.5709228515625,0.584228515625,-0.2724609375
9.234,332,3147,1069,1855,-1.339111328125,0.47412109375,-0.2169189453125
9.234,326,3147,963,1700,-1.0538330078125,0.4500732421875,-0.140869140625
9.267,324,3147,868,1447,-0.78955078125,0.448486328125,-0.05126953125
9.267,319,3147,816,971,-0.5889892578125,0.4112548828125,0.0185546875
9.284,319,3147,811,667,-0.5299072265625,0.3238525390625,0.028564453125
9.286,318,3147,780,402,-0.61376953125,0.23486328125,0.019287109375
9.286,318,2787,781,348,-0.7225341796875,0.190673828125,-0.029296875
9.292,316,2442,818,346,-0.80126953125,0.175048828125,-0.1385498046875
9.300,318,2188,816,338,-0.83544921875,0.156494140625,-0.2115478515625
9.314,315,1592,754,338,-0.8280029296875,0.134033203125,-0.2060546875
9.322,315,1623,772,338,-0.810302734375,0.142333984375,-0.1627197265625
9.330,313,1523,748,332,-0.7706298828125,0.193603515625,-0.113525390625
9.356,315,1357,678,336,-0.689697265625,0.2757568359375,-0.0748291015625
9.356,315,1303,687,337,-0.6202392578125,0.3905029296875,-0.0526123046875
9.376,314,1342,598,334,-0.615478515625,0.521728515625,-0.0489501953125
9.376,314,1372,687,336,-0.64306640625,0.6002197265625,-0.0650634765625
9.385,306,1428,684,336,-0.6658935546875,0.5704345703125,-0.0916748046875
9.390,315,1506,746,336,-0.6915283203125,0.457763671875,-0.12109375
9.404,315,1604,819,334,-0.722900390625,0.341552734375,-0.156982421875
9.412,315,1652,826,336,-0.7491455078125,0.2611083984375,-0.211181640625
9.420,313,1860,832,336,-0.7550048828125,0.19384765625,-0.2626953125
9.434,315,2166,869,334,-0.7491455078125,0.1480712890625,-0.263427734375
9.442,316,2217,853,337,-0.7620849609375,0.1649169921875,-0.216064453125
9.453,314,2362,907,343,-0.78759765625,0.21728515625,-0.17333984375
9.483,314,2874,917,338,-0.8087158203125,0.2532958984375,-0.1588134765625
9.483,310,3147,906,346,-0.8062744140625,0.2520751953125,-0.1617431640625
9.484,316,3147,933,521,-0.7691650390625,0.248291015625,-0.190185546875
9.495,316,3147,939,879,-0.7574462890625,0.32763671875,-0.1983642578125
9.503,317,3147,1029,1143,-0.72607421875,0.3966064453125,-0.1895751953125
9.510,321,3147,1132,1412,-0.6064453125,0.3551025390625,-0.201416015625
9.524,327,3147,1416,1840,-0.51513671875,0.3212890625,-0.2052001953125
9.532,334,3147,1580,2018,-0.470947265625,0.377685546875,-0.182373046875
9.540,342,3147,1741,2263,-0.4110107421875,0.5010986328125,-0.0872802734375
9.554,356,3147,1854,2534,-0.4462890625,0.6612548828125,0.052734375
9.588,359,3147,1922,2622,-0.6412353515625,0.77734375,0.107177734375
9.593,361,3147,1969,2722,-0.9527587890625,0.8038330078125,0.0223388671875
9.593,371,3147,2035,2760,-1.3836669921875,0.791748046875,-0.1375732421875
9.594,370,3147,2018,2777,-1.858642578125,0.7357177734375,-0.304443359375
9.601,364,3147,1874,2630,-2.20361328125,0.6248779296875,-0.4051513671875
9.614,361,3147,1862,2516,-2.061279296875,0.3607177734375,-0.3343505859375
9.622,361,3147,1864,2472,-1.3607177734375,0.0294189453125,-0.0286865234375
9.630,359,3147,1835,2394,-0.8095703125,0.0531005859375,0.2862548828125
9.644,351,3147,1705,2203,-0.7628173828125,0.3876953125,0.251220703125
9.656,348,3147,1704,2240,-0.8916015625,0.6297607421875,-0.0145263671875
9.660,347,3147,1686,2268,-1.0234375,0.6591796875,-0.1904296875
9.698,346,3147,1548,2172,-1.24658203125,0.6231689453125,-0.2696533203125
9.698,343,3147,1455,2035,-1.52734375,0.6304931640625,-0.389404296875
9.699,334,3147,1313,1826,-1.6168212890625,0.601806640625,-0.484130859375
9.706,330,3147,1125,1400,-1.4375,0.4814453125,-0.37451171875
9.714,327,3147,982,1001,-1.104248046875,0.3245849609375,-0.141845703125
9.720,323,3147,922,574,-0.794677734375,0.2720947265625,0.032470703125
9.734,318,3147,864,348,-0.6260986328125,0.343017578125,0.1143798828125
9.744,316,2954,830,348,-0.5703125,0.403076171875,0.13134765625
9.750,316,2668,813,348,-0.5897216796875,0.386962890625,0.06591796875
9.764,316,2337,800,346,-0.677490234375,0.3201904296875,-0.07470703125
9.808,316,2105,772,346,-0.795166015625,0.2657470703125,-0.1976318359375
9.808,313,1821,764,321,-0.8896484375,0.2071533203125,-0.268310546875
9.808,313,1373,708,322,-0.9185791015625,0.1064453125,-0.2972412109375
9.808,317,1258,698,338,-0.875732421875,0.0308837890625,-0.256591796875
9.811,310,1189,707,338,-0.7960205078125,0.05859375,-0.176513671875
9.824,313,1043,673,337,-0.71728515625,0.19873046875,-0.1171875
9.834,309,1058,606,334,-0.655517578125,0.3846435546875,-0.081298828125
9.840,310,1018,551,336,-0.61669921875,0.53271484375,-0.070068359375
9.862,310,1026,564,333,-0.6114501953125,0.596923828125,-0.070556640625
9.864,310,1078,600,333,-0.6278076171875,0.589111328125,-0.0587158203125
9.870,310,1224,654,336,-0.6278076171875,0.589111328125,-0.0587158203125
9.894,312,1335,695,334,-0.6507568359375,0.476318359375,-0.1282958984375
9.902,313,1383,748,346,-0.684326171875,0.3941650390625,-0.1871337890625
9.903,313,1604,784,330,-0.684326171875,0.3941650390625,-0.1871337890625
9.918,313,1961,782,333,-0.7222900390625,0.176513671875,-0.2557373046875
9.922,310,2230,803,343,-0.66943359375,0.1024169921875,-0.2359619140625
9.930,315,2415,835,338,-0.66943359375,0.1024169921875,-0.2359619140625
9.944,314,3115,840,345,-0.6033935546875,0.206787109375,-0.129638671875
9.952,316,3147,904,660,-0.5738525390625,0.2581787109375,-0.09521484375
9.965,318,3147,964,963,-0.5738525390625,0.2581787109375,-0.09521484375
9.974,318,3147,1103,1521,-0.4000244140625,0.246337890625,-0.0372314453125
9.998,324,3147,1283,1830,-0.2967529296875,0.2459716796875,0.00244140625
9.998,330,3147,1486,2122,-0.2967529296875,0.2459716796875,0.00244140625
10.010,346,3147,1733,2552,-0.455078125,0.4783935546875,0.089599609375
10.014,347,3147,1806,2713,-0.6800537109375,0.64013671875,0.114990234375
10.020,356,3147,1855,2792,-0.6800537109375,0.64013671875,0.114990234375
10.034,361,3147,1952,2901,-1.449462890625,0.771728515625,-0.21240234375
10.044,363,3147,2007,2934,-1.836669921875,0.765380859375,-0.34765625
10.051,364,3147,2005,2984,-1.836669921875,0.765380859375,-0.34765625
10.065,363,3147,1952,3008,-2.23974609375,0.4661865234375,-0.3885498046875
10.072,361,3147,1922,3008,-1.7032470703125,0.2052001953125,-0.2308349609375
10.095,360,3147,1912,2981,-1.7032470703125,0.2052001953125,-0.2308349609375
10.095,360,3147,1952,3042,-0.828125,0.811767578125,-0.020751953125
10.104,360,3147,1927,2993,-0.828125,0.811767578125,-0.020751953125
10.116,361,3147,1900,2918,-1.1005859375,1.2423095703125,-0.242431640625
10.124,351,3147,1820,2703,-1.5721435546875,0.8023681640625,-0.483642578125
10.132,347,3147,1705,2505,-1.5721435546875,0.8023681640625,-0.483642578125
10.144,342,3147,1564,2308,-1.476806640625,0.4293212890625,-0.37158203125
10.154,332,3147,1199,1894,-1.085205078125,0.346435546875,-0.1297607421875
10.171,328,3147,1058,1665,-1.085205078125,0.346435546875,-0.1297607421875
10.171,324,3147,944,1317,-0.8829345703125,0.3773193359375,-0.024658203125
10.199,319,3147,858,849,-0.6776123046875,0.1591796875,0.07861328125
10.199,316,3147,834,406,-0.6776123046875,0.1591796875,0.07861328125
10.200,304,3007,818,344,-0.6962890625,0.0677490234375,0.076904296875
10.224,318,2287,841,343,-0.705322265625,0.0018310546875,-0.03662109375
10.224,321,1865,763,322,-0.705322265625,0.0018310546875,-0.03662109375
10.231,318,1695,775,342,-0.7178955078125,0.0445556640625,-0.06787109375
10.244,314,1173,697,338,-0.71875,0.2493896484375,-0.06982421875
10.256,313,1091,733,332,-0.71875,0.2493896484375,-0.06982421875
10.260,313,1081,687,334,-0.6175537109375,0.31884765625,-0.1060791015625
10.274,313,1024,648,332,-0.5107421875,0.3841552734375,-0.1593017578125
10.297,313,1122,631,330,-0.5107421875,0.3841552734375,-0.1593017578125
10.298,295,1268,582,331,-0.4942626953125,0.3868408203125,-0.183349609375
10.304,310,1508,668,332,-0.5811767578125,0.5384521484375,-0.24365234375
10.312,310,1656,711,332,-0.5811767578125,0.5384521484375,-0.24365234375
10.327,313,1929,702,332,-0.67919921875,0.612060546875,-0.2164306640625
10.334,313,2194,725,334,-0.6922607421875,0.5064697265625,-0.2144775390625
10.343,310,2421,744,336,-0.6719970703125,0.32470703125,-0.2081298828125
10.350,312,2622,746,336,-0.6580810546875,0.2152099609375,-0.1649169921875
10.379,313,3061,757,338,-0.6627197265625,0.234375,-0.124267578125
10.380,296,3147,784,454,-0.6689453125,0.2838134765625,-0.099853515625
10.381,315,3147,758,840,-0.658203125,0.24755859375,-0.1009521484375
10.406,309,3147,761,1382,-0.697265625,0.1888427734375,-0.1107177734375
10.406,316,3147,820,1648,-0.7176513671875,0.14208984375,-0.08056640625
10.412,321,3147,960,1970,-0.6021728515625,0.0423583984375,0.030029296875
10.425,324,3147,1209,2347,-0.4293212890625,-0.027587890625,0.2054443359375
10.435,328,3147,1411,2484,-0.3126220703125,0.0517578125,0.3292236328125
10.440,334,3147,1506,2608,-0.3753662109375,0.348876953125,0.304443359375
10.454,347,3147,1635,2717,-0.6541748046875,0.78125,0.0887451171875
10.464,348,3147,1682,2781,-1.0716552734375,1.1346435546875,-0.2764892578125
10.483,348,3147,1694,2766,-1.4932861328125,1.308837890625,-0.6590576171875
10.484,336,3147,1750,2698,-1.7681884765625,1.2667236328125,-0.8385009765625
10.507,355,3147,1774,2668,-1.9244384765625,0.9891357421875,-0.65087890625
10.508,351,3147,1794,2638,-1.98291015625,0.4625244140625,-0.3026123046875
10.515,351,3147,1830,2765,-1.701904296875,-0.1007080078125,-0.0477294921875
10.522,347,3147,1855,2760,-1.267333984375,-0.0821533203125,0.0487060546875
10.530,351,3147,1785,2736,-1.246826171875,0.6539306640625,-0.0877685546875
10.554,347,3147,1658,2645,-1.5009765625,1.266845703125,-0.347900390625
10.554,346,3147,1499,2473,-1.6185302734375,1.1826171875,-0.463134765625
10.560,337,3147,1386,2428,-1.53515625,0.742431640625,-0.391357421875
10.579,330,3147,1160,2158,-1.3057861328125,0.4373779296875,-0.275390625
10.583,328,3147,1014,1920,-1.0418701171875,0.367431640625,-0.1724853515625
10.609,323,3147,818,1718,-0.81884765625,0.349365234375,-0.0758056640625
10.609,304,3147,788,1341,-0.64404296875,0.278564453125,0.0185546875
10.612,318,3147,774,999,-0.5364990234375,0.2166748046875,0.0709228515625
10.620,317,3147,773,656,-0.555908203125,0.2073974609375,0.0418701171875
10.634,316,3147,799,346,-0.6395263671875,0.1922607421875,-0.010986328125
10.649,316,3012,778,346,-0.6539306640625,0.148193359375,-0.0819091796875
10.650,313,2626,765,345,-0.6461181640625,0.1446533203125,-0.2000732421875
10.664,319,2494,764,334,-0.6507568359375,0.1719970703125,-0.258544921875
10.672,318,2253,774,337,-0.61181640625,0.1695556640625,-0.236572265625
10.680,316,2122,767,336,-0.6192626953125,0.2401123046875,-0.184326171875
10.694,315,2050,735,333,-0.6539306640625,0.3861083984375,-0.132568359375
10.708,313,2087,728,336,-0.64306640625,0.4698486328125,-0.11572265625
10.710,315,2186,765,338,-0.654052734375,0.466552734375,-0.1009521484375
10.724,313,2337,787,334,-0.689453125,0.413818359375,-0.0810546875
10.732,315,2407,811,338,-0.7205810546875,0.3697509765625,-0.08056640625
10.740,315,2498,830,338,-0.7530517578125,0.3480224609375,-0.0888671875
10.754,312,2654,816,338,-0.775146484375,0.3272705078125,-0.099853515625
10.762,315,2748,816,338,-0.7830810546875,0.3074951171875,-0.133056640625
10.770,315,2916,814,344,-0.80126953125,0.2958984375,-0.17529296875
10.784,307,3056,842,338,-0.8338623046875,0.2962646484375,-0.2037353515625
10.792,316,3147,879,344,-0.8662109375,0.3079833984375,-0.210693359375
10.824,316,3147,891,344,-0.8763427734375,0.303466796875,-0.210205078125
10.825,316,3147,837,507,-0.865234375,0.267333984375,-0.2200927734375
10.825,310,3147,780,614,-0.8739013671875,0.23974609375,-0.2259521484375
10.831,315,3147,794,749,-0.8870849609375,0.2318115234375,-0.1846923828125
10.844,315,3147,787,1014,-0.8507080078125,0.2120361328125,-0.0927734375
10.852,316,3147,777,1201,-0.760498046875,0.1630859375,0.0042724609375
10.860,310,3147,749,1439,-0.6319580078125,0.1478271484375,0.0904541015625
10.874,318,3147,827,1781,-0.4893798828125,0.1959228515625,0.1717529296875
10.885,323,3147,1025,2008,-0.3338623046875,0.2415771484375,0.2142333984375
10.892,322,3147,1183,2167,-0.17822265625,0.2696533203125,0.2421875
10.910,334,3147,1434,2469,-0.1142578125,0.3221435546875,0.2252197265625
10.933,338,3147,1516,2648,-0.248046875,0.50830078125,0.018310546875
10.934,328,3147,1506,2757,-0.64208984375,0.958984375,-0.446044921875
10.935,346,3147,1518,2787,-1.14892578125,1.4713134765625,-0.94189453125
10.942,348,3147,1529,2830,-1.429931640625,1.4854736328125,-0.97119140625
10.951,348,3147,1561,2827,-1.487548828125,0.8721923828125,-0.5037841796875
10.968,348,3147,1557,2793,-1.624267578125,0.3309326171875,-0.1160888671875
10.973,348,3147,1503,2744,-1.804443359375,0.45947265625,-0.11181640625
10.989,346,3147,1557,2757,-1.767822265625,0.8929443359375,-0.2823486328125
10.995,344,3147,1569,2647,-1.527587890625,1.0150146484375,-0.3402099609375
11.003,344,3147,1546,2599,-1.4552001953125,0.8565673828125,-0.2386474609375
11.018,342,3147,1464,2567,-1.4552001953125,0.8565673828125,-0.2386474609375
11.026,334,3147,1334,2447,-1.534423828125,0.482666015625,-0.138916015625
11.032,332,3147,1251,2333,-1.37255859375,0.38232421875,-0.128662109375
11.045,330,3147,1120,2180,-1.37255859375,0.38232421875,-0.128662109375
11.054,328,3147,958,1943,-0.894287109375,0.41259765625,-0.151611328125
11.062,328,3147,871,1759,-0.7242431640625,0.5009765625,-0.1905517578125
11.074,323,3147,793,1616,-0.7242431640625,0.5009765625,-0.1905517578125
11.091,323,3147,746,1157,-0.587890625,0.5101318359375,-0.2109375
11.092,302,3147,753,955,-0.5926513671875,0.4603271484375,-0.1707763671875
11.117,316,3147,705,642,-0.5926513671875,0.4603271484375,-0.1707763671875
11.118,317,3112,725,347,-0.6278076171875,0.3560791015625,-0.116943359375
11.122,317,2830,720,346,-0.6341552734375,0.31787109375,-0.1005859375
11.130,318,2581,723,346,-0.6341552734375,0.31787109375,-0.1005859375
11.144,315,2131,698,342,-0.6962890625,0.309814453125,-0.06494140625
11.158,316,1900,658,342,-0.691650390625,0.319580078125,-0.10009765625
11.160,316,1733,636,346,-0.691650390625,0.319580078125,-0.10009765625
11.182,313,1642,644,336,-0.7060546875,0.342041015625,-0.1534423828125
11.182,316,1627,588,338,-0.7357177734375,0.2510986328125,-0.1204833984375
11.192,316,1666,601,338,-0.7357177734375,0.2510986328125,-0.1204833984375
11.204,314,1820,603,336,-0.7252197265625,0.0947265625,-0.0418701171875
11.228,315,1920,593,338,-0.7178955078125,0.1436767578125,-0.0330810546875
11.231,314,2053,574,321,-0.7178955078125,0.1436767578125,-0.0330810546875
11.236,315,2240,605,338,-0.73583984375,0.244873046875,-0.04931640625
11.242,316,2347,634,344,-0.73583984375,0.244873046875,-0.04931640625
11.251,315,2435,643,344,-0.7415771484375,0.2369384765625,-0.06884765625
11.270,316,2747,705,338,-0.7659912109375,0.2674560546875,-0.12939453125
11.273,316,2880,723,346,-0.7659912109375,0.2674560546875,-0.12939453125
11.298,315,3000,744,344,-0.8077392578125,0.32568359375,-0.1634521484375
11.298,316,3147,754,437,-0.8416748046875,0.248779296875,-0.2406005859375
11.302,315,3147,725,627,-0.8416748046875,0.248779296875,-0.2406005859375
11.321,316,3147,762,792,-0.829345703125,0.156982421875,-0.214599609375
11.327,314,3147,673,1228,-0.681884765625,0.184326171875,0.0517578125
11.333,317,3147,695,1531,-0.681884765625,0.184326171875,0.0517578125
11.341,318,3147,753,1810,-0.492431640625,0.2528076171875,0.1278076171875
11.354,322,3147,1112,2167,-0.2271728515625,0.3101806640625,0.18017578125
11.363,327,3147,1320,2359,-0.2271728515625,0.3101806640625,0.18017578125
11.370,332,3147,1480,2530,-0.17431640625,0.226806640625,0.190185546875
11.384,348,3147,1613,2822,-0.6202392578125,0.73388671875,-0.070556640625
11.403,354,3147,1641,2887,-0.6202392578125,0.73388671875,-0.070556640625
11.404,356,3147,1681,2921,-1.1015625,1.2803955078125,-0.563232421875
11.428,360,3147,1796,2976,-1.5279541015625,1.4012451171875,-0.8839111328125
11.428,345,3147,1847,2963,-1.5279541015625,1.4012451171875,-0.8839111328125
11.431,364,3147,1850,2937,-1.5076904296875,0.7904052734375,-0.5015869140625
11.444,361,3147,1867,2872,-1.73779296875,0.56982421875,-0.23046875
11.453,361,3147,1882,2870,-1.73779296875,0.56982421875,-0.23046875
11.460,361,3147,1908,2822,-1.5550537109375,0.6029052734375,-0.2957763671875
11.474,362,3147,1890,2777,-1.3348388671875,0.520751953125,-0.2354736328125
11.483,361,3147,1819,2748,-1.4766845703125,0.5528564453125,-0.163818359375
11.531,360,3147,1772,2647,-1.617919921875,0.6754150390625,-0.2379150390625
11.531,347,3147,1592,2368,-1.5413818359375,0.78125,-0.3084716796875
11.531,348,3147,1508,2242,-1.300048828125,0.7169189453125,-0.2825927734375
11.531,342,3147,1391,2076,-1.0142822265625,0.55419921875,-0.1865234375
11.535,331,3147,1233,1719,-0.7801513671875,0.4093017578125,-0.08349609375
11.543,330,3147,1149,1422,-0.5919189453125,0.279052734375,-0.0185546875
11.550,327,3147,1067,1103,-0.502197265625,0.2183837890625,-0.017333984375
11.564,321,3147,999,590,-0.5533447265625,0.2679443359375,-0.064697265625
11.572,321,3147,973,361,-0.656982421875,0.3349609375,-0.096435546875
11.581,319,3078,934,351,-0.7147216796875,0.33251953125,-0.1087646484375
11.631,316,2424,814,347,-0.67822265625,0.2327880859375,-0.176513671875
11.631,317,2203,787,347,-0.640869140625,0.2637939453125,-0.1683349609375
11.631,317,1945,771,342,-0.6094970703125,0.3189697265625,-0.1256103515625
11.633,316,1816,738,345,-0.60693359375,0.36865234375,-0.0491943359375
11.641,316,1846,774,344,-0.635498046875,0.38330078125,-0.0137939453125
11.699,316,1944,750,343,-0.6722412109375,0.3712158203125,-0.05126953125
11.699,316,1943,780,344,-0.7008056640625,0.3577880859375,-0.1009521484375
11.699,316,2060,787,342,-0.73388671875,0.3385009765625,-0.1197509765625
11.699,316,2267,840,344,-0.769775390625,0.293212890625,-0.1097412109375
11.699,316,2362,848,346,-0.7857666015625,0.22021484375,-0.100830078125
11.735,316,2519,855,344,-0.7860107421875,0.17236328125,-0.1112060546875
11.735,316,2717,890,344,-0.7816162109375,0.180908203125,-0.1309814453125
11.735,315,2872,865,346,-0.77294921875,0.2174072265625,-0.146728515625
11.735,315,3147,907,346,-0.75341796875,0.2435302734375,-0.1488037109375
11.745,316,3147,938,608,-0.6961669921875,0.2388916015625,-0.1341552734375
11.753,318,3147,933,912,-0.65625,0.286376953125,-0.10888671875
11.761,317,3147,963,1157,-0.6566162109375,0.388916015625,-0.06787109375
11.771,321,3147,1009,1468,-0.589111328125,0.3997802734375,-0.0308837890625
11.783,324,3147,1318,1895,-0.4696044921875,0.310302734375,0.0274658203125
11.791,329,3147,1443,2178,-0.3568115234375,0.1549072265625,0.084228515625
11.808,336,3147,1589,2407,-0.2667236328125,0.038818359375,0.0994873046875
11.839,351,3147,1775,2739,-0.2794189453125,0.14794921875,0.0699462890625
11.839,336,3147,1823,2853,-0.4918212890625,0.48876953125,-0.0911865234375
11.839,352,3147,1811,2937,-0.864501953125,0.914794921875,-0.3553466796875
11.845,360,3147,1850,3000,-1.2764892578125,1.26318359375,-0.5955810546875
11.851,363,3147,1878,2981,-1.63720703125,1.4244384765625,-0.73291015625
11.859,369,3147,1890,2911,-1.900146484375,1.31494140625,-0.6632080078125
11.873,363,3147,1914,2863,-2.143310546875,0.8321533203125,-0.33203125
11.881,361,3147,1918,2823,-1.978759765625,-0.0770263671875,0.07470703125
11.889,362,3147,1954,2912,-1.339599609375,-0.6033935546875,0.3846435546875
11.909,360,3147,1954,2940,-1.0264892578125,-0.060302734375,0.29150390625
11.912,369,3147,1904,2923,-1.271484375,0.8968505859375,-0.2117919921875
11.953,360,3147,1850,2840,-1.6123046875,1.2869873046875,-0.5626220703125
11.954,360,3147,1739,2633,-1.679931640625,0.916748046875,-0.4989013671875
11.954,356,3147,1604,2498,-1.455810546875,0.4306640625,-0.2384033203125
11.954,351,3147,1464,2321,-1.1026611328125,0.2630615234375,-0.0823974609375
11.963,342,3147,1260,2005,-0.78173828125,0.34033203125,-0.0426025390625
11.971,336,3147,1151,1772,-0.561767578125,0.4349365234375,-0.0228271484375
11.980,328,3147,1042,1514,-0.4697265625,0.437744140625,-0.0306396484375
11.993,323,3147,963,933,-0.543701171875,0.3697509765625,-0.0880126953125
12.001,323,3147,934,644,-0.696533203125,0.2803955078125,-0.1220703125
12.013,323,3147,912,409,-0.784912109375,0.21044921875,-0.127197265625
12.043,319,2974,846,351,-0.8104248046875,0.1728515625,-0.1748046875
12.043,302,2691,835,346,-0.80908203125,0.1575927734375,-0.2054443359375
12.043,302,2372,747,327,-0.80908203125,0.1575927734375,-0.2054443359375
12.059,315,1922,793,338,-0.73828125,0.1324462890625,-0.1051025390625
12.061,313,1757,737,344,-0.6846923828125,0.1651611328125,-0.047119140625
12.069,318,1762,734,344,-0.6846923828125,0.1651611328125,-0.047119140625
12.084,315,1815,799,338,-0.59619140625,0.3685302734375,-0.035888671875
12.091,315,1874,733,344,-0.663330078125,0.4776611328125,-0.09326171875
12.099,316,2007,767,334,-0.663330078125,0.4776611328125,-0.09326171875
12.115,313,2172,818,338,-0.731689453125,0.4127197265625,-0.16015625
12.123,316,2247,853,337,-0.7310791015625,0.35205078125,-0.164306640625
12.139,315,2370,905,338,-0.7310791015625,0.35205078125,-0.164306640625
12.156,315,2608,963,343,-0.7291259765625,0.3309326171875,-0.197265625
12.156,316,2676,1004,338,-0.7315673828125,0.30712890625,-0.20166015625
12.160,316,2890,1021,344,-0.7315673828125,0.30712890625,-0.20166015625
12.174,316,3147,1058,346,-0.7711181640625,0.35009765625,-0.1751708984375
12.181,318,3147,1058,473,-0.775390625,0.3873291015625,-0.1593017578125
12.189,313,3147,1056,619,-0.775390625,0.3873291015625,-0.1593017578125
12.203,316,3147,1071,871,-0.8123779296875,0.3460693359375,-0.1881103515625
12.217,319,3147,1079,1018,-0.8631591796875,0.3072509765625,-0.217041015625
12.220,316,3147,1134,1283,-0.8631591796875,0.3072509765625,-0.217041015625
12.234,321,3147,1228,1624,-0.779052734375,0.1080322265625,-0.12109375
12.257,323,3147,1267,1826,-0.684326171875,0.0323486328125,-0.00439453125
12.257,327,3147,1320,2104,-0.684326171875,0.0323486328125,-0.00439453125
12.265,332,3147,1666,2382,-0.3536376953125,-0.0987548828125,0.2969970703125
12.271,338,3147,1816,2514,-0.3536376953125,-0.0987548828125,0.2969970703125
12.284,346,3147,1943,2645,-0.261474609375,0.0621337890625,0.270263671875
12.293,354,3147,2047,2911,-0.616943359375,1.079833984375,-0.392333984375
12.301,359,3147,2074,3017,-0.616943359375,1.079833984375,-0.392333984375
12.309,360,3147,2091,3084,-1.0545654296875,1.5565185546875,-0.79248046875
12.323,362,3147,2119,3079,-1.5821533203125,1.30859375,-0.669921875
12.352,365,3147,2161,3092,-1.5821533203125,1.30859375,-0.669921875
12.352,365,3147,2063,3042,-1.80126953125,0.747802734375,-0.3221435546875
12.354,359,3147,2106,2936,-1.81982421875,-0.2852783203125,0.3184814453125
12.361,361,3147,2153,2984,-1.81982421875,-0.2852783203125,0.3184814453125
12.369,362,3147,2183,2993,-1.32763671875,-0.4354248046875,0.407470703125
12.383,360,3147,2062,2937,-1.54248046875,0.92626953125,-0.3092041015625
12.397,359,3147,1967,2884,-1.54248046875,0.92626953125,-0.3092041015625
12.399,359,3147,1875,2758,-1.7662353515625,1.0670166015625,-0.59814453125
12.413,351,3147,1757,2503,-1.3504638671875,0.1822509765625,-0.17724609375
12.421,346,3147,1681,2354,-1.3504638671875,0.1822509765625,-0.17724609375
12.429,344,3147,1534,2170,-0.954833984375,0.1761474609375,0.0701904296875
12.462,332,3147,1262,1742,-0.4373779296875,0.5263671875,0.1090087890625
12.463,313,3147,1233,1422,-0.4373779296875,0.5263671875,0.1090087890625
12.463,328,3147,1233,1081,-0.46142578125,0.53759765625,-0.03662109375
12.473,322,3147,1198,617,-0.62890625,0.4599609375,-0.1734619140625
12.483,323,3147,1196,363,-0.7611083984375,0.3243408203125,-0.221923828125
12.489,321,3014,1169,353,-0.8094482421875,0.1724853515625,-0.2318115234375
12.510,316,2517,1032,347,-0.818603515625,0.0509033203125,-0.2357177734375
12.511,316,2218,958,343,-0.775390625,-0.044677734375,-0.1846923828125
12.524,318,1977,925,342,-0.6881103515625,-0.0816650390625,-0.0704345703125
12.533,315,1806,849,338,-0.625732421875,-0.0074462890625,0.040771484375
12.541,316,1880,887,345,-0.610595703125,0.1536865234375,0.09228515625
12.566,316,1945,891,344,-0.604736328125,0.317138671875,0.072021484375
12.566,316,2160,918,338,-0.614990234375,0.4390869140625,0.0069580078125
12.571,316,2280,958,344,-0.6461181640625,0.5,-0.0582275390625
12.579,316,2404,1004,344,-0.6680908203125,0.495849609375,-0.11279296875
12.593,316,2627,1050,344,-0.6849365234375,0.4544677734375,-0.1474609375
12.601,316,2780,1063,344,-0.6937255859375,0.3680419921875,-0.16943359375
12.609,316,2897,1091,344,-0.709716796875,0.272705078125,-0.194091796875
12.630,316,3144,1103,346,-0.7462158203125,0.221923828125,-0.19140625
12.631,315,3147,1104,356,-0.771240234375,0.212646484375,-0.1588134765625
12.655,315,3147,1112,499,-0.808837890625,0.255859375,-0.1268310546875
12.656,324,3147,1107,780,-0.8795166015625,0.321044921875,-0.10302734375
12.661,319,3147,1163,951,-0.9403076171875,0.3497314453125,-0.0889892578125
12.672,321,3147,1169,1078,-0.9549560546875,0.3248291015625,-0.0965576171875
12.683,323,3147,1222,1390,-0.9071044921875,0.276611328125,-0.1217041015625
12.691,324,3147,1274,1557,-0.8592529296875,0.3045654296875,-0.093505859375
12.699,323,3147,1271,1683,-0.8197021484375,0.3607177734375,-0.0067138671875
12.713,329,3147,1503,2037,-0.69384765625,0.287841796875,0.089111328125
12.736,334,3147,1615,2128,-0.4959716796875,0.058837890625,0.211669921875
12.736,338,3147,1762,2220,-0.300048828125,-0.212646484375,0.2904052734375
12.755,356,3147,2061,2494,-0.2010498046875,-0.1846923828125,0.245849609375
12.756,356,3147,2114,2662,-0.2744140625,0.361328125,0.0135498046875
12.759,361,3147,2170,2830,-0.648681640625,1.200927734375,-0.5174560546875
12.778,364,3147,2263,2876,-1.2650146484375,1.9183349609375,-1.1312255859375
12.781,369,3147,2308,2869,-1.5718994140625,1.931884765625,-1.1766357421875
12.789,371,3147,2279,2881,-1.53173828125,1.1585693359375,-0.5755615234375
12.808,371,3147,2243,2844,-1.6334228515625,0.39013671875,-0.016357421875
12.811,364,3147,2186,2803,-1.8876953125,0.16455078125,0.12646484375
12.819,364,3147,2221,2810,-1.7591552734375,0.117919921875,0.025634765625
12.833,364,3147,2284,2765,-1.42333984375,0.1356201171875,-0.0369873046875
12.862,364,3147,2191,2725,-1.484375,0.4261474609375,-0.12939453125
12.862,354,3147,2068,2633,-1.6685791015625,0.67138671875,-0.3194580078125
12.863,354,3147,1967,2480,-1.6488037109375,0.5902099609375,-0.37744140625
12.872,351,3147,1856,2341,-1.4381103515625,0.31591796875,-0.2337646484375
12.885,351,3147,1769,2197,-1.1151123046875,0.18310546875,-0.0379638671875
12.893,346,3147,1504,1904,-0.778076171875,0.2659912109375,0.08056640625
12.901,337,3147,1398,1669,-0.489013671875,0.337890625,0.1121826171875
12.909,334,3147,1318,1370,-0.3701171875,0.33642578125,0.0736083984375
12.923,330,3147,1216,837,-0.4652099609375,0.3743896484375,0.0068359375
12.935,323,3147,1155,582,-0.61474609375,0.4501953125,-0.053466796875
12.939,326,3147,1094,430,-0.709228515625,0.4871826171875,-0.1541748046875
12.965,321,2946,1083,351,-0.7608642578125,0.427978515625,-0.2822265625
12.966,321,2777,1050,354,-0.7769775390625,0.3104248046875,-0.32177734375
12.972,315,2611,1017,351,-0.761962890625,0.2186279296875,-0.2509765625
12.991,317,2162,900,344,-0.741943359375,0.172119140625,-0.1573486328125
12.992,318,2000,811,346,-0.711669921875,0.16015625,-0.067626953125
12.999,316,2000,862,346,-0.6754150390625,0.1883544921875,0.0234375
13.013,316,2019,826,344,-0.67529296875,0.2462158203125,0.05419921875
13.021,316,2060,806,346,-0.72607421875,0.3126220703125,0.0009765625
13.038,316,2115,803,345,-0.77978515625,0.3675537109375,-0.0667724609375
13.043,316,2306,841,345,-0.7945556640625,0.37255859375,-0.099609375
13.077,316,2374,900,346,-0.777099609375,0.323974609375,-0.0980224609375
13.078,316,2503,947,347,-0.7418212890625,0.251953125,-0.091064453125
13.078,323,2737,1003,346,-0.7109375,0.1939697265625,-0.1165771484375
13.081,312,2882,1012,346,-0.7115478515625,0.1834716796875,-0.1646728515625
13.098,318,3042,1065,346,-0.7366943359375,0.2122802734375,-0.1815185546875
13.104,316,3147,1091,388,-0.738037109375,0.2391357421875,-0.1536865234375
13.113,321,3147,1111,600,-0.7122802734375,0.2718505859375,-0.115966796875
13.119,319,3147,1111,864,-0.7130126953125,0.3157958984375,-0.097412109375
13.139,321,3147,1185,1359,-0.7259521484375,0.3450927734375,-0.09423828125
13.142,323,3147,1261,1592,-0.68701171875,0.3428955078125,-0.07421875
13.167,325,3147,1359,1824,-0.5721435546875,0.278076171875,-0.0311279296875
13.167,336,3147,1623,2246,-0.4237060546875,0.1761474609375,0.0299072265625
13.172,344,3147,1830,2530,-0.312255859375,0.1602783203125,0.12158203125
13.185,351,3147,1985,2725,-0.312255859375,0.1602783203125,0.12158203125
13.194,360,3147,2233,2932,-0.438232421875,0.672607421875,0.052978515625
13.207,361,3147,2308,3040,-0.732421875,1.0262451171875,-0.2431640625
13.209,364,3147,2333,3102,-0.732421875,1.0262451171875,-0.2431640625
13.224,365,3147,2333,3104,-1.4539794921875,1.3365478515625,-0.80810546875
13.231,371,3147,2319,3027,-1.806640625,1.2354736328125,-0.826904296875
13.241,371,3147,2223,3008,-1.806640625,1.2354736328125,-0.826904296875
13.273,369,3147,2194,2981,-2.20751953125,0.0216064453125,-0.1971435546875
13.274,370,3147,2139,2946,-1.52783203125,-0.599609375,0.29296875
13.274,370,3147,2215,2992,-1.52783203125,-0.599609375,0.29296875
13.284,364,3147,2065,2974,-1.1551513671875,0.6881103515625,-0.0526123046875
13.298,364,3147,1913,2911,-1.554931640625,1.2520751953125,-0.5516357421875
13.299,361,3147,1775,2803,-1.554931640625,1.2520751953125,-0.5516357421875
13.314,353,3147,1689,2599,-1.616455078125,0.507568359375,-0.39013671875
13.321,354,3147,1669,2415,-1.273681640625,0.29296875,-0.0960693359375
13.329,348,3147,1470,2180,-1.273681640625,0.29296875,-0.0960693359375
13.343,338,3147,1173,1808,-0.5804443359375,0.37255859375,0.162841796875
13.351,333,3147,1149,1443,-0.4288330078125,0.324462890625,0.1097412109375
13.360,332,3147,1091,1067,-0.4288330078125,0.324462890625,0.1097412109375
13.383,327,3147,1037,551,-0.6173095703125,0.2384033203125,-0.1070556640625
13.383,321,3098,986,351,-0.76171875,0.2344970703125,-0.1544189453125
13.390,321,2676,939,348,-0.76171875,0.2344970703125,-0.1544189453125
13.403,318,2113,816,345,-0.841552734375,0.1998291015625,-0.3468017578125
13.424,318,1924,784,345,-0.841552734375,0.1998291015625,-0.3468017578125
13.424,318,1678,777,345,-0.763916015625,0.1728515625,-0.34228515625
13.433,317,1345,702,343,-0.6463623046875,0.1728515625,-0.1146240234375
13.446,316,1312,667,336,-0.6463623046875,0.1728515625,-0.1146240234375
13.449,315,1341,639,337,-0.60791015625,0.2210693359375,-0.0283203125
13.475,310,1363,631,334,-0.6455078125,0.4609375,-0.033935546875
13.475,299,1382,629,334,-0.6455078125,0.4609375,-0.033935546875
13.480,315,1411,660,334,-0.7052001953125,0.5313720703125,-0.0633544921875
13.494,313,1615,739,334,-0.697509765625,0.3897705078125,-0.0850830078125
13.501,313,1669,816,334,-0.697509765625,0.3897705078125,-0.0850830078125
13.509,315,1775,840,336,-0.6953125,0.28173828125,-0.1168212890625
13.529,315,2135,932,338,-0.748046875,0.0677490234375,-0.18017578125
13.531,316,2296,973,342,-0.748046875,0.0677490234375,-0.18017578125
13.539,316,2437,1032,345,-0.7723388671875,0.0477294921875,-0.157958984375
13.553,315,2882,1078,344,-0.806640625,0.3045654296875,-0.1307373046875
13.573,316,3112,1093,346,-0.806640625,0.3045654296875,-0.1307373046875
13.573,316,3147,1078,355,-0.8101806640625,0.396728515625,-0.1641845703125
13.583,316,3147,1098,684,-0.81591796875,0.366943359375,-0.2508544921875
13.591,318,3147,1091,910,-0.81591796875,0.366943359375,-0.2508544921875
13.599,321,3147,1146,1188,-0.824462890625,0.337646484375,-0.2587890625
13.613,321,3147,1231,1666,-0.76318359375,0.3023681640625,-0.2132568359375
13.621,324,3147,1330,1927,-0.639404296875,0.24609375,-0.091064453125
13.640,313,3147,1569,2110,-0.5157470703125,0.1949462890625,0.086669921875
13.651,342,3147,1900,2316,-0.429931640625,0.2103271484375,0.213623046875
13.651,346,3147,2078,2445,-0.36376953125,0.2967529296875,0.171875
13.659,352,3147,2235,2584,-0.4212646484375,0.5211181640625,-0.0760498046875
13.682,359,3147,2258,2744,-0.6651611328125,0.860595703125,-0.428466796875
13.682,361,3147,2242,2813,-1.0081787109375,1.125,-0.6766357421875
13.690,364,3147,2253,2820,-1.3973388671875,1.2196044921875,-0.6942138671875
13.703,364,3147,2344,2822,-1.8056640625,1.0980224609375,-0.4010009765625
13.711,369,3147,2321,2832,-2.203857421875,0.615478515625,0.0396728515625
13.719,364,3147,2295,2807,-2.2415771484375,-0.231689453125,0.312744140625
13.737,363,3147,2257,2735,-1.614501953125,-0.7633056640625,0.4656982421875
13.756,363,3147,2275,2837,-0.944091796875,-0.308837890625,0.3773193359375
13.756,362,3147,2273,2858,-0.8045654296875,0.6234130859375,-0.0638427734375
13.764,359,3147,2247,2741,-1.1414794921875,1.1573486328125,-0.4471435546875
13.787,359,3147,2191,2676,-1.599365234375,1.0240478515625,-0.543212890625
13.793,356,3147,2039,2494,-1.6993408203125,0.6124267578125,-0.382080078125
13.793,332,3147,1772,2249,-1.4385986328125,0.33154296875,-0.135009765625
13.801,346,3147,1588,2061,-1.098388671875,0.2322998046875,-0.0059814453125
13.809,345,3147,1437,1878,-0.833251953125,0.315185546875,-0.003662109375
13.823,330,3147,1341,1413,-0.6746826171875,0.453125,-0.06640625
13.831,330,3147,1292,1107,-0.6466064453125,0.5023193359375,-0.134521484375
13.846,328,3147,1278,785,-0.721923828125,0.4239501953125,-0.17919921875
13.863,324,3147,1251,359,-0.8199462890625,0.2381591796875,-0.16162109375
13.863,324,2859,1213,356,-0.907958984375,0.02490234375,-0.1162109375
13.882,323,2608,1132,354,-0.9385986328125,-0.13037109375,-0.0987548828125
13.884,317,2113,976,346,-0.8751220703125,-0.148681640625,-0.091552734375
13.894,316,1757,942,346,-0.775390625,-0.0068359375,-0.07373046875
13.900,315,1598,897,343,-0.6844482421875,0.1397705078125,-0.0733642578125
13.913,315,1588,872,336,-0.6148681640625,0.23291015625,-0.093994140625
13.921,316,1424,816,334,-0.5799560546875,0.3621826171875,-0.09619140625
13.929,315,1377,794,334,-0.5743408203125,0.50537109375,-0.095703125
13.960,313,1615,867,334,-0.583984375,0.604248046875,-0.115966796875
13.960,314,1914,939,323,-0.599365234375,0.612548828125,-0.1395263671875
13.960,315,1985,1012,336,-0.6190185546875,0.525146484375,-0.169677734375
13.975,315,2037,1043,338,-0.6563720703125,0.4334716796875,-0.211181640625
13.992,315,2240,1051,338,-0.7064208984375,0.37060546875,-0.2325439453125
13.995,316,2379,1029,325,-0.72998046875,0.2801513671875,-0.2274169921875
14.003,315,2739,1029,338,-0.747802734375,0.1820068359375,-0.207763671875
14.011,317,2940,1051,344,-0.780029296875,0.12060546875,-0.16845703125
14.020,317,3064,1095,346,-0.772705078125,0.0908203125,-0.1212158203125
14.033,318,3147,1131,588,-0.7264404296875,0.109619140625,-0.094970703125
14.041,316,3147,1107,844,-0.732421875,0.16455078125,-0.0955810546875
14.063,322,3147,1122,1116,-0.791015625,0.2459716796875,-0.083251953125
14.063,324,3147,1195,1561,-0.7515869140625,0.2996826171875,-0.0753173828125
14.074,328,3147,1359,1914,-0.6026611328125,0.282470703125,-0.0606689453125
14.135,330,3147,1541,2178,-0.455078125,0.2607421875,0.0262451171875
14.135,344,3147,1766,2530,-0.3157958984375,0.2930908203125,0.1624755859375
14.136,348,3147,2023,2710,-0.241455078125,0.4310302734375,0.2530517578125
14.136,355,3147,2139,2827,-0.38134765625,0.6912841796875,0.1385498046875
14.136,360,3147,2286,2955,-0.714111328125,0.9984130859375,-0.1611328125
14.136,363,3147,2296,2991,-1.111572265625,1.2525634765625,-0.470458984375
14.140,364,3147,2299,2944,-1.5101318359375,1.3775634765625,-0.70166015625
14.153,371,3147,2303,2793,-1.91748046875,1.249755859375,-0.74365234375
14.169,369,3147,2235,2788,-2.369140625,0.6688232421875,-0.5675048828125
14.170,369,3147,2178,2736,-2.2725830078125,-0.3837890625,-0.2060546875
14.189,363,3147,2215,2840,-1.4676513671875,-0.9400634765625,0.2938232421875
14.191,364,3147,2207,2874,-0.9970703125,-0.2127685546875,0.4083251953125
14.199,364,3147,2180,2905,-1.2171630859375,0.95654296875,-0.070556640625
14.216,363,3147,2054,2787,-1.57861328125,1.3236083984375,-0.5291748046875
14.222,361,3147,2000,2676,-1.6959228515625,0.833984375,-0.556640625
14.229,360,3147,1931,2527,-1.5081787109375,0.3927001953125,-0.32763671875
14.246,348,3147,1693,2249,-1.1546630859375,0.4029541015625,-0.15185546875
14.251,346,3147,1480,2005,-0.7962646484375,0.5384521484375,-0.0721435546875
14.273,338,3147,1305,1769,-0.5203857421875,0.5,0.0126953125
14.279,316,3147,1211,1268,-0.390380859375,0.34228515625,0.072998046875
14.292,326,3147,1175,960,-0.470703125,0.228759765625,0.0242919921875
14.292,323,3147,1173,692,-0.675537109375,0.2158203125,-0.03076171875
14.318,324,3144,1064,356,-0.8087158203125,0.2000732421875,-0.0819091796875
14.318,322,2830,1058,348,-0.853759765625,0.111572265625,-0.2327880859375
14.320,321,2567,1005,348,-0.853759765625,0.111572265625,-0.2327880859375
14.333,317,2471,992,344,-0.779052734375,0.0294189453125,-0.358154296875
14.341,318,2280,980,344,-0.7242431640625,0.088134765625,-0.2572021484375
14.349,315,2172,944,346,-0.7242431640625,0.088134765625,-0.2572021484375
14.376,315,1980,917,343,-0.6280517578125,0.2940673828125,-0.0428466796875
14.393,300,2115,958,338,-0.6082763671875,0.48095703125,-0.0106201171875
14.394,316,2167,975,342,-0.6082763671875,0.48095703125,-0.0106201171875
14.395,316,2295,1000,342,-0.6669921875,0.66943359375,-0.0924072265625
14.403,316,2382,1024,342,-0.68896484375,0.5718994140625,-0.13671875
14.409,312,2503,1025,338,-0.68896484375,0.5718994140625,-0.13671875
14.425,315,2689,1064,344,-0.724609375,0.286865234375,-0.132568359375
14.432,316,2827,1063,345,-0.7305908203125,0.1536865234375,-0.1412353515625
14.440,315,2968,1067,347,-0.7305908203125,0.1536865234375,-0.1412353515625
14.454,316,3147,1067,345,-0.775146484375,0.1600341796875,-0.172119140625
14.462,315,3147,1063,423,-0.8184814453125,0.2296142578125,-0.17724609375
14.470,316,3147,1094,567,-0.8184814453125,0.2296142578125,-0.17724609375
14.495,314,3147,977,902,-0.8843994140625,0.2017822265625,-0.2325439453125
14.496,302,3147,944,1201,-0.841552734375,0.1527099609375,-0.1845703125
14.502,314,3147,949,1429,-0.841552734375,0.1527099609375,-0.1845703125
14.514,323,3147,1071,1875,-0.6060791015625,0.2333984375,0.044189453125
14.522,324,3147,1166,2130,-0.4918212890625,0.215087890625,0.15869140625
14.530,328,3147,1333,2330,-0.4918212890625,0.215087890625,0.15869140625
14.543,336,3147,1590,2634,-0.3443603515625,0.2498779296875,0.2828369140625
14.552,344,3147,1721,2760,-0.3443603515625,0.2498779296875,0.2828369140625
14.559,348,3147,1847,2891,-0.365234375,0.4969482421875,0.14990234375
14.573,356,3147,1981,3012,-0.81591796875,0.861083984375,-0.4700927734375
14.597,360,3147,2000,3082,-0.81591796875,0.861083984375,-0.4700927734375
14.597,338,3147,1960,3106,-1.183349609375,0.962646484375,-0.636962890625
14.603,363,3147,2076,3084,-1.64111328125,1.0780029296875,-0.5732421875
14.611,364,3147,2113,3112,-1.64111328125,1.0780029296875,-0.5732421875
14.619,363,3147,2058,3111,-1.7569580078125,0.9051513671875,-0.3360595703125
14.633,361,3147,2037,3117,-1.646728515625,0.13720703125,-0.0355224609375
14.641,363,3147,2058,3139,-1.646728515625,0.13720703125,-0.0355224609375
14.649,359,3147,2014,3144,-1.2435302734375,0.088623046875,0.06103515625
14.663,359,3147,1854,3048,-1.512451171875,0.982421875,-0.3380126953125
14.674,359,3147,1775,2973,-1.512451171875,0.982421875,-0.3380126953125
14.680,354,3147,1689,2864,-1.6390380859375,0.896728515625,-0.4901123046875
14.707,346,3147,1457,2569,-1.264892578125,0.33447265625,-0.234375
14.708,323,3147,1261,2344,-1.264892578125,0.33447265625,-0.234375
14.712,331,3147,1143,2127,-0.94384765625,0.3380126953125,-0.1201171875
14.723,328,3147,1081,1653,-0.502685546875,0.3359375,0.0325927734375
14.732,324,3147,1063,1262,-0.502685546875,0.3359375,0.0325927734375
14.740,322,3147,1041,932,-0.512451171875,0.2552490234375,0.0379638671875
14.753,317,3147,971,470,-0.6505126953125,0.235595703125,0.005126953125
14.762,318,3084,971,351,-0.73095703125,0.226806640625,-0.08447265625
14.778,317,2792,952,346,-0.7457275390625,0.1724853515625,-0.2884521484375
14.784,318,2381,864,344,-0.726318359375,0.0831298828125,-0.436279296875
14.791,315,2156,814,336,-0.6689453125,0.018310546875,-0.4417724609375
14.802,316,1967,714,336,-0.685791015625,0.098388671875,-0.3385009765625
14.817,313,1716,661,336,-0.7020263671875,0.2542724609375,-0.1898193359375
14.822,310,1659,575,336,-0.6265869140625,0.3555908203125,-0.0938720703125
14.830,316,1617,572,332,-0.5953369140625,0.4559326171875,-0.05810546875
14.844,314,1628,525,334,-0.6341552734375,0.5567626953125,-0.05810546875
14.851,315,1904,590,336,-0.6551513671875,0.5751953125,-0.058837890625
14.859,316,1997,631,336,-0.66455078125,0.509521484375,-0.0435791015625
14.885,315,2266,694,338,-0.692626953125,0.3892822265625,-0.048583984375
14.885,315,2415,774,336,-0.7030029296875,0.2203369140625,-0.1094970703125
14.914,315,2610,814,344,-0.70166015625,0.0792236328125,-0.1925048828125
14.915,299,3010,891,324,-0.7392578125,0.0723876953125,-0.251220703125
14.915,314,3147,952,346,-0.7930908203125,0.1868896484375,-0.2723388671875
14.920,304,3147,975,437,-0.8045654296875,0.3037109375,-0.27490234375
14.933,311,3147,907,788,-0.7926025390625,0.3504638671875,-0.2626953125
14.941,316,3147,888,1078,-0.802978515625,0.344970703125,-0.242919921875
14.949,316,3147,900,1340,-0.821044921875,0.3419189453125,-0.22509765625
14.963,317,3147,946,1796,-0.784423828125,0.3099365234375,-0.1873779296875
14.972,321,3147,1010,2030,-0.6739501953125,0.2073974609375,-0.08984375
14.989,322,3147,1029,2268,-0.54833984375,0.1048583984375,0.052734375
15.016,328,3147,1346,2568,-0.4473876953125,0.0771484375,0.188720703125
15.016,316,3147,1527,2677,-0.3607177734375,0.17626953125,0.2806396484375
15.016,342,3147,1598,2834,-0.35888671875,0.3626708984375,0.270263671875
15.023,348,3147,1810,3084,-0.537109375,0.52734375,0.1063232421875
15.031,354,3147,1828,3143,-0.861572265625,0.6632080078125,-0.189697265625
15.039,352,3147,1828,3147,-1.2437744140625,0.8204345703125,-0.5230712890625
15.053,359,3147,1850,3144,-1.583251953125,0.9822998046875,-0.76611328125
15.061,361,3147,1865,3130,-1.74169921875,1.01025390625,-0.794677734375
15.070,359,3147,1830,3133,-1.7677001953125,0.897216796875,-0.5621337890625
15.085,361,3147,1894,3147,-1.709228515625,0.6827392578125,-0.239990234375
15.091,359,3147,1931,3147,-1.412841796875,0.3936767578125,0.00146484375
15.126,357,3147,1943,3147,-1.0904541015625,0.3267822265625,0.099609375
15.126,351,3147,1850,3147,-1.1138916015625,0.5848388671875,-0.029296875
15.126,349,3147,1856,3143,-1.379638671875,0.798095703125,-0.304931640625
15.130,354,3147,1790,3085,-1.556396484375,0.6756591796875,-0.489013671875
15.143,347,3147,1616,2874,-1.51416015625,0.3902587890625,-0.4686279296875
15.152,343,3147,1464,2765,-1.30908203125,0.2757568359375,-0.343994140625
15.159,336,3147,1268,2580,-1.02978515625,0.3837890625,-0.2318115234375
15.174,330,3147,1097,2190,-0.768310546875,0.5289306640625,-0.13232421875
15.189,328,3147,1063,1929,-0.600341796875,0.571533203125,-0.0377197265625
15.190,323,3147,1025,1548,-0.5645751953125,0.498779296875,-0.0128173828125
15.203,318,3147,1014,1027,-0.6463623046875,0.3590087890625,-0.05908203125
15.216,321,3147,966,780,-0.7574462890625,0.21044921875,-0.0782470703125
15.233,316,3147,907,593,-0.81298828125,0.0850830078125,-0.1038818359375
15.234,316,3095,840,347,-0.8150634765625,0.0113525390625,-0.187255859375
15.241,315,2908,740,347,-0.774658203125,0.0213623046875,-0.2381591796875
15.250,317,2565,679,345,-0.697998046875,0.09228515625,-0.2347412109375
15.264,317,2284,656,338,-0.6241455078125,0.18017578125,-0.2071533203125
15.271,315,2268,669,343,-0.5584716796875,0.27294921875,-0.15478515625
15.279,314,2384,658,343,-0.529052734375,0.3939208984375,-0.13330078125
15.293,315,2435,710,336,-0.5938720703125,0.5439453125,-0.162109375
15.335,315,2484,668,338,-0.6851806640625,0.6104736328125,-0.2073974609375
15.336,316,2543,725,336,-0.738525390625,0.5343017578125,-0.2374267578125
15.340,315,2637,754,338,-0.777587890625,0.415283203125,-0.2333984375
15.341,315,2753,785,338,-0.798583984375,0.3214111328125,-0.22119140625
15.341,316,2844,828,343,-0.797607421875,0.2410888671875,-0.224365234375
15.354,315,3044,894,342,-0.80322265625,0.19091796875,-0.2281494140625
15.362,316,3147,912,344,-0.8255615234375,0.1939697265625,-0.2044677734375
15.370,311,3147,922,342,-0.84765625,0.22607421875,-0.17529296875
15.392,316,3147,860,487,-0.8701171875,0.24560546875,-0.17529296875
15.392,316,3147,826,584,-0.9215087890625,0.2435302734375,-0.1806640625
15.400,315,3147,805,675,-0.91943359375,0.191162109375,-0.177001953125
15.424,316,3147,767,976,-0.819091796875,0.1324462890625,-0.1685791015625
15.424,318,3147,762,1185,-0.7236328125,0.1767578125,-0.1373291015625
15.430,318,3147,805,1456,-0.6600341796875,0.312255859375,-0.07958984375
15.446,323,3147,955,1980,-0.5526123046875,0.4002685546875,0.009033203125
15.451,327,3147,1170,2242,-0.3428955078125,0.322509765625,0.1258544921875
15.460,330,3147,1348,2557,-0.3428955078125,0.322509765625,0.1258544921875
15.474,346,3147,1635,2890,0.0301513671875,0.0970458984375,0.4105224609375
15.482,347,3147,1816,3032,-0.0576171875,0.33154296875,0.3004150390625
15.494,354,3147,1874,3095,-0.0576171875,0.33154296875,0.3004150390625
15.504,359,3147,1826,3147,-0.9708251953125,1.3909912109375,-0.625732421875
15.514,360,3147,1803,3147,-1.50634765625,1.6512451171875,-1.1192626953125
15.538,361,3147,1750,3147,-1.50634765625,1.6512451171875,-1.1192626953125
15.538,361,3147,1759,3067,-1.9990234375,1.1234130859375,-1.1396484375
15.555,361,3147,1809,3035,-2.1273193359375,0.4385986328125,-0.571533203125
15.555,361,3147,1811,3058,-2.1273193359375,0.4385986328125,-0.571533203125
15.563,361,3147,1878,3115,-1.373046875,-0.694091796875,0.517333984375
15.571,361,3147,1826,3137,-1.2467041015625,0.04833984375,0.321044921875
15.579,360,3147,1798,3146,-1.2467041015625,0.04833984375,0.321044921875
15.597,359,3147,1711,3064,-1.5941162109375,1.2052001953125,-0.558349609375
15.602,359,3147,1624,2955,-1.4425048828125,0.876708984375,-0.4007568359375
15.625,356,3147,1480,2810,-1.4425048828125,0.876708984375,-0.4007568359375
15.625,346,3147,1250,2469,-0.780029296875,0.4969482421875,-0.050537109375
15.634,342,3147,1120,2293,-0.5306396484375,0.568603515625,-0.0616455078125
15.640,334,3147,1079,2014,-0.5306396484375,0.568603515625,-0.0616455078125
15.653,327,3147,1032,1487,-0.5565185546875,0.3453369140625,-0.149658203125
15.664,325,3147,1003,1146,-0.5565185546875,0.3453369140625,-0.149658203125
15.669,318,3147,968,862,-0.7236328125,0.2303466796875,-0.20166015625
15.683,321,3147,931,351,-0.850830078125,0.1680908203125,-0.2392578125
15.699,317,2937,874,349,-0.850830078125,0.1680908203125,-0.2392578125
15.700,302,2659,834,348,-0.8421630859375,0.1112060546875,-0.2672119140625
15.724,319,2301,778,347,-0.76904296875,0.0228271484375,-0.1962890625
15.726,317,2075,744,338,-0.76904296875,0.0228271484375,-0.1962890625
15.730,316,1854,723,338,-0.7314453125,0.11181640625,-0.118896484375
15.743,314,1774,707,336,-0.60595703125,0.3353271484375,-0.035400390625
15.751,318,1744,700,336,-0.60595703125,0.3353271484375,-0.035400390625
15.759,316,1790,656,336,-0.61083984375,0.446533203125,-0.08837890625
15.776,315,1821,713,336,-0.6680908203125,0.5245361328125,-0.19970703125
15.781,315,1918,704,338,-0.6680908203125,0.5245361328125,-0.19970703125
15.790,315,2076,731,338,-0.660888671875,0.4637451171875,-0.211669921875
15.803,314,2330,772,338,-0.6689453125,0.3193359375,-0.1953125
15.831,315,2505,797,343,-0.6689453125,0.3193359375,-0.1953125
15.832,316,2613,786,342,-0.683349609375,0.2691650390625,-0.203369140625
15.834,315,2964,864,344,-0.7132568359375,0.25390625,-0.211669921875
15.841,315,3147,887,347,-0.7132568359375,0.25390625,-0.211669921875
15.850,316,3147,898,586,-0.7044677734375,0.2705078125,-0.198974609375
15.869,316,3147,922,998,-0.75048828125,0.2613525390625,-0.1727294921875
15.872,318,3147,912,1231,-0.75048828125,0.2613525390625,-0.1727294921875
15.880,316,3147,949,1488,-0.7501220703125,0.2139892578125,-0.1712646484375
15.893,318,3147,1001,2028,-0.6524658203125,0.1324462890625,-0.1910400390625
15.904,321,3147,1129,2296,-0.5701904296875,0.10546875,-0.16357421875
15.910,327,3147,1317,2517,-0.4700927734375,0.13818359375,-0.056884765625
15.931,334,3147,1536,2840,-0.364501953125,0.2669677734375,0.1168212890625
15.932,344,3147,1610,2963,-0.378662109375,0.488037109375,0.21142578125
15.941,347,3147,1733,3071,-0.540771484375,0.67236328125,0.0633544921875
15.954,354,3147,1786,3147,-0.7930908203125,0.7515869140625,-0.24365234375
15.962,359,3147,1785,3147,-1.12158203125,0.8304443359375,-0.510986328125
15.975,360,3147,1850,3140,-1.4776611328125,0.9901123046875,-0.6812744140625
15.984,361,3147,1891,3076,-1.7752685546875,1.11962890625,-0.68994140625
15.991,363,3147,1948,3102,-1.998779296875,1.0150146484375,-0.439208984375
16.009,361,3147,1961,3098,-1.8953857421875,0.4952392578125,-0.0872802734375
16.014,361,3147,1996,3124,-1.3726806640625,0.0181884765625,0.199951171875
16.039,362,3147,2021,3134,-0.94970703125,0.2642822265625,0.217041015625
16.040,361,3147,2010,3126,-0.958740234375,0.9815673828125,-0.1279296875
16.044,361,3147,1941,3017,-1.2554931640625,1.36669921875,-0.498291015625
16.051,359,3147,1904,2908,-1.515380859375,1.028076171875,-0.5977783203125
16.060,356,3147,1838,2788,-1.5352783203125,0.399169921875,-0.4410400390625
16.081,348,3147,1643,2521,-1.3756103515625,0.1197509765625,-0.2735595703125
16.082,344,3147,1492,2240,-1.1541748046875,0.2747802734375,-0.2266845703125
16.089,338,3147,1330,2076,-0.9324951171875,0.4876708984375,-0.1942138671875
16.116,330,3147,1067,1615,-0.7333984375,0.4847412109375,-0.0887451171875
16.116,327,3147,1041,1260,-0.610595703125,0.36474609375,0.0108642578125
16.134,324,3147,978,917,-0.6199951171875,0.29833984375,0.0296630859375
16.135,321,3147,923,356,-0.6995849609375,0.2738037109375,0.0067138671875
16.141,317,2842,922,347,-0.759033203125,0.225830078125,-0.062744140625
16.150,316,2498,891,347,-0.7852783203125,0.1524658203125,-0.1739501953125
16.163,315,2061,785,338,-0.7669677734375,0.109375,-0.258544921875
16.172,310,1686,744,338,-0.719482421875,0.1243896484375,-0.2998046875
16.188,313,1531,683,334,-0.6761474609375,0.1663818359375,-0.283935546875
16.196,315,1250,697,332,-0.592529296875,0.19677734375,-0.2330322265625
16.201,313,1206,679,336,-0.5308837890625,0.2591552734375,-0.1998291015625
16.211,310,1209,639,332,-0.5643310546875,0.37939453125,-0.181396484375
16.238,310,1340,646,332,-0.5870361328125,0.46826171875,-0.1693115234375
16.239,295,1464,636,332,-0.5823974609375,0.4864501953125,-0.1375732421875
16.241,300,1785,638,334,-0.5888671875,0.456298828125,-0.068603515625
16.254,315,2057,673,334,-0.5955810546875,0.4036865234375,-0.0301513671875
16.261,314,2230,712,336,-0.6209716796875,0.36865234375,-0.0654296875
16.270,313,2458,680,344,-0.6685791015625,0.3421630859375,-0.15234375
16.283,314,2832,739,344,-0.723388671875,0.320556640625,-0.2333984375
16.292,315,3104,800,346,-0.763671875,0.3304443359375,-0.2578125
16.300,315,3147,855,458,-0.7471923828125,0.326416015625,-0.244384765625
16.313,316,3147,867,864,-0.697021484375,0.2864990234375,-0.2266845703125
16.322,316,3147,894,1149,-0.7113037109375,0.2808837890625,-0.1685791015625
16.330,324,3147,939,1416,-0.7113037109375,0.255615234375,-0.1339111328125
16.344,318,3147,1134,1913,-0.615478515625,0.2122802734375,-0.132080078125
16.351,327,3147,1336,2194,-0.518798828125,0.234619140625,-0.046630859375
16.360,328,3147,1501,2445,-0.4361572265625,0.2513427734375,0.0662841796875
16.373,346,3147,1693,2770,-0.3873291015625,0.2789306640625,0.1307373046875
16.382,351,3147,1808,2909,-0.504638671875,0.406005859375,0.06298828125
16.443,356,3147,1874,3015,-0.774169921875,0.6197509765625,-0.1766357421875
16.444,360,3147,1960,3127,-1.0550537109375,0.8646240234375,-0.4564208984375
16.444,361,3147,1996,3134,-1.327392578125,1.08740234375,-0.6688232421875
16.444,361,3147,1989,3101,-1.5693359375,1.1666259765625,-0.74609375
16.444,361,3147,1949,3056,-1.75439453125,1.0220947265625,-0.6129150390625
16.444,346,3147,1948,3065,-1.8587646484375,0.658203125,-0.38671875
16.454,363,3147,1973,3092,-1.6380615234375,0.1754150390625,-0.191650390625
16.465,361,3147,2024,3120,-1.24609375,0.066162109375,-0.0367431640625
16.471,361,3147,2032,3094,-1.208740234375,0.521728515625,-0.0830078125
16.480,362,3147,2005,3063,-1.4056396484375,0.9678955078125,-0.310791015625
16.493,360,3147,1963,2944,-1.4703369140625,1.01416015625,-0.424560546875
16.507,361,3147,1908,2758,-1.348388671875,0.802001953125,-0.3565673828125
16.509,359,3147,1810,2587,-1.1300048828125,0.5877685546875,-0.25537109375
16.524,347,3147,1610,2167,-0.924072265625,0.4708251953125,-0.198486328125
16.546,345,3147,1469,2012,-0.771728515625,0.39794921875,-0.1466064453125
16.546,324,3147,1294,1755,-0.6688232421875,0.315673828125,-0.0960693359375
16.556,328,3147,1185,1239,-0.634521484375,0.231689453125,-0.11083984375
16.565,327,3147,1178,938,-0.6807861328125,0.2052001953125,-0.1192626953125
16.570,323,3147,1055,720,-0.6807861328125,0.2052001953125,-0.1192626953125
16.584,316,3147,964,373,-0.7073974609375,0.1810302734375,-0.089599609375
16.592,321,3147,963,354,-0.66455078125,0.162353515625,-0.2042236328125
16.599,319,2991,920,351,-0.66455078125,0.162353515625,-0.2042236328125
16.621,319,2514,882,346,-0.68994140625,0.2760009765625,-0.2789306640625
16.622,316,2345,820,346,-0.7171630859375,0.337646484375,-0.213134765625
16.643,317,2190,820,346,-0.7171630859375,0.337646484375,-0.213134765625
16.647,316,2100,802,342,-0.677490234375,0.372802734375,-0.094482421875
16.651,316,2139,782,342,-0.658935546875,0.35009765625,-0.0784912109375
16.660,316,2279,753,345,-0.658935546875,0.35009765625,-0.0784912109375
16.677,316,2477,814,344,-0.6644287109375,0.2869873046875,-0.1065673828125
16.682,316,2625,845,346,-0.65478515625,0.3133544921875,-0.1158447265625
16.690,316,2757,890,347,-0.65478515625,0.3133544921875,-0.1158447265625
16.703,318,3073,958,345,-0.637939453125,0.36181640625,-0.1246337890625
16.726,316,3147,1004,348,-0.6591796875,0.3492431640625,-0.155029296875
16.726,304,3147,1054,456,-0.6591796875,0.3492431640625,-0.155029296875
16.749,318,3147,1058,767,-0.7835693359375,0.3726806640625,-0.209228515625
16.749,321,3147,1031,992,-0.8082275390625,0.3590087890625,-0.2042236328125
16.750,302,3147,1031,1122,-0.8082275390625,0.3590087890625,-0.2042236328125
16.763,323,3147,1078,1519,-0.75341796875,0.2431640625,-0.15234375
16.771,328,3147,1173,1865,-0.7103271484375,0.1944580078125,-0.113037109375
16.780,328,3147,1362,2062,-0.7103271484375,0.1944580078125,-0.113037109375
16.794,338,3147,1588,2421,-0.5250244140625,0.1363525390625,0.0301513671875
16.802,346,3147,1703,2541,-0.5250244140625,0.1363525390625,0.0301513671875
16.810,352,3147,1842,2698,-0.4952392578125,0.15576171875,0.0404052734375
16.835,356,3147,1960,2948,-0.7276611328125,0.64404296875,-0.2493896484375
16.835,360,3147,2019,3084,-0.7276611328125,0.64404296875,-0.2493896484375
16.867,359,3147,1996,3089,-0.9285888671875,1.020751953125,-0.4931640625
16.868,346,3147,1936,3147,-1.2950439453125,1.1968994140625,-0.659912109375
16.868,362,3147,2012,3147,-1.2950439453125,1.1968994140625,-0.659912109375
16.870,354,3147,1968,3147,-1.4373779296875,1.0113525390625,-0.53173828125
16.884,363,3147,1952,3092,-1.6502685546875,0.4344482421875,-0.0084228515625
16.892,363,3147,1987,3082,-1.6502685546875,0.4344482421875,-0.0084228515625
16.902,364,3147,2014,3121,-1.420654296875,-0.051025390625,0.2462158203125
16.913,361,3147,2014,3135,-1.1629638671875,0.40283203125,-0.012939453125
16.957,363,3147,2007,3112,-1.1629638671875,0.40283203125,-0.012939453125
16.958,362,3147,1967,3031,-1.4061279296875,1.000244140625,-0.4488525390625
16.958,360,3147,1860,2813,-1.3785400390625,0.6778564453125,-0.396728515625
16.958,359,3147,1798,2651,-1.3785400390625,0.6778564453125,-0.396728515625
16.960,356,3147,1686,2449,-1.1446533203125,0.3848876953125,-0.2078857421875
16.974,346,3147,1477,2098,-0.738037109375,0.48876953125,-0.147705078125
16.982,338,3147,1331,1834,-0.738037109375,0.48876953125,-0.147705078125
16.989,334,3147,1260,1497,-0.65087890625,0.4876708984375,-0.126708984375
17.003,328,3147,1191,933,-0.7877197265625,0.2637939453125,-0.1240234375
17.015,327,3147,1143,625,-0.7877197265625,0.2637939453125,-0.1240234375
17.019,324,3147,1091,364,-0.8341064453125,0.19091796875,-0.1109619140625
17.054,322,2769,1050,354,-0.826416015625,0.1578369140625,-0.155517578125
17.054,304,2478,960,328,-0.8070068359375,0.13720703125,-0.220458984375
17.055,316,2160,958,347,-0.7635498046875,0.1143798828125,-0.2218017578125
17.064,310,1572,913,346,-0.712646484375,0.140869140625,-0.16455078125
17.072,316,1499,855,345,-0.6673583984375,0.222900390625,-0.10400390625
17.079,316,1480,818,344,-0.6107177734375,0.3250732421875,-0.072509765625
17.094,313,1450,763,338,-0.5816650390625,0.4234619140625,-0.07763671875
17.102,316,1538,799,336,-0.608642578125,0.4705810546875,-0.11083984375
17.110,313,1600,793,342,-0.6611328125,0.454345703125,-0.1490478515625
17.160,315,1791,813,334,-0.70556640625,0.39892578125,-0.1795654296875
17.160,299,1773,874,336,-0.736083984375,0.3255615234375,-0.198486328125
17.160,316,1864,900,334,-0.7711181640625,0.2672119140625,-0.214111328125
17.160,316,2204,946,342,-0.8062744140625,0.2159423828125,-0.2183837890625
17.162,315,2379,975,338,-0.81689453125,0.149658203125,-0.2044677734375
17.170,315,2491,1029,346,-0.81640625,0.1181640625,-0.18603515625
17.184,315,2777,1051,344,-0.8326416015625,0.168701171875,-0.1654052734375
17.192,317,2973,1070,347,-0.8427734375,0.247802734375,-0.164306640625
17.200,316,3120,1045,347,-0.822509765625,0.2969970703125,-0.19287109375
17.214,316,3147,1105,572,-0.8037109375,0.328369140625,-0.2088623046875
17.222,316,3147,1155,811,-0.7911376953125,0.35400390625,-0.197509765625
17.242,321,3147,1188,1039,-0.745361328125,0.358642578125,-0.17919921875
17.266,329,3147,1357,1580,-0.648681640625,0.3045654296875,-0.1256103515625
17.268,327,3147,1490,1960,-0.4935302734375,0.1690673828125,-0.00244140625
17.268,333,3147,1632,2161,-0.310302734375,0.0345458984375,0.15185546875
17.274,347,3147,1960,2538,-0.16064453125,0.054931640625,0.252685546875
17.282,348,3147,2139,2750,-0.1240234375,0.280029296875,0.2454833984375
17.290,359,3147,2247,2891,-0.3123779296875,0.578857421875,0.0614013671875
17.303,359,3147,2345,3053,-0.714111328125,0.8538818359375,-0.2952880859375
17.312,361,3147,2354,3112,-1.183349609375,1.0833740234375,-0.660400390625
17.320,361,3147,2328,3147,-1.63427734375,1.218017578125,-0.9111328125
17.338,364,3147,2244,3082,-2.0860595703125,1.1241455078125,-1.0059814453125
17.342,369,3147,2258,3133,-2.445068359375,0.6658935546875,-0.751708984375
17.369,365,3147,2325,3143,-2.0975341796875,-0.1639404296875,-0.1522216796875
17.370,365,3147,2263,3147,-1.2515869140625,-0.6104736328125,0.4427490234375
17.372,364,3147,2335,3147,-0.83349609375,-0.1326904296875,0.51513671875
17.380,365,3147,2374,3147,-0.87109375,0.7442626953125,0.0302734375
17.394,364,3147,2337,3147,-1.174072265625,1.3514404296875,-0.453125
17.402,364,3147,2328,3140,-1.445556640625,1.2315673828125,-0.634033203125
17.410,363,3147,2261,2992,-1.440185546875,0.72021484375,-0.527099609375
17.424,361,3147,2087,2715,-1.2747802734375,0.4232177734375,-0.344482421875
17.440,359,3147,1961,2578,-1.051513671875,0.40869140625,-0.2271728515625
17.440,354,3147,1838,2319,-0.8577880859375,0.45849609375,-0.1488037109375
17.474,347,3147,1647,2032,-0.7391357421875,0.4228515625,-0.068115234375
