time,compression0,compression1,compression2,compression3,accel_x,accel_y,accel_z
0.000,306,1104,1058,324,-0.82958984375,0.2015380859375,-0.4979248046875
0.015,306,1129,1083,324,-0.83837890625,0.2230224609375,-0.527099609375
0.040,307,1118,1081,324,-0.83984375,0.232421875,-0.5208740234375
0.040,310,1143,1056,323,-0.83984375,0.232421875,-0.5208740234375
0.042,305,1136,1097,325,-0.8389892578125,0.2327880859375,-0.4945068359375
0.051,306,1143,1093,327,-0.83740234375,0.2232666015625,-0.49658203125
0.058,306,1173,1107,324,-0.83740234375,0.2232666015625,-0.49658203125
0.072,306,1225,1093,324,-0.833740234375,0.2059326171875,-0.4981689453125
0.080,306,1224,1104,327,-0.8323974609375,0.1993408203125,-0.4959716796875
0.088,304,1236,1101,327,-0.8323974609375,0.1993408203125,-0.4959716796875
0.102,304,1216,1105,324,-0.8341064453125,0.194091796875,-0.503662109375
0.110,306,1196,1115,325,-0.8341064453125,0.194091796875,-0.503662109375
0.119,305,1202,1118,327,-0.8409423828125,0.191162109375,-0.509521484375
0.150,306,1160,1122,324,-0.8558349609375,0.1842041015625,-0.51513671875
0.151,306,1172,1131,325,-0.8558349609375,0.1842041015625,-0.51513671875
0.151,305,1143,1139,325,-0.8560791015625,0.186767578125,-0.5087890625
0.162,305,1138,1148,324,-0.84375,0.1993408203125,-0.48291015625
0.173,306,1145,1146,324,-0.84375,0.1993408203125,-0.48291015625
0.178,306,1126,1153,324,-0.839111328125,0.1976318359375,-0.4713134765625
0.192,305,1116,1169,324,-0.8536376953125,0.1822509765625,-0.4698486328125
0.204,301,1031,1173,323,-0.8536376953125,0.1822509765625,-0.4698486328125
0.208,306,912,1167,324,-0.8702392578125,0.177490234375,-0.484619140625
0.223,305,794,1117,322,-0.892333984375,0.1995849609375,-0.519287109375
0.243,304,720,1078,321,-0.892333984375,0.1995849609375,-0.519287109375
0.243,304,657,1043,323,-0.89208984375,0.2208251953125,-0.5234375
0.253,304,666,1022,318,-0.87158203125,0.1961669921875,-0.500732421875
0.260,304,617,975,321,-0.87158203125,0.1961669921875,-0.500732421875
0.268,304,591,946,319,-0.847412109375,0.1708984375,-0.479736328125
0.282,304,540,883,318,-0.8114013671875,0.1776123046875,-0.44873046875
0.291,304,523,846,324,-0.8114013671875,0.1776123046875,-0.44873046875
0.298,306,531,827,322,-0.817138671875,0.1923828125,-0.448974609375
0.313,304,531,813,321,-0.8287353515625,0.2034912109375,-0.4539794921875
0.321,304,525,799,319,-0.843017578125,0.2147216796875,-0.4573974609375
0.330,304,539,794,321,-0.8525390625,0.2283935546875,-0.4600830078125
0.364,302,532,778,318,-0.84912109375,0.2354736328125,-0.4588623046875
0.365,305,551,794,318,-0.8328857421875,0.227783203125,-0.45263671875
0.366,305,552,788,319,-0.810791015625,0.2080078125,-0.4442138671875
0.375,304,620,785,322,-0.7928466796875,0.1851806640625,-0.4351806640625
0.381,306,698,816,323,-0.78857421875,0.17138671875,-0.4263916015625
0.389,304,767,815,323,-0.8004150390625,0.179931640625,-0.41845703125
0.416,304,845,794,323,-0.82470703125,0.2066650390625,-0.4161376953125
0.440,302,888,830,324,-0.85302734375,0.2286376953125,-0.4208984375
0.442,304,922,830,324,-0.874755859375,0.229248046875,-0.4261474609375
0.442,304,989,860,324,-0.8841552734375,0.2083740234375,-0.4281005859375
0.460,306,1037,867,326,-0.8836669921875,0.181640625,-0.4298095703125
0.460,304,1097,890,327,-0.873779296875,0.17041015625,-0.433837890625
0.462,304,1157,917,327,-0.861083984375,0.177734375,-0.443115234375
0.475,304,1243,922,327,-0.85546875,0.189453125,-0.4488525390625
0.479,304,1369,959,329,-0.85205078125,0.192138671875,-0.433837890625
0.492,307,1527,1007,328,-0.845703125,0.1851806640625,-0.4073486328125
0.500,302,1675,1055,331,-0.8414306640625,0.1812744140625,-0.3896484375
0.512,308,1801,1091,332,-0.843017578125,0.18994140625,-0.389404296875
0.522,306,2056,1123,331,-0.850830078125,0.204833984375,-0.41064453125
0.540,304,2139,1151,334,-0.862060546875,0.21630859375,-0.446044921875
0.541,308,2271,1155,318,-0.8741455078125,0.2230224609375,-0.4786376953125
0.553,310,2421,1167,334,-0.8861083984375,0.2298583984375,-0.486328125
0.561,308,2541,1172,338,-0.89501953125,0.2320556640625,-0.4639892578125
0.568,305,2613,1184,342,-0.89306640625,0.2169189453125,-0.430419921875
0.582,308,2867,1149,338,-0.8765869140625,0.189697265625,-0.4005126953125
0.591,307,2981,1137,345,-0.846923828125,0.1651611328125,-0.376953125
0.600,309,3147,1149,345,-0.8038330078125,0.1455078125,-0.3636474609375
0.615,310,3147,1129,484,-0.756103515625,0.1229248046875,-0.360107421875
0.621,308,3147,1129,636,-0.713134765625,0.085205078125,-0.3387451171875
0.646,308,3147,1079,942,-0.6796875,0.0384521484375,-0.2752685546875
0.646,306,3147,1003,1455,-0.66552734375,0.0228271484375,-0.1754150390625
0.651,309,3147,996,1769,-0.656982421875,0.0667724609375,-0.056396484375
0.658,308,3147,1000,1968,-0.6097412109375,0.140625,0.0235595703125
0.672,308,3147,998,2192,-0.4517822265625,0.184814453125,-0.063232421875
0.680,307,3147,1014,2379,-0.1031494140625,0.171630859375,-0.269287109375
0.688,310,3147,1018,2647,0.30322265625,0.149169921875,-0.4036865234375
0.702,310,3147,1111,3106,0.30712890625,0.2667236328125,-0.50732421875
0.720,308,3147,1217,3147,-0.314208984375,0.6253662109375,-0.7115478515625
0.721,313,3147,1380,3147,-1.1898193359375,1.141357421875,-0.9140625
0.744,318,3147,1504,3147,-1.9169921875,1.44189453125,-0.930908203125
0.744,318,3147,1552,3147,-2.3646240234375,1.016845703125,-0.837158203125
0.753,321,3147,1552,3147,-2.4857177734375,0.0677490234375,-0.7491455078125
0.762,319,3147,1629,3147,-2.349365234375,-0.7744140625,-0.464111328125
0.775,319,3147,1659,3147,-1.934814453125,-1.2593994140625,0.1361083984375
0.779,319,3147,1665,3147,-1.3404541015625,-0.9586181640625,0.604736328125
0.792,318,3147,1610,3147,-0.95947265625,-0.0626220703125,0.522705078125
0.800,318,3147,1595,3147,-0.8602294921875,0.4866943359375,0.05859375
0.808,318,3147,1638,3147,-0.94384765625,0.688720703125,-0.480224609375
0.822,316,3147,1636,3147,-1.2716064453125,0.8155517578125,-0.8228759765625
0.846,319,3147,1602,3147,-1.566162109375,0.5814208984375,-0.75927734375
0.847,318,3147,1588,3147,-1.4853515625,0.063720703125,-0.3829345703125
0.853,317,3147,1543,3147,-1.1939697265625,-0.2674560546875,0.0048828125
0.861,317,3147,1494,3147,-0.982421875,-0.2774658203125,0.1561279296875
0.869,317,3147,1469,3147,-0.92333984375,-0.0994873046875,0.0789794921875
0.882,316,3147,1427,3147,-0.9383544921875,0.12744140625,-0.1026611328125
0.891,316,3147,1411,3147,-0.9501953125,0.29248046875,-0.3031005859375
0.898,315,3147,1413,3107,-0.927001953125,0.35009765625,-0.42529296875
0.912,315,3147,1393,2769,-0.8800048828125,0.285888671875,-0.4119873046875
0.921,310,3147,1377,2497,-0.8338623046875,0.122314453125,-0.2938232421875
0.928,315,3147,1372,2246,-0.7962646484375,-0.0419921875,-0.165771484375
0.949,315,3147,1287,1745,-0.7752685546875,-0.09716796875,-0.1146240234375
0.950,314,3147,1175,1343,-0.7882080078125,-0.02978515625,-0.14111328125
0.958,313,3147,1056,949,-0.8162841796875,0.065185546875,-0.2005615234375
0.972,312,3073,891,342,-0.8211669921875,0.10595703125,-0.2750244140625
0.980,310,2514,865,346,-0.791748046875,0.10888671875,-0.34033203125
0.989,308,2178,787,338,-0.747802734375,0.123046875,-0.36767578125
1.002,308,1487,721,333,-0.732666015625,0.1617431640625,-0.36767578125
1.011,306,1076,713,328,-0.7578125,0.1934814453125,-0.3551025390625
1.024,306,846,739,326,-0.7578125,0.1934814453125,-0.3551025390625
1.032,304,566,714,316,-0.863525390625,0.1619873046875,-0.320556640625
1.041,300,404,735,322,-0.9581298828125,0.1171875,-0.31787109375
1.050,302,402,706,317,-0.9581298828125,0.1171875,-0.31787109375
1.062,302,371,666,321,-0.876953125,0.1192626953125,-0.29638671875
1.070,304,359,625,318,-0.79931640625,0.1405029296875,-0.3519287109375
1.079,300,348,625,317,-0.79931640625,0.1405029296875,-0.3519287109375
1.102,301,361,600,317,-0.7427978515625,0.1773681640625,-0.3961181640625
1.102,302,330,631,318,-0.7099609375,0.1607666015625,-0.3968505859375
1.108,302,328,646,318,-0.7099609375,0.1607666015625,-0.3968505859375
1.126,302,353,644,316,-0.7095947265625,-0.0372314453125,-0.269287109375
1.130,301,359,628,323,-0.6617431640625,-0.00341796875,-0.25537109375
1.139,302,438,673,318,-0.6617431640625,-0.00341796875,-0.25537109375
1.166,304,656,728,326,-0.6251220703125,0.0438232421875,-0.213623046875
1.166,302,980,797,329,-0.6392822265625,0.023681640625,-0.1583251953125
1.168,304,1597,820,344,-0.6392822265625,0.023681640625,-0.1583251953125
1.182,305,2808,841,347,-0.689453125,0.1546630859375,-0.1719970703125
1.190,306,3147,829,375,-0.724365234375,0.3079833984375,-0.2493896484375
1.202,308,3147,827,754,-0.724365234375,0.3079833984375,-0.2493896484375
1.212,309,3147,834,1468,-0.572509765625,0.187255859375,-0.26220703125
1.220,306,3147,788,1743,-0.572509765625,0.187255859375,-0.26220703125
1.228,304,3147,766,2024,-0.373779296875,-0.017578125,-0.157470703125
1.245,304,3147,837,2456,0.2684326171875,-0.12255859375,-0.0296630859375
1.255,307,3147,827,2710,0.2684326171875,-0.12255859375,-0.0296630859375
1.258,306,3147,947,3024,0.123779296875,0.1929931640625,-0.093505859375
1.276,315,3147,1267,3147,-1.3436279296875,1.524658203125,-0.5108642578125
1.280,315,3147,1411,3147,-1.3436279296875,1.524658203125,-0.5108642578125
1.289,316,3147,1541,3147,-1.8040771484375,1.357177734375,-0.7310791015625
1.309,321,3147,1735,3147,-1.942626953125,-0.1221923828125,-0.852294921875
1.311,305,3147,1766,3147,-1.942626953125,-0.1221923828125,-0.852294921875
1.318,323,3147,1748,3147,-2.2657470703125,-0.6065673828125,-0.68310546875
1.332,321,3147,1744,3147,-2.372802734375,-1.116455078125,0.2401123046875
1.340,317,3147,1691,3147,-2.372802734375,-1.116455078125,0.2401123046875
1.364,319,3147,1656,3147,-1.5521240234375,-0.74462890625,0.6405029296875
1.365,323,3147,1704,3147,-0.771240234375,0.9791259765625,-0.454833984375
1.371,318,3147,1711,3147,-0.771240234375,0.9791259765625,-0.454833984375
1.379,318,3147,1693,3147,-1.3118896484375,1.1212158203125,-1.0311279296875
1.393,321,3147,1653,3147,-1.6226806640625,0.1058349609375,-0.60302734375
1.400,318,3147,1602,3147,-1.6226806640625,0.1058349609375,-0.60302734375
1.416,318,3147,1569,3147,-1.3697509765625,-0.052734375,-0.25390625
1.422,316,3147,1415,3147,-1.0771484375,0.011474609375,-0.1343994140625
1.434,315,3147,1351,3147,-1.0771484375,0.011474609375,-0.1343994140625
1.438,310,3147,1251,3147,-1.0142822265625,-0.044189453125,-0.085693359375
1.452,313,3147,1081,2741,-0.933837890625,-0.111328125,0.010498046875
1.474,308,3147,1003,2442,-0.8209228515625,-0.1180419921875,0.017333984375
1.474,310,3147,920,2156,-0.7159423828125,-0.03662109375,-0.072265625
1.482,307,3147,923,1480,-0.65185546875,0.0755615234375,-0.13525390625
1.491,305,3147,904,1053,-0.6044921875,0.0946044921875,-0.1671142578125
1.502,305,3147,883,499,-0.5706787109375,0.036376953125,-0.2044677734375
1.521,304,2430,813,338,-0.5736083984375,0.054443359375,-0.2554931640625
1.521,304,2085,826,334,-0.60888671875,0.1837158203125,-0.3345947265625
1.536,304,1837,780,336,-0.6353759765625,0.3194580078125,-0.4097900390625
1.542,304,1494,753,329,-0.6473388671875,0.36767578125,-0.4422607421875
1.552,304,1067,767,328,-0.6817626953125,0.326416015625,-0.43408203125
1.567,305,867,785,324,-0.70751953125,0.2469482421875,-0.4029541015625
1.574,302,766,780,324,-0.72021484375,0.17919921875,-0.3612060546875
1.580,302,715,763,323,-0.75927734375,0.1422119140625,-0.3228759765625
1.589,302,689,786,323,-0.8177490234375,0.140625,-0.2967529296875
1.603,301,654,756,323,-0.854736328125,0.1783447265625,-0.2774658203125
1.614,304,680,755,321,-0.8609619140625,0.2237548828125,-0.2669677734375
1.627,304,619,733,322,-0.8662109375,0.2288818359375,-0.2696533203125
1.638,302,675,746,321,-0.8690185546875,0.1995849609375,-0.2703857421875
1.641,302,728,784,322,-0.8507080078125,0.165771484375,-0.257568359375
1.649,304,844,800,323,-0.8157958984375,0.1353759765625,-0.2384033203125
1.667,304,1399,800,327,-0.77880859375,0.1041259765625,-0.2237548828125
1.671,304,1826,787,338,-0.7462158203125,0.0748291015625,-0.224365234375
1.679,304,2124,761,336,-0.7236328125,0.05224609375,-0.2408447265625
1.692,305,2756,811,346,-0.714599609375,0.0225830078125,-0.2569580078125
1.701,304,3147,841,357,-0.721923828125,-0.02978515625,-0.248291015625
1.709,304,3147,835,691,-0.7379150390625,-0.083740234375,-0.2039794921875
1.740,304,3147,788,1494,-0.7408447265625,-0.1075439453125,-0.1561279296875
1.743,304,3147,829,1943,-0.7099609375,-0.0810546875,-0.1298828125
1.743,302,3147,800,2306,-0.649658203125,0.0147705078125,-0.136474609375
1.752,302,3147,763,2763,-0.564697265625,0.162109375,-0.1318359375
1.771,304,3147,720,2951,-0.4151611328125,0.23974609375,-0.0003662109375
1.771,306,3147,754,3048,-0.2047119140625,0.1505126953125,0.185546875
1.786,304,3147,746,3147,0.015625,0.0570068359375,0.20654296875
1.793,305,3147,871,3147,0.0052490234375,0.17919921875,0.03125
1.799,306,3147,922,3147,-0.445556640625,0.4449462890625,-0.2464599609375
1.813,310,3147,1078,3147,-1.0654296875,0.5302734375,-0.62841796875
1.821,313,3147,1289,3147,-1.5750732421875,0.4681396484375,-1.113037109375
1.828,316,3147,1429,3147,-2.02099609375,0.53515625,-1.431396484375
1.854,316,3147,1580,3147,-2.453857421875,0.5107421875,-1.358642578125
1.854,325,3147,1555,3147,-2.7786865234375,0.0941162109375,-0.9345703125
1.859,315,3147,1610,3147,-2.676513671875,-0.616943359375,-0.1103515625
1.883,316,3147,1543,3147,-1.8931884765625,-0.9200439453125,0.686767578125
1.883,316,3147,1453,3147,-0.929931640625,-0.34765625,0.6851806640625
1.889,316,3147,1452,3147,-0.5003662109375,0.358154296875,-0.0025634765625
1.903,316,3147,1529,3147,-0.748046875,0.76513671875,-0.7135009765625
1.914,316,3147,1544,3147,-1.3455810546875,0.9390869140625,-1.0390625
1.918,316,3147,1546,3147,-1.724609375,0.6644287109375,-0.916748046875
1.933,318,3147,1597,3147,-1.64599609375,0.2117919921875,-0.5364990234375
1.953,317,3147,1584,3147,-1.3680419921875,-0.0333251953125,-0.1446533203125
1.954,318,3147,1582,3147,-1.1932373046875,-0.13232421875,0.0579833984375
1.962,319,3147,1541,3147,-1.1639404296875,-0.146240234375,0.044189453125
1.974,318,3147,1518,3147,-1.1478271484375,-0.051513671875,-0.047607421875
1.990,316,3147,1480,3147,-1.0755615234375,0.0753173828125,-0.1102294921875
1.992,321,3147,1422,3147,-0.9686279296875,0.1214599609375,-0.1351318359375
2.000,316,3147,1399,3147,-0.8409423828125,0.0653076171875,-0.16162109375
2.008,313,3147,1308,3048,-0.7039794921875,-0.0361328125,-0.1536865234375
2.022,313,3147,1281,2586,-0.604248046875,-0.129638671875,-0.0167236328125
2.030,313,3147,1214,2167,-0.556640625,-0.1861572265625,0.149658203125
2.039,313,3147,1163,1750,-0.5277099609375,-0.194580078125,0.13134765625
2.056,308,3147,1133,1097,-0.51611328125,-0.12939453125,-0.0794677734375
2.066,309,3147,1050,803,-0.53515625,0.0439453125,-0.3287353515625
2.081,308,3147,963,607,-0.574462890625,0.2799072265625,-0.4659423828125
2.084,308,3147,859,354,-0.6297607421875,0.4371337890625,-0.484375
2.090,308,3147,932,342,-0.700927734375,0.447998046875,-0.4677734375
2.101,308,3034,947,338,-0.751708984375,0.3612060546875,-0.4197998046875
2.113,306,3028,959,338,-0.769287109375,0.2611083984375,-0.3345947265625
2.120,306,3093,962,338,-0.7955322265625,0.1903076171875,-0.2777099609375
2.128,308,3147,907,344,-0.7955322265625,0.1903076171875,-0.2777099609375
2.142,308,3147,918,409,-0.8917236328125,0.1771240234375,-0.3341064453125
2.151,308,3147,912,504,-0.90625,0.2047119140625,-0.372314453125
2.159,308,3147,934,572,-0.90625,0.2047119140625,-0.372314453125
2.190,308,3147,947,735,-0.904052734375,0.1492919921875,-0.3175048828125
2.191,306,3147,962,816,-0.8922119140625,0.1156005859375,-0.247314453125
2.191,308,3147,986,913,-0.8922119140625,0.1156005859375,-0.247314453125
2.204,310,3147,1050,1095,-0.83154296875,0.071533203125,-0.1629638671875
2.211,310,3147,1078,1222,-0.796142578125,0.0740966796875,-0.1575927734375
2.218,313,3147,1093,1386,-0.796142578125,0.0740966796875,-0.1575927734375
2.232,308,3147,1067,1652,-0.7454833984375,0.0360107421875,-0.159912109375
2.240,308,3147,1069,1820,-0.7166748046875,-0.0599365234375,-0.1546630859375
2.254,308,3147,1101,1989,-0.7166748046875,-0.0599365234375,-0.1546630859375
2.273,310,3147,1067,2330,-0.702880859375,-0.1568603515625,-0.1097412109375
2.274,313,3147,990,2587,-0.69482421875,-0.02099609375,-0.060546875
2.295,308,3147,951,2820,-0.69482421875,-0.02099609375,-0.060546875
2.295,306,3147,874,3147,-0.372314453125,0.3912353515625,0.0782470703125
2.301,306,3147,912,3147,-0.0494384765625,0.3585205078125,0.183837890625
2.308,308,3147,1003,3147,-0.0494384765625,0.3585205078125,0.183837890625
2.322,310,3147,1305,3147,0.2685546875,-0.023681640625,-0.03466796875
2.333,313,3147,1411,3147,-0.2857666015625,0.3094482421875,-0.3779296875
2.340,314,3147,1492,3147,-0.2857666015625,0.3094482421875,-0.3779296875
2.357,318,3147,1622,3147,-1.7049560546875,1.290283203125,-0.9525146484375
2.361,322,3147,1733,3147,-1.7049560546875,1.290283203125,-0.9525146484375
2.386,321,3147,1796,3147,-2.154296875,1.181884765625,-0.9083251953125
2.386,323,3147,1801,3147,-2.7596435546875,-0.6611328125,-0.43603515625
2.393,321,3147,1808,3147,-2.7596435546875,-0.6611328125,-0.43603515625
2.402,321,3147,1781,3147,-2.741943359375,-1.2540283203125,-0.0771484375
2.414,318,3147,1659,3147,-1.02734375,-0.29638671875,0.4818115234375
2.421,321,3147,1681,3147,-1.02734375,-0.29638671875,0.4818115234375
2.429,318,3147,1715,3147,-0.4344482421875,0.6158447265625,-0.060791015625
2.443,321,3147,1757,3147,-1.46826171875,0.9578857421875,-0.9852294921875
2.461,321,3147,1781,3147,-1.46826171875,0.9578857421875,-0.9852294921875
2.461,317,3147,1770,3147,-1.7757568359375,0.393310546875,-0.7685546875
2.494,318,3147,1757,3147,-1.358642578125,-0.0643310546875,-0.1246337890625
2.495,318,3147,1757,3147,-1.358642578125,-0.0643310546875,-0.1246337890625
2.495,318,3147,1744,3147,-1.2606201171875,0.0626220703125,-0.1146240234375
2.503,317,3147,1681,3147,-1.2318115234375,0.3011474609375,-0.27783203125
2.519,318,3147,1635,3147,-1.2318115234375,0.3011474609375,-0.27783203125
2.520,300,3147,1613,3147,-1.1292724609375,0.330322265625,-0.253662109375
2.533,316,3147,1537,3147,-0.7513427734375,-0.019287109375,-0.1041259765625
2.541,316,3147,1499,3147,-0.7513427734375,-0.019287109375,-0.1041259765625
2.549,316,3147,1428,3147,-0.6163330078125,-0.1259765625,-0.021484375
2.563,313,3147,1395,2737,-0.5576171875,-0.168701171875,0.01904296875
2.570,315,3147,1380,2347,-0.58740234375,-0.1715087890625,0.0733642578125
2.588,315,3147,1357,1949,-0.6605224609375,-0.1129150390625,0.11279296875
2.593,314,3147,1224,1173,-0.7008056640625,-0.0423583984375,0.0341796875
2.607,315,3147,1173,813,-0.69140625,-0.01171875,-0.160400390625
2.609,308,3147,1056,470,-0.6552734375,0.0260009765625,-0.3446044921875
2.627,315,2430,996,338,-0.6302490234375,0.1163330078125,-0.4127197265625
2.630,310,2113,944,345,-0.6483154296875,0.22265625,-0.3880615234375
2.638,308,1848,946,336,-0.7039794921875,0.284912109375,-0.3388671875
2.653,308,1509,936,329,-0.748291015625,0.288330078125,-0.28564453125
2.664,308,1550,951,332,-0.7720947265625,0.2655029296875,-0.2496337890625
2.670,310,1611,944,330,-0.7987060546875,0.238525390625,-0.2552490234375
2.702,308,2008,986,336,-0.7991943359375,0.2081298828125,-0.2874755859375
2.703,296,2260,1014,342,-0.7781982421875,0.16650390625,-0.305908203125
2.703,308,2490,1025,338,-0.7747802734375,0.122802734375,-0.2840576171875
2.716,307,2879,1057,344,-0.7950439453125,0.10498046875,-0.2325439453125
2.721,310,3051,1092,347,-0.82275390625,0.122314453125,-0.182373046875
2.729,309,3147,1109,354,-0.834228515625,0.1436767578125,-0.1605224609375
2.742,310,3147,1157,660,-0.8216552734375,0.132080078125,-0.16455078125
2.751,312,3147,1163,873,-0.794921875,0.0933837890625,-0.173095703125
2.767,310,3147,1183,1091,-0.7618408203125,0.0528564453125,-0.1871337890625
2.773,313,3147,1191,1443,-0.7381591796875,0.028076171875,-0.2080078125
2.784,312,3147,1162,1669,-0.7310791015625,0.0281982421875,-0.1962890625
2.808,312,3147,1108,1954,-0.7110595703125,0.0616455078125,-0.1314697265625
2.809,307,3147,938,2473,-0.626220703125,0.1436767578125,-0.043701171875
2.812,304,3147,898,2785,-0.443603515625,0.199462890625,0.0240478515625
2.820,306,3147,865,3003,-0.1767578125,0.116943359375,0.0535888671875
2.834,305,3147,947,3147,0.0775146484375,0.003662109375,0.080078125
2.844,308,3147,1018,3147,0.1358642578125,0.0782470703125,0.1075439453125
2.853,310,3147,1160,3147,-0.1324462890625,0.28857421875,0.086181640625
2.869,313,3147,1343,3147,-0.65478515625,0.3536376953125,-0.0093994140625
2.871,313,3147,1404,3147,-1.2313232421875,0.23681640625,-0.1939697265625
2.880,316,3147,1529,3147,-1.718994140625,0.264404296875,-0.5069580078125
2.907,316,3147,1662,3147,-2.1058349609375,0.52392578125,-0.8482666015625
2.907,316,3147,1678,3147,-2.4351806640625,0.5062255859375,-1.027099609375
2.912,316,3147,1600,3147,-2.708984375,0.0396728515625,-0.94091796875
2.925,315,3147,1545,3147,-2.684326171875,-0.4517822265625,-0.4635009765625
2.932,315,3147,1490,3147,-1.95263671875,-0.5535888671875,0.211181640625
2.940,315,3147,1492,3147,-0.9267578125,-0.0013427734375,0.3985595703125
2.954,316,3147,1569,3147,-0.604736328125,0.7706298828125,-0.11962890625
2.974,316,3147,1610,3147,-1.12890625,0.99951171875,-0.6976318359375
2.974,316,3147,1624,3147,-1.73486328125,0.5770263671875,-0.826904296875
2.984,316,3147,1595,3147,-1.85546875,0.07177734375,-0.619140625
3.012,317,3147,1591,3147,-1.6195068359375,-0.0225830078125,-0.3876953125
3.012,316,3147,1557,3147,-1.3621826171875,0.147705078125,-0.2877197265625
3.014,313,3147,1527,3147,-1.2003173828125,0.2435302734375,-0.2430419921875
3.023,315,3147,1494,3147,-1.1031494140625,0.2110595703125,-0.1629638671875
3.030,315,3147,1469,3147,-1.031982421875,0.1600341796875,-0.0562744140625
3.044,313,3147,1358,3147,-0.9442138671875,0.09619140625,0.03564453125
3.052,316,3147,1294,3139,-0.8101806640625,-0.0421142578125,0.0947265625
3.060,313,3147,1216,2795,-0.635498046875,-0.205078125,0.1046142578125
3.079,313,3147,1224,2266,-0.517822265625,-0.27490234375,0.0953369140625
3.083,310,3147,1261,1865,-0.5189208984375,-0.2191162109375,0.10693359375
3.101,315,3147,1217,1429,-0.568359375,-0.0849609375,0.0853271484375
3.105,310,3147,1063,562,-0.568359375,0.0418701171875,-0.035400390625
3.120,315,3134,1054,356,-0.510986328125,0.112548828125,-0.2314453125
3.120,306,2797,963,351,-0.48388671875,0.1844482421875,-0.390869140625
3.134,306,2190,883,346,-0.5501708984375,0.288330078125,-0.43798828125
3.144,308,1709,816,342,-0.6624755859375,0.344482421875,-0.404296875
3.150,308,1613,832,334,-0.738525390625,0.2703857421875,-0.345947265625
3.163,306,1496,827,336,-0.769775390625,0.13671875,-0.2972412109375
3.177,306,1577,840,342,-0.803955078125,0.0784912109375,-0.2833251953125
3.181,306,1803,869,338,-0.8443603515625,0.1275634765625,-0.3013916015625
3.202,306,2019,905,342,-0.8594970703125,0.2138671875,-0.3226318359375
3.203,306,2129,906,347,-0.860107421875,0.2392578125,-0.3218994140625
3.211,308,2244,933,351,-0.8663330078125,0.19287109375,-0.294921875
3.224,304,2534,963,359,-0.8785400390625,0.143798828125,-0.2501220703125
3.233,308,2697,1004,363,-0.8807373046875,0.1214599609375,-0.2105712890625
3.240,308,2850,1037,373,-0.8541259765625,0.09033203125,-0.195556640625
3.253,308,3115,1091,376,-0.8062744140625,0.0380859375,-0.1917724609375
3.263,308,3147,1101,433,-0.7489013671875,-0.0242919921875,-0.1845703125
3.280,308,3147,1050,578,-0.693359375,-0.100341796875,-0.1766357421875
3.284,308,3147,978,840,-0.6800537109375,-0.1746826171875,-0.1702880859375
3.315,308,3147,925,1026,-0.722412109375,-0.2047119140625,-0.158203125
3.315,306,3147,859,1185,-0.783447265625,-0.1512451171875,-0.1414794921875
3.315,307,3147,957,1634,-0.7890625,0.0054931640625,-0.1268310546875
3.323,300,3147,959,1892,-0.6290283203125,0.23193359375,-0.1099853515625
3.330,306,3147,968,2110,-0.28076171875,0.3851318359375,-0.087158203125
3.344,306,3147,947,2404,0.0914306640625,0.3690185546875,-0.020751953125
3.353,307,3147,1005,2612,0.2354736328125,0.3074951171875,0.106201171875
3.360,308,3147,1034,2898,0.009765625,0.3819580078125,0.149658203125
3.381,311,3147,1236,3147,-0.5067138671875,0.60302734375,-0.08544921875
3.384,311,3147,1294,3147,-1.0845947265625,0.89306640625,-0.57958984375
3.390,308,3147,1326,3147,-1.0845947265625,0.89306640625,-0.57958984375
3.420,316,3147,1677,3147,-1.739990234375,0.976318359375,-1.1864013671875
3.420,318,3147,1742,3147,-1.98095703125,0.4404296875,-0.85986328125
3.420,321,3147,1697,3147,-1.98095703125,0.4404296875,-0.85986328125
3.437,318,3147,1733,3147,-2.68359375,-0.7255859375,-0.2227783203125
3.442,318,3147,1700,3147,-2.46875,-0.9432373046875,0.2703857421875
3.450,318,3147,1625,3147,-2.46875,-0.9432373046875,0.2703857421875
3.463,316,3147,1629,3147,-0.8228759765625,0.1396484375,0.1895751953125
3.473,316,3147,1686,3147,-0.7625732421875,0.8607177734375,-0.6285400390625
3.482,316,3147,1695,3147,-0.7625732421875,0.8607177734375,-0.6285400390625
3.494,318,3147,1702,3147,-1.7906494140625,0.5960693359375,-0.9993896484375
3.502,316,3147,1709,3147,-1.7471923828125,0.1514892578125,-0.5926513671875
3.531,316,3147,1727,3147,-1.7471923828125,0.1514892578125,-0.5926513671875
3.531,318,3147,1716,3147,-1.1795654296875,0.142822265625,-0.1873779296875
3.532,318,3147,1683,3147,-1.066650390625,0.1865234375,-0.1549072265625
3.545,317,3147,1646,3147,-1.066650390625,0.1865234375,-0.1549072265625
3.554,316,3147,1615,3147,-0.93310546875,0.0848388671875,-0.036865234375
3.562,316,3147,1610,3147,-0.827392578125,-0.0238037109375,-0.04443359375
3.570,315,3147,1580,2973,-0.827392578125,-0.0238037109375,-0.04443359375
3.584,315,3147,1469,2463,-0.563720703125,-0.1099853515625,-0.0762939453125
3.593,314,3147,1488,2204,-0.563720703125,-0.1099853515625,-0.0762939453125
3.600,315,3147,1433,1892,-0.5218505859375,-0.1121826171875,0.0111083984375
3.622,314,3147,1317,1223,-0.6146240234375,0.1015625,0.0008544921875
3.622,316,3147,1241,738,-0.6146240234375,0.1015625,0.0008544921875
3.630,315,3147,1134,359,-0.625,0.200927734375,-0.177001953125
3.651,310,2576,1071,346,-0.6544189453125,0.2568359375,-0.4237060546875
3.652,310,2266,987,351,-0.6544189453125,0.2568359375,-0.4237060546875
3.660,308,1970,923,345,-0.7064208984375,0.2652587890625,-0.42431640625
3.673,310,1659,895,332,-0.740966796875,0.063720703125,-0.3536376953125
3.689,306,1588,895,334,-0.740966796875,0.063720703125,-0.3536376953125
3.690,306,1540,858,328,-0.734619140625,-0.0250244140625,-0.3033447265625
3.704,307,1488,864,333,-0.8070068359375,0.087890625,-0.2586669921875
3.718,308,1509,927,334,-0.8070068359375,0.087890625,-0.2586669921875
3.727,308,1718,977,336,-0.8428955078125,0.1767578125,-0.270263671875
3.733,308,1952,1005,343,-0.8521728515625,0.2730712890625,-0.2869873046875
3.742,310,2089,1050,346,-0.8521728515625,0.2730712890625,-0.2869873046875
3.755,310,2245,1081,346,-0.8502197265625,0.252685546875,-0.2843017578125
3.770,309,2541,1123,348,-0.828125,0.1478271484375,-0.2579345703125
3.773,310,2759,1064,347,-0.828125,0.1478271484375,-0.2579345703125
3.780,313,2940,1083,354,-0.7879638671875,0.107177734375,-0.2269287109375
3.794,316,3147,1172,419,-0.689208984375,0.0494384765625,-0.1654052734375
3.820,310,3147,1026,658,-0.689208984375,0.0494384765625,-0.1654052734375
3.820,290,3147,922,898,-0.6666259765625,0.02734375,-0.1632080078125
3.826,306,3147,861,1390,-0.635986328125,0.0052490234375,-0.1741943359375
3.833,306,3147,944,1681,-0.546875,-0.0125732421875,-0.1627197265625
3.840,305,3147,933,1929,-0.415283203125,-0.055908203125,-0.1383056640625
3.854,304,3147,879,2258,-0.2686767578125,-0.0650634765625,-0.093505859375
3.872,304,3147,902,2477,-0.0845947265625,0.0189208984375,-0.037841796875
3.873,305,3147,909,2715,0.0145263671875,0.1351318359375,-0.003662109375
3.883,306,3147,944,3147,-0.1329345703125,0.3154296875,-0.0230712890625
3.892,306,3147,1129,3147,-0.5133056640625,0.57275390625,-0.137939453125
3.900,308,3147,1282,3147,-0.9991455078125,0.7144775390625,-0.31298828125
3.931,315,3147,1494,3147,-1.4273681640625,0.560302734375,-0.56396484375
3.931,315,3147,1607,3147,-1.7696533203125,0.277099609375,-0.863525390625
3.931,315,3147,1675,3147,-2.099853515625,0.1761474609375,-0.9874267578125
3.944,316,3147,1607,3147,-2.3936767578125,0.16748046875,-0.8548583984375
3.954,315,3147,1662,3147,-2.560546875,-0.0284423828125,-0.4854736328125
3.960,316,3147,1687,3147,-2.29638671875,-0.3919677734375,0.1915283203125
3.979,313,3147,1627,3147,-1.504638671875,-0.4036865234375,0.6641845703125
3.984,315,3147,1611,3147,-0.7650146484375,0.18603515625,0.251953125
3.996,315,3147,1669,3147,-0.6279296875,0.787109375,-0.5911865234375
4.004,316,3147,1708,3147,-1.0391845703125,0.937744140625,-1.103759765625
4.023,316,3147,1732,3147,-1.54248046875,0.674072265625,-1.1622314453125
4.023,317,3147,1730,3147,-1.75390625,0.239990234375,-0.8861083984375
4.034,317,3147,1735,3147,-1.6180419921875,0.0048828125,-0.5081787109375
4.042,317,3147,1732,3147,-1.37451171875,0.0860595703125,-0.277099609375
4.050,318,3147,1733,3147,-1.2518310546875,0.262451171875,-0.228271484375
4.064,318,3147,1715,3147,-1.2178955078125,0.3316650390625,-0.234375
4.076,316,3147,1697,3147,-1.1572265625,0.2662353515625,-0.1810302734375
4.080,316,3147,1694,3147,-1.041015625,0.123046875,-0.056640625
4.101,316,3147,1681,3069,-0.8916015625,-0.0673828125,0.0845947265625
4.103,316,3147,1588,2673,-0.7159423828125,-0.256103515625,0.1451416015625
4.136,316,3147,1574,2372,-0.56298828125,-0.3353271484375,0.111083984375
4.136,299,3147,1575,1750,-0.5223388671875,-0.2374267578125,0.0985107421875
4.137,313,3147,1453,1395,-0.5670166015625,-0.0506591796875,0.11572265625
4.140,314,3147,1363,999,-0.5921630859375,0.0908203125,0.041748046875
4.153,313,3147,1162,360,-0.568115234375,0.14501953125,-0.1558837890625
4.162,313,3031,1050,348,-0.5517578125,0.1851806640625,-0.3782958984375
4.170,309,2739,1010,347,-0.5823974609375,0.270263671875,-0.505126953125
4.184,310,2341,933,342,-0.65576171875,0.325927734375,-0.49560546875
4.202,309,2113,920,346,-0.729736328125,0.282958984375,-0.4281005859375
4.202,308,1960,963,338,-0.7525634765625,0.1826171875,-0.389892578125
4.231,308,1850,963,330,-0.74609375,0.126953125,-0.3819580078125
4.231,309,1748,929,334,-0.7432861328125,0.15673828125,-0.3714599609375
4.231,293,1846,939,336,-0.7464599609375,0.2196044921875,-0.3448486328125
4.244,309,2098,1012,338,-0.7587890625,0.2532958984375,-0.3133544921875
4.252,310,2231,1071,347,-0.7803955078125,0.23828125,-0.2874755859375
4.260,310,2392,1116,347,-0.8104248046875,0.198974609375,-0.2679443359375
4.273,313,2627,1133,348,-0.84814453125,0.177001953125,-0.260986328125
4.292,309,2785,1163,352,-0.87255859375,0.1822509765625,-0.2694091796875
4.292,299,2944,1209,352,-0.8585205078125,0.1785888671875,-0.2760009765625
4.304,312,3147,1242,354,-0.8175048828125,0.1414794921875,-0.26171875
4.335,310,3147,1267,473,-0.7730712890625,0.0955810546875,-0.23291015625
4.338,313,3147,1330,607,-0.7412109375,0.075439453125,-0.2117919921875
4.338,313,3147,1383,963,-0.73583984375,0.0914306640625,-0.201904296875
4.342,313,3147,1453,1097,-0.749267578125,0.1326904296875,-0.1883544921875
4.350,313,3147,1467,1292,-0.7451171875,0.166748046875,-0.155517578125
4.364,313,3147,1390,1761,-0.676025390625,0.159912109375,-0.0963134765625
4.373,314,3147,1319,2087,-0.5059814453125,0.103515625,-0.040283203125
4.380,309,3147,1253,2330,-0.2498779296875,0.0408935546875,0.0068359375
4.407,312,3147,1224,2763,0.019775390625,-0.0242919921875,0.07421875
4.407,310,3147,1317,3106,0.1663818359375,-0.0330810546875,0.107666015625
4.410,314,3147,1481,3147,0.0352783203125,0.10546875,-0.037353515625
4.442,316,3147,1748,3147,-0.45361328125,0.3427734375,-0.3917236328125
4.442,317,3147,1781,3147,-1.138671875,0.567138671875,-0.7083740234375
4.442,322,3147,1770,3147,-1.7158203125,0.6951904296875,-1.0048828125
4.454,321,3147,1824,3147,-2.129150390625,0.6778564453125,-1.25439453125
4.462,322,3147,1838,3147,-2.462890625,0.4285888671875,-1.1195068359375
4.470,323,3147,1845,3147,-2.6573486328125,-0.0130615234375,-0.6842041015625
4.485,318,3147,1838,3147,-2.463134765625,-0.5103759765625,0.08837890625
4.492,321,3147,1815,3147,-1.7430419921875,-0.7015380859375,0.9892578125
4.509,321,3147,1775,3147,-1.7430419921875,-0.7015380859375,0.9892578125
4.513,318,3147,1722,3147,-0.7593994140625,0.0751953125,0.1201171875
4.522,317,3147,1748,3147,-1.0125732421875,0.4635009765625,-0.824951171875
4.551,318,3147,1794,3147,-1.0125732421875,0.4635009765625,-0.824951171875
4.552,318,3147,1796,3147,-1.6126708984375,0.83056640625,-1.35009765625
4.553,316,3147,1788,3147,-1.6104736328125,0.4820556640625,-0.99169921875
4.560,318,3147,1803,3147,-1.6104736328125,0.4820556640625,-0.99169921875
4.574,318,3147,1809,3147,-1.05615234375,0.0601806640625,-0.1016845703125
4.582,318,3147,1794,3147,-0.9312744140625,0.0606689453125,0.0867919921875
4.590,316,3147,1786,3147,-0.9312744140625,0.0606689453125,0.0867919921875
4.617,318,3147,1754,3147,-0.9462890625,0.13232421875,-0.0616455078125
4.618,316,3147,1715,3147,-0.9208984375,0.16015625,-0.1678466796875
4.620,316,3147,1683,3112,-0.9208984375,0.16015625,-0.1678466796875
4.646,313,3147,1611,2571,-0.7489013671875,0.0623779296875,-0.22021484375
4.647,315,3147,1624,2273,-0.696044921875,-0.0445556640625,-0.09033203125
4.656,316,3147,1580,2060,-0.696044921875,-0.0445556640625,-0.09033203125
4.664,313,3147,1439,1624,-0.693359375,-0.1273193359375,0.094482421875
4.673,316,3147,1367,1367,-0.663818359375,-0.1048583984375,-0.032958984375
4.680,313,3147,1224,1120,-0.663818359375,-0.1048583984375,-0.032958984375
4.694,312,3147,1034,763,-0.66455078125,0.1063232421875,-0.3851318359375
4.702,313,3147,1004,532,-0.689453125,0.26171875,-0.456787109375
4.718,311,3147,992,373,-0.689453125,0.26171875,-0.456787109375
4.724,313,2995,986,346,-0.7213134765625,0.362548828125,-0.45263671875
4.744,310,2830,1009,345,-0.7213134765625,0.362548828125,-0.45263671875
4.744,309,2671,1001,344,-0.7281494140625,0.3287353515625,-0.428466796875
4.748,310,2587,1000,338,-0.758544921875,0.2958984375,-0.392822265625
4.768,310,2290,984,336,-0.7987060546875,0.279541015625,-0.35302734375
4.770,310,2133,959,338,-0.8214111328125,0.271728515625,-0.3277587890625
4.779,308,2156,998,338,-0.8243408203125,0.27734375,-0.323486328125
4.793,308,2296,1014,344,-0.7906494140625,0.279296875,-0.2950439453125
4.801,310,2478,1018,348,-0.7906494140625,0.279296875,-0.2950439453125
4.823,309,2643,1055,348,-0.7647705078125,0.2291259765625,-0.2550048828125
4.824,308,2988,1070,348,-0.759765625,0.13916015625,-0.24072265625
4.833,308,3147,1137,356,-0.759765625,0.13916015625,-0.24072265625
4.846,310,3147,1198,427,-0.7701416015625,0.1339111328125,-0.249755859375
4.853,312,3147,1267,740,-0.767822265625,0.1185302734375,-0.248291015625
4.861,315,3147,1355,947,-0.7598876953125,0.0958251953125,-0.233642578125
4.869,315,3147,1287,1160,-0.7403564453125,0.08642578125,-0.213623046875
4.883,310,3147,1253,1653,-0.6854248046875,0.082763671875,-0.1839599609375
4.891,313,3147,1195,2007,-0.5926513671875,0.067138671875,-0.149658203125
4.899,304,3147,1064,2372,-0.460205078125,0.0191650390625,-0.1163330078125
4.915,306,3147,929,2912,-0.2510986328125,-0.0582275390625,-0.0833740234375
4.948,306,3147,888,3147,0.032958984375,-0.1363525390625,-0.044189453125
4.949,306,3147,982,3147,0.2376708984375,-0.072509765625,0.056396484375
4.949,310,3147,1229,3147,0.090576171875,0.2315673828125,0.1348876953125
4.952,313,3147,1397,3147,-0.464111328125,0.5975341796875,0.0400390625
4.959,313,3147,1521,3147,-1.1492919921875,0.7003173828125,-0.2236328125
4.972,316,3147,1662,3147,-1.645751953125,0.565673828125,-0.619873046875
4.981,321,3147,1709,3147,-1.892822265625,0.564208984375,-1.000244140625
4.993,321,3147,1754,3147,-2.125244140625,0.621826171875,-1.1778564453125
5.003,318,3147,1781,3147,-2.5062255859375,0.3629150390625,-1.0556640625
5.019,318,3147,1783,3147,-2.7711181640625,-0.326904296875,-0.4339599609375
5.019,316,3147,1762,3147,-2.3350830078125,-0.941650390625,0.562744140625
5.051,318,3147,1682,3147,-1.29443359375,-0.6680908203125,0.9378662109375
5.052,317,3147,1719,3147,-0.5601806640625,0.1512451171875,0.2607421875
5.052,316,3147,1762,3147,-0.68505859375,0.7034912109375,-0.6856689453125
5.063,317,3147,1785,3147,-1.3409423828125,0.9017333984375,-1.20703125
5.071,313,3147,1792,3147,-1.8133544921875,0.7344970703125,-1.1595458984375
5.079,317,3147,1794,3147,-1.7822265625,0.3861083984375,-0.8148193359375
5.093,316,3147,1826,3147,-1.454833984375,0.18994140625,-0.4447021484375
5.107,318,3147,1835,3147,-1.1634521484375,0.1240234375,-0.1669921875
5.109,318,3147,1803,3147,-1.05419921875,0.1033935546875,-0.03564453125
5.123,318,3147,1762,3147,-1.0523681640625,0.147216796875,0.008544921875
5.131,318,3147,1739,3147,-1.031982421875,0.18115234375,0.0343017578125
5.152,317,3147,1715,3147,-0.9661865234375,0.09228515625,0.05126953125
5.153,316,3147,1572,2810,-0.8577880859375,-0.0916748046875,0.024169921875
5.161,316,3147,1523,2510,-0.7236328125,-0.2205810546875,-0.04638671875
5.169,316,3147,1470,2205,-0.6268310546875,-0.2115478515625,-0.0689697265625
5.183,315,3147,1355,1611,-0.6011962890625,-0.1287841796875,-0.013671875
5.208,316,3147,1302,1178,-0.593994140625,-0.047607421875,0.006103515625
5.227,315,3147,1217,853,-0.5506591796875,-0.005126953125,-0.112548828125
5.248,310,3147,1085,382,-0.5006103515625,0.0380859375,-0.314697265625
5.275,312,3131,1043,356,-0.4935302734375,0.1728515625,-0.475341796875
5.277,310,2925,1004,328,-0.542724609375,0.3475341796875,-0.5380859375
5.278,310,2683,996,347,-0.6185302734375,0.4290771484375,-0.5302734375
5.278,313,2530,1004,327,-0.6771240234375,0.3818359375,-0.4906005859375
5.278,313,2585,1065,346,-0.7122802734375,0.293701171875,-0.42578125
5.278,313,2772,1109,354,-0.73486328125,0.2491455078125,-0.3519287109375
5.281,310,2921,1148,360,-0.7593994140625,0.2462158203125,-0.299072265625
5.292,313,3035,1162,370,-0.7872314453125,0.2552490234375,-0.27099609375
5.303,316,3147,1236,375,-0.8101806640625,0.251708984375,-0.2535400390625
5.311,313,3147,1276,406,-0.8245849609375,0.2210693359375,-0.2342529296875
5.333,313,3147,1305,526,-0.8228759765625,0.1700439453125,-0.2120361328125
5.334,313,3147,1312,777,-0.8109130859375,0.1251220703125,-0.201171875
5.355,314,3147,1323,966,-0.8026123046875,0.0965576171875,-0.2099609375
5.356,312,3147,1357,1163,-0.7996826171875,0.0687255859375,-0.2325439453125
5.363,313,3147,1343,1467,-0.7943115234375,0.0458984375,-0.2578125
5.372,313,3147,1351,1655,-0.779296875,0.0364990234375,-0.2633056640625
5.380,315,3147,1348,1826,-0.752685546875,0.051025390625,-0.226806640625
5.394,313,3147,1204,2268,-0.724853515625,0.1058349609375,-0.1558837890625
5.402,310,3147,992,2532,-0.6575927734375,0.1612548828125,-0.093505859375
5.410,306,3147,793,2821,-0.4791259765625,0.1644287109375,-0.0731201171875
5.427,302,3147,809,3147,-0.2188720703125,0.13916015625,-0.0255126953125
5.432,304,3147,820,3147,0.0238037109375,0.157958984375,0.1231689453125
5.446,302,3147,933,3147,0.105712890625,0.2003173828125,0.2633056640625
5.470,306,3147,1243,3147,-0.111572265625,0.193603515625,0.198486328125
5.470,310,3147,1333,3147,-0.5955810546875,0.1666259765625,-0.1048583984375
5.471,310,3147,1452,3147,-1.172607421875,0.2200927734375,-0.5123291015625
5.484,316,3147,1610,3147,-1.6951904296875,0.4407958984375,-0.9337158203125
5.492,316,3147,1711,3147,-2.1318359375,0.738037109375,-1.2027587890625
5.500,317,3147,1742,3147,-2.4935302734375,0.708251953125,-1.15673828125
5.514,316,3147,1695,3147,-2.744384765625,0.192138671875,-0.7796630859375
5.523,316,3147,1704,3147,-2.5457763671875,-0.444580078125,-0.0382080078125
5.530,316,3147,1683,3147,-1.677490234375,-0.577880859375,0.630615234375
5.569,316,3147,1641,3147,-0.702392578125,0.0032958984375,0.457763671875
5.570,316,3147,1666,3147,-0.4041748046875,0.6964111328125,-0.3851318359375
5.570,310,3147,1711,3147,-0.93212890625,0.9388427734375,-1.0201416015625
5.574,316,3147,1722,3147,-1.6121826171875,0.6920166015625,-1.0579833984375
5.582,316,3147,1739,3147,-1.8193359375,0.2896728515625,-0.732421875
5.591,316,3147,1730,3147,-1.629638671875,0.0938720703125,-0.4222412109375
5.603,315,3147,1741,3147,-1.39404296875,0.10888671875,-0.290771484375
5.612,318,3147,1732,3147,-1.275634765625,0.142822265625,-0.28173828125
5.620,316,3147,1705,3147,-1.213134765625,0.1541748046875,-0.27685546875
5.634,316,3147,1676,3147,-1.0948486328125,0.1676025390625,-0.201171875
5.642,316,3147,1646,3147,-0.90673828125,0.1429443359375,-0.0789794921875
5.650,316,3147,1615,3147,-0.90673828125,0.1429443359375,-0.0789794921875
5.677,316,3147,1548,3015,-0.5716552734375,0.0159912109375,0.025390625
5.678,315,3147,1508,2732,-0.47314453125,-0.0111083984375,-0.0234375
5.680,316,3147,1478,2449,-0.47314453125,-0.0111083984375,-0.0234375
5.694,311,3147,1357,1925,-0.561279296875,0.0074462890625,-0.10595703125
5.702,314,3147,1306,1635,-0.644287109375,0.05517578125,-0.1673583984375
5.710,315,3147,1253,1306,-0.644287109375,0.05517578125,-0.1673583984375
5.723,313,3147,1206,753,-0.6739501953125,0.1783447265625,-0.36083984375
5.735,309,3147,1155,509,-0.6585693359375,0.1932373046875,-0.4154052734375
5.740,313,3147,1101,361,-0.6585693359375,0.1932373046875,-0.4154052734375
5.766,313,2785,1078,348,-0.69580078125,0.22119140625,-0.349609375
5.766,310,2563,1081,346,-0.7130126953125,0.2164306640625,-0.317626953125
5.771,310,2359,1103,347,-0.7130126953125,0.2164306640625,-0.317626953125
5.787,313,2068,1125,345,-0.7574462890625,0.22119140625,-0.3074951171875
5.792,313,2037,1138,347,-0.802490234375,0.2652587890625,-0.311767578125
5.800,314,2047,1178,346,-0.802490234375,0.2652587890625,-0.311767578125
5.814,313,2155,1191,348,-0.8880615234375,0.2767333984375,-0.3138427734375
5.822,313,2258,1225,356,-0.8931884765625,0.2347412109375,-0.2889404296875
5.837,312,2430,1262,359,-0.8931884765625,0.2347412109375,-0.2889404296875
5.844,315,2638,1355,360,-0.8255615234375,0.1497802734375,-0.2330322265625
5.866,315,2818,1401,369,-0.8255615234375,0.1497802734375,-0.2330322265625
5.867,313,3046,1452,371,-0.792236328125,0.1318359375,-0.2186279296875
5.874,314,3147,1557,495,-0.72216796875,0.027099609375,-0.1875
5.896,314,3147,1580,707,-0.72216796875,0.027099609375,-0.1875
5.896,316,3147,1598,871,-0.6590576171875,-0.0830078125,-0.1781005859375
5.904,315,3147,1494,1266,-0.521240234375,-0.154541015625,-0.2442626953125
5.912,313,3147,1478,1598,-0.521240234375,-0.154541015625,-0.2442626953125
5.920,313,3147,1397,1912,-0.4525146484375,0.0128173828125,-0.232666015625
5.941,309,3147,1334,2445,-0.264892578125,0.404296875,-0.0869140625
5.942,314,3147,1348,2736,-0.264892578125,0.404296875,-0.0869140625
5.950,313,3147,1417,3020,-0.2086181640625,0.3914794921875,0.026123046875
5.973,313,3147,1584,3147,-0.3853759765625,0.404541015625,0.031494140625
5.973,316,3147,1652,3147,-0.3853759765625,0.404541015625,0.031494140625
5.980,316,3147,1677,3147,-0.615234375,0.5858154296875,-0.079833984375
5.995,316,3147,1729,3147,-1.45361328125,0.3929443359375,-0.633544921875
6.007,317,3147,1773,3147,-1.45361328125,0.3929443359375,-0.633544921875
6.010,318,3147,1821,3147,-1.8734130859375,0.1705322265625,-0.8681640625
6.023,316,3147,1781,3147,-2.564208984375,0.123779296875,-0.8314208984375
6.032,318,3147,1772,3147,-2.564208984375,0.123779296875,-0.8314208984375
6.044,318,3147,1781,3147,-2.603759765625,-0.21484375,-0.36572265625
6.054,316,3147,1747,3147,-1.074462890625,-0.25,0.5699462890625
6.079,317,3147,1739,3147,-1.074462890625,-0.25,0.5699462890625
6.079,316,3147,1773,3147,-0.6072998046875,0.429931640625,-0.1591796875
6.084,317,3147,1785,3147,-0.8966064453125,0.90478515625,-1.004150390625
6.100,316,3147,1774,3147,-1.4942626953125,0.84033203125,-1.2608642578125
6.101,316,3147,1718,3147,-1.7333984375,0.4654541015625,-0.9444580078125
6.120,316,3147,1759,3147,-1.5806884765625,0.22900390625,-0.52197265625
6.122,317,3147,1757,3147,-1.3583984375,0.1800537109375,-0.2486572265625
6.130,317,3147,1748,3147,-1.2198486328125,0.127197265625,-0.1439208984375
6.145,316,3147,1739,3147,-1.137939453125,0.01416015625,-0.1116943359375
6.153,317,3147,1715,3147,-1.0391845703125,-0.06884765625,-0.0831298828125
6.171,316,3147,1739,3147,-0.924560546875,-0.048828125,-0.0732421875
6.181,316,3147,1703,2667,-0.8055419921875,0.0205078125,-0.08837890625
6.182,316,3147,1650,2359,-0.66552734375,0.0164794921875,-0.1212158203125
6.190,316,3147,1623,2058,-0.5513916015625,-0.0640869140625,-0.0999755859375
6.208,316,3147,1557,1441,-0.522216796875,-0.1124267578125,-0.0244140625
6.212,315,3147,1480,1014,-0.565673828125,-0.0430908203125,-0.0103759765625
6.220,316,3147,1357,683,-0.6202392578125,0.0963134765625,-0.114013671875
6.234,315,2850,1260,347,-0.635009765625,0.2049560546875,-0.282470703125
6.247,314,2507,1216,347,-0.6185302734375,0.269775390625,-0.432373046875
6.250,313,2188,1170,347,-0.62890625,0.32568359375,-0.507080078125
6.264,311,1732,1063,334,-0.6846923828125,0.351318359375,-0.488525390625
6.287,308,1357,1018,334,-0.730224609375,0.2890625,-0.40625
6.287,308,1123,989,338,-0.7286376953125,0.17236328125,-0.3192138671875
6.294,308,1079,958,334,-0.718017578125,0.107177734375,-0.2816162109375
6.302,306,1116,978,336,-0.7430419921875,0.135986328125,-0.285888671875
6.314,309,1213,1004,334,-0.7896728515625,0.2030029296875,-0.295654296875
6.324,308,1386,1018,332,-0.8292236328125,0.250244140625,-0.3023681640625
6.332,310,1398,1039,336,-0.86572265625,0.260009765625,-0.3060302734375
6.353,309,1497,1042,338,-0.8968505859375,0.2318115234375,-0.2945556640625
6.354,297,1733,1091,325,-0.9056396484375,0.1824951171875,-0.2684326171875
6.362,310,1894,1112,346,-0.88623046875,0.13720703125,-0.2393798828125
6.380,313,2122,1149,348,-0.8349609375,0.100830078125,-0.2069091796875
6.387,313,2613,1188,353,-0.7598876953125,0.058349609375,-0.1781005859375
6.392,308,2959,1189,355,-0.674560546875,0.0068359375,-0.1519775390625
6.400,310,3147,1173,439,-0.5777587890625,-0.0513916015625,-0.1209716796875
6.421,310,3147,968,1014,-0.4736328125,-0.0966796875,-0.0919189453125
6.422,305,3147,814,1390,-0.34814453125,-0.1085205078125,-0.0950927734375
6.430,308,3147,813,1733,-0.22705078125,-0.06884765625,-0.138427734375
6.444,304,3147,891,2178,-0.1551513671875,0.0914306640625,-0.13916015625
6.458,304,3147,909,2328,-0.107666015625,0.2978515625,-0.05126953125
6.460,302,3147,939,2532,-0.1248779296875,0.41064453125,0.0589599609375
6.476,308,3147,998,2985,-0.25634765625,0.4027099609375,0.0216064453125
6.494,306,3147,1050,3147,-0.5433349609375,0.3243408203125,-0.251953125
6.494,308,3147,1126,3147,-0.975341796875,0.420166015625,-0.6239013671875
6.499,308,3147,1264,3147,-1.4176025390625,0.79931640625,-0.964599609375
6.513,313,3147,1488,3147,-1.8302001953125,1.1097412109375,-1.149658203125
6.530,315,3147,1602,3147,-2.2657470703125,0.943603515625,-1.0106201171875
6.530,316,3147,1588,3147,-2.6756591796875,0.2413330078125,-0.611083984375
6.543,315,3147,1506,3147,-2.759765625,-0.5848388671875,-0.1043701171875
6.609,310,3147,1467,3147,-2.205078125,-0.9632568359375,0.484619140625
6.609,313,3147,1440,3147,-1.2567138671875,-0.6981201171875,0.6690673828125
6.609,313,3147,1463,3147,-0.6416015625,-0.0078125,0.071044921875
6.609,313,3147,1497,3147,-0.8310546875,0.6903076171875,-0.7706298828125
6.609,314,3147,1531,3147,-1.4921875,0.953125,-1.1358642578125
6.609,314,3147,1555,3147,-1.8341064453125,0.719970703125,-0.919189453125
6.611,314,3147,1577,3147,-1.631103515625,0.3883056640625,-0.5643310546875
6.621,313,3147,1584,3147,-1.279052734375,0.2059326171875,-0.361572265625
6.636,315,3147,1600,3147,-1.0638427734375,0.112060546875,-0.2294921875
6.641,315,3147,1590,3147,-0.98974609375,0.028564453125,-0.0787353515625
6.656,316,3147,1580,3147,-0.98974609375,0.028564453125,-0.0787353515625
6.663,316,3147,1521,3147,-0.8948974609375,-0.0472412109375,-0.100830078125
6.675,314,3147,1521,3039,-0.837158203125,0.068603515625,-0.2042236328125
6.688,313,3147,1497,2765,-0.837158203125,0.068603515625,-0.2042236328125
6.694,313,3147,1398,2213,-0.701171875,0.1397705078125,-0.2376708984375
6.701,315,3147,1463,1955,-0.659423828125,-0.0059814453125,-0.1541748046875
6.709,314,3147,1454,1557,-0.659423828125,-0.0059814453125,-0.1541748046875
6.723,313,3147,1383,909,-0.6373291015625,-0.052001953125,-0.0943603515625
6.740,313,3147,1318,501,-0.617919921875,0.0277099609375,-0.1383056640625
6.740,313,2844,1236,513,-0.617919921875,0.0277099609375,-0.1383056640625
6.753,319,2374,1125,369,-0.60546875,0.2154541015625,-0.2528076171875
6.761,309,2028,991,369,-0.637451171875,0.251953125,-0.28955078125
6.769,308,1759,912,349,-0.637451171875,0.251953125,-0.28955078125
6.798,309,1289,883,343,-0.7359619140625,0.245361328125,-0.2977294921875
6.798,306,1065,846,334,-0.7615966796875,0.2197265625,-0.2772216796875
6.799,307,966,802,328,-0.7615966796875,0.2197265625,-0.2772216796875
6.813,306,1064,782,344,-0.80078125,0.18115234375,-0.2657470703125
6.821,306,1034,794,347,-0.8216552734375,0.1868896484375,-0.2718505859375
6.829,308,1115,846,347,-0.8216552734375,0.1868896484375,-0.2718505859375
6.846,308,1400,904,361,-0.8450927734375,0.207275390625,-0.294189453125
6.851,309,1656,971,369,-0.822265625,0.1759033203125,-0.2982177734375
6.862,310,1918,1004,382,-0.822265625,0.1759033203125,-0.2982177734375
6.873,309,2350,1042,391,-0.720703125,0.0985107421875,-0.3052978515625
6.881,308,2619,1050,400,-0.720703125,0.0985107421875,-0.3052978515625
6.889,310,2930,1064,409,-0.6832275390625,0.0726318359375,-0.286376953125
6.908,308,3147,1050,629,-0.6317138671875,0.039794921875,-0.196533203125
6.911,310,3147,943,938,-0.6317138671875,0.039794921875,-0.196533203125
6.919,307,3147,834,1280,-0.54296875,-0.01025390625,-0.1519775390625
6.933,304,3147,722,1949,-0.2352294921875,-0.092041015625,-0.170166015625
6.941,302,3147,698,2175,-0.2352294921875,-0.092041015625,-0.170166015625
6.952,307,3147,714,2379,-0.1754150390625,0.1058349609375,-0.19140625
6.964,304,3147,765,2793,-0.4288330078125,0.505126953125,-0.047607421875
6.971,306,3147,790,3059,-0.4288330078125,0.505126953125,-0.047607421875
6.980,305,3147,802,3147,-0.7054443359375,0.3731689453125,0.008544921875
6.998,304,3147,897,3147,-1.13037109375,0.1702880859375,-0.17041015625
7.001,306,3147,942,3147,-1.13037109375,0.1702880859375,-0.17041015625
7.009,306,3147,996,3147,-1.3154296875,0.33251953125,-0.353271484375
7.023,310,3147,1134,3147,-1.8203125,0.5338134765625,-0.865966796875
7.031,306,3147,1214,3147,-1.8203125,0.5338134765625,-0.865966796875
7.039,308,3147,1167,3147,-2.11328125,0.52197265625,-0.969482421875
7.070,308,3147,1108,3147,-2.1534423828125,-0.2049560546875,-0.172607421875
7.071,292,3147,1109,3147,-2.1534423828125,-0.2049560546875,-0.172607421875
7.071,310,3147,1132,3147,-1.4637451171875,-0.434326171875,0.4627685546875
7.083,310,3147,1308,3147,-0.857177734375,-0.09765625,0.3038330078125
7.104,310,3147,1375,3147,-0.8985595703125,0.50048828125,-0.4462890625
7.104,313,3147,1437,3147,-1.4302978515625,0.839111328125,-0.98095703125
7.113,310,3147,1450,3147,-1.8203125,0.6534423828125,-0.9483642578125
7.121,315,3147,1452,3147,-1.7562255859375,0.323974609375,-0.6263427734375
7.133,315,3147,1483,3147,-1.4578857421875,0.22265625,-0.3587646484375
7.150,315,3147,1463,3147,-1.1707763671875,0.2113037109375,-0.2225341796875
7.152,313,3147,1348,3147,-0.994140625,0.1005859375,-0.1429443359375
7.172,315,3147,1328,3147,-0.9228515625,-0.01416015625,-0.0621337890625
7.173,313,3147,1231,3147,-0.881103515625,-0.06494140625,0.03759765625
7.181,313,3147,1216,3079,-0.8154296875,-0.1131591796875,0.1324462890625
7.193,310,3147,1109,2790,-0.7181396484375,-0.1971435546875,0.1441650390625
7.208,313,3147,1058,2341,-0.6331787109375,-0.24951171875,0.0693359375
7.211,307,3147,1004,2076,-0.62158203125,-0.173583984375,-0.0281982421875
7.219,313,3147,1043,1773,-0.666748046875,-0.0347900390625,-0.131591796875
7.233,310,3147,1010,1202,-0.7108154296875,0.05810546875,-0.2216796875
7.246,310,3147,1014,829,-0.7314453125,0.1097412109375,-0.279296875
7.249,308,3147,986,548,-0.7236328125,0.169677734375,-0.3126220703125
7.277,310,2963,895,402,-0.685302734375,0.2445068359375,-0.3253173828125
7.281,308,2733,803,384,-0.64794921875,0.2984619140625,-0.320068359375
7.281,306,2494,761,354,-0.6484375,0.3089599609375,-0.3043212890625
7.300,308,2368,744,354,-0.671630859375,0.2664794921875,-0.2900390625
7.301,293,2312,737,348,-0.6905517578125,0.2095947265625,-0.291015625
7.309,306,2384,750,354,-0.705810546875,0.18896484375,-0.3026123046875
7.323,308,2568,774,349,-0.72314453125,0.1851806640625,-0.317626953125
7.331,307,2708,793,356,-0.7598876953125,0.1785888671875,-0.3350830078125
7.339,304,2830,788,364,-0.82177734375,0.189697265625,-0.3406982421875
7.359,307,3000,808,356,-0.8790283203125,0.2030029296875,-0.3232421875
7.361,307,3065,834,370,-0.9058837890625,0.182373046875,-0.2984619140625
7.405,307,3147,874,371,-0.903564453125,0.1317138671875,-0.2841796875
7.411,294,3147,966,430,-0.875732421875,0.083740234375,-0.2747802734375
7.411,310,3147,978,571,-0.8197021484375,0.0604248046875,-0.263427734375
7.411,309,3147,1026,724,-0.7562255859375,0.0557861328125,-0.2476806640625
7.413,308,3147,1064,976,-0.7064208984375,0.0538330078125,-0.2247314453125
7.421,310,3147,1050,1185,-0.6719970703125,0.0462646484375,-0.1988525390625
7.429,308,3147,992,1472,-0.6414794921875,0.041748046875,-0.178955078125
7.443,305,3147,793,1936,-0.587158203125,0.0477294921875,-0.1680908203125
7.451,304,3147,778,2195,-0.4716796875,0.055908203125,-0.15673828125
7.459,306,3147,803,2449,-0.302001953125,0.0640869140625,-0.1163330078125
7.495,302,3147,785,2833,-0.1695556640625,0.0928955078125,-0.0257568359375
7.507,313,3147,790,3007,-0.1405029296875,0.15576171875,0.064208984375
7.507,302,3147,794,3147,-0.224609375,0.191162109375,0.0712890625
7.507,306,3147,842,3147,-0.4432373046875,0.119873046875,-0.0162353515625
7.513,304,3147,872,3147,-0.805908203125,0.083251953125,-0.1837158203125
7.519,304,3147,962,3147,-1.2586669921875,0.3021240234375,-0.4825439453125
7.534,307,3147,1050,3147,-1.7330322265625,0.775146484375,-0.916015625
7.541,308,3147,1129,3147,-2.1463623046875,1.2059326171875,-1.314697265625
7.549,309,3147,1201,3147,-2.447998046875,1.033447265625,-1.3818359375
7.563,308,3147,944,3147,-2.59130859375,0.2022705078125,-0.962646484375
7.597,306,3147,922,3147,-2.2689208984375,-0.64453125,-0.0889892578125
7.597,306,3147,934,3147,-1.3984375,-0.753173828125,0.6514892578125
7.597,302,3147,1018,3147,-0.687255859375,-0.0941162109375,0.572509765625
7.606,308,3147,1120,3147,-0.7718505859375,0.54052734375,-0.1136474609375
7.620,309,3147,1173,3147,-1.3948974609375,0.643310546875,-0.6907958984375
7.623,309,3147,1178,3147,-1.844970703125,0.3853759765625,-0.775390625
7.632,310,3147,1143,3147,-1.8040771484375,0.1614990234375,-0.561767578125
7.640,307,3147,1095,3147,-1.5045166015625,0.1060791015625,-0.36083984375
7.654,306,3147,912,3147,-1.210693359375,0.0936279296875,-0.2587890625
7.662,308,3147,815,3147,-1.0029296875,0.0516357421875,-0.1309814453125
7.670,304,3147,788,3147,-0.865966796875,0.0484619140625,0.0169677734375
7.687,306,3147,793,3147,-0.7991943359375,0.1243896484375,0.0419921875
7.706,309,3147,891,3147,-0.790283203125,0.280517578125,-0.068115234375
7.709,290,3147,938,3039,-0.762939453125,0.41259765625,-0.2459716796875
7.727,308,3147,871,2721,-0.67138671875,0.3463134765625,-0.3765869140625
7.727,293,3147,853,2477,-0.5518798828125,0.091796875,-0.3494873046875
7.730,308,3147,843,2260,-0.4833984375,-0.139892578125,-0.2578125
7.744,309,3147,883,1816,-0.5052490234375,-0.17431640625,-0.2525634765625
7.752,306,3147,865,1595,-0.5928955078125,-0.0458984375,-0.3184814453125
7.760,308,3147,869,1365,-0.6904296875,0.1202392578125,-0.3701171875
7.774,306,3147,835,963,-0.7418212890625,0.2474365234375,-0.3658447265625
7.783,308,3147,815,763,-0.7459716796875,0.2882080078125,-0.312744140625
7.790,308,3147,799,579,-0.7413330078125,0.252685546875,-0.2503662109375
7.816,306,3147,765,359,-0.746337890625,0.1923828125,-0.2098388671875
7.816,307,3120,764,361,-0.770751953125,0.1397705078125,-0.19140625
7.820,308,3007,767,373,-0.8021240234375,0.1126708984375,-0.1873779296875
7.834,306,2788,780,376,-0.8353271484375,0.12060546875,-0.1884765625
7.842,307,2695,767,374,-0.8638916015625,0.146240234375,-0.1873779296875
7.850,306,2676,816,404,-0.86865234375,0.157958984375,-0.17919921875
7.864,306,2795,894,398,-0.857177734375,0.1439208984375,-0.1668701171875
7.872,308,2943,942,406,-0.8468017578125,0.1162109375,-0.1728515625
7.886,310,3080,978,411,-0.8468017578125,0.1162109375,-0.1728515625
7.895,310,3147,1039,431,-0.825927734375,0.0589599609375,-0.242431640625
7.911,310,3147,1074,588,-0.7752685546875,0.0318603515625,-0.2503662109375
7.911,309,3147,1078,785,-0.7752685546875,0.0318603515625,-0.2503662109375
7.924,310,3147,1011,1160,-0.6632080078125,0.0767822265625,-0.2061767578125
7.934,304,3147,879,1365,-0.6129150390625,0.1064453125,-0.2227783203125
7.940,307,3147,840,1580,-0.6129150390625,0.1064453125,-0.2227783203125
7.954,306,3147,748,2021,-0.4810791015625,0.1143798828125,-0.22021484375
7.962,302,3147,697,2247,-0.414306640625,0.134765625,-0.1400146484375
7.970,304,3147,666,2492,-0.414306640625,0.134765625,-0.1400146484375
7.987,304,3147,694,2748,-0.339599609375,0.1756591796875,0.0357666015625
7.992,302,3147,721,2901,-0.3692626953125,0.260986328125,0.0244140625
8.000,302,3147,748,3095,-0.3692626953125,0.260986328125,0.0244140625
8.026,302,3147,766,3147,-0.617919921875,0.39404296875,-0.32470703125
8.026,302,3147,859,3147,-0.8455810546875,0.3673095703125,-0.5283203125
8.034,306,3147,910,3147,-0.8455810546875,0.3673095703125,-0.5283203125
8.044,300,3147,1038,3147,-1.52392578125,0.3140869140625,-0.754150390625
8.052,307,3147,1104,3147,-1.8670654296875,0.253662109375,-0.8138427734375
8.060,309,3147,1213,3147,-1.8670654296875,0.253662109375,-0.8138427734375
8.074,308,3147,1107,3147,-2.4276123046875,0.1842041015625,-0.7266845703125
8.082,306,3147,1029,3147,-2.3040771484375,-0.089111328125,-0.26171875
8.091,306,3147,1038,3147,-2.3040771484375,-0.089111328125,-0.26171875
8.108,308,3147,1169,3147,-0.8671875,0.0697021484375,0.4295654296875
8.128,310,3147,1226,3147,-0.8671875,0.0697021484375,0.4295654296875
8.129,308,3147,1274,3147,-0.7860107421875,0.5465087890625,-0.2188720703125
8.134,308,3147,1343,3147,-1.7996826171875,0.52587890625,-0.9683837890625
8.148,313,3147,1345,3147,-1.7996826171875,0.52587890625,-0.9683837890625
8.151,310,3147,1333,3147,-1.807373046875,0.2999267578125,-0.775146484375
8.164,310,3147,1286,3147,-1.2716064453125,0.2197265625,-0.4202880859375
8.172,310,3147,1239,3147,-1.2716064453125,0.2197265625,-0.4202880859375
8.181,314,3147,1189,3147,-1.1123046875,0.1475830078125,-0.2862548828125
8.194,310,3147,1131,3147,-0.972412109375,0.0205078125,0.0372314453125
8.202,310,3147,1095,3147,-0.972412109375,0.0205078125,0.0372314453125
8.210,307,3147,1014,3103,-0.8646240234375,-0.0242919921875,0.1773681640625
8.232,306,3147,918,2539,-0.5888671875,-0.33740234375,0.159912109375
8.238,308,3147,891,2268,-0.5888671875,-0.33740234375,0.159912109375
8.240,308,3147,933,1878,-0.5380859375,-0.389404296875,0.123046875
8.261,310,3147,834,1055,-0.5340576171875,-0.0777587890625,-0.020751953125
8.262,308,3147,853,628,-0.5340576171875,-0.0777587890625,-0.020751953125
8.270,308,3147,830,371,-0.5120849609375,0.1566162109375,-0.28173828125
8.284,307,2671,766,348,-0.5885009765625,0.574951171875,-0.6199951171875
8.296,306,2281,725,347,-0.5885009765625,0.574951171875,-0.6199951171875
8.300,304,1920,721,351,-0.6865234375,0.5579833984375,-0.572265625
8.322,306,1504,775,334,-0.776611328125,0.0989990234375,-0.3642578125
8.323,306,1255,780,334,-0.776611328125,0.0989990234375,-0.3642578125
8.342,306,1248,763,334,-0.782470703125,-0.00244140625,-0.321533203125
8.344,306,1201,723,337,-0.7763671875,0.0350341796875,-0.31591796875
8.352,304,1289,682,336,-0.78076171875,0.10400390625,-0.325439453125
8.360,304,1362,673,344,-0.8052978515625,0.14306640625,-0.322021484375
8.375,304,1490,733,347,-0.837646484375,0.162841796875,-0.297119140625
8.382,306,1595,735,348,-0.865966796875,0.1883544921875,-0.253662109375
8.399,307,1747,778,364,-0.870849609375,0.2156982421875,-0.215087890625
8.404,306,2012,800,359,-0.86083984375,0.2183837890625,-0.218017578125
8.427,306,2161,797,361,-0.85498046875,0.200439453125,-0.2445068359375
8.428,306,2330,816,361,-0.8446044921875,0.1820068359375,-0.2532958984375
8.434,307,2759,858,373,-0.8221435546875,0.15234375,-0.236083984375
8.442,306,3031,907,376,-0.7979736328125,0.106201171875,-0.2154541015625
8.451,309,3147,918,416,-0.7781982421875,0.06396484375,-0.2095947265625
8.464,308,3147,858,883,-0.7369384765625,0.022216796875,-0.1856689453125
8.472,306,3147,800,1204,-0.6436767578125,-0.0426025390625,-0.132568359375
8.485,306,3147,820,1516,-0.521484375,-0.100341796875,-0.093017578125
8.500,305,3147,867,2115,-0.3873291015625,-0.1021728515625,-0.0843505859375
8.503,307,3147,864,2306,-0.2493896484375,-0.046630859375,-0.0970458984375
8.511,304,3147,887,2498,-0.142578125,0.0499267578125,-0.1080322265625
8.537,300,3147,938,2978,-0.0712890625,0.1419677734375,-0.1636962890625
8.537,307,3147,963,3147,-0.141845703125,0.2896728515625,-0.3302001953125
8.541,304,3147,1112,3147,-0.468994140625,0.59765625,-0.5020751953125
8.554,310,3147,1282,3147,-0.9111328125,0.854248046875,-0.5452880859375
8.562,314,3147,1474,3147,-1.271240234375,0.7291259765625,-0.5242919921875
8.570,314,3147,1623,3147,-1.6102294921875,0.295166015625,-0.4710693359375
8.584,316,3147,1716,3147,-2.06201171875,-0.0201416015625,-0.31640625
8.606,316,3147,1697,3147,-2.44189453125,-0.054931640625,-0.254150390625
8.607,315,3147,1664,3147,-2.536376953125,-0.0013427734375,-0.385009765625
8.620,316,3147,1664,3147,-2.2890625,-0.1278076171875,-0.333251953125
8.628,315,3147,1638,3147,-1.642333984375,-0.319580078125,0.068115234375
8.630,316,3147,1669,3147,-0.8896484375,-0.13671875,0.28662109375
8.644,316,3147,1762,3147,-0.6097412109375,0.336181640625,-0.0675048828125
8.661,316,3147,1823,3147,-1.0238037109375,0.704345703125,-0.669189453125
8.661,316,3147,1826,3147,-1.661376953125,0.6798095703125,-0.9993896484375
8.674,316,3147,1854,3147,-1.887939453125,0.335205078125,-0.885986328125
8.682,318,3147,1878,3147,-1.6986083984375,0.0982666015625,-0.577392578125
8.690,318,3147,1877,3147,-1.4366455078125,0.0860595703125,-0.3746337890625
8.711,314,3147,1801,3147,-1.2476806640625,0.103759765625,-0.3251953125
8.712,318,3147,1730,3147,-1.1141357421875,0.0823974609375,-0.27685546875
8.723,316,3147,1689,3147,-1.008056640625,0.091796875,-0.17333984375
8.745,308,3147,1665,3075,-0.9307861328125,0.1397705078125,-0.0810546875
8.745,315,3147,1582,2648,-0.8438720703125,0.1412353515625,-0.0576171875
8.751,316,3147,1516,2375,-0.7054443359375,0.0360107421875,-0.06005859375
8.764,314,3147,1472,1711,-0.5789794921875,-0.1165771484375,0.002197265625
8.772,315,3147,1443,1206,-0.536376953125,-0.22119140625,0.0889892578125
8.780,315,3147,1318,720,-0.5556640625,-0.2159423828125,0.0921630859375
8.794,315,2569,1201,359,-0.581787109375,-0.086181640625,-0.0426025390625
8.862,308,2110,1131,359,-0.58203125,0.0960693359375,-0.2562255859375
8.862,308,1686,959,359,-0.5703125,0.2203369140625,-0.40234375
8.862,308,931,766,334,-0.59716796875,0.26416015625,-0.4197998046875
8.862,306,543,666,327,-0.6617431640625,0.2645263671875,-0.382080078125
8.862,304,478,788,325,-0.7393798828125,0.2216796875,-0.361572265625
8.862,305,418,639,322,-0.8216552734375,0.1259765625,-0.328857421875
8.869,304,363,652,318,-0.8104248046875,0.0302734375,-0.259033203125
8.873,304,347,675,322,-0.765625,0.026123046875,-0.226318359375
8.886,302,419,586,322,-0.8265380859375,0.1207275390625,-0.26123046875
8.892,304,387,551,318,-0.9049072265625,0.2421875,-0.3077392578125
8.900,306,378,620,321,-0.897216796875,0.3121337890625,-0.342529296875
8.914,304,333,644,321,-0.828125,0.3074951171875,-0.3499755859375
8.938,304,407,658,321,-0.76123046875,0.258544921875,-0.3154296875
8.942,304,498,808,324,-0.7091064453125,0.1942138671875,-0.2568359375
8.947,306,799,978,327,-0.6617431640625,0.1292724609375,-0.1986083984375
8.952,306,1316,1004,338,-0.616455078125,0.0626220703125,-0.1578369140625
8.960,310,1920,1026,347,-0.5782470703125,-0.001953125,-0.1478271484375
9.014,308,2929,1056,354,-0.572265625,-0.0283203125,-0.1856689453125
9.015,308,3147,1070,461,-0.6259765625,0.029296875,-0.25146484375
9.016,308,3147,1097,855,-0.6903076171875,0.1236572265625,-0.285888671875
9.016,306,3147,1050,1462,-0.66943359375,0.1500244140625,-0.2564697265625
9.016,308,3147,1012,1809,-0.5440673828125,0.0797119140625,-0.1917724609375
9.020,307,3147,1074,2117,-0.5440673828125,0.0797119140625,-0.1917724609375
9.049,308,3147,1078,2636,-0.159912109375,-0.070068359375,-0.10595703125
9.049,308,3147,1163,2908,-0.07470703125,0.029296875,-0.0025634765625
9.050,313,3147,1269,3121,-0.07470703125,0.029296875,-0.0025634765625
9.064,314,3147,1531,3147,-0.668212890625,0.4442138671875,0.1981201171875
9.072,315,3147,1615,3147,-1.1689453125,0.4921875,0.0140380859375
9.084,316,3147,1655,3147,-1.1689453125,0.4921875,0.0140380859375
9.094,316,3147,1713,3147,-1.8348388671875,0.3682861328125,-0.784912109375
9.102,317,3147,1743,3147,-1.97998046875,0.4066162109375,-1.0989990234375
9.114,317,3147,1739,3147,-1.97998046875,0.4066162109375,-1.0989990234375
9.124,318,3147,1666,3147,-2.35400390625,-0.10546875,-0.759521484375
9.134,317,3147,1691,3147,-2.1142578125,-0.486083984375,0.0068359375
9.146,319,3147,1686,3147,-2.1142578125,-0.486083984375,0.0068359375
9.161,317,3147,1664,3147,-0.810302734375,0.0301513671875,0.3035888671875
9.162,316,3147,1732,3147,-0.7003173828125,0.5755615234375,-0.506591796875
9.170,316,3147,1789,3147,-0.7003173828125,0.5755615234375,-0.506591796875
9.188,316,3147,1785,3147,-1.608642578125,0.787841796875,-1.2232666015625
9.192,316,3147,1798,3147,-1.751953125,0.3099365234375,-0.9884033203125
9.200,318,3147,1806,3147,-1.751953125,0.3099365234375,-0.9884033203125
9.218,316,3147,1785,3147,-1.4046630859375,0.0428466796875,-0.4095458984375
9.223,316,3147,1746,3147,-1.254150390625,0.1802978515625,-0.3128662109375
9.235,318,3147,1686,3147,-1.254150390625,0.1802978515625,-0.3128662109375
9.244,316,3147,1584,3147,-1.0823974609375,0.2103271484375,-0.1949462890625
9.254,316,3147,1572,3147,-1.0823974609375,0.2103271484375,-0.1949462890625
9.260,316,3147,1555,3121,-0.9412841796875,0.151123046875,-0.0606689453125
9.274,316,3147,1536,2599,-0.6343994140625,-0.070556640625,0.18408203125
9.282,315,3147,1504,2337,-0.6343994140625,-0.070556640625,0.18408203125
9.296,315,3147,1462,2063,-0.5399169921875,-0.17626953125,0.183837890625
9.304,315,3147,1359,1643,-0.6143798828125,-0.124755859375,0.076171875
9.319,313,3147,1302,1320,-0.6143798828125,-0.124755859375,0.076171875
9.320,312,3147,1198,951,-0.6702880859375,-0.0118408203125,-0.021728515625
9.350,313,3147,1078,375,-0.638916015625,0.168212890625,-0.3720703125
9.351,312,3118,1031,356,-0.638916015625,0.168212890625,-0.3720703125
9.352,298,2904,958,356,-0.598876953125,0.21044921875,-0.4876708984375
9.364,309,2599,932,348,-0.6444091796875,0.2557373046875,-0.4339599609375
9.372,309,2469,882,347,-0.6444091796875,0.2557373046875,-0.4339599609375
9.386,310,2384,912,348,-0.6881103515625,0.2216796875,-0.3740234375
9.402,310,2379,960,348,-0.779296875,0.1650390625,-0.34228515625
9.402,306,2386,975,348,-0.779296875,0.1650390625,-0.34228515625
9.410,310,2394,946,351,-0.833984375,0.200439453125,-0.347412109375
9.424,310,2448,958,348,-0.8809814453125,0.2427978515625,-0.3212890625
9.432,310,2538,959,349,-0.8809814453125,0.2427978515625,-0.3212890625
9.455,308,2619,973,348,-0.882080078125,0.199462890625,-0.30322265625
9.455,316,2807,1004,347,-0.8916015625,0.1575927734375,-0.27783203125
9.463,310,2930,1055,351,-0.89501953125,0.132080078125,-0.25634765625
9.471,310,3048,1082,351,-0.879150390625,0.1009521484375,-0.2454833984375
9.484,310,3147,1146,389,-0.84375,0.056640625,-0.2384033203125
9.499,313,3147,1206,561,-0.8026123046875,0.02392578125,-0.230712890625
9.509,314,3147,1276,712,-0.77490234375,0.025146484375,-0.22705078125
9.514,313,3147,1306,1056,-0.7613525390625,0.04150390625,-0.2276611328125
9.523,315,3147,1283,1278,-0.743896484375,0.0277099609375,-0.2283935546875
9.530,313,3147,1191,1557,-0.7021484375,-0.02001953125,-0.2152099609375
9.552,308,3147,999,2032,-0.6182861328125,-0.046630859375,-0.1673583984375
9.552,310,3147,933,2299,-0.480224609375,-0.0213623046875,-0.114501953125
9.561,307,3147,996,2467,-0.31787109375,0.043212890625,-0.1011962890625
9.574,309,3147,1017,2888,-0.1854248046875,0.088623046875,-0.106201171875
9.582,308,3147,1081,3147,-0.16552734375,0.11181640625,-0.1510009765625
9.590,310,3147,1251,3147,-0.3023681640625,0.235595703125,-0.2403564453125
9.604,313,3147,1429,3147,-0.5772705078125,0.4747314453125,-0.379638671875
9.627,313,3147,1523,3147,-0.9549560546875,0.6812744140625,-0.53369140625
9.628,313,3147,1580,3147,-1.31591796875,0.655029296875,-0.5770263671875
9.634,308,3147,1613,3147,-1.5880126953125,0.3702392578125,-0.47900390625
9.653,316,3147,1592,3147,-1.8328857421875,0.11083984375,-0.3321533203125
9.653,315,3147,1610,3147,-2.08544921875,0.030517578125,-0.2861328125
9.666,315,3147,1476,3147,-2.3001708984375,0.02392578125,-0.33740234375
9.672,310,3147,1434,3147,-2.243408203125,-0.040283203125,-0.265625
9.680,314,3147,1435,3147,-1.6820068359375,-0.11328125,0.1024169921875
9.694,314,3147,1521,3147,-0.9542236328125,0.0499267578125,0.3328857421875
9.703,313,3147,1574,3147,-0.7440185546875,0.4296875,-0.0546875
9.710,315,3147,1598,3147,-1.2017822265625,0.6583251953125,-0.6904296875
9.735,315,3147,1627,3147,-1.7286376953125,0.502197265625,-0.95751953125
9.736,315,3147,1595,3147,-1.8194580078125,0.1788330078125,-0.7750244140625
9.743,315,3147,1662,3147,-1.600830078125,0.02685546875,-0.4892578125
9.761,316,3147,1652,3147,-1.3515625,0.0638427734375,-0.3370361328125
9.767,300,3147,1604,3147,-1.173583984375,0.1280517578125,-0.2662353515625
9.770,310,3147,1529,3147,-1.069091796875,0.1392822265625,-0.1512451171875
9.784,309,3147,1488,3126,-1.0040283203125,0.1026611328125,-0.0042724609375
9.793,315,3147,1433,2765,-0.927978515625,0.020751953125,0.06201171875
9.800,313,3147,1359,2435,-0.8070068359375,-0.09521484375,0.0247802734375
9.814,314,3147,1262,1770,-0.6728515625,-0.1944580078125,-0.012451171875
9.843,312,3147,1149,1173,-0.576904296875,-0.2476806640625,0.0118408203125
9.843,316,3147,1078,446,-0.525390625,-0.234375,0.0438232421875
9.874,299,2167,1025,347,-0.491455078125,-0.1201171875,-0.0262451171875
9.874,309,1552,992,341,-0.4688720703125,0.0767822265625,-0.2149658203125
9.875,308,1064,829,334,-0.490966796875,0.255615234375,-0.37841796875
9.875,305,589,677,324,-0.586181640625,0.344970703125,-0.41455078125
9.882,300,442,607,323,-0.7132568359375,0.3466796875,-0.3858642578125
9.892,304,330,564,323,-0.8177490234375,0.2889404296875,-0.36328125
9.904,304,321,533,319,-0.896728515625,0.2064208984375,-0.34912109375
9.912,299,315,532,324,-0.919189453125,0.1346435546875,-0.335205078125
9.920,305,364,506,319,-0.8653564453125,0.1063232421875,-0.330322265625
9.943,301,302,551,318,-0.8216552734375,0.1231689453125,-0.3485107421875
9.950,300,304,577,319,-0.8226318359375,0.163818359375,-0.357666015625
9.950,304,308,586,318,-0.809326171875,0.186767578125,-0.33154296875
9.966,304,318,630,319,-0.772705078125,0.179931640625,-0.2781982421875
9.972,302,313,710,319,-0.731201171875,0.1673583984375,-0.2135009765625
9.980,304,348,774,319,-0.6822509765625,0.1549072265625,-0.15576171875
9.994,308,334,936,321,-0.628662109375,0.126220703125,-0.09912109375
10.002,304,666,951,327,-0.58447265625,0.0703125,-0.0496826171875
10.010,306,977,1054,327,-0.5621337890625,-0.00146484375,-0.0277099609375
10.024,308,2279,1160,345,-0.5673828125,-0.0433349609375,-0.0328369140625
10.044,310,3033,1207,354,-0.5975341796875,-0.00732421875,-0.087158203125
10.044,313,3147,1185,636,-0.6536865234375,0.1016845703125,-0.22216796875
10.073,310,3147,1206,1437,-0.696533203125,0.1754150390625,-0.3441162109375
10.073,310,3147,1064,1918,-0.63330078125,0.107421875,-0.3394775390625
10.073,309,3147,1014,2167,-0.479248046875,0.0125732421875,-0.2572021484375
10.084,310,3147,1185,2668,-0.329833984375,0.0128173828125,-0.1702880859375
10.094,310,3147,1271,3008,-0.2552490234375,0.10498046875,-0.0662841796875
10.100,310,3147,1429,3147,-0.300048828125,0.298583984375,-0.008056640625
10.114,308,3147,1627,3147,-0.500732421875,0.4744873046875,-0.0850830078125
10.122,315,3147,1634,3147,-0.8663330078125,0.4200439453125,-0.1971435546875
10.130,313,3147,1666,3147,-1.272705078125,0.190185546875,-0.28466796875
10.147,317,3147,1757,3147,-1.6236572265625,0.131591796875,-0.4765625
10.167,316,3147,1816,3147,-1.9627685546875,0.35205078125,-0.76318359375
10.175,321,3147,1846,3147,-1.9627685546875,0.35205078125,-0.76318359375
10.175,316,3147,1743,3147,-2.6173095703125,0.218505859375,-0.8323974609375
10.184,319,3147,1700,3147,-2.502685546875,-0.299072265625,-0.3348388671875
10.192,318,3147,1705,3147,-2.502685546875,-0.299072265625,-0.3348388671875
10.204,321,3147,1741,3147,-0.808349609375,-0.1669921875,0.61181640625
10.212,316,3147,1766,3147,-0.537841796875,0.4627685546875,-0.0111083984375
10.220,318,3147,1809,3147,-0.537841796875,0.4627685546875,-0.0111083984375
10.243,318,3147,1838,3147,-1.791015625,0.6746826171875,-1.0386962890625
10.243,318,3147,1815,3147,-1.9549560546875,0.3023681640625,-0.8494873046875
10.270,316,3147,1786,3147,-1.9549560546875,0.3023681640625,-0.8494873046875
10.270,316,3147,1712,3147,-1.315673828125,0.1053466796875,-0.3851318359375
10.272,316,3147,1675,3147,-1.1168212890625,0.141845703125,-0.26953125
10.280,315,3147,1627,3147,-1.1168212890625,0.141845703125,-0.26953125
10.294,315,3147,1536,3147,-0.9931640625,0.117431640625,-0.0367431640625
10.304,316,3147,1531,3147,-0.9019775390625,0.1046142578125,0.084716796875
10.310,315,3147,1508,3120,-0.9019775390625,0.1046142578125,0.084716796875
10.324,312,3147,1453,2652,-0.6048583984375,-0.178955078125,0.154052734375
10.332,315,3147,1415,2372,-0.5218505859375,-0.2677001953125,0.093017578125
10.344,314,3147,1390,2050,-0.5218505859375,-0.2677001953125,0.093017578125
10.374,313,3147,1342,1509,-0.63427734375,-0.03173828125,-0.0384521484375
10.374,314,3147,1280,1082,-0.63427734375,-0.03173828125,-0.0384521484375
10.374,310,3147,1236,691,-0.673095703125,0.10888671875,-0.1444091796875
10.384,310,2981,1131,359,-0.6539306640625,0.2757568359375,-0.405029296875
10.392,313,2633,1078,356,-0.6539306640625,0.2757568359375,-0.405029296875
10.401,308,2407,1032,356,-0.6494140625,0.3170166015625,-0.4356689453125
10.414,310,2060,976,354,-0.7373046875,0.2335205078125,-0.3326416015625
10.422,307,1949,962,348,-0.7373046875,0.2335205078125,-0.3326416015625
10.430,308,1874,944,347,-0.7723388671875,0.1475830078125,-0.31396484375
10.448,308,1914,959,347,-0.7589111328125,0.091064453125,-0.3084716796875
10.452,315,1973,959,348,-0.7589111328125,0.091064453125,-0.3084716796875
10.488,308,2062,989,351,-0.7535400390625,0.1265869140625,-0.30224609375
10.489,308,2268,962,332,-0.81298828125,0.205078125,-0.2862548828125
10.489,310,2396,1022,354,-0.81298828125,0.205078125,-0.2862548828125
10.490,308,2530,1043,359,-0.843994140625,0.204345703125,-0.2633056640625
10.504,310,2808,1079,361,-0.857666015625,0.1527099609375,-0.23291015625
10.520,310,2951,1057,364,-0.857666015625,0.1527099609375,-0.23291015625
10.520,313,3147,1078,369,-0.8363037109375,0.1204833984375,-0.2347412109375
10.534,312,3147,1191,601,-0.76123046875,0.0745849609375,-0.2147216796875
10.549,310,3147,1225,856,-0.76123046875,0.0745849609375,-0.2147216796875
10.550,310,3147,1222,1182,-0.7113037109375,0.0457763671875,-0.1873779296875
10.589,313,3147,1173,1718,-0.5281982421875,0.0020751953125,-0.1357421875
10.589,299,3147,1079,2141,-0.5281982421875,0.0020751953125,-0.1357421875
10.589,308,3147,1050,2448,-0.361572265625,-0.0130615234375,-0.0986328125
10.594,308,3147,973,2912,-0.1778564453125,0.0555419921875,-0.0213623046875
10.602,308,3147,996,3147,0.0133056640625,0.161376953125,0.06787109375
10.610,310,3147,1104,3147,0.0667724609375,0.17041015625,0.0863037109375
10.625,312,3147,1343,3147,-0.205810546875,0.2205810546875,0.004150390625
10.632,315,3147,1443,3147,-0.728271484375,0.4119873046875,-0.1806640625
10.640,315,3147,1494,3147,-1.2496337890625,0.5050048828125,-0.4478759765625
10.654,316,3147,1580,3147,-1.606689453125,0.3896484375,-0.792724609375
10.662,318,3147,1643,3147,-1.866455078125,0.3011474609375,-1.052001953125
10.689,321,3147,1660,3147,-2.1539306640625,0.269775390625,-1.0301513671875
10.689,321,3147,1662,3147,-2.458740234375,0.1229248046875,-0.7679443359375
10.692,318,3147,1675,3147,-2.5467529296875,-0.2091064453125,-0.3232421875
10.702,317,3147,1700,3147,-2.0361328125,-0.5875244140625,0.34765625
10.714,316,3147,1675,3147,-1.12890625,-0.515869140625,0.7945556640625
10.722,318,3147,1681,3147,-0.5753173828125,0.0382080078125,0.4676513671875
10.730,316,3147,1704,3147,-0.6976318359375,0.5693359375,-0.33984375
10.744,317,3147,1739,3147,-1.2601318359375,0.7608642578125,-0.9691162109375
10.754,317,3147,1745,3147,-1.7327880859375,0.568603515625,-1.0833740234375
10.760,317,3147,1744,3147,-1.7486572265625,0.2801513671875,-0.850830078125
10.792,318,3147,1716,3147,-1.49365234375,0.1776123046875,-0.58056640625
10.792,318,3147,1669,3147,-1.2811279296875,0.215087890625,-0.41064453125
10.792,316,3147,1638,3147,-1.17333984375,0.2359619140625,-0.3082275390625
10.804,316,3147,1557,3147,-1.0906982421875,0.197509765625,-0.173583984375
10.812,316,3147,1494,3147,-0.969482421875,0.1060791015625,-0.0185546875
10.820,316,3147,1427,3147,-0.830810546875,-0.030517578125,0.07568359375
10.834,314,3147,1323,2978,-0.719482421875,-0.1595458984375,0.0806884765625
10.842,315,3147,1204,2777,-0.652587890625,-0.182373046875,-0.0008544921875
10.860,313,3147,1122,2498,-0.6424560546875,-0.08056640625,-0.109619140625
10.864,310,3147,1085,2087,-0.6822509765625,0.0390625,-0.176513671875
10.872,308,3147,1067,1770,-0.73779296875,0.0784912109375,-0.1844482421875
10.895,310,3147,1042,1429,-0.77685546875,0.065673828125,-0.1807861328125
10.895,310,3147,968,738,-0.7860107421875,0.073974609375,-0.2344970703125
10.903,308,3147,923,375,-0.7674560546875,0.110595703125,-0.343505859375
10.910,310,2973,872,354,-0.7353515625,0.145751953125,-0.4404296875
10.924,306,2341,816,346,-0.7080078125,0.175537109375,-0.4652099609375
10.932,308,2035,774,346,-0.6981201171875,0.2022705078125,-0.419677734375
10.940,306,1826,749,342,-0.699462890625,0.1937255859375,-0.3558349609375
10.966,304,1552,733,337,-0.7021484375,0.15234375,-0.318603515625
10.966,308,1308,757,334,-0.7161865234375,0.1351318359375,-0.305908203125
10.973,306,1224,733,334,-0.7454833984375,0.1678466796875,-0.296630859375
10.999,304,1132,677,328,-0.777587890625,0.219482421875,-0.289306640625
10.999,306,1231,695,332,-0.7996826171875,0.2454833984375,-0.286376953125
11.000,305,1369,721,328,-0.811279296875,0.2342529296875,-0.2784423828125
11.014,304,1636,799,334,-0.815673828125,0.206298828125,-0.25732421875
11.022,306,1824,827,338,-0.8109130859375,0.181396484375,-0.2354736328125
11.030,306,2032,860,345,-0.79296875,0.16064453125,-0.2255859375
11.064,307,2417,879,346,-0.7542724609375,0.126708984375,-0.2191162109375
11.113,308,2813,912,352,-0.69873046875,0.080322265625,-0.200439453125
11.113,307,3147,907,363,-0.628662109375,0.05224609375,-0.1590576171875
11.114,306,3147,829,1133,-0.5335693359375,0.0716552734375,-0.0980224609375
11.114,304,3147,800,1582,-0.3995361328125,0.125732421875,-0.0482177734375
11.118,304,3147,748,1981,-0.247314453125,0.156005859375,-0.064453125
11.118,304,3147,731,2498,-0.15283203125,0.1636962890625,-0.1351318359375
11.118,305,3147,766,2793,-0.103515625,0.150146484375,-0.144775390625
11.147,304,3147,829,3128,-0.07666015625,0.126953125,-0.1268310546875
11.147,308,3147,1056,3147,-0.2110595703125,0.2857666015625,-0.25048828125
11.147,310,3147,1323,3147,-0.666748046875,0.558837890625,-0.4122314453125
11.150,312,3147,1508,3147,-1.2579345703125,0.4664306640625,-0.467529296875
11.164,316,3147,1592,3147,-1.6561279296875,-0.049560546875,-0.6212158203125
11.174,292,3147,1623,3147,-1.9337158203125,-0.3414306640625,-0.7882080078125
11.193,318,3147,1638,3147,-2.216796875,-0.1439208984375,-0.721923828125
11.198,321,3147,1713,3147,-2.4056396484375,0.088623046875,-0.478515625
11.211,318,3147,1598,3147,-2.40380859375,0.094970703125,-0.145751953125
11.214,315,3147,1480,3147,-2.1026611328125,-0.1112060546875,0.3482666015625
11.224,306,3147,1261,3147,-1.3953857421875,-0.166015625,0.7176513671875
11.232,313,3147,1233,3147,-0.65966796875,0.1531982421875,0.522216796875
11.240,313,3147,1283,3147,-0.5418701171875,0.4520263671875,-0.161376953125
11.254,313,3147,1422,3147,-1.092041015625,0.517333984375,-0.9031982421875
11.265,314,3147,1468,3147,-1.69775390625,0.420654296875,-1.22412109375
11.270,315,3147,1499,3147,-1.69775390625,0.420654296875,-1.22412109375
11.302,315,3147,1546,3147,-1.5850830078125,0.2886962890625,-0.8077392578125
11.302,315,3147,1561,3147,-1.31689453125,0.31640625,-0.5252685546875
11.303,317,3147,1569,3147,-1.31689453125,0.31640625,-0.5252685546875
11.321,313,3147,1553,3147,-1.1083984375,0.1787109375,-0.1240234375
11.323,315,3147,1533,3147,-1.0323486328125,0.085693359375,-0.0208740234375
11.330,316,3147,1506,3147,-1.0323486328125,0.085693359375,-0.0208740234375
11.344,315,3147,1481,3121,-0.869384765625,-0.022705078125,0.1412353515625
11.352,316,3147,1424,2795,-0.7513427734375,-0.1256103515625,0.0928955078125
11.368,315,3147,1341,2415,-0.7513427734375,-0.1256103515625,0.0928955078125
11.375,316,3147,1185,1843,-0.622314453125,-0.1248779296875,0.0203857421875
11.397,313,3147,1120,1411,-0.6082763671875,-0.0653076171875,0.07666015625
11.399,313,3147,1163,887,-0.6082763671875,-0.0653076171875,0.07666015625
11.404,314,3103,1112,360,-0.517333984375,-0.108642578125,-0.1478271484375
11.414,313,2658,1067,355,-0.5164794921875,0.063232421875,-0.34423828125
11.425,310,2409,966,354,-0.5164794921875,0.063232421875,-0.34423828125
11.434,306,1943,742,343,-0.6722412109375,0.4927978515625,-0.5360107421875
11.442,304,1650,737,346,-0.7528076171875,0.4239501953125,-0.54443359375
11.450,308,1483,750,338,-0.7528076171875,0.4239501953125,-0.54443359375
11.472,307,1413,792,336,-0.771484375,0.12646484375,-0.4652099609375
11.472,292,1409,759,330,-0.76611328125,0.094482421875,-0.424072265625
11.480,308,1476,754,338,-0.76611328125,0.094482421875,-0.424072265625
11.507,308,1600,790,336,-0.777099609375,0.2000732421875,-0.359619140625
11.507,304,1615,803,338,-0.777099609375,0.2000732421875,-0.359619140625
11.510,307,1766,818,345,-0.7877197265625,0.230224609375,-0.3204345703125
11.527,310,2014,813,344,-0.8118896484375,0.2205810546875,-0.240478515625
11.537,308,2183,872,347,-0.8118896484375,0.2205810546875,-0.240478515625
11.540,308,2418,973,354,-0.8155517578125,0.199462890625,-0.23193359375
11.554,314,2788,1063,355,-0.790283203125,0.1441650390625,-0.2119140625
11.563,312,3071,1058,360,-0.790283203125,0.1441650390625,-0.2119140625
11.572,309,3147,1018,390,-0.7607421875,0.105224609375,-0.201416015625
11.584,309,3147,1081,811,-0.671875,-0.0499267578125,-0.1710205078125
11.598,311,3147,1112,1188,-0.671875,-0.0499267578125,-0.1710205078125
11.600,309,3147,1083,1550,-0.6287841796875,-0.0872802734375,-0.14599609375
11.620,310,3147,963,2172,-0.4302978515625,-0.0032958984375,-0.0811767578125
11.622,306,3147,936,2468,-0.4302978515625,-0.0032958984375,-0.0811767578125
11.645,306,3147,871,2713,-0.2381591796875,0.0987548828125,0.023193359375
11.645,304,3147,927,3140,0.0784912109375,0.0753173828125,0.247314453125
11.652,306,3147,1093,3147,0.0784912109375,0.0753173828125,0.247314453125
11.660,311,3147,1228,3147,-0.09716796875,0.2735595703125,0.07373046875
11.675,313,3147,1467,3147,-1.164306640625,0.64599609375,-0.7294921875
11.682,315,3147,1579,3147,-1.164306640625,0.64599609375,-0.7294921875
11.691,316,3147,1629,3147,-1.6256103515625,0.6068115234375,-1.1849365234375
11.707,321,3147,1691,3147,-2.0611572265625,0.5977783203125,-1.3636474609375
11.712,323,3147,1756,3147,-2.52880859375,0.41064453125,-1.1368408203125
11.721,321,3147,1659,3147,-2.848876953125,0.0069580078125,-0.6400146484375
11.735,316,3147,1651,3147,-2.640380859375,-0.4471435546875,0.06103515625
11.753,318,3147,1648,3147,-1.794921875,-0.6024169921875,0.7945556640625
11.753,316,3147,1659,3147,-0.8382568359375,-0.2010498046875,0.8221435546875
11.764,317,3147,1739,3147,-0.4874267578125,0.3553466796875,0.0059814453125
11.778,316,3147,1757,3147,-0.935791015625,0.6212158203125,-0.87744140625
11.780,318,3147,1761,3147,-1.59228515625,0.5516357421875,-1.1986083984375
11.794,318,3147,1770,3147,-1.7647705078125,0.2813720703125,-0.9393310546875
11.806,318,3147,1762,3147,-1.5062255859375,0.0924072265625,-0.5233154296875
11.816,318,3147,1769,3147,-1.2462158203125,0.1025390625,-0.2685546875
11.824,318,3147,1711,3147,-1.160400390625,0.193359375,-0.17578125
11.832,318,3147,1689,3147,-1.1640625,0.2501220703125,-0.1182861328125
11.840,318,3147,1649,3147,-1.1444091796875,0.211669921875,-0.0440673828125
11.854,313,3147,1531,3147,-1.075439453125,0.0948486328125,-0.0242919921875
11.864,316,3147,1494,3147,-0.975341796875,-0.039306640625,-0.0731201171875
11.870,315,3147,1437,3064,-0.8572998046875,-0.1241455078125,-0.12060546875
11.884,315,3147,1348,2494,-0.7298583984375,-0.1231689453125,-0.1597900390625
11.892,314,3147,1341,2204,-0.637939453125,-0.0694580078125,-0.1220703125
11.917,313,3147,1289,1877,-0.6114501953125,0.0084228515625,-0.009521484375
11.917,313,3147,1175,996,-0.6043701171875,0.078125,-0.0068359375
11.922,312,3147,1202,465,-0.572265625,0.072998046875,-0.16845703125
11.931,310,2948,1108,356,-0.5438232421875,0.0496826171875,-0.35302734375
11.944,309,2073,1042,338,-0.5732421875,0.139404296875,-0.448486328125
11.958,308,1573,1045,347,-0.663330078125,0.29345703125,-0.4541015625
11.960,308,1107,1014,336,-0.7569580078125,0.3380126953125,-0.4359130859375
11.986,308,753,963,328,-0.7867431640625,0.22607421875,-0.4326171875
11.986,296,695,944,332,-0.7464599609375,0.0986328125,-0.4124755859375
11.990,306,631,917,328,-0.7008056640625,0.081787109375,-0.366455078125
12.011,306,657,856,327,-0.6961669921875,0.1505126953125,-0.31591796875
12.012,293,705,861,324,-0.7276611328125,0.22314453125,-0.276123046875
12.020,306,784,887,328,-0.771240234375,0.2572021484375,-0.2613525390625
12.034,308,944,920,331,-0.80419921875,0.247314453125,-0.2584228515625
12.042,308,1103,918,332,-0.808837890625,0.215087890625,-0.242919921875
12.051,307,1428,922,342,-0.789794921875,0.191162109375,-0.22265625
12.064,308,1878,957,344,-0.7725830078125,0.1715087890625,-0.21337890625
12.072,310,2247,1004,351,-0.761962890625,0.1380615234375,-0.2081298828125
12.090,308,2541,1104,356,-0.7386474609375,0.1065673828125,-0.20263671875
12.094,310,3147,1191,357,-0.6983642578125,0.0860595703125,-0.209716796875
12.111,313,3147,1224,571,-0.661865234375,0.0679931640625,-0.2391357421875
12.112,310,3147,1224,944,-0.6365966796875,0.041748046875,-0.2686767578125
12.125,313,3147,1260,1527,-0.609619140625,-0.0155029296875,-0.2679443359375
12.132,313,3147,1195,1905,-0.557861328125,-0.0819091796875,-0.2274169921875
12.140,313,3147,1125,2210,-0.4254150390625,-0.0738525390625,-0.1793212890625
12.154,308,3147,1185,2750,-0.2000732421875,0.0472412109375,-0.1654052734375
12.171,313,3147,1290,3092,-0.0089111328125,0.1788330078125,-0.1346435546875
12.171,313,3147,1399,3147,-0.0426025390625,0.194580078125,-0.085693359375
12.208,316,3147,1598,3147,-0.3515625,0.2183837890625,-0.0052490234375
12.209,316,3147,1675,3147,-0.7879638671875,0.310546875,0.06982421875
12.209,317,3147,1761,3147,-1.265380859375,0.3692626953125,-0.0472412109375
12.214,323,3147,1819,3147,-1.735107421875,0.4769287109375,-0.3695068359375
12.228,321,3147,1882,3147,-2.0621337890625,0.642333984375,-0.80029296875
12.230,321,3147,1855,3147,-2.2896728515625,0.6060791015625,-1.1387939453125
12.244,319,3147,1795,3147,-2.560546875,0.1942138671875,-1.10107421875
12.252,316,3147,1772,3147,-2.61328125,-0.449951171875,-0.4451904296875
12.260,317,3147,1796,3147,-1.9266357421875,-0.734130859375,0.5556640625
12.277,317,3147,1790,3147,-0.8485107421875,-0.2296142578125,0.88037109375
12.288,313,3147,1864,3147,-0.428955078125,0.4766845703125,0.18115234375
12.290,317,3147,1888,3147,-0.97216796875,0.702392578125,-0.7491455078125
12.305,319,3147,1908,3147,-1.75146484375,0.509765625,-1.1341552734375
12.322,318,3147,1922,3147,-1.98095703125,0.2457275390625,-0.94482421875
12.325,321,3147,1936,3147,-1.6851806640625,0.1531982421875,-0.6480712890625
12.334,321,3147,1904,3147,-1.3480224609375,0.2530517578125,-0.495849609375
12.342,319,3147,1852,3147,-1.181396484375,0.3616943359375,-0.40576171875
12.351,318,3147,1772,3147,-1.1175537109375,0.328857421875,-0.2275390625
12.364,318,3147,1687,3147,-1.0606689453125,0.16162109375,-0.0194091796875
12.372,316,3147,1636,3147,-0.9571533203125,-0.050537109375,0.08447265625
12.393,315,3147,1584,3147,-0.81201171875,-0.178466796875,0.0958251953125
12.395,316,3147,1471,2704,-0.650390625,-0.159912109375,0.027587890625
12.402,317,3147,1455,2419,-0.512939453125,-0.0888671875,-0.06884765625
12.410,315,3147,1422,2220,-0.512939453125,-0.0888671875,-0.06884765625
12.428,316,3147,1365,1766,-0.4915771484375,-0.0426025390625,-0.037841796875
12.432,315,3147,1334,1395,-0.55126953125,0.033935546875,-0.09326171875
12.440,314,3147,1286,1022,-0.55126953125,0.033935546875,-0.09326171875
12.454,308,3147,1143,548,-0.601806640625,0.1268310546875,-0.4227294921875
12.462,310,3147,1117,361,-0.635986328125,0.212158203125,-0.4898681640625
12.470,310,2960,1078,355,-0.635986328125,0.212158203125,-0.4898681640625
12.499,312,2489,991,346,-0.721923828125,0.311279296875,-0.3946533203125
12.500,308,2381,980,347,-0.7236328125,0.1910400390625,-0.33447265625
12.501,308,2347,992,345,-0.7236328125,0.1910400390625,-0.33447265625
12.514,310,2319,943,348,-0.780029296875,0.0816650390625,-0.279052734375
12.522,309,2368,920,351,-0.822021484375,0.1358642578125,-0.2705078125
12.543,309,2421,932,360,-0.822021484375,0.1358642578125,-0.2705078125
12.544,308,2593,959,360,-0.8431396484375,0.187255859375,-0.2833251953125
12.553,308,2725,989,359,-0.83837890625,0.178955078125,-0.27978515625
12.560,310,2841,978,359,-0.83837890625,0.178955078125,-0.27978515625
12.574,312,3059,1078,359,-0.8309326171875,0.142822265625,-0.247314453125
12.582,313,3147,1173,364,-0.801513671875,0.099365234375,-0.2286376953125
12.604,313,3147,1278,481,-0.801513671875,0.099365234375,-0.2286376953125
12.604,314,3147,1375,774,-0.75537109375,0.069580078125,-0.2393798828125
12.623,314,3147,1357,1005,-0.7313232421875,0.056396484375,-0.2542724609375
12.624,296,3147,1313,1257,-0.7313232421875,0.056396484375,-0.2542724609375
12.634,313,3147,1129,1781,-0.575927734375,-0.126953125,-0.222900390625
12.642,309,3147,976,2091,-0.575927734375,-0.126953125,-0.222900390625
12.653,306,3147,858,2404,-0.4063720703125,-0.2652587890625,-0.1729736328125
12.665,306,3147,806,2870,0.0008544921875,-0.303955078125,-0.026123046875
12.672,306,3147,841,3012,0.0008544921875,-0.303955078125,-0.026123046875
12.680,306,3147,989,3147,0.07470703125,-0.0255126953125,0.037841796875
12.707,310,3147,1323,3147,-0.7158203125,0.9937744140625,-0.07275390625
12.707,313,3147,1440,3147,-0.7158203125,0.9937744140625,-0.07275390625
12.710,315,3147,1504,3147,-1.13134765625,0.9747314453125,-0.2806396484375
12.735,316,3147,1624,3147,-1.5272216796875,0.4935302734375,-0.79296875
12.735,318,3147,1742,3147,-1.5272216796875,0.4935302734375,-0.79296875
12.741,321,3147,1809,3147,-1.8153076171875,0.5648193359375,-0.90625
12.754,318,3147,1753,3147,-2.758056640625,-0.0780029296875,-0.6143798828125
12.766,318,3147,1722,3147,-2.758056640625,-0.0780029296875,-0.6143798828125
12.770,318,3147,1689,3147,-2.6141357421875,-0.6737060546875,-0.08837890625
12.784,315,3147,1732,3147,-0.676025390625,-0.109130859375,0.4024658203125
12.793,316,3147,1785,2137,-0.676025390625,-0.109130859375,0.4024658203125
12.800,316,3147,1806,3117,-0.5030517578125,0.4501953125,-0.3046875
12.816,318,3147,1800,3147,-1.87939453125,0.5189208984375,-1.0347900390625
12.824,318,3147,1808,3147,-1.87939453125,0.5189208984375,-1.0347900390625
12.843,316,3147,1798,3147,-1.9481201171875,0.326904296875,-0.753662109375
12.845,304,3147,1757,2848,-1.3453369140625,0.2344970703125,-0.420654296875
12.853,321,3147,1665,3147,-1.3453369140625,0.2344970703125,-0.420654296875
12.861,316,3147,1588,3147,-1.188720703125,0.16162109375,-0.251953125
12.869,316,3147,1555,3147,-1.0606689453125,-0.004638671875,0.0185546875
12.883,315,3147,1456,3000,-0.9149169921875,-0.1614990234375,0.1883544921875
12.891,315,3147,1419,2736,-0.7850341796875,-0.1507568359375,0.196044921875
12.904,314,3147,1358,2458,-0.6790771484375,0.0185546875,0.089599609375
12.943,315,3147,1348,2050,-0.573486328125,0.1536865234375,-0.046142578125
12.943,298,3147,1351,1711,-0.4837646484375,0.12841796875,-0.12548828125
12.943,313,3147,1308,1306,-0.4422607421875,0.0509033203125,-0.1873779296875
12.944,313,3147,1292,391,-0.4478759765625,0.0726318359375,-0.291259765625
12.952,315,3147,1292,360,-0.471435546875,0.1871337890625,-0.432861328125
12.960,315,2886,1201,354,-0.51513671875,0.29248046875,-0.541748046875
12.975,313,2278,1157,346,-0.5885009765625,0.3172607421875,-0.5489501953125
12.982,310,2056,1129,346,-0.659423828125,0.2496337890625,-0.4892578125
12.991,313,1945,1155,344,-0.6993408203125,0.123291015625,-0.4244384765625
13.006,310,1914,1093,346,-0.7147216796875,0.02490234375,-0.3663330078125
13.012,309,1983,1078,346,-0.7349853515625,0.019287109375,-0.316650390625
13.035,310,2035,1067,346,-0.7811279296875,0.0841064453125,-0.2781982421875
13.035,310,2178,1050,347,-0.825439453125,0.14404296875,-0.253662109375
13.043,311,2279,1042,348,-0.84521484375,0.1561279296875,-0.2388916015625
13.050,309,2330,1050,348,-0.8658447265625,0.1439208984375,-0.2281494140625
13.064,310,2458,1182,348,-0.9034423828125,0.1474609375,-0.21630859375
13.075,313,2544,1225,354,-0.93896484375,0.1634521484375,-0.2064208984375
13.081,313,2613,1283,354,-0.945556640625,0.1517333984375,-0.2178955078125
13.094,315,2840,1355,352,-0.92138671875,0.1036376953125,-0.24658203125
13.112,315,3031,1380,360,-0.8743896484375,0.0609130859375,-0.26611328125
13.113,298,3147,1380,365,-0.803466796875,0.05126953125,-0.275390625
13.131,314,3147,1334,698,-0.724853515625,0.0506591796875,-0.2724609375
13.148,314,3147,1306,1000,-0.6534423828125,0.0294189453125,-0.2364501953125
13.148,310,3147,1237,1411,-0.5726318359375,-0.021484375,-0.1788330078125
13.154,307,3147,1018,1980,-0.4627685546875,-0.0875244140625,-0.1446533203125
13.162,308,3147,980,2296,-0.32568359375,-0.076171875,-0.13525390625
13.170,309,3147,957,2571,-0.1585693359375,0.0770263671875,-0.1513671875
13.184,308,3147,1045,3046,0.03662109375,0.185546875,-0.1759033203125
13.192,309,3147,1136,3147,0.15234375,0.10546875,-0.1749267578125
13.200,310,3147,1275,3147,-0.0006103515625,0.091552734375,-0.23779296875
13.217,313,3147,1557,3147,-0.4700927734375,0.3956298828125,-0.30419921875
13.225,318,3147,1634,3147,-1.0809326171875,0.817138671875,-0.2862548828125
13.244,318,3147,1759,3147,-1.6416015625,0.893798828125,-0.27099609375
13.247,321,3147,1789,3147,-2.028564453125,0.555419921875,-0.3587646484375
13.253,323,3147,1867,3147,-2.2513427734375,0.190673828125,-0.5609130859375
13.260,323,3147,1809,3147,-2.45556640625,-0.0926513671875,-0.7230224609375
13.274,317,3147,1636,3147,-2.606201171875,-0.3895263671875,-0.6162109375
13.282,318,3147,1623,3147,-2.258056640625,-0.6046142578125,-0.017578125
13.290,316,3147,1574,3147,-1.3558349609375,-0.486328125,0.5203857421875
13.304,315,3147,1664,3147,-0.61328125,0.03076171875,0.2496337890625
13.312,315,3147,1739,3147,-0.5626220703125,0.665283203125,-0.5101318359375
13.320,316,3147,1808,3147,-1.1185302734375,1.0108642578125,-1.08837890625
13.354,318,3147,1863,3147,-1.6787109375,0.810302734375,-1.17138671875
13.354,302,3147,1904,3147,-1.757568359375,0.3436279296875,-0.8658447265625
13.354,318,3147,1941,3147,-1.5299072265625,0.08837890625,-0.5382080078125
13.364,318,3147,1948,3147,-1.33349609375,0.1507568359375,-0.393310546875
13.397,318,3147,1929,3147,-1.24609375,0.2879638671875,-0.3642578125
13.412,318,3147,1918,3147,-1.2120361328125,0.303466796875,-0.3232421875
13.427,321,3147,1837,3147,-1.1607666015625,0.209716796875,-0.2186279296875
13.427,318,3147,1766,3147,-1.048583984375,0.06884765625,-0.0821533203125
13.427,317,3147,1757,3147,-0.8802490234375,-0.0948486328125,0.0667724609375
13.427,316,3147,1691,2874,-0.705078125,-0.2430419921875,0.199462890625
13.448,317,3147,1615,2565,-0.5728759765625,-0.312744140625,0.2340087890625
13.448,316,3147,1555,2258,-0.5321044921875,-0.26904296875,0.1884765625
13.454,315,3147,1472,1629,-0.587158203125,-0.1424560546875,0.1285400390625
13.463,312,3147,1397,1156,-0.6488037109375,-0.0150146484375,0.0474853515625
13.470,316,3147,1370,592,-0.6478271484375,0.071044921875,-0.11083984375
13.484,313,2776,1312,349,-0.607421875,0.16064453125,-0.3304443359375
13.492,314,2435,1184,357,-0.570556640625,0.268310546875,-0.502685546875
13.500,311,2203,1081,351,-0.57861328125,0.3253173828125,-0.554443359375
13.517,308,1803,1042,344,-0.646240234375,0.2890625,-0.50390625
13.522,308,1603,1045,342,-0.7108154296875,0.18359375,-0.4454345703125
13.563,307,1476,1045,336,-0.7108154296875,0.18359375,-0.4454345703125
13.564,311,1439,1078,334,-0.7408447265625,0.10009765625,-0.379638671875
13.564,298,1437,1091,336,-0.7598876953125,0.168701171875,-0.3594970703125
13.564,310,1569,1092,338,-0.7598876953125,0.168701171875,-0.3594970703125
13.574,306,1773,1108,338,-0.79736328125,0.2440185546875,-0.3338623046875
13.582,310,1961,1108,346,-0.79150390625,0.2052001953125,-0.3118896484375
13.590,310,2124,1137,348,-0.79150390625,0.2052001953125,-0.3118896484375
13.604,311,2407,1206,351,-0.791015625,0.166015625,-0.261962890625
13.620,313,2645,1283,359,-0.787353515625,0.1640625,-0.2396240234375
13.621,313,2925,1326,359,-0.787353515625,0.1640625,-0.2396240234375
13.638,313,3147,1282,514,-0.736572265625,0.0699462890625,-0.2069091796875
13.669,313,3147,1236,814,-0.68798828125,0.00341796875,-0.1961669921875
13.669,316,3147,1216,1133,-0.68798828125,0.00341796875,-0.1961669921875
13.670,311,3147,1159,1634,-0.6068115234375,-0.0927734375,-0.1478271484375
13.673,309,3147,1018,1989,-0.561767578125,-0.0535888671875,-0.1143798828125
13.680,310,3147,1029,2306,-0.561767578125,-0.0535888671875,-0.1143798828125
13.694,306,3147,1039,2876,-0.359130859375,0.1702880859375,-0.0797119140625
13.702,310,3147,980,3107,-0.1739501953125,0.197509765625,0.0447998046875
13.710,301,3147,1054,3147,-0.1739501953125,0.197509765625,0.0447998046875
13.724,310,3147,1348,3147,-0.073974609375,0.086181640625,0.077880859375
13.733,310,3147,1478,3147,-0.4168701171875,0.1876220703125,-0.153564453125
13.743,316,3147,1599,3147,-0.4168701171875,0.1876220703125,-0.153564453125
13.754,316,3147,1715,3147,-1.5308837890625,0.687744140625,-0.848876953125
13.767,319,3147,1811,3147,-1.5308837890625,0.687744140625,-0.848876953125
13.770,323,3147,1864,3147,-2.11376953125,0.9453125,-1.1754150390625
13.784,319,3147,1733,3147,-2.9244384765625,-0.0618896484375,-0.7945556640625
13.792,321,3147,1730,3147,-2.9244384765625,-0.0618896484375,-0.7945556640625
13.800,318,3147,1761,3147,-2.77099609375,-0.752197265625,-0.0294189453125
13.814,316,3147,1669,3147,-0.714111328125,-0.3193359375,0.8365478515625
13.824,316,3147,1718,3147,-0.714111328125,-0.3193359375,0.8365478515625
13.831,318,3147,1759,3147,-0.3199462890625,0.483154296875,-0.15478515625
13.853,318,3147,1816,3147,-1.7264404296875,0.8641357421875,-1.2904052734375
13.853,302,3147,1796,3147,-1.7264404296875,0.8641357421875,-1.2904052734375
13.865,319,3147,1850,3147,-1.988525390625,0.4420166015625,-0.9593505859375
13.876,317,3147,1846,3147,-1.7191162109375,0.0814208984375,-0.537841796875
13.883,318,3147,1878,3147,-1.38525390625,0.004638671875,-0.320556640625
13.892,318,3147,1838,3147,-1.201171875,0.0880126953125,-0.2767333984375
13.904,318,3147,1747,3147,-1.1351318359375,0.15869140625,-0.12841796875
13.912,314,3147,1700,3147,-1.1351318359375,0.15869140625,-0.12841796875
13.928,316,3147,1648,3147,-1.0655517578125,0.140380859375,-0.0135498046875
13.934,316,3147,1560,3147,-0.7757568359375,-0.0133056640625,0.0333251953125
13.954,317,3147,1462,2912,-0.7757568359375,-0.0133056640625,0.0333251953125
13.954,316,3147,1398,2561,-0.6060791015625,-0.116943359375,0.0179443359375
13.965,315,3147,1395,2035,-0.48388671875,-0.1375732421875,-0.01513671875
13.980,315,3147,1369,1681,-0.462158203125,-0.0718994140625,-0.023681640625
13.981,310,3147,1274,1163,-0.50634765625,0.0343017578125,-0.0372314453125
13.994,313,3147,1265,383,-0.5338134765625,0.1429443359375,-0.132568359375
14.005,313,3062,1191,363,-0.5172119140625,0.2244873046875,-0.303466796875
14.010,313,2778,1122,363,-0.52490234375,0.2779541015625,-0.444580078125
14.029,313,2263,1010,347,-0.6068115234375,0.31396484375,-0.483154296875
14.032,310,2041,1004,347,-0.7115478515625,0.3072509765625,-0.4619140625
14.040,307,1846,1014,344,-0.7706298828125,0.2109375,-0.4256591796875
14.054,307,1815,999,345,-0.77001953125,0.0677490234375,-0.3756103515625
14.063,310,1846,958,346,-0.7427978515625,-0.0032958984375,-0.3226318359375
14.070,309,1931,922,348,-0.7459716796875,0.0316162109375,-0.279052734375
14.088,308,2141,900,371,-0.7801513671875,0.1046142578125,-0.2508544921875
14.092,308,2321,882,364,-0.813720703125,0.1419677734375,-0.235107421875
14.100,308,2435,858,373,-0.85009765625,0.13720703125,-0.228271484375
14.117,310,2662,963,371,-0.8929443359375,0.1376953125,-0.2281494140625
14.136,312,2785,986,375,-0.9190673828125,0.15771484375,-0.2335205078125
14.136,310,2943,1050,376,-0.9134521484375,0.166748046875,-0.2513427734375
14.164,315,3147,1116,386,-0.886474609375,0.1563720703125,-0.266357421875
14.164,313,3147,1201,512,-0.8468017578125,0.1409912109375,-0.2586669921875
14.165,310,3147,1214,738,-0.793212890625,0.1190185546875,-0.2320556640625
14.175,313,3147,1243,1163,-0.71533203125,0.059326171875,-0.195556640625
14.182,310,3147,1262,1469,-0.624267578125,-0.0430908203125,-0.165771484375
14.197,313,3147,1251,1813,-0.5511474609375,-0.11572265625,-0.1671142578125
14.204,313,3147,1172,2308,-0.4930419921875,-0.103271484375,-0.2125244140625
14.212,310,3147,1159,2551,-0.406494140625,-0.0172119140625,-0.269775390625
14.220,315,3147,1248,2888,-0.2540283203125,0.0859375,-0.27734375
14.239,313,3147,1359,3147,-0.1124267578125,0.179443359375,-0.21142578125
14.242,314,3147,1503,3147,-0.1466064453125,0.346923828125,-0.145751953125
14.258,316,3147,1636,3147,-0.406494140625,0.5682373046875,-0.1395263671875
14.273,323,3147,1796,3147,-0.7410888671875,0.6214599609375,-0.150146484375
14.275,317,3147,1864,3147,-1.037109375,0.4478759765625,-0.18994140625
14.282,304,3147,1954,3147,-1.39453125,0.2431640625,-0.22705078125
14.302,318,3147,2060,3147,-1.8466796875,0.1776123046875,-0.311279296875
14.303,323,3147,2106,3147,-2.2664794921875,0.2227783203125,-0.5150146484375
14.310,323,3147,2014,3147,-2.540283203125,0.1822509765625,-0.6866455078125
14.324,318,3147,1891,3147,-2.5191650390625,-0.0657958984375,-0.532470703125
14.343,318,3147,1882,3147,-1.927001953125,-0.384521484375,0.11669921875
14.344,321,3147,1929,3147,-1.0057373046875,-0.3616943359375,0.5677490234375
14.356,321,3147,1996,3147,-0.571044921875,0.1337890625,0.1239013671875
14.373,319,3147,2035,3147,-0.96337890625,0.6661376953125,-0.7425537109375
14.377,321,3147,2039,3147,-1.6954345703125,0.7940673828125,-1.16015625
14.384,323,3147,2035,3147,-2.0233154296875,0.510498046875,-0.9462890625
14.392,321,3147,2018,3147,-1.8267822265625,0.2073974609375,-0.5936279296875
14.410,321,3147,2008,3147,-1.49755859375,0.126220703125,-0.4246826171875
14.414,321,3147,1880,3147,-1.2572021484375,0.1309814453125,-0.349609375
14.423,317,3147,1794,3147,-1.1295166015625,0.0865478515625,-0.2200927734375
14.430,318,3147,1721,3147,-1.05859375,0.025390625,-0.0621337890625
14.444,314,3147,1627,3147,-0.9580078125,-0.0093994140625,0.04931640625
14.468,315,3147,1521,2832,-0.798583984375,-0.0450439453125,0.1136474609375
14.468,315,3147,1416,2484,-0.604248046875,-0.1187744140625,0.126220703125
14.476,313,3147,1294,1826,-0.4560546875,-0.180419921875,0.1009521484375
14.482,314,3147,1201,1348,-0.4215087890625,-0.1353759765625,0.0787353515625
14.490,313,3147,1173,784,-0.4427490234375,0.00439453125,0.012451171875
14.504,313,2877,1149,348,-0.4429931640625,0.1650390625,-0.169921875
14.523,315,2505,1067,348,-0.43798828125,0.292724609375,-0.3802490234375
14.523,294,2222,933,342,-0.4830322265625,0.35791015625,-0.4739990234375
14.542,309,1669,906,336,-0.5814208984375,0.37353515625,-0.4420166015625
14.542,309,1462,922,337,-0.6905517578125,0.3292236328125,-0.3658447265625
14.550,308,1287,923,332,-0.7764892578125,0.228759765625,-0.296142578125
14.575,308,1092,913,330,-0.8170166015625,0.1309814453125,-0.26318359375
14.578,292,1034,905,332,-0.83056640625,0.075927734375,-0.2872314453125
14.581,308,999,922,330,-0.8570556640625,0.075439453125,-0.325927734375
14.594,308,973,922,328,-0.8909912109375,0.10693359375,-0.3311767578125
14.603,306,1043,946,332,-0.905029296875,0.1251220703125,-0.3165283203125
14.610,308,1167,949,332,-0.900390625,0.1246337890625,-0.30712890625
14.624,308,1359,975,334,-0.89208984375,0.1363525390625,-0.3023681640625
14.632,308,1544,1014,338,-0.8818359375,0.1651611328125,-0.29345703125
14.645,308,1750,1011,342,-0.8680419921875,0.1822509765625,-0.2763671875
14.654,310,2053,1062,344,-0.8460693359375,0.170654296875,-0.2529296875
14.662,308,2296,1078,347,-0.8114013671875,0.14013671875,-0.227783203125
14.683,308,2554,1091,348,-0.8114013671875,0.14013671875,-0.227783203125
14.684,296,3144,1220,359,-0.7203369140625,0.082763671875,-0.1956787109375
14.693,313,3147,1243,629,-0.655029296875,0.024658203125,-0.1875
14.700,310,3147,1157,1000,-0.655029296875,0.024658203125,-0.1875
14.717,308,3147,879,1624,-0.4459228515625,-0.179443359375,-0.0909423828125
14.727,301,3147,733,2012,-0.2567138671875,-0.120849609375,0.032958984375
14.730,304,3147,694,2247,-0.2567138671875,-0.120849609375,0.032958984375
14.748,304,3147,802,2630,0.00634765625,0.1630859375,0.031005859375
14.753,304,3147,846,2918,-0.0931396484375,0.0845947265625,-0.010009765625
14.764,305,3147,879,3147,-0.0931396484375,0.0845947265625,-0.010009765625
14.779,306,3147,1045,3147,-0.6998291015625,0.4608154296875,-0.30419921875
14.784,308,3147,1078,3147,-1.0511474609375,0.6427001953125,-0.56787109375
14.793,306,3147,1108,3147,-1.0511474609375,0.6427001953125,-0.56787109375
14.805,310,3147,1312,3147,-1.8765869140625,0.7589111328125,-0.6065673828125
14.813,315,3147,1397,3147,-2.2579345703125,0.553466796875,-0.446044921875
14.821,307,3147,1452,3147,-2.2579345703125,0.553466796875,-0.446044921875
14.834,309,3147,1283,3147,-2.416748046875,-0.2525634765625,-0.53955078125
14.851,308,3147,1276,3147,-1.990966796875,-0.5955810546875,-0.349365234375
14.851,308,3147,1321,3147,-1.990966796875,-0.5955810546875,-0.349365234375
14.864,308,3147,1434,3147,-0.7530517578125,0.102294921875,-0.0443115234375
14.882,310,3147,1455,3147,-0.7530517578125,0.102294921875,-0.0443115234375
14.882,313,3147,1468,3147,-0.92138671875,0.6455078125,-0.623046875
14.889,309,3147,1483,3147,-1.486572265625,0.7642822265625,-0.9788818359375
14.906,315,3147,1528,3147,-1.7003173828125,0.1722412109375,-0.511962890625
14.911,316,3147,1604,3147,-1.7003173828125,0.1722412109375,-0.511962890625
14.920,316,3147,1627,3147,-1.4437255859375,0.10986328125,-0.3756103515625
14.941,317,3147,1607,3147,-1.113037109375,0.2923583984375,-0.348876953125
14.942,315,3147,1584,3147,-1.113037109375,0.2923583984375,-0.348876953125
14.952,308,3147,1531,3147,-1.0653076171875,0.264404296875,-0.216064453125
14.979,314,3147,1500,3147,-0.8621826171875,0.0458984375,0.018798828125
14.979,299,3147,1501,3147,-0.8621826171875,0.0458984375,0.018798828125
14.980,313,3147,1471,3057,-0.7301025390625,-0.048095703125,0.044189453125
14.993,315,3147,1441,2512,-0.6512451171875,-0.0675048828125,0.02685546875
15.001,313,3147,1413,2218,-0.6241455078125,-0.0537109375,-0.04443359375
15.009,315,3147,1359,1860,-0.638916015625,-0.0404052734375,-0.094970703125
15.023,313,3147,1303,1172,-0.6661376953125,-0.025146484375,-0.1036376953125
15.031,314,3147,1294,555,-0.662353515625,-0.0096435546875,-0.1336669921875
15.056,313,3061,1290,371,-0.630859375,0.035888671875,-0.2127685546875
15.057,310,2367,1251,359,-0.6019287109375,0.114501953125,-0.303955078125
15.062,306,1987,1149,354,-0.6043701171875,0.174560546875,-0.352783203125
15.074,309,1691,1079,347,-0.66015625,0.210205078125,-0.3529052734375
15.095,304,1236,1025,338,-0.7442626953125,0.2220458984375,-0.3316650390625
15.095,307,905,986,332,-0.799072265625,0.1939697265625,-0.294677734375
15.099,308,707,973,330,-0.81396484375,0.16162109375,-0.2679443359375
15.113,306,654,936,327,-0.8138427734375,0.1673583984375,-0.279541015625
15.121,309,678,883,328,-0.8148193359375,0.203369140625,-0.31201171875
15.131,304,678,883,330,-0.8193359375,0.2362060546875,-0.3369140625
15.143,305,713,869,324,-0.8204345703125,0.233642578125,-0.33544921875
15.160,306,790,931,334,-0.8193359375,0.1920166015625,-0.305419921875
15.160,306,912,939,316,-0.813720703125,0.14013671875,-0.2686767578125
15.174,306,1409,1013,337,-0.8011474609375,0.1043701171875,-0.243896484375
15.183,306,1694,1000,346,-0.7874755859375,0.084716796875,-0.2279052734375
15.196,308,2012,1022,348,-0.779052734375,0.0693359375,-0.2176513671875
15.203,316,2430,1096,359,-0.773193359375,0.05810546875,-0.215087890625
15.211,313,2769,1143,361,-0.7615966796875,0.045654296875,-0.2188720703125
15.219,310,3120,1189,369,-0.7376708984375,0.0281982421875,-0.225830078125
15.233,310,3147,1268,905,-0.696044921875,0.013916015625,-0.2261962890625
15.244,313,3147,1313,1336,-0.6427001953125,-0.022705078125,-0.214599609375
15.249,308,3147,1206,1716,-0.5732421875,-0.10205078125,-0.1878662109375
15.265,316,3147,1079,2257,-0.4586181640625,-0.120361328125,-0.1658935546875
15.273,307,3147,1129,2601,-0.29296875,0.06005859375,-0.1865234375
15.286,310,3147,1202,2920,-0.0833740234375,0.2906494140625,-0.2139892578125
15.297,312,3147,1316,3147,0.07763671875,0.3109130859375,-0.239013671875
15.301,313,3147,1440,3147,-0.0010986328125,0.301513671875,-0.278564453125
15.309,316,3147,1552,3147,-0.3997802734375,0.50341796875,-0.252685546875
15.324,324,3147,1781,3147,-0.9659423828125,0.7183837890625,-0.2520751953125
15.331,323,3147,1869,3147,-1.5579833984375,0.683837890625,-0.3299560546875
15.340,323,3147,1922,3147,-2.0787353515625,0.4151611328125,-0.38232421875
15.378,324,3147,1949,3147,-2.4051513671875,0.191650390625,-0.4451904296875
15.394,324,3147,1948,3147,-2.5892333984375,0.044677734375,-0.5390625
15.395,319,3147,1912,3147,-2.59814453125,-0.31884765625,-0.3736572265625
15.395,319,3147,1867,3147,-2.047119140625,-0.7784423828125,0.2962646484375
15.395,308,3147,1777,3147,-1.1055908203125,-0.7308349609375,0.69482421875
15.399,318,3147,1840,3147,-0.55517578125,-0.0849609375,0.1700439453125
15.413,317,3147,1864,3147,-0.735595703125,0.7244873046875,-0.769287109375
15.422,318,3147,1914,3147,-1.3857421875,1.2052001953125,-1.4046630859375
15.429,318,3147,1920,3147,-1.840576171875,0.94677734375,-1.41015625
15.444,321,3147,1920,3147,-1.7464599609375,0.281005859375,-1.0157470703125
15.452,318,3147,1931,3147,-1.4361572265625,-0.0836181640625,-0.63916015625
15.498,318,3147,1929,3147,-1.23046875,-0.0284423828125,-0.431396484375
15.498,321,3147,1867,3147,-1.135009765625,0.09716796875,-0.3106689453125
15.498,304,3147,1815,3147,-1.08447265625,0.118896484375,-0.20947265625
15.498,317,3147,1790,3147,-1.0181884765625,0.1094970703125,-0.1220703125
15.504,313,3147,1689,3147,-0.9119873046875,0.1190185546875,-0.021728515625
15.511,316,3147,1650,2948,-0.783447265625,0.0875244140625,0.083984375
15.519,315,3147,1607,2624,-0.6531982421875,-0.036865234375,0.1314697265625
15.533,315,3147,1516,2158,-0.571044921875,-0.1766357421875,0.1253662109375
15.542,315,3147,1463,1809,-0.5701904296875,-0.2340087890625,0.072021484375
15.550,313,3147,1391,1483,-0.6163330078125,-0.1884765625,-0.0220947265625
15.565,313,3147,1308,895,-0.64990234375,-0.0723876953125,-0.1273193359375
15.592,310,3147,1255,495,-0.6541748046875,0.0704345703125,-0.2445068359375
15.592,313,3146,1191,375,-0.6435546875,0.2032470703125,-0.34375
15.599,308,2765,1108,365,-0.626953125,0.2745361328125,-0.3883056640625
15.602,309,2563,1025,364,-0.6365966796875,0.295166015625,-0.38232421875
15.610,310,2412,971,361,-0.680908203125,0.2952880859375,-0.3492431640625
15.623,308,2280,969,357,-0.721435546875,0.2528076171875,-0.301513671875
15.631,308,2334,951,360,-0.7474365234375,0.1766357421875,-0.260986328125
15.639,304,2372,944,359,-0.7783203125,0.12548828125,-0.2674560546875
15.653,309,2460,957,357,-0.81103515625,0.13232421875,-0.31689453125
15.720,306,2560,959,363,-0.8306884765625,0.172607421875,-0.362060546875
15.720,309,2630,963,363,-0.8306884765625,0.172607421875,-0.362060546875
15.720,310,2934,974,364,-0.8172607421875,0.188720703125,-0.332763671875
15.720,308,3084,978,371,-0.7940673828125,0.162841796875,-0.2940673828125
15.720,313,3147,996,369,-0.7940673828125,0.162841796875,-0.2940673828125
15.720,310,3147,1026,683,-0.71142578125,0.09619140625,-0.2674560546875
15.731,308,3147,1026,905,-0.6541748046875,0.0477294921875,-0.275634765625
15.732,310,3147,1034,1213,-0.6541748046875,0.0477294921875,-0.275634765625
15.746,308,3147,1062,1730,-0.5546875,0.019287109375,-0.233154296875
15.751,306,3147,1004,2071,-0.4971923828125,0.045166015625,-0.18359375
15.774,308,3147,989,2401,-0.4971923828125,0.045166015625,-0.18359375
15.775,291,3147,917,2990,-0.280517578125,0.119140625,-0.1256103515625
15.812,307,3147,910,3147,-0.0875244140625,0.1534423828125,-0.0018310546875
15.812,304,3147,987,3147,-0.0875244140625,0.1534423828125,-0.0018310546875
15.812,308,3147,1201,3147,-0.137451171875,0.1580810546875,0.243896484375
15.813,310,3147,1278,3147,-0.52392578125,0.1536865234375,0.183349609375
15.819,310,3147,1434,3147,-0.52392578125,0.1536865234375,0.183349609375
15.834,313,3147,1546,3147,-1.501220703125,0.2989501953125,-0.5216064453125
15.842,316,3147,1588,3147,-1.9049072265625,0.6748046875,-1.088134765625
15.859,318,3147,1687,3147,-1.9049072265625,0.6748046875,-1.088134765625
15.863,318,3147,1604,3147,-2.832763671875,0.478759765625,-1.0960693359375
15.881,316,3147,1552,3147,-2.9268798828125,-0.3404541015625,-0.288330078125
15.881,318,3147,1536,3147,-2.9268798828125,-0.3404541015625,-0.288330078125
15.920,314,3147,1547,3147,-0.864990234375,-0.590087890625,0.6444091796875
15.920,321,3147,1592,3147,-0.864990234375,-0.590087890625,0.6444091796875
15.920,316,3147,1636,3147,-0.4105224609375,0.3599853515625,-0.177490234375
15.923,316,3147,1704,3147,-1.6004638671875,1.009033203125,-1.166748046875
15.931,316,3147,1744,3147,-1.6004638671875,1.009033203125,-1.166748046875
15.940,316,3147,1763,3147,-1.8245849609375,0.4771728515625,-0.931640625
15.953,318,3147,1792,3147,-1.333984375,0.0238037109375,-0.4525146484375
15.962,316,3147,1787,3147,-1.333984375,0.0238037109375,-0.4525146484375
15.981,321,3147,1772,3147,-1.2403564453125,0.153564453125,-0.3768310546875
15.986,318,3147,1709,3147,-1.1522216796875,0.16064453125,-0.18603515625
16.011,318,3147,1669,3147,-1.1522216796875,0.16064453125,-0.18603515625
16.013,316,3147,1595,3147,-1.03173828125,0.0899658203125,-0.018310546875
16.016,316,3147,1490,3147,-0.7156982421875,-0.0799560546875,0.188720703125
16.021,316,3147,1434,3147,-0.7156982421875,-0.0799560546875,0.188720703125
16.032,316,3147,1323,2899,-0.5943603515625,-0.1387939453125,0.15576171875
16.043,315,3147,1249,2421,-0.5279541015625,-0.0030517578125,-0.083740234375
16.051,315,3147,1260,2151,-0.5279541015625,-0.0030517578125,-0.083740234375
16.059,315,3147,1278,1869,-0.568115234375,0.054931640625,-0.1368408203125
16.078,316,3147,1243,1434,-0.6082763671875,0.105224609375,-0.24658203125
16.081,313,3147,1206,1101,-0.6082763671875,0.105224609375,-0.24658203125
16.090,312,3147,1160,922,-0.5885009765625,0.175537109375,-0.3577880859375
16.120,312,3147,1045,802,-0.5704345703125,0.237060546875,-0.440185546875
16.121,310,3147,980,735,-0.599853515625,0.26953125,-0.446533203125
16.121,309,3147,1047,695,-0.6669921875,0.2703857421875,-0.396484375
16.133,310,3147,1117,882,-0.713623046875,0.2156982421875,-0.3433837890625
16.146,313,3147,1103,972,-0.7325439453125,0.14599609375,-0.312744140625
16.150,312,3147,1078,1014,-0.7593994140625,0.143310546875,-0.310302734375
16.164,313,3147,1120,1122,-0.7926025390625,0.1890869140625,-0.3150634765625
16.172,313,3147,1132,1213,-0.8104248046875,0.19775390625,-0.294677734375
16.181,310,3147,1178,1303,-0.8218994140625,0.16259765625,-0.2578125
16.193,313,3147,1206,1441,-0.845947265625,0.140380859375,-0.2342529296875
16.217,313,3147,1225,1529,-0.87841796875,0.1405029296875,-0.2318115234375
16.218,315,3147,1323,1622,-0.8958740234375,0.1239013671875,-0.245849609375
16.224,313,3147,1468,1768,-0.88671875,0.0821533203125,-0.260009765625
16.232,316,3147,1523,1846,-0.8583984375,0.0487060546875,-0.256591796875
16.239,316,3147,1541,1957,-0.8253173828125,0.0401611328125,-0.247314453125
16.258,313,3147,1504,2190,-0.802734375,0.0478515625,-0.21923828125
16.261,315,3147,1490,2395,-0.777099609375,0.0489501953125,-0.15380859375
16.269,316,3147,1453,2648,-0.6971435546875,0.0211181640625,-0.050048828125
16.284,313,3147,1330,3064,-0.52734375,-0.0238037109375,0.07861328125
16.291,313,3147,1268,3147,-0.27783203125,-0.031494140625,0.1739501953125
16.309,314,3147,1323,3147,-0.031494140625,0.031005859375,0.172119140625
16.323,314,3147,1536,3147,0.1199951171875,0.1328125,0.0535888671875
16.325,316,3147,1638,3147,0.10888671875,0.272705078125,-0.1651611328125
16.329,316,3147,1757,3147,-0.22900390625,0.4967041015625,-0.4847412109375
16.344,318,3147,1945,3147,-0.9061279296875,0.7330322265625,-0.877197265625
16.352,328,3147,2021,3147,-1.649658203125,0.8138427734375,-1.1312255859375
16.359,321,3147,2012,3147,-2.217041015625,0.5904541015625,-1.068359375
16.374,327,3147,1900,3147,-2.5858154296875,0.1346435546875,-0.7615966796875
16.385,323,3147,1826,3147,-2.8055419921875,-0.234619140625,-0.427490234375
16.389,322,3147,1838,3147,-2.6427001953125,-0.4228515625,-0.033447265625
16.411,322,3147,1854,3147,-1.8017578125,-0.399169921875,0.4415283203125
16.413,318,3147,1877,3147,-0.77001953125,0.0118408203125,0.4482421875
16.421,321,3147,1927,3147,-0.3909912109375,0.601806640625,-0.162841796875
16.434,321,3147,1969,3147,-0.83837890625,0.858642578125,-0.78271484375
16.441,322,3147,1989,3147,-1.5164794921875,0.614013671875,-0.9306640625
16.449,321,3147,1994,3147,-1.75732421875,0.19873046875,-0.67822265625
16.463,323,3147,1961,3147,-1.568603515625,0.0037841796875,-0.378173828125
16.471,322,3147,1920,3147,-1.32373046875,0.051025390625,-0.240966796875
16.492,319,3147,1863,3147,-1.2244873046875,0.13818359375,-0.2646484375
