time,compression0,compression1,compression2,compression3,accel_x,accel_y,accel_z
0.008,307,559,933,323,-0.6883544921875,0.1181640625,-0.43408203125
0.008,304,553,973,323,-0.7171630859375,0.10498046875,-0.4595947265625
0.022,306,519,1000,323,-0.7232666015625,0.13232421875,-0.462890625
0.030,304,525,1014,324,-0.7037353515625,0.1009521484375,-0.4222412109375
0.038,304,514,1053,323,-0.6866455078125,-0.0040283203125,-0.3663330078125
0.059,305,501,1116,324,-0.6746826171875,-0.1015625,-0.341064453125
0.060,306,522,1146,324,-0.6622314453125,-0.1317138671875,-0.3416748046875
0.068,304,542,1157,327,-0.6622314453125,-0.1317138671875,-0.3416748046875
0.084,304,621,1216,328,-0.6873779296875,-0.00732421875,-0.39013671875
0.090,306,654,1213,336,-0.7225341796875,0.099365234375,-0.4310302734375
0.098,306,754,1251,344,-0.7225341796875,0.099365234375,-0.4310302734375
0.114,308,978,1317,348,-0.820556640625,0.2254638671875,-0.56787109375
0.121,308,1185,1333,359,-0.8905029296875,0.2335205078125,-0.6708984375
0.128,310,1422,1345,359,-0.8905029296875,0.2335205078125,-0.6708984375
0.161,310,1815,1359,368,-0.93017578125,0.093017578125,-0.6783447265625
0.178,308,2075,1370,348,-0.920654296875,0.0283203125,-0.6044921875
0.183,310,2299,1377,376,-0.920654296875,0.0283203125,-0.6044921875
0.188,313,2584,1383,376,-0.988037109375,0.0400390625,-0.5023193359375
0.188,314,2703,1396,379,-1.0203857421875,0.0494384765625,-0.4642333984375
0.188,313,2788,1399,383,-1.0203857421875,0.0494384765625,-0.4642333984375
0.202,314,2912,1422,382,-0.996337890625,-0.0126953125,-0.394287109375
0.210,310,3020,1440,387,-0.99560546875,-0.012451171875,-0.381103515625
0.225,315,3042,1439,387,-0.99560546875,-0.012451171875,-0.381103515625
0.232,313,3048,1450,383,-1.001220703125,0.0723876953125,-0.41015625
0.254,314,3020,1463,388,-0.9549560546875,0.0843505859375,-0.425537109375
0.254,315,2996,1455,384,-0.9549560546875,0.0843505859375,-0.425537109375
0.262,313,2973,1467,385,-0.8984375,0.0631103515625,-0.4705810546875
0.270,314,2927,1456,387,-0.909423828125,0.0836181640625,-0.5008544921875
0.279,315,2868,1474,385,-0.909423828125,0.0836181640625,-0.5008544921875
0.292,314,2695,1471,381,-0.9288330078125,0.10595703125,-0.4942626953125
0.301,313,2573,1463,382,-0.9288330078125,0.10595703125,-0.4942626953125
0.308,315,2407,1457,382,-0.9293212890625,0.1156005859375,-0.48681640625
0.346,313,2188,1450,373,-0.876708984375,0.103271484375,-0.483642578125
0.346,298,2078,1453,373,-0.876708984375,0.103271484375,-0.483642578125
0.347,313,1985,1443,372,-0.8387451171875,0.0731201171875,-0.4761962890625
0.347,310,1980,1409,348,-0.8209228515625,0.0491943359375,-0.461669921875
0.363,313,1989,1439,371,-0.828125,0.0328369140625,-0.4337158203125
0.369,313,2014,1437,371,-0.8409423828125,0.0328369140625,-0.3944091796875
0.383,309,2105,1429,371,-0.8443603515625,0.0623779296875,-0.3287353515625
0.391,313,2166,1441,373,-0.8443603515625,0.0623779296875,-0.3287353515625
0.398,310,2225,1447,372,-0.842041015625,0.072998046875,-0.3360595703125
0.412,310,2478,1450,374,-0.8011474609375,0.0867919921875,-0.3714599609375
0.421,313,2616,1456,382,-0.8011474609375,0.0867919921875,-0.3714599609375
0.447,313,2782,1452,383,-0.766845703125,0.06494140625,-0.374755859375
0.458,314,3147,1437,409,-0.733642578125,0.0374755859375,-0.365966796875
0.458,315,3147,1434,506,-0.733642578125,0.0374755859375,-0.365966796875
0.458,316,3147,1494,830,-0.7474365234375,0.0589599609375,-0.3875732421875
0.473,318,3147,1551,1243,-0.7625732421875,0.041748046875,-0.3896484375
0.480,318,3147,1596,1632,-0.7625732421875,0.041748046875,-0.3896484375
0.488,324,3147,1624,1888,-0.711669921875,0.0408935546875,-0.353271484375
0.502,323,3147,1705,2258,-0.645263671875,0.05517578125,-0.275634765625
0.510,324,3147,1759,2519,-0.6014404296875,0.05322265625,-0.197265625
0.518,322,3147,1761,2876,-0.5460205078125,-0.0013427734375,-0.171630859375
0.539,327,3147,1811,3147,-0.461669921875,-0.053466796875,-0.1878662109375
0.541,361,3147,1828,3147,-0.3343505859375,-0.03759765625,-0.2103271484375
0.568,332,3147,1849,3147,-0.1397705078125,0.0872802734375,-0.1795654296875
0.568,347,3147,1989,3147,0.005615234375,0.27978515625,-0.1590576171875
0.571,346,3147,2105,3147,-0.1129150390625,0.31884765625,-0.2369384765625
0.578,347,3147,2225,3147,-0.5882568359375,0.138427734375,-0.4041748046875
0.592,344,3147,2330,3147,-1.2669677734375,0.076171875,-0.60888671875
0.600,347,3147,2398,3147,-1.9951171875,0.154541015625,-0.6380615234375
0.609,346,3147,2432,3147,-2.48486328125,0.1451416015625,-0.343505859375
0.622,347,3147,2486,3147,-2.4696044921875,0.182373046875,-0.116455078125
0.635,345,3147,2443,3147,-2.1767578125,0.24462890625,-0.252685546875
0.651,344,3147,2382,3147,-1.8087158203125,0.114501953125,-0.517333984375
0.652,342,3147,2382,3147,-1.2769775390625,-0.0133056640625,-0.689208984375
0.671,344,3147,2381,3147,-0.957275390625,0.2291259765625,-0.621337890625
0.672,344,3147,2392,3147,-1.3138427734375,0.5272216796875,-0.4461669921875
0.684,344,3147,2348,3147,-1.8773193359375,0.4169921875,-0.383056640625
0.690,334,3147,2316,3147,-1.951416015625,0.1727294921875,-0.4039306640625
0.698,334,3147,2233,3147,-1.5755615234375,0.1072998046875,-0.4005126953125
0.712,331,3147,2065,3147,-1.2183837890625,0.092529296875,-0.3048095703125
0.720,328,3147,1974,3147,-1.05810546875,0.00634765625,-0.19384765625
0.728,327,3147,1912,3147,-0.9520263671875,-0.0692138671875,-0.210693359375
0.742,323,3147,1796,2963,-0.8404541015625,-0.088134765625,-0.356689453125
0.769,319,3147,1669,2669,-0.789794921875,-0.1019287109375,-0.4814453125
0.769,316,3147,1641,2296,-0.7840576171875,-0.0809326171875,-0.52490234375
0.773,316,3147,1524,1636,-0.73486328125,0.0159912109375,-0.493896484375
0.783,316,3147,1443,1137,-0.621337890625,0.1014404296875,-0.4112548828125
0.788,315,3147,1424,763,-0.5086669921875,0.076171875,-0.3206787109375
0.802,313,3147,1384,407,-0.42822265625,-0.0736083984375,-0.2529296875
0.810,313,2989,1377,404,-0.38427734375,-0.2247314453125,-0.227783203125
0.818,310,2939,1373,398,-0.4071044921875,-0.2115478515625,-0.255859375
0.838,310,2727,1348,390,-0.5299072265625,-0.0347900390625,-0.2579345703125
0.840,310,2630,1333,390,-0.700927734375,0.1602783203125,-0.197265625
0.848,312,2565,1330,390,-0.804931640625,0.26318359375,-0.1531982421875
0.875,311,2683,1357,388,-0.802978515625,0.2728271484375,-0.135498046875
0.875,313,2888,1336,398,-0.746826171875,0.214599609375,-0.1514892578125
0.880,310,3055,1359,400,-0.7088623046875,0.11279296875,-0.2203369140625
0.888,313,3147,1369,404,-0.738037109375,0.0186767578125,-0.3109130859375
0.901,313,3147,1393,571,-0.8189697265625,-0.015380859375,-0.3621826171875
0.909,313,3147,1401,762,-0.8851318359375,-0.020263671875,-0.3646240234375
0.918,313,3147,1415,907,-0.9173583984375,-0.0228271484375,-0.357421875
0.931,314,3147,1444,1160,-0.9276123046875,-0.0101318359375,-0.3697509765625
0.940,313,3147,1455,1292,-0.9146728515625,0.001708984375,-0.388671875
0.948,315,3147,1462,1470,-0.9019775390625,0.02001953125,-0.401611328125
0.969,313,3147,1450,1800,-0.9066162109375,0.0635986328125,-0.40283203125
0.971,321,3147,1433,1949,-0.9102783203125,0.086181640625,-0.3758544921875
0.983,315,3147,1464,2035,-0.906005859375,0.06396484375,-0.3271484375
0.991,315,3147,1500,2231,-0.8861083984375,0.025146484375,-0.2830810546875
1.000,316,3147,1516,2449,-0.8302001953125,-0.027587890625,-0.2484130859375
1.008,316,3147,1535,2619,-0.728515625,-0.080810546875,-0.2198486328125
1.021,316,3147,1584,3000,-0.5858154296875,-0.0823974609375,-0.194091796875
1.029,318,3147,1627,3147,-0.4576416015625,0.0084228515625,-0.1865234375
1.043,321,3147,1715,3147,-0.382568359375,0.1409912109375,-0.210205078125
1.051,323,3147,1905,3147,-0.27587890625,0.1712646484375,-0.2125244140625
1.070,324,3147,2024,3147,-0.1612548828125,0.0478515625,-0.2049560546875
1.084,328,3147,2176,3147,-0.1612548828125,0.0478515625,-0.2049560546875
1.084,328,3147,2410,3147,-0.2396240234375,-0.1903076171875,-0.2218017578125
1.089,334,3147,2505,3147,-0.3450927734375,0.005615234375,-0.1414794921875
1.097,334,3147,2561,3147,-0.3450927734375,0.005615234375,-0.1414794921875
1.111,347,3147,2689,3147,-1.098388671875,0.4774169921875,-0.460205078125
1.121,354,3147,2728,3147,-1.707275390625,0.4276123046875,-0.5477294921875
1.127,359,3147,2795,3147,-1.707275390625,0.4276123046875,-0.5477294921875
1.152,360,3147,2875,3147,-2.537841796875,0.3079833984375,-0.33935546875
1.154,332,3147,2781,3147,-2.490478515625,0.352783203125,-0.613037109375
1.166,356,3147,2795,3147,-2.490478515625,0.352783203125,-0.613037109375
1.184,354,3147,2801,3147,-1.3104248046875,0.0126953125,-0.9232177734375
1.184,356,3147,2759,3147,-1.258544921875,0.439453125,-0.646240234375
1.187,351,3147,2769,3147,-1.258544921875,0.439453125,-0.646240234375
1.201,348,3147,2677,3147,-1.7760009765625,0.2564697265625,-0.55615234375
1.209,348,3147,2607,3147,-1.5577392578125,0.1719970703125,-0.616943359375
1.217,346,3147,2521,3147,-1.5577392578125,0.1719970703125,-0.616943359375
1.233,344,3147,2368,3147,-1.2503662109375,0.112060546875,-0.3291015625
1.239,338,3147,2266,3147,-1.157958984375,0.095947265625,-0.2183837890625
1.249,337,3147,2133,3147,-1.157958984375,0.095947265625,-0.2183837890625
1.261,328,3147,1957,3147,-0.89599609375,0.0513916015625,-0.358642578125
1.288,324,3147,1861,3027,-0.7816162109375,-0.0521240234375,-0.3828125
1.289,324,3147,1743,2613,-0.7816162109375,-0.0521240234375,-0.3828125
1.291,319,3147,1550,1881,-0.5887451171875,-0.0794677734375,-0.322021484375
1.300,316,3147,1492,1411,-0.5887451171875,-0.0794677734375,-0.322021484375
1.307,316,3147,1452,725,-0.4769287109375,-0.087158203125,-0.2576904296875
1.322,315,2921,1383,387,-0.32080078125,-0.2135009765625,-0.22900390625
1.329,314,2478,1353,383,-0.32080078125,-0.2135009765625,-0.22900390625
1.337,316,1978,1336,382,-0.3428955078125,-0.1124267578125,-0.2335205078125
1.353,313,1609,1313,371,-0.602294921875,0.343994140625,-0.2054443359375
1.360,314,1503,1318,371,-0.602294921875,0.343994140625,-0.2054443359375
1.369,313,1582,1306,369,-0.6400146484375,0.3929443359375,-0.2022705078125
1.392,313,1743,1323,370,-0.6649169921875,0.1279296875,-0.2069091796875
1.392,315,1891,1336,371,-0.6649169921875,0.1279296875,-0.2069091796875
1.399,315,2119,1341,374,-0.7279052734375,0.015869140625,-0.2349853515625
1.411,315,2437,1362,378,-0.7982177734375,0.0751953125,-0.3582763671875
1.419,316,2704,1377,385,-0.7982177734375,0.0751953125,-0.3582763671875
1.427,315,3027,1382,388,-0.8040771484375,0.1480712890625,-0.406982421875
1.441,316,3147,1399,590,-0.733642578125,0.13037109375,-0.353759765625
1.462,314,3147,1413,954,-0.733642578125,0.13037109375,-0.353759765625
1.462,314,3147,1439,1386,-0.709716796875,0.093994140625,-0.310546875
1.471,311,3147,1453,2091,-0.6888427734375,0.035400390625,-0.2574462890625
1.498,316,3147,1488,2392,-0.6888427734375,0.035400390625,-0.2574462890625
1.498,316,3147,1478,2708,-0.718505859375,0.0419921875,-0.2318115234375
1.502,316,3147,1604,3147,-0.65869140625,0.024169921875,-0.0927734375
1.511,318,3147,1653,3147,-0.65869140625,0.024169921875,-0.0927734375
1.517,318,3147,1801,3147,-0.5010986328125,0.02734375,-0.00244140625
1.532,323,3147,2035,3147,-0.3558349609375,0.082275390625,-0.03955078125
1.539,328,3147,2230,3147,-0.2197265625,0.131103515625,-0.119384765625
1.547,329,3147,2348,3147,-0.1148681640625,0.1075439453125,-0.1199951171875
1.572,334,3147,2552,3147,-0.1112060546875,-0.08837890625,-0.1165771484375
1.572,338,3147,2638,3147,-0.2421875,-0.25732421875,-0.123779296875
1.584,344,3147,2679,3147,-0.4923095703125,0.0672607421875,-0.244140625
1.594,346,3147,2832,3147,-0.97900390625,0.6353759765625,-0.6795654296875
1.605,347,3147,2897,3147,-1.6727294921875,0.74951171875,-0.8858642578125
1.608,348,3147,2976,3147,-2.2584228515625,0.5198974609375,-0.587158203125
1.621,351,3147,2858,3147,-2.6201171875,0.576904296875,-0.421630859375
1.629,347,3147,2780,3147,-2.84619140625,0.6634521484375,-0.7305908203125
1.638,347,3147,2766,3147,-2.1962890625,0.097900390625,-1.1331787109375
1.660,346,3147,2727,3147,-1.107421875,-0.1285400390625,-1.1236572265625
1.661,346,3147,2750,3147,-1.052490234375,0.33154296875,-0.7103271484375
1.667,345,3147,2722,3147,-1.563232421875,0.4674072265625,-0.30029296875
1.701,344,3147,2622,3147,-1.8408203125,0.287841796875,-0.2254638671875
1.701,332,3147,2543,3147,-1.7916259765625,0.1131591796875,-0.3369140625
1.712,321,3147,2430,3147,-1.5589599609375,0.0528564453125,-0.3677978515625
1.712,328,3147,2202,3147,-1.386474609375,0.0799560546875,-0.3345947265625
1.730,330,3147,2153,3147,-1.297119140625,0.1158447265625,-0.291259765625
1.731,323,3147,2039,3147,-1.155029296875,0.1470947265625,-0.28173828125
1.742,321,3147,1848,3147,-0.9412841796875,0.1785888671875,-0.411865234375
1.750,318,3147,1716,3147,-0.7423095703125,0.1318359375,-0.552978515625
1.766,315,3147,1610,2654,-0.5887451171875,-0.0003662109375,-0.531494140625
1.772,312,3147,1455,1809,-0.5113525390625,-0.04443359375,-0.4630126953125
1.800,310,3147,1419,1336,-0.474609375,-0.0120849609375,-0.412841796875
1.802,309,3147,1355,656,-0.4073486328125,-0.0775146484375,-0.3662109375
1.803,308,2763,1323,390,-0.338134765625,-0.2037353515625,-0.30810546875
1.819,306,2117,1280,378,-0.340087890625,-0.21630859375,-0.200927734375
1.824,306,1664,1236,371,-0.423583984375,-0.07568359375,-0.0997314453125
1.833,306,1243,1243,364,-0.503662109375,0.13037109375,-0.049072265625
1.841,304,1251,1242,365,-0.52001953125,0.3282470703125,-0.03173828125
1.848,306,1452,1231,369,-0.5206298828125,0.4559326171875,-0.0484619140625
1.863,306,1974,1250,375,-0.5537109375,0.4290771484375,-0.095703125
1.871,305,2333,1236,377,-0.612548828125,0.2672119140625,-0.1666259765625
1.900,306,2727,1263,383,-0.69091796875,0.1092529296875,-0.240234375
1.901,306,3147,1308,390,-0.7821044921875,0.027587890625,-0.3045654296875
1.901,307,3147,1326,561,-0.849609375,0.02001953125,-0.352783203125
1.909,308,3147,1323,855,-0.8577880859375,0.0526123046875,-0.36962890625
1.925,308,3147,1348,1359,-0.8275146484375,0.0743408203125,-0.3682861328125
1.931,309,3147,1371,1715,-0.7901611328125,0.063232421875,-0.3741455078125
1.938,308,3147,1387,2019,-0.7476806640625,0.0234375,-0.372802734375
1.952,313,3147,1440,2587,-0.7215576171875,-0.0137939453125,-0.3414306640625
1.965,310,3147,1494,2841,-0.7440185546875,-0.0013427734375,-0.3173828125
1.973,318,3147,1504,3107,-0.7620849609375,0.0401611328125,-0.2957763671875
1.994,313,3147,1585,3147,-0.694580078125,0.0848388671875,-0.2132568359375
2.018,316,3147,1651,3147,-0.5413818359375,0.141845703125,-0.1409912109375
2.025,318,3147,1775,3147,-0.360595703125,0.1729736328125,-0.116943359375
2.026,323,3147,1954,3147,-0.2381591796875,0.178955078125,-0.0982666015625
2.054,324,3147,2110,3147,-0.1585693359375,0.1888427734375,-0.0787353515625
2.055,314,3147,2255,3147,-0.100341796875,0.14599609375,-0.03076171875
2.096,331,3147,2461,3147,-0.19580078125,0.01220703125,-0.0614013671875
2.096,336,3147,2567,3147,-0.4473876953125,0.0147705078125,-0.223876953125
2.097,338,3147,2699,3147,-0.8243408203125,0.27783203125,-0.4713134765625
2.097,345,3147,2851,3147,-1.4093017578125,0.4180908203125,-0.6712646484375
2.097,347,3147,2887,3147,-1.9827880859375,0.343017578125,-0.630615234375
2.097,347,3147,2912,3147,-2.3685302734375,0.375,-0.6048583984375
2.104,344,3147,2692,3147,-2.646484375,0.503173828125,-0.7529296875
2.115,343,3147,2590,3147,-2.4757080078125,0.2783203125,-0.951171875
2.124,342,3147,2635,3147,-1.533203125,-0.1375732421875,-0.9986572265625
2.154,338,3147,2697,3147,-0.9454345703125,0.0860595703125,-0.8455810546875
2.155,332,3147,2703,3147,-1.4083251953125,0.609130859375,-0.6904296875
2.155,337,3147,2692,3147,-1.8958740234375,0.6429443359375,-0.5538330078125
2.252,336,3147,2578,3147,-1.8544921875,0.3758544921875,-0.556640625
2.252,331,3147,2473,3147,-1.5506591796875,0.2119140625,-0.6717529296875
2.253,333,3147,2381,3147,-1.2972412109375,0.15673828125,-0.6568603515625
2.253,330,3147,2207,3147,-1.1998291015625,0.07470703125,-0.497802734375
2.255,317,3147,2117,3147,-1.1416015625,0.0203857421875,-0.3416748046875
2.255,307,3147,1989,3147,-1.036376953125,0.078369140625,-0.358154296875
2.255,318,3147,1815,3147,-0.921142578125,0.1287841796875,-0.4697265625
2.255,315,3147,1732,2842,-0.8116455078125,0.059326171875,-0.472900390625
2.255,310,3147,1607,2384,-0.6966552734375,-0.0439453125,-0.404541015625
2.256,295,3147,1382,1502,-0.5654296875,-0.1177978515625,-0.327392578125
2.261,306,3147,1328,844,-0.4444580078125,-0.186767578125,-0.254150390625
2.272,304,3095,1266,391,-0.3502197265625,-0.3056640625,-0.231689453125
2.283,305,1874,1178,369,-0.3076171875,-0.3419189453125,-0.2227783203125
2.291,304,1261,1170,361,-0.3411865234375,-0.13134765625,-0.1434326171875
2.299,304,800,1170,354,-0.397216796875,0.181396484375,-0.0865478515625
2.313,302,636,1145,338,-0.4271240234375,0.4361572265625,-0.1143798828125
2.321,304,651,1151,345,-0.4346923828125,0.5670166015625,-0.1417236328125
2.328,304,744,1151,348,-0.4346923828125,0.5670166015625,-0.1417236328125
2.351,304,1253,1185,354,-0.5048828125,0.3302001953125,-0.1895751953125
2.351,294,1656,1220,361,-0.5858154296875,0.13525390625,-0.181640625
2.360,305,2207,1239,371,-0.5858154296875,0.13525390625,-0.181640625
2.374,304,3065,1260,377,-0.711181640625,0.0428466796875,-0.2705078125
2.380,305,3147,1292,702,-0.70654296875,0.1087646484375,-0.3720703125
2.391,308,3147,1323,1104,-0.70654296875,0.1087646484375,-0.3720703125
2.402,308,3147,1437,1755,-0.59521484375,0.0989990234375,-0.3990478515625
2.414,310,3147,1506,2153,-0.5318603515625,0.0496826171875,-0.3773193359375
2.418,313,3147,1634,2530,-0.5318603515625,0.0496826171875,-0.3773193359375
2.432,316,3147,1846,3098,-0.4930419921875,0.1912841796875,-0.24609375
2.441,319,3147,1953,3147,-0.3779296875,0.0050048828125,-0.0802001953125
2.459,324,3147,2076,3147,-0.3779296875,0.0050048828125,-0.0802001953125
2.462,328,3147,2354,3147,-0.205322265625,-0.0750732421875,-0.03271484375
2.481,330,3147,2471,3147,-0.20849609375,0.173583984375,-0.1658935546875
2.481,310,3147,2584,3147,-0.20849609375,0.173583984375,-0.1658935546875
2.494,334,3147,2801,3147,-0.8621826171875,0.5499267578125,-0.409912109375
2.505,338,3147,2909,3147,-1.5069580078125,0.5897216796875,-0.440185546875
2.516,344,3147,2950,3147,-1.5069580078125,0.5897216796875,-0.440185546875
2.522,345,3147,2912,3147,-2.35888671875,0.2730712890625,-0.205078125
2.531,345,3147,2850,3147,-2.403564453125,0.2208251953125,-0.431884765625
2.539,344,3147,2659,3147,-2.403564453125,0.2208251953125,-0.431884765625
2.552,338,3147,2519,3147,-1.6497802734375,-0.3525390625,-0.85302734375
2.563,338,3147,2560,3147,-1.6497802734375,-0.3525390625,-0.85302734375
2.569,337,3147,2612,3147,-1.055908203125,-0.373779296875,-0.9127197265625
2.586,338,3147,2664,3147,-1.5797119140625,0.444091796875,-0.3685302734375
2.591,338,3147,2671,3147,-1.5797119140625,0.444091796875,-0.3685302734375
2.599,336,3147,2621,3147,-1.811767578125,0.493408203125,-0.2069091796875
2.612,336,3147,2440,3147,-1.397705078125,0.277099609375,-0.4190673828125
2.626,334,3147,2296,3147,-1.397705078125,0.277099609375,-0.4190673828125
2.629,331,3147,2203,3147,-1.237548828125,0.215576171875,-0.4774169921875
2.643,324,3147,2058,3147,-1.151611328125,0.1358642578125,-0.4464111328125
2.651,325,3147,1954,3147,-1.151611328125,0.1358642578125,-0.4464111328125
2.658,323,3147,1853,3147,-1.0484619140625,0.1065673828125,-0.5146484375
2.672,316,3147,1718,2908,-0.732421875,-0.0184326171875,-0.3717041015625
2.681,315,3147,1655,2484,-0.732421875,-0.0184326171875,-0.3717041015625
2.688,308,3147,1561,2111,-0.60693359375,-0.0068359375,-0.3067626953125
2.709,308,3147,1370,1456,-0.5478515625,-0.2218017578125,-0.144775390625
2.711,290,3147,1289,933,-0.5478515625,-0.2218017578125,-0.144775390625
2.755,306,3147,1228,545,-0.553955078125,-0.228759765625,-0.12353515625
2.775,289,3042,1199,373,-0.49609375,-0.1722412109375,-0.1903076171875
2.790,307,2359,1204,371,-0.4525146484375,-0.0308837890625,-0.205078125
2.791,304,2203,1224,376,-0.4881591796875,0.18115234375,-0.13037109375
2.799,304,2028,1207,369,-0.54052734375,0.32763671875,-0.068359375
2.803,304,2334,1233,373,-0.572265625,0.336669921875,-0.0538330078125
2.811,304,2526,1243,377,-0.5972900390625,0.2337646484375,-0.0657958984375
2.815,304,2790,1262,348,-0.6407470703125,0.147216796875,-0.1300048828125
2.815,304,3147,1278,401,-0.701171875,0.1649169921875,-0.228759765625
2.815,307,3147,1281,620,-0.759033203125,0.2210693359375,-0.30810546875
2.817,306,3147,1294,800,-0.8011474609375,0.2362060546875,-0.3604736328125
2.831,308,3147,1317,1120,-0.8074951171875,0.1763916015625,-0.3623046875
2.839,307,3147,1334,1390,-0.7864990234375,0.0689697265625,-0.3206787109375
2.848,306,3147,1351,1652,-0.7716064453125,-0.0135498046875,-0.297119140625
2.861,308,3147,1422,2003,-0.7728271484375,-0.030029296875,-0.2979736328125
2.869,310,3147,1504,2243,-0.7655029296875,0.02001953125,-0.297119140625
2.888,310,3147,1607,2534,-0.7169189453125,0.09228515625,-0.2828369140625
2.891,315,3147,1733,3082,-0.6146240234375,0.099365234375,-0.2469482421875
2.905,316,3147,1838,3147,-0.49169921875,0.0396728515625,-0.1915283203125
2.908,321,3147,2062,3147,-0.406494140625,0.01416015625,-0.1474609375
2.923,324,3147,2412,3147,-0.3314208984375,0.0733642578125,-0.1302490234375
2.930,330,3147,2565,3147,-0.1851806640625,0.0479736328125,-0.10986328125
2.937,332,3147,2671,3147,-0.0191650390625,-0.2801513671875,-0.08544921875
2.951,336,3147,2884,3147,0.010986328125,-0.55517578125,0.0135498046875
2.959,344,3147,2981,3147,-0.2366943359375,-0.18359375,-0.0050048828125
2.967,345,3147,3035,3147,-0.87158203125,0.6387939453125,-0.477783203125
2.994,346,3147,3104,3147,-1.7828369140625,0.9493408203125,-0.9188232421875
2.995,347,3147,3133,3147,-2.5020751953125,0.5472412109375,-0.7542724609375
2.998,348,3147,3147,3147,-2.7052001953125,0.21875,-0.4981689453125
3.020,346,3147,3025,3147,-2.6038818359375,0.1905517578125,-0.5966796875
3.021,344,3147,2981,3147,-2.120849609375,0.002685546875,-0.882080078125
3.028,344,3147,3020,3147,-1.2763671875,-0.187255859375,-1.06591796875
3.041,344,3147,3072,3147,-1.037353515625,0.1490478515625,-0.9276123046875
3.050,345,3147,3069,3147,-1.565185546875,0.4947509765625,-0.5880126953125
3.058,345,3147,3042,3147,-1.9892578125,0.370849609375,-0.3594970703125
3.071,338,3147,2936,3147,-1.9434814453125,0.1890869140625,-0.3614501953125
3.079,338,3147,2840,3147,-1.61865234375,0.1578369140625,-0.407470703125
3.099,336,3147,2698,3147,-1.3189697265625,0.1290283203125,-0.353271484375
3.102,332,3147,2437,3147,-1.13623046875,0.0889892578125,-0.2618408203125
3.112,330,3147,2306,3147,-0.9205322265625,0.087890625,-0.23779296875
3.134,328,3147,2161,3147,-0.6568603515625,0.117919921875,-0.3800048828125
3.134,322,3147,2005,2840,-0.5052490234375,0.0634765625,-0.5787353515625
3.140,321,3147,1931,2578,-0.457275390625,-0.0926513671875,-0.591552734375
3.149,316,3147,1865,2337,-0.4447021484375,-0.1533203125,-0.48388671875
3.161,313,3147,1750,2128,-0.4647216796875,-0.086181640625,-0.3817138671875
3.170,313,3147,1681,1983,-0.50048828125,-0.030029296875,-0.3046875
3.178,312,3147,1616,1719,-0.5250244140625,-0.0419921875,-0.245361328125
3.201,306,3147,1521,1422,-0.5146484375,-0.0946044921875,-0.2220458984375
3.202,308,3147,1490,1340,-0.4833984375,-0.10302734375,-0.2037353515625
3.224,307,3147,1474,1216,-0.60009765625,0.2149658203125,-0.1185302734375
3.231,308,3147,1468,1306,-0.7069091796875,0.342041015625,-0.103271484375
3.239,308,3147,1474,1445,-0.769775390625,0.313232421875,-0.0821533203125
3.251,308,3147,1470,1722,-0.8031005859375,0.161865234375,-0.089111328125
3.261,308,3147,1462,1848,-0.839599609375,-0.0029296875,-0.1702880859375
3.269,308,3147,1468,1914,-0.880126953125,-0.0867919921875,-0.275390625
3.281,308,3147,1463,2058,-0.9017333984375,-0.079833984375,-0.3349609375
3.296,310,3147,1483,2162,-0.9024658203125,-0.033447265625,-0.3726806640625
3.298,310,3147,1494,2215,-0.9039306640625,0.0230712890625,-0.41650390625
3.311,308,3147,1529,2407,-0.8984375,0.0743408203125,-0.43603515625
3.319,308,3147,1545,2469,-0.8670654296875,0.1104736328125,-0.4166259765625
3.328,308,3147,1552,2568,-0.8670654296875,0.1104736328125,-0.4166259765625
3.341,313,3147,1590,2750,-0.8240966796875,0.104248046875,-0.3482666015625
3.350,310,3147,1607,2861,-0.821044921875,0.072021484375,-0.3387451171875
3.358,312,3147,1647,2973,-0.821044921875,0.072021484375,-0.3387451171875
3.374,313,3147,1762,3147,-0.6727294921875,-0.0125732421875,-0.2470703125
3.379,316,3147,1838,3147,-0.5174560546875,0.0072021484375,-0.180908203125
3.388,318,3147,1945,3147,-0.5174560546875,0.0072021484375,-0.180908203125
3.402,323,3147,2258,3147,-0.17041015625,0.0654296875,-0.1185302734375
3.417,327,3147,2417,3147,-0.0474853515625,-0.0579833984375,-0.174072265625
3.417,329,3147,2514,3147,-0.0474853515625,-0.0579833984375,-0.174072265625
3.431,332,3147,2689,3147,-0.1611328125,-0.35595703125,-0.229736328125
3.440,336,3147,2810,3147,-0.5194091796875,-0.0804443359375,-0.2103271484375
3.448,336,3147,2916,3147,-0.5194091796875,-0.0804443359375,-0.2103271484375
3.461,344,3147,3047,3147,-1.509521484375,0.684814453125,-0.3668212890625
3.470,346,3147,3107,3147,-1.9476318359375,0.5870361328125,-0.4290771484375
3.478,347,3147,3140,3147,-1.9476318359375,0.5870361328125,-0.4290771484375
3.491,347,3147,3147,3147,-2.154541015625,0.2149658203125,-0.46533203125
3.501,346,3147,3113,3147,-2.1016845703125,0.1910400390625,-0.718505859375
3.508,346,3147,3065,3147,-2.1016845703125,0.1910400390625,-0.718505859375
3.522,346,3147,3064,3147,-1.0118408203125,0.1195068359375,-0.906494140625
3.540,346,3147,3098,3147,-0.9764404296875,0.6253662109375,-0.8067626953125
3.540,347,3147,3111,3147,-0.9764404296875,0.6253662109375,-0.8067626953125
3.552,346,3147,3075,3147,-1.85693359375,0.5157470703125,-0.56787109375
3.559,346,3147,3011,3147,-1.85693359375,0.5157470703125,-0.56787109375
3.568,344,3147,2901,3147,-1.801513671875,0.26318359375,-0.560302734375
3.582,334,3147,2717,3147,-1.3314208984375,0.180908203125,-0.5391845703125
3.590,336,3147,2619,3147,-1.3314208984375,0.180908203125,-0.5391845703125
3.607,333,3147,2492,3147,-1.1417236328125,0.1126708984375,-0.3533935546875
3.611,328,3147,2312,3147,-0.8743896484375,0.033447265625,-0.3775634765625
3.629,327,3147,2213,3147,-0.8743896484375,0.033447265625,-0.3775634765625
3.629,324,3147,2100,3147,-0.776123046875,-0.103515625,-0.4293212890625
3.645,316,3147,1959,2807,-0.6796875,-0.102294921875,-0.4329833984375
3.649,315,3147,1882,2445,-0.6796875,-0.102294921875,-0.4329833984375
3.658,314,3147,1774,1943,-0.64306640625,-0.0601806640625,-0.3953857421875
3.671,308,3147,1540,987,-0.52783203125,-0.1424560546875,-0.2313232421875
3.679,308,3147,1488,515,-0.52783203125,-0.1424560546875,-0.2313232421875
3.687,307,3048,1439,391,-0.3995361328125,-0.2763671875,-0.1512451171875
3.706,306,2388,1387,385,-0.410400390625,0.124755859375,-0.0972900390625
3.710,306,2287,1384,382,-0.410400390625,0.124755859375,-0.0972900390625
3.723,306,2111,1387,378,-0.523681640625,0.38720703125,-0.1385498046875
3.733,306,2458,1382,375,-0.64990234375,0.4276123046875,-0.1890869140625
3.742,306,2671,1372,382,-0.64990234375,0.4276123046875,-0.1890869140625
3.748,305,2909,1367,383,-0.6494140625,0.2935791015625,-0.24267578125
3.762,306,3147,1380,424,-0.7398681640625,0.1358642578125,-0.349365234375
3.769,306,3147,1395,636,-0.7398681640625,0.1358642578125,-0.349365234375
3.777,307,3147,1401,779,-0.7802734375,0.062744140625,-0.35595703125
3.791,306,3147,1447,1178,-0.7969970703125,-0.0067138671875,-0.3494873046875
3.799,308,3147,1474,1481,-0.7794189453125,-0.038330078125,-0.3431396484375
3.808,306,3147,1496,1665,-0.765869140625,0.0013427734375,-0.36572265625
3.828,310,3147,1557,2104,-0.7742919921875,0.0716552734375,-0.39794921875
3.831,310,3147,1598,2356,-0.7779541015625,0.111572265625,-0.405029296875
3.850,312,3147,1627,2645,-0.7818603515625,0.1317138671875,-0.3751220703125
3.852,300,3147,1867,3115,-0.7237548828125,0.130126953125,-0.30712890625
3.859,318,3147,1961,3147,-0.5355224609375,0.075927734375,-0.223388671875
3.868,322,3147,2222,3147,-0.2825927734375,-0.0118408203125,-0.13037109375
3.882,328,3147,2543,3147,-0.0025634765625,-0.165283203125,-0.01025390625
3.890,329,3147,2684,3147,0.330322265625,-0.348388671875,0.1527099609375
3.898,333,3147,2765,3147,0.5345458984375,-0.2955322265625,0.300537109375
3.911,338,3147,2978,3147,0.1572265625,0.122314453125,0.258544921875
3.919,342,3147,3061,3147,-0.70068359375,0.591064453125,0.005859375
3.930,345,3147,3090,3147,-1.5556640625,0.761962890625,-0.4410400390625
3.948,347,3147,3111,3147,-2.29052734375,0.5020751953125,-0.8612060546875
3.950,348,3147,3087,3147,-2.665771484375,0.12744140625,-0.977783203125
3.958,348,3147,2973,3147,-2.618896484375,0.0054931640625,-0.9603271484375
3.972,338,3147,2624,3147,-2.414794921875,-0.0054931640625,-0.98388671875
3.980,338,3147,2648,3147,-1.7965087890625,-0.0740966796875,-1.0369873046875
3.991,338,3147,2700,3147,-0.9757080078125,0.1666259765625,-1.0128173828125
4.001,338,3147,2749,3147,-0.8780517578125,0.6654052734375,-0.8878173828125
4.013,338,3147,2744,3147,-1.3956298828125,0.7713623046875,-0.688232421875
4.018,338,3147,2697,3147,-1.7615966796875,0.43798828125,-0.5604248046875
4.031,334,3147,2587,3147,-1.7425537109375,0.1019287109375,-0.5987548828125
4.058,334,3147,2507,3147,-1.5064697265625,0.015869140625,-0.638427734375
4.058,332,3147,2389,3147,-1.2666015625,0.033935546875,-0.576171875
4.061,328,3147,2217,3147,-1.1376953125,0.0238037109375,-0.47216796875
4.070,327,3147,2091,3147,-1.0430908203125,0.048095703125,-0.4166259765625
4.078,324,3147,1983,3147,-0.90283203125,0.126953125,-0.4368896484375
4.091,319,3147,1892,3147,-0.75390625,0.1373291015625,-0.4598388671875
4.100,316,3147,1813,3070,-0.625244140625,0.08154296875,-0.408203125
4.117,313,3147,1774,2788,-0.533447265625,0.04345703125,-0.3363037109375
4.122,308,3147,1613,2432,-0.4853515625,-0.002685546875,-0.2755126953125
4.132,308,3147,1588,2170,-0.47607421875,-0.084228515625,-0.2083740234375
4.166,308,3147,1575,1941,-0.50341796875,-0.15576171875,-0.1739501953125
4.167,306,3147,1555,1497,-0.5487060546875,-0.151611328125,-0.216064453125
4.167,306,3147,1548,1424,-0.556640625,-0.0889892578125,-0.279541015625
4.168,294,3147,1534,1336,-0.517578125,-0.0106201171875,-0.2725830078125
4.182,308,3147,1499,1129,-0.55419921875,0.1229248046875,-0.2349853515625
4.191,308,3147,1480,1054,-0.6868896484375,0.2655029296875,-0.2572021484375
4.198,306,3147,1474,1067,-0.7742919921875,0.314208984375,-0.29150390625
4.218,306,3147,1483,1065,-0.7789306640625,0.26611328125,-0.295654296875
4.220,308,3147,1490,1137,-0.7698974609375,0.1563720703125,-0.297607421875
4.228,306,3147,1497,1229,-0.784912109375,0.0572509765625,-0.323974609375
4.258,307,3147,1508,1382,-0.8135986328125,0.0291748046875,-0.3958740234375
4.258,306,3147,1528,1478,-0.8304443359375,0.0655517578125,-0.4725341796875
4.265,308,3147,1483,1552,-0.82568359375,0.114990234375,-0.506591796875
4.275,308,3147,1518,1715,-0.8018798828125,0.1123046875,-0.4910888671875
4.281,308,3147,1531,1838,-0.758056640625,0.0745849609375,-0.4293212890625
4.288,307,3147,1521,1973,-0.712158203125,0.0762939453125,-0.369140625
4.302,308,3147,1569,2273,-0.673828125,0.107666015625,-0.3389892578125
4.311,308,3147,1597,2504,-0.6192626953125,0.1007080078125,-0.3017578125
4.320,310,3147,1636,2721,-0.5615234375,0.0953369140625,-0.2635498046875
4.335,313,3147,1748,3147,-0.5032958984375,0.169189453125,-0.2711181640625
4.358,313,3147,1843,3147,-0.35498046875,0.2431640625,-0.2540283203125
4.358,316,3147,2039,3147,-0.151123046875,0.245361328125,-0.1298828125
4.363,323,3147,2301,3147,-0.0225830078125,0.21923828125,0.0438232421875
4.372,328,3147,2417,3147,-0.059814453125,0.1605224609375,0.1640625
4.378,328,3147,2580,3147,-0.30810546875,0.009765625,0.1871337890625
4.392,332,3147,2780,3147,-0.60009765625,-0.16259765625,0.2025146484375
4.401,334,3147,2906,3147,-0.843505859375,-0.162109375,0.1712646484375
4.409,338,3147,2981,3147,-1.1942138671875,0.1810302734375,-0.2139892578125
4.422,344,3147,3058,3147,-1.67333984375,0.6119384765625,-0.818115234375
4.430,344,3147,3078,3147,-2.0811767578125,0.564453125,-0.943603515625
4.455,346,3147,3062,3147,-2.30615234375,0.1727294921875,-0.69921875
4.456,338,3147,2877,3147,-2.32080078125,-0.0126953125,-0.720703125
4.461,336,3147,2782,3147,-1.8616943359375,-0.1109619140625,-0.9486083984375
4.469,336,3147,2801,3147,-1.07861328125,-0.0928955078125,-1.0460205078125
4.482,336,3147,2821,3147,-0.8382568359375,0.3526611328125,-1.123291015625
4.491,336,3147,2788,3147,-1.2982177734375,0.71337890625,-1.202880859375
4.500,334,3147,2734,3147,-1.7613525390625,0.4552001953125,-1.0823974609375
4.513,332,3147,2591,3147,-1.8392333984375,0.0260009765625,-0.8896484375
4.525,331,3147,2527,3147,-1.6009521484375,-0.023681640625,-0.726806640625
4.528,330,3147,2421,3147,-1.3018798828125,0.1173095703125,-0.57275390625
4.544,325,3147,2207,3147,-1.0953369140625,0.1201171875,-0.3837890625
4.554,323,3147,2062,3147,-0.9434814453125,0.0408935546875,-0.2099609375
4.566,321,3147,1946,3147,-0.8289794921875,0.06103515625,-0.1962890625
4.572,315,3147,1850,3147,-0.7366943359375,0.1085205078125,-0.27294921875
4.588,309,3147,1757,3139,-0.6331787109375,0.0806884765625,-0.32275390625
4.589,310,3147,1704,2844,-0.6331787109375,0.0806884765625,-0.32275390625
4.602,309,3147,1676,2445,-0.4713134765625,-0.0345458984375,-0.429443359375
4.613,310,3147,1665,2238,-0.4613037109375,-0.043701171875,-0.463623046875
4.619,308,3147,1686,2176,-0.4613037109375,-0.043701171875,-0.463623046875
4.633,309,3147,1627,2000,-0.5577392578125,0.0286865234375,-0.394775390625
4.657,308,3147,1580,1711,-0.6141357421875,0.0858154296875,-0.3140869140625
4.657,307,3147,1504,1492,-0.6141357421875,0.0858154296875,-0.3140869140625
4.663,304,3147,1453,1216,-0.58740234375,0.102783203125,-0.1884765625
4.671,308,3147,1452,1095,-0.5806884765625,0.141845703125,-0.1761474609375
4.678,306,3147,1433,1043,-0.5806884765625,0.141845703125,-0.1761474609375
4.692,308,3147,1428,1038,-0.7191162109375,0.276611328125,-0.3311767578125
4.700,306,3147,1437,1078,-0.7467041015625,0.263916015625,-0.35205078125
4.710,306,3147,1427,1156,-0.7467041015625,0.263916015625,-0.35205078125
4.735,308,3147,1440,1294,-0.7681884765625,0.1019287109375,-0.361572265625
4.736,294,3147,1437,1440,-0.8214111328125,0.0384521484375,-0.3858642578125
4.739,306,3147,1450,1550,-0.8214111328125,0.0384521484375,-0.3858642578125
4.763,308,3147,1456,1798,-0.8431396484375,-0.0274658203125,-0.405517578125
4.766,308,3147,1474,1922,-0.8182373046875,0.009033203125,-0.4405517578125
4.769,308,3147,1472,2100,-0.8182373046875,0.009033203125,-0.4405517578125
4.783,307,3147,1481,2333,-0.783935546875,0.06396484375,-0.4720458984375
4.791,308,3147,1514,2541,-0.740966796875,0.0345458984375,-0.3980712890625
4.800,309,3147,1557,2728,-0.740966796875,0.0345458984375,-0.3980712890625
4.812,306,3147,1596,3133,-0.5919189453125,0.1290283203125,-0.2513427734375
4.821,308,3147,1718,3147,-0.5919189453125,0.1290283203125,-0.2513427734375
4.840,310,3147,1765,3147,-0.4598388671875,0.310791015625,-0.26171875
4.849,316,3147,1931,3147,-0.2742919921875,0.463623046875,-0.2158203125
4.851,318,3147,2145,3147,-0.2742919921875,0.463623046875,-0.2158203125
4.864,327,3147,2306,3147,-0.362060546875,0.2513427734375,-0.1768798828125
4.873,328,3147,2597,3147,-0.30908203125,-0.4959716796875,-0.0130615234375
4.882,330,3147,2715,3147,-0.30908203125,-0.4959716796875,-0.0130615234375
4.889,332,3147,2823,3147,-0.254150390625,-0.7642822265625,0.1673583984375
4.907,338,3147,3035,3147,-0.9947509765625,0.42236328125,-0.3763427734375
4.911,344,3147,3118,3147,-0.9947509765625,0.42236328125,-0.3763427734375
4.919,346,3147,3147,3147,-1.69873046875,0.970947265625,-0.774658203125
4.936,347,3147,3147,3147,-2.5013427734375,0.3355712890625,-0.5518798828125
4.941,347,3147,3092,3147,-2.5013427734375,0.3355712890625,-0.5518798828125
4.961,344,3147,3008,3147,-2.3668212890625,0.16455078125,-0.6378173828125
4.967,338,3147,2959,3147,-1.0594482421875,-0.280517578125,-1.0816650390625
4.971,336,3147,3008,3147,-1.0594482421875,-0.280517578125,-1.0816650390625
4.979,338,3147,3042,3147,-0.925537109375,-0.054931640625,-1.0875244140625
4.992,338,3147,2993,3147,-1.80712890625,0.2818603515625,-0.61083984375
5.001,342,3147,2976,3147,-1.80712890625,0.2818603515625,-0.61083984375
5.013,336,3147,2891,3147,-1.8377685546875,0.1837158203125,-0.436279296875
5.023,332,3147,2683,3147,-1.5323486328125,0.146484375,-0.3460693359375
5.040,330,3147,2561,3147,-1.2393798828125,0.1585693359375,-0.28564453125
5.041,328,3147,2412,3147,-1.10009765625,0.1627197265625,-0.20849609375
5.079,324,3147,2203,3147,-1.0574951171875,0.186279296875,-0.2164306640625
5.081,322,3147,2087,3147,-1.0068359375,0.1563720703125,-0.3248291015625
5.081,304,3147,2024,3147,-0.8736572265625,-0.017822265625,-0.37548828125
5.083,310,3147,1880,2936,-0.7135009765625,-0.1845703125,-0.371826171875
5.093,311,3147,1770,2703,-0.6085205078125,-0.2213134765625,-0.392333984375
5.099,309,3147,1708,2514,-0.5594482421875,-0.18505859375,-0.39306640625
5.118,308,3147,1638,2152,-0.5477294921875,-0.119873046875,-0.367431640625
5.121,307,3147,1652,1761,-0.5433349609375,-0.0450439453125,-0.3460693359375
5.128,304,3147,1564,1584,-0.52783203125,0.00732421875,-0.3424072265625
5.143,304,3147,1466,1271,-0.477783203125,0.0146484375,-0.2943115234375
5.151,306,3147,1440,1031,-0.4244384765625,0.02001953125,-0.190673828125
5.163,305,3147,1428,917,-0.4482421875,0.1082763671875,-0.16552734375
5.179,305,3147,1439,1283,-0.5054931640625,0.2705078125,-0.2255859375
5.181,306,3147,1434,1501,-0.564697265625,0.406005859375,-0.2760009765625
5.189,306,3147,1468,1702,-0.654541015625,0.4149169921875,-0.303955078125
5.202,306,3147,1494,1894,-0.7430419921875,0.2962646484375,-0.318603515625
5.211,306,3147,1494,2019,-0.8028564453125,0.13916015625,-0.316650390625
5.224,304,3147,1514,2105,-0.843017578125,0.0380859375,-0.3057861328125
5.233,306,3147,1545,2176,-0.887939453125,0.0411376953125,-0.3408203125
5.241,306,3147,1550,2246,-0.936279296875,0.105224609375,-0.4200439453125
5.249,306,3147,1564,2279,-0.95703125,0.128662109375,-0.457763671875
5.268,304,3147,1580,2379,-0.9537353515625,0.083984375,-0.4451904296875
5.280,308,3147,1588,2409,-0.95068359375,0.0421142578125,-0.4432373046875
5.290,307,3147,1603,2456,-0.948486328125,0.0562744140625,-0.454345703125
5.293,306,3147,1613,2559,-0.9361572265625,0.0875244140625,-0.443603515625
5.301,308,3147,1613,2679,-0.8966064453125,0.06787109375,-0.4073486328125
5.309,305,3147,1627,2810,-0.833984375,0.026123046875,-0.3577880859375
5.323,306,3147,1648,3089,-0.75048828125,0.0413818359375,-0.297607421875
5.331,309,3147,1697,3147,-0.6195068359375,0.110107421875,-0.232421875
5.346,310,3147,1775,3147,-0.4755859375,0.1793212890625,-0.149658203125
5.353,315,3147,1967,3147,-0.3502197265625,0.238037109375,-0.049560546875
5.364,323,3147,2233,3147,-0.1441650390625,0.254638671875,0.0340576171875
5.418,323,3147,2418,3147,0.1243896484375,0.08642578125,0.1124267578125
5.418,328,3147,2674,3147,0.2850341796875,-0.2861328125,0.171875
5.418,331,3147,2831,3147,0.2208251953125,-0.4613037109375,0.13720703125
5.418,333,3147,2946,3147,-0.224853515625,-0.1741943359375,-0.0255126953125
5.418,336,3147,3011,3147,-0.990478515625,0.371826171875,-0.340576171875
5.422,338,3147,3084,3147,-1.8275146484375,0.759765625,-0.736572265625
5.429,343,3147,3121,3147,-2.4588623046875,0.54150390625,-0.771484375
5.438,346,3147,3147,3147,-2.6358642578125,0.222412109375,-0.619873046875
5.451,343,3147,3093,3147,-2.51708984375,0.3233642578125,-0.75732421875
5.465,342,3147,3033,3147,-2.0919189453125,0.2589111328125,-0.9793701171875
5.471,338,3147,3035,3147,-1.32177734375,0.112548828125,-1.0322265625
5.483,336,3147,3008,3147,-1.05908203125,0.488037109375,-1.0045166015625
5.490,338,3147,2974,3147,-1.44970703125,0.68798828125,-0.9454345703125
5.498,334,3147,2949,3147,-1.6956787109375,0.304443359375,-0.717041015625
5.514,334,3147,2833,3147,-1.62548828125,-0.005859375,-0.478515625
5.520,334,3147,2748,3147,-1.4296875,-0.0587158203125,-0.348388671875
5.528,332,3147,2612,3147,-1.2308349609375,-0.01171875,-0.26611328125
5.554,328,3147,2421,3147,-1.0440673828125,0.067138671875,-0.18994140625
5.554,323,3147,2263,3147,-0.877685546875,0.1640625,-0.16845703125
5.558,322,3147,2231,3147,-0.7586669921875,0.1417236328125,-0.19921875
5.575,321,3147,2058,3147,-0.694580078125,-0.0048828125,-0.212646484375
5.590,315,3147,1989,3147,-0.667236328125,-0.068115234375,-0.2750244140625
5.590,300,3147,1949,3147,-0.6434326171875,-0.0091552734375,-0.3831787109375
5.601,309,3147,1819,2959,-0.616455078125,0.0377197265625,-0.431640625
5.610,310,3147,1761,2744,-0.590576171875,0.005126953125,-0.3876953125
5.618,310,3147,1774,2638,-0.590576171875,0.005126953125,-0.3876953125
5.632,308,3147,1762,2525,-0.5889892578125,-0.0611572265625,-0.3260498046875
5.640,308,3147,1733,2364,-0.627197265625,0.0167236328125,-0.361572265625
5.659,307,3147,1702,2162,-0.627197265625,0.0167236328125,-0.361572265625
5.662,308,3147,1636,2063,-0.666015625,0.1417236328125,-0.35888671875
5.670,308,3147,1600,2030,-0.6458740234375,0.1402587890625,-0.283447265625
5.682,308,3147,1588,2024,-0.6458740234375,0.1402587890625,-0.283447265625
5.691,306,3147,1557,2098,-0.7191162109375,0.1800537109375,-0.2630615234375
5.700,308,3147,1552,2151,-0.769287109375,0.1981201171875,-0.2391357421875
5.708,307,3147,1543,2195,-0.769287109375,0.1981201171875,-0.2391357421875
5.721,306,3147,1536,2344,-0.853515625,0.1209716796875,-0.2064208984375
5.730,308,3147,1545,2410,-0.8427734375,0.07763671875,-0.244873046875
5.738,307,3147,1549,2478,-0.8427734375,0.07763671875,-0.244873046875
5.761,308,3147,1553,2643,-0.8486328125,0.0867919921875,-0.3580322265625
5.761,308,3147,1564,2821,-0.8017578125,0.0716552734375,-0.3380126953125
5.768,308,3147,1569,2941,-0.8017578125,0.0716552734375,-0.3380126953125
5.792,308,3147,1624,3147,-0.6785888671875,0.1036376953125,-0.2764892578125
5.792,313,3147,1713,3147,-0.6190185546875,0.140380859375,-0.2646484375
5.798,313,3147,1785,3147,-0.6190185546875,0.140380859375,-0.2646484375
5.813,316,3147,1929,3147,-0.3189697265625,0.0648193359375,-0.21826171875
5.820,318,3147,2113,3147,-0.3189697265625,0.0648193359375,-0.21826171875
5.828,323,3147,2320,3147,-0.13623046875,-0.0648193359375,-0.1380615234375
5.842,327,3147,2590,3147,-0.23583984375,-0.05322265625,-0.2252197265625
5.867,331,3147,2733,3147,-0.23583984375,-0.05322265625,-0.2252197265625
5.868,330,3147,2820,3147,-0.3621826171875,0.0731201171875,-0.26123046875
5.875,336,3147,3016,3147,-0.940185546875,0.3067626953125,-0.126953125
5.888,338,3147,3095,3147,-0.940185546875,0.3067626953125,-0.126953125
5.888,344,3147,3147,3147,-1.3572998046875,0.48193359375,-0.2674560546875
5.902,346,3147,3147,3147,-2.0860595703125,0.408935546875,-0.59375
5.910,344,3147,3147,3147,-2.0860595703125,0.408935546875,-0.59375
5.920,347,3147,3147,3147,-2.2847900390625,0.2786865234375,-0.5677490234375
5.932,343,3147,3095,3147,-1.59716796875,-0.047607421875,-0.571533203125
5.940,338,3147,3121,3147,-1.59716796875,-0.047607421875,-0.571533203125
5.948,338,3147,3140,3147,-0.955322265625,-0.0482177734375,-0.6524658203125
5.976,342,3147,3141,3147,-1.5909423828125,0.4180908203125,-0.58447265625
5.977,338,3147,3094,3147,-1.5909423828125,0.4180908203125,-0.58447265625
5.978,338,3147,3040,3147,-1.727783203125,0.294921875,-0.43408203125
5.991,334,3147,2921,3147,-1.358642578125,0.198974609375,-0.4158935546875
6.000,333,3147,2795,3147,-1.358642578125,0.198974609375,-0.4158935546875
6.008,332,3147,2671,3147,-1.264404296875,0.1904296875,-0.4010009765625
6.021,327,3147,2435,3147,-1.0634765625,0.1217041015625,-0.258056640625
6.030,324,3147,2321,3147,-1.0634765625,0.1217041015625,-0.258056640625
6.038,323,3147,2194,3147,-0.8951416015625,0.163818359375,-0.328369140625
6.052,318,3147,2028,3147,-0.77734375,0.129638671875,-0.4107666015625
6.062,315,3147,1957,3147,-0.6920166015625,0.008056640625,-0.4200439453125
6.068,314,3147,1877,3147,-0.6265869140625,-0.07080078125,-0.42724609375
6.092,313,3147,1774,3084,-0.567626953125,-0.075927734375,-0.42626953125
6.092,310,3147,1695,2777,-0.5433349609375,-0.067138671875,-0.3831787109375
6.099,308,3147,1653,2571,-0.586669921875,-0.07958984375,-0.3323974609375
6.112,308,3147,1599,2102,-0.6639404296875,-0.0831298828125,-0.3099365234375
6.120,306,3147,1569,1888,-0.7078857421875,-0.03515625,-0.3118896484375
6.129,306,3147,1529,1681,-0.6907958984375,0.03466796875,-0.3092041015625
6.141,306,3147,1452,1173,-0.65625,0.1094970703125,-0.282470703125
6.150,304,3147,1422,973,-0.6583251953125,0.1944580078125,-0.2535400390625
6.166,306,3147,1393,865,-0.685791015625,0.261474609375,-0.22216796875
6.172,306,3147,1366,750,-0.7208251953125,0.3009033203125,-0.1829833984375
6.195,305,3147,1375,723,-0.7569580078125,0.2913818359375,-0.1732177734375
6.195,304,3147,1366,849,-0.7578125,0.183837890625,-0.2108154296875
6.202,308,3147,1382,1054,-0.7469482421875,0.03125,-0.276123046875
6.210,304,3147,1395,1222,-0.7890625,-0.029541015625,-0.359375
6.218,305,3147,1390,1386,-0.8443603515625,0.005859375,-0.445068359375
6.232,304,3147,1404,1638,-0.8389892578125,0.0474853515625,-0.484619140625
6.240,306,3147,1427,1850,-0.7685546875,0.0711669921875,-0.4515380859375
6.248,307,3147,1443,2058,-0.6689453125,0.085205078125,-0.3760986328125
6.268,306,3147,1519,2647,-0.5440673828125,0.097900390625,-0.2999267578125
6.270,309,3147,1588,2936,-0.416015625,0.1343994140625,-0.2178955078125
6.278,310,3147,1693,3147,-0.3369140625,0.171630859375,-0.1522216796875
6.306,313,3147,1914,3147,-0.244140625,0.1893310546875,-0.070068359375
6.306,318,3147,2087,3147,-0.1072998046875,0.2611083984375,0.0728759765625
6.308,319,3147,2314,3147,-0.0013427734375,0.300537109375,0.1800537109375
6.322,327,3147,2621,3147,-0.068603515625,0.0736083984375,0.1951904296875
6.330,329,3147,2772,3147,-0.3922119140625,-0.352294921875,0.1663818359375
6.338,330,3147,2832,3147,-0.8065185546875,-0.5220947265625,0.0269775390625
6.351,336,3147,3003,3147,-1.2060546875,-0.097412109375,-0.38671875
6.360,336,3147,3089,3147,-1.603515625,0.448974609375,-0.96826171875
6.368,338,3147,3136,3147,-1.9324951171875,0.5321044921875,-1.176025390625
6.385,338,3147,3147,3147,-2.1951904296875,0.3101806640625,-0.9683837890625
6.397,338,3147,3147,3147,-2.325439453125,0.089599609375,-0.785400390625
6.398,331,3147,3126,3147,-2.1898193359375,0.0694580078125,-0.794189453125
6.415,334,3147,3014,3147,-1.6746826171875,0.1298828125,-0.9559326171875
6.420,336,3147,3007,3147,-1.050537109375,0.217529296875,-1.005859375
6.428,334,3147,2997,3147,-1.005615234375,0.402099609375,-0.7884521484375
6.442,332,3147,2921,3147,-1.482666015625,0.420166015625,-0.41259765625
6.450,332,3147,2843,3147,-1.792236328125,0.2161865234375,-0.09033203125
6.458,332,3147,2724,3147,-1.6754150390625,0.0224609375,0.0228271484375
6.472,328,3147,2584,3147,-1.39599609375,-0.00244140625,-0.0540771484375
6.480,328,3147,2424,3147,-1.2171630859375,0.047119140625,-0.1533203125
6.507,326,3147,2295,3147,-1.1051025390625,0.0322265625,-0.18701171875
6.507,318,3147,2124,3147,-0.950927734375,-0.04052734375,-0.2608642578125
6.510,319,3147,2060,3147,-0.77490234375,-0.10009765625,-0.406005859375
6.518,316,3147,1994,3147,-0.6767578125,-0.1090087890625,-0.547607421875
6.531,313,3147,1904,2936,-0.6597900390625,-0.0703125,-0.6285400390625
6.540,310,3147,1864,2792,-0.6392822265625,-0.025390625,-0.6011962890625
6.548,310,3147,1809,2638,-0.618408203125,-0.006591796875,-0.4910888671875
6.562,308,3147,1704,2381,-0.6175537109375,0.0030517578125,-0.3741455078125
6.574,308,3147,1638,2186,-0.6072998046875,0.02294921875,-0.292236328125
6.578,308,3147,1624,2018,-0.5716552734375,0.0457763671875,-0.2330322265625
6.594,307,3147,1533,1715,-0.533447265625,0.0244140625,-0.188232421875
6.611,306,3147,1516,1580,-0.520263671875,-0.0064697265625,-0.1192626953125
6.611,304,3147,1499,1569,-0.5482177734375,0.0074462890625,-0.07958984375
6.622,304,3147,1480,1580,-0.63330078125,0.0928955078125,-0.135986328125
6.630,304,3147,1483,1722,-0.7369384765625,0.243896484375,-0.197021484375
6.641,306,3147,1497,1846,-0.805419921875,0.3192138671875,-0.2138671875
6.652,307,3147,1518,2014,-0.8392333984375,0.2283935546875,-0.2252197265625
6.660,308,3147,1540,2151,-0.846923828125,0.063720703125,-0.251220703125
6.668,306,3147,1555,2271,-0.8321533203125,-0.042724609375,-0.2716064453125
6.682,307,3147,1588,2456,-0.8226318359375,-0.0494384765625,-0.2779541015625
6.705,308,3147,1615,2591,-0.829345703125,0.0284423828125,-0.2911376953125
6.705,308,3147,1636,2754,-0.8367919921875,0.134765625,-0.3167724609375
6.719,310,3147,1673,3006,-0.8338623046875,0.178466796875,-0.3184814453125
6.720,305,3147,1705,3112,-0.806396484375,0.1632080078125,-0.283447265625
6.729,309,3147,1774,3147,-0.753662109375,0.1495361328125,-0.2479248046875
6.743,314,3147,1914,3147,-0.682861328125,0.135498046875,-0.2108154296875
6.753,315,3147,2023,3147,-0.599609375,0.1004638671875,-0.1510009765625
6.759,316,3147,2142,3147,-0.5487060546875,0.0435791015625,-0.1407470703125
6.779,323,3147,2375,3147,-0.55224609375,-0.0299072265625,-0.2132568359375
6.781,323,3147,2534,3147,-0.447998046875,-0.145751953125,-0.201904296875
6.789,328,3147,2691,3147,-0.153564453125,-0.302734375,-0.070556640625
6.809,330,3147,2874,3147,0.0694580078125,-0.3126220703125,-0.0706787109375
6.823,334,3147,2973,3147,-0.01611328125,0.0025634765625,-0.2064208984375
6.824,324,3147,3051,3147,-0.4373779296875,0.45361328125,-0.382568359375
6.833,338,3147,3114,3147,-1.1134033203125,0.800537109375,-0.6505126953125
6.841,342,3147,3147,3147,-1.796875,0.7608642578125,-0.7855224609375
6.849,343,3147,3147,3147,-1.796875,0.7608642578125,-0.7855224609375
6.866,344,3147,3147,3147,-2.4293212890625,0.1221923828125,-0.5926513671875
6.871,343,3147,3147,3147,-2.384033203125,0.0166015625,-0.63720703125
6.881,338,3147,3144,3147,-2.384033203125,0.0166015625,-0.63720703125
6.892,338,3147,3147,3147,-1.174072265625,-0.194580078125,-0.724609375
6.908,338,3147,3147,3147,-0.945068359375,0.3658447265625,-0.6121826171875
6.918,338,3147,3147,3147,-0.945068359375,0.3658447265625,-0.6121826171875
6.930,336,3147,3112,3147,-1.575927734375,0.3294677734375,-0.2891845703125
6.931,332,3147,3028,3147,-1.586669921875,0.16357421875,-0.2926025390625
6.939,334,3147,2959,3147,-1.586669921875,0.16357421875,-0.2926025390625
6.952,330,3147,2754,3147,-1.3565673828125,0.154052734375,-0.40673828125
6.961,330,3147,2611,3147,-1.270751953125,0.0595703125,-0.3995361328125
6.969,328,3147,2484,3147,-1.270751953125,0.0595703125,-0.3995361328125
6.987,324,3147,2261,3147,-1.0201416015625,0.0604248046875,-0.4005126953125
6.991,323,3147,2152,3147,-0.8121337890625,0.140625,-0.4769287109375
7.014,319,3147,2048,3147,-0.8121337890625,0.140625,-0.4769287109375
7.015,315,3147,1882,3147,-0.54345703125,0.048095703125,-0.498046875
7.021,313,3147,1852,3055,-0.5272216796875,-0.03076171875,-0.42919921875
7.036,313,3147,1826,2728,-0.5272216796875,-0.03076171875,-0.42919921875
7.043,310,3147,1739,2321,-0.625732421875,-0.13330078125,-0.2890625
7.055,310,3147,1678,2070,-0.6824951171875,-0.1446533203125,-0.279052734375
7.066,306,3147,1636,1796,-0.6824951171875,-0.1446533203125,-0.279052734375
7.073,306,3147,1529,1267,-0.67041015625,-0.0294189453125,-0.236328125
7.094,306,3147,1468,1037,-0.67041015625,-0.0294189453125,-0.236328125
7.095,304,3147,1456,786,-0.626953125,0.0150146484375,-0.20703125
7.113,304,3147,1413,746,-0.599365234375,0.188720703125,-0.177734375
7.113,289,3147,1390,784,-0.599365234375,0.188720703125,-0.177734375
7.130,304,3147,1387,918,-0.6346435546875,0.268310546875,-0.1956787109375
7.133,304,3147,1370,1278,-0.6705322265625,0.1920166015625,-0.279296875
7.141,306,3147,1369,1456,-0.6705322265625,0.1920166015625,-0.279296875
7.149,304,3147,1375,1640,-0.7054443359375,0.07958984375,-0.325927734375
7.163,304,3147,1398,1892,-0.78271484375,0.0079345703125,-0.3648681640625
7.175,306,3147,1422,2053,-0.78271484375,0.0079345703125,-0.3648681640625
7.179,306,3147,1467,2172,-0.7861328125,0.0318603515625,-0.345458984375
7.193,305,3147,1503,2541,-0.75830078125,0.0858154296875,-0.3656005859375
7.204,307,3147,1531,2807,-0.75830078125,0.0858154296875,-0.3656005859375
7.221,308,3147,1588,3051,-0.775634765625,0.10546875,-0.37451171875
7.226,310,3147,1815,3147,-0.5626220703125,0.057861328125,-0.2017822265625
7.231,314,3147,1943,3147,-0.5626220703125,0.057861328125,-0.2017822265625
7.239,317,3147,2122,3147,-0.3878173828125,-0.0059814453125,-0.062744140625
7.252,324,3147,2484,3147,-0.185546875,-0.20361328125,0.09130859375
7.260,328,3147,2698,3147,-0.185546875,-0.20361328125,0.09130859375
7.269,328,3147,2807,3147,-0.060546875,-0.2618408203125,0.110595703125
7.290,334,3147,2976,3147,-0.0064697265625,-0.185546875,0.0380859375
7.291,338,3147,3088,3147,-0.29248046875,0.1060791015625,-0.218017578125
7.299,338,3147,3147,3147,-0.893798828125,0.6329345703125,-0.7020263671875
7.323,344,3147,3147,3147,-1.5750732421875,0.7633056640625,-1.0135498046875
7.324,356,3147,3147,3147,-2.0966796875,0.377197265625,-0.806396484375
7.334,376,3147,3147,3147,-2.430419921875,0.1334228515625,-0.468505859375
7.343,345,3147,3147,3147,-2.5291748046875,0.0609130859375,-0.362548828125
7.356,344,3147,3147,3147,-2.172607421875,-0.0489501953125,-0.579833984375
7.359,343,3147,3147,3147,-1.3583984375,-0.0618896484375,-0.9306640625
7.373,344,3147,3147,3147,-0.8560791015625,0.349365234375,-1.113525390625
7.381,344,3147,3147,3147,-1.224609375,0.666259765625,-0.9742431640625
7.393,342,3147,3147,3147,-1.8154296875,0.3797607421875,-0.68359375
7.403,338,3147,3052,3147,-1.967529296875,0.16748046875,-0.5703125
7.411,336,3147,2925,3147,-1.7159423828125,0.2724609375,-0.5670166015625
7.433,332,3147,2760,3147,-1.3538818359375,0.284912109375,-0.4927978515625
7.433,328,3147,2497,3147,-1.08251953125,0.1385498046875,-0.3529052734375
7.441,325,3147,2323,3147,-0.939697265625,-0.00146484375,-0.2762451171875
7.449,323,3147,2195,3147,-0.8277587890625,-0.0037841796875,-0.399169921875
7.463,315,3147,1968,3147,-0.705322265625,0.078857421875,-0.5947265625
7.471,314,3147,1900,2888,-0.623291015625,0.0758056640625,-0.626953125
7.479,313,3147,1854,2598,-0.597900390625,0.017578125,-0.53173828125
7.496,310,3147,1770,1890,-0.57568359375,-0.022216796875,-0.4093017578125
7.501,308,3147,1735,1552,-0.5218505859375,-0.081298828125,-0.28515625
7.524,308,3147,1681,1220,-0.4583740234375,-0.146484375,-0.176025390625
7.524,306,3147,1635,619,-0.4354248046875,-0.1583251953125,-0.11669921875
7.531,304,3147,1613,442,-0.4586181640625,-0.10791015625,-0.1224365234375
7.542,304,3147,1519,417,-0.486572265625,-0.001220703125,-0.1995849609375
7.552,304,3147,1400,428,-0.5185546875,0.1864013671875,-0.2901611328125
7.568,305,3147,1387,540,-0.558349609375,0.3701171875,-0.3411865234375
7.569,306,3147,1385,671,-0.6131591796875,0.435791015625,-0.358154296875
7.582,304,3147,1379,849,-0.686279296875,0.3468017578125,-0.3172607421875
7.648,305,3147,1387,951,-0.76416015625,0.125732421875,-0.2689208984375
7.648,306,3147,1409,1085,-0.8309326171875,-0.0775146484375,-0.2728271484375
7.648,306,3147,1416,1323,-0.865478515625,-0.13671875,-0.3135986328125
7.649,304,3147,1424,1455,-0.860107421875,-0.064208984375,-0.3707275390625
7.649,306,3147,1422,1569,-0.833984375,0.0491943359375,-0.418701171875
7.649,306,3147,1443,1744,-0.8175048828125,0.11572265625,-0.4349365234375
7.654,306,3147,1447,1855,-0.8262939453125,0.11572265625,-0.4443359375
7.660,306,3147,1478,2024,-0.8760986328125,0.099609375,-0.4805908203125
7.673,308,3147,1560,2218,-0.961181640625,0.1026611328125,-0.5135498046875
7.681,308,3147,1627,2249,-0.97119140625,0.0726318359375,-0.4810791015625
7.689,306,3147,1681,2460,-0.86181640625,0.030517578125,-0.39013671875
7.703,308,3147,1750,2908,-0.72216796875,0.034423828125,-0.284423828125
7.711,312,3147,1850,3114,-0.580078125,0.039306640625,-0.17822265625
7.719,316,3147,2023,3147,-0.390380859375,0.04150390625,-0.0712890625
7.733,324,3147,2368,3147,-0.1326904296875,0.062255859375,0.037109375
7.741,328,3147,2599,3147,0.1265869140625,0.100830078125,0.1072998046875
7.749,328,3147,2781,3147,0.2767333984375,-0.0047607421875,0.149169921875
7.767,334,3147,2944,3147,0.2181396484375,-0.3087158203125,0.18359375
7.771,347,3147,3045,3147,-0.1541748046875,-0.3070068359375,0.0123291015625
7.781,338,3147,3118,3147,-0.8453369140625,0.24267578125,-0.561767578125
7.793,344,3147,3147,3147,-1.6416015625,0.7093505859375,-1.18017578125
7.802,346,3147,3147,3147,-2.218505859375,0.6363525390625,-1.26318359375
7.809,387,3147,3147,3147,-2.477294921875,0.3782958984375,-0.9266357421875
7.830,342,3147,3147,3147,-2.563720703125,0.2567138671875,-0.6126708984375
7.831,334,3147,3106,3147,-2.3231201171875,0.0279541015625,-0.4959716796875
7.839,338,3147,3105,3147,-1.4927978515625,-0.305908203125,-0.5921630859375
7.848,336,3147,3136,3147,-0.82421875,-0.171875,-0.7882080078125
7.862,336,3147,3133,3147,-1.156494140625,0.231689453125,-0.917724609375
7.870,338,3147,3134,3147,-1.8173828125,0.2794189453125,-0.837646484375
7.888,337,3147,3106,3147,-1.8173828125,0.2794189453125,-0.837646484375
7.892,336,3147,3012,3147,-1.7305908203125,0.3355712890625,-0.45654296875
7.907,334,3147,2919,3147,-1.35546875,0.377685546875,-0.3023681640625
7.908,315,3147,2777,3147,-1.35546875,0.377685546875,-0.3023681640625
7.924,328,3147,2544,3147,-0.8577880859375,0.0308837890625,-0.0821533203125
7.949,328,3147,2396,3147,-0.7840576171875,-0.02001953125,-0.24951171875
7.950,324,3147,2257,3147,-0.7840576171875,-0.02001953125,-0.24951171875
7.952,318,3147,2113,3058,-0.6500244140625,-0.038330078125,-0.6134033203125
7.960,316,3147,2035,2701,-0.6114501953125,-0.0860595703125,-0.6240234375
7.968,315,3147,1973,2348,-0.6114501953125,-0.0860595703125,-0.6240234375
7.982,309,3147,1869,1746,-0.5758056640625,-0.062744140625,-0.450927734375
7.999,310,3147,1805,1430,-0.5899658203125,-0.0596923828125,-0.35595703125
8.006,308,3147,1697,1018,-0.5899658203125,-0.0596923828125,-0.35595703125
8.012,308,3147,1607,378,-0.560546875,-0.0694580078125,-0.20751953125
8.020,306,2928,1555,378,-0.549560546875,-0.0712890625,-0.1627197265625
8.028,305,2691,1480,373,-0.549560546875,-0.0712890625,-0.1627197265625
8.045,304,2472,1441,371,-0.6209716796875,0.1568603515625,-0.1480712890625
8.050,306,2551,1430,371,-0.6583251953125,0.307373046875,-0.1783447265625
8.058,306,2654,1422,372,-0.6583251953125,0.307373046875,-0.1783447265625
8.072,306,2954,1434,371,-0.66796875,0.278564453125,-0.2828369140625
8.080,306,3143,1441,373,-0.66796875,0.278564453125,-0.2828369140625
8.088,306,3147,1452,432,-0.6962890625,0.1090087890625,-0.323974609375
8.113,308,3147,1476,682,-0.82861328125,-0.1075439453125,-0.3839111328125
8.113,305,3147,1483,920,-0.82861328125,-0.1075439453125,-0.3839111328125
8.118,306,3147,1499,1083,-0.8585205078125,-0.0982666015625,-0.4058837890625
8.132,306,3147,1506,1366,-0.8443603515625,0.0181884765625,-0.4031982421875
8.142,306,3147,1547,1580,-0.8443603515625,0.0181884765625,-0.4031982421875
8.148,307,3147,1569,1812,-0.84130859375,0.0291748046875,-0.3941650390625
8.162,308,3147,1650,2279,-0.8026123046875,0.109375,-0.317138671875
8.170,308,3147,1757,2554,-0.8026123046875,0.109375,-0.317138671875
8.178,313,3147,1840,2795,-0.6212158203125,0.09375,-0.20458984375
8.192,317,3147,2030,3147,-0.296630859375,0.055419921875,0.0035400390625
8.221,321,3147,2279,3147,-0.296630859375,0.055419921875,0.0035400390625
8.223,324,3147,2504,3147,-0.1434326171875,0.0921630859375,0.1512451171875
8.223,313,3147,2745,3147,-0.0299072265625,0.03564453125,0.1658935546875
8.231,331,3147,2853,3147,-0.0299072265625,0.03564453125,0.1658935546875
8.241,334,3147,2935,3147,-0.1168212890625,-0.2021484375,-0.035400390625
8.252,338,3147,3044,3147,-0.8824462890625,0.2193603515625,-0.82568359375
8.260,337,3147,3121,3147,-0.8824462890625,0.2193603515625,-0.82568359375
8.268,344,3147,3147,3147,-1.542236328125,0.6287841796875,-1.20654296875
8.282,345,3147,3147,3147,-2.3890380859375,0.297607421875,-0.6787109375
8.290,346,3147,3147,3147,-2.3890380859375,0.297607421875,-0.6787109375
8.298,345,3147,3147,3147,-2.5205078125,0.1485595703125,-0.4697265625
8.321,338,3147,3099,3147,-2.3162841796875,-0.09228515625,-0.39599609375
8.323,325,3147,3147,3147,-1.5177001953125,-0.3792724609375,-0.453857421875
8.331,336,3147,3147,3147,-0.86328125,-0.1982421875,-0.5782470703125
8.346,337,3147,3147,3147,-1.185546875,0.2855224609375,-0.726806640625
8.351,338,3147,3134,3147,-1.761962890625,0.3453369140625,-0.7520751953125
8.358,338,3147,3092,3147,-1.84375,0.1605224609375,-0.671875
8.372,334,3147,2961,3147,-1.6353759765625,0.1566162109375,-0.656494140625
8.380,334,3147,2859,3147,-1.375244140625,0.18701171875,-0.613037109375
8.388,330,3147,2759,3147,-1.161865234375,0.110107421875,-0.4573974609375
8.402,327,3147,2524,3147,-0.98681640625,0.0089111328125,-0.2855224609375
8.426,324,3147,2407,3147,-0.8447265625,0.027099609375,-0.29541015625
8.426,324,3147,2306,3147,-0.7557373046875,0.1392822265625,-0.4515380859375
8.450,316,3147,2110,2909,-0.706787109375,0.119873046875,-0.5128173828125
8.450,316,3147,2054,2760,-0.67138671875,-0.044189453125,-0.4462890625
8.450,316,3147,2008,2534,-0.6107177734375,-0.1771240234375,-0.33349609375
8.462,310,3147,1899,2110,-0.5574951171875,-0.21630859375,-0.233154296875
8.470,308,3147,1848,1900,-0.569091796875,-0.1859130859375,-0.182861328125
8.478,308,3147,1757,1464,-0.623291015625,-0.1229248046875,-0.192626953125
8.492,306,3147,1662,905,-0.6492919921875,-0.033935546875,-0.246826171875
8.500,305,3147,1604,802,-0.5885009765625,0.0665283203125,-0.2630615234375
8.508,304,3147,1564,660,-0.5050048828125,0.137939453125,-0.2294921875
8.526,304,3147,1480,733,-0.5091552734375,0.203857421875,-0.2200927734375
8.530,306,3147,1477,897,-0.5703125,0.287109375,-0.229736328125
8.543,304,3147,1480,1063,-0.62548828125,0.3179931640625,-0.2425537109375
8.558,305,3147,1476,1362,-0.682861328125,0.2286376953125,-0.27587890625
8.560,305,3147,1494,1518,-0.7423095703125,0.072509765625,-0.3243408203125
8.568,306,3147,1481,1616,-0.776123046875,-0.0316162109375,-0.3765869140625
8.582,305,3147,1518,1961,-0.7679443359375,-0.0284423828125,-0.4215087890625
8.590,305,3147,1548,2098,-0.7647705078125,0.0938720703125,-0.4451904296875
8.598,307,3147,1655,2281,-0.764892578125,0.2493896484375,-0.4312744140625
8.612,307,3147,1733,2534,-0.7130126953125,0.3052978515625,-0.370849609375
8.621,308,3147,1757,2726,-0.677001953125,0.2669677734375,-0.28271484375
8.632,311,3147,1826,2974,-0.6959228515625,0.18310546875,-0.2041015625
8.652,313,3147,2035,3147,-0.7138671875,0.0517578125,-0.140625
8.652,316,3147,2180,3147,-0.7371826171875,-0.1192626953125,-0.0584716796875
8.659,321,3147,2388,3147,-0.690673828125,-0.2529296875,0.0230712890625
8.672,325,3147,2660,3147,-0.4732666015625,-0.2313232421875,0.088134765625
8.680,330,3147,2813,3147,-0.176513671875,-0.1153564453125,0.12255859375
8.688,332,3147,2932,3147,0.048828125,-0.0687255859375,0.0521240234375
8.701,334,3147,3056,3147,0.014404296875,-0.094970703125,-0.079833984375
8.710,336,3147,3147,3147,-0.431884765625,0.0067138671875,-0.32568359375
8.725,344,3147,3147,3147,-1.1180419921875,0.404541015625,-0.787353515625
8.740,402,3147,3147,3147,-1.742431640625,0.62060546875,-1.0606689453125
8.741,456,3147,3147,3147,-2.1617431640625,0.3768310546875,-0.7783203125
8.752,485,3147,3147,3147,-2.4051513671875,0.1414794921875,-0.39208984375
8.767,426,3147,3147,3147,-2.4578857421875,0.0869140625,-0.31787109375
8.770,405,3147,3147,3147,-2.07177734375,-0.0382080078125,-0.4781494140625
8.781,418,3147,3147,3147,-1.2987060546875,-0.1007080078125,-0.6724853515625
8.792,428,3147,3147,3147,-1.02978515625,0.262939453125,-0.639404296875
8.800,409,3147,3147,3147,-1.408447265625,0.5496826171875,-0.4417724609375
8.808,364,3147,3147,3147,-1.6185302734375,0.41259765625,-0.3609619140625
8.827,338,3147,3147,3147,-1.5435791015625,0.2222900390625,-0.4554443359375
8.830,336,3147,3147,3147,-1.404296875,0.0885009765625,-0.5264892578125
8.845,336,3147,3081,3147,-1.2593994140625,-0.0281982421875,-0.4630126953125
8.866,332,3147,2911,3147,-1.13671875,-0.080078125,-0.359375
8.866,330,3147,2785,3147,-1.0404052734375,-0.0233154296875,-0.290283203125
8.868,325,3147,2658,3147,-0.9427490234375,0.1431884765625,-0.3216552734375
8.882,327,3147,2494,3147,-0.8363037109375,0.26171875,-0.3974609375
8.893,324,3147,2372,3147,-0.7530517578125,0.213134765625,-0.4228515625
8.898,323,3147,2243,3147,-0.7086181640625,0.109375,-0.4212646484375
8.912,315,3147,2018,2830,-0.664794921875,0.0145263671875,-0.415283203125
8.920,315,3147,1927,2514,-0.618896484375,-0.0771484375,-0.40673828125
8.928,310,3147,1891,2317,-0.6065673828125,-0.1365966796875,-0.367919921875
8.942,309,3147,1822,1727,-0.6171875,-0.131591796875,-0.307373046875
8.961,308,3147,1779,1306,-0.6192626953125,-0.0684814453125,-0.2567138671875
8.961,294,3147,1695,1085,-0.5875244140625,0.0062255859375,-0.1982421875
8.972,307,3147,1590,644,-0.5509033203125,0.077392578125,-0.1611328125
8.980,306,3147,1557,525,-0.5609130859375,0.18994140625,-0.1697998046875
8.988,305,3147,1531,509,-0.5609130859375,0.18994140625,-0.1697998046875
9.006,306,3147,1506,720,-0.656005859375,0.27392578125,-0.2005615234375
9.010,306,3147,1501,951,-0.7276611328125,0.1461181640625,-0.2430419921875
9.018,306,3147,1500,1116,-0.7276611328125,0.1461181640625,-0.2430419921875
9.032,304,3147,1509,1388,-0.796142578125,0.048583984375,-0.365234375
9.040,307,3147,1541,1529,-0.7833251953125,0.08154296875,-0.3729248046875
9.048,308,3147,1584,1676,-0.7833251953125,0.08154296875,-0.3729248046875
9.068,308,3147,1659,2026,-0.70263671875,0.0682373046875,-0.2987060546875
9.077,294,3147,1750,2328,-0.66845703125,0.0321044921875,-0.285400390625
9.078,313,3147,1798,2507,-0.66845703125,0.0321044921875,-0.285400390625
9.100,317,3147,2102,2959,-0.541259765625,0.104248046875,-0.254150390625
9.101,319,3147,2368,3147,-0.2999267578125,0.129150390625,-0.1739501953125
9.109,324,3147,2567,3147,-0.2999267578125,0.129150390625,-0.1739501953125
9.123,331,3147,2851,3147,0.2017822265625,-0.0677490234375,0.164794921875
9.135,334,3147,3000,3147,0.2047119140625,-0.2298583984375,0.2021484375
9.139,336,3147,3126,3147,0.2047119140625,-0.2298583984375,0.2021484375
9.171,344,3147,3147,3147,-0.62548828125,0.0989990234375,-0.2799072265625
9.172,359,3147,3147,3147,-1.161376953125,0.3988037109375,-0.560791015625
9.172,400,3147,3147,3147,-1.161376953125,0.3988037109375,-0.560791015625
9.183,466,3147,3147,3147,-2.3026123046875,0.5255126953125,-0.83544921875
9.191,487,3147,3147,3147,-2.633056640625,0.1580810546875,-0.6497802734375
9.199,522,3147,3147,3147,-2.633056640625,0.1580810546875,-0.6497802734375
9.213,508,3147,3147,3147,-2.189697265625,-0.2076416015625,-0.7457275390625
9.221,533,3147,3147,3147,-1.4188232421875,-0.1585693359375,-0.859619140625
9.240,533,3147,3147,3147,-1.4188232421875,-0.1585693359375,-0.859619140625
9.243,438,3147,3147,3147,-1.507080078125,0.7061767578125,-0.2724609375
9.254,375,3147,3147,3147,-1.693603515625,0.5380859375,-0.1904296875
9.260,346,3147,3147,3147,-1.693603515625,0.5380859375,-0.1904296875
9.275,338,3147,3120,3147,-1.4134521484375,0.0416259765625,-0.495849609375
9.284,337,3147,3022,3147,-1.2938232421875,-0.135009765625,-0.47021484375
9.289,334,3147,2944,3147,-1.2938232421875,-0.135009765625,-0.47021484375
9.303,334,3147,2788,3147,-0.9686279296875,-0.0595703125,-0.476806640625
9.311,331,3147,2717,3147,-0.855712890625,0.076171875,-0.5411376953125
9.319,328,3147,2599,3147,-0.855712890625,0.076171875,-0.5411376953125
9.346,324,3147,2328,3051,-0.6998291015625,-0.0035400390625,-0.407958984375
9.346,322,3147,2174,2713,-0.6998291015625,-0.0035400390625,-0.407958984375
9.349,318,3147,2050,2325,-0.607666015625,0.045654296875,-0.4005126953125
9.370,313,3147,1792,1557,-0.497802734375,-0.079345703125,-0.3941650390625
9.378,313,3147,1704,952,-0.497802734375,-0.079345703125,-0.3941650390625
9.379,305,3147,1615,455,-0.5089111328125,-0.231201171875,-0.343017578125
9.393,306,2519,1481,382,-0.5633544921875,-0.109619140625,-0.198486328125
9.401,306,2230,1469,372,-0.5633544921875,-0.109619140625,-0.198486328125
9.409,306,2076,1441,371,-0.570068359375,0.15576171875,-0.138427734375
9.423,304,2231,1404,369,-0.5076904296875,0.480712890625,-0.0947265625
9.440,304,2392,1386,372,-0.5076904296875,0.480712890625,-0.0947265625
9.440,305,2567,1366,373,-0.51513671875,0.3458251953125,-0.1224365234375
9.474,304,2886,1357,372,-0.7322998046875,-0.037353515625,-0.240234375
9.476,292,3147,1334,360,-0.7322998046875,-0.037353515625,-0.240234375
9.485,289,3147,1380,442,-0.870849609375,-0.0999755859375,-0.333251953125
9.486,306,3147,1428,680,-0.92578125,0.0042724609375,-0.51171875
9.491,306,3147,1455,834,-0.92578125,0.0042724609375,-0.51171875
9.500,306,3147,1504,987,-0.8397216796875,0.0567626953125,-0.4703369140625
9.513,305,3147,1574,1503,-0.681396484375,0.033935546875,-0.3157958984375
9.521,307,3147,1640,1826,-0.681396484375,0.033935546875,-0.3157958984375
9.529,310,3147,1704,2091,-0.6697998046875,0.0599365234375,-0.2767333984375
9.543,313,3147,1809,2578,-0.6953125,0.13818359375,-0.2586669921875
9.551,316,3147,1960,2884,-0.653564453125,0.18798828125,-0.22314453125
9.572,321,3147,2144,3147,-0.566162109375,0.1651611328125,-0.1363525390625
9.579,324,3147,2419,3147,-0.4781494140625,0.083984375,-0.038818359375
9.581,316,3147,2608,3147,-0.339111328125,-0.012939453125,0.078369140625
9.590,330,3147,2760,3147,-0.2130126953125,-0.085205078125,0.1888427734375
9.603,334,3147,3014,3147,-0.1575927734375,-0.108642578125,0.18212890625
9.611,336,3147,3095,3147,-0.1925048828125,-0.1197509765625,0.0035400390625
9.621,338,3147,3128,3147,-0.4339599609375,-0.12353515625,-0.2864990234375
9.634,334,3147,3147,3147,-0.8583984375,0.0621337890625,-0.6763916015625
9.649,346,3147,3147,3147,-1.3607177734375,0.2471923828125,-1.07958984375
9.650,371,3147,3147,3147,-1.8001708984375,0.159912109375,-1.170166015625
9.665,424,3147,3147,3147,-2.115966796875,0.077880859375,-1.002685546875
9.673,457,3147,3147,3147,-2.277099609375,0.1634521484375,-0.798583984375
9.684,437,3147,3147,3147,-2.1544189453125,0.239013671875,-0.59912109375
9.698,346,3147,3147,3147,-1.7763671875,0.20947265625,-0.5640869140625
9.701,346,3147,3147,3147,-1.211181640625,0.1441650390625,-0.6492919921875
9.709,345,3147,3147,3147,-0.852294921875,0.2642822265625,-0.6971435546875
9.723,346,3147,3147,3147,-1.0577392578125,0.54345703125,-0.6983642578125
9.731,346,3147,3147,3147,-1.5201416015625,0.592529296875,-0.6236572265625
9.739,345,3147,3147,3147,-1.7662353515625,0.367919921875,-0.5089111328125
9.753,338,3147,3112,3147,-1.631103515625,0.19384765625,-0.447265625
9.761,337,3147,3022,3147,-1.3431396484375,0.1729736328125,-0.4114990234375
9.825,336,3147,2875,3147,-1.13623046875,0.1478271484375,-0.3240966796875
9.825,330,3147,2587,3147,-1.0137939453125,0.0675048828125,-0.2083740234375
9.825,328,3147,2472,3147,-0.90673828125,0.0423583984375,-0.228515625
9.825,328,3147,2367,3147,-0.8123779296875,0.103759765625,-0.4195556640625
9.825,322,3147,2178,3147,-0.765625,0.086181640625,-0.5810546875
9.825,318,3147,2105,3147,-0.7552490234375,-0.0322265625,-0.625244140625
9.829,315,3147,2041,3147,-0.732666015625,-0.092041015625,-0.5821533203125
9.849,314,3147,1864,2782,-0.682861328125,-0.0771484375,-0.4810791015625
9.851,313,3147,1786,2514,-0.6480712890625,-0.0703125,-0.377197265625
9.859,309,3147,1743,2167,-0.64404296875,-0.101806640625,-0.310546875
9.877,307,3147,1697,1629,-0.6170654296875,-0.1534423828125,-0.291259765625
9.881,306,3147,1666,1336,-0.5380859375,-0.1728515625,-0.262451171875
9.893,306,3147,1590,986,-0.47705078125,-0.0751953125,-0.1842041015625
9.907,306,3147,1561,682,-0.5111083984375,0.144775390625,-0.151123046875
9.915,306,3147,1529,865,-0.5867919921875,0.3948974609375,-0.1744384765625
9.919,306,3147,1534,1055,-0.6182861328125,0.537353515625,-0.18212890625
9.933,306,3147,1516,1338,-0.6173095703125,0.4676513671875,-0.193603515625
9.941,306,3147,1508,1478,-0.6275634765625,0.259765625,-0.231689453125
9.954,305,3147,1523,1653,-0.660888671875,0.0718994140625,-0.27001953125
9.963,304,3147,1497,1880,-0.7041015625,-0.0238037109375,-0.3048095703125
9.978,306,3147,1506,2058,-0.7523193359375,-0.025390625,-0.3577880859375
9.989,306,3147,1518,2230,-0.818359375,0.046630859375,-0.4014892578125
9.990,305,3147,1519,2410,-0.85986328125,0.1273193359375,-0.424072265625
10.002,306,3147,1536,2689,-0.82568359375,0.1527099609375,-0.443115234375
10.010,306,3147,1561,2844,-0.7564697265625,0.1119384765625,-0.4144287109375
10.020,308,3147,1595,3082,-0.6917724609375,0.044921875,-0.312255859375
10.032,310,3147,1803,3147,-0.6175537109375,0.0224609375,-0.201171875
10.040,316,3147,1978,3147,-0.5277099609375,0.0440673828125,-0.125244140625
10.056,318,3147,2167,3147,-0.4354248046875,0.0523681640625,-0.09326171875
10.062,324,3147,2502,3147,-0.3861083984375,0.0013427734375,-0.162841796875
10.078,328,3147,2689,3147,-0.3988037109375,-0.160888671875,-0.2083740234375
10.079,328,3147,2795,3147,-0.3787841796875,-0.3406982421875,-0.1583251953125
10.092,332,3147,2953,3147,-0.3111572265625,-0.3193359375,-0.181884765625
10.101,336,3147,3028,3147,-0.4127197265625,0.003173828125,-0.322265625
10.108,338,3147,3143,3147,-0.790771484375,0.5413818359375,-0.5467529296875
10.123,346,3147,3147,3147,-1.300537109375,0.8941650390625,-0.7490234375
10.134,375,3147,3147,3147,-1.8199462890625,0.6651611328125,-0.63525390625
10.138,430,3147,3147,3147,-1.8199462890625,0.6651611328125,-0.63525390625
10.158,458,3147,3147,3147,-2.211669921875,0.033935546875,-0.44091796875
10.161,374,3147,3147,3147,-2.0303955078125,0.109619140625,-0.7825927734375
10.168,347,3147,3147,3147,-2.0303955078125,0.109619140625,-0.7825927734375
10.189,361,3147,3147,3147,-1.0858154296875,-0.0067138671875,-1.000244140625
10.190,361,3147,3147,3147,-1.1468505859375,0.5045166015625,-0.8951416015625
10.198,354,3147,3147,3147,-1.1468505859375,0.5045166015625,-0.8951416015625
10.212,338,3147,3147,3147,-1.7835693359375,0.1954345703125,-0.66748046875
10.249,338,3147,3099,3147,-1.6412353515625,-0.0172119140625,-0.6112060546875
10.249,334,3147,2963,3147,-1.6412353515625,-0.0172119140625,-0.6112060546875
10.250,333,3147,2715,3147,-1.1265869140625,0.0338134765625,-0.412109375
10.250,330,3147,2580,3147,-0.9298095703125,0.0797119140625,-0.3685302734375
10.261,328,3147,2484,3147,-0.9298095703125,0.0797119140625,-0.3685302734375
10.277,323,3147,2242,3147,-0.7642822265625,0.0130615234375,-0.4161376953125
10.280,319,3147,2078,3147,-0.77197265625,-0.117431640625,-0.3321533203125
10.288,315,3147,1882,3147,-0.77197265625,-0.117431640625,-0.3321533203125
10.302,309,3147,1709,2874,-0.7303466796875,-0.1552734375,-0.3116455078125
10.310,309,3147,1695,2395,-0.6180419921875,-0.1385498046875,-0.2686767578125
10.318,308,3147,1704,1904,-0.6180419921875,-0.1385498046875,-0.2686767578125
10.336,306,3147,1607,951,-0.3809814453125,-0.2318115234375,-0.2271728515625
10.340,306,3147,1561,645,-0.3809814453125,-0.2318115234375,-0.2271728515625
10.348,306,3147,1545,388,-0.364501953125,-0.139892578125,-0.185546875
10.365,305,2792,1497,382,-0.5460205078125,0.302978515625,-0.2618408203125
10.370,306,2630,1480,382,-0.5460205078125,0.302978515625,-0.2618408203125
10.383,306,2671,1471,385,-0.62744140625,0.426025390625,-0.2994384765625
10.399,304,2961,1447,382,-0.7120361328125,0.1436767578125,-0.3577880859375
10.400,306,3130,1452,378,-0.7120361328125,0.1436767578125,-0.3577880859375
10.408,304,3147,1450,462,-0.7412109375,0.019287109375,-0.37451171875
10.422,305,3147,1469,788,-0.773681640625,0.0634765625,-0.3807373046875
10.430,304,3147,1472,1082,-0.773681640625,0.0634765625,-0.3807373046875
10.442,304,3147,1478,1274,-0.770751953125,0.0975341796875,-0.3787841796875
10.452,306,3147,1472,1649,-0.750244140625,0.0592041015625,-0.3677978515625
10.464,304,3147,1478,1892,-0.750244140625,0.0592041015625,-0.3677978515625
10.468,306,3147,1506,2063,-0.7744140625,0.0474853515625,-0.3826904296875
10.482,306,3147,1575,2384,-0.86572265625,0.1435546875,-0.41845703125
10.503,308,3147,1613,2627,-0.86572265625,0.1435546875,-0.41845703125
10.504,312,3147,1676,2766,-0.8043212890625,0.18408203125,-0.3721923828125
10.512,316,3147,1934,3147,-0.5557861328125,0.0838623046875,-0.0147705078125
10.520,317,3147,2024,3147,-0.5557861328125,0.0838623046875,-0.0147705078125
10.528,321,3147,2223,3147,-0.337646484375,0.002685546875,0.160400390625
10.549,327,3147,2557,3147,-0.2171630859375,0.1546630859375,0.1796875
10.550,328,3147,2717,3147,-0.2171630859375,0.1546630859375,0.1796875
10.558,330,3147,2828,3147,-0.341552734375,0.320068359375,0.0113525390625
10.572,332,3147,2887,3147,-0.47705078125,0.2637939453125,-0.25634765625
10.594,336,3147,2968,3147,-0.736083984375,-0.0985107421875,-0.6375732421875
10.594,334,3147,3047,3147,-1.0166015625,-0.351318359375,-0.9010009765625
10.603,334,3147,3121,3147,-1.2431640625,-0.13623046875,-1.056640625
10.611,338,3147,3147,3147,-1.5328369140625,0.268310546875,-1.0726318359375
10.618,344,3147,3147,3147,-1.815185546875,0.4486083984375,-0.8778076171875
10.632,338,3147,3147,3147,-2.01025390625,0.420654296875,-0.6883544921875
10.640,337,3147,3130,3147,-2.0875244140625,0.285888671875,-0.61376953125
10.648,338,3147,3033,3147,-1.8309326171875,0.03515625,-0.6356201171875
10.662,336,3147,3028,3147,-1.1954345703125,-0.0999755859375,-0.7120361328125
10.670,336,3147,3012,3147,-0.818603515625,0.1553955078125,-0.708251953125
10.678,336,3147,2993,3147,-1.0628662109375,0.4886474609375,-0.5765380859375
10.707,336,3147,2909,3147,-1.4300537109375,0.4884033203125,-0.4144287109375
10.708,333,3147,2827,3147,-1.5509033203125,0.2835693359375,-0.347900390625
10.709,321,3147,2710,3147,-1.4761962890625,0.1158447265625,-0.36279296875
10.723,328,3147,2479,3147,-1.346435546875,0.0428466796875,-0.3646240234375
10.733,327,3147,2364,3147,-1.190185546875,0.0284423828125,-0.3408203125
10.739,325,3147,2287,3147,-1.03369140625,0.0782470703125,-0.408935546875
10.753,323,3147,2143,3147,-0.9224853515625,0.148193359375,-0.5283203125
10.762,318,3147,2054,3147,-0.822265625,0.128173828125,-0.5501708984375
10.771,317,3147,1925,3147,-0.728515625,0.0693359375,-0.5164794921875
10.783,310,3147,1828,2708,-0.6531982421875,0.034912109375,-0.4852294921875
10.791,309,3147,1794,2490,-0.60009765625,-0.021728515625,-0.435302734375
10.809,308,3147,1759,2280,-0.601318359375,-0.093994140625,-0.3599853515625
10.822,307,3147,1683,1894,-0.6607666015625,-0.1322021484375,-0.3109130859375
10.822,307,3147,1641,1610,-0.72607421875,-0.1143798828125,-0.308349609375
10.829,306,3147,1602,1383,-0.720947265625,-0.076904296875,-0.3062744140625
10.844,304,3147,1524,1078,-0.6513671875,-0.07080078125,-0.248046875
10.851,305,3147,1508,907,-0.616943359375,-0.0584716796875,-0.164794921875
10.859,304,3147,1497,832,-0.647705078125,0.0299072265625,-0.1629638671875
10.875,304,3147,1487,976,-0.6717529296875,0.2144775390625,-0.224365234375
10.881,304,3147,1483,1094,-0.6480712890625,0.37451171875,-0.274169921875
10.894,306,3147,1483,1213,-0.62890625,0.3651123046875,-0.3089599609375
10.911,306,3147,1494,1440,-0.6417236328125,0.2156982421875,-0.3082275390625
10.912,306,3147,1508,1615,-0.6553955078125,0.052001953125,-0.2891845703125
10.921,306,3147,1508,1822,-0.669921875,-0.0255126953125,-0.2960205078125
10.933,306,3147,1516,2024,-0.7060546875,-0.000732421875,-0.334228515625
10.941,306,3147,1540,2233,-0.7828369140625,0.0684814453125,-0.404052734375
10.949,306,3147,1543,2347,-0.866943359375,0.117919921875,-0.4580078125
10.963,306,3147,1543,2748,-0.8905029296875,0.121826171875,-0.4501953125
10.982,306,3147,1598,3003,-0.8251953125,0.070556640625,-0.3648681640625
10.982,309,3147,1686,3147,-0.6756591796875,-0.0079345703125,-0.19580078125
10.995,315,3147,2019,3147,-0.511962890625,-0.04833984375,0.005615234375
11.019,321,3147,2240,3147,-0.3592529296875,-0.0230712890625,0.1572265625
11.019,324,3147,2449,3147,-0.220947265625,0.0186767578125,0.1505126953125
11.023,328,3147,2777,3147,-0.19091796875,-0.034423828125,-0.0120849609375
11.034,331,3147,2918,3147,-0.18603515625,-0.2349853515625,-0.148193359375
11.039,334,3147,3011,3147,-0.18896484375,-0.41357421875,-0.2501220703125
11.053,337,3147,3147,3147,-0.4635009765625,-0.168212890625,-0.5062255859375
11.061,338,3147,3147,3147,-1.031982421875,0.55859375,-0.9951171875
11.069,343,3147,3147,3147,-1.599609375,1.019287109375,-1.24658203125
11.086,344,3147,3147,3147,-1.9385986328125,0.76171875,-0.9254150390625
11.091,361,3147,3147,3147,-2.1226806640625,0.31494140625,-0.5550537109375
11.107,383,3147,3147,3147,-2.2281494140625,0.1298828125,-0.4908447265625
11.123,352,3147,3147,3147,-2.14013671875,0.0152587890625,-0.585205078125
11.124,386,3147,3147,3147,-1.6190185546875,-0.1495361328125,-0.723388671875
11.129,388,3147,3147,3147,-1.1884765625,0.0660400390625,-0.7484130859375
11.146,361,3147,3147,3147,-1.387451171875,0.4334716796875,-0.5638427734375
11.151,338,3147,3147,3147,-1.615966796875,0.4583740234375,-0.384033203125
11.159,338,3147,3147,3147,-1.5677490234375,0.3392333984375,-0.4158935546875
11.173,334,3147,2997,3147,-1.4150390625,0.1771240234375,-0.50732421875
11.228,334,3147,2868,3147,-1.2379150390625,0.0206298828125,-0.467041015625
11.229,330,3147,2746,3147,-1.1063232421875,-0.013916015625,-0.3790283203125
11.230,328,3147,2543,3147,-1.0101318359375,0.095458984375,-0.3853759765625
11.230,324,3147,2440,3147,-0.906494140625,0.2061767578125,-0.4755859375
11.230,323,3147,2280,3147,-0.8236083984375,0.1297607421875,-0.497802734375
11.234,318,3147,2047,3147,-0.77978515625,-0.0360107421875,-0.427978515625
11.241,315,3147,1922,2867,-0.7222900390625,-0.1280517578125,-0.3465576171875
11.249,311,3147,1840,2498,-0.642578125,-0.15576171875,-0.2926025390625
11.263,308,3147,1715,1638,-0.5760498046875,-0.1376953125,-0.2691650390625
11.271,307,3147,1679,1243,-0.5042724609375,-0.1383056640625,-0.2713623046875
11.284,307,3147,1616,734,-0.4246826171875,-0.169189453125,-0.239013671875
11.295,307,2877,1545,378,-0.4178466796875,-0.1190185546875,-0.17626953125
11.310,305,2648,1497,377,-0.491943359375,0.0838623046875,-0.154541015625
11.311,292,2611,1488,360,-0.5357666015625,0.3343505859375,-0.1436767578125
11.324,306,2861,1508,376,-0.548095703125,0.447998046875,-0.141357421875
11.332,304,3062,1509,380,-0.5943603515625,0.375244140625,-0.1737060546875
11.339,304,3147,1527,383,-0.6668701171875,0.210693359375,-0.2193603515625
11.353,306,3147,1545,568,-0.739013671875,0.0706787109375,-0.2589111328125
11.361,306,3147,1543,710,-0.805419921875,0.0098876953125,-0.3076171875
11.372,306,3147,1546,858,-0.805419921875,0.0098876953125,-0.3076171875
11.386,306,3147,1540,1091,-0.8798828125,0.0374755859375,-0.40478515625
11.391,306,3147,1557,1323,-0.8604736328125,0.0030517578125,-0.391357421875
11.403,306,3147,1564,1508,-0.8604736328125,0.0030517578125,-0.391357421875
11.419,308,3147,1622,1816,-0.8580322265625,0.0361328125,-0.36767578125
11.423,307,3147,1675,2039,-0.8404541015625,0.103515625,-0.342041015625
11.429,307,3147,1722,2260,-0.8404541015625,0.103515625,-0.342041015625
11.443,311,3147,1849,2801,-0.6724853515625,0.0732421875,-0.2183837890625
11.451,314,3147,1948,3015,-0.545166015625,0.0665283203125,-0.13720703125
11.459,316,3147,2054,3147,-0.545166015625,0.0665283203125,-0.13720703125
11.473,325,3147,2461,3147,-0.1700439453125,0.137451171875,0.07421875
11.491,329,3147,2684,3147,-0.033203125,0.1339111328125,0.11376953125
11.492,330,3147,2820,3147,-0.033203125,0.1339111328125,0.11376953125
11.509,334,3147,3032,3147,-0.2176513671875,-0.3125,-0.0771484375
11.512,336,3147,3115,3147,-0.5863037109375,-0.221435546875,-0.2005615234375
11.528,336,3147,3147,3147,-0.5863037109375,-0.221435546875,-0.2005615234375
11.533,355,3147,3147,3147,-1.564208984375,0.6229248046875,-0.8232421875
11.541,376,3147,3147,3147,-1.93310546875,0.567626953125,-0.895751953125
11.549,413,3147,3147,3147,-1.93310546875,0.567626953125,-0.895751953125
11.563,430,3147,3147,3147,-2.2301025390625,0.15380859375,-0.536376953125
11.571,351,3147,3147,3147,-2.1240234375,0.0440673828125,-0.5618896484375
11.579,344,3147,3147,3147,-2.1240234375,0.0440673828125,-0.5618896484375
11.593,344,3147,3147,3147,-1.0577392578125,0.0421142578125,-0.8560791015625
11.601,344,3147,3147,3147,-1.0577392578125,0.0421142578125,-0.8560791015625
11.620,346,3147,3147,3147,-1.18798828125,0.3980712890625,-0.8173828125
11.623,344,3147,3147,3147,-1.533935546875,0.25537109375,-0.6964111328125
11.631,344,3147,3147,3147,-1.533935546875,0.25537109375,-0.6964111328125
11.639,338,3147,3144,3147,-1.4322509765625,0.091064453125,-0.707763671875
11.653,338,3147,2991,3147,-1.142333984375,-0.0013427734375,-0.371337890625
11.661,334,3147,2887,3147,-1.142333984375,-0.0013427734375,-0.371337890625
11.669,332,3147,2801,3147,-0.9915771484375,0.1083984375,-0.234619140625
11.683,330,3147,2648,3147,-0.782470703125,0.24365234375,-0.2265625
11.693,328,3147,2568,3147,-0.782470703125,0.24365234375,-0.2265625
11.699,328,3147,2456,3147,-0.7408447265625,0.13037109375,-0.2418212890625
11.713,323,3147,2277,3147,-0.7515869140625,0.0257568359375,-0.291748046875
11.724,321,3147,2178,3147,-0.7515869140625,0.0257568359375,-0.291748046875
11.733,321,3147,2074,3114,-0.7664794921875,0.012451171875,-0.3343505859375
11.743,314,3147,1914,2840,-0.7823486328125,-0.052734375,-0.3712158203125
11.751,310,3147,1865,2593,-0.7823486328125,-0.052734375,-0.3712158203125
11.759,309,3147,1854,2364,-0.7730712890625,-0.0423583984375,-0.3720703125
11.773,308,3147,1739,1943,-0.6934814453125,0.0186767578125,-0.350341796875
11.781,307,3147,1711,1769,-0.6934814453125,0.0186767578125,-0.350341796875
11.797,306,3147,1676,1547,-0.6495361328125,0.0284423828125,-0.3035888671875
11.803,306,3147,1610,1382,-0.6231689453125,0.1358642578125,-0.3101806640625
11.813,306,3147,1580,1294,-0.6231689453125,0.1358642578125,-0.3101806640625
11.833,308,3147,1557,1323,-0.61962890625,0.27783203125,-0.308349609375
11.834,308,3147,1582,1501,-0.616455078125,0.33642578125,-0.273193359375
11.842,308,3147,1604,1653,-0.6339111328125,0.2489013671875,-0.228271484375
11.849,308,3147,1629,1800,-0.6680908203125,0.1109619140625,-0.196533203125
11.863,306,3147,1666,2121,-0.694091796875,0.0435791015625,-0.19921875
11.871,308,3147,1709,2303,-0.7120361328125,0.0748291015625,-0.24072265625
11.879,306,3147,1761,2552,-0.718505859375,0.1422119140625,-0.2813720703125
11.898,313,3147,1894,2989,-0.6728515625,0.1640625,-0.260498046875
11.901,316,3147,2061,3147,-0.556640625,0.135986328125,-0.1756591796875
11.909,321,3147,2263,3147,-0.405517578125,0.0867919921875,-0.061767578125
11.942,328,3147,2584,3147,-0.2322998046875,0.05078125,0.05859375
11.942,330,3147,2744,3147,-0.0675048828125,0.0733642578125,0.1414794921875
11.942,331,3147,2905,3147,-0.084228515625,0.0765380859375,0.089599609375
11.954,336,3147,3106,3147,-0.3111572265625,-0.0830078125,-0.07177734375
11.961,336,3147,3147,3147,-0.57421875,-0.291748046875,-0.171142578125
11.983,344,3147,3147,3147,-0.8311767578125,-0.2642822265625,-0.1884765625
11.988,370,3147,3147,3147,-1.08837890625,0.1748046875,-0.3519287109375
12.023,390,3147,3147,3147,-1.3934326171875,0.6798095703125,-0.756103515625
12.023,425,3147,3147,3147,-1.77099609375,0.780517578125,-1.0269775390625
12.023,402,3147,3147,3147,-2.0384521484375,0.518798828125,-0.9200439453125
12.047,349,3147,3147,3147,-2.102783203125,0.1361083984375,-0.7049560546875
12.048,346,3147,3147,3147,-1.997802734375,-0.0830078125,-0.6964111328125
12.048,347,3147,3147,3147,-1.5994873046875,-0.142333984375,-0.9091796875
12.051,346,3147,3147,3147,-1.0836181640625,-0.107666015625,-1.1051025390625
12.059,346,3147,3147,3147,-0.922607421875,0.0601806640625,-1.0723876953125
12.073,345,3147,3147,3147,-1.0833740234375,0.2451171875,-0.80419921875
12.081,345,3147,3147,3147,-1.354248046875,0.3917236328125,-0.5203857421875
12.089,346,3147,3147,3147,-1.5506591796875,0.365234375,-0.352294921875
12.103,344,3147,3114,3147,-1.48779296875,0.1806640625,-0.2540283203125
12.111,345,3147,3057,3147,-1.29833984375,0.0665283203125,-0.227294921875
12.135,338,3147,2960,3147,-1.14111328125,0.0322265625,-0.2398681640625
12.135,334,3147,2769,3147,-1.0257568359375,0.0029296875,-0.2568359375
12.147,332,3147,2691,3147,-0.9366455078125,0.0272216796875,-0.3109130859375
12.149,331,3147,2578,3147,-0.8687744140625,0.1219482421875,-0.4161376953125
12.163,328,3147,2374,3147,-0.802001953125,0.155029296875,-0.523193359375
12.171,324,3147,2273,3147,-0.75439453125,0.1014404296875,-0.5853271484375
12.179,323,3147,2174,3147,-0.754150390625,0.06982421875,-0.6119384765625
12.193,318,3147,2028,3147,-0.7674560546875,0.058837890625,-0.5831298828125
12.208,317,3147,1943,3147,-0.7568359375,-0.0223388671875,-0.4915771484375
12.210,308,3147,1816,3051,-0.7398681640625,-0.15283203125,-0.3983154296875
12.238,308,3147,1700,2746,-0.718505859375,-0.2178955078125,-0.3485107421875
12.238,305,3147,1669,2530,-0.66259765625,-0.1783447265625,-0.3203125
12.244,304,3147,1574,2306,-0.5948486328125,-0.080810546875,-0.284912109375
12.253,306,3147,1529,1922,-0.54296875,-0.0059814453125,-0.2430419921875
12.261,304,3147,1506,1697,-0.52294921875,0.0423583984375,-0.225341796875
12.273,306,3147,1494,1478,-0.5439453125,0.1614990234375,-0.246826171875
12.283,304,3147,1506,1585,-0.585693359375,0.3541259765625,-0.2757568359375
12.291,304,3147,1529,1755,-0.628173828125,0.466064453125,-0.2952880859375
12.299,305,3147,1559,1874,-0.6641845703125,0.4000244140625,-0.3043212890625
12.313,304,3147,1590,2152,-0.703125,0.2376708984375,-0.3092041015625
12.339,306,3147,1635,2317,-0.7401123046875,0.0909423828125,-0.2977294921875
12.340,306,3147,1653,2484,-0.745849609375,0.015380859375,-0.2659912109375
12.344,308,3147,1703,2723,-0.730712890625,0.0281982421875,-0.2542724609375
12.351,308,3147,1713,2927,-0.723388671875,0.1107177734375,-0.2802734375
12.360,312,3147,1762,3106,-0.706298828125,0.19970703125,-0.3123779296875
12.373,315,3147,2047,3147,-0.670654296875,0.2230224609375,-0.306640625
12.386,321,3147,2218,3147,-0.632568359375,0.156494140625,-0.2564697265625
12.390,321,3147,2384,3147,-0.58447265625,0.052734375,-0.1983642578125
12.410,327,3147,2632,3147,-0.563232421875,-0.0516357421875,-0.18505859375
12.411,331,3147,2758,3147,-0.532470703125,-0.177734375,-0.1812744140625
12.419,331,3147,2877,3147,-0.3763427734375,-0.3134765625,-0.11962890625
12.440,336,3147,3051,3147,-0.2374267578125,-0.3909912109375,-0.1146240234375
12.453,338,3147,3135,3147,-0.3453369140625,-0.179443359375,-0.2552490234375
12.454,338,3147,3147,3147,-0.638916015625,0.364990234375,-0.568115234375
12.468,355,3147,3147,3147,-0.988525390625,0.8609619140625,-0.831787109375
12.472,373,3147,3147,3147,-1.3111572265625,0.83935546875,-0.72998046875
12.479,371,3147,3147,3147,-1.572021484375,0.38037109375,-0.5096435546875
12.498,382,3147,3147,3147,-1.807861328125,0.0496826171875,-0.5301513671875
12.501,347,3147,3147,3147,-1.985595703125,0.0118408203125,-0.7684326171875
12.512,346,3147,3147,3147,-1.985595703125,0.0118408203125,-0.7684326171875
12.523,345,3147,3134,3147,-1.4320068359375,-0.330078125,-0.9783935546875
12.546,342,3147,3147,3147,-0.92431640625,-0.3577880859375,-0.9471435546875
12.549,324,3147,3147,3147,-0.92431640625,-0.3577880859375,-0.9471435546875
12.553,354,3147,3147,3147,-1.1646728515625,0.474609375,-0.9881591796875
12.561,355,3147,3147,3147,-1.4454345703125,0.5301513671875,-0.805419921875
12.575,348,3147,3147,3147,-1.4454345703125,0.5301513671875,-0.805419921875
12.583,338,3147,3147,3147,-1.4111328125,0.141357421875,-0.58935546875
12.591,336,3147,3147,3147,-1.2054443359375,0.0384521484375,-0.5355224609375
12.599,338,3147,3107,3147,-1.2054443359375,0.0384521484375,-0.5355224609375
12.620,336,3147,3000,3147,-0.9366455078125,0.0726318359375,-0.43701171875
12.621,306,3147,2901,3147,-0.8240966796875,0.106201171875,-0.4239501953125
12.645,332,3147,2828,3147,-0.8240966796875,0.106201171875,-0.4239501953125
12.645,328,3147,2657,3147,-0.6851806640625,0.152099609375,-0.43798828125
12.652,330,3147,2552,3147,-0.6365966796875,0.09130859375,-0.3516845703125
12.659,328,3147,2473,3147,-0.6365966796875,0.09130859375,-0.3516845703125
12.680,324,3147,2337,3147,-0.5704345703125,0.080810546875,-0.344970703125
12.681,323,3147,2191,3147,-0.5716552734375,0.03662109375,-0.384765625
12.689,318,3147,2115,3147,-0.5716552734375,0.03662109375,-0.384765625
12.703,318,3147,1981,2909,-0.6434326171875,-0.0125732421875,-0.3988037109375
12.727,316,3147,1914,2775,-0.685791015625,0.0584716796875,-0.402099609375
12.727,316,3147,1878,2703,-0.685791015625,0.0584716796875,-0.402099609375
12.749,313,3147,1803,2574,-0.73681640625,0.1983642578125,-0.3924560546875
12.749,308,3147,1735,2468,-0.73681640625,0.1983642578125,-0.3924560546875
12.749,296,3147,1753,2435,-0.755859375,0.1884765625,-0.374267578125
12.763,308,3147,1713,2430,-0.7496337890625,0.07568359375,-0.3367919921875
12.771,308,3147,1676,2461,-0.7496337890625,0.07568359375,-0.3367919921875
12.779,307,3147,1662,2479,-0.7408447265625,0.0384521484375,-0.328125
12.793,306,3147,1673,2585,-0.7735595703125,0.009765625,-0.3565673828125
12.802,306,3147,1687,2677,-0.7735595703125,0.009765625,-0.3565673828125
12.809,307,3147,1687,2727,-0.7745361328125,0.045166015625,-0.3775634765625
12.823,306,3147,1722,2859,-0.7816162109375,0.1390380859375,-0.4390869140625
12.836,308,3147,1750,2936,-0.7816162109375,0.1390380859375,-0.4390869140625
12.852,308,3147,1746,3011,-0.813232421875,0.1279296875,-0.45361328125
12.856,310,3147,1783,3144,-0.8140869140625,0.0364990234375,-0.4017333984375
12.861,312,3147,1865,3147,-0.8140869140625,0.0364990234375,-0.4017333984375
12.869,313,3147,1959,3147,-0.709716796875,0.004638671875,-0.328125
12.883,316,3147,2141,3147,-0.4534912109375,0.11328125,-0.2379150390625
12.893,318,3147,2259,3147,-0.4534912109375,0.11328125,-0.2379150390625
12.899,323,3147,2392,3147,-0.4373779296875,0.143310546875,-0.2587890625
12.913,328,3147,2635,3147,-0.3143310546875,-0.0634765625,-0.1273193359375
12.924,330,3147,2772,3147,-0.3143310546875,-0.0634765625,-0.1273193359375
12.929,331,3147,2906,3147,-0.2412109375,-0.2235107421875,-0.064697265625
12.981,336,3147,3058,3147,-0.1646728515625,-0.242919921875,-0.014404296875
12.983,334,3147,3133,3147,-0.248291015625,-0.0233154296875,-0.06787109375
12.984,337,3147,3147,3147,-0.611328125,0.3843994140625,-0.3421630859375
12.984,345,3147,3147,3147,-1.118408203125,0.7239990234375,-0.690673828125
12.984,371,3147,3147,3147,-1.5650634765625,0.6455078125,-0.85595703125
12.989,401,3147,3147,3147,-1.8758544921875,0.2540283203125,-0.816650390625
13.003,376,3147,3147,3147,-2.0740966796875,0.015869140625,-0.8048095703125
13.011,344,3147,3147,3147,-2.1209716796875,-0.0718994140625,-0.834716796875
13.025,344,3147,3147,3147,-1.820556640625,-0.3084716796875,-0.8323974609375
13.033,345,3147,3147,3147,-1.1947021484375,-0.4345703125,-0.9329833984375
13.043,356,3147,3147,3147,-0.8173828125,-0.050048828125,-1.1925048828125
13.063,349,3147,3147,3147,-0.9385986328125,0.4283447265625,-1.23046875
13.064,344,3147,3147,3147,-1.241943359375,0.4984130859375,-0.9097900390625
13.071,343,3147,3147,3147,-1.4508056640625,0.272705078125,-0.59130859375
13.079,342,3147,3147,3147,-1.4307861328125,0.0767822265625,-0.4571533203125
13.093,338,3147,3114,3147,-1.25537109375,0.0296630859375,-0.4461669921875
13.107,336,3147,3048,3147,-1.0906982421875,0.021240234375,-0.435546875
13.110,334,3147,2953,3147,-1.0133056640625,0.010009765625,-0.3795166015625
13.130,332,3147,2769,3147,-0.9852294921875,0.021484375,-0.3179931640625
13.132,331,3147,2677,3147,-0.956787109375,0.0692138671875,-0.349609375
13.155,330,3147,2561,3147,-0.8968505859375,0.11279296875,-0.4803466796875
13.157,324,3147,2319,3147,-0.80419921875,0.0836181640625,-0.574462890625
13.163,322,3147,2165,3147,-0.7294921875,-0.0032958984375,-0.56640625
13.174,318,3147,2058,3147,-0.69384765625,-0.09375,-0.510498046875
13.183,316,3147,1913,2925,-0.6773681640625,-0.1588134765625,-0.456298828125
13.191,313,3147,1837,2648,-0.66357421875,-0.1663818359375,-0.39892578125
13.199,310,3147,1772,2463,-0.6375732421875,-0.1185302734375,-0.350830078125
13.213,308,3147,1681,2190,-0.599609375,-0.03369140625,-0.338623046875
13.221,306,3147,1602,1945,-0.583251953125,0.0859375,-0.3521728515625
13.231,306,3147,1531,1715,-0.593017578125,0.1658935546875,-0.3515625
13.243,304,3147,1462,1557,-0.597412109375,0.138427734375,-0.3265380859375
13.254,304,3147,1434,1604,-0.5858154296875,0.0765380859375,-0.30908203125
13.260,305,3147,1411,1703,-0.587158203125,0.08837890625,-0.3179931640625
13.273,304,3147,1428,1921,-0.6209716796875,0.1611328125,-0.3319091796875
13.287,304,3147,1450,2075,-0.6591796875,0.2005615234375,-0.3243408203125
13.290,304,3147,1464,2207,-0.6787109375,0.17138671875,-0.3096923828125
13.303,304,3147,1494,2440,-0.7017822265625,0.1209716796875,-0.3062744140625
13.318,305,3147,1531,2573,-0.732421875,0.079833984375,-0.3243408203125
13.320,306,3147,1564,2698,-0.7464599609375,0.059326171875,-0.3642578125
13.333,306,3147,1704,2973,-0.73193359375,0.0743408203125,-0.3814697265625
13.341,310,3147,1775,3147,-0.6795654296875,0.0966796875,-0.3494873046875
13.365,310,3147,1865,3147,-0.6251220703125,0.07666015625,-0.3326416015625
13.371,314,3147,2102,3147,-0.6168212890625,0.02978515625,-0.370849609375
13.372,318,3147,2253,3147,-0.575439453125,0.0,-0.40771484375
13.379,322,3147,2407,3147,-0.4556884765625,-0.0296630859375,-0.3775634765625
13.399,328,3147,2698,3147,-0.3582763671875,-0.0599365234375,-0.2659912109375
13.401,328,3147,2876,3147,-0.26953125,-0.0645751953125,-0.134033203125
13.409,332,3147,3027,3147,-0.1348876953125,-0.06298828125,-0.0477294921875
13.434,336,3147,3147,3147,-0.1546630859375,-0.1016845703125,-0.0478515625
13.436,346,3147,3147,3147,-0.50634765625,-0.072265625,-0.2349853515625
13.439,411,3147,3147,3147,-1.0103759765625,0.2589111328125,-0.6583251953125
13.464,490,3147,3147,3147,-1.4783935546875,0.5870361328125,-1.0469970703125
13.464,514,3147,3147,3147,-1.8770751953125,0.4610595703125,-1.0487060546875
13.471,548,3147,3147,3147,-2.164794921875,0.168212890625,-0.861328125
13.484,561,3147,3147,3147,-2.2974853515625,0.0172119140625,-0.7581787109375
13.491,526,3147,3147,3147,-2.1572265625,-0.1212158203125,-0.6826171875
13.499,508,3147,3147,3147,-1.4998779296875,-0.3013916015625,-0.571044921875
13.513,533,3147,3147,3147,-0.8236083984375,-0.1708984375,-0.43359375
13.521,543,3147,3147,3147,-0.9425048828125,0.3388671875,-0.419921875
13.540,533,3147,3147,3147,-1.5125732421875,0.6231689453125,-0.5150146484375
13.543,487,3147,3147,3147,-1.7574462890625,0.408203125,-0.5640869140625
13.554,430,3147,3147,3147,-1.580810546875,0.1060791015625,-0.5938720703125
13.561,363,3147,3147,3147,-1.308349609375,0.0413818359375,-0.631591796875
13.576,338,3147,3120,3147,-1.1278076171875,0.074462890625,-0.59228515625
13.582,336,3147,3039,3147,-1.02880859375,0.04833984375,-0.4766845703125
13.590,334,3147,2930,3147,-0.930908203125,0.03955078125,-0.401123046875
13.598,333,3147,2840,3147,-0.930908203125,0.03955078125,-0.401123046875
13.612,330,3147,2612,3147,-0.7659912109375,0.13671875,-0.4254150390625
13.625,328,3147,2516,3147,-0.7244873046875,0.107177734375,-0.4071044921875
13.629,325,3147,2394,3147,-0.7244873046875,0.107177734375,-0.4071044921875
13.643,323,3147,2230,3016,-0.6707763671875,-0.03125,-0.37353515625
13.650,319,3147,2093,2782,-0.635986328125,-0.1368408203125,-0.3182373046875
13.658,316,3147,1952,2581,-0.635986328125,-0.1368408203125,-0.3182373046875
13.676,313,3147,1759,1997,-0.6124267578125,-0.1087646484375,-0.2926025390625
13.680,310,3147,1700,1640,-0.607666015625,-0.01806640625,-0.35498046875
13.688,307,3147,1610,1323,-0.607666015625,-0.01806640625,-0.35498046875
13.702,307,3147,1534,1043,-0.5595703125,0.0687255859375,-0.26513671875
13.710,306,3147,1472,793,-0.61474609375,0.109619140625,-0.25732421875
13.718,306,3147,1473,691,-0.61474609375,0.109619140625,-0.25732421875
13.744,304,3147,1470,802,-0.6829833984375,0.3167724609375,-0.296875
13.745,305,3147,1467,933,-0.6829833984375,0.3167724609375,-0.296875
13.748,305,3147,1477,1065,-0.6737060546875,0.28759765625,-0.3336181640625
13.763,306,3147,1473,1349,-0.6583251953125,0.0870361328125,-0.41552734375
13.772,304,3147,1478,1514,-0.6583251953125,0.0870361328125,-0.41552734375
13.778,306,3147,1490,1669,-0.683837890625,0.0333251953125,-0.4158935546875
13.792,306,3147,1546,1970,-0.72998046875,0.0142822265625,-0.33642578125
13.800,305,3147,1595,2235,-0.72998046875,0.0142822265625,-0.33642578125
13.808,307,3147,1662,2432,-0.7432861328125,0.0313720703125,-0.3236083984375
13.822,309,3147,1785,2879,-0.708984375,0.234375,-0.3350830078125
13.830,309,3147,1810,3064,-0.708984375,0.234375,-0.3350830078125
13.875,313,3147,1864,3147,-0.6204833984375,0.2103271484375,-0.2557373046875
13.876,321,3147,2275,3147,-0.54736328125,0.07080078125,-0.17919921875
13.876,323,3147,2361,3147,-0.54736328125,0.07080078125,-0.17919921875
13.876,324,3147,2552,3147,-0.57373046875,-0.0362548828125,-0.2310791015625
13.882,329,3147,2794,3147,-0.55615234375,-0.157470703125,-0.1676025390625
13.890,332,3147,2919,3147,-0.55615234375,-0.157470703125,-0.1676025390625
13.898,334,3147,3042,3147,-0.4169921875,-0.091796875,-0.1402587890625
13.912,336,3147,3147,3147,-0.36376953125,-0.029296875,-0.2825927734375
13.920,344,3147,3147,3147,-0.36376953125,-0.029296875,-0.2825927734375
13.928,382,3147,3147,3147,-0.6619873046875,0.08251953125,-0.4368896484375
13.948,456,3147,3147,3147,-1.548828125,0.6656494140625,-0.771728515625
13.972,484,3147,3147,3147,-1.548828125,0.6656494140625,-0.771728515625
13.972,509,3147,3147,3147,-1.9219970703125,0.46240234375,-0.553466796875
13.973,494,3147,3147,3147,-2.1868896484375,0.2733154296875,-0.4906005859375
13.983,466,3147,3147,3147,-2.2222900390625,0.111328125,-0.675537109375
13.988,431,3147,3147,3147,-1.8826904296875,-0.2139892578125,-0.932373046875
14.002,485,3147,3147,3147,-1.257080078125,-0.42333984375,-1.012451171875
14.010,508,3147,3147,3147,-1.01708984375,-0.1455078125,-0.850830078125
14.018,505,3147,3147,3147,-1.327880859375,0.3135986328125,-0.59228515625
14.032,470,3147,3147,3147,-1.5977783203125,0.4361572265625,-0.39794921875
14.041,415,3147,3147,3147,-1.554443359375,0.2720947265625,-0.3424072265625
14.050,383,3147,3147,3147,-1.3648681640625,0.137939453125,-0.3538818359375
14.067,336,3147,3147,3147,-1.1961669921875,0.0673828125,-0.3221435546875
14.086,336,3147,3088,3147,-1.070556640625,-0.011474609375,-0.2481689453125
14.086,316,3147,2970,3147,-0.9573974609375,-0.0689697265625,-0.2042236328125
14.092,330,3147,2804,3147,-0.8433837890625,-0.0244140625,-0.25146484375
14.100,330,3147,2716,3147,-0.732666015625,0.08740234375,-0.4263916015625
14.110,328,3147,2619,3147,-0.681396484375,0.13427734375,-0.611328125
14.122,324,3147,2414,3147,-0.7091064453125,0.0982666015625,-0.6646728515625
14.130,323,3147,2330,3147,-0.7490234375,0.057373046875,-0.597412109375
14.138,323,3147,2247,3011,-0.7581787109375,0.019287109375,-0.474853515625
14.152,316,3147,2105,2635,-0.7550048828125,-0.0257568359375,-0.3504638671875
14.161,316,3147,2008,2359,-0.7650146484375,-0.0565185546875,-0.26318359375
14.180,314,3147,1915,2214,-0.759033203125,-0.0567626953125,-0.226318359375
14.191,307,3147,1792,1715,-0.7216796875,-0.015380859375,-0.215087890625
14.191,306,3147,1703,1365,-0.6898193359375,0.0548095703125,-0.210693359375
14.198,316,3147,1700,1146,-0.67138671875,0.08154296875,-0.2025146484375
14.212,304,3147,1655,895,-0.654296875,0.0615234375,-0.2313232421875
14.220,304,3147,1603,725,-0.649658203125,0.10107421875,-0.2979736328125
14.228,306,3147,1580,767,-0.6663818359375,0.205322265625,-0.347900390625
14.242,306,3147,1569,922,-0.688232421875,0.2540283203125,-0.3671875
14.253,306,3147,1602,1067,-0.697021484375,0.1978759765625,-0.3555908203125
14.258,305,3147,1610,1264,-0.701171875,0.0863037109375,-0.3094482421875
14.280,306,3147,1627,1555,-0.7181396484375,-0.00048828125,-0.268310546875
14.282,287,3147,1635,1766,-0.729248046875,0.0009765625,-0.279296875
14.291,308,3147,1652,1961,-0.714599609375,0.0557861328125,-0.3145751953125
14.302,308,3147,1708,2348,-0.6890869140625,0.0869140625,-0.3238525390625
14.310,306,3147,1806,2608,-0.6439208984375,0.0787353515625,-0.2882080078125
14.318,313,3147,1922,2874,-0.5880126953125,0.0928955078125,-0.228271484375
14.332,318,3147,2268,3147,-0.5128173828125,0.1396484375,-0.1668701171875
14.340,321,3147,2464,3147,-0.4083251953125,0.1488037109375,-0.08544921875
14.348,324,3147,2648,3147,-0.3594970703125,0.1427001953125,-0.013916015625
14.362,327,3147,2876,3147,-0.392822265625,0.08740234375,-0.04931640625
14.370,329,3147,2989,3147,-0.3955078125,-0.090576171875,-0.1058349609375
14.396,332,3147,3094,3147,-0.3272705078125,-0.2928466796875,-0.15185546875
14.396,334,3147,3147,3147,-0.3660888671875,-0.2562255859375,-0.3153076171875
14.400,344,3147,3147,3147,-0.61474609375,0.157470703125,-0.66796875
14.413,409,3147,3147,3147,-1.054931640625,0.591552734375,-1.074951171875
14.422,497,3147,3147,3147,-1.539306640625,0.6112060546875,-1.1650390625
14.430,533,3147,3147,3147,-1.915283203125,0.350341796875,-0.9052734375
14.438,573,3147,3147,3147,-2.2054443359375,0.1900634765625,-0.6236572265625
14.461,578,3147,3147,3147,-2.3319091796875,0.1717529296875,-0.46533203125
14.462,526,3147,3147,3147,-2.0880126953125,0.095703125,-0.3900146484375
14.469,497,3147,3147,3147,-1.375732421875,-0.038818359375,-0.3695068359375
14.496,506,3147,3147,3147,-0.7945556640625,0.0687255859375,-0.3758544921875
14.497,521,3147,3147,3147,-0.9310302734375,0.3253173828125,-0.3355712890625
14.499,508,3147,3147,3147,-1.4039306640625,0.36279296875,-0.23046875
14.512,482,3147,3147,3147,-1.6590576171875,0.256591796875,-0.16650390625
14.526,431,3147,3147,3147,-1.5794677734375,0.2015380859375,-0.19091796875
14.528,376,3147,3147,3147,-1.3636474609375,0.1866455078125,-0.2493896484375
14.542,334,3147,3147,3147,-1.18603515625,0.125244140625,-0.2830810546875
14.551,334,3147,3127,3147,-1.04296875,0.031982421875,-0.2850341796875
14.562,332,3147,3047,3147,-0.927978515625,0.0340576171875,-0.311279296875
14.572,331,3147,2880,3147,-0.840576171875,0.1080322265625,-0.4107666015625
14.639,328,3147,2760,3147,-0.7783203125,0.1356201171875,-0.5367431640625
14.639,327,3147,2621,3147,-0.7919921875,0.1195068359375,-0.5943603515625
14.639,324,3147,2430,3147,-0.836669921875,0.0887451171875,-0.547119140625
14.639,321,3147,2367,3147,-0.83203125,0.048583984375,-0.436279296875
14.639,322,3147,2275,3147,-0.7821044921875,-0.01318359375,-0.3231201171875
14.639,316,3147,2124,2780,-0.7376708984375,-0.0509033203125,-0.2530517578125
14.640,321,3147,2003,2493,-0.7249755859375,-0.03857421875,-0.2332763671875
14.649,310,3147,1877,2213,-0.7249755859375,-0.03857421875,-0.2332763671875
14.663,308,3147,1809,1681,-0.6953125,0.0177001953125,-0.2945556640625
14.670,306,3147,1790,1476,-0.6578369140625,0.09033203125,-0.3037109375
14.681,306,3147,1739,1294,-0.6578369140625,0.09033203125,-0.3037109375
14.703,306,3147,1705,1014,-0.6419677734375,0.1143798828125,-0.27001953125
14.704,306,3147,1665,1043,-0.6495361328125,0.1387939453125,-0.262451171875
14.709,306,3147,1640,1064,-0.65576171875,0.173828125,-0.23779296875
14.723,306,3147,1622,1243,-0.6771240234375,0.16552734375,-0.2132568359375
14.731,306,3147,1616,1413,-0.717529296875,0.1041259765625,-0.2059326171875
14.739,306,3147,1607,1540,-0.7784423828125,0.0552978515625,-0.2374267578125
14.753,307,3147,1604,1800,-0.8250732421875,0.050048828125,-0.294189453125
14.768,306,3147,1653,1952,-0.801513671875,0.0738525390625,-0.337890625
14.769,296,3147,1669,2111,-0.801513671875,0.0738525390625,-0.337890625
14.792,306,3147,1770,2449,-0.64306640625,0.1331787109375,-0.3128662109375
14.793,299,3147,1815,2599,-0.6048583984375,0.122802734375,-0.2791748046875
14.825,313,3147,1853,2880,-0.6048583984375,0.122802734375,-0.2791748046875
14.825,316,3147,2113,3147,-0.550048828125,0.1702880859375,-0.2266845703125
14.825,321,3147,2261,3147,-0.524169921875,0.2265625,-0.154052734375
14.829,318,3147,2418,3147,-0.524169921875,0.2265625,-0.154052734375
14.843,324,3147,2679,3147,-0.5174560546875,-0.0234375,0.0440673828125
14.851,328,3147,2795,3147,-0.501953125,-0.216552734375,0.059326171875
14.874,332,3147,2927,3147,-0.501953125,-0.216552734375,0.059326171875
14.874,332,3147,3089,3147,-0.369384765625,-0.3358154296875,-0.0018310546875
14.889,336,3147,3147,3147,-0.4898681640625,-0.0145263671875,-0.141845703125
14.889,338,3147,3147,3147,-0.4898681640625,-0.0145263671875,-0.141845703125
14.904,415,3147,3147,3147,-1.25,0.8681640625,-0.661376953125
14.917,466,3147,3147,3147,-1.755126953125,0.71533203125,-0.68603515625
14.919,497,3147,3147,3147,-1.755126953125,0.71533203125,-0.68603515625
14.933,485,3147,3147,3147,-2.238037109375,0.194580078125,-0.596435546875
14.941,418,3147,3147,3147,-2.082763671875,0.0244140625,-0.7088623046875
14.949,385,3147,3147,3147,-2.082763671875,0.0244140625,-0.7088623046875
14.970,401,3147,3147,3147,-1.0560302734375,0.000732421875,-1.0177001953125
14.978,437,3147,3147,3147,-0.992919921875,0.1993408203125,-0.9534912109375
14.979,445,3147,3147,3147,-0.992919921875,0.1993408203125,-0.9534912109375
14.997,430,3147,3147,3147,-1.562744140625,0.3145751953125,-0.4403076171875
15.007,411,3147,3147,3147,-1.562744140625,0.3145751953125,-0.4403076171875
15.009,383,3147,3147,3147,-1.5777587890625,0.26806640625,-0.352294921875
15.024,342,3147,3147,3147,-1.2021484375,0.1707763671875,-0.37890625
15.031,338,3147,3147,3147,-1.2021484375,0.1707763671875,-0.37890625
15.040,336,3147,3110,3147,-1.064453125,0.1142578125,-0.3353271484375
15.053,334,3147,2951,3147,-0.9512939453125,0.0374755859375,-0.2021484375
15.061,332,3147,2859,3147,-0.9512939453125,0.0374755859375,-0.2021484375
15.074,330,3147,2756,3147,-0.89111328125,0.1041259765625,-0.294677734375
15.091,328,3147,2579,3147,-0.8577880859375,0.1806640625,-0.5130615234375
15.091,324,3147,2424,3147,-0.8577880859375,0.1806640625,-0.5130615234375
15.110,323,3147,2350,3147,-0.8707275390625,0.149169921875,-0.5186767578125
15.114,321,3147,2161,2899,-0.8228759765625,0.02392578125,-0.412353515625
15.121,316,3147,2037,2484,-0.8228759765625,0.02392578125,-0.412353515625
15.129,315,3147,1900,2008,-0.7781982421875,-0.06787109375,-0.3450927734375
15.143,310,3147,1704,1271,-0.644287109375,-0.1053466796875,-0.2786865234375
15.151,304,3147,1604,755,-0.644287109375,-0.1053466796875,-0.2786865234375
15.159,306,3147,1500,375,-0.6246337890625,-0.034912109375,-0.292236328125
15.177,304,2758,1375,371,-0.54931640625,0.1192626953125,-0.293701171875
15.181,306,2671,1333,374,-0.54931640625,0.1192626953125,-0.293701171875
15.194,305,2621,1348,371,-0.50537109375,0.2103271484375,-0.213134765625
15.203,304,3086,1363,374,-0.502197265625,0.262451171875,-0.1314697265625
15.214,304,3147,1369,519,-0.5247802734375,0.2469482421875,-0.09130859375
15.221,306,3147,1386,765,-0.556396484375,0.177978515625,-0.09423828125
15.237,306,3147,1434,1173,-0.6182861328125,0.136474609375,-0.1468505859375
15.241,306,3147,1492,1483,-0.6771240234375,0.13916015625,-0.20361328125
15.249,307,3147,1599,1730,-0.69775390625,0.1390380859375,-0.240478515625
15.263,310,3147,1727,2261,-0.6842041015625,0.1265869140625,-0.2593994140625
15.280,310,3147,1790,2601,-0.6695556640625,0.123046875,-0.2589111328125
15.280,315,3147,1955,2888,-0.626220703125,0.1195068359375,-0.2432861328125
15.297,321,3147,2314,3147,-0.483642578125,0.0711669921875,-0.1632080078125
15.302,322,3147,2514,3147,-0.3369140625,0.04296875,-0.0555419921875
15.322,323,3147,2695,3147,-0.2542724609375,0.07177734375,-0.0023193359375
15.323,328,3147,2874,3147,-0.2705078125,0.0587158203125,-0.06494140625
15.332,330,3147,3017,3147,-0.3905029296875,-0.069580078125,-0.2640380859375
15.344,332,3147,3120,3147,-0.529541015625,-0.25048828125,-0.4500732421875
15.353,336,3147,3147,3147,-0.7515869140625,-0.1953125,-0.55908203125
15.362,385,3147,3147,3147,-1.0390625,0.184326171875,-0.6201171875
15.369,426,3147,3147,3147,-1.3577880859375,0.6207275390625,-0.686279296875
15.383,537,3147,3147,3147,-1.6759033203125,0.8673095703125,-0.6690673828125
15.391,566,3147,3147,3147,-1.9769287109375,0.7938232421875,-0.4920654296875
15.412,546,3147,3147,3147,-2.2239990234375,0.5345458984375,-0.3458251953125
15.416,409,3147,3147,3147,-2.1566162109375,0.19921875,-0.40185546875
15.427,404,3147,3147,3147,-1.5877685546875,-0.20751953125,-0.62060546875
15.429,431,3147,3147,3147,-1.0048828125,-0.35400390625,-0.7633056640625
15.453,470,3147,3147,3147,-1.0596923828125,-0.107177734375,-0.6884765625
15.453,473,3147,3147,3147,-1.491455078125,0.151123046875,-0.4774169921875
15.460,455,3147,3147,3147,-1.7371826171875,0.19482421875,-0.3211669921875
15.474,381,3147,3147,3147,-1.6435546875,0.17822265625,-0.281494140625
15.484,337,3147,3147,3147,-1.3668212890625,0.201171875,-0.3043212890625
15.490,336,3147,3147,3147,-1.1448974609375,0.1807861328125,-0.352294921875
15.503,330,3147,2976,3147,-1.0391845703125,0.0670166015625,-0.369873046875
15.512,330,3147,2859,3147,-0.961669921875,-0.026611328125,-0.4168701171875
15.521,328,3147,2785,3147,-0.8662109375,0.009521484375,-0.5001220703125
15.540,327,3147,2611,3147,-0.7779541015625,0.093017578125,-0.5111083984375
15.541,310,3147,2494,3101,-0.7138671875,0.1297607421875,-0.46826171875
15.555,323,3147,2362,2837,-0.6597900390625,0.1170654296875,-0.424560546875
15.563,318,3147,2238,2514,-0.6158447265625,0.046142578125,-0.365966796875
15.571,321,3147,2141,2296,-0.619873046875,-0.0523681640625,-0.291015625
15.586,317,3147,2072,2130,-0.6693115234375,-0.0963134765625,-0.2445068359375
15.593,315,3147,1904,1830,-0.6983642578125,-0.0618896484375,-0.2572021484375
15.604,310,3147,1847,1627,-0.6883544921875,0.033203125,-0.2987060546875
15.621,309,3147,1821,1447,-0.66796875,0.1339111328125,-0.3289794921875
15.623,308,3147,1781,1224,-0.648193359375,0.1728515625,-0.3228759765625
15.631,306,3147,1716,1137,-0.63232421875,0.157958984375,-0.28515625
15.639,306,3147,1689,1173,-0.641845703125,0.149169921875,-0.2615966796875
15.653,306,3147,1635,1157,-0.68798828125,0.17626953125,-0.2518310546875
15.661,306,3147,1623,1175,-0.747802734375,0.1815185546875,-0.2398681640625
15.669,306,3147,1624,1283,-0.785888671875,0.10791015625,-0.2349853515625
15.689,306,3147,1647,1533,-0.7933349609375,0.0206298828125,-0.2420654296875
15.691,308,3147,1681,1748,-0.78515625,0.00048828125,-0.26025390625
15.705,306,3147,1718,1927,-0.7596435546875,0.0302734375,-0.290771484375
15.713,308,3147,1773,2286,-0.71484375,0.0706787109375,-0.3238525390625
15.724,308,3147,1808,2440,-0.6885986328125,0.128662109375,-0.3336181640625
15.729,308,3147,1847,2676,-0.6605224609375,0.1895751953125,-0.3267822265625
15.743,315,3147,2024,3080,-0.5882568359375,0.1915283203125,-0.31298828125
15.751,318,3147,2225,3147,-0.5040283203125,0.12890625,-0.269287109375
15.772,322,3147,2417,3147,-0.36328125,0.0552978515625,-0.1795654296875
15.773,324,3147,2676,3147,-0.2353515625,-0.0211181640625,-0.10693359375
15.790,328,3147,2859,3147,-0.2781982421875,-0.1094970703125,-0.1353759765625
15.790,330,3147,2973,3147,-0.364990234375,-0.1253662109375,-0.18994140625
15.820,333,3147,3120,3147,-0.4300537109375,-0.0440673828125,-0.200927734375
15.823,336,3147,3147,3147,-0.6016845703125,0.064697265625,-0.15283203125
15.823,370,3147,3147,3147,-0.925537109375,0.2774658203125,-0.1358642578125
15.833,513,3147,3147,3147,-1.323486328125,0.6014404296875,-0.3323974609375
15.841,548,3147,3147,3147,-1.747802734375,0.714111328125,-0.5400390625
15.850,564,3147,3147,3147,-2.1339111328125,0.4820556640625,-0.5096435546875
15.863,454,3147,3147,3147,-2.28515625,0.175048828125,-0.3994140625
15.885,385,3147,3147,3147,-2.0213623046875,-0.09228515625,-0.4384765625
15.885,346,3147,3147,3147,-1.3433837890625,-0.2974853515625,-0.585205078125
15.893,342,3147,3147,3147,-0.865966796875,-0.1824951171875,-0.782470703125
15.901,354,3147,3147,3147,-0.9547119140625,0.1412353515625,-0.9429931640625
15.909,364,3147,3147,3147,-0.9547119140625,0.1412353515625,-0.9429931640625
15.930,362,3147,3147,3147,-1.5799560546875,0.33935546875,-0.6739501953125
15.931,338,3147,3147,3147,-1.617919921875,0.2142333984375,-0.50830078125
15.939,337,3147,3147,3147,-1.617919921875,0.2142333984375,-0.50830078125
15.953,336,3147,3135,3147,-1.18896484375,0.10595703125,-0.468505859375
15.961,332,3147,3071,3147,-1.0504150390625,0.1058349609375,-0.4423828125
15.969,331,3147,2973,3147,-1.0504150390625,0.1058349609375,-0.4423828125
15.999,330,3147,2820,3147,-0.8646240234375,0.06640625,-0.2525634765625
16.000,328,3147,2748,3147,-0.80712890625,0.1669921875,-0.3448486328125
16.000,328,3147,2612,3147,-0.80712890625,0.1669921875,-0.3448486328125
16.013,328,3147,2563,3147,-0.801025390625,0.1412353515625,-0.5306396484375
16.032,324,3147,2494,3147,-0.8355712890625,0.084716796875,-0.5145263671875
16.032,323,3147,2396,3147,-0.8355712890625,0.084716796875,-0.5145263671875
16.044,323,3147,2291,3147,-0.86279296875,-0.015869140625,-0.3988037109375
16.051,319,3147,2207,2932,-0.862060546875,-0.0792236328125,-0.3321533203125
16.059,318,3147,2138,2713,-0.862060546875,-0.0792236328125,-0.3321533203125
16.073,316,3147,1968,2249,-0.8345947265625,-0.049560546875,-0.29052734375
16.087,312,3147,1914,2047,-0.785888671875,0.024658203125,-0.3511962890625
16.090,310,3147,1853,1691,-0.785888671875,0.024658203125,-0.3511962890625
16.103,307,3147,1775,1189,-0.6572265625,0.1290283203125,-0.32763671875
16.112,306,3147,1730,906,-0.6572265625,0.1290283203125,-0.32763671875
16.124,306,3147,1665,739,-0.583984375,0.0836181640625,-0.260498046875
16.137,304,3147,1580,631,-0.566650390625,0.177978515625,-0.2611083984375
16.141,306,3147,1557,748,-0.566650390625,0.177978515625,-0.2611083984375
16.150,304,3147,1552,872,-0.60302734375,0.2841796875,-0.24365234375
16.163,304,3147,1588,1184,-0.679931640625,0.1778564453125,-0.21875
16.171,305,3147,1610,1387,-0.679931640625,0.1778564453125,-0.21875
16.179,306,3147,1613,1572,-0.72265625,0.0728759765625,-0.23291015625
16.208,306,3147,1701,1927,-0.74365234375,0.05126953125,-0.30126953125
16.208,305,3147,1757,2164,-0.74365234375,0.05126953125,-0.30126953125
16.218,308,3147,1800,2409,-0.70849609375,0.081787109375,-0.286376953125
16.229,313,3147,1854,2875,-0.63330078125,0.092529296875,-0.2496337890625
16.232,315,3147,1983,3147,-0.63330078125,0.092529296875,-0.2496337890625
16.240,316,3147,2161,3147,-0.5496826171875,0.1282958984375,-0.1927490234375
16.253,323,3147,2458,3147,-0.4326171875,0.17822265625,-0.1478271484375
16.261,324,3147,2638,3147,-0.4326171875,0.17822265625,-0.1478271484375
16.269,328,3147,2807,3147,-0.426513671875,0.1182861328125,-0.2154541015625
16.284,329,3147,3034,3147,-0.2154541015625,-0.3970947265625,-0.239013671875
16.291,332,3147,3143,3147,-0.2154541015625,-0.3970947265625,-0.239013671875
16.309,336,3147,3147,3147,-0.185302734375,-0.501708984375,-0.277099609375
16.313,411,3147,3147,3147,-0.9425048828125,0.6214599609375,-0.8265380859375
16.335,500,3147,3147,3147,-0.9425048828125,0.6214599609375,-0.8265380859375
