time,compression0,compression1,compression2,compression3,accel_x,accel_y,accel_z
0.000,324,3147,1755,2028,-0.833740234375,0.5369873046875,-0.0648193359375
0.014,328,3147,1755,1996,-0.833740234375,0.5369873046875,-0.0648193359375
0.016,328,3147,1748,1918,-0.8365478515625,0.5404052734375,-0.06884765625
0.030,327,3147,1745,1828,-0.8388671875,0.53125,-0.077392578125
0.050,327,3147,1739,1774,-0.8388671875,0.53125,-0.077392578125
0.050,324,3147,1739,1718,-0.840576171875,0.52392578125,-0.0743408203125
0.060,324,3147,1739,1653,-0.832763671875,0.51171875,-0.0699462890625
0.070,324,3147,1730,1636,-0.832763671875,0.51171875,-0.0699462890625
0.076,324,3147,1730,1624,-0.827880859375,0.5076904296875,-0.0657958984375
0.090,324,3147,1730,1607,-0.825439453125,0.509521484375,-0.062255859375
0.100,323,3147,1730,1592,-0.8270263671875,0.519287109375,-0.059814453125
0.106,323,3147,1732,1588,-0.8336181640625,0.53173828125,-0.0614013671875
0.120,321,3147,1730,1577,-0.8369140625,0.533447265625,-0.0682373046875
0.132,323,3147,1730,1557,-0.837646484375,0.5223388671875,-0.0706787109375
0.153,324,3147,1727,1573,-0.83837890625,0.505859375,-0.068359375
0.153,323,3147,1718,1613,-0.8369140625,0.4901123046875,-0.06689453125
0.158,323,3147,1715,1627,-0.8365478515625,0.4791259765625,-0.0660400390625
0.166,321,3147,1704,1632,-0.8419189453125,0.4698486328125,-0.0687255859375
0.180,321,3147,1669,1627,-0.85595703125,0.4556884765625,-0.0755615234375
0.195,321,3147,1653,1635,-0.8690185546875,0.4278564453125,-0.076416015625
0.196,321,3147,1628,1629,-0.8656005859375,0.4017333984375,-0.06591796875
0.221,319,3147,1615,1666,-0.850830078125,0.413818359375,-0.0338134765625
0.221,304,3147,1629,1703,-0.8253173828125,0.4439697265625,0.0062255859375
0.226,318,3147,1640,1748,-0.7911376953125,0.4478759765625,0.035888671875
0.254,318,3147,1667,1897,-0.7418212890625,0.4249267578125,0.0491943359375
0.254,321,3147,1700,2000,-0.66845703125,0.416259765625,0.0377197265625
0.256,319,3147,1779,2050,-0.6246337890625,0.4405517578125,0.0194091796875
0.270,316,3147,1854,2215,-0.55712890625,0.3802490234375,-0.019775390625
0.279,323,3147,1894,2293,-0.3677978515625,0.181884765625,-0.047119140625
0.286,319,3147,1894,2419,-0.158935546875,0.0325927734375,0.005859375
0.302,328,3147,1973,2692,-0.0489501953125,0.0828857421875,0.0689697265625
0.310,332,3147,2039,2949,-0.0416259765625,0.32861328125,0.0894775390625
0.327,338,3147,2058,3137,-0.1572265625,0.6397705078125,0.1029052734375
0.331,348,3147,2135,3147,-0.4732666015625,0.892822265625,0.1051025390625
0.351,351,3147,2188,3147,-0.9698486328125,1.13818359375,0.0465087890625
0.351,361,3147,2296,3147,-1.4962158203125,1.3397216796875,-0.0911865234375
0.360,371,3147,2359,3147,-1.921875,1.2908935546875,-0.271728515625
0.370,371,3147,2435,3147,-2.1353759765625,1.019775390625,-0.3934326171875
0.376,365,3147,2397,3147,-1.8546142578125,0.608642578125,-0.32958984375
0.390,362,3147,2364,3147,-1.23388671875,0.3463134765625,-0.085205078125
0.398,359,3147,2334,3147,-0.831298828125,0.520751953125,0.0888671875
0.411,354,3147,2328,3147,-0.73681640625,0.8297119140625,0.027587890625
0.423,356,3147,2284,3147,-0.8702392578125,1.073974609375,-0.1014404296875
0.430,359,3147,2209,3147,-1.171630859375,1.2232666015625,-0.208740234375
0.439,354,3147,2128,3147,-1.405517578125,1.155517578125,-0.2498779296875
0.452,345,3147,2093,3147,-1.3909912109375,0.884033203125,-0.147216796875
0.459,334,3147,2054,3147,-1.17431640625,0.5655517578125,0.0216064453125
0.466,334,3147,2054,3089,-0.8939208984375,0.387451171875,0.148193359375
0.480,328,3147,2049,2695,-0.665771484375,0.394287109375,0.1817626953125
0.490,324,3147,2012,2394,-0.5738525390625,0.4571533203125,0.116455078125
0.496,324,3147,1948,2076,-0.6201171875,0.475341796875,-0.0155029296875
0.515,317,3147,1850,1662,-0.6903076171875,0.4437255859375,-0.1083984375
0.527,321,3147,1813,1399,-0.717041015625,0.37841796875,-0.1072998046875
0.528,319,3147,1815,1215,-0.74169921875,0.2967529296875,-0.0924072265625
0.543,317,3147,1739,691,-0.7764892578125,0.2252197265625,-0.093994140625
0.553,318,3147,1739,356,-0.794921875,0.200439453125,-0.085205078125
0.564,313,2916,1572,344,-0.7879638671875,0.2535400390625,-0.0758056640625
0.570,317,2203,1476,344,-0.7659912109375,0.3704833984375,-0.077880859375
0.579,315,1743,1411,324,-0.75,0.4844970703125,-0.094482421875
0.586,315,1231,1362,330,-0.7474365234375,0.549072265625,-0.111572265625
0.600,313,816,1303,334,-0.755126953125,0.5526123046875,-0.1112060546875
0.610,314,806,1278,334,-0.757568359375,0.4996337890625,-0.0849609375
0.628,313,815,1278,332,-0.745849609375,0.4205322265625,-0.04443359375
0.631,314,774,1255,330,-0.7418212890625,0.364013671875,-0.0152587890625
0.639,314,790,1253,330,-0.7479248046875,0.3614501953125,0.0001220703125
0.668,313,790,1262,332,-0.744873046875,0.3743896484375,-0.0020751953125
0.670,315,872,1263,332,-0.7261962890625,0.35546875,-0.01416015625
0.671,313,897,1274,308,-0.6954345703125,0.3143310546875,-0.0152587890625
0.676,314,890,1287,336,-0.646240234375,0.279296875,-0.0059814453125
0.690,313,1160,1318,330,-0.58251953125,0.2630615234375,0.0086669921875
0.703,314,1762,1365,344,-0.527587890625,0.248779296875,0.03857421875
0.706,315,2448,1434,334,-0.484619140625,0.2393798828125,0.0728759765625
0.737,319,3147,1624,651,-0.4354248046875,0.253173828125,0.1044921875
0.737,323,3147,1640,1081,-0.3472900390625,0.2431640625,0.1182861328125
0.737,318,3147,1695,1487,-0.1917724609375,0.2159423828125,0.0740966796875
0.767,323,3147,1757,2128,0.0172119140625,0.237548828125,-0.0244140625
0.767,327,3147,1848,2527,0.1435546875,0.3377685546875,-0.0899658203125
0.767,333,3147,1904,2822,0.1435546875,0.3377685546875,-0.0899658203125
0.781,353,3147,2048,3147,-0.3497314453125,0.7960205078125,0.0203857421875
0.790,360,3147,2228,3147,-1.01806640625,1.1329345703125,0.005859375
0.796,371,3147,2284,3147,-1.01806640625,1.1329345703125,0.005859375
0.810,382,3147,2388,3147,-2.4725341796875,1.2486572265625,-0.3665771484375
0.819,382,3147,2430,3147,-2.77880859375,0.928955078125,-0.4718017578125
0.840,383,3147,2449,3147,-2.77880859375,0.928955078125,-0.4718017578125
0.843,375,3147,2444,3147,-1.3634033203125,0.01318359375,0.0223388671875
0.862,375,3147,2392,3147,-0.7301025390625,0.2686767578125,0.31494140625
0.862,370,3147,2372,3147,-0.7301025390625,0.2686767578125,0.31494140625
0.871,360,3147,2350,3147,-0.9400634765625,1.243408203125,-0.089111328125
0.880,371,3147,2249,3147,-1.4002685546875,1.412109375,-0.3197021484375
0.888,364,3147,2192,3147,-1.4002685546875,1.412109375,-0.3197021484375
0.895,361,3147,2114,3147,-1.6751708984375,1.18310546875,-0.4091796875
0.909,351,3147,2030,2936,-1.362060546875,0.4844970703125,-0.1412353515625
0.917,338,3147,2074,2417,-1.362060546875,0.4844970703125,-0.1412353515625
0.925,333,3147,2024,2072,-1.0423583984375,0.331787109375,0.0496826171875
0.941,326,3147,1970,1280,-0.6339111328125,0.20849609375,0.173583984375
0.973,323,3147,1941,732,-0.6339111328125,0.20849609375,0.173583984375
0.974,321,3099,1936,344,-0.62451171875,0.2501220703125,0.073486328125
0.974,317,1931,1905,338,-0.6634521484375,0.2591552734375,-0.0367431640625
0.977,315,1278,1773,336,-0.6634521484375,0.2591552734375,-0.0367431640625
1.002,310,846,1611,332,-0.651123046875,0.1422119140625,-0.1505126953125
1.014,309,749,1243,328,-0.662353515625,0.12890625,-0.2027587890625
1.022,312,685,1117,323,-0.662353515625,0.12890625,-0.2027587890625
1.033,310,654,1038,327,-0.7177734375,0.2578125,-0.1612548828125
1.037,309,679,936,327,-0.631103515625,0.3643798828125,-0.1553955078125
1.038,294,704,906,327,-0.631103515625,0.3643798828125,-0.1553955078125
1.048,304,713,920,330,-0.6077880859375,0.380859375,-0.13427734375
1.071,308,721,933,328,-0.6419677734375,0.45068359375,-0.063720703125
1.072,310,706,887,324,-0.6419677734375,0.45068359375,-0.063720703125
1.075,310,721,918,330,-0.648681640625,0.4942626953125,-0.0380859375
1.089,310,721,922,328,-0.6602783203125,0.5283203125,-0.01171875
1.099,309,761,960,328,-0.672607421875,0.5338134765625,0.010498046875
1.105,311,784,1004,330,-0.655517578125,0.5107421875,0.004638671875
1.119,310,840,1138,332,-0.6180419921875,0.4676513671875,-0.038818359375
1.127,312,1012,1184,327,-0.5838623046875,0.401611328125,-0.1009521484375
1.140,315,1236,1204,338,-0.5687255859375,0.3665771484375,-0.15234375
1.159,316,1927,1279,336,-0.5809326171875,0.3851318359375,-0.17822265625
1.159,317,2555,1359,336,-0.606201171875,0.4365234375,-0.1697998046875
1.177,316,2992,1406,346,-0.62548828125,0.490234375,-0.1160888671875
1.180,327,3147,1569,788,-0.6241455078125,0.4822998046875,-0.0516357421875
1.187,323,3147,1494,1132,-0.6163330078125,0.4102783203125,0.01953125
1.195,323,3147,1413,1357,-0.5845947265625,0.3038330078125,0.080810546875
1.209,331,3147,1429,1824,-0.484375,0.2281494140625,0.073486328125
1.217,337,3147,1560,2139,-0.343017578125,0.2752685546875,0.0626220703125
1.226,346,3147,1659,2445,-0.25048828125,0.424560546875,0.12548828125
1.242,356,3147,1789,2909,-0.315185546875,0.5408935546875,0.225341796875
1.247,356,3147,1821,3098,-0.6044921875,0.547119140625,0.2686767578125
1.260,365,3147,1877,3147,-1.1033935546875,0.583740234375,0.139404296875
1.284,375,3147,1891,3147,-1.67236328125,0.7667236328125,-0.1536865234375
1.284,375,3147,1918,3147,-2.1180419921875,0.9490966796875,-0.452392578125
1.285,376,3147,1920,3147,-2.338623046875,0.999755859375,-0.5806884765625
1.299,371,3147,1954,3147,-2.072998046875,0.7720947265625,-0.4169921875
1.307,371,3147,1920,3147,-1.340576171875,0.4923095703125,0.0091552734375
1.315,369,3147,1904,3147,-0.7703857421875,0.623779296875,0.354248046875
1.329,364,3147,1878,3147,-0.6666259765625,1.00537109375,0.26171875
1.347,364,3147,1852,3147,-0.9996337890625,1.357666015625,-0.0738525390625
1.347,359,3147,1801,3147,-1.4705810546875,1.3763427734375,-0.3695068359375
1.383,354,3147,1652,2758,-1.6444091796875,0.9771728515625,-0.4776611328125
1.383,328,3147,1643,2428,-1.491943359375,0.5401611328125,-0.33935546875
1.383,338,3147,1643,2124,-1.1796875,0.3001708984375,-0.0928955078125
1.390,332,3147,1623,1447,-0.861083984375,0.234375,0.140380859375
1.397,328,3147,1624,739,-0.66015625,0.2218017578125,0.22607421875
1.405,328,3147,1610,359,-0.6124267578125,0.2470703125,0.189453125
1.419,324,2410,1580,359,-0.6319580078125,0.300048828125,0.1689453125
1.427,317,1894,1561,346,-0.6734619140625,0.314697265625,0.1204833984375
1.435,319,1483,1521,345,-0.731689453125,0.265625,-0.0076904296875
1.452,317,934,1462,327,-0.765625,0.1798095703125,-0.1192626953125
1.458,316,808,1416,336,-0.7442626953125,0.1324462890625,-0.142333984375
1.484,315,742,1319,310,-0.6856689453125,0.1746826171875,-0.1285400390625
1.484,313,653,1189,332,-0.6219482421875,0.3028564453125,-0.1270751953125
1.487,313,678,1160,336,-0.5806884765625,0.45458984375,-0.1142578125
1.496,313,680,1134,328,-0.598876953125,0.552001953125,-0.0828857421875
1.510,308,738,1145,330,-0.63232421875,0.57470703125,-0.0465087890625
1.518,314,708,1129,332,-0.6370849609375,0.55419921875,-0.0220947265625
1.526,313,749,1143,331,-0.63037109375,0.5052490234375,-0.0123291015625
1.540,313,737,1175,331,-0.6185302734375,0.4222412109375,-0.0106201171875
1.548,313,757,1236,334,-0.6124267578125,0.32958984375,-0.0216064453125
1.555,315,739,1278,330,-0.617919921875,0.2537841796875,-0.0406494140625
1.569,315,808,1387,329,-0.6336669921875,0.1981201171875,-0.0648193359375
1.589,313,902,1400,332,-0.65869140625,0.14990234375,-0.0919189453125
1.590,316,1074,1434,336,-0.6519775390625,0.113525390625,-0.1077880859375
1.600,318,2062,1480,345,-0.6156005859375,0.16796875,-0.0880126953125
1.608,318,2902,1498,346,-0.6053466796875,0.3245849609375,-0.02880859375
1.617,307,3147,1577,599,-0.6141357421875,0.46728515625,0.0048828125
1.629,323,3147,1584,1336,-0.6072998046875,0.525390625,0.029052734375
1.637,328,3147,1589,1700,-0.51904296875,0.4620361328125,0.09521484375
1.651,334,3147,1588,2032,-0.33984375,0.3067626953125,0.1063232421875
1.659,351,3147,1742,2568,-0.164306640625,0.2158203125,0.0845947265625
1.667,353,3147,1809,2813,-0.094482421875,0.29638671875,0.131591796875
1.692,361,3147,1838,3082,-0.26904296875,0.4976806640625,0.2193603515625
1.692,371,3147,1896,3147,-0.753662109375,0.7001953125,0.2261962890625
1.698,376,3147,1954,3147,-1.44580078125,0.880859375,0.017822265625
1.706,383,3147,2005,3147,-2.109130859375,0.986083984375,-0.31689453125
1.719,383,3147,2035,3147,-2.535400390625,0.940673828125,-0.548583984375
1.728,382,3147,2041,3147,-2.522705078125,0.7529296875,-0.5390625
1.735,378,3147,2021,3147,-1.8505859375,0.5108642578125,-0.2591552734375
1.755,375,3147,1968,3147,-0.996826171875,0.5894775390625,0.1734619140625
1.758,373,3147,1943,3147,-0.700439453125,0.9935302734375,0.3360595703125
1.765,374,3147,1905,3147,-1.0433349609375,1.3443603515625,0.156005859375
1.798,371,3147,1830,3147,-1.499755859375,1.3406982421875,-0.0672607421875
1.799,364,3147,1748,3147,-1.5679931640625,1.0247802734375,-0.173828125
1.799,363,3147,1652,3014,-1.5679931640625,1.0247802734375,-0.173828125
1.809,343,3147,1695,2296,-0.967529296875,0.451904296875,-0.056640625
1.817,343,3147,1687,1981,-0.7252197265625,0.24365234375,0.0782470703125
1.825,336,3147,1666,1582,-0.7252197265625,0.24365234375,0.0782470703125
1.839,330,3147,1650,617,-0.765625,0.1226806640625,0.0875244140625
1.848,327,3081,1622,361,-0.8419189453125,0.1734619140625,0.0621337890625
1.855,324,2519,1598,357,-0.8419189453125,0.1734619140625,0.0621337890625
1.872,323,1351,1529,338,-0.81591796875,0.109375,-0.0533447265625
1.907,321,947,1488,346,-0.7203369140625,0.072021484375,-0.0955810546875
1.908,319,774,1422,336,-0.7203369140625,0.072021484375,-0.0955810546875
1.908,316,654,1317,337,-0.5322265625,0.3179931640625,-0.036865234375
1.908,316,619,1253,334,-0.5,0.474365234375,-0.040283203125
1.916,315,654,1241,332,-0.5,0.474365234375,-0.040283203125
1.929,315,679,1254,333,-0.5299072265625,0.619140625,-0.0223388671875
1.937,316,720,1248,336,-0.5660400390625,0.625,0.0074462890625
1.945,316,738,1266,336,-0.5660400390625,0.625,0.0074462890625
1.959,314,683,1316,332,-0.6170654296875,0.5289306640625,-0.0157470703125
1.967,316,673,1340,336,-0.6402587890625,0.465576171875,-0.029052734375
1.989,316,661,1351,330,-0.6402587890625,0.465576171875,-0.029052734375
1.990,316,657,1404,332,-0.6707763671875,0.32666015625,-0.0283203125
2.007,314,698,1429,328,-0.695556640625,0.240478515625,-0.029541015625
2.007,316,895,1478,342,-0.695556640625,0.240478515625,-0.029541015625
2.021,318,1129,1533,338,-0.7161865234375,0.1588134765625,-0.024658203125
2.031,308,1552,1501,318,-0.7022705078125,0.1295166015625,-0.01611328125
2.038,321,2504,1546,347,-0.7022705078125,0.1295166015625,-0.01611328125
2.046,306,3147,1545,387,-0.662353515625,0.1265869140625,0.0076904296875
2.062,323,3147,1604,1125,-0.6181640625,0.464599609375,0.10546875
2.067,322,3147,1659,1497,-0.6181640625,0.464599609375,0.10546875
2.078,328,3147,1666,1912,-0.545654296875,0.5657958984375,0.1551513671875
2.089,342,3147,1624,2347,-0.242431640625,0.3968505859375,0.0150146484375
2.117,348,3147,1675,2630,-0.242431640625,0.3968505859375,0.0150146484375
2.117,338,3147,1766,2905,-0.220458984375,0.499267578125,-0.0181884765625
2.123,364,3147,1880,3147,-0.537841796875,0.6192626953125,0.056884765625
2.127,371,3147,1936,3147,-0.537841796875,0.6192626953125,0.056884765625
2.135,377,3147,1955,3147,-0.9619140625,0.641845703125,-0.010986328125
2.149,382,3147,1957,3147,-2.114013671875,0.96533203125,-0.412353515625
2.163,383,3147,1985,3147,-2.114013671875,0.96533203125,-0.412353515625
2.165,383,3147,1980,3147,-2.4293212890625,1.0184326171875,-0.5098876953125
2.184,378,3147,1959,3147,-1.4534912109375,0.528564453125,-0.064208984375
2.191,378,3147,1922,3147,-1.4534912109375,0.528564453125,-0.064208984375
2.205,378,3147,1914,3147,-0.8038330078125,0.605712890625,0.224365234375
2.209,376,3147,1869,3147,-0.96337890625,1.294921875,0.058837890625
2.217,375,3147,1821,3147,-0.96337890625,1.294921875,0.058837890625
2.225,373,3147,1757,3147,-1.4295654296875,1.3839111328125,-0.10205078125
2.241,364,3147,1648,3020,-1.6297607421875,1.034912109375,-0.1832275390625
2.247,359,3147,1650,2681,-1.4990234375,0.620361328125,-0.1466064453125
2.255,347,3147,1641,2333,-1.20361328125,0.3958740234375,-0.060791015625
2.269,334,3147,1624,1718,-0.8997802734375,0.3021240234375,0.0498046875
2.277,331,3147,1623,1038,-0.685791015625,0.2364501953125,0.1123046875
2.301,327,3147,1590,517,-0.6123046875,0.2288818359375,0.0987548828125
2.301,310,2400,1561,348,-0.6209716796875,0.28076171875,0.0986328125
2.307,321,1595,1546,347,-0.6558837890625,0.3131103515625,0.075439453125
2.315,319,1123,1524,346,-0.709228515625,0.3072509765625,-0.0335693359375
2.333,316,697,1447,338,-0.743408203125,0.2850341796875,-0.1322021484375
2.338,316,620,1411,338,-0.735107421875,0.277099609375,-0.1395263671875
2.345,316,600,1358,334,-0.71435546875,0.3282470703125,-0.0975341796875
2.359,315,628,1290,333,-0.6839599609375,0.3748779296875,-0.05322265625
2.367,313,642,1243,330,-0.6298828125,0.3465576171875,-0.021728515625
2.375,313,625,1222,334,-0.5758056640625,0.320556640625,-0.0040283203125
2.409,313,656,1225,336,-0.5234375,0.3406982421875,0.0174560546875
2.409,312,685,1236,332,-0.487060546875,0.3760986328125,0.046142578125
2.409,296,684,1243,334,-0.4820556640625,0.4019775390625,0.0751953125
2.419,315,695,1292,330,-0.490966796875,0.3984375,0.087890625
2.433,313,713,1334,332,-0.5084228515625,0.373779296875,0.083984375
2.436,313,698,1361,333,-0.5364990234375,0.3466796875,0.078369140625
2.449,315,871,1455,336,-0.5574951171875,0.302001953125,0.05810546875
2.458,315,1202,1497,344,-0.5740966796875,0.2362060546875,0.0040283203125
2.475,316,1637,1533,342,-0.6434326171875,0.2115478515625,-0.0552978515625
2.480,316,2944,1588,346,-0.7474365234375,0.274658203125,-0.088623046875
2.487,318,3147,1596,546,-0.83984375,0.44580078125,-0.0855712890625
2.510,321,3147,1676,1000,-0.8841552734375,0.5947265625,-0.03271484375
2.510,327,3147,1735,1745,-0.7940673828125,0.551513671875,0.0501708984375
2.518,328,3147,1803,2050,-0.6038818359375,0.3936767578125,0.1328125
2.525,334,3147,1815,2362,-0.43408203125,0.2734375,0.118896484375
2.539,347,3147,1855,2820,-0.32568359375,0.278076171875,0.05810546875
2.547,355,3147,1955,3128,-0.2784423828125,0.4083251953125,0.106201171875
2.555,359,3147,2010,3147,-0.3204345703125,0.5706787109375,0.2047119140625
2.582,371,3147,2065,3147,-0.54248046875,0.6754150390625,0.2236328125
2.582,371,3147,2061,3147,-1.001708984375,0.7637939453125,0.0885009765625
2.586,376,3147,2053,3147,-1.5916748046875,0.9100341796875,-0.1568603515625
2.610,378,3147,2032,3147,-2.11279296875,1.0321044921875,-0.3800048828125
2.610,378,3147,2026,3147,-2.381103515625,0.9971923828125,-0.453369140625
2.615,378,3147,2019,3147,-2.1085205078125,0.6641845703125,-0.3306884765625
2.629,371,3147,1953,3147,-1.341064453125,0.375732421875,-0.002685546875
2.659,370,3147,1929,3147,-0.6951904296875,0.5496826171875,0.2841796875
2.668,348,3147,1862,3147,-0.5345458984375,0.8648681640625,0.25341796875
2.676,360,3147,1766,3147,-0.82666015625,1.0225830078125,0.07275390625
2.681,356,3147,1768,3147,-1.307373046875,0.98681640625,-0.0810546875
2.683,347,3147,1766,3147,-1.5792236328125,0.768798828125,-0.177978515625
2.711,334,3147,1755,3147,-1.5313720703125,0.54052734375,-0.18896484375
2.712,327,3147,1739,2867,-1.299072265625,0.4561767578125,-0.1341552734375
2.712,329,3147,1746,2578,-1.012451171875,0.48291015625,-0.0233154296875
2.719,328,3147,1711,2037,-0.7633056640625,0.5166015625,0.0863037109375
2.727,324,3147,1700,1536,-0.6363525390625,0.50634765625,0.10400390625
2.736,323,3147,1687,1003,-0.656005859375,0.457763671875,0.0679931640625
2.750,321,3134,1655,347,-0.7208251953125,0.389404296875,0.0601806640625
2.757,319,2244,1627,347,-0.767822265625,0.2987060546875,0.02197265625
2.765,318,1755,1597,346,-0.7977294921875,0.2021484375,-0.074951171875
2.779,316,1022,1560,334,-0.7886962890625,0.1324462890625,-0.1346435546875
2.788,300,780,1516,338,-0.75830078125,0.11669921875,-0.1275634765625
2.815,315,714,1478,336,-0.7327880859375,0.163818359375,-0.087890625
2.816,299,579,1386,316,-0.710205078125,0.2579345703125,-0.053466796875
2.818,312,584,1357,316,-0.680908203125,0.374755859375,-0.0369873046875
2.827,313,594,1323,321,-0.6456298828125,0.4844970703125,-0.015869140625
2.841,313,604,1305,328,-0.6231689453125,0.5626220703125,0.0382080078125
2.849,313,636,1316,332,-0.6104736328125,0.5892333984375,0.1142578125
2.860,299,607,1330,330,-0.5849609375,0.5518798828125,0.1527099609375
2.870,314,620,1348,332,-0.555419921875,0.471923828125,0.130615234375
2.882,313,591,1336,325,-0.5400390625,0.3797607421875,0.0828857421875
2.887,314,606,1380,331,-0.541259765625,0.29736328125,0.0394287109375
2.921,312,815,1398,334,-0.542236328125,0.2589111328125,0.0028076171875
2.921,315,1078,1439,333,-0.5506591796875,0.2618408203125,-0.026123046875
2.921,315,1452,1450,337,-0.588134765625,0.2674560546875,-0.0323486328125
2.930,316,2749,1504,344,-0.6668701171875,0.2823486328125,-0.0072021484375
2.939,316,3147,1527,430,-0.7825927734375,0.3499755859375,0.0230712890625
2.947,316,3147,1531,968,-0.8560791015625,0.450927734375,0.03125
2.965,317,3147,1569,1608,-0.830810546875,0.5194091796875,0.0452880859375
2.969,316,3147,1656,1900,-0.7366943359375,0.5107421875,0.131103515625
2.984,321,3147,1744,2190,-0.5811767578125,0.34130859375,0.227783203125
2.990,323,3147,1826,2601,-0.4217529296875,0.1292724609375,0.170166015625
3.001,327,3147,1908,2919,-0.3326416015625,0.128173828125,0.087158203125
3.019,328,3147,1954,3146,-0.38671875,0.3311767578125,0.1038818359375
3.028,334,3147,1974,3147,-0.6363525390625,0.5908203125,0.0791015625
3.029,338,3147,1943,3147,-1.031494140625,0.8427734375,-0.0252685546875
3.036,344,3147,1908,3147,-1.031494140625,0.8427734375,-0.0252685546875
3.050,347,3147,1891,3147,-1.8651123046875,1.265380859375,-0.2249755859375
3.059,348,3147,1900,3147,-2.0635986328125,1.141845703125,-0.174072265625
3.071,342,3147,1931,3147,-2.0635986328125,1.141845703125,-0.174072265625
3.087,334,3147,1925,3147,-1.322021484375,0.28955078125,0.132080078125
3.089,332,3147,1848,3147,-0.8427734375,0.3359375,0.3232421875
3.096,328,3147,1815,3147,-0.8427734375,0.3359375,0.3232421875
3.125,328,3147,1803,3147,-0.800537109375,0.8314208984375,0.17626953125
3.125,327,3147,1775,3147,-1.1722412109375,0.8443603515625,-0.003662109375
3.127,315,3147,1774,2927,-1.1722412109375,0.8443603515625,-0.003662109375
3.141,321,3147,1744,2477,-1.75244140625,0.5985107421875,-0.32666015625
3.149,323,3147,1705,2170,-1.6009521484375,0.4154052734375,-0.2669677734375
3.156,321,3147,1643,1897,-1.6009521484375,0.4154052734375,-0.2669677734375
3.186,318,3147,1588,1175,-0.962158203125,0.2593994140625,0.123291015625
3.187,317,3147,1569,603,-0.7099609375,0.35986328125,0.2412109375
3.188,318,2736,1540,338,-0.7099609375,0.35986328125,0.2412109375
3.203,315,1478,1447,336,-0.6114501953125,0.39599609375,0.2613525390625
3.224,315,1166,1404,345,-0.6717529296875,0.416259765625,0.1339111328125
3.224,313,714,1366,334,-0.6717529296875,0.416259765625,0.1339111328125
3.231,313,591,1264,328,-0.750244140625,0.4493408203125,-0.086669921875
3.238,310,598,1201,328,-0.6864013671875,0.2218017578125,-0.140625
3.246,310,648,1109,330,-0.6864013671875,0.2218017578125,-0.140625
3.260,310,659,978,328,-0.60302734375,-0.0306396484375,-0.0875244140625
3.269,308,658,978,330,-0.60302734375,-0.0306396484375,-0.0875244140625
3.292,310,656,962,330,-0.5621337890625,0.0823974609375,0.002685546875
3.292,312,654,976,328,-0.516357421875,0.3221435546875,0.09619140625
3.298,309,631,1026,329,-0.516357421875,0.3221435546875,0.09619140625
3.309,310,666,1078,328,-0.5517578125,0.3714599609375,0.137451171875
3.328,312,694,1184,329,-0.5924072265625,0.3741455078125,0.169677734375
3.329,310,679,1225,305,-0.5924072265625,0.3741455078125,0.169677734375
3.336,313,745,1264,332,-0.580810546875,0.281005859375,0.1605224609375
3.350,313,1188,1370,346,-0.5556640625,0.2193603515625,0.1092529296875
3.358,315,1974,1415,334,-0.5556640625,0.2193603515625,0.1092529296875
3.367,313,2912,1445,338,-0.546142578125,0.297119140625,0.09375
3.381,316,3147,1604,865,-0.69287109375,0.491455078125,0.083740234375
3.397,316,3147,1806,1373,-0.69287109375,0.491455078125,0.083740234375
3.397,323,3147,1881,1806,-0.69775390625,0.4351806640625,0.133544921875
3.410,318,3147,2068,2260,-0.2359619140625,0.17724609375,-0.03564453125
3.430,328,3147,2076,2630,-0.2359619140625,0.17724609375,-0.03564453125
3.430,330,3147,2190,2944,-0.25,0.3841552734375,-0.21923828125
3.440,338,3147,2321,3147,-0.7481689453125,0.6632080078125,0.077880859375
3.449,348,3147,2395,3147,-0.7481689453125,0.6632080078125,0.077880859375
3.456,353,3147,2447,3147,-1.1676025390625,0.7186279296875,0.2115478515625
3.470,364,3147,2514,3147,-1.610595703125,0.84619140625,0.20068359375
3.479,363,3147,2538,3147,-2.00830078125,0.8846435546875,0.073974609375
3.500,363,3147,2576,3147,-2.2724609375,0.75439453125,-0.0791015625
3.502,360,3147,2557,3147,-2.1849365234375,0.5887451171875,-0.1494140625
3.510,356,3147,2514,3147,-1.55908203125,0.4869384765625,-0.030517578125
3.530,351,3147,2484,3147,-0.8448486328125,0.580810546875,0.2440185546875
3.531,338,3147,2479,3147,-0.5975341796875,0.748046875,0.355712890625
3.540,333,3147,2430,3147,-0.8138427734375,0.7978515625,0.1868896484375
3.546,337,3147,2361,3147,-1.3267822265625,0.843994140625,-0.0750732421875
3.560,332,3147,2263,3147,-1.7705078125,0.8353271484375,-0.322998046875
3.569,330,3147,2167,3127,-1.8087158203125,0.703857421875,-0.389404296875
3.576,328,3147,2063,2853,-1.5130615234375,0.5494384765625,-0.21337890625
3.608,324,3147,1989,2345,-1.11083984375,0.4532470703125,0.0640869140625
3.608,322,3147,1945,1994,-0.74169921875,0.4097900390625,0.2967529296875
3.608,318,3147,1904,1552,-0.5205078125,0.355712890625,0.369873046875
3.634,321,3147,1838,844,-0.51611328125,0.27734375,0.3104248046875
3.634,304,3147,1732,439,-0.6099853515625,0.1861572265625,0.223388671875
3.636,316,2854,1686,346,-0.7064208984375,0.1221923828125,0.0999755859375
3.651,315,1874,1575,334,-0.782958984375,0.0982666015625,-0.073486328125
3.659,312,1486,1504,344,-0.7998046875,0.0755615234375,-0.2235107421875
3.667,313,1234,1476,328,-0.7703857421875,0.048583984375,-0.27392578125
3.680,308,923,1374,334,-0.7318115234375,0.0655517578125,-0.2037353515625
3.689,313,814,1334,332,-0.69287109375,0.174072265625,-0.0689697265625
3.717,310,744,1287,327,-0.6214599609375,0.32080078125,0.0333251953125
3.725,299,840,1268,332,-0.5384521484375,0.445556640625,0.0640869140625
3.739,312,835,1241,332,-0.528564453125,0.557373046875,0.0828857421875
3.739,314,912,1313,332,-0.57275390625,0.654541015625,0.1234130859375
3.741,310,1117,1345,333,-0.6026611328125,0.678466796875,0.12841796875
3.749,313,1219,1398,336,-0.6285400390625,0.5631103515625,0.0699462890625
3.756,315,1382,1452,336,-0.674072265625,0.3665771484375,-0.015869140625
3.770,313,1961,1557,342,-0.68701171875,0.1851806640625,-0.0919189453125
3.779,316,2601,1711,344,-0.65185546875,0.0916748046875,-0.130859375
3.787,318,3098,1837,348,-0.6419677734375,0.1524658203125,-0.077392578125
3.803,319,3147,1999,907,-0.6591796875,0.2647705078125,0.0206298828125
3.839,321,3147,2007,1312,-0.63818359375,0.3399658203125,0.1092529296875
3.841,321,3147,2010,1681,-0.5101318359375,0.3330078125,0.222412109375
3.841,324,3147,1894,2167,-0.3209228515625,0.2828369140625,0.2713623046875
3.841,322,3147,1874,2347,-0.172607421875,0.3515625,0.2705078125
3.847,330,3147,1914,2532,-0.1143798828125,0.479248046875,0.27978515625
3.860,338,3147,1892,3064,-0.2137451171875,0.611328125,0.2158203125
3.869,344,3147,1843,3147,-0.5386962890625,0.8658447265625,0.069580078125
3.877,347,3147,1914,3147,-1.0447998046875,1.263916015625,-0.1234130859375
3.890,359,3147,1877,3147,-1.5731201171875,1.529541015625,-0.265625
3.906,359,3147,1820,3147,-2.068603515625,1.34326171875,-0.333251953125
3.907,338,3147,1744,3147,-2.47021484375,0.7479248046875,-0.3433837890625
3.923,347,3147,1715,3147,-2.3770751953125,-0.128173828125,-0.1729736328125
3.942,344,3147,1705,3147,-1.734619140625,-0.724365234375,0.222900390625
3.942,338,3147,1709,3147,-1.16064453125,-0.5234375,0.5416259765625
3.951,336,3147,1687,3147,-1.0701904296875,0.197021484375,0.5272216796875
3.959,334,3147,1666,3147,-1.3736572265625,0.8807373046875,0.1895751953125
3.967,332,3147,1653,3120,-1.6678466796875,1.0894775390625,-0.2061767578125
3.980,328,3147,1602,2808,-1.6512451171875,0.9127197265625,-0.33837890625
3.988,324,3147,1577,2504,-1.3756103515625,0.6873779296875,-0.2310791015625
3.997,324,3147,1557,2131,-1.02685546875,0.4677734375,-0.028564453125
4.010,321,3147,1534,1323,-0.761474609375,0.2403564453125,0.1246337890625
4.019,321,3147,1518,539,-0.6644287109375,0.166015625,0.1273193359375
4.045,318,3068,1494,348,-0.6988525390625,0.2760009765625,0.057861328125
4.045,316,2110,1434,344,-0.758056640625,0.3603515625,0.0294189453125
4.049,314,1862,1383,347,-0.77978515625,0.2882080078125,-0.00634765625
4.057,315,1527,1353,338,-0.757080078125,0.130615234375,-0.0865478515625
4.071,313,963,1276,336,-0.6907958984375,0.021484375,-0.1258544921875
4.079,313,759,1237,334,-0.5927734375,-0.0045166015625,-0.0716552734375
4.087,313,656,1172,328,-0.525634765625,0.02734375,0.0003662109375
4.100,313,694,1067,330,-0.520263671875,0.152587890625,0.033447265625
4.109,313,661,1041,328,-0.5341796875,0.33984375,0.04296875
4.117,307,710,1029,331,-0.5374755859375,0.484130859375,0.0421142578125
4.141,310,695,1069,334,-0.542724609375,0.5521240234375,0.03857421875
4.144,294,721,1107,328,-0.562744140625,0.5775146484375,0.053955078125
4.147,308,777,1130,332,-0.573486328125,0.5738525390625,0.062744140625
4.161,313,913,1166,330,-0.58251953125,0.53466796875,0.0322265625
4.169,310,1155,1178,329,-0.62255859375,0.4808349609375,-0.009765625
4.177,313,1540,1188,337,-0.62255859375,0.4808349609375,-0.009765625
4.191,305,2258,1201,334,-0.6961669921875,0.363525390625,-0.0953369140625
4.199,314,2645,1224,344,-0.7427978515625,0.3460693359375,-0.0877685546875
4.212,314,3137,1266,343,-0.7427978515625,0.3460693359375,-0.0877685546875
4.220,313,3147,1306,725,-0.8516845703125,0.3621826171875,-0.013427734375
4.251,315,3147,1330,1129,-0.8251953125,0.2701416015625,-0.025390625
4.251,316,3147,1312,1348,-0.8251953125,0.2701416015625,-0.025390625
4.252,316,3147,1377,1769,-0.680419921875,0.236572265625,0.0279541015625
4.260,316,3147,1428,1931,-0.5789794921875,0.2818603515625,0.0968017578125
4.268,323,3147,1483,2122,-0.5789794921875,0.2818603515625,0.0968017578125
4.276,327,3147,1524,2319,-0.513671875,0.2813720703125,0.156982421875
4.289,328,3147,1634,2734,-0.396728515625,0.3070068359375,0.3555908203125
4.298,333,3147,1733,2961,-0.396728515625,0.3070068359375,0.3555908203125
4.312,332,3147,1759,3147,-0.42626953125,0.381591796875,0.441162109375
4.320,338,3147,1877,3147,-0.93701171875,0.6339111328125,0.159912109375
4.328,348,3147,1908,3147,-0.93701171875,0.6339111328125,0.159912109375
4.346,355,3147,1949,3147,-1.3775634765625,0.892822265625,-0.13330078125
4.350,361,3147,1959,3147,-2.077880859375,0.9793701171875,-0.5172119140625
4.358,361,3147,2000,3147,-2.077880859375,0.9793701171875,-0.5172119140625
4.366,360,3147,2082,3147,-2.1488037109375,0.7037353515625,-0.432861328125
4.381,356,3147,2080,3147,-1.099609375,0.1171875,0.31103515625
4.388,348,3147,2037,3147,-1.099609375,0.1171875,0.31103515625
4.395,347,3147,2049,3147,-0.7611083984375,0.574951171875,0.509033203125
4.419,343,3147,1900,3147,-1.225341796875,1.281494140625,-0.032470703125
4.419,338,3147,1785,3147,-1.225341796875,1.281494140625,-0.032470703125
4.426,336,3147,1801,3142,-1.7080078125,1.11083984375,-0.2962646484375
4.457,331,3147,1888,2749,-1.6014404296875,0.3592529296875,-0.1912841796875
4.457,328,3147,1861,2458,-1.6014404296875,0.3592529296875,-0.1912841796875
4.457,327,3147,1748,2142,-1.2113037109375,0.1834716796875,0.07958984375
4.470,322,3147,1627,1444,-0.6094970703125,0.24267578125,0.3809814453125
4.478,321,3147,1569,964,-0.6094970703125,0.24267578125,0.3809814453125
4.486,318,3147,1518,521,-0.5025634765625,0.3770751953125,0.31494140625
4.500,316,2275,1476,344,-0.55029296875,0.444091796875,0.2044677734375
4.508,316,2010,1450,344,-0.68505859375,0.344970703125,0.052001953125
4.519,315,1819,1429,344,-0.7977294921875,0.14208984375,-0.1680908203125
4.530,315,1294,1357,332,-0.8028564453125,-0.0107421875,-0.307373046875
4.538,313,943,1289,338,-0.7225341796875,-0.005615234375,-0.2760009765625
4.563,312,800,1255,331,-0.6343994140625,0.0899658203125,-0.17529296875
4.564,308,630,1166,333,-0.5654296875,0.1651611328125,-0.0938720703125
4.568,308,625,1189,334,-0.52001953125,0.234619140625,-0.0205078125
4.575,310,728,1175,332,-0.4942626953125,0.354248046875,0.0740966796875
4.589,311,871,1219,332,-0.4779052734375,0.5155029296875,0.1629638671875
4.598,310,1014,1231,330,-0.4761962890625,0.6429443359375,0.1973876953125
4.606,310,1178,1264,331,-0.501708984375,0.6668701171875,0.16162109375
4.622,309,1848,1283,334,-0.5601806640625,0.5709228515625,0.07861328125
4.629,313,2233,1306,338,-0.59033203125,0.37353515625,-0.0152587890625
4.653,312,2820,1318,336,-0.5411376953125,0.1905517578125,-0.1195068359375
4.656,313,3147,1355,963,-0.493408203125,0.175537109375,-0.167724609375
4.658,314,3147,1433,1422,-0.5108642578125,0.3018798828125,-0.099853515625
4.669,316,3147,1501,1829,-0.559326171875,0.4615478515625,0.04052734375
4.680,318,3147,1800,2407,-0.524658203125,0.4991455078125,0.2193603515625
4.688,321,3147,1730,2652,-0.2176513671875,0.18505859375,0.3551025390625
4.696,328,3147,1669,2911,0.00830078125,-0.0606689453125,0.1763916015625
4.709,334,3147,1904,3147,-0.111572265625,0.177490234375,0.0416259765625
4.728,346,3147,1954,3147,-0.4884033203125,0.4342041015625,0.185791015625
4.728,356,3147,1914,3147,-1.095947265625,0.5042724609375,0.1824951171875
4.739,363,3147,1983,3147,-1.674072265625,0.6805419921875,-0.0277099609375
4.760,370,3147,1959,3147,-2.089111328125,1.015625,-0.2581787109375
4.760,371,3147,1983,3147,-2.354248046875,1.1929931640625,-0.4378662109375
4.778,364,3147,2087,3147,-2.3558349609375,0.9400634765625,-0.481201171875
4.778,369,3147,2087,3147,-1.79345703125,0.4263916015625,-0.1722412109375
4.786,363,3147,2078,3147,-0.9788818359375,0.3590087890625,0.38916015625
4.800,357,3147,2130,3147,-0.5721435546875,0.833984375,0.6212158203125
4.808,355,3147,2093,3147,-0.66162109375,1.165771484375,0.3292236328125
4.816,354,3147,2014,3147,-1.1702880859375,1.1558837890625,-0.0455322265625
4.832,346,3147,1918,3147,-1.7738037109375,0.9381103515625,-0.3465576171875
4.845,344,3147,1830,3147,-1.9886474609375,0.6717529296875,-0.4901123046875
4.846,338,3147,1775,3147,-1.790283203125,0.4849853515625,-0.3785400390625
4.862,328,3147,1770,2843,-1.3975830078125,0.383544921875,-0.14599609375
4.868,327,3147,1754,2461,-0.9722900390625,0.33349609375,0.0926513671875
4.882,323,3147,1741,2019,-0.61376953125,0.312744140625,0.2373046875
4.890,321,3147,1648,1074,-0.4124755859375,0.3363037109375,0.2271728515625
4.899,318,3147,1595,464,-0.3651123046875,0.337158203125,0.188720703125
4.906,318,2738,1497,348,-0.41552734375,0.254150390625,0.17138671875
4.929,316,1800,1441,334,-0.546630859375,0.128173828125,0.08056640625
4.929,315,1508,1400,336,-0.670654296875,0.02392578125,-0.0606689453125
4.947,312,1265,1331,331,-0.7132568359375,0.0035400390625,-0.16357421875
4.963,313,906,1278,329,-0.6925048828125,0.0703125,-0.1934814453125
4.963,315,808,1233,334,-0.6356201171875,0.1624755859375,-0.16357421875
4.967,310,759,1222,332,-0.5604248046875,0.2635498046875,-0.0985107421875
4.988,308,867,1206,328,-0.4945068359375,0.380126953125,-0.0322265625
4.989,298,1010,1225,325,-0.4560546875,0.5025634765625,0.0078125
5.004,313,1278,1255,327,-0.4571533203125,0.628662109375,0.0452880859375
5.011,314,1550,1297,332,-0.50244140625,0.699462890625,0.090087890625
5.020,313,1868,1280,332,-0.5826416015625,0.6551513671875,0.10107421875
5.033,306,2119,1308,340,-0.66455078125,0.5125732421875,0.051025390625
5.041,313,2788,1317,336,-0.700927734375,0.3328857421875,-0.027587890625
5.068,299,3106,1341,334,-0.7030029296875,0.1937255859375,-0.06298828125
5.068,315,3147,1372,708,-0.6866455078125,0.114501953125,-0.0306396484375
5.071,316,3147,1516,1533,-0.6368408203125,0.12353515625,0.01123046875
5.079,321,3147,1809,1877,-0.5784912109375,0.2403564453125,0.099853515625
5.087,323,3147,1943,2188,-0.3948974609375,0.2515869140625,0.2591552734375
5.101,337,3147,1929,2683,-0.0382080078125,0.0291748046875,0.2314453125
5.109,347,3147,1904,3024,0.057861328125,0.10546875,0.054443359375
5.117,347,3147,1959,3147,-0.12890625,0.48681640625,0.0972900390625
5.134,363,3147,2030,3147,-0.5145263671875,0.680908203125,0.198974609375
5.139,365,3147,2039,3147,-1.15283203125,0.751220703125,0.0440673828125
5.171,375,3147,2061,3147,-1.7421875,0.8746337890625,-0.2408447265625
5.172,378,3147,2118,3147,-2.1522216796875,1.07568359375,-0.44189453125
5.172,383,3147,2141,3147,-2.3070068359375,1.1619873046875,-0.539794921875
5.177,382,3147,2161,3147,-2.114501953125,1.00537109375,-0.454345703125
5.190,378,3147,2114,3147,-1.526123046875,0.6959228515625,-0.146484375
5.205,376,3147,2117,3147,-0.8907470703125,0.631591796875,0.180419921875
5.207,376,3147,2087,3147,-0.6492919921875,0.8619384765625,0.248046875
5.220,373,3147,2111,3147,-0.76318359375,0.9609375,0.0628662109375
5.236,373,3147,2105,3147,-1.172607421875,0.9300537109375,-0.109619140625
5.237,371,3147,2078,3147,-1.65869140625,0.853271484375,-0.2398681640625
5.267,369,3147,2058,3147,-1.8126220703125,0.689697265625,-0.2947998046875
5.268,363,3147,2056,3147,-1.5924072265625,0.5269775390625,-0.185546875
5.270,359,3147,1997,3147,-1.2142333984375,0.4224853515625,-0.0323486328125
5.282,344,3147,1927,3000,-0.8553466796875,0.4007568359375,0.089599609375
5.289,333,3147,1945,2654,-0.5888671875,0.4462890625,0.18212890625
5.297,329,3147,1908,2374,-0.5888671875,0.4462890625,0.18212890625
5.310,326,3147,1821,1632,-0.4927978515625,0.5313720703125,0.094970703125
5.319,323,3147,1774,1031,-0.6099853515625,0.437744140625,0.0567626953125
5.327,315,3147,1711,442,-0.6099853515625,0.437744140625,0.0567626953125
5.341,319,2557,1580,327,-0.76416015625,-0.0008544921875,-0.0836181640625
5.349,315,2367,1529,342,-0.7440185546875,-0.13037109375,-0.224609375
5.368,314,2280,1488,323,-0.7440185546875,-0.13037109375,-0.224609375
5.374,314,1967,1401,337,-0.668212890625,0.1435546875,-0.202880859375
5.380,313,1757,1386,343,-0.6785888671875,0.3310546875,-0.12646484375
5.387,314,1643,1321,334,-0.6785888671875,0.3310546875,-0.12646484375
5.401,313,1550,1283,334,-0.6156005859375,0.505615234375,0.02490234375
5.415,307,1592,1305,336,-0.5621337890625,0.5113525390625,0.07470703125
5.417,310,1735,1317,332,-0.5621337890625,0.5113525390625,0.07470703125
5.431,311,2049,1331,333,-0.5614013671875,0.5040283203125,0.03955078125
5.440,313,2290,1341,337,-0.6103515625,0.53173828125,-0.057861328125
5.447,315,2504,1355,337,-0.6103515625,0.53173828125,-0.057861328125
5.477,315,3042,1355,336,-0.703369140625,0.405517578125,-0.113525390625
5.477,315,3147,1357,377,-0.6939697265625,0.2738037109375,-0.1070556640625
5.478,315,3147,1340,675,-0.6939697265625,0.2738037109375,-0.1070556640625
5.491,316,3147,1496,1142,-0.68505859375,0.214599609375,-0.153564453125
5.499,317,3147,1641,1386,-0.6461181640625,0.2723388671875,-0.15869140625
5.507,321,3147,1806,1766,-0.6461181640625,0.2723388671875,-0.15869140625
5.520,327,3147,1948,2197,-0.3798828125,0.172119140625,0.201171875
5.529,336,3147,1941,2440,-0.3798828125,0.172119140625,0.201171875
5.544,346,3147,1920,2684,-0.2127685546875,0.07275390625,0.2794189453125
5.551,356,3147,2019,3147,-0.0714111328125,0.507568359375,0.3878173828125
5.559,361,3147,2008,3147,-0.0714111328125,0.507568359375,0.3878173828125
5.571,364,3147,2047,3147,-0.3458251953125,0.677734375,0.3109130859375
5.581,372,3147,2039,3147,-1.4677734375,0.93408203125,-0.1802978515625
5.590,376,3147,2019,3147,-1.4677734375,0.93408203125,-0.1802978515625
5.597,382,3147,2009,3147,-1.98974609375,1.0245361328125,-0.3916015625
5.611,378,3147,1989,3147,-2.3853759765625,0.743408203125,-0.557373046875
5.629,380,3147,2018,3147,-2.3853759765625,0.743408203125,-0.557373046875
5.629,375,3147,2019,3147,-1.859619140625,0.4302978515625,-0.331787109375
5.647,371,3147,2010,3147,-0.60498046875,0.883544921875,0.3079833984375
5.649,364,3147,2010,3147,-0.60498046875,0.883544921875,0.3079833984375
5.657,365,3147,1997,3147,-0.589111328125,1.148681640625,0.225341796875
5.685,361,3147,1941,3147,-1.4874267578125,0.973876953125,-0.060302734375
5.685,344,3147,1912,3147,-1.4874267578125,0.973876953125,-0.060302734375
5.687,353,3147,1850,3147,-1.7960205078125,0.681396484375,-0.248291015625
5.701,344,3147,1743,3120,-1.512451171875,0.39599609375,-0.211181640625
5.709,336,3147,1662,2692,-1.512451171875,0.39599609375,-0.211181640625
5.717,330,3147,1640,2225,-1.2303466796875,0.3773193359375,-0.09130859375
5.748,324,3147,1596,973,-0.9346923828125,0.344482421875,0.0479736328125
5.748,321,3147,1543,497,-0.670166015625,0.31396484375,0.1173095703125
5.749,304,3056,1545,344,-0.5289306640625,0.2734375,0.093994140625
5.765,316,1773,1471,338,-0.5377197265625,0.2220458984375,0.0732421875
5.779,315,1225,1382,328,-0.6158447265625,0.14404296875,0.041748046875
5.780,314,900,1318,313,-0.681396484375,0.1099853515625,-0.04833984375
5.791,311,666,1199,330,-0.683837890625,0.1690673828125,-0.1298828125
5.799,310,625,1224,330,-0.645751953125,0.25,-0.1832275390625
5.808,313,644,1201,330,-0.63427734375,0.2960205078125,-0.20751953125
5.821,311,687,1143,328,-0.6314697265625,0.2763671875,-0.196044921875
5.829,310,711,1178,336,-0.5863037109375,0.251220703125,-0.1654052734375
5.853,310,723,1175,330,-0.5123291015625,0.2802734375,-0.17041015625
5.854,296,714,1151,330,-0.4443359375,0.3519287109375,-0.1923828125
5.859,310,702,1129,328,-0.405517578125,0.42041015625,-0.1915283203125
5.880,310,720,1131,330,-0.3994140625,0.482421875,-0.142822265625
5.881,309,698,1163,324,-0.393798828125,0.5223388671875,-0.02783203125
5.891,309,707,1216,327,-0.3939208984375,0.5142822265625,0.1046142578125
5.897,310,1009,1253,332,-0.418212890625,0.535888671875,0.23974609375
5.910,313,2218,1348,334,-0.432373046875,0.6478271484375,0.3360595703125
5.919,315,2968,1393,342,-0.4593505859375,0.8363037109375,0.3101806640625
5.927,310,3147,1437,373,-0.5950927734375,1.0196533203125,0.202392578125
5.963,316,3147,1494,572,-0.8062744140625,0.9677734375,0.087646484375
5.967,318,3147,1529,803,-0.942138671875,0.6202392578125,-0.022216796875
5.967,321,3147,1540,1056,-0.9246826171875,0.2734375,-0.1063232421875
5.983,324,3147,1607,1544,-0.8135986328125,0.140380859375,-0.169677734375
5.984,328,3147,1677,1809,-0.747802734375,0.19970703125,-0.2196044921875
5.987,334,3147,1735,2054,-0.742919921875,0.27001953125,-0.163330078125
6.000,346,3147,1809,2467,-0.704833984375,0.21533203125,0.01220703125
6.009,351,3147,1819,2710,-0.59521484375,0.17724609375,0.1873779296875
6.017,354,3147,1860,2887,-0.4815673828125,0.28271484375,0.275390625
6.032,361,3147,1908,3126,-0.4959716796875,0.44677734375,0.1900634765625
6.039,369,3147,1931,3147,-0.7061767578125,0.6015625,-0.066650390625
6.061,371,3147,1961,3147,-1.0911865234375,0.8148193359375,-0.3797607421875
6.062,374,3147,1983,3147,-1.52978515625,1.069091796875,-0.6280517578125
6.070,375,3147,1987,3147,-1.8656005859375,1.174560546875,-0.7117919921875
6.085,375,3147,1978,3147,-2.0208740234375,1.0406494140625,-0.5982666015625
6.105,371,3147,1920,3147,-1.806640625,0.6802978515625,-0.307861328125
6.106,364,3147,1894,3103,-1.238525390625,0.4129638671875,0.093017578125
6.107,347,3147,1895,3010,-0.8232421875,0.586669921875,0.3382568359375
6.120,362,3147,1855,2560,-0.9232177734375,1.078369140625,0.249755859375
6.129,359,3147,1806,2275,-1.420654296875,1.406982421875,-0.033447265625
6.137,351,3147,1772,1966,-1.817138671875,1.1910400390625,-0.2886962890625
6.165,342,3147,1715,1393,-1.7633056640625,0.7078857421875,-0.3316650390625
6.165,334,3147,1624,968,-1.3936767578125,0.370849609375,-0.163330078125
6.168,328,3147,1624,509,-0.9691162109375,0.2451171875,0.052978515625
6.198,322,2748,1623,356,-0.657958984375,0.221923828125,0.1595458984375
6.198,300,2246,1597,349,-0.522705078125,0.2442626953125,0.1868896484375
6.198,300,1882,1545,342,-0.4757080078125,0.320068359375,0.2635498046875
6.211,315,1048,1443,336,-0.4490966796875,0.453369140625,0.28955078125
6.219,310,849,1393,328,-0.4632568359375,0.65185546875,0.2166748046875
6.227,308,711,1372,331,-0.4852294921875,0.751220703125,0.180419921875
6.241,310,748,1358,330,-0.4935302734375,0.5892333984375,0.1148681640625
6.249,310,793,1366,328,-0.5303955078125,0.3089599609375,-0.0472412109375
6.267,310,793,1359,333,-0.5693359375,0.1068115234375,-0.213623046875
6.271,310,858,1407,328,-0.533935546875,0.0186767578125,-0.3370361328125
6.279,310,864,1416,330,-0.4774169921875,-0.0172119140625,-0.4324951171875
6.300,310,841,1422,330,-0.48095703125,-0.0328369140625,-0.462890625
6.301,296,742,1415,327,-0.5244140625,0.014404296875,-0.397705078125
6.309,312,700,1416,329,-0.56787109375,0.108154296875,-0.291259765625
6.317,313,1067,1419,337,-0.605712890625,0.1685791015625,-0.171142578125
6.331,313,2128,1440,332,-0.6392822265625,0.17236328125,-0.0394287109375
6.340,315,2725,1462,344,-0.7252197265625,0.2142333984375,0.0731201171875
6.347,314,3147,1472,347,-0.8919677734375,0.3685302734375,0.15966796875
6.363,318,3147,1494,841,-0.9603271484375,0.4385986328125,0.1861572265625
6.373,318,3147,1501,1206,-0.795166015625,0.35205078125,0.15185546875
6.379,322,3147,1519,1490,-0.572509765625,0.3193359375,0.1251220703125
6.393,328,3147,1701,1999,-0.4940185546875,0.3759765625,0.1142578125
6.399,330,3147,1782,2314,-0.5067138671875,0.4029541015625,0.18603515625
6.408,338,3147,1826,2630,-0.507568359375,0.349609375,0.3515625
6.421,354,3147,1914,3062,-0.4803466796875,0.3133544921875,0.5203857421875
6.429,359,3147,1934,3147,-0.4521484375,0.4034423828125,0.575927734375
6.437,363,3147,1922,3147,-0.4521484375,0.4034423828125,0.575927734375
6.451,372,3147,1920,3147,-0.815673828125,0.77587890625,0.0965576171875
6.465,376,3147,1904,3147,-1.3516845703125,1.0035400390625,-0.294189453125
6.467,374,3147,1931,3147,-1.3516845703125,1.0035400390625,-0.294189453125
6.497,382,3147,1967,3147,-2.23779296875,1.2081298828125,-0.7425537109375
6.500,382,3147,1961,3147,-2.1563720703125,0.873779296875,-0.577880859375
6.500,382,3147,1943,3147,-2.1563720703125,0.873779296875,-0.577880859375
6.506,377,3147,1925,3147,-1.580322265625,0.3365478515625,-0.1578369140625
6.521,371,3147,1855,3147,-0.75146484375,0.643310546875,0.579345703125
6.527,364,3147,1847,3147,-0.75146484375,0.643310546875,0.579345703125
6.542,363,3147,1820,3147,-1.1881103515625,1.1190185546875,0.113037109375
6.549,361,3147,1785,3147,-1.7257080078125,1.0059814453125,-0.1639404296875
6.557,356,3147,1761,3061,-1.7257080078125,1.0059814453125,-0.1639404296875
6.571,344,3147,1662,2486,-1.698974609375,0.37939453125,-0.23974609375
6.587,334,3147,1575,2014,-1.325439453125,0.114013671875,-0.00048828125
6.587,328,3147,1562,1469,-1.325439453125,0.114013671875,-0.00048828125
6.604,322,3147,1568,360,-0.536376953125,0.063720703125,0.3929443359375
6.609,318,2736,1572,354,-0.34912109375,0.1361083984375,0.39306640625
6.617,318,2279,1534,348,-0.34912109375,0.1361083984375,0.39306640625
6.634,316,1231,1437,346,-0.5560302734375,0.3062744140625,0.1815185546875
6.639,314,963,1415,337,-0.6910400390625,0.374755859375,-0.07373046875
6.647,313,748,1366,322,-0.6910400390625,0.374755859375,-0.07373046875
6.661,311,679,1398,334,-0.76708984375,0.1949462890625,-0.3604736328125
6.671,313,673,1382,334,-0.76708984375,0.1949462890625,-0.3604736328125
6.677,310,669,1375,332,-0.7239990234375,0.0321044921875,-0.333251953125
6.709,310,666,1313,331,-0.5833740234375,0.100830078125,-0.1773681640625
6.710,311,671,1253,312,-0.5833740234375,0.100830078125,-0.1773681640625
6.710,308,669,1305,332,-0.5533447265625,0.3018798828125,-0.0355224609375
6.721,310,685,1323,332,-0.5145263671875,0.566650390625,0.2091064453125
6.729,310,704,1358,330,-0.5145263671875,0.566650390625,0.2091064453125
6.737,310,697,1386,332,-0.5142822265625,0.5340576171875,0.2423095703125
6.751,313,858,1437,333,-0.5491943359375,0.293701171875,0.1082763671875
6.758,313,1167,1445,336,-0.5491943359375,0.293701171875,0.1082763671875
6.772,313,1557,1478,338,-0.5860595703125,0.2257080078125,0.031494140625
6.780,315,2484,1527,345,-0.63330078125,0.3948974609375,0.033935546875
6.808,317,3006,1550,347,-0.63330078125,0.3948974609375,0.033935546875
6.808,304,3147,1572,564,-0.6385498046875,0.4290771484375,0.07177734375
6.811,328,3147,1695,1331,-0.4674072265625,0.3193359375,0.2471923828125
6.819,336,3147,1794,1681,-0.4674072265625,0.3193359375,0.2471923828125
6.827,338,3147,1850,2012,-0.278076171875,0.23583984375,0.400390625
6.841,356,3147,1921,2478,-0.039794921875,0.415283203125,0.40771484375
6.849,360,3147,1959,2753,-0.039794921875,0.415283203125,0.40771484375
6.858,364,3147,1996,3039,-0.303466796875,0.7154541015625,0.205078125
6.875,374,3147,2005,3147,-0.9189453125,0.9300537109375,-0.1591796875
6.879,382,3147,2028,3147,-1.68798828125,1.0618896484375,-0.54736328125
6.892,382,3147,2133,3147,-2.3411865234375,1.0736083984375,-0.782470703125
6.911,378,3147,2085,3147,-2.6912841796875,0.86376953125,-0.7176513671875
6.911,382,3147,2037,3147,-2.466552734375,0.4307861328125,-0.362060546875
6.917,378,3147,2035,3147,-1.59619140625,0.228515625,0.1422119140625
6.931,373,3147,2005,3147,-0.7718505859375,0.65576171875,0.4967041015625
6.941,371,3147,2005,3147,-0.52685546875,1.1356201171875,0.447998046875
6.947,371,3147,1993,3110,-0.81494140625,1.169677734375,0.2342529296875
6.961,371,3147,1927,2808,-1.390380859375,0.874267578125,0.0618896484375
6.979,363,3147,1905,2598,-1.779296875,0.4847412109375,-0.0872802734375
6.980,361,3147,1855,2445,-1.77490234375,0.24951171875,-0.1571044921875
7.012,348,3147,1719,1973,-1.52587890625,0.207275390625,-0.15380859375
7.013,338,3147,1666,1588,-1.1793212890625,0.2259521484375,-0.05810546875
7.014,332,3147,1653,1043,-0.8271484375,0.2628173828125,0.0772705078125
7.021,323,3147,1602,359,-0.54052734375,0.3697509765625,0.1611328125
7.030,321,2621,1575,348,-0.383056640625,0.4794921875,0.1988525390625
7.037,318,2065,1543,349,-0.4151611328125,0.519287109375,0.22607421875
7.051,316,1222,1509,334,-0.5726318359375,0.4649658203125,0.1680908203125
7.059,315,1117,1477,344,-0.7056884765625,0.345947265625,-0.0018310546875
7.066,314,899,1445,344,-0.750732421875,0.244384765625,-0.1363525390625
7.084,310,749,1393,332,-0.7427978515625,0.2095947265625,-0.154296875
7.089,309,775,1393,334,-0.7177734375,0.20361328125,-0.1072998046875
7.097,313,747,1381,336,-0.6751708984375,0.15966796875,-0.0732421875
7.126,310,766,1373,332,-0.629638671875,0.1336669921875,-0.064208984375
7.126,310,765,1377,332,-0.605224609375,0.2139892578125,-0.0379638671875
7.131,313,813,1386,313,-0.6033935546875,0.3643798828125,0.0263671875
7.141,312,829,1409,334,-0.60107421875,0.4456787109375,0.1038818359375
7.149,313,872,1428,334,-0.5823974609375,0.412109375,0.145751953125
7.157,310,872,1445,336,-0.572509765625,0.333740234375,0.12646484375
7.171,314,1278,1468,332,-0.605224609375,0.2728271484375,0.0601806640625
7.182,312,1627,1469,334,-0.6688232421875,0.2540283203125,-0.0338134765625
7.187,314,1922,1483,334,-0.737548828125,0.2869873046875,-0.1226806640625
7.229,315,2530,1500,316,-0.8038330078125,0.3624267578125,-0.1605224609375
7.229,314,2877,1519,321,-0.8653564453125,0.4310302734375,-0.1400146484375
7.229,315,3147,1527,391,-0.8839111328125,0.424072265625,-0.0621337890625
7.237,316,3147,1583,1225,-0.80322265625,0.355224609375,0.0587158203125
7.240,318,3147,1589,1602,-0.6256103515625,0.286376953125,0.1837158203125
7.247,323,3147,1602,1987,-0.355712890625,0.1630859375,0.2586669921875
7.261,336,3147,1781,2551,-0.0601806640625,0.0347900390625,0.2332763671875
7.269,344,3147,1874,2858,0.101318359375,0.11767578125,0.1822509765625
7.284,348,3147,1925,3147,0.068359375,0.419677734375,0.2095947265625
7.291,361,3147,1967,3147,-0.2454833984375,0.740234375,0.1912841796875
7.302,365,3147,2005,3147,-0.8743896484375,0.9874267578125,0.003662109375
7.320,373,3147,2028,3147,-1.623779296875,1.238525390625,-0.283935546875
7.321,376,3147,2119,3147,-2.2818603515625,1.396728515625,-0.5625
7.330,382,3147,2032,3147,-2.6966552734375,1.197265625,-0.6614990234375
7.337,378,3147,2032,3147,-2.5477294921875,0.4698486328125,-0.4512939453125
7.351,373,3147,2007,3147,-1.7138671875,-0.20654296875,0.050048828125
7.359,370,3147,1987,3147,-0.8760986328125,-0.02490234375,0.59619140625
7.367,370,3147,1999,3147,-0.6319580078125,0.6781005859375,0.7342529296875
7.387,364,3147,1974,3147,-0.9976806640625,1.244384765625,0.4482421875
7.389,359,3147,1948,3147,-1.5633544921875,1.29052734375,0.0147705078125
7.397,361,3147,1891,3147,-1.794189453125,0.8935546875,-0.2833251953125
7.414,354,3147,1753,2984,-1.6470947265625,0.5230712890625,-0.3011474609375
7.436,345,3147,1662,2587,-1.3336181640625,0.34619140625,-0.189208984375
7.439,330,3147,1660,2160,-0.9969482421875,0.2845458984375,-0.029541015625
7.441,322,3147,1589,1211,-0.70849609375,0.281005859375,0.0958251953125
7.449,321,3147,1548,683,-0.498779296875,0.2967529296875,0.1240234375
7.457,318,3147,1521,346,-0.427734375,0.297607421875,0.1181640625
7.471,316,2155,1477,344,-0.4952392578125,0.29345703125,0.1287841796875
7.479,315,1453,1447,338,-0.6072998046875,0.2149658203125,0.0645751953125
7.488,313,1160,1419,336,-0.696533203125,0.093505859375,-0.05126953125
7.501,313,922,1380,334,-0.7227783203125,0.0394287109375,-0.10791015625
7.543,311,737,1359,334,-0.693603515625,0.055419921875,-0.1282958984375
7.544,311,736,1326,332,-0.6412353515625,0.113525390625,-0.121337890625
7.545,313,800,1290,333,-0.592529296875,0.19482421875,-0.0723876953125
7.545,311,815,1278,316,-0.5623779296875,0.280029296875,-0.037109375
7.547,310,816,1289,332,-0.55078125,0.411865234375,-0.014404296875
7.561,310,822,1306,332,-0.556396484375,0.5794677734375,0.0472412109375
7.569,312,943,1328,338,-0.5821533203125,0.67626953125,0.10693359375
7.578,310,1070,1340,338,-0.5821533203125,0.67626953125,0.10693359375
7.591,313,1455,1372,332,-0.6683349609375,0.4842529296875,0.038330078125
7.599,312,1732,1382,333,-0.6796875,0.3203125,-0.05810546875
7.608,314,2087,1401,334,-0.6796875,0.3203125,-0.05810546875
7.622,313,2648,1433,334,-0.6851806640625,0.3621826171875,-0.107177734375
7.629,315,3147,1467,338,-0.7396240234375,0.473876953125,-0.09716796875
7.637,316,3147,1483,478,-0.7396240234375,0.473876953125,-0.09716796875
7.655,316,3147,1488,1097,-0.82958984375,0.4593505859375,0.0330810546875
7.660,318,3147,1506,1336,-0.6861572265625,0.2303466796875,0.1705322265625
7.668,324,3147,1534,1641,-0.6861572265625,0.2303466796875,0.1705322265625
7.681,334,3147,1715,2072,-0.2486572265625,-0.0103759765625,0.185546875
7.695,343,3147,1790,2357,-0.178955078125,0.2535400390625,0.2313232421875
7.697,330,3147,1837,2664,-0.178955078125,0.2535400390625,0.2313232421875
7.711,354,3147,1904,3053,-0.37060546875,0.6890869140625,0.2496337890625
7.722,359,3147,1936,3147,-0.69140625,0.872314453125,-0.0196533203125
7.728,364,3147,2004,3147,-0.69140625,0.872314453125,-0.0196533203125
7.741,371,3147,2000,3147,-1.6531982421875,1.58154296875,-0.401123046875
7.749,376,3147,1973,3147,-2.1600341796875,1.455322265625,-0.3748779296875
7.764,364,3147,1957,3147,-2.1600341796875,1.455322265625,-0.3748779296875
7.771,371,3147,1931,3147,-2.019287109375,-0.0269775390625,-0.1990966796875
7.779,369,3147,1920,3147,-2.019287109375,-0.0269775390625,-0.1990966796875
7.788,365,3147,1941,3147,-1.258056640625,-0.111083984375,0.0892333984375
7.801,365,3147,1935,3147,-1.0782470703125,0.9808349609375,0.2464599609375
7.812,363,3147,1943,3147,-1.0782470703125,0.9808349609375,0.2464599609375
7.829,362,3147,1912,3147,-1.4755859375,1.0850830078125,0.0615234375
7.833,356,3147,1790,3076,-1.5068359375,0.662841796875,-0.2237548828125
7.839,338,3147,1693,2698,-1.5068359375,0.662841796875,-0.2237548828125
7.847,334,3147,1602,2370,-1.210693359375,0.572998046875,-0.1729736328125
7.876,327,3147,1564,1660,-0.6552734375,0.39013671875,0.1375732421875
7.877,322,3147,1549,1074,-0.6552734375,0.39013671875,0.1375732421875
7.877,319,3147,1516,433,-0.5517578125,0.3070068359375,0.174072265625
7.899,316,2552,1450,342,-0.6014404296875,0.2513427734375,0.1265869140625
7.899,315,1900,1422,345,-0.6014404296875,0.2513427734375,0.1265869140625
7.907,315,1411,1411,338,-0.631591796875,0.1490478515625,0.0250244140625
7.937,313,927,1377,330,-0.6632080078125,0.0855712890625,-0.130126953125
7.937,313,860,1334,329,-0.6632080078125,0.0855712890625,-0.130126953125
7.938,313,853,1306,313,-0.599853515625,0.14404296875,-0.1441650390625
7.951,309,890,1268,330,-0.5426025390625,0.391845703125,-0.0958251953125
7.959,310,939,1266,334,-0.5426025390625,0.391845703125,-0.0958251953125
7.973,307,949,1255,332,-0.5516357421875,0.483642578125,-0.0484619140625
7.985,310,952,1266,332,-0.569091796875,0.679931640625,0.0050048828125
7.989,311,998,1294,333,-0.569091796875,0.679931640625,0.0050048828125
8.005,310,995,1310,332,-0.611083984375,0.67724609375,0.0526123046875
8.011,313,1201,1343,330,-0.6614990234375,0.5992431640625,0.060302734375
8.020,310,1415,1362,332,-0.69970703125,0.494873046875,0.0220947265625
8.031,310,1548,1370,331,-0.7177734375,0.3790283203125,-0.0496826171875
8.043,313,1902,1397,338,-0.7376708984375,0.2916259765625,-0.12548828125
8.049,314,2244,1413,344,-0.7789306640625,0.2410888671875,-0.1632080078125
8.057,313,2748,1445,342,-0.8114013671875,0.1873779296875,-0.1641845703125
8.076,315,3147,1488,646,-0.7786865234375,0.13916015625,-0.1517333984375
8.079,314,3147,1504,996,-0.70361328125,0.184326171875,-0.0933837890625
8.087,315,3147,1541,1395,-0.650146484375,0.3656005859375,0.0831298828125
8.105,323,3147,1590,1929,-0.5030517578125,0.436279296875,0.3155517578125
8.109,332,3147,1745,2233,-0.1981201171875,0.203125,0.3560791015625
8.119,337,3147,1834,2477,-0.0325927734375,0.1734619140625,0.187744140625
8.141,348,3147,1957,2884,-0.0325927734375,0.501953125,0.117919921875
8.141,359,3147,2019,3120,-0.1973876953125,0.757080078125,0.105712890625
8.147,361,3147,2063,3147,-0.673095703125,0.9344482421875,-0.0447998046875
8.161,371,3147,2058,3147,-1.3004150390625,1.140380859375,-0.2568359375
8.169,375,3147,2035,3147,-1.916259765625,1.220458984375,-0.384521484375
8.184,373,3147,2023,3147,-2.4324951171875,0.986083984375,-0.43212890625
8.191,373,3147,2057,3147,-2.589111328125,0.4002685546875,-0.385498046875
8.212,373,3147,2048,3147,-1.962646484375,-0.1287841796875,-0.1390380859375
8.212,371,3147,2039,3147,-1.0318603515625,0.0848388671875,0.3026123046875
8.222,364,3147,1994,3147,-0.582275390625,0.76513671875,0.5599365234375
8.236,364,3147,1996,3147,-0.58935546875,1.146728515625,0.447998046875
8.247,364,3147,1980,3147,-0.9390869140625,1.1632080078125,0.208251953125
8.251,357,3147,1929,3147,-1.4205322265625,1.0159912109375,-0.0936279296875
8.259,357,3147,1877,3144,-1.6396484375,0.8060302734375,-0.32763671875
8.267,354,3147,1817,2949,-1.52197265625,0.593505859375,-0.3768310546875
8.281,336,3147,1641,2418,-1.2493896484375,0.4239501953125,-0.2679443359375
8.290,329,3147,1629,2142,-0.94189453125,0.3399658203125,-0.0694580078125
8.297,327,3147,1623,1768,-0.6759033203125,0.366455078125,0.1016845703125
8.311,323,3147,1600,1050,-0.5406494140625,0.4207763671875,0.169189453125
8.327,321,3147,1588,725,-0.5517578125,0.39599609375,0.1824951171875
8.328,321,3147,1569,352,-0.6368408203125,0.3284912109375,0.1771240234375
8.343,317,2514,1529,347,-0.7305908203125,0.2489013671875,0.0902099609375
8.349,316,2195,1502,345,-0.7940673828125,0.1539306640625,-0.05419921875
8.357,316,1920,1476,345,-0.8077392578125,0.08837890625,-0.13525390625
8.371,315,1497,1434,337,-0.7801513671875,0.0731201171875,-0.1402587890625
8.379,313,1372,1428,337,-0.7261962890625,0.1207275390625,-0.1199951171875
8.387,314,1173,1415,338,-0.6717529296875,0.2376708984375,-0.0621337890625
8.401,314,1083,1384,334,-0.62255859375,0.390380859375,0.015869140625
8.412,310,1067,1390,336,-0.58154296875,0.5596923828125,0.0709228515625
8.417,313,1101,1395,336,-0.56884765625,0.709228515625,0.1102294921875
8.446,313,1231,1417,332,-0.593017578125,0.75,0.12255859375
8.446,317,1294,1433,333,-0.6373291015625,0.674072265625,0.08154296875
8.448,313,1411,1440,321,-0.6793212890625,0.5576171875,-0.0146484375
8.456,310,1629,1454,338,-0.7197265625,0.4427490234375,-0.1207275390625
8.470,314,1854,1474,336,-0.763671875,0.3326416015625,-0.193359375
8.478,315,1989,1490,336,-0.8028564453125,0.2445068359375,-0.210693359375
8.490,315,2070,1499,338,-0.819091796875,0.1868896484375,-0.17529296875
8.519,316,2657,1529,334,-0.7923583984375,0.1451416015625,-0.11767578125
8.519,315,3147,1499,361,-0.7271728515625,0.134521484375,-0.026611328125
8.519,316,3147,1547,780,-0.6337890625,0.185302734375,0.12353515625
8.530,319,3147,1607,1398,-0.46875,0.2196044921875,0.25244140625
8.552,327,3147,1648,1789,-0.2293701171875,0.1878662109375,0.2508544921875
8.554,331,3147,1800,2028,-0.0587158203125,0.253662109375,0.1624755859375
8.560,347,3147,1957,2489,-0.015625,0.455078125,0.1072998046875
8.568,354,3147,2030,2808,-0.081298828125,0.6385498046875,0.10693359375
8.576,360,3147,2074,3035,-0.081298828125,0.6385498046875,0.10693359375
8.590,364,3147,2152,3147,-0.94091796875,0.906005859375,0.03271484375
8.598,373,3147,2133,3147,-1.6177978515625,1.08203125,-0.0867919921875
8.615,376,3147,2172,3147,-1.6177978515625,1.08203125,-0.0867919921875
8.620,378,3147,2151,3147,-2.42578125,0.872802734375,-0.35498046875
8.629,376,3147,2104,3147,-2.3218994140625,0.4632568359375,-0.32373046875
8.651,375,3147,2065,3147,-2.3218994140625,0.4632568359375,-0.32373046875
8.651,371,3147,2026,3147,-0.96484375,0.140625,0.2586669921875
8.661,369,3147,2007,3147,-0.6934814453125,0.5091552734375,0.5059814453125
8.667,363,3147,2010,3147,-0.6934814453125,0.5091552734375,0.5059814453125
8.680,363,3147,2001,3147,-1.236083984375,0.94287109375,0.1845703125
8.688,361,3147,1983,3147,-1.654052734375,0.968505859375,-0.1492919921875
8.696,359,3147,1927,3147,-1.654052734375,0.968505859375,-0.1492919921875
8.722,348,3147,1809,2744,-1.4947509765625,0.5489501953125,-0.30615234375
8.723,344,3147,1694,2379,-1.14990234375,0.3856201171875,-0.1429443359375
8.726,333,3147,1665,1974,-1.14990234375,0.3856201171875,-0.1429443359375
8.754,324,3147,1659,861,-0.480712890625,0.386962890625,0.1610107421875
8.754,323,3147,1643,356,-0.37744140625,0.4107666015625,0.2022705078125
8.756,321,3056,1638,354,-0.37744140625,0.4107666015625,0.2022705078125
8.774,321,2263,1597,346,-0.6429443359375,0.3048095703125,0.220947265625
8.778,318,1878,1569,346,-0.7989501953125,0.20947265625,0.1124267578125
8.786,316,1384,1546,345,-0.7989501953125,0.20947265625,0.1124267578125
8.800,316,1143,1496,336,-0.8502197265625,0.0458984375,-0.1197509765625
8.808,316,992,1467,334,-0.8502197265625,0.0458984375,-0.1197509765625
8.828,314,923,1429,333,-0.79541015625,0.0369873046875,-0.131591796875
8.830,298,759,1387,332,-0.708984375,0.2025146484375,-0.02392578125
8.838,314,803,1377,336,-0.708984375,0.2025146484375,-0.02392578125
8.851,313,808,1362,333,-0.672119140625,0.35107421875,0.0758056640625
8.861,312,932,1386,336,-0.5926513671875,0.5596923828125,0.2064208984375
8.872,313,963,1399,336,-0.5926513671875,0.5596923828125,0.2064208984375
8.878,314,1043,1415,336,-0.5557861328125,0.573486328125,0.1844482421875
8.889,308,1251,1440,332,-0.5670166015625,0.492919921875,-0.023193359375
8.900,310,1429,1468,333,-0.5670166015625,0.492919921875,-0.023193359375
8.906,315,1770,1476,344,-0.63916015625,0.4254150390625,-0.115478515625
8.929,316,2419,1519,334,-0.7254638671875,0.27294921875,-0.1646728515625
8.929,316,2775,1543,345,-0.7254638671875,0.27294921875,-0.1646728515625
8.942,316,3147,1557,359,-0.6834716796875,0.23681640625,-0.1451416015625
8.961,321,3147,1607,1160,-0.455322265625,0.23095703125,-0.0179443359375
8.961,324,3147,1669,1452,-0.455322265625,0.23095703125,-0.0179443359375
8.966,332,3147,1874,1826,-0.2421875,0.177978515625,0.0477294921875
8.983,351,3147,2058,2319,0.02294921875,0.44287109375,0.059326171875
8.991,359,3147,2128,2593,0.02294921875,0.44287109375,0.059326171875
9.001,363,3147,2174,2955,-0.07568359375,0.7353515625,0.154541015625
9.011,371,3147,2279,3147,-1.0660400390625,0.8785400390625,0.146240234375
9.036,373,3147,2310,3147,-1.0660400390625,0.8785400390625,0.146240234375
9.041,360,3147,2359,3147,-1.7860107421875,0.7755126953125,-0.032958984375
9.043,378,3147,2310,3147,-2.3438720703125,0.7176513671875,-0.2056884765625
9.061,378,3147,2319,3147,-2.62890625,0.702392578125,-0.2852783203125
9.061,378,3147,2293,3147,-2.38720703125,0.4918212890625,-0.19921875
9.070,375,3147,2203,3147,-1.4918212890625,0.2667236328125,0.1134033203125
9.079,373,3147,2142,3147,-0.68017578125,0.5374755859375,0.486572265625
9.086,371,3147,2105,3147,-0.462158203125,0.974365234375,0.51318359375
9.103,371,3147,2076,3147,-0.6556396484375,1.1192626953125,0.2294921875
9.112,369,3147,2024,3147,-1.172119140625,1.1011962890625,-0.0296630859375
9.116,364,3147,2008,3105,-1.71728515625,0.997802734375,-0.2608642578125
9.144,359,3147,1912,2633,-1.8880615234375,0.8118896484375,-0.4169921875
9.165,346,3147,1809,2210,-1.6785888671875,0.5919189453125,-0.3492431640625
9.168,338,3147,1768,1867,-1.3056640625,0.34912109375,-0.107421875
9.170,328,3147,1623,1004,-0.93359375,0.171142578125,0.1373291015625
9.170,324,3147,1604,485,-0.6492919921875,0.1326904296875,0.228271484375
9.176,323,2966,1588,356,-0.4951171875,0.21875,0.2049560546875
9.201,317,1927,1529,347,-0.449462890625,0.33447265625,0.1817626953125
9.209,316,1529,1474,345,-0.483642578125,0.3682861328125,0.1015625
9.209,316,1204,1455,338,-0.5650634765625,0.328125,-0.0494384765625
9.251,305,848,1374,330,-0.6510009765625,0.2874755859375,-0.1544189453125
9.251,295,741,1339,332,-0.7105712890625,0.27783203125,-0.16845703125
9.251,310,679,1287,328,-0.7457275390625,0.3333740234375,-0.1348876953125
9.269,310,584,1224,328,-0.74267578125,0.409423828125,-0.0819091796875
9.269,308,625,1204,330,-0.6943359375,0.4044189453125,-0.0484619140625
9.269,308,625,1188,330,-0.6375732421875,0.3502197265625,-0.0518798828125
9.283,310,621,1163,328,-0.61572265625,0.3583984375,-0.05126953125
9.290,309,633,1163,330,-0.6287841796875,0.435791015625,-0.019287109375
9.297,308,619,1160,330,-0.6357421875,0.5037841796875,0.0081787109375
9.311,308,661,1186,327,-0.6217041015625,0.51171875,-0.001953125
9.319,308,630,1224,329,-0.6092529296875,0.4525146484375,-0.0224609375
9.339,308,625,1239,328,-0.616455078125,0.36279296875,-0.0252685546875
9.342,294,621,1292,324,-0.6356201171875,0.289794921875,-0.0286865234375
9.370,310,714,1326,330,-0.6546630859375,0.2353515625,-0.049560546875
9.371,294,846,1343,332,-0.68310546875,0.1802978515625,-0.0770263671875
9.372,310,1450,1383,338,-0.7222900390625,0.1351318359375,-0.1065673828125
9.378,313,1957,1404,332,-0.7412109375,0.1583251953125,-0.1240234375
9.386,312,2505,1422,336,-0.7342529296875,0.283935546875,-0.1171875
9.400,308,3147,1490,564,-0.7484130859375,0.46533203125,-0.08447265625
9.408,316,3147,1527,1051,-0.75830078125,0.581787109375,0.0101318359375
9.416,321,3147,1559,1437,-0.576416015625,0.44873046875,0.1939697265625
9.437,334,3147,1850,2014,-0.27197265625,0.179443359375,0.16064453125
9.438,342,3147,1967,2447,-0.080810546875,0.17626953125,-0.030029296875
9.452,354,3147,2048,2713,-0.00390625,0.3388671875,0.0406494140625
9.479,361,3147,2161,3147,-0.1514892578125,0.431396484375,0.2498779296875
9.481,359,3147,2170,3147,-0.558349609375,0.550537109375,0.4007568359375
9.481,353,3147,2284,3147,-1.0902099609375,0.733154296875,0.373046875
9.491,374,3147,2303,3147,-1.6953125,0.994873046875,0.0770263671875
9.499,372,3147,2284,3147,-2.2135009765625,1.214111328125,-0.3111572265625
9.507,376,3147,2254,3147,-2.4627685546875,1.1749267578125,-0.50439453125
9.521,374,3147,2284,3147,-2.1878662109375,0.7371826171875,-0.459228515625
9.537,375,3147,2293,3147,-1.4185791015625,0.2586669921875,-0.18017578125
9.537,375,3147,2162,3147,-0.83251953125,0.343994140625,0.2431640625
9.569,371,3147,2119,3147,-0.6817626953125,0.7803955078125,0.37841796875
9.577,371,3147,2141,3147,-0.7359619140625,1.117919921875,0.190185546875
9.577,356,3147,2151,3147,-1.061767578125,1.3240966796875,-0.0211181640625
9.581,364,3147,2068,3147,-1.5067138671875,1.3038330078125,-0.2100830078125
9.590,362,3147,2024,3147,-1.694580078125,1.0479736328125,-0.2979736328125
9.597,359,3147,1922,2932,-1.5616455078125,0.7354736328125,-0.2100830078125
9.611,343,3147,1790,2296,-1.26904296875,0.4368896484375,-0.03662109375
9.619,334,3147,1656,2007,-0.967041015625,0.2127685546875,0.138671875
9.627,327,3147,1615,1470,-0.7342529296875,0.1195068359375,0.208740234375
9.641,323,3147,1580,554,-0.6182861328125,0.1400146484375,0.1619873046875
9.649,319,2954,1533,351,-0.5819091796875,0.2119140625,0.1185302734375
9.665,316,2253,1483,347,-0.5748291015625,0.2445068359375,0.0567626953125
9.682,308,1276,1439,342,-0.58984375,0.2412109375,-0.0633544921875
9.683,313,1064,1411,334,-0.6029052734375,0.2589111328125,-0.140380859375
9.687,313,762,1372,334,-0.608642578125,0.28125,-0.134521484375
9.701,310,733,1287,330,-0.621826171875,0.3304443359375,-0.1043701171875
9.709,310,750,1264,330,-0.6337890625,0.41455078125,-0.065673828125
9.717,313,648,1231,332,-0.6341552734375,0.4405517578125,-0.029541015625
9.731,306,632,1178,330,-0.63525390625,0.3985595703125,-0.02490234375
9.743,310,636,1175,332,-0.6414794921875,0.3896484375,-0.0302734375
9.747,309,642,1184,330,-0.628662109375,0.42822265625,-0.013671875
9.761,310,669,1198,330,-0.5887451171875,0.4488525390625,0.0081787109375
9.789,310,694,1206,330,-0.5511474609375,0.4521484375,0.0146484375
9.790,310,707,1236,328,-0.5384521484375,0.4630126953125,0.016845703125
9.793,308,763,1253,331,-0.5631103515625,0.4700927734375,0.0196533203125
9.799,309,891,1268,330,-0.6109619140625,0.4537353515625,0.009765625
9.807,310,1078,1318,336,-0.654052734375,0.4046630859375,-0.018310546875
9.821,306,1826,1370,334,-0.6766357421875,0.3406982421875,-0.064208984375
9.829,313,2296,1398,332,-0.672119140625,0.319580078125,-0.0985107421875
9.844,313,2925,1437,342,-0.672119140625,0.319580078125,-0.0985107421875
9.851,315,3147,1527,934,-0.5758056640625,0.37548828125,0.035888671875
9.859,318,3147,1604,1393,-0.3370361328125,0.1693115234375,0.20654296875
9.887,327,3147,1798,1622,-0.3370361328125,0.1693115234375,0.20654296875
9.887,338,3147,1948,2228,-0.15771484375,0.0997314453125,-0.25830078125
9.891,354,3147,2063,2600,-0.287353515625,0.4403076171875,-0.2044677734375
9.900,359,3147,2133,2932,-0.59130859375,0.6937255859375,0.014404296875
9.906,361,3147,2178,3147,-0.59130859375,0.6937255859375,0.014404296875
9.920,369,3147,2306,3147,-1.4461669921875,1.00830078125,0.282470703125
9.928,371,3147,2321,3147,-1.7987060546875,1.1363525390625,0.197265625
9.936,373,3147,2254,3147,-1.7987060546875,1.1363525390625,0.197265625
9.950,373,3147,2176,3147,-2.159912109375,0.8468017578125,-0.2662353515625
9.961,371,3147,2183,3147,-2.159912109375,0.8468017578125,-0.2662353515625
9.993,372,3147,2165,3147,-1.7642822265625,0.414794921875,-0.2520751953125
9.994,364,3147,2111,3147,-0.8228759765625,0.571044921875,0.2802734375
9.994,371,3147,2110,3147,-0.8228759765625,0.571044921875,0.2802734375
9.996,371,3147,2133,3147,-0.787109375,0.811279296875,0.3096923828125
10.013,363,3147,2091,3147,-1.4539794921875,1.170166015625,-0.0687255859375
10.018,361,3147,2012,3134,-1.4539794921875,1.170166015625,-0.0687255859375
10.026,359,3147,1968,2807,-1.575927734375,1.1361083984375,-0.3392333984375
10.040,347,3147,1766,2104,-1.0814208984375,0.650390625,-0.220947265625
10.048,334,3147,1711,1715,-1.0814208984375,0.650390625,-0.220947265625
10.056,330,3147,1622,1262,-0.8272705078125,0.270751953125,0.0245361328125
10.081,324,3147,1599,614,-0.676513671875,0.070068359375,0.178466796875
10.084,323,3147,1536,329,-0.676513671875,0.070068359375,0.178466796875
10.086,319,2568,1551,346,-0.7120361328125,0.2459716796875,0.1407470703125
10.100,316,1757,1470,336,-0.81298828125,0.2724609375,-0.1568603515625
10.109,314,1260,1439,345,-0.81298828125,0.2724609375,-0.1568603515625
10.116,313,946,1413,334,-0.81591796875,0.1463623046875,-0.2215576171875
10.130,309,711,1320,334,-0.658203125,0.2049560546875,-0.1070556640625
10.138,310,714,1294,334,-0.658203125,0.2049560546875,-0.1070556640625
10.152,308,656,1243,330,-0.595458984375,0.378173828125,-0.02294921875
10.160,310,682,1182,330,-0.597900390625,0.436767578125,0.038330078125
10.168,308,694,1151,330,-0.6326904296875,0.415771484375,0.0482177734375
10.179,308,720,1131,330,-0.6572265625,0.4462890625,0.0220947265625
10.196,313,710,1123,328,-0.6446533203125,0.5345458984375,-0.0152587890625
10.208,308,705,1147,327,-0.60595703125,0.6002197265625,-0.071533203125
10.209,310,667,1163,327,-0.5679931640625,0.58056640625,-0.11572265625
10.220,309,645,1253,328,-0.5545654296875,0.476806640625,-0.1173095703125
10.229,308,625,1280,330,-0.5732421875,0.3499755859375,-0.0826416015625
10.238,308,642,1315,330,-0.5950927734375,0.2530517578125,-0.0504150390625
10.257,309,694,1323,328,-0.608154296875,0.1927490234375,-0.05029296875
10.260,312,830,1374,334,-0.6329345703125,0.1585693359375,-0.07373046875
10.294,306,1334,1398,332,-0.651123046875,0.1513671875,-0.085205078125
10.295,313,2665,1447,342,-0.5855712890625,0.153076171875,-0.0631103515625
10.295,316,3147,1487,481,-0.4337158203125,0.228759765625,-0.0115966796875
10.296,321,3147,1531,1091,-0.376708984375,0.44189453125,0.0767822265625
10.314,332,3147,1722,1643,-0.44384765625,0.548828125,0.1689453125
10.318,338,3147,1890,2063,-0.4302978515625,0.462646484375,0.1912841796875
10.326,348,3147,1978,2367,-0.3037109375,0.4285888671875,0.2314453125
10.340,360,3147,2127,2801,-0.152099609375,0.465087890625,0.32470703125
10.360,363,3147,2176,3136,-0.1473388671875,0.5966796875,0.3699951171875
10.360,371,3147,2254,3147,-0.48876953125,0.8543701171875,0.2999267578125
10.388,374,3147,2345,3147,-1.159912109375,1.07763671875,0.0006103515625
10.391,382,3147,2386,3147,-1.968017578125,1.1893310546875,-0.4505615234375
10.392,376,3147,2396,3147,-2.638916015625,1.096923828125,-0.7703857421875
10.401,376,3147,2525,3147,-2.796875,0.6729736328125,-0.701904296875
10.409,382,3147,2471,3147,-2.07958984375,0.0650634765625,-0.2635498046875
10.421,382,3147,2354,3147,-1.0858154296875,0.0286865234375,0.2830810546875
10.431,376,3147,2167,3147,-0.6265869140625,0.6630859375,0.43017578125
10.439,376,3147,2188,3147,-0.58154296875,1.1688232421875,0.146484375
10.447,375,3147,2190,3147,-0.7877197265625,1.2841796875,-0.11083984375
10.465,373,3147,2144,3147,-1.23779296875,1.2447509765625,-0.231201171875
10.469,371,3147,2080,3147,-1.6212158203125,1.12744140625,-0.2852783203125
10.497,371,3147,2041,3085,-1.6341552734375,0.858154296875,-0.2569580078125
10.497,360,3147,1915,2579,-1.380126953125,0.5142822265625,-0.076416015625
10.499,356,3147,1796,2316,-1.061279296875,0.249267578125,0.1334228515625
10.507,347,3147,1700,1960,-0.76123046875,0.1719970703125,0.240234375
10.521,330,3147,1604,1294,-0.5546875,0.237060546875,0.211181640625
10.531,328,3147,1592,859,-0.5081787109375,0.3216552734375,0.0947265625
10.537,324,3147,1578,455,-0.5802001953125,0.3604736328125,0.0382080078125
10.551,321,2713,1516,352,-0.6834716796875,0.3209228515625,0.049560546875
10.562,316,2156,1470,349,-0.7706298828125,0.2169189453125,0.0057373046875
10.567,316,1882,1422,347,-0.8055419921875,0.155029296875,-0.04931640625
10.581,315,1334,1373,346,-0.7869873046875,0.181884765625,-0.0584716796875
10.603,299,1043,1336,336,-0.7432861328125,0.2591552734375,-0.0679931640625
10.603,315,855,1313,336,-0.68896484375,0.3399658203125,-0.101806640625
10.611,313,842,1305,334,-0.6279296875,0.408447265625,-0.1253662109375
10.619,310,865,1306,336,-0.56787109375,0.48291015625,-0.107177734375
10.634,313,873,1290,332,-0.529052734375,0.528076171875,-0.0540771484375
10.641,310,999,1289,332,-0.507080078125,0.4906005859375,0.0078125
10.649,313,963,1317,330,-0.5003662109375,0.4136962890625,0.0396728515625
10.665,313,1222,1334,328,-0.5205078125,0.3751220703125,0.0355224609375
10.671,313,1555,1353,330,-0.5694580078125,0.3824462890625,0.013427734375
10.679,310,1811,1377,334,-0.6314697265625,0.3834228515625,-0.0118408203125
10.708,313,2359,1390,344,-0.6541748046875,0.3359375,-0.0650634765625
10.708,312,3020,1428,338,-0.633056640625,0.3355712890625,-0.1357421875
10.710,302,3147,1447,408,-0.6124267578125,0.433349609375,-0.126708984375
10.717,316,3147,1469,774,-0.58251953125,0.509521484375,-0.0633544921875
10.749,318,3147,1504,1302,-0.5501708984375,0.5198974609375,0.0059814453125
10.750,315,3147,1545,1607,-0.4906005859375,0.403076171875,0.101806640625
10.750,326,3147,1592,1865,-0.3868408203125,0.1904296875,0.1649169921875
10.767,337,3147,1820,2359,-0.302734375,0.1160888671875,0.2364501953125
10.772,344,3147,1918,2638,-0.216552734375,0.22216796875,0.3319091796875
10.780,354,3147,2005,2912,-0.2125244140625,0.45166015625,0.36376953125
10.805,361,3147,2065,3147,-0.4842529296875,0.733154296875,0.267822265625
10.806,365,3147,2114,3147,-1.043701171875,0.942626953125,0.04052734375
10.807,356,3147,2127,3147,-1.703369140625,1.0460205078125,-0.2147216796875
10.821,371,3147,2214,3147,-2.2735595703125,1.1021728515625,-0.4501953125
10.829,373,3147,2190,3147,-2.513427734375,1.0635986328125,-0.546142578125
10.844,372,3147,2162,3147,-2.0316162109375,0.66943359375,-0.395263671875
10.851,371,3147,2050,3147,-1.181396484375,0.3634033203125,0.030517578125
10.859,371,3147,2030,3147,-0.71533203125,0.56396484375,0.3394775390625
10.867,363,3147,2030,3147,-0.7401123046875,0.958740234375,0.2064208984375
10.881,364,3147,2004,3147,-1.134521484375,1.323974609375,-0.06005859375
10.917,364,3147,1946,3147,-1.5653076171875,1.348876953125,-0.2840576171875
10.918,352,3147,1850,3147,-1.6658935546875,1.045654296875,-0.3759765625
10.919,355,3147,1781,3070,-1.4638671875,0.727783203125,-0.2861328125
10.920,348,3147,1687,2750,-1.1558837890625,0.5084228515625,-0.078369140625
10.928,336,3147,1648,2418,-0.85791015625,0.3165283203125,0.204345703125
10.941,328,3147,1582,1629,-0.622802734375,0.119140625,0.3768310546875
10.951,323,3147,1557,1199,-0.53466796875,0.070556640625,0.325439453125
10.957,321,3147,1506,578,-0.53466796875,0.070556640625,0.325439453125
10.971,318,2463,1390,338,-0.6064453125,0.241455078125,0.1209716796875
10.979,315,2065,1351,349,-0.6573486328125,0.24609375,-0.0440673828125
10.989,306,1677,1331,342,-0.6573486328125,0.24609375,-0.0440673828125
11.006,313,1331,1294,334,-0.638427734375,0.2630615234375,-0.3431396484375
11.009,314,986,1289,331,-0.6650390625,0.3668212890625,-0.3309326171875
11.017,313,818,1266,324,-0.6650390625,0.3668212890625,-0.3309326171875
11.031,308,887,1236,328,-0.68798828125,0.44677734375,-0.079833984375
11.039,310,912,1166,332,-0.6571044921875,0.4053955078125,0.0218505859375
11.047,308,917,1143,330,-0.6571044921875,0.4053955078125,0.0218505859375
11.061,311,885,1148,329,-0.5396728515625,0.484375,0.03662109375
11.073,311,905,1175,332,-0.493408203125,0.5574951171875,0.0313720703125
11.077,310,837,1214,328,-0.493408203125,0.5574951171875,0.0313720703125
11.092,310,963,1308,330,-0.5166015625,0.5999755859375,0.0709228515625
11.114,312,1101,1341,330,-0.554443359375,0.5277099609375,0.0120849609375
11.114,313,1401,1358,332,-0.554443359375,0.5277099609375,0.0120849609375
11.122,315,2041,1397,338,-0.6072998046875,0.3104248046875,-0.1151123046875
11.130,313,2364,1422,338,-0.645751953125,0.3062744140625,-0.1195068359375
11.141,313,2874,1437,338,-0.645751953125,0.3062744140625,-0.1195068359375
11.151,315,3147,1464,632,-0.725341796875,0.46337890625,-0.0106201171875
11.164,316,3147,1483,980,-0.6722412109375,0.4329833984375,0.056884765625
11.176,316,3147,1497,1267,-0.6722412109375,0.4329833984375,0.056884765625
11.181,323,3147,1528,1786,-0.370849609375,0.189697265625,0.173095703125
11.205,328,3147,1598,1989,-0.370849609375,0.189697265625,0.173095703125
11.205,334,3147,1730,2231,-0.2615966796875,0.1505126953125,0.1497802734375
11.211,346,3147,1865,2647,-0.4324951171875,0.27001953125,0.3070068359375
11.219,349,3147,1906,3017,-0.4324951171875,0.27001953125,0.3070068359375
11.229,354,3147,1969,3147,-0.65234375,0.464599609375,0.2740478515625
11.241,362,3147,2063,3147,-1.4998779296875,0.947509765625,-0.274169921875
11.252,371,3147,2139,3147,-1.4998779296875,0.947509765625,-0.274169921875
11.257,371,3147,2174,3147,-1.9893798828125,0.999755859375,-0.5977783203125
11.279,370,3147,2178,3147,-2.138427734375,0.805419921875,-0.4609375
11.279,371,3147,2133,3147,-2.138427734375,0.805419921875,-0.4609375
11.287,364,3147,2162,3147,-1.510009765625,0.5223388671875,-0.1160888671875
11.310,364,3147,2117,3147,-0.6685791015625,0.6683349609375,0.2860107421875
11.312,364,3147,2063,3147,-0.6685791015625,0.6683349609375,0.2860107421875
11.317,363,3147,2115,3147,-0.86328125,0.9727783203125,0.1075439453125
11.331,361,3147,2026,3147,-1.5670166015625,0.88037109375,-0.2894287109375
11.339,360,3147,2003,3147,-1.5670166015625,0.88037109375,-0.2894287109375
11.347,359,3147,1922,3147,-1.5753173828125,0.6485595703125,-0.297607421875
11.364,348,3147,1739,2750,-1.127197265625,0.65087890625,-0.1009521484375
11.369,344,3147,1687,2430,-1.127197265625,0.65087890625,-0.1009521484375
11.386,336,3147,1604,1979,-0.881591796875,0.6212158203125,0.0418701171875
11.391,328,3147,1557,1010,-0.6724853515625,0.17822265625,0.1627197265625
11.399,324,3147,1545,409,-0.6724853515625,0.17822265625,0.1627197265625
11.416,316,2823,1506,351,-0.699951171875,0.00634765625,0.1575927734375
11.421,316,1921,1427,346,-0.7122802734375,-0.0628662109375,0.1688232421875
11.429,315,1600,1358,342,-0.7230224609375,-0.0440673828125,0.0625
11.437,313,1231,1320,336,-0.719482421875,0.0643310546875,-0.1226806640625
11.451,310,1047,1278,336,-0.7003173828125,0.2471923828125,-0.2445068359375
11.459,313,922,1217,331,-0.7139892578125,0.4583740234375,-0.2642822265625
11.467,313,840,1160,334,-0.71630859375,0.6112060546875,-0.2120361328125
11.487,312,779,1071,330,-0.6729736328125,0.619873046875,-0.148681640625
11.489,312,767,1066,334,-0.5989990234375,0.5546875,-0.091064453125
11.499,313,726,1093,332,-0.5401611328125,0.538330078125,-0.0560302734375
11.520,313,721,1116,333,-0.5269775390625,0.5675048828125,-0.036865234375
11.523,313,682,1143,330,-0.5262451171875,0.566650390625,-0.017333984375
11.527,313,725,1223,334,-0.5228271484375,0.49169921875,-0.013671875
11.541,312,794,1318,330,-0.525634765625,0.369140625,-0.0194091796875
11.549,315,984,1351,343,-0.537841796875,0.2626953125,-0.029296875
11.557,316,1050,1371,336,-0.559326171875,0.2117919921875,-0.0489501953125
11.571,316,1417,1411,338,-0.5941162109375,0.21484375,-0.06591796875
11.621,315,1826,1422,344,-0.642333984375,0.259521484375,-0.0611572265625
11.623,316,2271,1447,347,-0.6865234375,0.3218994140625,-0.041259765625
11.623,317,3147,1456,359,-0.6964111328125,0.36376953125,-0.0181884765625
11.623,316,3147,1480,697,-0.669189453125,0.388671875,-0.0123291015625
11.623,323,3147,1501,980,-0.6343994140625,0.444091796875,-0.0123291015625
11.633,330,3147,1518,1537,-0.5616455078125,0.47802734375,0.0029296875
11.666,334,3147,1653,1813,-0.4368896484375,0.43310546875,0.029296875
11.676,338,3147,1747,1996,-0.3463134765625,0.357421875,0.0958251953125
11.676,351,3147,1883,2481,-0.3409423828125,0.30908203125,0.1728515625
11.676,359,3147,1904,2648,-0.463623046875,0.38330078125,0.2166748046875
11.698,361,3147,1936,2936,-0.792236328125,0.611083984375,0.221923828125
11.716,371,3147,2001,3147,-1.317626953125,0.8563232421875,0.0933837890625
11.717,371,3147,2024,3147,-1.8692626953125,1.0113525390625,-0.1993408203125
11.717,372,3147,2060,3147,-2.21875,1.055908203125,-0.486083984375
11.722,371,3147,2076,3147,-2.19873046875,0.88623046875,-0.5753173828125
11.729,371,3147,2085,3147,-1.7186279296875,0.466064453125,-0.390625
11.738,364,3147,2053,3147,-1.0667724609375,0.2386474609375,0.0013427734375
11.751,364,3147,2024,3147,-0.70166015625,0.4837646484375,0.240234375
11.759,363,3147,2021,3147,-0.72802734375,0.951416015625,0.1334228515625
11.767,361,3147,1968,3147,-1.0743408203125,1.3013916015625,-0.0938720703125
11.781,360,3147,1838,2989,-1.468505859375,1.2655029296875,-0.271728515625
11.789,359,3147,1743,2701,-1.587646484375,0.952392578125,-0.3133544921875
11.820,351,3147,1662,2330,-1.446533203125,0.659423828125,-0.214111328125
11.820,336,3147,1572,1709,-1.2117919921875,0.4754638671875,-0.0394287109375
11.821,332,3147,1547,1262,-0.9808349609375,0.34326171875,0.1207275390625
11.827,328,3147,1529,713,-0.808837890625,0.2235107421875,0.1578369140625
11.843,324,2935,1506,355,-0.712890625,0.1280517578125,0.133544921875
11.851,321,2374,1473,348,-0.6524658203125,0.0570068359375,0.1483154296875
11.858,318,1647,1424,343,-0.61279296875,-0.00244140625,0.1258544921875
11.871,317,1038,1340,334,-0.604248046875,0.0181884765625,0.03125
11.879,315,859,1303,336,-0.589599609375,0.161865234375,-0.0631103515625
11.892,315,897,1283,334,-0.5718994140625,0.3795166015625,-0.1324462890625
11.901,313,790,1216,336,-0.5897216796875,0.5714111328125,-0.1741943359375
11.909,313,737,1117,336,-0.6121826171875,0.638427734375,-0.1827392578125
11.929,313,707,1115,332,-0.5958251953125,0.585205078125,-0.1829833984375
11.931,313,667,1137,332,-0.568359375,0.516845703125,-0.1864013671875
11.939,312,673,1162,334,-0.5679931640625,0.5208740234375,-0.1522216796875
11.947,313,685,1188,331,-0.5841064453125,0.57421875,-0.0770263671875
11.961,313,697,1251,332,-0.60498046875,0.5816650390625,-0.0135498046875
11.969,315,685,1282,332,-0.6094970703125,0.5089111328125,0.0205078125
11.977,314,793,1294,332,-0.5941162109375,0.407958984375,0.030029296875
11.995,315,977,1365,336,-0.591552734375,0.319580078125,0.0062255859375
11.999,315,1091,1380,336,-0.619140625,0.24462890625,-0.046875
12.027,316,1424,1399,338,-0.6556396484375,0.1949462890625,-0.1021728515625
12.030,315,2085,1427,342,-0.6844482421875,0.2352294921875,-0.119140625
12.030,316,2435,1440,344,-0.7042236328125,0.3621826171875,-0.082763671875
12.041,317,3007,1445,351,-0.708740234375,0.45263671875,-0.0440673828125
12.051,321,3147,1472,802,-0.689208984375,0.4376220703125,-0.0430908203125
12.059,321,3147,1494,1078,-0.6644287109375,0.3931884765625,-0.054443359375
12.067,324,3147,1521,1398,-0.64697265625,0.347412109375,-0.0589599609375
12.081,332,3147,1604,1821,-0.587890625,0.2681884765625,-0.03857421875
12.097,338,3147,1732,2061,-0.4971923828125,0.2489013671875,0.0787353515625
12.098,338,3147,1816,2299,-0.4971923828125,0.2489013671875,0.0787353515625
12.137,354,3147,1920,2657,-0.3712158203125,0.470703125,0.4327392578125
12.137,359,3147,1960,2935,-0.5072021484375,0.6300048828125,0.4287109375
12.138,359,3147,2035,3141,-0.5072021484375,0.6300048828125,0.4287109375
12.138,360,3147,2106,3147,-0.9019775390625,0.7193603515625,0.223388671875
12.153,370,3147,2204,3147,-2.0216064453125,0.824462890625,-0.551025390625
12.158,372,3147,2258,3147,-2.2589111328125,0.88525390625,-0.777587890625
12.166,372,3147,2233,3147,-2.2589111328125,0.88525390625,-0.777587890625
12.180,372,3147,2210,3147,-1.3671875,0.67919921875,-0.1561279296875
12.188,370,3147,2165,3147,-0.796630859375,0.6778564453125,0.23974609375
12.200,364,3147,2105,3147,-0.796630859375,0.6778564453125,0.23974609375
12.210,361,3147,2083,3147,-0.722900390625,1.0126953125,0.0704345703125
12.218,363,3147,2068,3147,-0.722900390625,1.0126953125,0.0704345703125
12.246,363,3147,2005,3147,-1.0665283203125,1.0321044921875,-0.124755859375
12.251,360,3147,1828,2962,-1.7371826171875,0.80908203125,-0.2989501953125
12.253,354,3147,1757,2710,-1.7371826171875,0.80908203125,-0.2989501953125
12.256,347,3147,1689,2379,-1.6123046875,0.5760498046875,-0.1995849609375
12.270,334,3147,1608,1689,-1.0147705078125,0.281982421875,0.1781005859375
12.278,328,3147,1588,1239,-1.0147705078125,0.281982421875,0.1781005859375
12.286,325,3147,1569,818,-0.7322998046875,0.2747802734375,0.2547607421875
12.302,321,2870,1531,349,-0.51171875,0.2955322265625,0.1964111328125
12.308,318,2340,1492,344,-0.51171875,0.2955322265625,0.1964111328125
12.320,316,1801,1450,342,-0.58544921875,0.177734375,0.163818359375
12.340,313,1079,1357,334,-0.7181396484375,0.021240234375,-0.1417236328125
12.341,315,912,1341,346,-0.7181396484375,0.021240234375,-0.1417236328125
12.346,313,868,1294,338,-0.6849365234375,0.1309814453125,-0.228515625
12.360,313,707,1271,332,-0.6800537109375,0.357666015625,-0.2744140625
12.369,310,628,1255,334,-0.6800537109375,0.357666015625,-0.2744140625
12.379,308,644,1231,332,-0.6531982421875,0.3848876953125,-0.213623046875
12.390,308,753,1184,328,-0.5404052734375,0.403076171875,-0.05615234375
12.404,309,785,1173,332,-0.5404052734375,0.403076171875,-0.05615234375
12.406,308,766,1199,330,-0.52978515625,0.4803466796875,-0.002685546875
12.444,310,830,1229,330,-0.55615234375,0.5543212890625,0.06591796875
12.444,313,827,1260,308,-0.5908203125,0.5648193359375,0.12255859375
12.444,298,1038,1266,329,-0.6231689453125,0.51123046875,0.135009765625
12.450,313,1527,1306,333,-0.648193359375,0.4053955078125,0.12158203125
12.458,313,1943,1365,334,-0.635986328125,0.2655029296875,0.0811767578125
12.466,313,2330,1393,330,-0.607666015625,0.191162109375,0.0302734375
12.480,313,2955,1452,338,-0.608154296875,0.2344970703125,0.02734375
12.491,315,3147,1488,653,-0.6075439453125,0.3359375,0.080078125
12.496,316,3147,1534,1097,-0.517822265625,0.379638671875,0.1427001953125
12.510,328,3147,1627,1627,-0.36865234375,0.3056640625,0.055908203125
12.521,330,3147,1775,1968,-0.3155517578125,0.344970703125,-0.161865234375
12.527,342,3147,1904,2268,-0.24462890625,0.4705810546875,-0.2069091796875
12.550,348,3147,2017,2760,-0.198974609375,0.4857177734375,-0.060546875
12.550,359,3147,2021,2876,-0.37841796875,0.5548095703125,0.111572265625
12.558,362,3147,2113,3121,-0.7440185546875,0.81640625,0.22265625
12.570,371,3147,2220,3147,-1.309814453125,1.1666259765625,0.1727294921875
12.578,375,3147,2293,3147,-1.952880859375,1.2745361328125,-0.0635986328125
12.586,375,3147,2259,3147,-2.4320068359375,1.0142822265625,-0.314208984375
12.612,371,3147,2195,3147,-2.4742431640625,0.5347900390625,-0.357177734375
12.612,369,3147,2220,3147,-1.809326171875,0.0465087890625,-0.1846923828125
12.616,369,3147,2165,3147,-0.9649658203125,0.0238037109375,0.147216796875
12.646,363,3147,2093,3147,-0.6170654296875,0.4378662109375,0.3349609375
12.647,355,3147,2114,3147,-0.6390380859375,0.7933349609375,0.223388671875
12.688,361,3147,2058,3147,-0.8309326171875,0.95751953125,-0.0023193359375
12.688,359,3147,2061,3147,-1.1986083984375,1.0286865234375,-0.2259521484375
12.688,356,3147,2024,3065,-1.556884765625,1.0009765625,-0.3743896484375
12.688,348,3147,1955,2890,-1.634033203125,0.837890625,-0.3958740234375
12.691,338,3147,1789,2364,-1.4508056640625,0.6473388671875,-0.255859375
12.698,332,3147,1695,2047,-1.1688232421875,0.5062255859375,-0.0283203125
12.720,328,3147,1652,1564,-0.8765869140625,0.435546875,0.156005859375
12.720,323,3147,1557,868,-0.6435546875,0.3846435546875,0.20849609375
12.743,321,3147,1588,388,-0.54443359375,0.3355712890625,0.201416015625
12.746,318,2992,1561,351,-0.566162109375,0.3170166015625,0.2265625
12.750,316,2391,1494,346,-0.64306640625,0.2952880859375,0.186279296875
12.763,315,1922,1444,334,-0.7200927734375,0.2525634765625,0.0277099609375
12.767,313,1450,1386,338,-0.7659912109375,0.2208251953125,-0.1138916015625
12.780,310,1071,1330,332,-0.7667236328125,0.2261962890625,-0.1751708984375
12.788,313,986,1313,324,-0.751953125,0.2882080078125,-0.173583984375
12.796,310,865,1250,332,-0.73974609375,0.3387451171875,-0.1317138671875
12.816,310,800,1228,330,-0.7208251953125,0.364990234375,-0.1131591796875
12.831,308,710,1209,327,-0.6934814453125,0.4354248046875,-0.122802734375
12.833,308,748,1183,327,-0.6644287109375,0.5096435546875,-0.1064453125
12.854,309,713,1157,330,-0.6419677734375,0.5318603515625,-0.0562744140625
12.854,308,725,1157,329,-0.622802734375,0.5106201171875,0.0018310546875
12.856,310,774,1182,329,-0.60009765625,0.470703125,0.0531005859375
12.870,308,790,1183,327,-0.5743408203125,0.4193115234375,0.0869140625
12.878,309,829,1201,330,-0.55712890625,0.360595703125,0.0906982421875
12.886,308,890,1216,330,-0.5517578125,0.3121337890625,0.0791015625
12.900,309,1185,1251,334,-0.5628662109375,0.287841796875,0.0574951171875
12.918,310,1490,1267,327,-0.5908203125,0.281494140625,0.00927734375
12.919,296,1949,1303,332,-0.646484375,0.323486328125,-0.0435791015625
12.930,310,2601,1334,336,-0.7286376953125,0.4395751953125,-0.04150390625
12.955,310,3032,1351,336,-0.76904296875,0.52001953125,0.0059814453125
12.955,313,3147,1440,607,-0.7132568359375,0.493896484375,0.043701171875
12.962,316,3147,1550,1366,-0.5560302734375,0.4237060546875,0.08251953125
12.977,318,3147,1588,1742,-0.32470703125,0.24462890625,0.0816650390625
12.977,325,3147,1641,2037,-0.24365234375,0.10546875,-0.07373046875
12.990,337,3147,1912,2543,-0.3216552734375,0.27392578125,-0.126708984375
12.999,346,3147,2012,2921,-0.37744140625,0.527099609375,0.0185546875
13.006,351,3147,2113,3147,-0.5400390625,0.6575927734375,0.108154296875
13.020,360,3147,2218,3147,-0.851318359375,0.6766357421875,0.103759765625
13.028,364,3147,2273,3147,-1.2296142578125,0.70947265625,0.03271484375
13.036,371,3147,2328,3147,-1.626220703125,0.873779296875,-0.101318359375
13.054,371,3147,2519,3147,-1.97998046875,1.09033203125,-0.28076171875
13.058,376,3147,2449,3147,-2.191162109375,1.2216796875,-0.3817138671875
13.066,375,3147,2391,3147,-1.968017578125,0.9661865234375,-0.307373046875
13.084,371,3147,2343,3147,-1.3177490234375,0.4808349609375,-0.065673828125
13.088,371,3147,2207,3147,-0.8101806640625,0.312744140625,0.1982421875
13.096,364,3147,2176,3147,-0.700439453125,0.454833984375,0.243896484375
13.110,363,3147,2144,3147,-0.882568359375,0.6693115234375,0.07861328125
13.121,360,3147,2118,3147,-1.32666015625,0.8453369140625,-0.1290283203125
13.127,359,3147,2035,3147,-1.32666015625,0.8453369140625,-0.1290283203125
13.141,346,3147,1892,2899,-1.811279296875,0.6044921875,-0.318115234375
13.158,344,3147,1785,2484,-1.5865478515625,0.4471435546875,-0.16943359375
13.158,334,3147,1730,2065,-1.5865478515625,0.4471435546875,-0.16943359375
13.170,324,3147,1636,913,-0.905029296875,0.5455322265625,0.1773681640625
13.178,323,3147,1592,361,-0.62451171875,0.547119140625,0.20068359375
13.191,318,2857,1575,346,-0.62451171875,0.547119140625,0.20068359375
13.200,317,1704,1519,336,-0.4307861328125,0.26171875,0.22314453125
13.208,316,1185,1499,342,-0.488037109375,0.0989990234375,0.2156982421875
13.223,313,888,1437,338,-0.488037109375,0.0989990234375,0.2156982421875
13.230,313,855,1345,330,-0.581298828125,0.0863037109375,0.05419921875
13.253,310,682,1289,328,-0.596923828125,0.23974609375,-0.0240478515625
13.253,313,625,1231,332,-0.596923828125,0.23974609375,-0.0240478515625
13.260,313,687,1123,328,-0.606689453125,0.44140625,-0.104736328125
13.268,310,711,1146,330,-0.5614013671875,0.4200439453125,-0.1314697265625
13.279,312,689,1157,328,-0.5614013671875,0.4200439453125,-0.1314697265625
13.301,310,711,1184,327,-0.4940185546875,0.47265625,-0.153076171875
13.301,310,761,1209,332,-0.5184326171875,0.474609375,-0.1099853515625
13.306,310,840,1229,333,-0.5184326171875,0.474609375,-0.1099853515625
13.327,310,1112,1267,332,-0.62548828125,0.32470703125,0.0301513671875
13.328,299,1260,1294,330,-0.6915283203125,0.2757568359375,0.0628662109375
13.336,310,1640,1306,334,-0.6915283203125,0.2757568359375,0.0628662109375
13.362,313,2374,1323,336,-0.7642822265625,0.296142578125,0.033447265625
13.362,310,2716,1341,342,-0.7642822265625,0.296142578125,0.033447265625
13.366,313,3121,1377,336,-0.7706298828125,0.3551025390625,0.011962890625
13.380,313,3147,1434,841,-0.74169921875,0.4859619140625,0.061767578125
13.392,314,3147,1494,1147,-0.74169921875,0.4859619140625,0.061767578125
13.401,315,3147,1545,1516,-0.68701171875,0.5064697265625,0.1138916015625
13.410,323,3147,1596,2085,-0.34375,0.1937255859375,0.0972900390625
13.418,328,3147,1783,2398,-0.34375,0.1937255859375,0.0972900390625
13.428,333,3147,1891,2632,-0.2000732421875,0.080078125,-0.0194091796875
13.440,346,3147,2019,3056,-0.2801513671875,0.385498046875,0.0262451171875
13.460,351,3147,2104,3147,-0.2801513671875,0.385498046875,0.0262451171875
13.460,359,3147,2191,3147,-0.5789794921875,0.6668701171875,0.0238037109375
13.470,364,3147,2290,3147,-1.671142578125,1.3858642578125,-0.402099609375
13.478,369,3147,2372,3147,-1.671142578125,1.3858642578125,-0.402099609375
13.486,372,3147,2417,3147,-2.1551513671875,1.4169921875,-0.588134765625
13.513,371,3147,2333,3147,-2.009033203125,0.5126953125,-0.0970458984375
13.514,373,3147,2356,3147,-2.009033203125,0.5126953125,-0.0970458984375
13.516,371,3147,2330,3147,-1.260009765625,0.056884765625,0.36181640625
13.530,371,3147,2215,3147,-0.667724609375,0.6353759765625,0.50830078125
13.538,364,3147,2235,3147,-0.667724609375,0.6353759765625,0.50830078125
13.569,364,3147,2225,3147,-0.867919921875,0.93603515625,0.1441650390625
13.570,348,3147,2186,3147,-1.278564453125,0.9803466796875,-0.188232421875
13.570,360,3147,2139,3147,-1.6717529296875,0.802734375,-0.360595703125
13.576,351,3147,2076,3108,-1.785888671875,0.529052734375,-0.3658447265625
13.590,346,3147,1929,2559,-1.615234375,0.3480224609375,-0.2396240234375
13.598,338,3147,1838,2266,-1.291259765625,0.3038330078125,-0.0284423828125
13.621,334,3147,1733,1899,-0.937744140625,0.333984375,0.192138671875
13.621,324,3147,1681,1096,-0.6346435546875,0.3858642578125,0.3143310546875
13.635,321,3147,1655,757,-0.4459228515625,0.408935546875,0.2794189453125
13.636,318,3147,1622,378,-0.4107666015625,0.3837890625,0.210205078125
13.672,316,2430,1536,348,-0.50439453125,0.3060302734375,0.1746826171875
13.673,300,1888,1452,323,-0.6419677734375,0.1953125,0.0721435546875
13.673,299,1529,1487,336,-0.71826171875,0.1368408203125,-0.0587158203125
13.680,313,987,1434,330,-0.7047119140625,0.1531982421875,-0.1326904296875
13.688,315,932,1396,334,-0.666015625,0.1917724609375,-0.169189453125
13.696,313,854,1393,336,-0.65185546875,0.2347412109375,-0.1593017578125
13.710,310,942,1351,338,-0.6439208984375,0.307861328125,-0.0888671875
13.720,308,988,1334,334,-0.6253662109375,0.4244384765625,-0.005859375
13.740,310,1048,1330,334,-0.6121826171875,0.5206298828125,0.0411376953125
13.740,309,1081,1355,336,-0.61572265625,0.52978515625,0.048828125
13.765,313,1331,1370,336,-0.632080078125,0.4718017578125,0.0350341796875
13.765,308,1580,1383,330,-0.65673828125,0.408935546875,0.014892578125
13.770,310,1904,1412,332,-0.6949462890625,0.3624267578125,0.00439453125
13.778,313,2093,1429,337,-0.73828125,0.3114013671875,-0.0081787109375
13.786,312,2381,1450,338,-0.7562255859375,0.268798828125,-0.0386962890625
13.800,310,2891,1492,338,-0.73974609375,0.27685546875,-0.0701904296875
13.809,315,3147,1523,368,-0.7181396484375,0.3353271484375,-0.052978515625
13.816,313,3147,1557,808,-0.693115234375,0.3494873046875,0.00927734375
13.843,315,3147,1623,1471,-0.637939453125,0.2940673828125,0.0623779296875
13.843,316,3147,1652,1826,-0.5338134765625,0.2552490234375,0.1370849609375
13.846,323,3147,1727,2052,-0.349365234375,0.14306640625,0.1787109375
13.873,336,3147,1967,2652,-0.221435546875,0.09814453125,0.08154296875
13.873,346,3147,2019,2890,-0.1876220703125,0.303466796875,0.08544921875
13.876,348,3147,2151,3147,-0.172607421875,0.482421875,0.213134765625
13.890,359,3147,2263,3147,-0.3328857421875,0.6134033203125,0.2252197265625
13.898,361,3147,2317,3147,-0.7689208984375,0.8492431640625,0.096435546875
13.906,364,3147,2364,3147,-1.4068603515625,1.163330078125,-0.11962890625
13.920,371,3147,2478,3147,-2.0924072265625,1.37841796875,-0.384521484375
13.941,371,3147,2391,3147,-2.604736328125,1.2896728515625,-0.6058349609375
13.941,373,3147,2337,3147,-2.5018310546875,0.7745361328125,-0.5611572265625
13.972,364,3147,2280,3147,-1.6810302734375,0.2095947265625,-0.1719970703125
13.975,363,3147,2222,3147,-0.8955078125,0.2406005859375,0.2822265625
13.975,348,3147,2272,3147,-0.6585693359375,0.7198486328125,0.4078369140625
13.980,360,3147,2230,3147,-0.9215087890625,1.123046875,0.2640380859375
13.988,359,3147,2165,3147,-1.4154052734375,1.06494140625,0.06640625
13.996,356,3147,2122,3147,-1.707763671875,0.64404296875,-0.08349609375
14.010,348,3147,1979,3075,-1.6549072265625,0.3175048828125,-0.127685546875
14.018,342,3147,1834,2721,-1.3853759765625,0.2366943359375,-0.0938720703125
14.026,336,3147,1779,2340,-1.054931640625,0.266357421875,0.0169677734375
14.048,329,3147,1743,1838,-0.7471923828125,0.26513671875,0.137939453125
14.048,304,3147,1700,1429,-0.5113525390625,0.2752685546875,0.1868896484375
14.115,323,3147,1679,1054,-0.401611328125,0.313232421875,0.194091796875
14.120,304,3147,1584,378,-0.437255859375,0.3377685546875,0.2149658203125
14.125,317,2929,1550,348,-0.556640625,0.3134765625,0.168701171875
14.126,316,2400,1529,344,-0.667724609375,0.2625732421875,0.0072021484375
14.126,315,1746,1463,342,-0.71337890625,0.253662109375,-0.150146484375
14.126,314,1574,1445,344,-0.7003173828125,0.2557373046875,-0.234375
14.126,315,1492,1419,336,-0.7052001953125,0.2457275390625,-0.258056640625
14.130,313,1202,1411,336,-0.733642578125,0.244873046875,-0.2047119140625
14.152,313,1054,1398,338,-0.718017578125,0.2698974609375,-0.105224609375
14.152,313,1108,1340,336,-0.6563720703125,0.342529296875,-0.02197265625
14.160,310,1415,1380,334,-0.591796875,0.4464111328125,0.0308837890625
14.183,310,1655,1387,338,-0.553955078125,0.514404296875,0.0501708984375
14.184,313,1954,1422,338,-0.557861328125,0.5098876953125,0.0360107421875
14.190,313,2296,1456,338,-0.6004638671875,0.4573974609375,0.02099609375
14.198,315,2552,1490,342,-0.640625,0.3770751953125,0.015625
14.206,315,2853,1511,338,-0.65185546875,0.314453125,0.0062255859375
14.220,315,3147,1574,574,-0.648193359375,0.3209228515625,-0.006591796875
14.228,316,3147,1596,894,-0.6317138671875,0.369140625,-0.0086669921875
14.236,316,3147,1627,1323,-0.6317138671875,0.369140625,-0.0086669921875
14.254,318,3147,1662,1955,-0.4398193359375,0.244140625,-0.041259765625
14.259,327,3147,1715,2308,-0.3387451171875,0.1995849609375,-0.15673828125
14.268,330,3147,1874,2530,-0.3387451171875,0.1995849609375,-0.15673828125
14.285,334,3147,2058,3032,-0.2564697265625,0.4927978515625,-0.0814208984375
14.293,347,3147,2137,3147,-0.368408203125,0.7242431640625,0.047119140625
14.296,351,3147,2161,3147,-0.368408203125,0.7242431640625,0.047119140625
14.310,361,3147,2223,3147,-1.174560546875,0.9178466796875,0.0904541015625
14.318,364,3147,2308,3147,-1.717529296875,0.849365234375,-0.0374755859375
14.326,371,3147,2354,3147,-1.717529296875,0.849365234375,-0.0374755859375
14.340,370,3147,2317,3147,-2.275146484375,0.6112060546875,-0.1539306640625
14.352,371,3147,2275,3147,-2.0228271484375,0.4039306640625,0.050048828125
14.367,364,3147,2221,3147,-2.0228271484375,0.4039306640625,0.050048828125
14.412,359,3147,2144,3147,-0.814453125,0.3426513671875,0.576416015625
14.412,346,3147,2087,3147,-0.6881103515625,0.669921875,0.5167236328125
14.412,351,3147,2062,3147,-0.6881103515625,0.669921875,0.5167236328125
14.412,348,3147,2050,3147,-1.4254150390625,0.906982421875,-0.0963134765625
14.412,348,3147,2041,3147,-1.7548828125,0.85205078125,-0.28857421875
14.417,344,3147,1994,3106,-1.7548828125,0.85205078125,-0.28857421875
14.430,332,3147,1834,2525,-1.4375,0.451416015625,-0.137939453125
14.438,327,3147,1798,2243,-1.06396484375,0.30859375,0.0621337890625
14.453,324,3147,1743,1904,-1.06396484375,0.30859375,0.0621337890625
14.487,321,3147,1677,1186,-0.5302734375,0.2696533203125,0.218994140625
14.487,317,3147,1652,860,-0.5302734375,0.2696533203125,0.218994140625
14.487,318,3147,1624,479,-0.5111083984375,0.31201171875,0.1456298828125
14.490,316,2202,1550,346,-0.689208984375,0.2808837890625,-0.0296630859375
14.498,316,1669,1509,344,-0.689208984375,0.2808837890625,-0.0296630859375
14.507,315,1255,1492,336,-0.733154296875,0.09814453125,-0.2034912109375
14.520,310,922,1440,338,-0.6971435546875,0.052001953125,-0.2430419921875
14.528,310,938,1401,336,-0.6971435546875,0.052001953125,-0.2430419921875
14.536,313,815,1411,330,-0.6812744140625,0.225830078125,-0.1669921875
14.557,308,865,1382,334,-0.64306640625,0.4332275390625,-0.0482177734375
14.558,313,942,1357,333,-0.64306640625,0.4332275390625,-0.0482177734375
14.591,310,929,1365,331,-0.59814453125,0.416015625,-0.0008544921875
14.591,310,1009,1396,332,-0.5223388671875,0.483154296875,0.0372314453125
14.592,313,1070,1409,336,-0.5223388671875,0.483154296875,0.0372314453125
14.596,310,1336,1415,337,-0.5147705078125,0.4881591796875,0.065673828125
14.610,308,1927,1428,334,-0.576416015625,0.3880615234375,-0.003173828125
14.618,313,2240,1419,337,-0.576416015625,0.3880615234375,-0.003173828125
14.631,313,2587,1440,336,-0.633056640625,0.370849609375,-0.02587890625
14.640,313,3147,1428,336,-0.6912841796875,0.4036865234375,-0.046630859375
14.648,313,3147,1442,568,-0.6912841796875,0.4036865234375,-0.046630859375
14.656,315,3147,1497,987,-0.7000732421875,0.4552001953125,-0.002685546875
14.687,314,3147,1547,1390,-0.658447265625,0.474853515625,0.0411376953125
14.687,315,3147,1590,1627,-0.658447265625,0.474853515625,0.0411376953125
14.687,316,3147,1613,1860,-0.639404296875,0.4173583984375,0.031982421875
14.700,323,3147,1669,2231,-0.5509033203125,0.347412109375,0.037353515625
14.712,323,3147,1702,2502,-0.4139404296875,0.340576171875,0.095947265625
14.717,328,3147,1733,2801,-0.3128662109375,0.3944091796875,0.1539306640625
14.730,342,3147,1904,3147,-0.3134765625,0.48193359375,0.1541748046875
14.744,347,3147,1996,3147,-0.5341796875,0.595458984375,0.0982666015625
14.746,354,3147,2072,3147,-0.9942626953125,0.7259521484375,-0.0267333984375
14.760,361,3147,2162,3147,-1.541015625,0.8524169921875,-0.2080078125
14.768,361,3147,2230,3147,-1.99267578125,0.904052734375,-0.327880859375
14.802,363,3147,2249,3147,-2.1893310546875,0.8746337890625,-0.256591796875
14.804,359,3147,2203,3147,-2.008056640625,0.7432861328125,-0.02001953125
14.804,360,3147,2139,3147,-1.4056396484375,0.50732421875,0.20556640625
14.807,359,3147,2078,3147,-0.80859375,0.5206298828125,0.3162841796875
14.821,354,3147,2034,3147,-0.62646484375,0.8292236328125,0.202880859375
14.829,354,3147,1996,3147,-0.8568115234375,1.138427734375,-0.041259765625
14.837,351,3147,1945,3147,-1.318359375,1.230712890625,-0.200927734375
14.865,346,3147,1834,3147,-1.657958984375,0.9910888671875,-0.25927734375
14.866,336,3147,1739,2941,-1.6817626953125,0.6270751953125,-0.2154541015625
14.867,334,3147,1735,2648,-1.4671630859375,0.3956298828125,-0.0904541015625
14.899,328,3147,1670,2058,-1.174072265625,0.3453369140625,0.0679931640625
14.899,309,3147,1641,1704,-0.8974609375,0.3511962890625,0.1976318359375
14.900,330,3147,1640,1220,-0.6771240234375,0.31591796875,0.23291015625
14.911,319,3147,1613,485,-0.5479736328125,0.22265625,0.1959228515625
14.919,321,3133,1607,354,-0.5438232421875,0.114013671875,0.1890869140625
14.927,310,2621,1580,347,-0.6317138671875,0.0352783203125,0.190673828125
14.941,316,1533,1508,347,-0.7208251953125,-0.015869140625,0.08251953125
14.949,315,1120,1490,338,-0.740966796875,0.0079345703125,-0.06005859375
14.966,315,958,1450,330,-0.685546875,0.10595703125,-0.1317138671875
14.971,313,822,1398,338,-0.6298828125,0.248291015625,-0.167724609375
14.981,314,894,1373,332,-0.6221923828125,0.4090576171875,-0.1553955078125
15.001,313,951,1323,334,-0.635986328125,0.507568359375,-0.081787109375
15.002,313,934,1328,316,-0.6270751953125,0.5406494140625,-0.0145263671875
15.009,313,963,1343,334,-0.6075439453125,0.5921630859375,0.015625
15.017,313,932,1357,330,-0.597412109375,0.6373291015625,0.0489501953125
15.031,313,1014,1380,346,-0.5791015625,0.5872802734375,0.0711669921875
15.040,310,1233,1398,338,-0.5576171875,0.46728515625,0.047119140625
15.047,313,1467,1415,334,-0.5579833984375,0.3414306640625,0.02099609375
15.067,314,1968,1437,334,-0.5880126953125,0.255126953125,0.025390625
15.069,313,2247,1456,345,-0.6273193359375,0.2236328125,0.0013427734375
15.084,315,2532,1487,338,-0.654541015625,0.225830078125,-0.0618896484375
15.095,315,3147,1527,356,-0.671875,0.2479248046875,-0.0682373046875
15.110,313,3147,1555,803,-0.662109375,0.2569580078125,0.01171875
15.110,316,3147,1580,1224,-0.5914306640625,0.2357177734375,0.089111328125
15.121,318,3147,1593,1681,-0.4815673828125,0.2158203125,0.1051025390625
15.129,324,3147,1595,1914,-0.3599853515625,0.1759033203125,0.090576171875
15.137,331,3147,1660,2142,-0.2232666015625,0.1353759765625,0.1199951171875
15.151,346,3147,1808,2576,-0.150146484375,0.2041015625,0.177978515625
15.159,348,3147,1867,2909,-0.262451171875,0.483154296875,0.1644287109375
15.169,355,3147,1914,3115,-0.587158203125,0.9393310546875,-0.0343017578125
15.184,362,3147,2014,3147,-1.08837890625,1.3765869140625,-0.3848876953125
15.214,370,3147,2086,3147,-1.738525390625,1.52783203125,-0.6944580078125
15.215,365,3147,2223,3147,-2.35498046875,1.2633056640625,-0.7430419921875
15.215,371,3147,2246,3147,-2.5703125,0.7628173828125,-0.4193115234375
15.221,371,3147,2242,3147,-2.119140625,0.308837890625,0.11181640625
15.228,369,3147,2190,3147,-1.2611083984375,0.2618408203125,0.5509033203125
15.241,363,3147,2076,3147,-0.6448974609375,0.68896484375,0.6390380859375
15.250,361,3147,2047,3147,-0.560791015625,1.1605224609375,0.3681640625
15.257,359,3147,1994,3147,-0.97705078125,1.36181640625,0.0244140625
15.271,356,3147,1892,3147,-1.6014404296875,1.1986083984375,-0.2100830078125
15.279,354,3147,1855,3010,-1.921875,0.7960205078125,-0.32177734375
15.287,351,3147,1810,2543,-1.7933349609375,0.4266357421875,-0.26171875
15.310,336,3147,1655,1850,-1.440673828125,0.2193603515625,-0.051513671875
15.321,326,3147,1604,1497,-1.0318603515625,0.1485595703125,0.197021484375
15.321,326,3147,1584,1109,-0.6416015625,0.13427734375,0.328857421875
15.331,321,3147,1509,508,-0.369140625,0.1475830078125,0.291259765625
15.340,318,3025,1500,352,-0.2716064453125,0.212646484375,0.2584228515625
15.347,316,2586,1462,348,-0.328125,0.2630615234375,0.2442626953125
15.361,316,1599,1395,342,-0.462646484375,0.255615234375,0.0830078125
15.374,315,1287,1375,338,-0.5782470703125,0.2593994140625,-0.151123046875
15.377,315,1112,1357,333,-0.6424560546875,0.3084716796875,-0.3048095703125
15.391,315,917,1302,333,-0.6881103515625,0.392822265625,-0.36328125
15.403,310,780,1316,332,-0.7191162109375,0.4190673828125,-0.33251953125
15.428,310,790,1272,329,-0.7103271484375,0.31884765625,-0.2144775390625
15.429,312,855,1251,313,-0.6739501953125,0.207275390625,-0.064697265625
15.429,310,835,1289,318,-0.6336669921875,0.2076416015625,0.0474853515625
15.437,312,871,1306,332,-0.6156005859375,0.3316650390625,0.10693359375
15.451,313,1191,1338,334,-0.627197265625,0.4842529296875,0.143798828125
15.460,310,1349,1338,333,-0.63330078125,0.5445556640625,0.1392822265625
15.467,313,1713,1344,337,-0.6505126953125,0.5465087890625,0.0872802734375
15.481,313,2117,1370,338,-0.6785888671875,0.509521484375,0.0589599609375
15.489,313,2375,1362,338,-0.6724853515625,0.4129638671875,0.0166015625
15.512,315,2770,1359,338,-0.6724853515625,0.4129638671875,0.0166015625
15.513,315,3147,1395,347,-0.6851806640625,0.3958740234375,-0.10693359375
15.519,313,3147,1437,553,-0.7257080078125,0.41455078125,-0.0599365234375
15.538,313,3147,1476,813,-0.7257080078125,0.41455078125,-0.0599365234375
15.541,316,3147,1540,1317,-0.78076171875,0.4261474609375,0.00830078125
15.549,316,3147,1555,1600,-0.68212890625,0.3167724609375,0.048095703125
15.557,317,3147,1569,1852,-0.68212890625,0.3167724609375,0.048095703125
15.579,325,3147,1588,2228,-0.32421875,0.11328125,0.150390625
15.580,334,3147,1693,2440,-0.2242431640625,0.2548828125,0.1280517578125
15.587,338,3147,1840,2645,-0.2242431640625,0.2548828125,0.1280517578125
15.615,346,3147,1935,3057,-0.3916015625,0.57568359375,-0.099365234375
15.615,351,3147,1966,3147,-0.8172607421875,0.840576171875,-0.2391357421875
15.618,360,3147,2021,3147,-0.8172607421875,0.840576171875,-0.2391357421875
15.626,363,3147,2068,3147,-1.3837890625,1.19482421875,-0.3380126953125
15.645,364,3147,2131,3147,-2.3814697265625,0.919921875,-0.4061279296875
15.648,363,3147,2188,3147,-2.3814697265625,0.919921875,-0.4061279296875
15.656,363,3147,2188,3147,-2.3385009765625,0.3575439453125,-0.188232421875
15.670,363,3147,2136,3147,-0.9315185546875,0.012939453125,0.57421875
15.681,362,3147,2110,3147,-0.9315185546875,0.012939453125,0.57421875
15.686,360,3147,2105,3147,-0.602783203125,0.5572509765625,0.5604248046875
15.719,359,3147,2071,3147,-1.109375,1.35302734375,-0.0982666015625
15.719,360,3147,1997,3147,-1.109375,1.35302734375,-0.0982666015625
15.726,356,3147,1980,3147,-1.505615234375,1.17236328125,-0.3095703125
15.731,349,3147,1894,3103,-1.5311279296875,0.5277099609375,-0.21826171875
15.748,347,3147,1803,2763,-1.5311279296875,0.5277099609375,-0.21826171875
15.748,338,3147,1693,2354,-1.28076171875,0.51904296875,-0.0733642578125
15.760,328,3147,1595,1820,-0.7698974609375,0.4263916015625,0.181884765625
15.768,327,3147,1580,1282,-0.7698974609375,0.4263916015625,0.181884765625
15.786,323,3147,1533,774,-0.6207275390625,0.2767333984375,0.197509765625
15.790,318,2981,1508,348,-0.560302734375,0.0704345703125,0.2493896484375
15.813,318,2490,1494,349,-0.560302734375,0.0704345703125,0.2493896484375
15.813,316,2176,1463,322,-0.6302490234375,0.0496826171875,0.187744140625
15.821,314,1711,1370,338,-0.703369140625,0.0487060546875,0.0533447265625
15.828,315,1305,1369,342,-0.70166015625,0.1260986328125,-0.0242919921875
15.837,315,1013,1331,330,-0.6400146484375,0.2623291015625,-0.07275390625
15.854,313,1004,1302,332,-0.5733642578125,0.3865966796875,-0.1243896484375
15.859,313,1012,1290,334,-0.5391845703125,0.4384765625,-0.13720703125
15.870,313,1116,1303,334,-0.5323486328125,0.4354248046875,-0.1031494140625
15.889,313,1282,1234,333,-0.5511474609375,0.4725341796875,-0.059326171875
15.890,313,1372,1266,332,-0.5841064453125,0.553955078125,-0.0233154296875
15.896,306,1529,1278,336,-0.6033935546875,0.5863037109375,-0.015625
15.926,313,1744,1306,334,-0.6224365234375,0.571044921875,-0.02685546875
15.927,299,1835,1318,336,-0.6636962890625,0.537353515625,-0.0203857421875
15.928,315,2058,1330,316,-0.70849609375,0.4500732421875,-0.0325927734375
15.940,314,2567,1357,337,-0.7430419921875,0.346435546875,-0.0845947265625
15.948,315,2847,1386,344,-0.7659912109375,0.2738037109375,-0.107421875
15.958,315,3066,1422,343,-0.7818603515625,0.2403564453125,-0.0848388671875
15.970,315,3147,1480,533,-0.7939453125,0.2803955078125,-0.04248046875
15.991,316,3147,1494,816,-0.7840576171875,0.3514404296875,-0.016357421875
15.992,301,3147,1523,1067,-0.7286376953125,0.374755859375,-0.0089111328125
16.019,323,3147,1598,1600,-0.617919921875,0.3221435546875,0.0386962890625
16.019,330,3147,1779,1891,-0.4708251953125,0.2091064453125,0.060546875
16.019,338,3147,1840,2128,-0.3671875,0.27734375,0.029296875
16.041,351,3147,2032,2440,-0.277099609375,0.5548095703125,0.1195068359375
16.042,343,3147,2129,2598,-0.1710205078125,0.6856689453125,0.2373046875
16.064,360,3147,2258,2820,-0.18310546875,0.6573486328125,0.2471923828125
16.064,371,3147,2325,3147,-0.3580322265625,0.6490478515625,0.22802734375
16.068,375,3147,2491,3147,-0.716064453125,0.79248046875,0.1583251953125
16.076,378,3147,2579,3147,-1.2637939453125,1.089599609375,-0.0374755859375
16.090,378,3147,2703,3147,-1.8536376953125,1.2613525390625,-0.35205078125
16.098,379,3147,2679,3147,-2.2481689453125,1.1961669921875,-0.5628662109375
16.106,377,3147,2613,3147,-2.1588134765625,0.92822265625,-0.4718017578125
16.134,375,3147,2453,3147,-1.508056640625,0.591552734375,-0.193359375
16.134,371,3147,2347,3147,-0.8780517578125,0.606689453125,0.0374755859375
16.136,371,3147,2310,3147,-0.6754150390625,0.93212890625,0.015380859375
16.150,371,3147,2310,3147,-0.80419921875,1.2462158203125,-0.1683349609375
16.158,371,3147,2231,3147,-1.2354736328125,1.4456787109375,-0.2679443359375
16.170,371,3147,2127,3147,-1.64501953125,1.3310546875,-0.27490234375
16.180,360,3147,1927,2807,-1.7001953125,0.958984375,-0.2230224609375
16.194,356,3147,1840,2372,-1.4744873046875,0.614990234375,-0.11767578125
16.196,351,3147,1801,1983,-1.1531982421875,0.3829345703125,0.0413818359375
16.222,330,3147,1602,1156,-0.822998046875,0.25048828125,0.18896484375
16.222,324,3147,1577,548,-0.54345703125,0.21142578125,0.216796875
16.228,322,2818,1559,360,-0.3975830078125,0.228271484375,0.18798828125
16.240,316,1821,1497,342,-0.4072265625,0.2305908203125,0.204833984375
16.248,316,1331,1456,338,-0.505126953125,0.1549072265625,0.1527099609375
16.256,316,922,1409,332,-0.5908203125,0.1195068359375,0.0093994140625
16.277,314,748,1359,331,-0.59619140625,0.1954345703125,-0.08203125
16.279,314,667,1321,321,-0.56103515625,0.2896728515625,-0.1246337890625
16.286,310,620,1274,330,-0.584716796875,0.34228515625,-0.1480712890625
16.300,310,659,1183,329,-0.6451416015625,0.292236328125,-0.137451171875
16.331,310,693,1148,332,-0.6632080078125,0.2017822265625,-0.1258544921875
16.331,308,692,1178,331,-0.6285400390625,0.2294921875,-0.11474609375
16.332,313,714,1213,330,-0.57470703125,0.36083984375,-0.0677490234375
16.339,310,737,1237,328,-0.53515625,0.4644775390625,-0.0072021484375
16.347,310,761,1271,328,-0.5269775390625,0.50390625,0.0318603515625
16.360,313,837,1312,334,-0.53662109375,0.5078125,0.07177734375
16.368,313,1038,1330,334,-0.54541015625,0.472412109375,0.1083984375
16.385,310,1375,1349,328,-0.5574951171875,0.4158935546875,0.1068115234375
16.398,315,1997,1440,342,-0.58642578125,0.3917236328125,0.0638427734375
16.399,316,2554,1470,324,-0.6492919921875,0.4205322265625,0.0009765625
16.407,315,2912,1506,346,-0.71875,0.4534912109375,-0.046630859375
16.437,318,3147,1553,731,-0.7255859375,0.4346923828125,-0.0640869140625
16.437,321,3147,1580,1078,-0.6561279296875,0.39794921875,-0.0140380859375
16.438,324,3147,1718,1387,-0.5435791015625,0.3204345703125,0.1099853515625
16.450,343,3147,1934,1920,-0.4229736328125,0.18359375,0.16748046875
16.459,348,3147,2041,2238,-0.3309326171875,0.1005859375,0.1773681640625
16.466,354,3147,2151,2471,-0.2799072265625,0.1016845703125,0.2353515625
16.480,360,3147,2287,2851,-0.281982421875,0.2725830078125,0.281494140625
16.490,364,3147,2359,3082,-0.41552734375,0.6536865234375,0.198974609375
16.500,373,3147,2435,3147,-0.8154296875,1.1658935546875,-0.113525390625
16.530,376,3147,2715,3147,-2.1192626953125,1.552734375,-0.8951416015625
16.531,378,3147,2689,3147,-2.1192626953125,1.552734375,-0.8951416015625
16.546,375,3147,2671,3147,-2.25830078125,0.705810546875,-0.3302001953125
16.548,376,3147,2627,3147,-1.475830078125,0.2427978515625,0.2269287109375
16.556,376,3147,2563,3147,-1.475830078125,0.2427978515625,0.2269287109375
16.571,375,3147,2479,3147,-0.6527099609375,0.6439208984375,0.4591064453125
16.578,373,3147,2479,3147,-0.9188232421875,0.9716796875,0.1004638671875
16.587,372,3147,2437,3147,-0.9188232421875,0.9716796875,0.1004638671875
