time,compression0,compression1,compression2,compression3,accel_x,accel_y,accel_z
0.000,792,895,689,314,-0.8851318359375,0.31982421875,-0.138671875
0.008,344,887,780,327,-0.8868408203125,0.29541015625,-0.129638671875
0.016,364,904,790,330,-0.8966064453125,0.2794189453125,-0.1121826171875
0.035,485,887,687,316,-0.90283203125,0.281982421875,-0.0870361328125
0.038,859,890,318,308,-0.9031982421875,0.2886962890625,-0.0631103515625
0.058,714,899,316,308,-0.90576171875,0.28759765625,-0.0511474609375
0.060,682,936,322,308,-0.9102783203125,0.2869873046875,-0.0458984375
0.070,351,932,809,327,-0.9158935546875,0.293212890625,-0.0428466796875
0.076,620,933,689,323,-0.9244384765625,0.3060302734375,-0.045166015625
0.090,837,957,316,308,-0.9364013671875,0.310791015625,-0.05126953125
0.098,846,978,315,308,-0.9525146484375,0.2999267578125,-0.062744140625
0.106,834,991,315,308,-0.965576171875,0.2919921875,-0.0750732421875
0.120,816,987,765,324,-0.9637451171875,0.294677734375,-0.0791015625
0.140,846,1000,330,307,-0.9547119140625,0.2882080078125,-0.0755615234375
0.141,859,1009,316,308,-0.9547119140625,0.2882080078125,-0.0755615234375
0.168,853,1071,332,308,-0.960693359375,0.260498046875,-0.0469970703125
0.169,883,1069,332,310,-0.9620361328125,0.28662109375,-0.0357666015625
0.169,883,1081,344,308,-0.9620361328125,0.28662109375,-0.0357666015625
0.180,909,1151,330,315,-0.9674072265625,0.3306884765625,-0.022216796875
0.188,865,1173,354,309,-0.974365234375,0.315673828125,-0.016357421875
0.196,922,1216,324,308,-0.974365234375,0.315673828125,-0.016357421875
0.210,418,1262,642,327,-0.9832763671875,0.2427978515625,0.0045166015625
0.218,922,1303,673,327,-0.98779296875,0.2171630859375,0.003662109375
0.226,944,1397,330,308,-0.98779296875,0.2171630859375,0.003662109375
0.240,927,1516,347,310,-1.0078125,0.19677734375,-0.029052734375
0.262,922,1575,678,327,-1.009765625,0.2034912109375,-0.036376953125
0.263,757,1616,371,308,-1.009765625,0.2034912109375,-0.036376953125
0.274,419,1646,867,331,-0.986328125,0.24560546875,-0.0120849609375
0.278,603,1693,673,324,-0.974853515625,0.2442626953125,-0.000732421875
0.286,740,1704,512,317,-0.974853515625,0.2442626953125,-0.000732421875
0.300,980,1774,333,310,-0.97509765625,0.2088623046875,0.0152587890625
0.316,985,1807,346,310,-0.9869384765625,0.1934814453125,0.0263671875
0.316,777,1808,452,313,-0.9869384765625,0.1934814453125,0.0263671875
0.340,966,1838,359,309,-1.0186767578125,0.1912841796875,0.0421142578125
0.340,526,1813,826,327,-1.016357421875,0.2054443359375,0.037353515625
0.346,430,1826,951,331,-1.016357421875,0.2054443359375,0.037353515625
0.369,1018,1855,390,314,-0.982666015625,0.25146484375,0.0322265625
0.370,992,1892,402,313,-0.982666015625,0.25146484375,0.0322265625
0.380,1038,1874,346,308,-0.96875,0.2586669921875,0.0299072265625
0.390,1039,1908,349,313,-0.9615478515625,0.2489013671875,0.0526123046875
0.398,1045,1900,354,310,-0.9615478515625,0.2489013671875,0.0526123046875
0.407,455,1904,820,326,-0.958740234375,0.2393798828125,0.067626953125
0.420,1047,1943,345,308,-0.9375,0.1890869140625,0.050537109375
0.428,1018,1978,377,310,-0.9375,0.1890869140625,0.050537109375
0.440,1014,1979,375,313,-0.921142578125,0.184814453125,0.0340576171875
0.450,1038,2035,359,310,-0.903076171875,0.1988525390625,0.0648193359375
0.467,1038,2098,348,310,-0.903076171875,0.1988525390625,0.0648193359375
0.469,1050,2127,348,313,-0.8963623046875,0.19970703125,0.085693359375
0.488,1063,2138,378,313,-0.8487548828125,0.18212890625,0.0758056640625
0.490,1055,2190,378,310,-0.8487548828125,0.18212890625,0.0758056640625
0.496,1085,2217,378,310,-0.8001708984375,0.16796875,0.0621337890625
0.510,1109,2391,383,310,-0.7166748046875,0.1617431640625,0.043701171875
0.518,1123,2541,384,313,-0.7166748046875,0.1617431640625,0.043701171875
0.526,1156,2683,364,313,-0.676513671875,0.14599609375,0.010498046875
0.542,401,2885,1199,344,-0.538818359375,0.1375732421875,-0.0452880859375
0.548,402,3020,1292,347,-0.538818359375,0.1375732421875,-0.0452880859375
0.569,411,3147,1366,372,-0.4560546875,0.158203125,0.02880859375
0.570,374,3147,1450,629,-0.3304443359375,0.1588134765625,0.097412109375
0.604,1456,3147,362,462,-0.23193359375,0.1424560546875,0.162109375
0.606,1413,3147,466,843,-0.2705078125,0.169677734375,0.2718505859375
0.606,478,3147,411,667,-0.46435546875,0.2718505859375,0.417236328125
0.635,1506,3147,382,740,-0.7701416015625,0.3280029296875,0.5430908203125
0.636,1555,3147,454,633,-1.102783203125,0.305419921875,0.608154296875
0.636,603,3147,1683,1290,-1.4732666015625,0.2882080078125,0.6416015625
0.649,521,3147,1704,1869,-1.8438720703125,0.1632080078125,0.6422119140625
0.649,753,3147,344,532,-2.1446533203125,-0.052490234375,0.5054931640625
0.672,401,3147,1878,1927,-2.3255615234375,-0.095947265625,0.20947265625
0.673,355,3147,1904,1864,-2.141845703125,0.1026611328125,-0.19287109375
0.676,537,3147,1588,1792,-1.5963134765625,0.4549560546875,-0.490234375
0.690,572,3147,1635,1813,-1.1798095703125,0.59423828125,-0.34375
0.706,386,3147,1888,1816,-1.204833984375,0.332763671875,0.146728515625
0.706,401,3147,1865,1770,-1.435302734375,0.0186767578125,0.53515625
0.720,586,3147,1580,1610,-1.52490234375,-0.1060791015625,0.634033203125
0.728,1066,3147,998,1399,-1.41943359375,-0.0545654296875,0.537109375
0.736,1681,3147,414,746,-1.23876953125,0.0489501953125,0.387939453125
0.750,499,3147,1267,1320,-1.0802001953125,0.1134033203125,0.3043212890625
0.758,375,3147,1669,1323,-0.9698486328125,0.112548828125,0.285888671875
0.771,879,3147,996,1025,-0.899658203125,0.0655517578125,0.271728515625
0.785,1103,3147,1129,1004,-0.8636474609375,0.039306640625,0.2388916015625
0.789,750,3147,1132,894,-0.854248046875,0.0625,0.1834716796875
0.796,532,3147,1283,739,-0.8594970703125,0.104248046875,0.1162109375
0.815,431,3147,1268,505,-0.8612060546875,0.130859375,0.0869140625
0.818,423,3147,1278,357,-0.86669921875,0.122802734375,0.083740234375
0.826,415,3039,1239,348,-0.8736572265625,0.10107421875,0.056884765625
0.840,411,2645,1198,348,-0.8626708984375,0.1142578125,0.00537109375
0.850,406,2494,1173,345,-0.84033203125,0.1302490234375,-0.0404052734375
0.856,402,2325,1143,346,-0.822509765625,0.099609375,-0.0625
0.877,391,2263,1101,338,-0.8199462890625,0.0716552734375,-0.0672607421875
0.878,391,2197,1092,342,-0.830322265625,0.0960693359375,-0.038330078125
0.886,387,2105,1093,338,-0.8355712890625,0.1298828125,0.0323486328125
0.900,377,2019,1078,336,-0.8292236328125,0.1202392578125,0.13134765625
0.909,371,1936,1079,336,-0.8204345703125,0.06982421875,0.228759765625
0.917,364,1927,1079,336,-0.8145751953125,0.0203857421875,0.2835693359375
0.930,361,1927,1097,334,-0.804931640625,-0.0010986328125,0.2806396484375
0.938,361,2005,1104,338,-0.789306640625,0.0018310546875,0.2401123046875
0.952,362,2076,1108,336,-0.7705078125,0.029052734375,0.1859130859375
0.960,363,2221,1125,334,-0.758056640625,0.0758056640625,0.142578125
0.968,364,2337,1138,338,-0.7652587890625,0.1259765625,0.138671875
0.986,364,2375,1156,338,-0.764892578125,0.1658935546875,0.1519775390625
0.991,371,2621,1216,336,-0.7335205078125,0.172607421875,0.1441650390625
0.998,373,2780,1254,346,-0.6903076171875,0.138916015625,0.112548828125
1.006,374,2968,1306,347,-0.63232421875,0.1015625,0.0469970703125
1.020,379,3147,1372,346,-0.5531005859375,0.075927734375,-0.030517578125
1.028,378,3147,1409,445,-0.460693359375,0.055908203125,-0.09521484375
1.041,383,3147,1473,594,-0.3519287109375,0.07421875,-0.1480712890625
1.054,391,3147,1544,846,-0.2689208984375,0.146728515625,-0.135986328125
1.058,414,3147,1497,992,-0.260009765625,0.2445068359375,-0.02392578125
1.081,774,3147,344,894,-0.341552734375,0.291015625,0.1334228515625
1.082,426,3147,1761,1537,-0.537353515625,0.1715087890625,0.3399658203125
1.088,1766,3147,348,584,-0.860107421875,-0.0928955078125,0.639892578125
1.096,698,3147,1509,1779,-1.2254638671875,-0.2730712890625,0.82080078125
1.110,849,3147,1524,1980,-1.538330078125,-0.1669921875,0.7554931640625
1.118,879,3147,1531,2035,-1.8255615234375,0.1009521484375,0.59326171875
1.127,883,3147,1652,2160,-2.1033935546875,0.2945556640625,0.438232421875
1.140,497,3147,1970,2176,-2.2884521484375,0.4007568359375,0.3018798828125
1.164,678,3147,1650,2007,-2.13427734375,0.5062255859375,0.074951171875
1.164,891,3147,1555,1960,-1.5885009765625,0.6641845703125,-0.1676025390625
1.170,749,3147,1653,1922,-1.2249755859375,0.703857421875,-0.121337890625
1.185,723,3147,1783,1869,-1.4044189453125,0.4180908203125,0.2037353515625
1.193,778,3147,1468,1729,-1.7021484375,0.0361328125,0.4765625
1.200,962,3147,1312,1583,-1.7288818359375,-0.112060546875,0.521728515625
1.208,1215,3147,1399,1527,-1.5479736328125,-0.0546875,0.431640625
1.216,527,3147,1636,1445,-1.33935546875,0.01513671875,0.3404541015625
1.232,533,3147,1564,1274,-1.1688232421875,0.0654296875,0.2767333984375
1.238,465,3147,1613,1175,-1.0238037109375,0.1304931640625,0.228759765625
1.246,473,3147,1562,1050,-0.899658203125,0.1767578125,0.1959228515625
1.266,548,3147,1348,710,-0.8074951171875,0.2037353515625,0.1622314453125
1.268,816,3147,1050,468,-0.7342529296875,0.205078125,0.1165771484375
1.288,648,3095,1097,344,-0.7342529296875,0.205078125,0.1165771484375
1.290,578,2448,991,334,-0.6080322265625,0.0584716796875,0.0048828125
1.298,1167,2310,387,313,-0.5777587890625,-0.0159912109375,-0.05517578125
1.307,1173,2141,373,310,-0.5777587890625,-0.0159912109375,-0.05517578125
1.320,1160,1904,364,310,-0.638427734375,0.025390625,-0.2098388671875
1.328,1155,1830,371,310,-0.6905517578125,0.09130859375,-0.152587890625
1.338,1155,1821,375,310,-0.6905517578125,0.09130859375,-0.152587890625
1.351,512,1733,1043,328,-0.7449951171875,0.116455078125,0.1173095703125
1.362,441,1739,1103,332,-0.7542724609375,0.09716796875,0.1781005859375
1.366,494,1772,1041,328,-0.7542724609375,0.09716796875,0.1781005859375
1.392,829,1846,693,318,-0.769775390625,0.0833740234375,0.1866455078125
1.392,1170,1927,388,308,-0.7861328125,0.0701904296875,0.1968994140625
1.396,1064,1997,506,316,-0.7861328125,0.0701904296875,0.1968994140625
1.411,893,2105,704,321,-0.8358154296875,0.1097412109375,0.20947265625
1.418,865,2190,731,317,-0.857421875,0.14990234375,0.1536865234375
1.426,859,2231,748,323,-0.857421875,0.14990234375,0.1536865234375
1.445,829,2330,793,323,-0.8651123046875,0.20068359375,0.0494384765625
1.448,813,2370,816,326,-0.8555908203125,0.1982421875,0.0433349609375
1.456,766,2492,864,328,-0.8555908203125,0.1982421875,0.0433349609375
1.470,744,2801,920,328,-0.796630859375,0.1629638671875,0.0599365234375
1.498,731,2973,963,330,-0.74072265625,0.145263671875,0.0272216796875
1.498,740,3076,999,334,-0.74072265625,0.145263671875,0.0272216796875
1.500,782,3147,1065,372,-0.5657958984375,0.12890625,-0.0540771484375
1.508,787,3147,1093,513,-0.5657958984375,0.12890625,-0.0540771484375
1.516,803,3147,1155,691,-0.4586181640625,0.1087646484375,-0.063720703125
1.530,846,3147,1228,934,-0.2421875,0.0926513671875,-0.0421142578125
1.538,867,3147,1282,1118,-0.2421875,0.0926513671875,-0.0421142578125
1.552,894,3147,1303,1289,-0.2188720703125,0.07275390625,0.0252685546875
1.566,1908,3147,456,625,-0.607666015625,-0.28466796875,0.4315185546875
1.568,458,3147,1969,1808,-0.607666015625,-0.28466796875,0.4315185546875
1.576,1065,3147,1838,2076,-0.889404296875,-0.440673828125,0.6192626953125
1.595,1874,3147,517,746,-1.6060791015625,0.142333984375,0.6622314453125
1.606,1582,3147,601,1681,-1.6060791015625,0.142333984375,0.6622314453125
1.607,1129,3147,1555,2561,-2.0196533203125,0.337158203125,0.5164794921875
1.620,481,3147,2122,2832,-2.4383544921875,0.4495849609375,0.1378173828125
1.628,540,3147,2203,2867,-2.4383544921875,0.4495849609375,0.1378173828125
1.636,376,3147,2310,2909,-1.9788818359375,0.670166015625,-0.1429443359375
1.650,387,3147,2279,2699,-1.3038330078125,1.0894775390625,0.0555419921875
1.658,411,3147,2225,2541,-1.3038330078125,1.0894775390625,0.0555419921875
1.669,418,3147,2172,2407,-1.6668701171875,0.6812744140625,0.409912109375
1.695,409,3147,2061,2135,-1.7698974609375,0.12548828125,0.396728515625
1.695,487,3147,1918,1920,-1.7698974609375,0.12548828125,0.396728515625
1.696,495,3147,1874,1785,-1.5421142578125,0.1505126953125,0.2445068359375
1.716,468,3147,1820,1545,-1.3392333984375,0.1121826171875,0.1771240234375
1.718,375,3147,1816,1330,-1.165283203125,0.128173828125,0.1663818359375
1.726,365,3147,1770,1079,-0.9744873046875,0.1910400390625,0.111083984375
1.740,359,3147,1641,587,-0.78076171875,0.21875,0.041748046875
1.748,348,3147,1557,363,-0.614501953125,0.2352294921875,0.0263671875
1.756,346,3022,1445,353,-0.5009765625,0.240478515625,0.0203857421875
1.771,337,2492,1278,348,-0.4423828125,0.186767578125,-0.0372314453125
1.778,334,2308,1245,346,-0.4459228515625,0.07373046875,-0.15673828125
1.797,331,2151,1224,346,-0.51806640625,-0.025634765625,-0.271484375
1.800,334,1955,1189,337,-0.62158203125,-0.04638671875,-0.268310546875
1.811,336,1840,1206,336,-0.695556640625,-0.0025634765625,-0.131103515625
1.816,338,1861,1201,336,-0.7093505859375,0.024658203125,0.062744140625
1.830,401,1934,1155,333,-0.697998046875,-0.0128173828125,0.2125244140625
1.838,359,1973,1199,334,-0.6981201171875,-0.0546875,0.25048828125
1.846,363,2012,1198,334,-0.715576171875,-0.028076171875,0.1983642578125
1.861,375,2115,1198,334,-0.7481689453125,0.066650390625,0.1396484375
1.878,376,2176,1209,334,-0.7886962890625,0.1759033203125,0.134765625
1.879,376,2266,1217,334,-0.831298828125,0.2662353515625,0.17724609375
1.900,376,2381,1241,336,-0.8568115234375,0.3311767578125,0.214111328125
1.901,378,2415,1251,336,-0.85205078125,0.326904296875,0.21044921875
1.906,373,2516,1261,338,-0.844970703125,0.2574462890625,0.1795654296875
1.921,371,2593,1271,337,-0.8480224609375,0.211181640625,0.145751953125
1.929,370,2677,1292,346,-0.8441162109375,0.2049560546875,0.1065673828125
1.942,370,2790,1357,344,-0.828857421875,0.1953125,0.0576171875
1.950,371,2937,1422,347,-0.811767578125,0.181640625,0.0128173828125
1.958,376,3117,1474,348,-0.80322265625,0.171142578125,-0.012939453125
1.966,382,3147,1519,359,-0.801513671875,0.167236328125,-0.006591796875
1.983,387,3147,1596,548,-0.77099609375,0.17431640625,0.0152587890625
1.999,388,3147,1640,695,-0.690673828125,0.169189453125,0.020751953125
2.000,386,3147,1695,766,-0.5865478515625,0.1279296875,0.0103759765625
2.011,427,3147,1769,895,-0.4571533203125,0.0594482421875,-0.0068359375
2.018,551,3147,1634,986,-0.3280029296875,-0.032470703125,-0.0252685546875
2.026,882,3147,1634,1189,-0.286376953125,-0.132568359375,0.031982421875
2.041,1007,3147,1443,1370,-0.3642578125,-0.19189453125,0.21875
2.055,512,3147,1948,1691,-0.5137939453125,-0.239501953125,0.4625244140625
2.056,673,3147,1862,1912,-0.74560546875,-0.1956787109375,0.676513671875
2.070,724,3147,1912,2271,-1.1124267578125,0.0989990234375,0.7962646484375
2.085,594,3147,2114,2440,-1.5489501953125,0.420654296875,0.7686767578125
2.086,540,3147,2249,2565,-1.974853515625,0.4876708984375,0.6256103515625
2.108,521,3147,2258,2638,-2.3297119140625,0.43603515625,0.3759765625
2.109,586,3147,2049,2364,-2.3916015625,0.5172119140625,0.014404296875
2.118,1108,3147,2053,2330,-1.923828125,0.7664794921875,-0.3944091796875
2.130,391,3147,2435,2207,-1.36669921875,1.0115966796875,-0.5213623046875
2.139,430,3147,2375,2128,-1.3709716796875,0.9498291015625,-0.14599609375
2.146,407,3147,2340,1983,-1.6917724609375,0.511474609375,0.3359375
2.167,466,3147,2204,1783,-1.80419921875,0.0941162109375,0.5433349609375
2.168,419,3147,2209,1652,-1.66357421875,-0.020751953125,0.49072265625
2.181,401,3147,2136,1536,-1.42431640625,-0.0146484375,0.36083984375
2.208,388,3147,2028,1352,-1.1820068359375,0.0029296875,0.3060302734375
2.209,382,3147,1980,1214,-0.9815673828125,0.1009521484375,0.2884521484375
2.209,391,3147,1894,1012,-0.83056640625,0.206298828125,0.2176513671875
2.221,379,3147,1794,710,-0.717041015625,0.24560546875,0.129638671875
2.228,364,3147,1741,553,-0.6219482421875,0.2479248046875,0.0655517578125
2.237,359,3147,1683,378,-0.5472412109375,0.211669921875,0.015380859375
2.250,362,2953,1549,359,-0.514892578125,0.1275634765625,-0.03759765625
2.258,360,2665,1516,356,-0.542236328125,0.0350341796875,-0.0904541015625
2.266,357,2419,1464,354,-0.6405029296875,-0.0162353515625,-0.1375732421875
2.288,359,2310,1383,353,-0.74267578125,-0.0125732421875,-0.17138671875
2.288,355,2310,1359,354,-0.78955078125,0.0242919921875,-0.154296875
2.311,348,2221,1323,348,-0.810546875,0.097412109375,-0.066162109375
2.312,348,2204,1260,345,-0.8206787109375,0.159423828125,0.04931640625
2.318,356,2190,1241,347,-0.81591796875,0.14208984375,0.151123046875
2.327,363,2124,1233,344,-0.8038330078125,0.0860595703125,0.20703125
2.341,372,2183,1225,344,-0.8016357421875,0.0618896484375,0.2037353515625
2.348,369,2217,1236,346,-0.8170166015625,0.087158203125,0.1861572265625
2.356,378,2279,1225,346,-0.8350830078125,0.137939453125,0.1866455078125
2.407,356,2428,1260,344,-0.84130859375,0.17626953125,0.18896484375
2.416,354,2498,1278,346,-0.8421630859375,0.19189453125,0.1756591796875
2.421,332,2584,1251,342,-0.842041015625,0.203857421875,0.1424560546875
2.426,355,2698,1330,348,-0.8341064453125,0.209228515625,0.0972900390625
2.427,356,2728,1335,338,-0.8231201171875,0.196044921875,0.070556640625
2.427,359,2769,1435,352,-0.8231201171875,0.196044921875,0.070556640625
2.430,361,2943,1541,351,-0.8074951171875,0.140625,0.08154296875
2.440,363,3095,1584,348,-0.79248046875,0.1192626953125,0.0743408203125
2.446,364,3147,1613,356,-0.79248046875,0.1192626953125,0.0743408203125
2.461,369,3147,1678,498,-0.67431640625,0.11572265625,0.0087890625
2.468,371,3147,1733,705,-0.56103515625,0.1011962890625,-0.019775390625
2.476,371,3147,1785,778,-0.56103515625,0.1011962890625,-0.019775390625
2.490,384,3147,1874,994,-0.288330078125,-0.0030517578125,-0.1251220703125
2.516,391,3147,1914,1156,-0.2864990234375,0.0218505859375,-0.1181640625
2.524,401,3147,1978,1375,-0.2864990234375,0.0218505859375,-0.1181640625
2.527,403,3147,2047,1786,-0.7569580078125,0.129638671875,0.174072265625
2.528,391,3147,2105,2005,-1.033935546875,-0.0137939453125,0.4339599609375
2.537,600,3147,1961,2167,-1.033935546875,-0.0137939453125,0.4339599609375
2.550,411,3147,2228,2472,-1.2708740234375,0.0941162109375,0.552734375
2.558,1336,3147,1627,2472,-1.3692626953125,0.374755859375,0.4888916015625
2.566,519,3147,2207,2713,-1.3692626953125,0.374755859375,0.4888916015625
2.581,691,3147,1310,2409,-1.8619384765625,0.4052734375,0.47998046875
2.590,984,3147,2122,2715,-2.0625,0.4114990234375,0.4874267578125
2.596,2306,3147,713,561,-2.0625,0.4114990234375,0.4874267578125
2.622,2263,3147,373,772,-1.3946533203125,0.7159423828125,0.0606689453125
2.623,2190,3147,469,1051,-1.190673828125,0.76220703125,0.0936279296875
2.627,2113,3147,510,1206,-1.190673828125,0.76220703125,0.0936279296875
2.640,1746,3147,561,1083,-1.725830078125,0.0416259765625,0.54150390625
2.648,2087,3147,455,959,-1.725830078125,0.0416259765625,0.54150390625
2.656,2058,3147,442,917,-1.6966552734375,-0.088623046875,0.502685546875
2.670,1996,3147,430,865,-1.2802734375,0.005126953125,0.327392578125
2.678,1967,3147,409,794,-1.2802734375,0.005126953125,0.327392578125
2.693,713,3147,1624,1743,-1.065185546875,0.0926513671875,0.294677734375
2.700,1546,3147,729,1148,-0.7188720703125,0.2882080078125,0.12548828125
2.736,1739,3147,433,696,-0.7188720703125,0.2882080078125,0.12548828125
2.737,1627,3147,497,693,-0.6483154296875,0.3651123046875,0.0582275390625
2.737,1390,3147,648,607,-0.6375732421875,0.2955322265625,0.0384521484375
2.738,1303,3147,666,430,-0.6375732421875,0.2955322265625,0.0384521484375
2.747,1185,3147,710,332,-0.6417236328125,0.175048828125,-0.0032958984375
2.761,722,2984,1094,337,-0.6585693359375,-0.042724609375,-0.2060546875
2.769,1312,2890,498,315,-0.6585693359375,-0.042724609375,-0.2060546875
2.777,1173,2741,625,321,-0.6822509765625,-0.0357666015625,-0.2220458984375
2.796,648,2608,1101,338,-0.7379150390625,0.1453857421875,0.072998046875
2.800,1067,2648,693,324,-0.7379150390625,0.1453857421875,0.072998046875
2.844,853,2638,900,330,-0.7523193359375,0.151611328125,0.210693359375
2.846,1382,2756,385,310,-0.781005859375,0.08837890625,0.2413330078125
2.846,1413,2843,387,310,-0.781005859375,0.08837890625,0.2413330078125
2.847,1455,2919,371,315,-0.8187255859375,0.1282958984375,0.2332763671875
2.847,1509,2959,338,310,-0.8572998046875,0.173583984375,0.244384765625
2.861,1543,3064,355,310,-0.8829345703125,0.2015380859375,0.2117919921875
2.869,1557,3110,356,310,-0.8829345703125,0.2015380859375,0.2117919921875
2.878,1577,3147,356,312,-0.863525390625,0.2174072265625,0.1712646484375
2.940,1604,3147,361,308,-0.8365478515625,0.226318359375,0.1190185546875
2.941,1611,3147,361,328,-0.8365478515625,0.226318359375,0.1190185546875
2.942,1635,3147,364,326,-0.8314208984375,0.1990966796875,0.11376953125
2.942,1662,3147,370,389,-0.778076171875,0.102294921875,0.068359375
2.943,1681,3147,371,420,-0.778076171875,0.102294921875,0.068359375
2.943,1711,3147,371,455,-0.7054443359375,0.068359375,0.026123046875
2.956,1806,3147,375,519,-0.439453125,0.0440673828125,-0.08056640625
2.960,1865,3147,376,567,-0.439453125,0.0440673828125,-0.08056640625
2.967,1931,3147,382,588,-0.25537109375,0.0599365234375,-0.1392822265625
2.981,2053,3147,371,584,-0.0848388671875,0.0849609375,-0.18359375
2.990,2102,3147,385,666,-0.082763671875,0.120849609375,-0.1259765625
3.001,1229,3147,1733,1920,-0.3402099609375,0.07080078125,0.0543212890625
3.011,912,3147,1416,1598,-0.748779296875,-0.1131591796875,0.310791015625
3.024,976,3147,1789,2507,-1.154541015625,-0.215576171875,0.5760498046875
3.028,1331,3147,1372,2432,-1.5076904296875,-0.0582275390625,0.7764892578125
3.042,694,3147,2220,3042,-1.8114013671875,0.2081298828125,0.84521484375
3.049,1504,3147,1287,2671,-2.081787109375,0.3826904296875,0.745849609375
3.057,1840,3147,1743,3000,-2.2926025390625,0.4976806640625,0.5391845703125
3.075,531,3147,2258,3093,-2.174560546875,0.665283203125,0.21337890625
3.079,865,3147,1973,2912,-1.6263427734375,0.912109375,-0.121826171875
3.087,782,3147,2128,2833,-1.2542724609375,1.006103515625,-0.044189453125
3.103,935,3147,1985,2568,-1.4327392578125,0.6595458984375,0.3663330078125
3.110,652,3147,2104,2443,-1.73291015625,0.09912109375,0.593505859375
3.131,923,3147,1819,2296,-1.7890625,-0.1761474609375,0.52197265625
3.134,922,3147,1743,2061,-1.6365966796875,-0.1151123046875,0.3365478515625
3.151,904,3147,1695,1980,-1.3934326171875,-0.0107421875,0.1937255859375
3.151,890,3147,1666,1881,-1.14599609375,0.0703125,0.1380615234375
3.161,808,3147,1669,1652,-0.9305419921875,0.21337890625,0.1387939453125
3.169,829,3147,1540,1419,-0.75048828125,0.32958984375,0.138671875
3.181,806,3147,1490,1173,-0.6424560546875,0.35791015625,0.150634765625
3.191,777,3147,1411,808,-0.615966796875,0.3426513671875,0.1661376953125
3.205,576,3147,1561,625,-0.639404296875,0.281005859375,0.14208984375
3.207,599,3147,1434,430,-0.6715087890625,0.174072265625,0.0855712890625
3.234,571,2962,1343,349,-0.681396484375,0.04638671875,0.0076904296875
3.234,525,2683,1313,348,-0.69287109375,-0.0733642578125,-0.08837890625
3.240,479,2514,1267,349,-0.7176513671875,-0.14208984375,-0.1676025390625
3.255,479,2266,1148,342,-0.7435302734375,-0.111572265625,-0.14794921875
3.260,437,2176,1151,345,-0.7552490234375,0.005615234375,-0.0125732421875
3.267,406,2183,1175,344,-0.73681640625,0.0986328125,0.1473388671875
3.281,454,2102,1123,336,-0.7142333984375,0.1075439453125,0.2412109375
3.294,473,2161,1103,334,-0.71435546875,0.1014404296875,0.2371826171875
3.297,584,2254,1004,332,-0.73486328125,0.1497802734375,0.1842041015625
3.311,387,2465,1220,342,-0.75341796875,0.2158203125,0.14990234375
3.334,375,2526,1243,345,-0.75634765625,0.2373046875,0.1546630859375
3.334,398,2591,1243,338,-0.7442626953125,0.21923828125,0.167236328125
3.341,418,2765,1287,345,-0.7247314453125,0.1861572265625,0.1624755859375
3.349,428,2870,1348,347,-0.7061767578125,0.1475830078125,0.1455078125
3.364,439,3032,1433,352,-0.6888427734375,0.1119384765625,0.125732421875
3.371,458,3147,1546,363,-0.6600341796875,0.070068359375,0.11279296875
3.380,466,3147,1596,513,-0.60400390625,0.0450439453125,0.09814453125
3.387,473,3147,1656,721,-0.5255126953125,0.0589599609375,0.076904296875
3.415,487,3147,1762,914,-0.4293212890625,0.0675048828125,0.048828125
3.415,485,3147,1815,1149,-0.3133544921875,0.0384521484375,-0.0157470703125
3.418,532,3147,1822,1344,-0.2667236328125,0.00439453125,-0.0465087890625
3.440,1721,3147,548,895,-0.362548828125,-0.0667724609375,0.0426025390625
3.440,2089,3147,403,744,-0.53271484375,-0.2196044921875,0.1678466796875
3.449,1813,3147,393,722,-0.7371826171875,-0.302978515625,0.3306884765625
3.473,1173,3147,1830,2430,-1.033203125,-0.1484375,0.5438232421875
3.474,548,3147,2330,2698,-1.4383544921875,0.166015625,0.6898193359375
3.478,897,3147,1983,2807,-1.8399658203125,0.3984375,0.6904296875
3.491,1874,3147,1067,2372,-2.1304931640625,0.410888671875,0.58935546875
3.499,2419,3147,519,2955,-2.2667236328125,0.3209228515625,0.49609375
3.519,2409,3147,409,883,-2.0657958984375,0.3853759765625,0.3135986328125
3.521,2320,3147,540,1464,-1.5284423828125,0.7005615234375,-0.041259765625
3.545,1215,3147,1641,2593,-1.1546630859375,0.9248046875,-0.188720703125
3.545,2287,3147,508,1217,-1.2989501953125,0.70166015625,0.08544921875
3.552,1231,3147,1440,2316,-1.6669921875,0.19091796875,0.4376220703125
3.560,1960,3147,748,1704,-1.813232421875,-0.162353515625,0.5596923828125
3.568,1206,3147,1477,2220,-1.671142578125,-0.1668701171875,0.4534912109375
3.581,1191,3147,1422,2037,-1.4014892578125,-0.025146484375,0.279052734375
3.589,1081,3147,1471,1952,-1.1395263671875,0.1107177734375,0.1763916015625
3.597,987,3147,1528,1874,-0.932373046875,0.2586669921875,0.1640625
3.615,895,3147,1521,1611,-0.791748046875,0.38134765625,0.1658935546875
3.620,854,3147,1492,1415,-0.7373046875,0.425048828125,0.157470703125
3.645,840,3147,1447,1243,-0.749755859375,0.4027099609375,0.14599609375
3.646,1037,3147,1070,883,-0.764892578125,0.3193359375,0.124755859375
3.649,1038,3147,994,706,-0.7386474609375,0.2001953125,0.092041015625
3.657,991,3147,986,591,-0.7386474609375,0.2001953125,0.092041015625
3.671,917,3147,951,336,-0.6343994140625,-0.0357666015625,0.0234375
3.683,873,3090,920,334,-0.636474609375,-0.1136474609375,-0.004638671875
3.687,867,3051,910,333,-0.636474609375,-0.1136474609375,-0.004638671875
3.701,835,2677,871,328,-0.6771240234375,-0.060302734375,0.050537109375
3.709,744,2625,780,327,-0.7193603515625,0.04296875,0.1385498046875
3.717,1281,2671,391,313,-0.7193603515625,0.04296875,0.1385498046875
3.752,1306,2713,362,310,-0.8212890625,0.1094970703125,0.167236328125
3.753,545,2672,1104,338,-0.8212890625,0.1094970703125,0.167236328125
3.761,695,2790,1065,334,-0.8414306640625,0.1949462890625,0.1827392578125
3.769,589,2844,1183,344,-0.8421630859375,0.193115234375,0.2420654296875
3.777,607,2904,1176,344,-0.8421630859375,0.193115234375,0.2420654296875
3.791,625,3008,1231,342,-0.8460693359375,0.1373291015625,0.260498046875
3.799,631,3064,1253,344,-0.8370361328125,0.118408203125,0.2113037109375
3.807,636,3120,1274,344,-0.8370361328125,0.118408203125,0.2113037109375
3.821,646,3147,1306,345,-0.817626953125,0.1058349609375,0.122314453125
3.843,654,3147,1330,402,-0.7783203125,0.1114501953125,0.0838623046875
3.845,666,3147,1355,523,-0.7783203125,0.1114501953125,0.0838623046875
3.857,685,3147,1419,698,-0.62158203125,0.1192626953125,0.02099609375
3.861,696,3147,1443,829,-0.4862060546875,0.107666015625,-0.0350341796875
3.868,710,3147,1483,1014,-0.4862060546875,0.107666015625,-0.0350341796875
3.881,734,3147,1544,1323,-0.3228759765625,0.138671875,-0.0870361328125
3.894,485,3147,1892,1591,-0.3228759765625,0.138671875,-0.0870361328125
3.897,2024,3147,371,603,-0.3822021484375,0.1468505859375,-0.0001220703125
3.911,1005,3147,355,1785,-0.6593017578125,-0.0819091796875,0.1961669921875
3.922,2223,3147,430,1497,-0.6593017578125,-0.0819091796875,0.1961669921875
3.927,2257,3147,646,1470,-0.80859375,-0.14794921875,0.355224609375
3.943,2330,3147,702,1705,-1.3572998046875,0.13037109375,0.615478515625
3.950,683,3147,2230,2538,-1.3572998046875,0.13037109375,0.615478515625
3.970,1622,3147,912,1730,-1.683349609375,0.30419921875,0.688232421875
3.971,2370,3147,536,1274,-2.1104736328125,0.3018798828125,0.6114501953125
3.979,2323,3147,527,1390,-2.1104736328125,0.3018798828125,0.6114501953125
3.987,1968,3147,1278,2139,-2.0322265625,0.3480224609375,0.401123046875
4.001,1478,3147,1409,2111,-1.13916015625,0.607421875,-0.154296875
4.010,1109,3147,1882,2275,-1.13916015625,0.607421875,-0.154296875
4.024,1289,3147,1627,2190,-1.21337890625,0.5196533203125,0.0137939453125
4.031,2281,3147,548,1224,-1.77294921875,-0.1455078125,0.547119140625
4.052,2170,3147,594,1262,-1.77294921875,-0.1455078125,0.547119140625
4.053,2115,3147,621,1292,-1.69580078125,-0.136962890625,0.5118408203125
4.064,497,3147,2235,2012,-1.26318359375,0.046875,0.28173828125
4.070,428,3147,2233,1908,-1.26318359375,0.046875,0.28173828125
4.082,764,3147,1501,1577,-1.0579833984375,0.1875,0.2100830078125
4.091,1529,3147,1025,1231,-0.907958984375,0.3443603515625,0.162353515625
4.100,1076,3147,1117,1064,-0.8502197265625,0.413818359375,0.151123046875
4.107,1351,3147,883,830,-0.83740234375,0.402099609375,0.1619873046875
4.127,803,3147,1204,465,-0.80810546875,0.3463134765625,0.170166015625
4.129,797,3130,1156,345,-0.748291015625,0.2681884765625,0.15087890625
4.154,867,2576,844,325,-0.6668701171875,0.16748046875,0.08251953125
4.155,1239,2217,376,310,-0.5994873046875,0.039794921875,-0.0528564453125
4.159,1188,2047,361,313,-0.576416015625,-0.080078125,-0.1866455078125
4.168,1163,1865,363,309,-0.587890625,-0.1131591796875,-0.19873046875
4.181,1163,1742,360,313,-0.609619140625,-0.0755615234375,-0.0650634765625
4.195,1170,1735,354,310,-0.6265869140625,-0.0546875,0.1236572265625
4.197,1167,1755,361,311,-0.6490478515625,-0.0362548828125,0.2413330078125
4.215,1191,1914,342,308,-0.6910400390625,0.0296630859375,0.2484130859375
4.219,1199,2014,346,310,-0.738037109375,0.1263427734375,0.20849609375
4.229,1213,2098,344,308,-0.7744140625,0.19580078125,0.18603515625
4.254,1239,2326,346,310,-0.786865234375,0.220947265625,0.1920166015625
4.255,1268,2430,347,308,-0.7769775390625,0.2314453125,0.19775390625
4.257,1278,2465,355,309,-0.7667236328125,0.22412109375,0.203369140625
4.271,1359,2724,361,310,-0.767333984375,0.188232421875,0.2216796875
4.280,1434,2877,365,310,-0.781005859375,0.152099609375,0.233154296875
4.288,1504,3010,371,310,-0.8017578125,0.1273193359375,0.214599609375
4.307,1580,3147,375,310,-0.8062744140625,0.10791015625,0.1585693359375
4.309,1611,3147,376,369,-0.76416015625,0.090087890625,0.080322265625
4.321,1666,3147,378,409,-0.6783447265625,0.0704345703125,0.025390625
4.331,1768,3147,382,482,-0.5650634765625,0.0665283203125,0.0126953125
4.339,1798,3147,388,526,-0.433837890625,0.09521484375,0.0133056640625
4.359,1874,3147,400,589,-0.31787109375,0.1285400390625,0.01953125
4.362,2032,3147,431,750,-0.287109375,0.0716552734375,0.056396484375
4.371,2155,3147,400,739,-0.3941650390625,-0.121826171875,0.1058349609375
4.378,2127,3147,508,1031,-0.5693359375,-0.34033203125,0.1793212890625
4.392,1604,3147,1018,1207,-0.7508544921875,-0.3768310546875,0.3341064453125
4.400,2394,3147,402,782,-1.0101318359375,-0.14599609375,0.4822998046875
4.408,2203,3147,625,1474,-1.3887939453125,0.2252197265625,0.5587158203125
4.435,2514,3147,426,936,-1.7801513671875,0.47705078125,0.5849609375
4.435,545,3147,2573,2929,-2.0889892578125,0.49462890625,0.5858154296875
4.438,630,3147,2296,2958,-2.2862548828125,0.471435546875,0.5501708984375
4.460,750,3147,2235,2648,-2.1229248046875,0.633056640625,0.285888671875
4.460,2477,3147,514,1241,-1.5552978515625,0.968994140625,-0.164794921875
4.469,1552,3147,1488,2231,-1.1441650390625,1.12060546875,-0.32373046875
4.482,2498,3147,458,874,-1.2861328125,0.7786865234375,-0.015380859375
4.490,2075,3147,642,1411,-1.6556396484375,0.2149658203125,0.3602294921875
4.497,2519,3147,360,578,-1.7635498046875,-0.0928955078125,0.4918212890625
4.511,2110,3147,826,1336,-1.583740234375,-0.0909423828125,0.4488525390625
4.519,1904,3147,373,601,-1.3380126953125,-0.013427734375,0.352294921875
4.540,1789,3147,424,1326,-1.139892578125,0.039306640625,0.2720947265625
4.541,1499,3147,1026,1306,-0.9822998046875,0.12451171875,0.2197265625
4.554,1669,3147,803,1095,-0.8408203125,0.227783203125,0.14892578125
4.593,1715,3147,712,894,-0.7333984375,0.316162109375,0.0767822265625
4.594,871,3147,1413,794,-0.682861328125,0.3946533203125,0.02734375
4.598,660,3147,1632,644,-0.669189453125,0.405029296875,-0.007080078125
4.601,517,3147,1703,526,-0.6722412109375,0.3145751953125,-0.0128173828125
4.602,445,3147,1608,371,-0.68798828125,0.189208984375,0.006103515625
4.609,470,3128,1527,359,-0.70166015625,0.0828857421875,0.0238037109375
4.617,465,3006,1471,359,-0.7166748046875,0.0025634765625,0.0419921875
4.653,441,2734,1434,351,-0.7200927734375,-0.0518798828125,0.0604248046875
4.667,435,2651,1370,355,-0.7152099609375,-0.0467529296875,0.0843505859375
4.667,456,2565,1289,349,-0.7279052734375,0.0382080078125,0.1322021484375
4.668,533,2605,1166,351,-0.747314453125,0.104248046875,0.1925048828125
4.669,636,2581,1057,338,-0.763671875,0.0882568359375,0.2357177734375
4.678,846,2621,820,328,-0.7738037109375,0.070556640625,0.2333984375
4.691,1125,2801,590,318,-0.7838134765625,0.114013671875,0.1944580078125
4.699,1183,2874,569,318,-0.80126953125,0.1812744140625,0.1744384765625
4.707,1204,2936,574,317,-0.82666015625,0.20361328125,0.195556640625
4.721,1188,3032,619,319,-0.8555908203125,0.1708984375,0.2049560546875
4.730,829,3047,1024,334,-0.8731689453125,0.14599609375,0.174072265625
4.749,582,3053,1310,347,-0.88037109375,0.1536865234375,0.1392822265625
4.765,504,3147,1453,349,-0.88134765625,0.168701171875,0.1204833984375
4.766,506,3147,1484,315,-0.859619140625,0.180419921875,0.1099853515625
4.771,497,3147,1521,377,-0.800537109375,0.1666259765625,0.1129150390625
4.782,518,3147,1575,563,-0.6943359375,0.10986328125,0.11669921875
4.789,629,3147,1483,631,-0.5748291015625,0.0662841796875,0.1011962890625
4.797,803,3147,1399,735,-0.5748291015625,0.0662841796875,0.1011962890625
4.811,830,3147,1469,996,-0.3690185546875,0.117431640625,0.017578125
4.820,844,3147,1529,1091,-0.300537109375,0.049560546875,-0.052734375
4.827,872,3147,1624,1308,-0.300537109375,0.049560546875,-0.052734375
4.847,894,3147,1786,1483,-0.3192138671875,-0.12646484375,0.037109375
4.877,907,3147,1864,1702,-0.37353515625,-0.1685791015625,0.2159423828125
4.877,673,3147,2089,1801,-0.37353515625,-0.1685791015625,0.2159423828125
4.878,826,3147,2176,2087,-1.004150390625,0.09228515625,0.6474609375
4.880,835,3147,2174,2258,-1.5511474609375,0.2921142578125,0.669921875
4.887,1123,3147,1880,2345,-1.5511474609375,0.2921142578125,0.669921875
4.975,651,3147,2461,2654,-2.2647705078125,0.42919921875,0.4710693359375
4.993,456,3147,2648,2630,-2.3277587890625,0.4814453125,0.4034423828125
5.019,841,3147,2734,2469,-2.3277587890625,0.4814453125,0.4034423828125
5.029,1390,3147,1689,2058,-1.4564208984375,0.9737548828125,-0.21728515625
5.041,2263,3147,518,1005,-1.1337890625,1.14501953125,-0.3636474609375
5.041,895,3147,2230,2041,-1.1337890625,1.14501953125,-0.3636474609375
5.057,1769,3147,1001,1472,-1.6727294921875,0.2528076171875,0.4237060546875
5.098,2456,3147,409,694,-1.7442626953125,-0.1011962890625,0.6427001953125
5.098,2372,3147,414,706,-1.7442626953125,-0.1011962890625,0.6427001953125
5.099,2279,3147,614,1220,-1.2806396484375,-0.06103515625,0.3968505859375
5.113,1789,3147,456,1386,-1.078125,0.04296875,0.2493896484375
5.114,1908,3147,396,600,-1.078125,0.04296875,0.2493896484375
5.115,539,3147,1898,1157,-0.9034423828125,0.1934814453125,0.1630859375
5.116,978,3147,1437,939,-0.9034423828125,0.1934814453125,0.1630859375
5.117,907,3147,1443,785,-0.864013671875,0.2457275390625,0.179443359375
5.118,800,3147,1386,470,-0.70751953125,0.3326416015625,0.0518798828125
5.118,725,3147,1372,355,-0.70751953125,0.3326416015625,0.0518798828125
5.118,638,3031,1377,353,-0.6173095703125,0.2794189453125,-0.03857421875
5.127,598,2587,1261,338,-0.5650634765625,0.097412109375,-0.1002197265625
5.130,561,2478,1182,349,-0.5650634765625,0.097412109375,-0.1002197265625
5.130,479,2388,1201,348,-0.6090087890625,0.0380859375,-0.078125
5.132,430,2174,1191,342,-0.6741943359375,0.0191650390625,0.17578125
5.133,467,2053,1206,326,-0.6741943359375,0.0191650390625,0.17578125
5.133,430,2017,1186,342,-0.6881103515625,0.01318359375,0.293212890625
5.156,473,2142,1143,338,-0.7010498046875,0.0494384765625,0.3221435546875
5.157,506,2280,1132,336,-0.718017578125,0.11962890625,0.274169921875
5.158,482,2359,1155,338,-0.7353515625,0.18896484375,0.2020263671875
5.179,519,2415,1131,337,-0.7513427734375,0.2225341796875,0.1534423828125
5.180,543,2525,1093,336,-0.7852783203125,0.2225341796875,0.1531982421875
5.193,548,2552,1143,334,-0.8271484375,0.235107421875,0.177001953125
5.197,555,2578,1155,342,-0.85693359375,0.251220703125,0.1884765625
5.211,578,2756,1224,342,-0.882568359375,0.2310791015625,0.189697265625
5.219,591,2830,1282,344,-0.9053955078125,0.2039794921875,0.17138671875
5.226,607,2921,1336,346,-0.91552734375,0.19921875,0.1318359375
5.241,630,3064,1415,345,-0.9022216796875,0.196533203125,0.0911865234375
5.254,634,3147,1437,348,-0.857421875,0.19140625,0.0576171875
5.256,648,3147,1480,354,-0.7867431640625,0.1785888671875,0.035400390625
5.285,666,3147,1545,536,-0.6900634765625,0.15283203125,0.0389404296875
5.285,684,3147,1607,656,-0.566650390625,0.1402587890625,0.047119140625
5.287,695,3147,1646,766,-0.440673828125,0.1160888671875,0.0377197265625
5.301,735,3147,1789,1029,-0.333984375,0.058837890625,0.021728515625
5.309,740,3147,1890,1201,-0.277099609375,-0.0340576171875,0.03173828125
5.321,801,3147,1899,1355,-0.31103515625,-0.168212890625,0.11376953125
5.330,2325,3147,402,646,-0.425537109375,-0.2657470703125,0.2508544921875
5.338,1997,3147,404,687,-0.5675048828125,-0.29443359375,0.407470703125
5.347,2012,3147,1043,1759,-0.78759765625,-0.2252197265625,0.577392578125
5.360,1206,3147,2174,2512,-1.1927490234375,-0.001953125,0.691162109375
5.387,1574,3147,2612,2760,-1.6866455078125,0.27001953125,0.6944580078125
5.387,1116,3147,2538,2561,-2.080078125,0.416259765625,0.6153564453125
5.390,2700,3147,2207,401,-2.25390625,0.4822998046875,0.4962158203125
5.398,485,3147,614,644,-2.0596923828125,0.64697265625,0.2135009765625
5.406,1761,3147,351,497,-1.5123291015625,0.9248046875,-0.24755859375
5.420,2480,3147,421,840,-1.0758056640625,1.184326171875,-0.5029296875
5.434,2514,3147,417,813,-1.0423583984375,1.2091064453125,-0.421142578125
5.437,2440,3147,433,740,-1.2607421875,0.906982421875,-0.1605224609375
5.450,2379,3147,540,1134,-1.5538330078125,0.4345703125,0.2027587890625
5.458,2465,3147,483,923,-1.6903076171875,0.019775390625,0.431640625
5.466,1693,3147,1251,1718,-1.564208984375,-0.1553955078125,0.393798828125
5.492,1588,3147,1191,1580,-1.3299560546875,-0.0987548828125,0.2349853515625
5.493,1580,3147,1167,1521,-1.14990234375,0.0513916015625,0.119140625
5.499,551,3147,2190,1569,-1.0518798828125,0.2117919921875,0.095458984375
5.511,1411,3147,1148,1103,-0.989501953125,0.323974609375,0.103515625
5.518,1330,3147,1163,910,-0.9163818359375,0.3568115234375,0.1383056640625
5.526,1294,3147,1143,800,-0.8310546875,0.372314453125,0.1776123046875
5.546,1215,3147,1083,539,-0.7548828125,0.4151611328125,0.16650390625
5.549,1183,3147,1065,404,-0.7001953125,0.425537109375,0.1087646484375
5.563,493,3147,1757,371,-0.6827392578125,0.3701171875,0.0325927734375
5.570,1067,2890,1100,348,-0.71826171875,0.275390625,-0.0323486328125
5.587,578,2543,1452,354,-0.7860107421875,0.16455078125,-0.0545654296875
5.587,1555,2410,360,312,-0.8365478515625,0.057373046875,-0.015869140625
5.602,1413,2183,371,311,-0.819091796875,-0.0216064453125,0.0535888671875
5.608,1289,2061,361,308,-0.739013671875,-0.0316162109375,0.1058349609375
5.616,1025,1934,540,316,-0.674560546875,0.0194091796875,0.126953125
5.630,1251,1868,356,309,-0.6646728515625,0.07177734375,0.13330078125
5.638,1258,1973,356,310,-0.680908203125,0.09375,0.1314697265625
5.646,1251,2061,356,309,-0.7021484375,0.1170654296875,0.1270751953125
5.667,1280,2231,363,310,-0.7237548828125,0.1683349609375,0.1348876953125
5.669,1290,2293,378,308,-0.73779296875,0.216064453125,0.163330078125
5.689,548,2398,1167,337,-0.73583984375,0.2313232421875,0.1942138671875
5.691,501,2463,1248,338,-0.7344970703125,0.229248046875,0.18701171875
5.708,508,2570,1333,343,-0.74658203125,0.2274169921875,0.158935546875
5.709,519,2701,1411,345,-0.76123046875,0.2166748046875,0.1517333984375
5.721,542,3016,1529,346,-0.7750244140625,0.210205078125,0.1588134765625
5.728,553,3130,1595,347,-0.7686767578125,0.203125,0.1571044921875
5.736,564,3147,1627,375,-0.7235107421875,0.185546875,0.1331787109375
5.750,564,3147,1691,508,-0.6298828125,0.176513671875,0.088134765625
5.772,564,3147,1794,630,-0.504150390625,0.16845703125,0.02783203125
5.773,2037,3147,1383,811,-0.36669921875,0.134033203125,-0.0140380859375
5.792,1861,3147,360,487,-0.253173828125,0.0413818359375,-0.04443359375
5.792,2207,3147,793,537,-0.2281494140625,-0.0360107421875,-0.063232421875
5.797,2410,3147,359,553,-0.3212890625,0.0068359375,-0.0179443359375
5.812,2473,3147,371,573,-0.5516357421875,0.0672607421875,0.1199951171875
5.819,617,3147,2384,2018,-0.935791015625,0.1048583984375,0.32275390625
5.826,2192,3147,375,600,-0.935791015625,0.1048583984375,0.32275390625
5.841,2741,3147,371,618,-1.9312744140625,0.4251708984375,0.68017578125
5.849,2739,3147,393,707,-2.2520751953125,0.459228515625,0.72607421875
5.857,2782,3147,371,1413,-2.2520751953125,0.459228515625,0.72607421875
5.871,1024,3147,338,430,-2.0162353515625,0.58056640625,0.3551025390625
5.895,482,3147,2830,2407,-1.3739013671875,0.693359375,-0.0504150390625
5.896,473,3147,2832,2280,-1.3739013671875,0.693359375,-0.0504150390625
5.901,465,3147,2868,2139,-1.1246337890625,0.67626953125,0.144287109375
5.909,464,3147,2858,2047,-1.53271484375,0.438720703125,0.4337158203125
5.918,388,3147,2921,1929,-1.53271484375,0.438720703125,0.4337158203125
5.930,383,3147,2782,1766,-1.7303466796875,0.02294921875,0.3948974609375
5.938,381,3147,2708,1660,-1.4879150390625,-0.020263671875,0.196533203125
5.947,376,3147,2632,1577,-1.4879150390625,-0.020263671875,0.196533203125
5.960,372,3147,2492,1362,-1.105224609375,0.116455078125,0.039794921875
5.970,371,3147,2424,1225,-0.9931640625,0.2080078125,0.0869140625
5.977,371,3147,2364,1042,-0.9931640625,0.2080078125,0.0869140625
6.001,364,3147,2223,790,-0.8123779296875,0.291748046875,0.196044921875
6.001,371,3147,2128,571,-0.7247314453125,0.3336181640625,0.1767578125
6.006,356,3147,2053,378,-0.7247314453125,0.3336181640625,0.1767578125
6.027,351,2668,1920,364,-0.5965576171875,0.2581787109375,-0.0113525390625
6.029,349,2400,1848,361,-0.593017578125,0.1575927734375,-0.0838623046875
6.037,357,2325,1775,360,-0.593017578125,0.1575927734375,-0.0838623046875
6.050,364,1920,1557,346,-0.6202392578125,-0.013671875,-0.03515625
6.059,348,1775,1462,347,-0.6202392578125,-0.013671875,-0.03515625
6.073,354,1757,1415,347,-0.6112060546875,-0.0054931640625,0.0731201171875
6.080,336,1769,1412,342,-0.6087646484375,-0.0123291015625,0.2493896484375
6.099,416,1850,1317,338,-0.6087646484375,-0.0123291015625,0.2493896484375
6.100,437,1959,1303,338,-0.6602783203125,0.0372314453125,0.2327880859375
6.111,402,2142,1345,338,-0.803955078125,0.2154541015625,0.156982421875
6.119,409,2279,1357,344,-0.803955078125,0.2154541015625,0.156982421875
6.132,411,2344,1375,345,-0.8492431640625,0.256103515625,0.1695556640625
6.141,409,2471,1399,342,-0.873046875,0.279296875,0.1988525390625
6.149,410,2497,1442,347,-0.873046875,0.279296875,0.1988525390625
6.156,411,2587,1497,347,-0.866455078125,0.3023681640625,0.178466796875
6.175,416,2736,1582,346,-0.83935546875,0.234375,0.1185302734375
6.178,418,2781,1653,351,-0.83935546875,0.234375,0.1185302734375
6.203,419,2880,1697,354,-0.82861328125,0.18896484375,0.1055908203125
6.204,423,3137,1772,359,-0.7803955078125,0.1492919921875,0.108154296875
6.209,424,3147,1830,364,-0.7803955078125,0.1492919921875,0.108154296875
6.222,426,3147,1869,441,-0.709228515625,0.1671142578125,0.087646484375
6.231,415,3147,2014,636,-0.426025390625,0.1944580078125,-0.046875
6.240,414,3147,2115,830,-0.426025390625,0.1944580078125,-0.046875
6.247,537,3147,2160,1003,-0.31298828125,0.2022705078125,-0.119140625
6.260,402,3147,2484,1323,-0.3001708984375,0.166015625,-0.1197509765625
6.268,438,3147,2510,1437,-0.3909912109375,0.0260009765625,-0.0487060546875
6.277,427,3147,2635,1575,-0.5263671875,-0.1212158203125,0.0826416015625
6.296,454,3147,2711,1786,-0.6658935546875,-0.2021484375,0.2672119140625
6.302,442,3147,2790,1959,-0.846435546875,-0.201904296875,0.4901123046875
6.306,447,3147,2867,2156,-1.1644287109375,-0.0631103515625,0.6849365234375
6.323,455,3147,2974,2414,-1.6131591796875,0.252685546875,0.775146484375
6.335,469,3147,2993,2494,-2.0238037109375,0.53759765625,0.7225341796875
6.337,464,3147,3034,2514,-2.2559814453125,0.6279296875,0.5977783203125
6.351,454,3147,3003,2293,-2.19580078125,0.68896484375,0.4112548828125
6.358,447,3147,2988,2105,-1.731689453125,0.8031005859375,0.0643310546875
6.366,454,3147,3000,2028,-1.235595703125,0.833984375,-0.1612548828125
6.380,407,3147,3057,1936,-1.20703125,0.6331787109375,-0.003173828125
6.389,424,3147,2985,1854,-1.513916015625,0.2259521484375,0.3399658203125
6.412,475,3147,2888,1773,-1.708251953125,-0.1298828125,0.540771484375
6.413,466,3147,2788,1635,-1.62109375,-0.269775390625,0.478759765625
6.419,455,3147,2726,1585,-1.39990234375,-0.275634765625,0.300048828125
6.427,456,3147,2638,1480,-1.1878662109375,-0.1893310546875,0.1712646484375
6.440,529,3147,2432,1269,-1.01611328125,-0.082763671875,0.1251220703125
6.457,651,3147,2225,1098,-0.898193359375,-0.030517578125,0.1475830078125
6.458,679,3147,2117,998,-0.8590087890625,0.05615234375,0.2215576171875
6.471,582,3147,2053,669,-0.8663330078125,0.22509765625,0.2763671875
6.483,548,3147,1970,426,-0.8663330078125,0.3450927734375,0.2628173828125
6.487,526,3015,1865,371,-0.8477783203125,0.338134765625,0.1689453125
6.509,495,2430,1691,359,-0.8197021484375,0.2723388671875,0.0203857421875
6.509,468,2167,1574,349,-0.7994384765625,0.18505859375,-0.1094970703125
6.517,446,1838,1456,344,-0.7852783203125,0.08251953125,-0.167236328125
6.530,454,1452,1224,336,-0.7425537109375,0.009033203125,-0.147705078125
6.539,651,1335,944,327,-0.6710205078125,0.0152587890625,-0.0621337890625
6.546,1155,1262,456,313,-0.609619140625,0.0687255859375,0.067138671875
6.564,1103,1289,361,316,-0.583251953125,0.07421875,0.19482421875
6.568,371,1312,1115,330,-0.586669921875,0.0281982421875,0.2510986328125
6.577,971,1370,416,316,-0.615478515625,0.003662109375,0.2283935546875
6.591,714,1412,766,321,-0.6539306640625,0.0430908203125,0.208984375
6.616,806,1496,748,321,-0.665771484375,0.109619140625,0.2314453125
6.616,813,1604,778,321,-0.6595458984375,0.1483154296875,0.2615966796875
6.621,826,1891,820,323,-0.662353515625,0.14990234375,0.262451171875
6.630,841,1983,846,324,-0.6737060546875,0.1468505859375,0.2274169921875
6.637,872,2231,867,330,-0.701904296875,0.1431884765625,0.185791015625
6.650,962,2601,987,328,-0.74560546875,0.1402587890625,0.156982421875
6.665,1022,2801,989,329,-0.760498046875,0.162109375,0.1353759765625
6.673,1162,3006,917,331,-0.705810546875,0.173095703125,0.1104736328125
6.687,1898,3147,365,347,-0.5855712890625,0.1368408203125,0.0806884765625
6.688,1452,3147,1592,591,-0.4193115234375,0.0732421875,0.0225830078125
6.697,455,3147,2164,898,-0.242919921875,0.0423583984375,-0.058349609375
6.741,454,3147,2364,1262,-0.1651611328125,0.0706787109375,-0.0865478515625
6.755,481,3147,2448,1443,-0.2911376953125,0.07275390625,-0.06982421875
6.764,485,3147,2552,1627,-0.590087890625,-0.0184326171875,-0.0316162109375
6.764,437,3147,2710,1968,-0.927490234375,-0.1568603515625,0.0865478515625
6.764,1228,3147,1830,2135,-1.2430419921875,-0.1871337890625,0.28515625
6.764,900,3147,2421,2330,-1.5947265625,0.017822265625,0.5250244140625
6.770,1155,3147,2151,2552,-1.917236328125,0.2852783203125,0.72607421875
6.793,1125,3147,2207,2660,-2.1241455078125,0.4114990234375,0.8260498046875
6.793,977,3147,2290,2723,-2.2298583984375,0.4537353515625,0.8165283203125
6.804,689,3147,2704,2653,-2.0224609375,0.5433349609375,0.543212890625
6.818,497,3147,2911,2672,-1.4852294921875,0.7030029296875,0.09033203125
6.819,495,3147,2912,2559,-1.236083984375,0.678466796875,0.03173828125
6.831,540,3147,2810,2330,-1.4857177734375,0.38037109375,0.4151611328125
6.839,567,3147,2710,2205,-1.7353515625,0.125244140625,0.70263671875
6.847,562,3147,2648,2071,-1.721923828125,0.071044921875,0.6402587890625
6.861,584,3147,2471,1811,-1.5712890625,0.064208984375,0.3582763671875
6.876,540,3147,2432,1681,-1.4139404296875,0.0194091796875,0.1353759765625
6.876,582,3147,2316,1521,-1.243896484375,-0.001220703125,0.056640625
6.898,527,3147,2242,1253,-1.056884765625,-0.0106201171875,0.036376953125
6.899,501,3147,2172,1078,-0.9005126953125,0.0166015625,0.064208984375
6.920,490,3147,2105,879,-0.77197265625,0.1324462890625,0.1329345703125
6.927,473,3147,1954,427,-0.6552734375,0.246337890625,0.17529296875
6.931,481,3035,1862,362,-0.558349609375,0.2740478515625,0.1597900390625
6.937,517,2504,1641,359,-0.558349609375,0.2740478515625,0.1597900390625
6.951,879,2054,1065,336,-0.506591796875,0.09228515625,-0.0755615234375
6.959,820,1855,1147,338,-0.5638427734375,-0.00537109375,-0.158935546875
6.967,406,1701,1294,338,-0.5638427734375,-0.00537109375,-0.158935546875
6.984,723,1596,943,328,-0.6658935546875,-0.0010986328125,0.0565185546875
6.995,758,1527,902,328,-0.64794921875,-0.035400390625,0.2110595703125
6.997,601,1552,1025,330,-0.64794921875,-0.035400390625,0.2110595703125
7.021,582,1622,1056,324,-0.669677734375,0.0018310546875,0.27490234375
7.022,575,1677,1071,329,-0.7203369140625,0.1015625,0.2376708984375
7.026,567,1730,1081,330,-0.7203369140625,0.1015625,0.2376708984375
7.041,574,1908,1101,333,-0.7884521484375,0.183349609375,0.20361328125
7.049,576,1957,1117,334,-0.812744140625,0.2022705078125,0.1982421875
7.056,586,2047,1151,334,-0.812744140625,0.2022705078125,0.1982421875
7.070,601,2246,1188,336,-0.8052978515625,0.230224609375,0.1524658203125
7.079,625,2379,1278,344,-0.7779541015625,0.1905517578125,0.1197509765625
7.097,654,2557,1380,344,-0.7779541015625,0.1905517578125,0.1197509765625
7.101,683,2872,1464,348,-0.6884765625,0.121826171875,0.0565185546875
7.132,705,3079,1535,356,-0.572998046875,0.07861328125,0.0347900390625
7.133,728,3147,1607,388,-0.572998046875,0.07861328125,0.0347900390625
7.133,784,3147,1754,740,-0.1297607421875,0.0240478515625,-0.06591796875
7.140,673,3147,2010,989,0.0599365234375,0.083740234375,-0.1749267578125
7.146,894,3147,1880,1222,0.0599365234375,0.083740234375,-0.1749267578125
7.161,439,3147,2559,1689,-0.3336181640625,0.0313720703125,-0.0081787109375
7.170,1821,3147,2021,1750,-0.3336181640625,0.0313720703125,-0.0081787109375
7.177,497,3147,2533,1960,-0.861572265625,-0.2979736328125,0.2698974609375
7.203,735,3147,2567,2333,-1.5650634765625,-0.249755859375,0.773193359375
7.203,780,3147,2581,2598,-1.5650634765625,-0.249755859375,0.773193359375
7.206,951,3147,2541,2777,-1.816162109375,0.2186279296875,0.8277587890625
7.228,2937,3147,375,1173,-2.2777099609375,0.505126953125,0.630615234375
7.229,1595,3147,1366,2918,-2.2777099609375,0.505126953125,0.630615234375
7.239,1071,3147,2412,2749,-2.2139892578125,0.5592041015625,0.417724609375
7.251,790,3147,2645,2601,-1.22119140625,0.8448486328125,-0.117919921875
7.260,2418,3147,1344,2168,-1.22119140625,0.8448486328125,-0.117919921875
7.266,1018,3147,2391,2419,-1.274658203125,0.5897216796875,0.114501953125
7.280,1545,3147,1790,2102,-1.8017578125,-0.0289306640625,0.6697998046875
7.289,1143,3147,2085,2065,-1.8017578125,-0.0289306640625,0.6697998046875
7.308,1624,3147,1204,1636,-1.6851806640625,-0.0321044921875,0.581298828125
7.313,2235,3147,644,1131,-1.3056640625,0.062744140625,0.2635498046875
7.328,2180,3147,667,1116,-1.3056640625,0.062744140625,0.2635498046875
7.328,2309,3147,383,554,-1.1463623046875,0.154541015625,0.1741943359375
7.349,1091,3147,1577,1048,-0.8848876953125,0.248779296875,0.067626953125
7.349,777,3147,1769,887,-0.8848876953125,0.248779296875,0.067626953125
7.357,2054,3147,648,548,-0.7554931640625,0.2451171875,0.0894775390625
7.370,1888,3102,376,308,-0.5030517578125,0.1163330078125,0.10791015625
7.378,1774,2658,371,313,-0.5030517578125,0.1163330078125,0.10791015625
7.387,1648,2334,354,310,-0.4766845703125,0.0172119140625,0.06640625
7.412,549,1801,1228,346,-0.5306396484375,-0.0535888671875,-0.02587890625
7.433,600,1604,1134,336,-0.6124267578125,-0.0499267578125,-0.06396484375
7.433,531,1580,1134,333,-0.668212890625,-0.016845703125,-0.00048828125
7.434,570,1516,1055,328,-0.69580078125,-0.045654296875,0.10986328125
7.439,1241,1509,349,310,-0.7198486328125,-0.073974609375,0.193603515625
7.447,1004,1480,324,308,-0.739013671875,-0.009521484375,0.2188720703125
7.462,484,1481,1122,330,-0.7462158203125,0.1219482421875,0.2188720703125
7.469,439,1546,1151,332,-0.7442626953125,0.2281494140625,0.2181396484375
7.476,479,1552,1125,332,-0.74365234375,0.2567138671875,0.2041015625
7.491,1273,1722,338,308,-0.755126953125,0.25,0.1771240234375
7.507,1278,1786,347,310,-0.781494140625,0.2593994140625,0.1673583984375
7.515,1294,1855,359,310,-0.7979736328125,0.2572021484375,0.1787109375
7.534,1323,2047,346,310,-0.7845458984375,0.21484375,0.1865234375
7.535,1387,2194,347,309,-0.7586669921875,0.1500244140625,0.1827392578125
7.537,1468,2443,349,299,-0.74072265625,0.0836181640625,0.168212890625
7.552,1617,2810,359,310,-0.73046875,0.042236328125,0.1507568359375
7.560,1604,3072,439,313,-0.707275390625,0.041748046875,0.138671875
7.574,1641,3147,457,313,-0.67919921875,0.0694580078125,0.1383056640625
7.581,1744,3147,505,466,-0.66748046875,0.1171875,0.1466064453125
7.589,1959,3147,486,551,-0.6519775390625,0.1668701171875,0.132568359375
7.597,2063,3147,378,499,-0.63525390625,0.1470947265625,0.126220703125
7.611,766,3147,1892,1243,-0.6375732421875,0.00390625,0.14208984375
7.633,2292,3147,630,922,-0.57861328125,-0.17041015625,0.1083984375
7.634,2372,3147,444,750,-0.4410400390625,-0.2242431640625,0.0511474609375
7.642,529,3147,2591,1826,-0.37646484375,-0.1373291015625,0.04833984375
7.649,1078,3147,2144,1959,-0.5009765625,-0.0657958984375,0.145751953125
7.658,777,3147,2525,2220,-0.838134765625,-0.040283203125,0.3330078125
7.671,552,3147,2840,2464,-1.3076171875,0.03662109375,0.5400390625
7.679,504,3147,2943,2652,-1.732421875,0.177001953125,0.6900634765625
7.687,499,3147,3020,2765,-1.999267578125,0.295166015625,0.723876953125
7.701,2175,3147,2260,2493,-2.1395263671875,0.357666015625,0.6827392578125
7.711,2911,3147,399,710,-2.12158203125,0.4345703125,0.553466796875
7.717,2765,3147,536,1267,-1.73974609375,0.5849609375,0.217529296875
7.737,1722,3147,1590,2172,-1.2354736328125,0.716064453125,-0.0269775390625
7.743,1949,3147,1373,1994,-1.11279296875,0.6160888671875,0.097900390625
7.750,1874,3147,2068,2215,-1.383056640625,0.284423828125,0.3720703125
7.761,526,3147,2744,2054,-1.6903076171875,-0.0302734375,0.5303955078125
7.769,516,3147,2684,1953,-1.759765625,-0.157958984375,0.4974365234375
7.777,523,3147,2598,1888,-1.6419677734375,-0.1494140625,0.3826904296875
7.791,591,3147,2356,1702,-1.489990234375,-0.0872802734375,0.2918701171875
7.800,642,3147,2217,1550,-1.3572998046875,0.01806640625,0.245849609375
7.813,1785,3147,1138,1258,-1.212158203125,0.12353515625,0.2208251953125
7.822,2167,3147,388,493,-1.043212890625,0.1812744140625,0.205078125
7.845,2089,3147,389,398,-0.86376953125,0.22509765625,0.1956787109375
7.845,1840,3147,559,317,-0.7061767578125,0.2457275390625,0.1851806640625
7.853,738,2268,1334,338,-0.6041259765625,0.1944580078125,0.1611328125
7.860,1160,2032,689,324,-0.5579833984375,0.0751953125,0.088134765625
7.868,508,1666,1163,338,-0.5469970703125,-0.0550537109375,-0.0401611328125
7.882,1183,1292,938,328,-0.5380859375,-0.1358642578125,-0.1256103515625
7.889,872,1275,551,316,-0.52197265625,-0.172119140625,-0.0811767578125
7.898,359,1162,1038,330,-0.5302734375,-0.2108154296875,0.0567626953125
7.920,601,1160,890,323,-0.5863037109375,-0.21875,0.18115234375
7.921,1034,1137,333,292,-0.6458740234375,-0.1287841796875,0.2379150390625
7.947,1042,1172,328,308,-0.667724609375,0.0369873046875,0.248046875
7.948,497,1183,947,327,-0.6727294921875,0.1700439453125,0.2451171875
7.950,470,1248,998,324,-0.6927490234375,0.2161865234375,0.244384765625
7.958,582,1348,894,323,-0.733154296875,0.212158203125,0.24560546875
7.971,746,1575,782,321,-0.783447265625,0.203125,0.2427978515625
7.979,766,1683,788,323,-0.8167724609375,0.2060546875,0.225830078125
7.988,777,1770,794,324,-0.81298828125,0.1953125,0.199951171875
8.001,794,1874,816,324,-0.793701171875,0.144775390625,0.1756591796875
8.010,814,1888,849,327,-0.796142578125,0.076416015625,0.1534423828125
8.025,859,1981,912,330,-0.81982421875,0.035888671875,0.1317138671875
8.051,858,2414,1051,329,-0.834716796875,0.0443115234375,0.1153564453125
8.051,871,2668,1131,336,-0.82177734375,0.0784912109375,0.1209716796875
8.051,853,2757,1204,338,-0.784912109375,0.1126708984375,0.14208984375
8.061,853,3095,1345,346,-0.747314453125,0.1409912109375,0.14697265625
8.070,883,3147,1422,359,-0.7119140625,0.163330078125,0.1278076171875
8.078,905,3147,1503,525,-0.64208984375,0.17626953125,0.077880859375
8.091,986,3147,1642,782,-0.53271484375,0.1488037109375,0.0166015625
8.100,1050,3147,1682,1003,-0.4425048828125,0.024658203125,0.0125732421875
8.108,1289,3147,1550,1157,-0.3963623046875,-0.171142578125,0.051513671875
8.121,1652,3147,2458,1494,-0.40576171875,-0.3031005859375,0.095703125
8.154,2584,3147,383,1687,-0.5389404296875,-0.32861328125,0.2076416015625
8.156,654,3147,2286,1959,-0.8447265625,-0.2738037109375,0.413330078125
8.156,2741,3147,865,1801,-1.2574462890625,-0.1162109375,0.62841796875
8.162,891,3147,2481,2493,-1.6376953125,0.123291015625,0.7723388671875
8.168,1065,3147,2102,2492,-1.9248046875,0.302978515625,0.7933349609375
8.182,2795,3147,508,1018,-2.13671875,0.3338623046875,0.6915283203125
8.191,506,3147,3034,2879,-2.177001953125,0.357177734375,0.4732666015625
8.198,519,3147,2953,2832,-2.177001953125,0.357177734375,0.4732666015625
8.211,574,3147,2901,2738,-1.40087890625,0.7296142578125,-0.102783203125
8.222,619,3147,2863,2605,-1.4488525390625,0.6190185546875,0.1324462890625
8.227,766,3147,2571,2421,-1.4488525390625,0.6190185546875,0.1324462890625
8.264,835,3147,2428,2129,-1.75146484375,0.08837890625,0.53271484375
8.264,842,3147,2321,1948,-1.62451171875,0.052490234375,0.4356689453125
8.265,818,3147,2257,1835,-1.62451171875,0.052490234375,0.4356689453125
8.272,780,3147,2167,1580,-1.3006591796875,-0.0205078125,0.2376708984375
8.280,646,3147,2233,1401,-1.1181640625,0.0596923828125,0.20263671875
8.288,494,3147,2308,1228,-1.1181640625,0.0596923828125,0.20263671875
8.301,594,3147,2014,868,-0.8160400390625,0.1875,0.1624755859375
8.310,754,3147,1721,642,-0.7159423828125,0.227294921875,0.1822509765625
8.318,737,3147,1613,359,-0.7159423828125,0.227294921875,0.1822509765625
8.332,691,2613,1386,346,-0.510498046875,0.15625,0.0869140625
8.372,721,2266,1201,344,-0.4598388671875,0.054931640625,-0.049072265625
8.374,735,2119,1029,329,-0.4598388671875,0.054931640625,-0.049072265625
8.374,618,2005,1101,338,-0.554443359375,-0.0565185546875,-0.2149658203125
8.375,519,1920,1074,328,-0.6265869140625,-0.0333251953125,-0.0751953125
8.379,1239,1848,348,308,-0.6265869140625,-0.0333251953125,-0.0751953125
8.392,361,1816,1231,334,-0.6884765625,-0.1204833984375,0.308837890625
8.400,806,1945,694,318,-0.718017578125,-0.1380615234375,0.3465576171875
8.408,1243,2026,363,308,-0.718017578125,-0.1380615234375,0.3465576171875
8.434,1278,2127,371,309,-0.78662109375,0.071533203125,0.28076171875
8.434,1290,2190,382,310,-0.78662109375,0.071533203125,0.28076171875
8.438,1320,2275,388,310,-0.802001953125,0.131591796875,0.2567138671875
8.456,1416,2414,399,311,-0.777099609375,0.1907958984375,0.1798095703125
8.460,1453,2579,400,312,-0.777099609375,0.1907958984375,0.1798095703125
8.483,1003,2739,840,324,-0.741455078125,0.1893310546875,0.1470947265625
8.483,1592,2973,418,313,-0.72998046875,0.1400146484375,0.11376953125
8.490,1676,3140,418,313,-0.72998046875,0.1400146484375,0.11376953125
8.498,1759,3147,424,313,-0.7344970703125,0.1102294921875,0.1009521484375
8.512,1933,3147,433,359,-0.6456298828125,0.026611328125,0.058349609375
8.520,2058,3147,442,411,-0.6456298828125,0.026611328125,0.058349609375
8.530,2178,3147,466,494,-0.5587158203125,-0.017822265625,0.0162353515625
8.555,2359,3147,418,509,-0.427734375,-0.28955078125,0.0130615234375
8.559,601,3147,2360,1050,-0.427734375,-0.28955078125,0.0130615234375
8.560,1122,3147,2091,1173,-0.375244140625,-0.3717041015625,0.048095703125
8.572,883,3147,2579,1669,-0.6214599609375,-0.29248046875,0.4622802734375
8.592,1357,3147,1772,1880,-0.6214599609375,-0.29248046875,0.4622802734375
8.593,1480,3147,1772,2119,-0.9381103515625,-0.1136474609375,0.710693359375
8.601,2128,3147,2275,2486,-1.6629638671875,0.72607421875,0.76708984375
8.610,2788,3147,424,1730,-1.6629638671875,0.72607421875,0.76708984375
8.617,2362,3147,440,859,-1.97216796875,0.8502197265625,0.6566162109375
8.633,2760,3147,1120,2395,-2.207763671875,0.6763916015625,0.5198974609375
8.640,1781,3147,2347,2458,-2.08984375,0.489990234375,0.1954345703125
8.652,1048,3147,2333,2415,-1.587158203125,0.4500732421875,-0.2327880859375
8.661,765,3147,2659,2484,-1.2139892578125,0.412353515625,-0.3740234375
8.672,749,3147,2676,2430,-1.239013671875,0.220947265625,-0.113037109375
8.679,767,3147,2621,2366,-1.4627685546875,-0.0181884765625,0.2926025390625
8.691,708,3147,2611,2188,-1.6080322265625,-0.10009765625,0.5555419921875
8.701,533,3147,2721,2076,-1.587646484375,-0.0281982421875,0.5810546875
8.708,501,3147,2643,1981,-1.49267578125,0.070556640625,0.493896484375
8.721,462,3147,2560,1766,-1.3731689453125,0.1041259765625,0.4090576171875
8.735,470,3147,2473,1616,-1.2178955078125,0.129150390625,0.354248046875
8.738,493,3147,2375,1441,-1.0196533203125,0.19482421875,0.28369140625
8.764,547,3147,2220,1055,-0.82080078125,0.2235107421875,0.19921875
8.764,548,3147,2158,827,-0.7010498046875,0.2379150390625,0.1483154296875
8.768,526,3147,2104,636,-0.669189453125,0.267333984375,0.130859375
8.782,519,3147,2005,382,-0.67041015625,0.2708740234375,0.116455078125
8.795,578,3039,1854,371,-0.6810302734375,0.2296142578125,0.0792236328125
8.798,427,2941,1959,372,-0.691650390625,0.152099609375,0.018798828125
8.813,472,2481,1759,360,-0.715087890625,0.0418701171875,-0.0380859375
8.820,357,2345,1805,361,-0.748046875,-0.0516357421875,-0.04638671875
8.828,409,2213,1705,360,-0.7535400390625,-0.100341796875,0.0
8.841,455,2087,1540,351,-0.7435302734375,-0.105712890625,0.09228515625
8.855,464,2053,1456,351,-0.7491455078125,-0.057861328125,0.2076416015625
8.864,426,2039,1433,348,-0.7728271484375,-0.0087890625,0.2852783203125
8.872,444,2039,1343,346,-0.8062744140625,0.001708984375,0.289306640625
8.880,433,2111,1341,347,-0.8372802734375,0.0234375,0.2357177734375
8.888,445,2076,1306,345,-0.8563232421875,0.0899658203125,0.183349609375
8.902,440,2204,1336,346,-0.8564453125,0.1429443359375,0.17236328125
8.910,441,2233,1355,346,-0.8359375,0.144287109375,0.1849365234375
8.917,439,2312,1411,347,-0.8089599609375,0.1358642578125,0.185546875
8.939,439,2467,1483,346,-0.8001708984375,0.131591796875,0.1741943359375
8.940,439,2580,1531,348,-0.814453125,0.114501953125,0.15576171875
8.948,437,2612,1584,351,-0.8253173828125,0.1021728515625,0.12109375
8.967,437,2785,1715,351,-0.81982421875,0.091064453125,0.0982666015625
8.970,437,2918,1769,359,-0.7987060546875,0.06787109375,0.103515625
8.979,487,3069,1798,360,-0.7481689453125,0.059814453125,0.100830078125
8.992,536,3147,1882,363,-0.6636962890625,0.0789794921875,0.0841064453125
9.000,532,3147,1981,478,-0.5511474609375,0.1119384765625,0.0626220703125
9.011,501,3147,2133,675,-0.407958984375,0.1370849609375,0.0218505859375
9.055,661,3147,2137,1009,-0.2613525390625,0.1475830078125,-0.0225830078125
9.064,693,3147,2281,1264,-0.1805419921875,0.1143798828125,-0.0284423828125
9.064,579,3147,2432,1415,-0.228515625,-0.025634765625,0.000244140625
9.078,625,3147,1412,1599,-0.420654296875,-0.2105712890625,0.0555419921875
9.078,802,3147,1518,1439,-0.7276611328125,-0.29833984375,0.2166748046875
9.079,739,3147,2560,2093,-1.1053466796875,-0.215087890625,0.4827880859375
9.081,523,3147,2955,2490,-1.4893798828125,0.0693359375,0.7679443359375
9.091,532,3147,2749,2464,-1.78271484375,0.3402099609375,0.93310546875
9.098,813,3147,949,1609,-2.00732421875,0.41455078125,0.9034423828125
9.115,628,3147,2929,2724,-2.201171875,0.3851318359375,0.71923828125
9.121,1078,3147,1838,2362,-2.11669921875,0.43701171875,0.322998046875
9.129,1342,3147,2089,2325,-1.661376953125,0.6578369140625,-0.21728515625
9.137,2213,3147,1182,1945,-1.3651123046875,0.650146484375,-0.4364013671875
9.151,1613,3147,1815,2165,-1.5341796875,0.19091796875,-0.075927734375
9.172,1561,3147,1837,2093,-1.7386474609375,-0.2381591796875,0.451416015625
9.172,1568,3147,1694,1983,-1.66455078125,-0.2457275390625,0.671142578125
9.181,1163,3147,1970,1849,-1.44970703125,-0.0235595703125,0.5341796875
9.188,548,3147,2565,1826,-1.2763671875,0.080322265625,0.261474609375
9.197,1318,3147,1640,1529,-1.1591796875,0.0936279296875,0.0615234375
9.211,1483,3147,1399,1273,-1.03515625,0.1912841796875,-0.02783203125
9.220,1391,3147,1399,1155,-0.9080810546875,0.3160400390625,-0.048583984375
9.227,1428,3147,1320,1003,-0.9080810546875,0.3160400390625,-0.048583984375
9.248,874,3147,1837,759,-0.7835693359375,0.34912109375,0.0682373046875
9.249,735,3147,1882,548,-0.759765625,0.2669677734375,0.1326904296875
9.257,694,3147,1825,376,-0.759765625,0.2669677734375,0.1326904296875
9.276,697,2683,1627,359,-0.6864013671875,0.0699462890625,0.108154296875
9.279,1231,2225,975,332,-0.663330078125,-0.026611328125,0.010986328125
9.287,1201,2165,905,330,-0.663330078125,-0.026611328125,0.010986328125
9.300,1561,1929,344,310,-0.6873779296875,-0.06494140625,-0.0828857421875
9.309,1454,1675,336,309,-0.7176513671875,0.015869140625,-0.0030517578125
9.316,992,1666,802,325,-0.7176513671875,0.015869140625,-0.0030517578125
9.330,1330,1627,328,308,-0.7430419921875,0.0252685546875,0.2020263671875
9.339,867,1574,841,326,-0.7598876953125,-0.0162353515625,0.224853515625
9.350,1289,1641,327,308,-0.7598876953125,-0.0162353515625,0.224853515625
9.363,1340,1769,327,308,-0.7593994140625,0.111083984375,0.15771484375
9.382,1375,1825,324,308,-0.7291259765625,0.1981201171875,0.161865234375
9.383,625,1952,1156,336,-0.7291259765625,0.1981201171875,0.161865234375
9.398,990,2213,853,328,-0.6795654296875,0.230712890625,0.1826171875
9.402,1588,2430,328,308,-0.6624755859375,0.21435546875,0.154541015625
9.407,1666,2551,328,309,-0.6624755859375,0.21435546875,0.154541015625
9.421,1837,2886,331,308,-0.6634521484375,0.0765380859375,0.1351318359375
9.433,1890,3098,332,308,-0.6678466796875,0.0546875,0.1337890625
9.437,1968,3147,334,310,-0.6678466796875,0.0546875,0.1337890625
9.451,2133,3147,342,354,-0.54833984375,0.0604248046875,0.110107421875
9.459,2162,3147,356,406,-0.54833984375,0.0604248046875,0.110107421875
9.480,2374,3147,359,439,-0.4259033203125,0.0159912109375,0.076904296875
9.481,2573,3147,346,444,-0.261962890625,-0.3409423828125,0.033203125
9.491,2630,3147,359,504,-0.261962890625,-0.3409423828125,0.033203125
9.497,2704,3147,370,562,-0.3099365234375,-0.491943359375,0.052490234375
9.511,2876,3147,375,652,-0.73193359375,-0.2548828125,0.4278564453125
9.519,2940,3147,383,695,-0.73193359375,-0.2548828125,0.4278564453125
9.527,2908,3147,614,1638,-1.2830810546875,0.1466064453125,0.606689453125
9.540,501,3147,3147,3147,-2.218017578125,0.760009765625,0.486572265625
9.555,521,3147,3114,3147,-2.218017578125,0.760009765625,0.486572265625
9.557,480,3147,2989,3147,-2.3748779296875,0.754150390625,0.413330078125
9.587,644,3147,3007,3147,-1.767822265625,0.7962646484375,-0.084716796875
9.587,2316,3147,1810,3147,-1.767822265625,0.7962646484375,-0.084716796875
9.588,661,3147,2848,3147,-1.171142578125,1.0120849609375,-0.3905029296875
9.602,656,3147,2861,3147,-1.2008056640625,0.5599365234375,-0.029541015625
9.609,653,3147,2833,3094,-1.2008056640625,0.5599365234375,-0.029541015625
9.617,636,3147,2828,2993,-1.557861328125,0.202392578125,0.31005859375
9.631,576,3147,2750,2717,-1.7855224609375,-0.197998046875,0.5491943359375
9.646,559,3147,2621,2534,-1.7855224609375,-0.197998046875,0.5491943359375
9.647,546,3147,2505,2367,-1.5125732421875,-0.1754150390625,0.40673828125
9.686,532,3147,2407,2127,-1.2452392578125,-0.052490234375,0.2215576171875
9.686,529,3147,2317,1865,-1.0684814453125,0.072265625,0.1168212890625
9.687,526,3147,2254,1686,-0.9326171875,0.1932373046875,0.087890625
9.700,510,3147,2152,1255,-0.7747802734375,0.2791748046875,0.0662841796875
9.701,508,3147,2087,1074,-0.6173095703125,0.3150634765625,0.0673828125
9.708,484,3147,2057,894,-0.533203125,0.3265380859375,0.0943603515625
9.730,1961,3147,375,375,-0.5555419921875,0.3416748046875,0.105224609375
9.745,1899,3147,372,336,-0.6287841796875,0.352783203125,0.078369140625
9.745,1834,3147,345,308,-0.6959228515625,0.310302734375,0.028564453125
9.762,1054,2850,1116,344,-0.7542724609375,0.22216796875,-0.0186767578125
9.762,1627,2664,391,310,-0.7896728515625,0.142578125,-0.03662109375
9.767,1552,2453,387,310,-0.8004150390625,0.0841064453125,0.0001220703125
9.789,865,2167,978,334,-0.803466796875,0.0452880859375,0.0767822265625
9.789,614,2115,1108,336,-0.7930908203125,0.04736328125,0.154541015625
9.798,842,2110,766,323,-0.7470703125,0.0772705078125,0.218017578125
9.810,861,2220,762,324,-0.6727294921875,0.0692138671875,0.2579345703125
9.819,816,2370,827,327,-0.62353515625,0.025390625,0.2662353515625
9.828,1065,2510,574,316,-0.6331787109375,0.013671875,0.2520751953125
9.841,1365,2703,419,310,-0.678955078125,0.0428466796875,0.22705078125
9.849,794,2801,1067,328,-0.7188720703125,0.059814453125,0.2000732421875
9.883,1185,2928,721,323,-0.7373046875,0.0426025390625,0.1851806640625
9.889,1490,3147,559,316,-0.7398681640625,0.034423828125,0.1715087890625
9.890,1584,3147,588,316,-0.7264404296875,0.0672607421875,0.150390625
9.890,1557,3147,666,423,-0.677978515625,0.1107177734375,0.1527099609375
9.902,1604,3147,707,654,-0.5693359375,0.1396484375,0.1641845703125
9.909,2110,3147,384,481,-0.43310546875,0.1312255859375,0.138671875
9.917,1163,3147,1533,1173,-0.3392333984375,0.0931396484375,0.0927734375
9.931,1097,3147,1791,1545,-0.3826904296875,0.0789794921875,0.0513916015625
9.940,2498,3147,399,585,-0.556640625,0.121826171875,0.0035400390625
9.947,1555,3147,2119,1918,-0.6837158203125,0.1156005859375,-0.062744140625
9.972,535,3147,2874,2273,-0.7589111328125,0.009765625,-0.113037109375
9.972,420,3147,2973,2448,-0.9300537109375,0.02490234375,-0.045654296875
9.979,517,3147,2944,2636,-1.203369140625,0.2398681640625,0.2274169921875
9.994,433,3147,3147,2901,-1.4661865234375,0.46044921875,0.6099853515625
9.999,644,3147,2654,2850,-1.693115234375,0.4407958984375,0.883056640625
10.007,1034,3147,2599,2964,-1.919677734375,0.2001953125,0.9339599609375
10.021,785,3147,2872,3032,-2.086669921875,0.01318359375,0.78271484375
10.029,784,3147,2782,2993,-1.9127197265625,0.089111328125,0.39453125
10.037,794,3147,2744,2918,-1.427490234375,0.4017333984375,-0.069091796875
10.052,777,3147,2748,2863,-1.1619873046875,0.6021728515625,-0.1904296875
10.073,767,3147,2748,2756,-1.3570556640625,0.4830322265625,0.1707763671875
10.093,774,3147,2658,2668,-1.67138671875,0.2763671875,0.6214599609375
10.093,619,3147,2723,2465,-1.70703125,0.1986083984375,0.720703125
10.094,594,3147,2633,2312,-1.5059814453125,0.1707763671875,0.5323486328125
10.097,586,3147,2552,2167,-1.26611328125,0.0845947265625,0.320068359375
10.111,568,3147,2445,1900,-1.07177734375,0.013427734375,0.204345703125
10.119,548,3147,2401,1766,-0.91259765625,0.041748046875,0.1627197265625
10.127,522,3147,2364,1622,-0.780029296875,0.0838623046875,0.136962890625
10.142,625,3147,2127,1351,-0.706787109375,0.0845947265625,0.1158447265625
10.149,513,3147,2195,1214,-0.6983642578125,0.1097412109375,0.0919189453125
10.157,593,3147,2048,1078,-0.728515625,0.144287109375,0.0491943359375
10.195,548,3147,2039,894,-0.7745361328125,0.142333984375,0.0087890625
10.195,660,3147,1892,792,-0.8173828125,0.12939453125,-0.0052490234375
10.196,646,3147,1806,721,-0.8275146484375,0.1085205078125,0.0072021484375
10.201,594,3147,1735,562,-0.8065185546875,0.0780029296875,0.040283203125
10.209,666,3147,1550,364,-0.77294921875,0.0772705078125,0.0858154296875
10.218,922,3147,1236,345,-0.71630859375,0.1072998046875,0.1121826171875
10.231,570,2976,1651,356,-0.6702880859375,0.1231689453125,0.1085205078125
10.240,644,2925,1280,338,-0.68359375,0.124755859375,0.1136474609375
10.248,485,2925,1545,354,-0.7291259765625,0.127685546875,0.1434326171875
10.262,438,2954,1564,351,-0.767822265625,0.0994873046875,0.1846923828125
10.285,391,3011,1637,356,-0.79443359375,0.0404052734375,0.220703125
10.299,388,3106,1662,356,-0.8154296875,0.0179443359375,0.2357177734375
10.300,383,3147,1713,356,-0.8389892578125,0.06396484375,0.2379150390625
10.300,382,3147,1750,342,-0.8563232421875,0.1214599609375,0.2252197265625
10.311,388,3147,1781,382,-0.8524169921875,0.143310546875,0.173828125
10.322,385,3147,1856,431,-0.8475341796875,0.1356201171875,0.109130859375
10.330,387,3147,1908,529,-0.8583984375,0.11865234375,0.0821533203125
10.338,388,3147,1944,600,-0.8665771484375,0.12158203125,0.0916748046875
10.351,390,3147,1997,748,-0.8458251953125,0.13671875,0.109619140625
10.360,398,3147,2035,803,-0.772705078125,0.125,0.1204833984375
10.375,400,3147,2083,918,-0.6373291015625,0.0875244140625,0.0928955078125
10.382,413,3147,2226,1107,-0.4716796875,0.059814453125,0.0296630859375
10.401,582,3147,2186,1182,-0.320556640625,0.054931640625,-0.01123046875
10.401,545,3147,2364,1430,-0.2381591796875,0.0545654296875,-0.0506591796875
10.414,625,3147,2481,1714,-0.2763671875,0.0936279296875,-0.118408203125
10.420,733,3147,2407,1854,-0.3826904296875,0.17919921875,-0.14990234375
10.428,820,3147,2593,2018,-0.5294189453125,0.2056884765625,-0.1064453125
10.442,631,3147,2758,2435,-0.79833984375,0.2030029296875,0.0399169921875
10.450,1665,3147,1709,2244,-1.22900390625,0.2679443359375,0.3193359375
10.458,594,3147,2958,2841,-1.22900390625,0.2679443359375,0.3193359375
10.476,1056,3147,2456,2888,-2.08447265625,0.2998046875,0.7733154296875
10.480,1024,3147,2635,2955,-2.251220703125,0.1942138671875,0.8096923828125
10.498,944,3147,2660,2872,-2.251220703125,0.1942138671875,0.8096923828125
10.507,1326,3147,2176,2552,-1.793212890625,0.301025390625,0.475830078125
10.516,1318,3147,2178,2479,-1.2786865234375,0.4659423828125,0.1767578125
10.518,1306,3147,2167,2391,-1.2786865234375,0.4659423828125,0.1767578125
10.532,1276,3147,2161,2188,-1.4312744140625,-0.039306640625,0.4853515625
10.540,1265,3147,2133,2115,-1.63427734375,-0.3538818359375,0.7452392578125
10.548,1239,3147,2093,2039,-1.63427734375,-0.3538818359375,0.7452392578125
10.562,2514,3147,969,1850,-1.3018798828125,-0.306640625,0.5758056640625
10.570,2571,3147,455,894,-1.0892333984375,-0.188720703125,0.3970947265625
10.578,2424,3147,673,1615,-1.0892333984375,-0.188720703125,0.3970947265625
10.592,2127,3147,722,1136,-0.8795166015625,0.0606689453125,0.09521484375
10.620,2233,3147,555,900,-0.89404296875,0.1839599609375,-0.0362548828125
10.621,2194,3147,540,797,-0.89404296875,0.1839599609375,-0.0362548828125
10.623,2047,3147,525,697,-0.9376220703125,0.3236083984375,-0.0528564453125
10.630,1996,3147,526,644,-0.917724609375,0.271728515625,0.0152587890625
10.638,1929,3147,508,497,-0.917724609375,0.271728515625,0.0152587890625
10.651,1698,3147,506,315,-0.85595703125,0.089111328125,0.089111328125
10.660,711,2771,1294,342,-0.805908203125,-0.0018310546875,0.0675048828125
10.667,465,2493,1411,351,-0.805908203125,-0.0018310546875,0.0675048828125
10.682,1317,2139,359,310,-0.63525390625,-0.1239013671875,-0.0482177734375
10.690,441,1981,1153,336,-0.63525390625,-0.1239013671875,-0.0482177734375
10.716,456,1949,1081,330,-0.6060791015625,-0.007080078125,-0.024169921875
10.716,411,2084,1081,338,-0.540283203125,0.144287109375,0.23388671875
10.720,431,2161,1064,334,-0.540283203125,0.144287109375,0.23388671875
10.728,442,2240,1092,332,-0.5252685546875,0.0589599609375,0.3040771484375
10.742,468,2538,1173,332,-0.6171875,0.0186767578125,0.2506103515625
10.750,375,2593,1343,342,-0.6171875,0.0186767578125,0.2506103515625
10.758,372,2781,1444,348,-0.6732177734375,0.0919189453125,0.2288818359375
10.772,433,3044,1533,346,-0.737060546875,0.0924072265625,0.201904296875
10.784,507,3147,1599,349,-0.737060546875,0.0924072265625,0.201904296875
10.788,497,3147,1735,428,-0.74267578125,0.07177734375,0.1842041015625
10.818,514,3147,1905,599,-0.6737060546875,0.089599609375,0.16259765625
10.818,526,3147,1974,754,-0.6737060546875,0.089599609375,0.16259765625
10.819,644,3147,1927,860,-0.59716796875,0.08544921875,0.1405029296875
10.832,666,3147,2192,1248,-0.5584716796875,0.0458984375,0.1531982421875
10.841,569,3147,2456,1474,-0.5584716796875,0.0458984375,0.1531982421875
10.848,666,3147,2435,1584,-0.62451171875,0.00537109375,0.0609130859375
10.862,744,3147,2598,1796,-0.6512451171875,-0.0943603515625,-0.328369140625
10.870,619,3147,2832,1968,-0.6512451171875,-0.0943603515625,-0.328369140625
10.878,711,3147,2851,2167,-0.65234375,0.0382080078125,-0.3033447265625
10.892,619,3147,3050,2484,-1.2301025390625,0.5587158203125,0.3609619140625
10.911,552,3147,3077,2611,-1.2301025390625,0.5587158203125,0.3609619140625
10.912,1067,3147,2127,2430,-1.682373046875,0.68359375,0.7222900390625
10.925,2944,3147,523,1050,-2.0518798828125,0.4947509765625,0.876220703125
10.930,525,3147,3147,2482,-2.250244140625,0.2066650390625,0.831787109375
10.938,658,3147,3031,2321,-2.1378173828125,0.0726318359375,0.590576171875
10.954,574,3147,3048,2060,-1.6544189453125,0.2117919921875,0.217041015625
10.960,559,3147,3035,1931,-1.166748046875,0.4244384765625,0.02880859375
10.968,1109,3147,2538,1852,-1.050048828125,0.3511962890625,0.18994140625
10.988,932,3147,2584,1792,-1.230712890625,0.0196533203125,0.5169677734375
10.990,869,3147,2580,1741,-1.456787109375,-0.3074951171875,0.74853515625
11.007,883,3147,2504,1681,-1.5101318359375,-0.405029296875,0.7060546875
11.017,797,3147,2521,1624,-1.4168701171875,-0.250732421875,0.4915771484375
11.020,1687,3147,1286,1399,-1.2841796875,-0.0416259765625,0.2987060546875
11.030,1953,3147,890,1116,-1.1295166015625,0.0950927734375,0.185546875
11.042,2010,3147,858,966,-0.9833984375,0.160888671875,0.1279296875
11.050,1994,3147,826,864,-0.898681640625,0.18896484375,0.1116943359375
11.058,1761,3147,1078,832,-0.8662109375,0.23291015625,0.0972900390625
11.072,1669,3147,963,616,-0.8409423828125,0.2723388671875,0.061767578125
11.080,947,3147,1365,495,-0.8138427734375,0.2503662109375,0.0296630859375
11.091,1331,3147,1159,356,-0.80322265625,0.184326171875,0.019775390625
11.103,1126,3120,1215,331,-0.802978515625,0.1197509765625,0.017822265625
11.121,986,2798,1232,344,-0.807373046875,0.0518798828125,0.0013427734375
11.122,679,2560,1424,343,-0.796875,-0.033935546875,-0.0179443359375
11.137,846,2246,1026,334,-0.7535400390625,-0.08447265625,-0.012939453125
11.142,661,1996,1018,332,-0.7060546875,-0.01806640625,0.0362548828125
11.148,785,1957,922,328,-0.6728515625,0.0938720703125,0.111083984375
11.162,487,1907,1253,336,-0.6595458984375,0.1041259765625,0.17138671875
11.170,1159,2001,336,307,-0.6700439453125,0.0360107421875,0.1878662109375
11.179,864,2062,625,316,-0.6878662109375,0.0013427734375,0.166015625
11.192,1380,2281,349,310,-0.7027587890625,0.0419921875,0.165771484375
11.200,1427,2478,344,309,-0.720703125,0.1182861328125,0.2230224609375
11.218,1492,2587,345,308,-0.7252197265625,0.1624755859375,0.274169921875
11.226,1627,2790,353,308,-0.7137451171875,0.160400390625,0.2657470703125
11.232,1664,2906,390,310,-0.7132568359375,0.1529541015625,0.232666015625
11.243,1774,3055,360,310,-0.73095703125,0.1544189453125,0.205322265625
11.289,1490,3147,757,323,-0.756103515625,0.145751953125,0.1866455078125
11.304,1184,3147,1173,418,-0.76220703125,0.1396484375,0.169921875
11.305,1003,3147,1452,588,-0.7208251953125,0.133544921875,0.1429443359375
11.305,2048,3147,656,658,-0.64501953125,0.09912109375,0.1114501953125
11.305,906,3147,1816,894,-0.5328369140625,0.0748291015625,0.0614013671875
11.305,1243,3147,1640,1134,-0.4007568359375,0.0667724609375,-0.0032958984375
11.320,713,3147,2430,1474,-0.376708984375,0.034912109375,-0.05078125
11.321,593,3147,2689,1561,-0.4283447265625,-0.0174560546875,-0.1048583984375
11.328,620,3147,2748,1669,-0.4654541015625,-0.132568359375,-0.1224365234375
11.341,619,3147,2867,2039,-0.64990234375,-0.169189453125,0.0340576171875
11.350,644,3147,2936,2306,-1.0284423828125,-0.0364990234375,0.3223876953125
11.358,654,3147,2978,2481,-1.4820556640625,0.145263671875,0.6187744140625
11.372,793,3147,2905,2759,-1.8929443359375,0.2977294921875,0.8074951171875
11.380,794,3147,2919,2830,-2.1839599609375,0.3326416015625,0.828125
11.388,815,3147,2901,2801,-2.323974609375,0.34765625,0.7030029296875
11.404,2833,3147,963,1683,-2.06494140625,0.4862060546875,0.31103515625
11.427,1954,3147,1635,2247,-1.4886474609375,0.6785888671875,-0.136474609375
11.428,1918,3147,1689,2202,-1.2745361328125,0.7032470703125,-0.0963134765625
11.433,1815,3147,1656,2024,-1.5047607421875,0.4378662109375,0.2952880859375
11.440,2813,3147,598,1143,-1.66845703125,0.091064453125,0.521728515625
11.448,1891,3147,1518,1821,-1.6337890625,-0.083740234375,0.476318359375
11.462,1573,3147,1686,1615,-1.5274658203125,-0.11328125,0.3155517578125
11.470,1481,3147,1675,1453,-1.4166259765625,-0.063232421875,0.23193359375
11.478,1404,3147,1666,1260,-1.2801513671875,0.08251953125,0.24072265625
11.491,2068,3147,864,761,-1.09765625,0.22509765625,0.240234375
11.500,1952,3147,897,675,-0.9075927734375,0.2864990234375,0.1951904296875
11.508,1785,3147,966,525,-0.744873046875,0.313232421875,0.1263427734375
11.525,1912,3134,684,322,-0.613525390625,0.3048095703125,0.0748291015625
11.530,1989,2741,536,316,-0.5045166015625,0.2271728515625,0.049560546875
11.539,1890,2281,507,314,-0.4290771484375,0.1053466796875,-0.010009765625
11.552,1483,2003,654,321,-0.4228515625,-0.0264892578125,-0.1107177734375
11.560,1494,1821,456,313,-0.488525390625,-0.1180419921875,-0.1378173828125
11.568,1383,1775,456,315,-0.5653076171875,-0.1478271484375,-0.0303955078125
11.582,934,1733,1058,332,-0.6077880859375,-0.1685791015625,0.1427001953125
11.590,1243,1779,458,315,-0.63330078125,-0.1817626953125,0.27490234375
11.602,907,1844,883,327,-0.63330078125,-0.1817626953125,0.27490234375
11.611,1096,1959,736,321,-0.7274169921875,0.0521240234375,0.32275390625
11.634,1078,2047,766,322,-0.7855224609375,0.2373046875,0.30078125
11.634,1441,2085,437,313,-0.7855224609375,0.2373046875,0.30078125
11.642,998,2218,938,328,-0.89404296875,0.331298828125,0.174560546875
11.651,963,2321,996,330,-0.9149169921875,0.2913818359375,0.0882568359375
11.658,934,2416,1064,329,-0.9149169921875,0.2913818359375,0.0882568359375
11.672,910,2552,1167,332,-0.870849609375,0.2039794921875,0.0479736328125
11.680,912,2683,1214,334,-0.846435546875,0.1561279296875,0.083251953125
11.688,964,2797,1198,334,-0.846435546875,0.1561279296875,0.083251953125
11.707,1504,3033,656,318,-0.7869873046875,0.085205078125,0.1468505859375
11.710,1564,3147,778,323,-0.74658203125,0.0819091796875,0.1458740234375
11.723,1840,3147,512,315,-0.74658203125,0.0819091796875,0.1458740234375
11.734,910,3147,1702,591,-0.6788330078125,0.1041259765625,0.115234375
11.744,1985,3147,567,553,-0.620361328125,0.1068115234375,0.084716796875
11.749,2119,3147,553,632,-0.620361328125,0.1068115234375,0.084716796875
11.762,2284,3147,578,1029,-0.486083984375,0.02734375,0.04638671875
11.779,1292,3147,1855,1283,-0.4290771484375,-0.055419921875,-0.0198974609375
11.780,1236,3147,1920,1386,-0.4290771484375,-0.055419921875,-0.0198974609375
11.792,2555,3147,644,991,-0.4249267578125,0.01806640625,-0.051513671875
11.807,2638,3147,818,1584,-0.6668701171875,-0.0152587890625,0.118408203125
11.808,2613,3147,707,1201,-0.6668701171875,-0.0152587890625,0.118408203125
11.838,2701,3147,725,1369,-1.5933837890625,-0.023193359375,0.6888427734375
11.839,2721,3147,742,1472,-1.5933837890625,-0.023193359375,0.6888427734375
11.840,2710,3147,788,1595,-1.934326171875,0.0919189453125,0.803466796875
11.855,794,3147,2877,2622,-2.2103271484375,0.28173828125,0.619873046875
11.860,2949,3147,1792,2156,-2.2103271484375,0.28173828125,0.619873046875
11.868,1251,3147,2131,2296,-1.8953857421875,0.542724609375,0.278564453125
11.937,1123,3147,2621,2286,-1.057373046875,0.8294677734375,0.069091796875
11.938,1750,3147,1890,2078,-1.057373046875,0.8294677734375,0.069091796875
11.938,1386,3147,2292,2127,-1.2698974609375,0.4114990234375,0.3638916015625
11.939,1157,3147,2372,2001,-1.697021484375,-0.1239013671875,0.405029296875
11.940,1098,3147,2397,1908,-1.697021484375,-0.1239013671875,0.405029296875
11.940,1697,3147,1603,1659,-1.6358642578125,-0.0146484375,0.3115234375
11.942,1129,3147,2087,1545,-1.327392578125,0.156494140625,0.291748046875
11.950,1039,3147,2122,1399,-1.327392578125,0.156494140625,0.291748046875
11.958,975,3147,2158,1255,-1.142578125,0.208251953125,0.2735595703125
11.972,1051,3147,1943,883,-0.8382568359375,0.18798828125,0.2003173828125
11.980,1243,3147,1662,683,-0.8382568359375,0.18798828125,0.2003173828125
11.989,1262,3147,1519,473,-0.733154296875,0.22802734375,0.1588134765625
12.002,1292,3027,1336,347,-0.611083984375,0.1474609375,0.028076171875
12.012,1853,2590,647,321,-0.611083984375,0.1474609375,0.028076171875
12.018,1929,2339,418,315,-0.5848388671875,-0.003173828125,-0.0460205078125
12.039,1695,1985,465,315,-0.572021484375,-0.19091796875,-0.1329345703125
12.040,1478,1846,546,316,-0.572021484375,-0.19091796875,-0.1329345703125
12.048,1456,1826,423,313,-0.6102294921875,-0.1229248046875,0.0009765625
12.062,1387,1750,423,313,-0.6351318359375,-0.042724609375,0.1888427734375
12.070,1331,1770,441,313,-0.6529541015625,0.0009765625,0.302734375
12.080,853,1770,594,315,-0.693359375,0.063720703125,0.291015625
12.095,536,1838,1228,336,-0.7457275390625,0.1749267578125,0.2171630859375
12.100,453,1880,1316,342,-0.7857666015625,0.2818603515625,0.1614990234375
12.115,431,1914,1351,342,-0.81396484375,0.314453125,0.1434326171875
12.122,431,1973,1377,343,-0.84619140625,0.274658203125,0.1512451171875
12.160,434,2012,1399,346,-0.8714599609375,0.218505859375,0.1607666015625
12.161,442,2113,1464,346,-0.8662109375,0.1744384765625,0.1590576171875
12.162,458,2323,1584,347,-0.8421630859375,0.143798828125,0.15673828125
12.162,467,2422,1669,347,-0.8236083984375,0.1209716796875,0.1551513671875
12.168,475,2552,1744,349,-0.8101806640625,0.096923828125,0.1424560546875
12.182,498,2744,1904,356,-0.788818359375,0.0611572265625,0.12939453125
12.193,513,2936,2014,364,-0.7567138671875,0.0277099609375,0.1192626953125
12.201,523,3114,2083,371,-0.7017822265625,0.050048828125,0.099365234375
12.216,2228,3147,519,371,-0.5958251953125,0.1151123046875,0.06787109375
12.220,2317,3147,514,454,-0.4378662109375,0.1484375,0.015380859375
12.228,2442,3147,648,614,-0.2467041015625,0.14404296875,-0.0614013671875
12.247,2571,3147,539,697,-0.10888671875,0.1063232421875,-0.1234130859375
12.250,2453,3147,659,897,-0.2030029296875,0.01318359375,-0.0760498046875
12.258,2689,3147,578,830,-0.58642578125,-0.135009765625,0.1182861328125
12.272,2787,3147,588,964,-1.0130615234375,-0.33447265625,0.3829345703125
12.280,2840,3147,600,1122,-1.2984619140625,-0.4368896484375,0.6514892578125
12.288,2930,3147,586,1166,-1.5340576171875,-0.274658203125,0.8363037109375
12.320,3048,3147,404,695,-1.7867431640625,0.099853515625,0.8206787109375
12.320,1357,3147,2100,2626,-2.0302734375,0.4632568359375,0.641845703125
12.320,525,3147,3147,2854,-2.1422119140625,0.629150390625,0.410888671875
12.345,1115,3147,3147,2874,-1.847900390625,0.66796875,0.0845947265625
12.345,548,3147,3147,2918,-1.2974853515625,0.7705078125,-0.1619873046875
12.348,713,3147,3092,2840,-1.1092529296875,0.9052734375,-0.044921875
12.367,698,3147,3093,2638,-1.35546875,0.8369140625,0.2220458984375
12.370,667,3147,3118,2510,-1.59765625,0.577880859375,0.3546142578125
12.378,648,3147,3071,2273,-1.634521484375,0.385986328125,0.33154296875
12.392,588,3147,2981,1967,-1.5545654296875,0.3494873046875,0.2330322265625
12.400,567,3147,2904,1715,-1.4495849609375,0.385009765625,0.1976318359375
12.428,551,3147,2790,1413,-1.31591796875,0.41455078125,0.2305908203125
12.429,531,3147,2659,893,-1.1458740234375,0.40234375,0.2410888671875
12.430,513,3147,2580,605,-0.966552734375,0.3536376953125,0.2081298828125
12.438,506,3147,2514,405,-0.7908935546875,0.290283203125,0.153076171875
12.454,485,2811,2364,385,-0.62451171875,0.21728515625,0.0960693359375
12.464,475,2544,2279,385,-0.47998046875,0.13720703125,0.0294189453125
12.468,464,2316,2161,376,-0.3983154296875,0.0784912109375,-0.0565185546875
12.482,415,2024,1968,371,-0.4085693359375,0.0546875,-0.1346435546875
12.490,408,1766,1840,360,-0.4913330078125,0.0635986328125,-0.10888671875
12.498,399,1865,1743,360,-0.5736083984375,0.0472412109375,0.0460205078125
12.512,428,1912,1602,354,-0.6024169921875,-0.0322265625,0.21484375
12.553,725,1996,1175,336,-0.6201171875,-0.0732421875,0.3096923828125
12.553,551,2072,1445,352,-0.6614990234375,0.01708984375,0.3306884765625
12.554,468,2131,1572,351,-0.727294921875,0.18896484375,0.314208984375
12.554,478,2178,1580,348,-0.8052978515625,0.3094482421875,0.29638671875
12.558,497,2244,1590,353,-0.8631591796875,0.3377685546875,0.279052734375
12.572,509,2281,1607,352,-0.88232421875,0.34814453125,0.254638671875
12.580,519,2293,1627,355,-0.8807373046875,0.3638916015625,0.2132568359375
12.588,521,2347,1641,351,-0.8822021484375,0.3653564453125,0.161865234375
12.602,532,2468,1681,351,-0.8843994140625,0.3485107421875,0.1304931640625
12.610,540,2524,1733,353,-0.876708984375,0.2923583984375,0.1328125
12.618,548,2610,1790,355,-0.8592529296875,0.207275390625,0.150390625
12.633,571,2760,1868,360,-0.8350830078125,0.14599609375,0.154541015625
12.654,579,2827,1948,364,-0.8125,0.116455078125,0.1397705078125
12.654,586,3022,2005,363,-0.7864990234375,0.1092529296875,0.106689453125
12.662,585,3147,2133,375,-0.7298583984375,0.146240234375,0.070068359375
12.670,570,3147,2238,508,-0.6492919921875,0.198486328125,0.076416015625
12.678,576,3147,2330,619,-0.5572509765625,0.21240234375,0.1087646484375
12.691,500,3147,2539,713,-0.451171875,0.20703125,0.1224365234375
12.700,487,3147,2692,865,-0.3240966796875,0.178955078125,0.1278076171875
12.708,2648,3147,482,601,-0.17041015625,0.0887451171875,0.105224609375
12.736,2478,3147,379,485,-0.1185302734375,-0.0350341796875,0.0931396484375
12.736,540,3147,3051,1462,-0.2972412109375,-0.1192626953125,0.15673828125
12.738,1260,3147,479,841,-0.2972412109375,-0.1192626953125,0.15673828125
12.762,1003,3147,1548,1312,-0.6787109375,-0.1075439453125,0.29541015625
12.762,3147,3147,383,620,-1.7401123046875,0.0806884765625,0.5885009765625
12.769,3147,3147,383,644,-2.1251220703125,0.08251953125,0.6087646484375
12.777,3140,3147,487,987,-2.1251220703125,0.08251953125,0.6087646484375
12.791,989,3147,2820,2695,-2.3572998046875,0.0615234375,0.3726806640625
12.800,1204,3147,2578,2637,-1.8560791015625,0.5601806640625,0.0780029296875
12.807,1290,3147,2569,2695,-1.8560791015625,0.5601806640625,0.0780029296875
12.821,912,3147,2981,2692,-1.18994140625,1.21240234375,0.179443359375
12.831,864,3147,2951,2589,-1.4993896484375,0.8443603515625,0.5587158203125
12.844,899,3147,2823,2407,-1.4993896484375,0.8443603515625,0.5587158203125
12.858,891,3147,2652,2093,-1.583740234375,0.3907470703125,0.406005859375
12.871,902,3147,2541,1900,-1.583740234375,0.3907470703125,0.406005859375
12.871,888,3147,2504,1783,-1.3927001953125,0.405517578125,0.1358642578125
12.881,844,3147,2379,1529,-1.0059814453125,0.302490234375,-0.0357666015625
12.889,826,3147,2317,1323,-1.0059814453125,0.302490234375,-0.0357666015625
12.897,814,3147,2275,1042,-0.8148193359375,0.2681884765625,-0.015380859375
12.911,761,3147,2186,661,-0.584228515625,0.29052734375,0.154296875
12.919,618,3147,2233,487,-0.584228515625,0.29052734375,0.154296875
12.934,490,3147,2280,390,-0.5557861328125,0.2755126953125,0.179443359375
12.948,959,2946,1648,360,-0.6103515625,0.1182861328125,-0.0013427734375
12.949,1762,2792,346,310,-0.6103515625,0.1182861328125,-0.0013427734375
12.958,1954,2643,356,308,-0.6839599609375,0.068603515625,-0.0982666015625
12.973,1082,2299,1067,332,-0.7962646484375,0.1292724609375,-0.00830078125
12.981,1518,2176,1076,338,-0.7962646484375,0.1292724609375,-0.00830078125
12.987,746,1996,1162,338,-0.7879638671875,0.142333984375,0.1123046875
13.001,858,2091,1093,330,-0.76611328125,0.1866455078125,0.1273193359375
13.009,1440,2111,344,310,-0.76611328125,0.1866455078125,0.1273193359375
13.017,1031,2171,464,308,-0.7889404296875,0.2353515625,0.068603515625
13.038,1536,2333,334,309,-0.779541015625,0.3323974609375,0.0362548828125
13.039,1568,2417,356,308,-0.779541015625,0.3323974609375,0.0362548828125
13.063,1038,2412,725,306,-0.753662109375,0.32080078125,0.0838623046875
13.064,725,2526,1236,336,-0.7403564453125,0.2198486328125,0.14208984375
13.069,620,2539,1541,348,-0.7403564453125,0.2198486328125,0.14208984375
13.077,600,2710,1623,351,-0.7205810546875,0.1514892578125,0.1085205078125
13.094,646,2981,1703,359,-0.686279296875,0.11376953125,0.06396484375
13.099,1069,3147,1343,346,-0.66259765625,0.12841796875,0.0509033203125
13.107,1224,3147,1292,375,-0.6553955078125,0.1583251953125,0.090576171875
13.121,553,3147,2203,603,-0.6259765625,0.1728515625,0.1461181640625
13.130,2320,3147,414,445,-0.5501708984375,0.158447265625,0.162109375
13.139,951,3147,1983,816,-0.4417724609375,0.10595703125,0.1322021484375
13.163,1239,3147,1918,1009,-0.324462890625,0.0384521484375,0.079345703125
13.171,1224,3147,2060,1276,-0.2469482421875,0.0262451171875,0.039306640625
13.171,2638,3147,1131,1224,-0.26708984375,0.096923828125,0.0660400390625
13.181,2962,3147,2337,1774,-0.439453125,0.1400146484375,0.177490234375
13.189,3117,3147,378,562,-0.80517578125,0.004638671875,0.345947265625
13.198,3147,3147,379,579,-1.2496337890625,-0.1640625,0.514404296875
13.211,2632,3147,871,1478,-1.6036376953125,-0.0272216796875,0.6092529296875
13.220,2178,3147,827,1636,-1.8817138671875,0.3367919921875,0.607177734375
13.227,1974,3147,1669,2235,-2.1473388671875,0.5345458984375,0.5482177734375
13.242,1815,3147,1823,2105,-2.307861328125,0.479736328125,0.4482421875
13.258,2912,3147,1131,1730,-2.05712890625,0.389404296875,0.146728515625
13.283,3147,3147,441,787,-1.4840087890625,0.382568359375,-0.2801513671875
13.283,3137,3147,411,666,-1.2344970703125,0.4156494140625,-0.3641357421875
13.284,3147,3147,388,617,-1.500244140625,0.3759765625,0.017578125
13.287,1117,3147,2271,1943,-1.81591796875,0.1571044921875,0.4954833984375
13.301,2161,3147,1308,1615,-1.8187255859375,-0.076416015625,0.71484375
13.311,1693,3147,1739,1703,-1.5672607421875,-0.105224609375,0.6221923828125
13.319,2153,3147,1143,1430,-1.28515625,-0.00390625,0.41455078125
13.333,1623,3147,1616,1383,-1.0888671875,0.1500244140625,0.25048828125
13.343,1377,3147,1704,1217,-0.94873046875,0.3089599609375,0.13037109375
13.347,1095,3147,1931,957,-0.8170166015625,0.3692626953125,0.056640625
13.375,966,3147,1899,644,-0.672607421875,0.3519287109375,0.031494140625
13.375,922,3147,1850,446,-0.54931640625,0.313232421875,0.0203857421875
13.378,829,3042,1810,372,-0.4998779296875,0.2518310546875,-0.006103515625
13.393,625,2527,1759,364,-0.521484375,0.1434326171875,-0.0831298828125
13.400,1201,2467,905,330,-0.5836181640625,0.020751953125,-0.1904296875
13.409,1852,2334,356,310,-0.66357421875,-0.016357421875,-0.2396240234375
13.422,1681,2134,338,308,-0.7366943359375,0.078857421875,-0.16796875
13.432,1629,2075,353,308,-0.758544921875,0.196533203125,0.0074462890625
13.438,1588,2079,363,313,-0.72119140625,0.1837158203125,0.2125244140625
13.456,1580,1980,336,309,-0.6708984375,0.08154296875,0.3646240234375
13.465,1624,2139,334,308,-0.6312255859375,0.0218505859375,0.396484375
13.503,1662,2292,371,310,-0.6199951171875,0.0203857421875,0.3319091796875
13.503,1742,2419,371,310,-0.663330078125,0.04833984375,0.2677001953125
13.504,1800,2561,368,310,-0.733642578125,0.10693359375,0.228759765625
13.504,1877,2668,364,310,-0.7862548828125,0.1812744140625,0.1907958984375
13.512,1945,2888,361,310,-0.810546875,0.2301025390625,0.157958984375
13.520,2000,2969,362,309,-0.8128662109375,0.241455078125,0.128173828125
13.528,2063,3121,362,308,-0.8065185546875,0.24853515625,0.1038818359375
13.551,2175,3147,375,321,-0.7784423828125,0.26953125,0.1015625
13.552,1762,3147,899,454,-0.70556640625,0.2547607421875,0.1046142578125
13.566,1488,3147,1336,650,-0.607177734375,0.1849365234375,0.098876953125
13.587,2404,3147,512,567,-0.490478515625,0.11083984375,0.078125
13.590,2635,3147,387,457,-0.3587646484375,0.062255859375,0.029052734375
13.591,2746,3147,383,496,-0.2711181640625,0.0604248046875,-0.0367431640625
13.650,2922,3147,363,478,-0.3472900390625,0.093505859375,-0.0687255859375
13.651,757,3147,2985,1518,-0.611572265625,0.06201171875,-0.0050048828125
13.651,754,3147,3025,1637,-0.940673828125,-0.07275390625,0.191650390625
13.651,1024,3147,2728,1895,-1.243408203125,-0.1781005859375,0.435546875
13.651,549,3147,3147,2192,-1.539306640625,-0.12939453125,0.571533203125
13.657,575,3147,3147,2386,-1.826171875,0.0855712890625,0.57275390625
13.665,624,3147,3147,2581,-2.0380859375,0.2894287109375,0.4947509765625
13.679,689,3147,3147,2467,-2.1243896484375,0.348388671875,0.3868408203125
13.679,815,3147,3082,2409,-1.88525390625,0.43896484375,0.164794921875
13.693,678,3147,3147,2424,-1.429443359375,0.5634765625,-0.0740966796875
13.700,667,3147,3147,2359,-1.2904052734375,0.514892578125,0.0623779296875
13.708,648,3147,3147,2280,-1.446533203125,0.36376953125,0.4461669921875
13.722,642,3147,3147,1997,-1.4979248046875,0.2491455078125,0.6141357421875
13.730,636,3147,3106,1852,-1.3951416015625,0.1810302734375,0.4786376953125
13.738,631,3147,3059,1748,-1.279296875,0.1361083984375,0.220458984375
13.752,617,3147,2909,1541,-1.1990966796875,0.1043701171875,0.0341796875
13.760,616,3147,2793,1370,-1.1361083984375,0.1090087890625,-0.0394287109375
13.780,675,3147,2654,1198,-1.08740234375,0.1708984375,-0.0198974609375
13.782,644,3147,2552,918,-1.0386962890625,0.2581787109375,0.07373046875
13.790,625,3147,2472,778,-0.971435546875,0.2933349609375,0.1788330078125
13.800,1103,3147,2087,621,-0.882080078125,0.2607421875,0.23486328125
13.812,794,3078,2136,376,-0.7913818359375,0.2022705078125,0.22265625
13.820,2026,2741,1529,359,-0.7047119140625,0.137451171875,0.137939453125
13.828,2178,2280,363,308,-0.640380859375,0.0521240234375,-0.009521484375
13.841,912,1933,1428,348,-0.6187744140625,-0.02001953125,-0.149658203125
13.855,971,1769,1253,344,-0.6292724609375,-0.0028076171875,-0.1888427734375
13.858,958,1759,1091,336,-0.650634765625,0.0953369140625,-0.0880126953125
13.889,794,1623,1151,334,-0.6590576171875,0.1558837890625,0.089111328125
13.890,902,1666,958,328,-0.663330078125,0.1263427734375,0.220703125
13.891,907,1615,921,327,-0.663330078125,0.1263427734375,0.220703125
13.909,943,1781,932,328,-0.69921875,0.048583984375,0.163818359375
13.910,939,1861,932,328,-0.7408447265625,0.0751953125,0.101806640625
13.918,673,1863,1340,343,-0.7408447265625,0.0751953125,0.101806640625
13.932,572,1960,1504,345,-0.8133544921875,0.164794921875,0.1629638671875
13.941,598,1983,1580,346,-0.819580078125,0.190185546875,0.199462890625
13.948,614,2068,1623,347,-0.819580078125,0.190185546875,0.199462890625
13.962,631,2284,1719,351,-0.8040771484375,0.168701171875,0.141845703125
13.970,647,2448,1820,361,-0.797119140625,0.122314453125,0.0982666015625
13.982,660,2658,1880,369,-0.797119140625,0.122314453125,0.0982666015625
13.997,674,2958,1987,365,-0.748779296875,0.0858154296875,0.064697265625
14.000,685,3101,2089,375,-0.693115234375,0.0726318359375,0.0919189453125
14.014,697,3147,2186,426,-0.693115234375,0.0726318359375,0.0919189453125
14.022,1078,3147,1874,711,-0.539794921875,0.087646484375,0.1043701171875
14.030,1201,3147,1934,986,-0.4757080078125,0.0980224609375,0.081298828125
14.039,1093,3147,2061,1206,-0.4757080078125,0.0980224609375,0.081298828125
14.052,620,3147,2772,1562,-0.5421142578125,0.0074462890625,-0.03271484375
14.060,1753,3147,2582,1598,-0.5504150390625,-0.066162109375,-0.0662841796875
14.068,1330,3147,1188,1462,-0.5504150390625,-0.066162109375,-0.0662841796875
14.084,1861,3147,2663,1796,-0.7744140625,0.0771484375,0.1497802734375
14.095,1323,3147,2144,2186,-1.2520751953125,0.32080078125,0.397705078125
14.099,3147,3147,388,667,-1.2520751953125,0.32080078125,0.397705078125
14.120,2750,3147,1054,1921,-2.1280517578125,0.4913330078125,0.66259765625
14.120,3147,3147,1440,2478,-2.1280517578125,0.4913330078125,0.66259765625
14.128,2335,3147,378,619,-2.29931640625,0.3592529296875,0.627197265625
14.142,685,3147,3147,2492,-1.606689453125,0.3482666015625,0.089111328125
14.150,667,3147,3147,2382,-1.606689453125,0.3482666015625,0.089111328125
14.162,661,3147,3147,2296,-1.121337890625,0.4736328125,-0.1373291015625
14.172,3147,3147,656,710,-1.4261474609375,0.2235107421875,0.2540283203125
14.189,630,3147,3147,2100,-1.4261474609375,0.2235107421875,0.2540283203125
14.190,572,3147,3147,2035,-1.68017578125,-0.0062255859375,0.442626953125
14.202,485,3147,3147,1821,-1.56591796875,-0.20947265625,0.3304443359375
14.210,466,3147,3066,1735,-1.56591796875,-0.20947265625,0.3304443359375
14.220,483,3147,2935,1641,-1.4566650390625,-0.171142578125,0.228271484375
14.232,447,3147,2792,1355,-1.22265625,0.13623046875,0.162109375
14.241,485,3147,2659,1209,-1.22265625,0.13623046875,0.162109375
14.248,587,3147,2437,873,-1.06298828125,0.1927490234375,0.133544921875
14.265,759,3147,2058,513,-0.7276611328125,0.281494140625,0.0740966796875
14.270,936,3147,1745,369,-0.7276611328125,0.281494140625,0.0740966796875
14.290,835,2683,1718,364,-0.610107421875,0.3179931640625,0.0267333984375
14.293,499,1931,1766,363,-0.47509765625,0.166259765625,-0.170654296875
14.300,574,1837,1541,354,-0.47509765625,0.166259765625,-0.170654296875
14.308,465,1800,1455,348,-0.451171875,0.03271484375,-0.2802734375
14.322,411,1616,1335,346,-0.4896240234375,-0.0150146484375,-0.2353515625
14.339,481,1610,1294,346,-0.5377197265625,0.012939453125,-0.0416259765625
14.339,598,1636,1292,338,-0.557373046875,0.0108642578125,0.1864013671875
14.352,691,1813,1085,332,-0.567138671875,-0.039306640625,0.3428955078125
14.367,1081,1943,684,321,-0.59228515625,-0.058837890625,0.37939453125
14.368,787,1969,1097,334,-0.644775390625,0.0079345703125,0.35107421875
14.387,667,2072,1366,342,-0.706787109375,0.1202392578125,0.3016357421875
14.403,648,2213,1472,347,-0.7518310546875,0.2098388671875,0.2423095703125
14.403,614,2287,1610,338,-0.776611328125,0.244384765625,0.1842041015625
14.412,501,2630,1880,361,-0.7965087890625,0.24560546875,0.1317138671875
14.420,573,2770,1891,361,-0.8175048828125,0.244384765625,0.0867919921875
14.428,546,2955,2024,365,-0.822021484375,0.2374267578125,0.0484619140625
14.446,527,3147,2197,375,-0.798583984375,0.2108154296875,0.040771484375
14.450,533,3147,2308,431,-0.7584228515625,0.168701171875,0.0625
14.458,536,3147,2394,552,-0.6885986328125,0.1248779296875,0.07373046875
14.472,562,3147,2561,853,-0.5836181640625,0.08203125,0.0540771484375
14.480,646,3147,2593,1017,-0.489990234375,0.072998046875,0.04052734375
14.492,1155,3147,2191,1163,-0.4241943359375,0.106201171875,0.046875
14.505,666,3147,2843,1435,-0.426025390625,0.0875244140625,0.042236328125
14.510,400,3147,3147,1540,-0.5323486328125,-0.0626220703125,0.0733642578125
14.519,696,3147,3147,1700,-0.7061767578125,-0.2677001953125,0.2388916015625
14.532,2058,3147,1592,1739,-0.9119873046875,-0.331787109375,0.4832763671875
14.544,631,3147,3147,2188,-1.1910400390625,-0.178466796875,0.650634765625
14.548,2394,3147,2372,2275,-1.62451171875,0.164794921875,0.6923828125
14.562,2280,3147,2128,2293,-2.1107177734375,0.4827880859375,0.5760498046875
14.572,1320,3147,2612,2167,-2.4356689453125,0.5430908203125,0.3465576171875
14.578,2268,3147,1708,2019,-2.2672119140625,0.49853515625,-0.011474609375
14.599,1598,3147,2215,2032,-1.6282958984375,0.5364990234375,-0.3792724609375
14.600,1198,3147,2155,2030,-1.2227783203125,0.6204833984375,-0.366455078125
14.608,3147,3147,398,834,-1.39599609375,0.551513671875,0.0484619140625
14.623,548,3147,3147,1952,-1.6845703125,0.244140625,0.460205078125
14.630,506,3147,3147,1813,-1.673828125,-0.039306640625,0.57080078125
14.638,485,3147,3147,1761,-1.4815673828125,-0.09033203125,0.4263916015625
14.652,466,3147,2981,1476,-1.3173828125,0.0166015625,0.2353515625
14.660,456,3147,2886,1333,-1.19287109375,0.13232421875,0.1168212890625
14.679,447,3147,2775,1116,-1.0826416015625,0.174072265625,0.075439453125
14.682,468,3147,2566,750,-1.005859375,0.181396484375,0.0947265625
14.696,458,3147,2435,530,-0.9324951171875,0.1898193359375,0.1387939453125
14.704,498,3147,2233,385,-0.8314208984375,0.1729736328125,0.1722412109375
14.714,2068,2498,345,308,-0.712158203125,0.13671875,0.1712646484375
14.720,1209,2128,932,327,-0.599365234375,0.080322265625,0.0887451171875
14.728,1143,1852,328,309,-0.52099609375,-0.0103759765625,-0.078369140625
14.742,546,1602,1112,331,-0.4974365234375,-0.0672607421875,-0.2015380859375
14.757,1260,1476,327,308,-0.5245361328125,-0.0250244140625,-0.17138671875
14.758,1236,1429,328,309,-0.5687255859375,0.0489501953125,-0.0186767578125
14.785,584,1404,1014,327,-0.621337890625,0.0526123046875,0.1502685546875
14.791,816,1366,607,316,-0.678955078125,0.020751953125,0.2498779296875
14.803,376,1413,1224,330,-0.7120361328125,0.0426025390625,0.259521484375
14.805,389,1536,1236,331,-0.7249755859375,0.110107421875,0.2252197265625
14.810,763,1582,834,323,-0.739501953125,0.1585693359375,0.1920166015625
14.818,1034,1647,642,316,-0.7564697265625,0.1728515625,0.15869140625
14.828,962,1808,735,321,-0.7677001953125,0.181396484375,0.1170654296875
14.841,949,1948,849,324,-0.76611328125,0.1903076171875,0.0826416015625
14.849,959,2068,918,323,-0.7601318359375,0.1939697265625,0.0738525390625
14.866,1000,2207,989,330,-0.76220703125,0.188232421875,0.087158203125
14.871,1241,2517,951,327,-0.769775390625,0.160888671875,0.100830078125
14.879,1411,2770,816,324,-0.7652587890625,0.124267578125,0.1075439453125
14.887,1800,2963,548,316,-0.73828125,0.090087890625,0.1165771484375
14.905,2039,3147,666,315,-0.701416015625,0.070068359375,0.1307373046875
14.909,1624,3147,1481,416,-0.656005859375,0.09033203125,0.1422119140625
14.919,1348,3147,561,608,-0.656005859375,0.09033203125,0.1422119140625
14.931,2286,3147,801,363,-0.49853515625,0.096923828125,0.0804443359375
14.939,2818,3147,334,374,-0.3917236328125,-0.0570068359375,-0.03759765625
14.947,628,3147,2793,975,-0.3917236328125,-0.0570068359375,-0.03759765625
14.961,2127,3147,484,883,-0.4786376953125,-0.07763671875,-0.0543212890625
14.984,998,3147,2392,496,-0.7696533203125,0.0975341796875,0.20263671875
14.984,895,3147,2918,1371,-0.7696533203125,0.0975341796875,0.20263671875
14.991,800,3147,3084,1611,-1.697265625,0.220458984375,0.68359375
15.015,1362,3147,2280,1452,-2.080078125,0.283203125,0.70751953125
15.015,3147,3147,513,951,-2.080078125,0.283203125,0.70751953125
15.021,3147,3147,405,561,-2.29638671875,0.41064453125,0.301025390625
15.029,2621,3147,787,820,-1.8681640625,0.5711669921875,-0.1248779296875
15.037,1278,3147,2498,1380,-1.8681640625,0.5711669921875,-0.1248779296875
15.051,2247,3147,1424,1149,-1.266845703125,0.7198486328125,-0.1407470703125
15.059,1317,3147,1826,1160,-1.5115966796875,0.2669677734375,0.420166015625
15.068,1003,3147,2753,1213,-1.5115966796875,0.2669677734375,0.420166015625
15.081,932,3147,2648,1160,-1.5263671875,-0.3450927734375,0.8084716796875
15.089,971,3147,2188,1069,-1.35107421875,-0.0762939453125,0.502685546875
15.099,2840,3147,432,495,-1.35107421875,-0.0762939453125,0.502685546875
15.111,1209,3147,605,590,-1.0977783203125,0.2037353515625,0.0194091796875
15.124,675,3147,2519,607,-1.0977783203125,0.2037353515625,0.0194091796875
15.129,638,3147,2486,442,-1.040771484375,0.195556640625,-0.0145263671875
15.141,569,2996,2374,382,-0.8465576171875,0.263916015625,0.0146484375
15.149,548,2616,2280,382,-0.8465576171875,0.263916015625,0.0146484375
15.157,533,2306,2184,373,-0.7083740234375,0.2080078125,0.025390625
15.171,499,1900,1963,362,-0.5570068359375,0.016845703125,-0.098876953125
15.191,485,1730,1750,359,-0.5570068359375,0.016845703125,-0.098876953125
15.192,458,1592,1534,352,-0.5469970703125,-0.035888671875,-0.1923828125
15.213,419,1361,1424,338,-0.590576171875,0.027587890625,-0.031494140625
15.213,411,1321,1422,316,-0.590576171875,0.027587890625,-0.031494140625
15.217,409,1343,1382,342,-0.617431640625,0.0341796875,0.1422119140625
15.234,411,1427,1370,336,-0.6763916015625,0.1038818359375,0.2718505859375
15.242,419,1476,1348,338,-0.6763916015625,0.1038818359375,0.2718505859375
15.248,418,1518,1382,342,-0.7113037109375,0.1868896484375,0.2625732421875
15.263,428,1669,1419,346,-0.8037109375,0.2032470703125,0.2249755859375
15.271,430,1803,1483,345,-0.8037109375,0.2032470703125,0.2249755859375
15.277,439,1848,1501,347,-0.837158203125,0.18701171875,0.1878662109375
15.316,447,1959,1632,348,-0.830810546875,0.22314453125,0.1251220703125
15.316,458,1994,1739,327,-0.830810546875,0.22314453125,0.1251220703125
15.316,479,2087,1787,351,-0.7921142578125,0.2081298828125,0.1141357421875
15.322,480,2398,1934,361,-0.75439453125,0.1436767578125,0.0892333984375
15.330,481,2527,2058,371,-0.75439453125,0.1436767578125,0.0892333984375
15.340,484,2679,2153,372,-0.7445068359375,0.142333984375,0.091552734375
15.352,501,3028,2320,375,-0.622314453125,0.1766357421875,0.09521484375
15.360,513,3147,2473,385,-0.622314453125,0.1766357421875,0.09521484375
15.368,523,3147,2568,487,-0.5164794921875,0.1455078125,0.0770263671875
15.383,572,3147,2750,723,-0.34912109375,0.051513671875,0.021728515625
15.400,582,3147,2890,944,-0.34912109375,0.051513671875,0.021728515625
15.400,578,3147,3000,1125,-0.38623046875,-0.04638671875,0.0391845703125
15.419,605,3147,3121,1340,-0.7017822265625,-0.31591796875,0.1455078125
15.422,594,3147,3147,1499,-0.7017822265625,-0.31591796875,0.1455078125
15.433,625,3147,3147,1753,-0.8856201171875,-0.26904296875,0.265380859375
15.443,689,3147,3147,2050,-1.6632080078125,0.189697265625,0.6168212890625
15.450,728,3147,3147,2165,-1.6632080078125,0.189697265625,0.6168212890625
15.460,2098,3147,767,1945,-2.0174560546875,0.386962890625,0.678955078125
15.472,2464,3147,2142,2231,-2.2103271484375,0.472900390625,0.57470703125
15.482,1369,3147,3143,2145,-2.1953125,0.564453125,0.31640625
15.495,735,3147,3147,2000,-1.8128662109375,0.720458984375,-0.10107421875
15.503,842,3147,3147,1922,-1.3199462890625,0.823974609375,-0.3768310546875
15.523,887,3147,3098,1880,-1.2047119140625,0.71337890625,-0.2076416015625
15.523,1774,3147,2018,1686,-1.4752197265625,0.39013671875,0.2645263671875
15.526,1468,3147,2263,1573,-1.735595703125,0.0284423828125,0.6512451171875
15.544,846,3147,2850,1433,-1.703125,-0.162353515625,0.6954345703125
15.549,818,3147,2780,1312,-1.479248046875,-0.1505126953125,0.4901123046875
15.564,775,3147,2622,1054,-1.2603759765625,-0.0137939453125,0.2763671875
15.572,785,3147,2519,932,-1.08935546875,0.134521484375,0.1461181640625
15.578,761,3147,2464,754,-0.9501953125,0.196533203125,0.0557861328125
15.600,706,3147,2386,512,-0.8685302734375,0.2313232421875,0.014892578125
15.602,975,3147,1929,375,-0.8240966796875,0.28369140625,0.028564453125
15.627,906,2964,1954,371,-0.7672119140625,0.2786865234375,0.0750732421875
15.628,1170,2386,1494,354,-0.688232421875,0.18603515625,0.11865234375
15.631,1253,2076,1243,344,-0.6226806640625,0.0662841796875,0.10791015625
15.640,1236,1899,1081,338,-0.5908203125,-0.0355224609375,0.031494140625
15.653,411,1608,1597,354,-0.5975341796875,-0.08837890625,-0.02734375
15.660,391,1494,1487,353,-0.62353515625,-0.0821533203125,0.0135498046875
15.669,391,1434,1428,347,-0.631103515625,-0.07861328125,0.1236572265625
15.685,418,1362,1318,338,-0.6365966796875,-0.08935546875,0.21728515625
15.700,437,1387,1303,338,-0.6617431640625,-0.0390625,0.2366943359375
15.700,437,1452,1312,337,-0.6949462890625,0.0908203125,0.2047119140625
15.731,442,1557,1313,336,-0.7222900390625,0.21875,0.1829833984375
15.731,442,1678,1340,318,-0.7398681640625,0.2738037109375,0.1846923828125
15.731,447,1762,1386,346,-0.7568359375,0.2598876953125,0.1856689453125
15.742,465,1852,1477,346,-0.777099609375,0.2210693359375,0.17138671875
15.753,473,1967,1582,346,-0.786865234375,0.189453125,0.13916015625
15.758,484,2021,1687,348,-0.78515625,0.1658935546875,0.1048583984375
15.772,497,2266,1803,360,-0.7908935546875,0.1368408203125,0.09228515625
15.782,501,2465,1880,360,-0.810791015625,0.1124267578125,0.101318359375
15.788,516,2525,1994,369,-0.82080078125,0.1085205078125,0.1270751953125
15.805,532,2823,2118,371,-0.7823486328125,0.102294921875,0.15966796875
15.825,548,3075,2266,376,-0.691650390625,0.088623046875,0.1666259765625
15.829,564,3147,2394,376,-0.575927734375,0.078125,0.1368408203125
15.832,575,3147,2648,598,-0.4337158203125,0.038818359375,0.075927734375
15.845,548,3147,2888,882,-0.2579345703125,-0.058349609375,-0.011474609375
15.849,648,3147,2882,1027,-0.155029296875,-0.192138671875,-0.0963134765625
15.866,3048,3147,1878,1155,-0.2745361328125,-0.236572265625,-0.114990234375
15.887,2364,3147,2296,1302,-0.5802001953125,-0.129150390625,-0.0032958984375
15.888,1529,3147,2266,1434,-0.964599609375,-0.023193359375,0.2001953125
15.914,1543,3147,2337,1800,-1.384521484375,0.0301513671875,0.4556884765625
15.914,2072,3147,1561,1826,-1.7955322265625,0.20703125,0.73388671875
15.914,2344,3147,1798,1892,-2.1160888671875,0.42333984375,0.845703125
15.934,787,3147,3147,2128,-2.2974853515625,0.4921875,0.7078857421875
15.935,759,3147,3147,2053,-2.213623046875,0.5675048828125,0.340087890625
15.939,757,3147,3147,1925,-1.722412109375,0.745849609375,-0.203125
15.955,767,3147,3147,1838,-1.2091064453125,0.8382568359375,-0.4815673828125
15.960,761,3147,3147,1808,-1.1168212890625,0.61572265625,-0.14794921875
15.968,738,3147,3147,1783,-1.3048095703125,0.181640625,0.442626953125
15.982,649,3147,3147,1681,-1.4456787109375,-0.1087646484375,0.6824951171875
15.990,571,3147,3147,1616,-1.424072265625,-0.111083984375,0.4853515625
15.998,536,3147,3147,1529,-1.3203125,0.03173828125,0.1893310546875
16.012,484,3147,3147,1357,-1.2310791015625,0.162109375,0.0286865234375
16.047,475,3147,3133,1217,-1.1697998046875,0.287841796875,0.0189208984375
16.047,442,3147,3072,1071,-1.1011962890625,0.3992919921875,0.0606689453125
16.047,424,3147,2991,790,-1.019287109375,0.4171142578125,0.1181640625
16.050,465,3147,2879,628,-0.9490966796875,0.3521728515625,0.197509765625
16.058,482,3147,2777,497,-0.8929443359375,0.2598876953125,0.2509765625
16.072,495,3147,2619,398,-0.846923828125,0.1727294921875,0.2301025390625
16.080,506,3047,2503,390,-0.83056640625,0.11181640625,0.1448974609375
16.088,512,2766,2375,387,-0.829833984375,0.1025390625,0.0364990234375
16.109,512,2261,2195,371,-0.8094482421875,0.1209716796875,-0.0740966796875
16.111,479,2086,2063,369,-0.775390625,0.1138916015625,-0.1685791015625
16.118,473,1981,1913,369,-0.7672119140625,0.0966796875,-0.189697265625
16.153,419,1616,1590,348,-0.7828369140625,0.123291015625,-0.091064453125
16.154,409,1535,1454,328,-0.7723388671875,0.14697265625,0.0745849609375
16.154,387,1427,1395,347,-0.7723388671875,0.14697265625,0.0745849609375
16.163,438,1223,1248,334,-0.6826171875,0.0548095703125,0.274658203125
16.170,444,1198,1191,330,-0.6448974609375,0.0809326171875,0.2603759765625
16.180,411,1183,1228,327,-0.6448974609375,0.0809326171875,0.2603759765625
16.192,388,1280,1273,332,-0.6158447265625,0.253662109375,0.1685791015625
16.200,411,1359,1264,333,-0.6256103515625,0.30029296875,0.1441650390625
16.214,479,1474,1250,334,-0.6256103515625,0.30029296875,0.1441650390625
16.239,508,1715,1399,338,-0.6534423828125,0.2996826171875,0.134521484375
16.239,439,1899,1615,345,-0.6531982421875,0.23779296875,0.1324462890625
16.240,497,2026,1675,348,-0.6531982421875,0.23779296875,0.1324462890625
16.258,548,2333,1881,359,-0.6490478515625,0.14306640625,0.133544921875
16.261,639,2516,1920,361,-0.634033203125,0.1474609375,0.1258544921875
16.268,684,2722,1989,371,-0.634033203125,0.1474609375,0.1258544921875
16.282,704,3092,2233,375,-0.5369873046875,0.1512451171875,0.088623046875
16.290,661,3147,2410,431,-0.4605712890625,0.1541748046875,0.07470703125
16.298,634,3147,2557,617,-0.4605712890625,0.1541748046875,0.07470703125
16.313,2494,3147,808,790,-0.3021240234375,0.1083984375,0.012451171875
16.320,569,3147,2984,1198,-0.3448486328125,0.060546875,0.0535888671875
16.338,546,3147,3129,1316,-0.3448486328125,0.060546875,0.0535888671875
16.345,693,3147,3141,1666,-0.9776611328125,-0.363525390625,0.385986328125
16.362,826,3147,3075,1860,-1.291015625,-0.3349609375,0.4708251953125
16.363,859,3147,3089,2060,-1.291015625,-0.3349609375,0.4708251953125
16.372,1109,3147,2851,2268,-1.884765625,0.428955078125,0.5634765625
16.380,1759,3147,2599,2295,-1.884765625,0.428955078125,0.5634765625
16.388,815,3147,3147,2398,-2.1380615234375,0.5921630859375,0.56884765625
16.402,739,3147,3147,2229,-1.9537353515625,0.6312255859375,0.1793212890625
16.415,1317,3147,2293,2023,-1.9537353515625,0.6312255859375,0.1793212890625
16.418,2788,3147,910,1409,-1.4180908203125,0.6612548828125,-0.2467041015625
16.446,853,3147,2954,1603,-1.2877197265625,0.4979248046875,-0.2379150390625
16.446,989,3147,3098,1920,-1.2877197265625,0.4979248046875,-0.2379150390625
16.448,666,3147,3147,1864,-1.636474609375,0.1187744140625,0.1678466796875
16.462,628,3147,3125,1747,-1.66796875,-0.3104248046875,0.5078125
16.474,589,3147,3056,1689,-1.66796875,-0.3104248046875,0.5078125
16.479,858,3147,2652,1600,-1.4010009765625,-0.2039794921875,0.3546142578125
16.492,788,3147,2585,1387,-1.0543212890625,0.227783203125,0.1231689453125
16.500,830,3147,2463,1242,-1.0543212890625,0.227783203125,0.1231689453125
16.508,869,3147,2345,1004,-0.9161376953125,0.4097900390625,0.059814453125
16.522,562,3147,2584,694,-0.759521484375,0.4967041015625,0.0469970703125
16.546,501,3147,2552,532,-0.759521484375,0.4967041015625,0.0469970703125
16.546,499,3147,2442,402,-0.724853515625,0.445068359375,0.029296875
16.552,480,2995,2323,378,-0.6881103515625,0.2176513671875,-0.03857421875
16.560,462,2741,2268,377,-0.6881103515625,0.2176513671875,-0.03857421875
16.570,439,2507,2155,376,-0.6922607421875,0.0836181640625,-0.0947265625
16.586,413,2263,1960,361,-0.683837890625,-0.041259765625,-0.1126708984375
16.590,418,2114,1824,361,-0.683837890625,-0.041259765625,-0.1126708984375
16.598,404,1985,1681,356,-0.677001953125,-0.01025390625,-0.045654296875
16.612,378,1874,1604,356,-0.6981201171875,0.0592041015625,0.0667724609375
