time,compression0,compression1,compression2,compression3,accel_x,accel_y,accel_z
0.012,306,351,1079,3056,-0.831298828125,0.346923828125,-0.476806640625
0.035,308,348,1067,2978,-0.84130859375,0.348388671875,-0.4698486328125
0.035,291,332,1067,2872,-0.84375,0.350830078125,-0.4613037109375
0.057,308,347,1022,2715,-0.839111328125,0.361572265625,-0.4556884765625
0.060,308,346,991,2616,-0.82861328125,0.3858642578125,-0.4599609375
0.061,291,344,999,2563,-0.80615234375,0.4022216796875,-0.4700927734375
0.072,308,345,978,2484,-0.7821044921875,0.3900146484375,-0.47412109375
0.080,306,342,976,2472,-0.769287109375,0.3572998046875,-0.470947265625
0.088,309,682,978,2115,-0.7672119140625,0.3331298828125,-0.4642333984375
0.107,313,1428,980,1600,-0.768798828125,0.32421875,-0.455810546875
0.110,308,345,1000,2601,-0.7733154296875,0.315673828125,-0.4478759765625
0.118,308,346,1003,2657,-0.7833251953125,0.3065185546875,-0.439453125
0.136,308,347,1025,2748,-0.797119140625,0.3001708984375,-0.43115234375
0.140,304,351,1043,2807,-0.8072509765625,0.2962646484375,-0.4237060546875
0.157,309,351,1043,2869,-0.8052978515625,0.2939453125,-0.413818359375
0.162,308,359,1054,2984,-0.790283203125,0.2972412109375,-0.4083251953125
0.210,306,362,1067,3031,-0.7755126953125,0.3187255859375,-0.4195556640625
0.214,308,383,1107,3103,-0.7635498046875,0.353759765625,-0.4378662109375
0.237,309,434,1151,3147,-0.744140625,0.372802734375,-0.440185546875
0.237,321,3147,1184,754,-0.724853515625,0.3568115234375,-0.41796875
0.237,324,3147,1242,944,-0.6986083984375,0.299560546875,-0.365234375
0.238,327,3147,1355,1318,-0.643798828125,0.2318115234375,-0.286376953125
0.240,328,3147,1340,1528,-0.5538330078125,0.202392578125,-0.200439453125
0.241,332,3147,1344,1748,-0.4156494140625,0.20166015625,-0.1265869140625
0.267,344,3147,1373,2354,-0.2384033203125,0.211181640625,-0.0882568359375
0.267,347,3147,1386,2612,-0.0733642578125,0.268798828125,-0.110595703125
0.271,347,3147,1404,2859,0.00439453125,0.404296875,-0.1533203125
0.282,347,3147,1476,3147,-0.0640869140625,0.5509033203125,-0.1370849609375
0.290,349,3147,1509,3147,-0.3143310546875,0.6456298828125,-0.1146240234375
0.298,348,3147,1550,3147,-0.69140625,0.654296875,-0.23291015625
0.312,342,3147,1750,3147,-1.099609375,0.636474609375,-0.5511474609375
0.320,333,3147,1815,3147,-1.5086669921875,0.7572021484375,-0.9844970703125
0.354,334,3147,1922,3147,-1.86572265625,0.80859375,-1.3289794921875
0.354,360,3147,1931,3147,-2.1510009765625,0.5860595703125,-1.4091796875
0.355,363,3147,2005,3147,-2.1798095703125,0.13623046875,-1.002197265625
0.368,364,3147,2005,3147,-1.66552734375,-0.1900634765625,-0.2515869140625
0.373,359,3147,2012,3147,-0.940673828125,0.0972900390625,0.0885009765625
0.380,354,3147,2037,3147,-0.605224609375,0.8165283203125,-0.2750244140625
0.388,359,3147,2071,3147,-0.7799072265625,1.3670654296875,-0.779541015625
0.402,363,3147,2028,3147,-1.154296875,1.246826171875,-0.865234375
0.410,359,3147,1987,3147,-1.38916015625,0.6375732421875,-0.5975341796875
0.418,361,3147,1943,3147,-1.391845703125,0.23779296875,-0.382568359375
0.465,359,3147,1861,3147,-1.22900390625,0.2589111328125,-0.3778076171875
0.465,359,3147,1816,3147,-1.03173828125,0.4136962890625,-0.4322509765625
0.466,351,3147,1755,3147,-0.8807373046875,0.4415283203125,-0.3978271484375
0.466,348,3147,1705,2925,-0.7904052734375,0.310302734375,-0.321533203125
0.475,343,3147,1641,2498,-0.75634765625,0.2001953125,-0.2725830078125
0.478,344,3147,1596,2139,-0.7205810546875,0.1937255859375,-0.194580078125
0.492,336,3147,1463,1409,-0.6561279296875,0.181640625,-0.11474609375
0.500,332,3147,1395,1009,-0.6229248046875,0.1297607421875,-0.0927734375
0.508,332,3147,1361,659,-0.6336669921875,0.102783203125,-0.1168212890625
0.522,328,2760,1108,424,-0.646728515625,0.142822265625,-0.16259765625
0.530,327,2247,1010,401,-0.638671875,0.214599609375,-0.220947265625
0.540,324,2032,931,387,-0.6201171875,0.2821044921875,-0.28759765625
0.569,323,1499,841,362,-0.6099853515625,0.3570556640625,-0.337158203125
0.572,317,1398,855,363,-0.604736328125,0.4071044921875,-0.3553466796875
0.573,318,1233,853,348,-0.6007080078125,0.418212890625,-0.3507080078125
0.582,318,1184,865,352,-0.5982666015625,0.4193115234375,-0.343994140625
0.590,316,1289,894,356,-0.59521484375,0.4119873046875,-0.348388671875
0.598,318,1415,894,356,-0.59521484375,0.4119873046875,-0.348388671875
0.612,317,1716,913,361,-0.6297607421875,0.3499755859375,-0.3619384765625
0.620,317,1929,895,361,-0.668701171875,0.2713623046875,-0.3448486328125
0.628,319,2280,912,371,-0.668701171875,0.2713623046875,-0.3448486328125
0.642,325,3062,1000,376,-0.67431640625,0.111572265625,-0.2723388671875
0.650,326,3147,1109,620,-0.623046875,0.163330078125,-0.2493896484375
0.682,330,3147,1151,1022,-0.623046875,0.163330078125,-0.2493896484375
0.682,334,3147,1175,1713,-0.402587890625,0.3341064453125,-0.08837890625
0.682,337,3147,1206,1983,-0.2615966796875,0.3890380859375,0.0511474609375
0.688,344,3147,1251,2334,-0.2615966796875,0.3890380859375,0.0511474609375
0.701,349,3147,1331,2824,-0.0535888671875,0.4798583984375,0.1629638671875
0.710,353,3147,1413,2993,-0.0963134765625,0.3525390625,0.086181640625
0.718,356,3147,1447,3147,-0.0963134765625,0.3525390625,0.086181640625
0.732,356,3147,1447,3147,-0.7713623046875,0.4398193359375,-0.5465087890625
0.746,360,3147,1462,3147,-1.2039794921875,0.681640625,-0.987548828125
0.748,351,3147,1555,3147,-1.2039794921875,0.681640625,-0.987548828125
0.762,363,3147,1769,3147,-1.9930419921875,0.909912109375,-1.4508056640625
0.784,361,3147,1848,3147,-2.403564453125,0.46142578125,-1.1143798828125
0.784,361,3147,1905,3147,-2.403564453125,0.46142578125,-1.1143798828125
0.792,362,3147,1914,3147,-1.6715087890625,-0.3419189453125,0.3641357421875
0.800,361,3147,1846,3147,-0.7789306640625,0.3565673828125,0.295654296875
0.808,363,3147,1823,3147,-0.7789306640625,0.3565673828125,0.295654296875
0.823,364,3147,1861,3147,-0.8126220703125,1.1622314453125,-0.8653564453125
0.830,364,3147,1846,3147,-0.8126220703125,1.1622314453125,-0.8653564453125
0.839,364,3147,1834,3147,-1.357421875,0.8028564453125,-1.0313720703125
0.852,361,3147,1774,3147,-1.58544921875,0.2969970703125,-0.656494140625
0.903,361,3147,1757,3147,-1.58544921875,0.2969970703125,-0.656494140625
0.906,351,3147,1650,3147,-1.32958984375,0.3524169921875,-0.404541015625
0.906,356,3147,1627,3147,-0.8621826171875,0.562744140625,-0.0968017578125
0.906,349,3147,1572,3094,-0.7559814453125,0.4698486328125,-0.0499267578125
0.906,348,3147,1499,2710,-0.7559814453125,0.4698486328125,-0.0499267578125
0.913,338,3147,1416,1914,-0.8134765625,0.1558837890625,-0.1575927734375
0.922,336,3147,1323,1462,-0.85546875,-0.015380859375,-0.0908203125
0.929,331,3147,1143,792,-0.85546875,-0.015380859375,-0.0908203125
0.950,327,2409,907,414,-0.7652587890625,-0.2161865234375,-0.0673828125
0.951,304,1568,853,363,-0.7652587890625,-0.2161865234375,-0.0673828125
0.970,319,1151,869,356,-0.607421875,-0.171630859375,-0.2071533203125
1.009,316,1185,723,359,-0.5252685546875,0.249755859375,-0.3492431640625
1.009,299,1022,737,347,-0.5252685546875,0.249755859375,-0.3492431640625
1.009,316,959,713,347,-0.583984375,0.414306640625,-0.36865234375
1.009,315,900,707,344,-0.453857421875,0.4346923828125,-0.3206787109375
1.011,313,963,682,338,-0.453857421875,0.4346923828125,-0.3206787109375
1.019,314,1039,682,338,-0.3663330078125,0.4473876953125,-0.3154296875
1.033,315,1383,738,356,-0.46875,0.522705078125,-0.37939453125
1.041,315,2048,803,387,-0.46875,0.522705078125,-0.37939453125
1.056,316,2571,815,391,-0.48974609375,0.49365234375,-0.42041015625
1.076,315,3121,842,390,-0.5567626953125,0.22607421875,-0.399169921875
1.076,316,3147,808,527,-0.5567626953125,0.22607421875,-0.399169921875
1.079,319,3147,829,827,-0.5361328125,0.1348876953125,-0.34814453125
1.098,321,3147,843,1326,-0.4697265625,0.1806640625,-0.2030029296875
1.101,324,3147,895,1662,-0.4697265625,0.1806640625,-0.2030029296875
1.109,327,3147,984,1894,-0.481201171875,0.282470703125,-0.190673828125
1.123,334,3147,1172,2391,-0.475830078125,0.3782958984375,-0.1221923828125
1.131,344,3147,1251,2724,-0.475830078125,0.3782958984375,-0.1221923828125
1.140,346,3147,1341,2957,-0.4600830078125,0.3974609375,0.0238037109375
1.156,356,3147,1478,3147,-0.5423583984375,0.405029296875,0.1065673828125
1.161,357,3147,1546,3147,-0.6839599609375,0.4010009765625,0.082275390625
1.178,359,3147,1561,3147,-0.871337890625,0.4541015625,-0.0306396484375
1.183,371,3147,1659,3147,-1.185791015625,0.6058349609375,-0.30224609375
1.200,371,3147,1711,3147,-1.5750732421875,0.6776123046875,-0.6993408203125
1.201,347,3147,1770,3147,-1.916015625,0.5440673828125,-1.0958251953125
1.213,371,3147,1733,3147,-2.1444091796875,0.384521484375,-1.3197021484375
1.221,361,3147,1689,3147,-2.10107421875,0.2598876953125,-1.1898193359375
1.232,364,3147,1691,3147,-1.5650634765625,0.2200927734375,-0.6954345703125
1.243,362,3147,1733,3147,-0.8675537109375,0.5283203125,-0.2713623046875
1.260,363,3147,1735,3147,-0.783447265625,1.1131591796875,-0.3905029296875
1.260,363,3147,1730,3147,-1.252197265625,1.3634033203125,-0.7591552734375
1.274,359,3147,1683,3147,-1.5760498046875,0.9549560546875,-0.8134765625
1.284,360,3147,1638,3147,-1.5526123046875,0.3702392578125,-0.59521484375
1.296,359,3147,1521,3147,-1.3624267578125,0.1802978515625,-0.4561767578125
1.305,351,3147,1413,3031,-1.1270751953125,0.3328857421875,-0.4490966796875
1.311,348,3147,1306,2704,-0.912841796875,0.4244384765625,-0.384521484375
1.319,347,3147,1173,2337,-0.768310546875,0.294189453125,-0.2037353515625
1.333,334,3147,980,1452,-0.7081298828125,0.096923828125,-0.06201171875
1.345,332,3147,944,1065,-0.69091796875,0.00146484375,0.038330078125
1.349,330,3147,920,473,-0.6409912109375,-0.0101318359375,0.1314697265625
1.363,321,2244,853,423,-0.5826416015625,-0.065185546875,0.083251953125
1.372,321,1920,841,430,-0.539306640625,-0.0985107421875,-0.065185546875
1.389,321,1501,844,360,-0.4779052734375,-0.02001953125,-0.206298828125
1.399,318,1355,797,347,-0.462158203125,0.1663818359375,-0.3353271484375
1.401,313,1239,814,357,-0.496337890625,0.4283447265625,-0.425537109375
1.417,316,1185,793,357,-0.4942626953125,0.56103515625,-0.4462890625
1.423,316,1384,868,349,-0.459228515625,0.4923095703125,-0.4200439453125
1.431,316,1529,902,356,-0.44775390625,0.4383544921875,-0.4075927734375
1.439,316,1785,912,360,-0.5120849609375,0.5030517578125,-0.4117431640625
1.468,318,2225,920,363,-0.6192626953125,0.5054931640625,-0.39599609375
1.468,316,2381,936,371,-0.7052001953125,0.359375,-0.3775634765625
1.470,318,2567,919,375,-0.734130859375,0.1617431640625,-0.383056640625
1.499,318,2778,939,387,-0.7225341796875,0.0361328125,-0.3687744140625
1.500,321,3147,902,390,-0.7320556640625,0.0516357421875,-0.318359375
1.500,322,3147,949,491,-0.759033203125,0.12158203125,-0.250732421875
1.518,328,3147,987,920,-0.775390625,0.140380859375,-0.1949462890625
1.521,332,3147,1003,1108,-0.7779541015625,0.1077880859375,-0.2132568359375
1.529,334,3147,1026,1321,-0.7767333984375,0.1192626953125,-0.2899169921875
1.543,345,3147,1228,1801,-0.7803955078125,0.2254638671875,-0.33642578125
1.551,346,3147,1340,2080,-0.7523193359375,0.33251953125,-0.2723388671875
1.572,348,3147,1413,2359,-0.675537109375,0.44482421875,-0.091552734375
1.573,338,3147,1497,2760,-0.530029296875,0.531494140625,0.096435546875
1.628,359,3147,1544,3020,-0.3118896484375,0.5499267578125,0.23779296875
1.630,338,3147,1610,3147,-0.149169921875,0.55859375,0.2666015625
1.630,361,3147,1662,3147,-0.1973876953125,0.606201171875,0.02685546875
1.630,364,3147,1629,3147,-0.4805908203125,0.72216796875,-0.4720458984375
1.630,371,3147,1669,3147,-0.88037109375,0.8306884765625,-0.9617919921875
1.633,371,3147,1878,3147,-1.3076171875,0.854736328125,-1.2763671875
1.643,375,3147,2110,3147,-1.80224609375,0.77197265625,-1.366455078125
1.649,371,3147,2174,3147,-2.32568359375,0.4154052734375,-1.210693359375
1.668,371,3147,2133,3147,-2.51025390625,-0.2476806640625,-0.7569580078125
1.671,369,3147,2131,3147,-1.9078369140625,-0.578369140625,-0.0357666015625
1.683,364,3147,2156,3147,-0.9830322265625,-0.0125732421875,0.357666015625
1.695,371,3147,2172,3147,-0.7099609375,0.982177734375,0.053466796875
1.705,371,3147,2087,3147,-1.088623046875,1.3746337890625,-0.4542236328125
1.709,371,3147,1996,3147,-1.4808349609375,0.887939453125,-0.658935546875
1.723,365,3147,1722,3147,-1.575439453125,0.31201171875,-0.5863037109375
1.732,364,3147,1602,3147,-1.443115234375,0.186279296875,-0.4775390625
1.739,363,3147,1415,2991,-1.22265625,0.3134765625,-0.402099609375
1.753,354,3147,1250,2424,-0.989501953125,0.424560546875,-0.3155517578125
1.768,348,3147,1085,1994,-0.804931640625,0.445556640625,-0.2550048828125
1.769,346,3147,1025,1355,-0.729248046875,0.39306640625,-0.2291259765625
1.803,332,3147,1050,475,-0.735595703125,0.251953125,-0.133056640625
1.804,310,2748,975,385,-0.7379150390625,0.026123046875,0.0123291015625
1.804,321,1920,861,389,-0.6805419921875,-0.18115234375,0.0682373046875
1.813,318,1202,767,361,-0.54248046875,-0.250732421875,-0.015869140625
1.821,315,1091,744,359,-0.4039306640625,-0.17333984375,-0.173583984375
1.836,314,952,748,354,-0.382568359375,-0.017822265625,-0.2894287109375
1.843,316,1070,778,364,-0.4476318359375,0.119384765625,-0.3287353515625
1.852,313,1093,735,371,-0.4942626953125,0.253173828125,-0.333740234375
1.859,315,1217,680,377,-0.4942626953125,0.253173828125,-0.333740234375
1.873,314,1390,710,389,-0.487060546875,0.6031494140625,-0.380126953125
1.881,314,1516,763,391,-0.53564453125,0.7607421875,-0.4091796875
1.889,316,1735,801,402,-0.53564453125,0.7607421875,-0.4091796875
1.909,316,2278,813,385,-0.6724853515625,0.5291748046875,-0.399169921875
1.911,318,2539,858,398,-0.7242431640625,0.2769775390625,-0.3797607421875
1.919,318,2727,859,411,-0.7242431640625,0.2769775390625,-0.3797607421875
1.933,318,3106,864,401,-0.827392578125,0.1312255859375,-0.3414306640625
1.943,318,3147,891,438,-0.8712158203125,0.15087890625,-0.3045654296875
1.949,323,3147,912,642,-0.8712158203125,0.15087890625,-0.3045654296875
1.963,323,3147,951,895,-0.933837890625,0.1331787109375,-0.3077392578125
1.975,327,3147,975,1098,-0.9322509765625,0.1556396484375,-0.327392578125
1.979,329,3147,978,1302,-0.9322509765625,0.1556396484375,-0.327392578125
2.005,338,3147,1009,1656,-0.7193603515625,0.1622314453125,-0.212646484375
2.006,343,3147,1055,1895,-0.4991455078125,0.13525390625,-0.04345703125
2.012,344,3147,1258,2167,-0.4991455078125,0.13525390625,-0.04345703125
2.026,353,3147,1456,2657,-0.008544921875,0.2750244140625,0.21728515625
2.031,356,3147,1572,3020,0.11962890625,0.472412109375,0.1767578125
2.039,361,3147,1624,3147,0.11962890625,0.472412109375,0.1767578125
2.053,361,3147,1681,3147,-0.477783203125,0.72900390625,-0.349853515625
2.061,371,3147,1800,3147,-1.003173828125,0.714111328125,-0.70458984375
2.077,371,3147,1812,3147,-1.003173828125,0.714111328125,-0.70458984375
2.083,371,3147,1973,3147,-1.7352294921875,0.69189453125,-1.5028076171875
2.091,373,3147,2215,3147,-1.7352294921875,0.69189453125,-1.5028076171875
2.109,374,3147,2347,3147,-1.976806640625,0.58154296875,-1.6580810546875
2.114,374,3147,2359,3147,-2.05712890625,0.1998291015625,-0.501953125
2.121,371,3147,2367,3147,-2.05712890625,0.1998291015625,-0.501953125
2.134,369,3147,2421,3147,-1.4400634765625,0.1011962890625,0.247314453125
2.143,371,3147,2368,3147,-1.048095703125,0.8095703125,0.095947265625
2.157,372,3147,2312,3147,-1.048095703125,0.8095703125,0.095947265625
2.159,364,3147,2238,3147,-1.3580322265625,0.8218994140625,-0.296630859375
2.179,371,3147,2087,3147,-1.4429931640625,0.3321533203125,-0.646240234375
2.182,364,3147,1897,3147,-1.4429931640625,0.3321533203125,-0.646240234375
2.190,371,3147,1727,3147,-1.2684326171875,0.31884765625,-0.6087646484375
2.210,360,3147,1398,2887,-0.8826904296875,0.340087890625,-0.240966796875
2.217,356,3147,1276,2565,-0.8826904296875,0.340087890625,-0.240966796875
2.220,351,3147,1236,2082,-0.7586669921875,0.242431640625,-0.0762939453125
2.228,346,3147,1224,1588,-0.7052001953125,0.1739501953125,-0.027099609375
2.248,334,3147,1237,750,-0.7098388671875,0.1893310546875,-0.0045166015625
2.250,330,2974,1204,388,-0.761474609375,0.1865234375,0.031005859375
2.264,328,2213,999,373,-0.8118896484375,0.0721435546875,0.0069580078125
2.272,323,1318,840,365,-0.759765625,-0.081298828125,-0.108642578125
2.282,324,1117,834,360,-0.6279296875,-0.1212158203125,-0.2564697265625
2.288,316,1107,775,353,-0.541259765625,-0.027587890625,-0.3585205078125
2.314,313,899,711,347,-0.5244140625,0.1126708984375,-0.3746337890625
2.314,315,902,653,346,-0.5367431640625,0.256591796875,-0.3377685546875
2.319,315,894,679,348,-0.5472412109375,0.3699951171875,-0.3145751953125
2.332,315,985,706,348,-0.511474609375,0.4383544921875,-0.3294677734375
2.340,316,1091,748,351,-0.4578857421875,0.513427734375,-0.369873046875
2.348,316,1209,811,357,-0.4727783203125,0.60205078125,-0.3828125
2.363,318,1627,883,373,-0.5262451171875,0.53955078125,-0.34765625
2.371,321,1808,918,390,-0.577880859375,0.3099365234375,-0.3076171875
2.386,321,2100,910,398,-0.63134765625,0.1353759765625,-0.297607421875
2.393,328,2704,1013,406,-0.6756591796875,0.095703125,-0.302978515625
2.413,327,2927,1083,424,-0.7215576171875,0.1436767578125,-0.2855224609375
2.413,330,3147,1129,462,-0.769287109375,0.1817626953125,-0.233154296875
2.422,336,3147,1178,834,-0.8203125,0.1376953125,-0.1878662109375
2.431,338,3147,1213,1101,-0.881591796875,0.062255859375,-0.167724609375
2.439,347,3147,1228,1504,-0.90234375,0.04052734375,-0.12744140625
2.452,349,3147,1424,2026,-0.808837890625,0.1585693359375,-0.0777587890625
2.460,354,3147,1641,2328,-0.576171875,0.338134765625,-0.045166015625
2.487,361,3147,1789,2635,-0.3193359375,0.457763671875,-0.0479736328125
2.487,365,3147,2060,3084,-0.1685791015625,0.5068359375,-0.0975341796875
2.490,371,3147,2188,3147,-0.149658203125,0.5230712890625,-0.185302734375
2.500,371,3147,2290,3147,-0.310791015625,0.5787353515625,-0.3419189453125
2.513,371,3147,2551,3147,-0.656494140625,0.6793212890625,-0.6107177734375
2.520,373,3147,2703,3147,-1.12890625,0.8038330078125,-0.9208984375
2.528,373,3147,2745,3147,-1.6905517578125,0.8311767578125,-1.0731201171875
2.542,372,3147,2736,3147,-2.281005859375,0.576171875,-1.026611328125
2.550,371,3147,2787,3147,-2.639404296875,0.135498046875,-0.738037109375
2.558,376,3147,2723,3147,-2.2562255859375,-0.216796875,-0.165283203125
2.572,373,3147,2625,3147,-1.2117919921875,-0.076416015625,0.2037353515625
2.590,371,3147,2648,3147,-0.4500732421875,0.557861328125,-0.1123046875
2.591,373,3147,2645,3147,-0.63037109375,1.17431640625,-0.7730712890625
2.618,374,3147,2521,3147,-1.31787109375,1.2720947265625,-1.0809326171875
2.618,354,3147,2458,3147,-1.69921875,0.810302734375,-0.8651123046875
2.618,351,3147,2330,3147,-1.59130859375,0.37744140625,-0.5303955078125
2.632,361,3147,1994,3110,-1.3184814453125,0.3070068359375,-0.3941650390625
2.640,362,3147,1711,2798,-1.0872802734375,0.3953857421875,-0.3587646484375
2.648,359,3147,1504,2497,-0.87255859375,0.36669921875,-0.2449951171875
2.662,348,3147,1341,1865,-0.6888427734375,0.2362060546875,-0.11669921875
2.673,346,3147,1330,1289,-0.61474609375,0.1458740234375,-0.087158203125
2.679,337,3147,1315,666,-0.6768798828125,0.153564453125,-0.076416015625
2.721,328,2314,1253,382,-0.77880859375,0.1485595703125,-0.0311279296875
2.722,327,1652,1153,371,-0.8009033203125,0.0150146484375,-0.0350341796875
2.723,310,1198,1029,349,-0.7237548828125,-0.091064453125,-0.1197509765625
2.723,319,939,835,325,-0.6455078125,-0.023193359375,-0.2327880859375
2.731,318,787,753,336,-0.6220703125,0.1378173828125,-0.327392578125
2.738,315,710,607,332,-0.597900390625,0.2652587890625,-0.3748779296875
2.752,313,578,666,330,-0.5452880859375,0.3052978515625,-0.357421875
2.760,310,587,627,332,-0.508056640625,0.2723388671875,-0.3084716796875
2.768,311,646,683,330,-0.4871826171875,0.2386474609375,-0.2774658203125
2.782,310,657,725,328,-0.478515625,0.286376953125,-0.26513671875
2.801,315,873,735,334,-0.4940185546875,0.354248046875,-0.251220703125
2.802,315,1054,794,330,-0.524658203125,0.3470458984375,-0.2371826171875
2.813,317,1264,918,345,-0.5660400390625,0.2982177734375,-0.2315673828125
2.827,318,1560,963,349,-0.6009521484375,0.234130859375,-0.2379150390625
2.832,319,2032,966,361,-0.63671875,0.1671142578125,-0.258544921875
2.842,324,2993,1066,382,-0.6719970703125,0.138916015625,-0.2833251953125
2.850,328,3147,1101,468,-0.695556640625,0.1572265625,-0.30419921875
2.858,331,3147,1120,869,-0.695556640625,0.1572265625,-0.30419921875
2.872,344,3147,1137,1590,-0.6722412109375,0.2086181640625,-0.2413330078125
2.880,348,3147,1137,2007,-0.6339111328125,0.2279052734375,-0.1011962890625
2.904,354,3147,1355,2374,-0.6339111328125,0.2279052734375,-0.1011962890625
2.904,360,3147,1721,2904,-0.3121337890625,0.2078857421875,0.151611328125
2.935,365,3147,1889,3147,-0.1204833984375,0.294921875,0.1285400390625
2.935,371,3147,2053,3147,-0.1204833984375,0.294921875,0.1285400390625
2.936,370,3147,2310,3147,-0.54296875,0.7974853515625,-0.45849609375
2.940,371,3147,2473,3147,-1.0716552734375,0.995849609375,-1.041015625
2.948,364,3147,2590,3147,-1.0716552734375,0.995849609375,-1.041015625
2.962,376,3147,2807,3147,-1.967529296875,1.019775390625,-1.6312255859375
2.970,376,3147,2955,3147,-2.4263916015625,0.691162109375,-1.130615234375
2.978,369,3147,3052,3147,-2.4263916015625,0.691162109375,-1.130615234375
2.999,364,3147,3076,3147,-1.7593994140625,-0.7142333984375,0.6712646484375
3.000,369,3147,3066,3147,-0.80810546875,-0.1859130859375,0.7607421875
3.015,373,3147,3080,3147,-0.80810546875,-0.1859130859375,0.7607421875
3.023,365,3147,3076,3147,-1.136962890625,1.33935546875,-1.0308837890625
3.038,371,3147,2991,3147,-1.65673828125,0.902099609375,-1.2022705078125
3.039,364,3147,2858,3147,-1.65673828125,0.902099609375,-1.2022705078125
3.052,361,3147,2530,3147,-1.5477294921875,0.0958251953125,-0.5740966796875
3.060,363,3147,2395,3144,-1.2236328125,0.2935791015625,-0.4449462890625
3.068,361,3147,2139,2831,-1.2236328125,0.2935791015625,-0.4449462890625
3.082,359,3147,1678,2210,-0.6488037109375,0.400390625,-0.0985107421875
3.090,351,3147,1545,1774,-0.6488037109375,0.400390625,-0.0985107421875
3.118,347,3147,1419,1306,-0.4853515625,0.2349853515625,0.013427734375
3.118,334,3147,1323,433,-0.5950927734375,0.1656494140625,0.0067138671875
3.132,330,2519,1261,418,-0.5950927734375,0.1656494140625,0.0067138671875
3.132,315,2026,1178,385,-0.6851806640625,0.10009765625,-0.045166015625
3.147,324,1464,1000,378,-0.7012939453125,0.0081787109375,-0.2178955078125
3.150,323,1251,920,376,-0.7012939453125,0.0081787109375,-0.2178955078125
3.158,321,1129,894,362,-0.6287841796875,0.0531005859375,-0.2945556640625
3.172,321,1109,816,351,-0.5623779296875,0.1939697265625,-0.328125
3.180,316,1047,753,348,-0.5623779296875,0.1939697265625,-0.328125
3.188,316,1074,750,347,-0.564697265625,0.298583984375,-0.324462890625
3.202,318,1134,806,348,-0.6256103515625,0.4354248046875,-0.3438720703125
3.211,316,1216,780,351,-0.6256103515625,0.4354248046875,-0.3438720703125
3.229,318,1336,806,354,-0.6773681640625,0.39892578125,-0.3406982421875
3.232,319,1492,889,359,-0.728759765625,0.267333984375,-0.371337890625
3.240,321,1646,922,363,-0.728759765625,0.267333984375,-0.371337890625
3.248,322,1861,963,371,-0.74951171875,0.2440185546875,-0.397705078125
3.262,321,2233,1014,375,-0.73876953125,0.0933837890625,-0.31787109375
3.270,327,2612,1034,390,-0.73876953125,0.0933837890625,-0.31787109375
3.278,330,2859,1063,401,-0.7110595703125,0.06640625,-0.2657470703125
3.292,332,3147,1078,424,-0.711181640625,0.166259765625,-0.3199462890625
3.305,334,3147,1185,643,-0.719482421875,0.274658203125,-0.4625244140625
3.308,338,3147,1274,1005,-0.7139892578125,0.2967529296875,-0.5572509765625
3.347,348,3147,1598,1739,-0.6939697265625,0.2564697265625,-0.4620361328125
3.347,348,3147,1850,2139,-0.6724853515625,0.2603759765625,-0.20703125
3.348,351,3147,1952,2472,-0.646484375,0.32177734375,0.0860595703125
3.352,359,3147,2093,3024,-0.5362548828125,0.336669921875,0.33642578125
3.360,361,3147,2165,3147,-0.333984375,0.380859375,0.459228515625
3.372,361,3147,2197,3147,-0.1502685546875,0.5330810546875,0.3538818359375
3.382,364,3147,2368,3147,-0.1400146484375,0.6959228515625,0.020751953125
3.390,364,3147,2471,3147,-0.4561767578125,0.77197265625,-0.4556884765625
3.398,364,3147,2593,3147,-0.98046875,0.7418212890625,-0.9951171875
3.412,373,3147,2844,3147,-1.4256591796875,0.701171875,-1.41064453125
3.423,369,3147,2891,3147,-1.7784423828125,0.6192626953125,-1.516357421875
3.450,377,3147,2961,3147,-2.22998046875,0.2783203125,-1.2662353515625
3.450,376,3147,2884,3147,-2.5130615234375,-0.325927734375,-0.580322265625
3.451,371,3147,2872,3147,-2.021728515625,-0.546142578125,0.211669921875
3.458,371,3147,2890,3147,-1.0570068359375,0.125244140625,0.2724609375
3.472,365,3147,2850,3147,-0.643798828125,1.1954345703125,-0.5419921875
3.485,371,3147,2727,3147,-1.00830078125,1.755859375,-1.2979736328125
3.488,363,3147,2605,3147,-1.4852294921875,1.3267822265625,-1.2589111328125
3.509,363,3147,2263,3147,-1.5731201171875,0.447265625,-0.692626953125
3.510,362,3147,1980,3015,-1.326171875,-0.0401611328125,-0.2149658203125
3.518,359,3147,1719,2746,-1.050537109375,-0.0299072265625,-0.0426025390625
3.548,351,3147,1454,2050,-0.877685546875,0.1158447265625,-0.040771484375
3.548,346,3147,1369,1393,-0.7559814453125,0.1805419921875,-0.1298828125
3.548,336,3147,1292,607,-0.6884765625,0.1895751953125,-0.216064453125
3.562,330,2161,1233,387,-0.6741943359375,0.16845703125,-0.1907958984375
3.570,324,1411,1107,376,-0.679443359375,0.10009765625,-0.1297607421875
3.578,321,1078,1022,363,-0.6583251953125,0.02490234375,-0.15625
3.597,315,837,853,351,-0.5894775390625,0.044677734375,-0.230712890625
3.600,315,736,725,344,-0.5433349609375,0.1876220703125,-0.2869873046875
3.614,310,618,654,342,-0.566650390625,0.3348388671875,-0.3297119140625
3.622,307,562,627,334,-0.5994873046875,0.3787841796875,-0.3565673828125
3.630,308,601,589,342,-0.6103515625,0.323486328125,-0.3638916015625
3.638,308,537,584,334,-0.608154296875,0.220703125,-0.3515625
3.666,309,562,607,336,-0.6002197265625,0.158935546875,-0.3179931640625
3.667,308,563,644,336,-0.5987548828125,0.1923828125,-0.27685546875
3.668,299,572,691,337,-0.5992431640625,0.2581787109375,-0.2523193359375
3.682,310,644,790,342,-0.603271484375,0.292236328125,-0.232421875
3.690,310,675,832,348,-0.61474609375,0.274658203125,-0.1964111328125
3.698,313,849,957,351,-0.632080078125,0.2125244140625,-0.162841796875
3.719,316,1273,1074,378,-0.64404296875,0.1422119140625,-0.1639404296875
3.720,321,1355,1132,383,-0.6497802734375,0.1004638671875,-0.1973876953125
3.745,324,1838,1170,418,-0.6336669921875,0.0726318359375,-0.213134765625
3.766,334,3147,1213,644,-0.5499267578125,0.0244140625,-0.1544189453125
3.771,338,3147,1316,1312,-0.4658203125,0.0537109375,-0.076904296875
3.775,346,3147,1574,1835,-0.4267578125,0.27197265625,-0.03564453125
3.780,360,3147,1996,2555,-0.3115234375,0.5430908203125,-0.038330078125
3.783,361,3147,2194,2897,-0.1185302734375,0.696533203125,-0.081298828125
3.793,364,3147,2333,3147,-0.0421142578125,0.7412109375,-0.161376953125
3.802,361,3147,2589,3147,-0.28271484375,0.8121337890625,-0.350341796875
3.823,370,3147,2854,3147,-0.745361328125,0.8714599609375,-0.69384765625
3.823,372,3147,2968,3147,-1.267333984375,0.907470703125,-1.05078125
3.851,382,3147,3102,3147,-1.888916015625,0.8858642578125,-1.1986083984375
3.851,361,3147,3099,3147,-2.5546875,0.464111328125,-1.107177734375
3.851,363,3147,3128,3147,-2.88525390625,-0.2630615234375,-0.70068359375
3.862,373,3147,3143,3147,-2.3499755859375,-0.724853515625,-0.0560302734375
3.870,377,3147,3058,3147,-1.20166015625,-0.3321533203125,0.241455078125
3.878,373,3147,3015,3147,-0.3798828125,0.6605224609375,-0.1610107421875
3.892,374,3147,3039,3147,-0.3653564453125,1.3876953125,-0.794189453125
3.900,371,3147,3039,3147,-0.8707275390625,1.4432373046875,-1.05419921875
3.908,369,3147,2946,3147,-1.40380859375,0.9300537109375,-0.888427734375
3.922,365,3147,2703,3147,-1.6533203125,0.3388671875,-0.5709228515625
3.936,364,3147,2481,3000,-1.504150390625,0.076171875,-0.333740234375
3.954,363,3147,2235,2621,-1.173583984375,0.14306640625,-0.240234375
3.955,356,3147,1920,2019,-0.9210205078125,0.298095703125,-0.2225341796875
3.978,356,3147,1808,1652,-0.7740478515625,0.3553466796875,-0.2333984375
3.978,338,3147,1705,1138,-0.712646484375,0.3106689453125,-0.2353515625
3.984,337,2984,1528,598,-0.7330322265625,0.2440185546875,-0.1566162109375
3.991,334,2418,1463,555,-0.7698974609375,0.191650390625,-0.052001953125
3.999,332,2078,1404,479,-0.7750244140625,0.1446533203125,-0.04248046875
4.013,324,1334,1294,402,-0.7587890625,0.1124267578125,-0.1279296875
4.021,322,1111,1253,376,-0.7283935546875,0.1219482421875,-0.21875
4.029,318,932,1175,369,-0.70458984375,0.1728515625,-0.2802734375
4.076,315,685,1050,346,-0.70654296875,0.24462890625,-0.324462890625
4.076,313,614,883,342,-0.69677734375,0.302734375,-0.341552734375
4.077,310,578,794,345,-0.6566162109375,0.3314208984375,-0.3231201171875
4.077,310,508,657,333,-0.623291015625,0.3499755859375,-0.2745361328125
4.081,310,531,691,334,-0.6171875,0.3731689453125,-0.2154541015625
4.089,312,490,653,334,-0.62060546875,0.3685302734375,-0.1837158203125
4.103,313,463,746,330,-0.609375,0.3115234375,-0.1923828125
4.126,310,473,780,336,-0.591064453125,0.246826171875,-0.2313232421875
4.127,310,472,841,332,-0.591064453125,0.246826171875,-0.2313232421875
4.133,310,519,959,334,-0.590087890625,0.238525390625,-0.3363037109375
4.145,313,803,1038,356,-0.6087646484375,0.236328125,-0.3302001953125
4.150,316,1018,1095,364,-0.6087646484375,0.236328125,-0.3302001953125
4.163,318,1456,1214,401,-0.6390380859375,0.1036376953125,-0.171630859375
4.172,321,1786,1236,447,-0.6375732421875,0.029541015625,-0.113037109375
4.181,324,2704,1213,548,-0.6375732421875,0.029541015625,-0.113037109375
4.193,328,3147,1160,1054,-0.5806884765625,0.134521484375,-0.150634765625
4.201,334,3147,1175,1450,-0.582275390625,0.3699951171875,-0.290283203125
4.209,344,3147,1173,1904,-0.582275390625,0.3699951171875,-0.290283203125
4.227,348,3147,1508,2481,-0.5001220703125,0.6041259765625,-0.3099365234375
4.231,359,3147,1624,2830,-0.323974609375,0.4183349609375,-0.12451171875
4.242,362,3147,1838,3124,-0.323974609375,0.4183349609375,-0.12451171875
4.260,369,3147,2076,3147,-0.235595703125,0.4188232421875,-0.0030517578125
4.264,382,3147,2218,3147,-0.4642333984375,0.7822265625,-0.230224609375
4.274,371,3147,2381,3147,-0.4642333984375,0.7822265625,-0.230224609375
4.289,363,3147,2797,3147,-1.2696533203125,1.0885009765625,-1.0557861328125
4.292,376,3147,3014,3147,-1.80224609375,0.99609375,-1.2508544921875
4.317,383,3147,3012,3147,-1.80224609375,0.99609375,-1.2508544921875
4.317,378,3147,2973,3147,-2.6854248046875,-0.0740966796875,-0.70751953125
4.328,376,3147,2916,3147,-2.135498046875,-0.52294921875,0.1072998046875
4.329,371,3147,2833,3147,-2.135498046875,-0.52294921875,0.1072998046875
4.352,365,3147,2869,3147,-0.4671630859375,0.7989501953125,-0.2088623046875
4.352,375,3147,2854,3147,-0.4671630859375,0.7989501953125,-0.2088623046875
4.367,373,3147,2790,3147,-0.79296875,1.7130126953125,-1.1083984375
4.373,375,3147,2621,3147,-1.6368408203125,1.0272216796875,-1.04541015625
4.396,371,3147,2424,3147,-1.6368408203125,1.0272216796875,-1.04541015625
4.396,370,3147,2207,3147,-1.47998046875,0.215576171875,-0.444091796875
4.398,370,3147,1908,3130,-1.1719970703125,0.001708984375,-0.107666015625
4.412,359,3147,1648,2673,-0.701416015625,0.327392578125,-0.025146484375
4.420,356,3147,1478,2330,-0.701416015625,0.327392578125,-0.025146484375
4.432,354,3147,1387,1878,-0.6002197265625,0.241943359375,-0.0675048828125
4.443,344,3147,1276,1009,-0.5977783203125,0.1322021484375,-0.0821533203125
4.464,336,3141,1201,413,-0.6129150390625,0.093505859375,-0.0819091796875
4.464,330,2482,1098,391,-0.63671875,0.134521484375,-0.14990234375
4.473,327,1560,980,370,-0.658447265625,0.2362060546875,-0.2576904296875
4.480,323,1303,917,364,-0.6268310546875,0.3079833984375,-0.343505859375
4.488,321,1083,883,348,-0.5880126953125,0.34521484375,-0.3778076171875
4.508,316,861,814,338,-0.5926513671875,0.385009765625,-0.3734130859375
4.510,316,721,748,338,-0.607666015625,0.3831787109375,-0.354248046875
4.518,315,632,695,334,-0.603271484375,0.325439453125,-0.333740234375
4.534,313,506,723,330,-0.58447265625,0.2708740234375,-0.303955078125
4.540,315,548,754,330,-0.5574951171875,0.2520751953125,-0.259033203125
4.559,313,673,790,334,-0.5357666015625,0.2900390625,-0.2091064453125
4.567,316,1065,922,338,-0.5245361328125,0.36669921875,-0.1644287109375
4.572,316,1306,968,349,-0.5137939453125,0.3687744140625,-0.1317138671875
4.578,315,1605,1025,353,-0.5133056640625,0.2578125,-0.102294921875
4.592,324,2407,1116,369,-0.5281982421875,0.154296875,-0.0792236328125
4.600,324,3126,1107,383,-0.5704345703125,0.1741943359375,-0.112060546875
4.644,328,3147,1115,702,-0.6370849609375,0.3001708984375,-0.2181396484375
4.645,334,3147,1134,1366,-0.667724609375,0.4029541015625,-0.3040771484375
4.645,327,3147,1146,1807,-0.62890625,0.4091796875,-0.302978515625
4.645,348,3147,1264,2228,-0.5496826171875,0.3521728515625,-0.2288818359375
4.664,352,3147,1608,2799,-0.46044921875,0.2802734375,-0.1358642578125
4.664,354,3147,1813,3095,-0.3741455078125,0.2755126953125,-0.0693359375
4.668,361,3147,1968,3147,-0.3060302734375,0.39990234375,-0.0496826171875
4.682,363,3147,2233,3147,-0.3336181640625,0.6209716796875,-0.1363525390625
4.690,364,3147,2382,3147,-0.51171875,0.7872314453125,-0.3336181640625
4.698,371,3147,2662,3147,-0.8038330078125,0.7994384765625,-0.5977783203125
4.714,375,3147,3040,3147,-1.2340087890625,0.781494140625,-0.86328125
4.724,378,3147,3125,3147,-1.7913818359375,0.638427734375,-1.0172119140625
4.728,375,3147,3120,3147,-2.3685302734375,0.3011474609375,-1.02685546875
4.742,378,3147,3093,3147,-2.65869140625,0.040283203125,-0.8131103515625
4.759,378,3147,3008,3147,-2.1776123046875,-0.0018310546875,-0.3409423828125
4.762,375,3147,2950,3147,-1.137939453125,0.3477783203125,0.0101318359375
4.772,376,3147,2963,3147,-0.4991455078125,0.86181640625,-0.1732177734375
4.780,375,3147,2899,3147,-0.8309326171875,1.1116943359375,-0.6751708984375
4.788,377,3147,2798,3147,-1.60302734375,0.90625,-0.9552001953125
4.802,372,3147,2530,3147,-1.89501953125,0.385498046875,-0.8599853515625
4.810,372,3147,2308,3147,-1.5845947265625,0.093017578125,-0.582275390625
4.819,370,3147,2018,3084,-1.13720703125,0.1146240234375,-0.2747802734375
4.847,360,3147,1715,2551,-0.8033447265625,0.197509765625,0.025390625
4.847,359,3147,1455,2197,-0.575439453125,0.2470703125,0.1708984375
4.848,348,3147,1442,1742,-0.487548828125,0.31591796875,0.100341796875
4.873,332,3147,1369,521,-0.552734375,0.3868408203125,-0.005126953125
4.873,330,2612,1290,543,-0.6793212890625,0.3082275390625,-0.07421875
4.879,332,1750,1178,483,-0.7628173828125,0.114013671875,-0.15576171875
4.892,321,1184,1018,426,-0.7396240234375,-0.003173828125,-0.2550048828125
4.901,318,951,975,409,-0.64208984375,0.0074462890625,-0.3458251953125
4.908,315,913,912,391,-0.5772705078125,0.089111328125,-0.3948974609375
4.925,316,852,841,359,-0.568603515625,0.202392578125,-0.379150390625
4.930,315,813,816,347,-0.57373046875,0.303955078125,-0.329833984375
4.951,315,774,849,347,-0.573974609375,0.3577880859375,-0.28564453125
4.952,310,830,846,345,-0.5714111328125,0.375,-0.254638671875
4.962,315,932,900,348,-0.576171875,0.3736572265625,-0.2305908203125
4.970,315,1034,917,355,-0.5877685546875,0.3564453125,-0.2139892578125
4.983,316,1201,962,357,-0.60400390625,0.3311767578125,-0.213623046875
4.990,318,1306,1009,369,-0.62744140625,0.307861328125,-0.2296142578125
4.998,321,1467,1056,371,-0.656982421875,0.27490234375,-0.26513671875
5.012,323,1966,1093,385,-0.6871337890625,0.2230224609375,-0.29541015625
5.020,324,2465,1116,409,-0.6748046875,0.1787109375,-0.30517578125
5.034,327,3035,1143,431,-0.6380615234375,0.1951904296875,-0.315185546875
5.048,328,3147,1172,815,-0.697265625,0.25146484375,-0.310791015625
5.050,321,3147,1175,1122,-0.8155517578125,0.294677734375,-0.277587890625
5.064,334,3147,1184,1443,-0.8421630859375,0.3231201171875,-0.2069091796875
5.077,344,3147,1243,2024,-0.742431640625,0.3345947265625,-0.0755615234375
5.080,346,3147,1355,2388,-0.5604248046875,0.314453125,0.07080078125
5.089,354,3147,1506,2742,-0.320556640625,0.2303466796875,0.1300048828125
5.102,360,3147,1770,3147,-0.0849609375,0.1883544921875,0.089599609375
5.110,363,3147,2026,3147,0.0115966796875,0.35205078125,-0.0201416015625
5.118,365,3147,2209,3147,0.0115966796875,0.35205078125,-0.0201416015625
5.140,371,3147,2538,3147,-0.5703125,0.7933349609375,-0.5897216796875
5.148,370,3147,2847,3147,-1.11474609375,0.9281005859375,-1.0281982421875
5.148,375,3147,3048,3147,-1.11474609375,0.9281005859375,-1.0281982421875
5.176,377,3147,2949,3147,-2.488525390625,0.826416015625,-1.3765869140625
5.176,374,3147,3012,3147,-2.918212890625,0.13330078125,-0.8809814453125
5.178,371,3147,2996,3147,-2.918212890625,0.13330078125,-0.8809814453125
5.192,376,3147,2840,3147,-1.1602783203125,-0.33154296875,0.6124267578125
5.200,371,3147,2833,3147,-0.3760986328125,0.593017578125,0.1678466796875
5.208,364,3147,2904,3147,-0.3760986328125,0.593017578125,0.1678466796875
5.222,375,3147,2833,3147,-1.1707763671875,1.90380859375,-1.2652587890625
5.231,376,3147,2766,3147,-1.6429443359375,1.20703125,-1.1341552734375
5.260,365,3147,2632,3147,-1.6429443359375,1.20703125,-1.1341552734375
5.266,372,3147,2246,3147,-1.421875,-0.1365966796875,-0.3431396484375
5.267,364,3147,2113,3147,-1.0660400390625,0.0379638671875,-0.2589111328125
5.269,360,3147,1877,3111,-1.0660400390625,0.0379638671875,-0.2589111328125
5.288,356,3147,1516,2384,-0.703857421875,0.24462890625,-0.2010498046875
5.290,346,3147,1470,1855,-0.6412353515625,0.1712646484375,-0.134033203125
5.298,348,3147,1388,1362,-0.6412353515625,0.1712646484375,-0.134033203125
5.312,338,3040,1236,428,-0.546142578125,0.08447265625,0.031982421875
5.320,332,2306,1117,411,-0.5860595703125,0.116455078125,-0.094970703125
5.328,329,1949,1018,390,-0.5860595703125,0.116455078125,-0.094970703125
5.342,323,1251,951,391,-0.6029052734375,0.2728271484375,-0.30859375
5.360,323,1108,922,371,-0.6029052734375,0.2728271484375,-0.30859375
5.360,321,960,878,354,-0.67431640625,0.4102783203125,-0.3660888671875
5.374,315,894,778,344,-0.647705078125,0.428466796875,-0.3572998046875
5.380,316,820,714,343,-0.647705078125,0.428466796875,-0.3572998046875
5.391,315,827,705,345,-0.571533203125,0.2716064453125,-0.304443359375
5.404,315,853,693,337,-0.482177734375,0.2337646484375,-0.2193603515625
5.410,315,963,763,346,-0.482177734375,0.2337646484375,-0.2193603515625
5.418,317,1022,790,348,-0.4925537109375,0.3231201171875,-0.236572265625
5.432,317,1289,871,360,-0.5941162109375,0.4373779296875,-0.304931640625
5.440,321,1547,905,371,-0.5941162109375,0.4373779296875,-0.304931640625
5.464,321,1891,1009,376,-0.649658203125,0.3812255859375,-0.3082275390625
5.464,322,2467,1043,398,-0.7188720703125,0.295166015625,-0.275146484375
5.485,323,2912,1071,400,-0.7188720703125,0.295166015625,-0.275146484375
5.486,327,3147,1071,442,-0.7154541015625,0.245361328125,-0.2384033203125
5.493,328,3147,1146,986,-0.654541015625,0.1827392578125,-0.197021484375
5.500,330,3147,1169,1275,-0.654541015625,0.1827392578125,-0.197021484375
5.512,342,3147,1170,1616,-0.6390380859375,0.1964111328125,-0.199462890625
5.522,347,3147,1385,2233,-0.5653076171875,0.1424560546875,-0.17138671875
5.530,359,3147,1494,2574,-0.5653076171875,0.1424560546875,-0.17138671875
5.538,356,3147,1650,2932,-0.4583740234375,0.11181640625,-0.05615234375
5.555,363,3147,1914,3147,-0.314208984375,0.0870361328125,0.0650634765625
5.584,364,3147,2068,3147,-0.27734375,0.2156982421875,0.0484619140625
5.585,371,3147,2205,3147,-0.392333984375,0.51171875,-0.1544189453125
5.585,371,3147,2494,3147,-0.64013671875,0.8670654296875,-0.4862060546875
5.590,371,3147,2851,3147,-0.984130859375,1.190185546875,-0.86962890625
5.600,382,3147,3050,3147,-1.4163818359375,1.38134765625,-1.16162109375
5.612,376,3147,3028,3147,-1.971435546875,1.2178955078125,-1.2308349609375
5.625,378,3147,3018,3147,-2.496337890625,0.59814453125,-0.9879150390625
5.628,378,3147,2959,3147,-2.3909912109375,-0.1983642578125,-0.3468017578125
5.642,375,3147,2760,3147,-1.4854736328125,-0.5550537109375,0.2547607421875
5.650,377,3147,2842,3147,-0.671630859375,-0.1070556640625,0.10791015625
5.659,375,3147,2844,3147,-0.626953125,0.8551025390625,-0.6646728515625
5.677,371,3147,2741,3147,-1.130859375,1.6553955078125,-1.316162109375
5.689,372,3147,2638,3147,-1.56396484375,1.6348876953125,-1.367919921875
5.690,371,3147,2493,3147,-1.5899658203125,0.9295654296875,-0.93603515625
5.702,365,3147,2175,3147,-1.3309326171875,0.2928466796875,-0.4300537109375
5.710,364,3147,1968,2946,-1.0115966796875,0.1038818359375,-0.1197509765625
5.718,363,3147,1840,2626,-0.7464599609375,0.1396484375,-0.010986328125
5.738,353,3147,1610,1849,-0.5926513671875,0.1353759765625,-0.0413818359375
5.740,351,3147,1499,1280,-0.5802001953125,0.11376953125,-0.1019287109375
5.748,351,3147,1477,894,-0.6240234375,0.1353759765625,-0.057373046875
5.762,336,2901,1294,438,-0.6461181640625,0.1204833984375,-0.026611328125
5.791,336,2473,1175,423,-0.6768798828125,0.0621337890625,-0.1378173828125
5.791,332,2017,1083,409,-0.7044677734375,0.07373046875,-0.2552490234375
5.792,328,1557,994,383,-0.657470703125,0.138671875,-0.3194580078125
5.800,327,1264,934,382,-0.6240234375,0.243896484375,-0.39208984375
5.808,324,1074,936,371,-0.6446533203125,0.4244384765625,-0.4466552734375
5.822,322,1004,927,354,-0.6142578125,0.5250244140625,-0.449462890625
5.830,316,986,905,359,-0.564697265625,0.464111328125,-0.4114990234375
5.838,318,1024,905,351,-0.55712890625,0.3587646484375,-0.3646240234375
5.852,316,996,927,347,-0.5712890625,0.2965087890625,-0.3245849609375
5.866,316,1063,958,349,-0.5875244140625,0.2845458984375,-0.283447265625
5.868,317,1081,1018,347,-0.61279296875,0.308349609375,-0.22802734375
5.896,316,1225,1066,355,-0.6376953125,0.309814453125,-0.1673583984375
5.896,316,1501,1085,357,-0.6387939453125,0.255615234375,-0.1162109375
5.899,321,2028,1097,370,-0.629150390625,0.2000732421875,-0.0885009765625
5.912,323,2833,1112,387,-0.6319580078125,0.2115478515625,-0.111572265625
5.920,324,3147,1129,444,-0.65625,0.2947998046875,-0.201171875
5.928,327,3147,1143,702,-0.7108154296875,0.4012451171875,-0.3074951171875
5.942,332,3147,1134,1104,-0.7586669921875,0.4306640625,-0.3309326171875
5.950,334,3147,1163,1480,-0.7398681640625,0.319091796875,-0.2545166015625
5.973,342,3147,1173,1786,-0.638916015625,0.1600341796875,-0.1221923828125
5.973,354,3147,1437,2442,-0.4957275390625,0.07568359375,-0.0130615234375
5.982,359,3147,1588,2692,-0.3568115234375,0.1593017578125,0.0538330078125
5.994,361,3147,1791,3012,-0.1845703125,0.3677978515625,0.04541015625
6.007,362,3147,2076,3147,-0.0789794921875,0.625732421875,-0.09619140625
6.010,365,3147,2188,3147,-0.2186279296875,0.8350830078125,-0.3306884765625
6.018,373,3147,2381,3147,-0.5704345703125,0.85107421875,-0.6650390625
6.032,371,3147,2657,3147,-1.0260009765625,0.8055419921875,-1.12060546875
6.040,377,3147,2922,3147,-1.5184326171875,0.7996826171875,-1.547607421875
6.048,373,3147,3027,3147,-2.0286865234375,0.739013671875,-1.5960693359375
6.076,373,3147,3115,3147,-2.44873046875,0.4473876953125,-1.0650634765625
6.076,378,3147,3099,3147,-2.309814453125,-0.1893310546875,-0.215576171875
6.078,376,3147,3056,3147,-1.5299072265625,-0.44775390625,0.41845703125
6.103,375,3147,2937,3147,-0.8106689453125,0.209228515625,0.32421875
6.103,371,3147,2988,3147,-0.627685546875,1.1600341796875,-0.40673828125
6.108,371,3147,3014,3147,-0.9517822265625,1.69287109375,-1.0499267578125
6.122,376,3147,2886,3147,-1.447021484375,1.40234375,-1.13525390625
6.130,375,3147,2645,3147,-1.6673583984375,0.581298828125,-0.8057861328125
6.138,364,3147,2404,3147,-1.4658203125,0.0517578125,-0.455322265625
6.152,361,3147,1997,3147,-1.0804443359375,0.0538330078125,-0.283935546875
6.160,360,3147,1894,3140,-0.7655029296875,0.2237548828125,-0.217041015625
6.175,359,3147,1719,2925,-0.6051025390625,0.3212890625,-0.21923828125
6.217,348,3147,1615,2178,-0.6007080078125,0.3897705078125,-0.3182373046875
6.218,345,3147,1516,1634,-0.6690673828125,0.4383544921875,-0.3746337890625
6.218,338,3147,1452,962,-0.7188720703125,0.3311767578125,-0.295654296875
6.218,330,2543,1382,416,-0.75537109375,0.0482177734375,-0.1734619140625
6.221,328,2217,1343,388,-0.7789306640625,-0.1964111328125,-0.09423828125
6.229,324,1716,1278,376,-0.7484130859375,-0.2052001953125,-0.0797119140625
6.243,321,1265,1162,371,-0.6925048828125,0.0009765625,-0.1126708984375
6.251,321,1067,1123,359,-0.63671875,0.2265625,-0.1529541015625
6.259,317,1024,1051,355,-0.5709228515625,0.316650390625,-0.167724609375
6.275,316,951,957,351,-0.53369140625,0.2742919921875,-0.160400390625
6.281,315,944,962,352,-0.545166015625,0.2330322265625,-0.1788330078125
6.315,315,1039,978,354,-0.57421875,0.2935791015625,-0.2279052734375
6.316,313,1146,971,361,-0.5943603515625,0.377685546875,-0.269775390625
6.316,318,1248,1063,359,-0.5972900390625,0.4093017578125,-0.2967529296875
6.319,316,1336,1093,361,-0.615478515625,0.42431640625,-0.3094482421875
6.333,319,1608,1160,373,-0.659423828125,0.4298095703125,-0.29638671875
6.341,319,1846,1199,378,-0.70458984375,0.380615234375,-0.2701416015625
6.349,317,2128,1211,398,-0.7418212890625,0.279541015625,-0.2451171875
6.363,319,2630,1302,388,-0.7725830078125,0.168701171875,-0.244873046875
6.378,318,2964,1294,402,-0.812255859375,0.120849609375,-0.2645263671875
6.380,321,3147,1349,430,-0.812255859375,0.120849609375,-0.2645263671875
6.444,324,3147,1357,888,-0.77001953125,0.1395263671875,-0.1766357421875
6.444,334,3147,1377,1236,-0.6624755859375,0.0643310546875,-0.088134765625
6.446,345,3147,1477,1709,-0.6624755859375,0.0643310546875,-0.088134765625
6.446,353,3147,1907,2293,-0.4747314453125,0.2978515625,-0.104248046875
6.447,354,3147,2058,2689,-0.3333740234375,0.556884765625,-0.1630859375
6.447,359,3147,2228,3027,-0.3333740234375,0.556884765625,-0.1630859375
6.455,361,3147,2443,3147,-0.09033203125,0.6915283203125,-0.092041015625
6.467,364,3147,2557,3147,-0.1787109375,0.8062744140625,-0.167236328125
6.506,370,3147,2824,3147,-0.1787109375,0.8062744140625,-0.167236328125
6.506,369,3147,3140,3147,-1.01123046875,1.0699462890625,-0.85205078125
6.506,376,3147,3147,3147,-1.68798828125,0.8765869140625,-1.2052001953125
6.506,376,3147,3084,3147,-1.68798828125,0.8765869140625,-1.2052001953125
6.578,365,3147,3062,3147,-2.8848876953125,-0.1180419921875,-1.093505859375
6.578,377,3147,3042,3147,-2.5003662109375,-0.6710205078125,-0.2530517578125
6.578,377,3147,3020,3147,-2.5003662109375,-0.6710205078125,-0.2530517578125
6.578,373,3147,2909,3147,-0.530517578125,0.2333984375,0.56884765625
6.601,385,3147,2943,3147,-0.4854736328125,1.2384033203125,-0.290283203125
6.603,376,3147,2938,3147,-0.4854736328125,1.2384033203125,-0.290283203125
6.603,373,3147,2813,3147,-1.44677734375,1.37939453125,-1.3460693359375
6.603,371,3147,2619,3147,-1.44677734375,1.37939453125,-1.3460693359375
6.603,360,3147,2323,3147,-1.6348876953125,0.532470703125,-1.0518798828125
6.616,364,3147,1955,3042,-1.1549072265625,-0.0836181640625,-0.288818359375
6.620,362,3147,1838,2807,-1.1549072265625,-0.0836181640625,-0.288818359375
6.620,356,3147,1702,2516,-0.873046875,0.072509765625,-0.083984375
6.640,348,3147,1550,1881,-0.663330078125,0.273193359375,0.0009765625
6.641,346,3147,1476,1506,-0.663330078125,0.273193359375,0.0009765625
6.649,338,3147,1415,968,-0.6707763671875,0.3482666015625,-0.03759765625
6.663,331,3111,1336,411,-0.5576171875,0.1817626953125,-0.1146240234375
6.671,327,2624,1214,401,-0.5576171875,0.1817626953125,-0.1146240234375
6.686,328,2422,1156,388,-0.5577392578125,0.0042724609375,-0.1539306640625
6.693,323,1963,1095,375,-0.6429443359375,0.076416015625,-0.2841796875
6.701,323,1783,1074,371,-0.6429443359375,0.076416015625,-0.2841796875
6.725,321,1659,1039,363,-0.6671142578125,0.26416015625,-0.3875732421875
6.725,318,1492,1012,361,-0.617919921875,0.41796875,-0.3768310546875
6.738,318,1488,968,359,-0.617919921875,0.41796875,-0.3768310546875
6.740,318,1529,1004,344,-0.593994140625,0.406005859375,-0.3170166015625
6.769,318,1761,1050,364,-0.624267578125,0.391845703125,-0.2589111328125
6.769,321,1900,1098,364,-0.624267578125,0.391845703125,-0.2589111328125
6.770,318,2054,1167,371,-0.655517578125,0.3658447265625,-0.255126953125
6.787,321,2469,1228,376,-0.7305908203125,0.2919921875,-0.226806640625
6.791,323,2901,1251,386,-0.7305908203125,0.2919921875,-0.226806640625
6.806,323,3147,1266,389,-0.751220703125,0.2103271484375,-0.1888427734375
6.813,324,3147,1287,811,-0.76123046875,0.128173828125,-0.1641845703125
6.823,324,3147,1290,1079,-0.775634765625,0.1114501953125,-0.1937255859375
6.830,328,3147,1292,1320,-0.77587890625,0.165771484375,-0.2724609375
6.843,334,3147,1260,1730,-0.759033203125,0.2510986328125,-0.343505859375
6.851,342,3147,1206,2058,-0.70751953125,0.28662109375,-0.3331298828125
6.864,345,3147,1231,2317,-0.60986328125,0.2926025390625,-0.242431640625
6.873,351,3147,1523,2782,-0.484375,0.3612060546875,-0.103515625
6.888,357,3147,1711,3053,-0.2822265625,0.4217529296875,0.057861328125
6.889,359,3147,1904,3147,-0.0819091796875,0.501953125,0.149658203125
6.910,364,3147,2161,3147,-0.0562744140625,0.6949462890625,0.07861328125
6.912,369,3147,2284,3147,-0.2552490234375,0.819580078125,-0.19970703125
6.922,371,3147,2445,3147,-0.654296875,0.7501220703125,-0.6597900390625
6.933,374,3147,2938,3147,-1.14501953125,0.6678466796875,-1.15869140625
6.948,371,3147,3023,3147,-1.6656494140625,0.6513671875,-1.5185546875
6.949,376,3147,3045,3147,-2.2744140625,0.4830322265625,-1.5045166015625
6.963,375,3147,3115,3147,-2.7166748046875,0.0294189453125,-0.911865234375
6.978,382,3147,3104,3147,-2.32666015625,-0.4237060546875,0.037841796875
6.979,373,3147,2997,3147,-1.248291015625,-0.1964111328125,0.614990234375
6.993,376,3147,2990,3147,-0.494873046875,0.72216796875,0.3377685546875
7.007,378,3147,3014,3147,-0.5,1.50830078125,-0.3638916015625
7.009,376,3147,2996,3147,-0.9591064453125,1.5457763671875,-0.7762451171875
7.029,372,3147,2810,3147,-1.42626953125,0.8804931640625,-0.7520751953125
7.031,363,3147,2598,3147,-1.5899658203125,0.2364501953125,-0.5682373046875
7.040,370,3147,2394,3147,-1.4427490234375,0.0826416015625,-0.4354248046875
7.059,363,3147,2080,3147,-1.187255859375,0.1998291015625,-0.341064453125
7.062,354,3147,1865,3115,-0.9354248046875,0.3067626953125,-0.214111328125
7.069,361,3147,1744,2859,-0.737060546875,0.326171875,-0.1412353515625
7.098,356,3147,1648,2231,-0.67431640625,0.3349609375,-0.191650390625
7.098,330,3147,1534,1813,-0.7342529296875,0.3929443359375,-0.236572265625
7.103,332,3147,1555,1278,-0.79248046875,0.373779296875,-0.204833984375
7.125,336,2840,1456,402,-0.8116455078125,0.1810302734375,-0.1783447265625
7.125,330,2005,1357,385,-0.81787109375,-0.0335693359375,-0.189697265625
7.133,324,1584,1302,376,-0.7589111328125,-0.101318359375,-0.235107421875
7.143,319,1125,1243,354,-0.6324462890625,-0.0120849609375,-0.3321533203125
7.151,315,912,1143,347,-0.5386962890625,0.150146484375,-0.4254150390625
7.183,316,784,1009,344,-0.505615234375,0.27685546875,-0.43896484375
7.183,310,561,858,334,-0.4954833984375,0.3170166015625,-0.3895263671875
7.183,308,497,867,328,-0.521728515625,0.314697265625,-0.3001708984375
7.205,308,500,803,327,-0.56982421875,0.3167724609375,-0.212646484375
7.205,304,513,806,327,-0.5633544921875,0.303955078125,-0.18994140625
7.217,308,671,794,328,-0.4976806640625,0.275634765625,-0.207763671875
7.231,309,800,882,323,-0.458984375,0.288818359375,-0.2030029296875
7.234,313,1503,1000,356,-0.489990234375,0.3519287109375,-0.155517578125
7.241,314,1713,1079,371,-0.5528564453125,0.461669921875,-0.09814453125
7.257,315,2419,1125,387,-0.618896484375,0.6656494140625,-0.0738525390625
7.271,315,3147,1255,551,-0.7003173828125,0.8475341796875,-0.1129150390625
7.273,315,3147,1236,952,-0.7945556640625,0.8109130859375,-0.1951904296875
7.279,317,3147,1323,1236,-0.86181640625,0.5299072265625,-0.255859375
7.300,321,3147,1413,1689,-0.8697509765625,0.14208984375,-0.2481689453125
7.302,330,3147,1582,2010,-0.8275146484375,-0.1171875,-0.2069091796875
7.315,328,3147,1694,2213,-0.7681884765625,-0.176025390625,-0.1978759765625
7.330,338,3147,1779,2668,-0.7269287109375,-0.1124267578125,-0.2274169921875
7.341,336,3147,1869,2944,-0.710205078125,0.1231689453125,-0.228271484375
7.341,347,3147,1929,3144,-0.6751708984375,0.47021484375,-0.1722412109375
7.349,349,3147,2030,3147,-0.6322021484375,0.6865234375,-0.1209716796875
7.362,356,3147,2209,3147,-0.6373291015625,0.6595458984375,-0.1650390625
7.376,359,3147,2340,3147,-0.728515625,0.4886474609375,-0.3076171875
7.378,361,3147,2481,3147,-0.728515625,0.4886474609375,-0.3076171875
7.392,361,3147,2780,3147,-1.209228515625,0.3416748046875,-0.9168701171875
7.401,371,3147,2908,3147,-1.5255126953125,0.486083984375,-1.145263671875
7.408,364,3147,2843,3147,-1.5255126953125,0.486083984375,-1.145263671875
7.436,361,3147,2723,3147,-1.88525390625,0.6070556640625,-0.785400390625
7.439,361,3147,2608,3147,-1.4696044921875,0.308349609375,-0.1893310546875
7.439,360,3147,2519,3147,-1.4696044921875,0.308349609375,-0.1893310546875
7.453,360,3147,2479,3147,-0.8013916015625,0.427978515625,-0.1343994140625
7.460,361,3147,2464,3147,-1.075927734375,0.8564453125,-0.712890625
7.469,362,3147,2407,3147,-1.075927734375,0.8564453125,-0.712890625
7.482,359,3147,2202,3147,-1.665283203125,0.730712890625,-1.1029052734375
7.531,359,3147,2074,3147,-1.547607421875,0.2630615234375,-0.75634765625
7.532,354,3147,1943,3146,-1.547607421875,0.2630615234375,-0.75634765625
7.532,347,3147,1782,2605,-0.8697509765625,0.039306640625,-0.0875244140625
7.532,344,3147,1681,2296,-0.643310546875,0.178466796875,0.02880859375
7.532,336,3147,1574,1850,-0.643310546875,0.178466796875,0.02880859375
7.543,328,3147,1416,900,-0.5120849609375,0.261474609375,0.09716796875
7.550,327,3110,1345,387,-0.5142822265625,0.16455078125,-0.002197265625
7.558,324,2621,1264,378,-0.5142822265625,0.16455078125,-0.002197265625
7.573,318,1662,1108,360,-0.635498046875,0.274169921875,-0.2646484375
7.591,316,1483,1018,356,-0.6065673828125,0.3521728515625,-0.3511962890625
7.591,315,1268,995,351,-0.6065673828125,0.3521728515625,-0.3511962890625
7.609,315,1085,973,346,-0.583251953125,0.3336181640625,-0.4036865234375
7.610,314,1129,985,347,-0.583251953125,0.3336181640625,-0.4036865234375
7.625,313,1202,1009,348,-0.5947265625,0.285400390625,-0.38623046875
7.637,312,1255,1031,347,-0.6697998046875,0.27880859375,-0.3829345703125
7.640,315,1269,1055,348,-0.6697998046875,0.27880859375,-0.3829345703125
7.653,310,1387,1034,351,-0.7054443359375,0.3424072265625,-0.3763427734375
7.681,315,1656,1067,356,-0.70947265625,0.3446044921875,-0.313720703125
7.681,315,1824,1120,360,-0.70947265625,0.3446044921875,-0.313720703125
7.681,316,2089,1151,363,-0.7027587890625,0.2685546875,-0.2833251953125
7.693,316,2613,1209,372,-0.71728515625,0.1328125,-0.24951171875
7.743,318,3012,1243,379,-0.71728515625,0.1328125,-0.24951171875
7.745,318,3147,1264,485,-0.75732421875,0.152099609375,-0.2562255859375
7.745,321,3147,1287,944,-0.798583984375,0.183349609375,-0.2333984375
7.746,324,3147,1271,1213,-0.798583984375,0.183349609375,-0.2333984375
7.746,328,3147,1328,1557,-0.719482421875,0.100341796875,-0.1717529296875
7.781,334,3147,1437,1961,-0.552001953125,0.233154296875,-0.119873046875
7.781,342,3147,1531,2348,-0.552001953125,0.233154296875,-0.119873046875
7.781,351,3147,1636,2683,-0.4539794921875,0.371826171875,-0.0693359375
7.782,353,3147,1786,3147,-0.0821533203125,0.45849609375,0.1123046875
7.839,359,3147,1904,3147,-0.0821533203125,0.45849609375,0.1123046875
7.841,359,3147,2034,3147,-0.060546875,0.5166015625,0.0550537109375
7.841,361,3147,2281,3147,-0.287841796875,0.55078125,-0.218994140625
7.841,363,3147,2519,3147,-0.72265625,0.61474609375,-0.70166015625
7.841,354,3147,2904,3147,-1.2645263671875,0.8192138671875,-1.2113037109375
7.842,378,3147,3040,3147,-1.870361328125,0.9627685546875,-1.4827880859375
7.851,376,3147,3055,3147,-2.5150146484375,0.667236328125,-1.4493408203125
7.858,377,3147,3115,3147,-2.835205078125,-0.0272216796875,-0.8973388671875
7.878,364,3147,3075,3147,-2.2269287109375,-0.547119140625,0.087646484375
7.881,364,3147,2958,3147,-1.0645751953125,-0.22998046875,0.62939453125
7.888,364,3147,2974,3147,-0.395751953125,0.7109375,0.2269287109375
7.915,369,3147,3010,3147,-0.5157470703125,1.4476318359375,-0.5462646484375
7.915,364,3147,2966,3147,-1.06494140625,1.433837890625,-0.973876953125
7.918,365,3147,2837,3147,-1.5848388671875,0.7608642578125,-0.9625244140625
7.932,363,3147,2561,3147,-1.69970703125,0.1531982421875,-0.7264404296875
7.941,363,3147,2409,3147,-1.426025390625,0.0078125,-0.4725341796875
7.956,361,3147,2261,3147,-1.0809326171875,0.158203125,-0.2874755859375
7.962,359,3147,2019,3147,-0.8199462890625,0.3704833984375,-0.134521484375
7.970,355,3147,1918,3007,-0.6448974609375,0.4990234375,-0.0623779296875
7.978,351,3147,1852,2700,-0.599365234375,0.5194091796875,-0.1158447265625
7.992,344,3147,1653,2058,-0.7064208984375,0.468505859375,-0.197021484375
8.000,338,3147,1516,1441,-0.8453369140625,0.349853515625,-0.1915283203125
8.023,332,3147,1433,630,-0.8905029296875,0.14599609375,-0.1170654296875
8.023,330,2379,1318,416,-0.8359375,-0.068359375,-0.0552978515625
8.045,326,1757,1216,376,-0.7314453125,-0.1778564453125,-0.0653076171875
8.045,321,1580,1163,374,-0.6478271484375,-0.1217041015625,-0.1380615234375
8.053,317,1231,1108,360,-0.633544921875,0.08447265625,-0.21533203125
8.060,316,1183,1104,355,-0.6357421875,0.326171875,-0.271240234375
8.068,316,1253,1065,356,-0.597412109375,0.48388671875,-0.290771484375
8.082,313,1236,1029,356,-0.5416259765625,0.5068359375,-0.278564453125
8.090,315,1257,1031,357,-0.500244140625,0.430419921875,-0.2850341796875
8.103,316,1326,1071,360,-0.483154296875,0.3668212890625,-0.33740234375
8.125,317,1837,1078,371,-0.4891357421875,0.3458251953125,-0.41259765625
8.125,316,1954,1112,378,-0.5533447265625,0.32861328125,-0.470703125
8.128,316,2117,1129,385,-0.6600341796875,0.3548583984375,-0.488525390625
8.145,318,2608,1149,402,-0.717041015625,0.3739013671875,-0.470458984375
8.158,319,2898,1172,417,-0.7149658203125,0.2928466796875,-0.4266357421875
8.159,322,3147,1156,430,-0.7235107421875,0.21044921875,-0.3446044921875
8.172,324,3147,1185,853,-0.7689208984375,0.2039794921875,-0.2445068359375
8.181,324,3147,1219,1103,-0.8299560546875,0.2100830078125,-0.185302734375
8.188,323,3147,1236,1373,-0.879638671875,0.1817626953125,-0.145751953125
8.202,331,3147,1302,1865,-0.883056640625,0.1181640625,-0.108154296875
8.254,330,3147,1476,2024,-0.830810546875,0.058837890625,-0.1236572265625
8.255,319,3147,1648,2188,-0.7425537109375,0.0748291015625,-0.1810302734375
8.255,346,3147,1934,2514,-0.6429443359375,0.151611328125,-0.2061767578125
8.255,338,3147,2091,2669,-0.5538330078125,0.1971435546875,-0.1640625
8.255,359,3147,2308,2867,-0.458740234375,0.1895751953125,-0.0897216796875
8.263,359,3147,2507,3147,-0.3778076171875,0.2470703125,-0.05126953125
8.271,361,3147,2652,3147,-0.420166015625,0.40771484375,-0.1077880859375
8.279,362,3147,2797,3147,-0.65087890625,0.54345703125,-0.2711181640625
8.294,364,3147,2911,3147,-1.0537109375,0.571533203125,-0.5302734375
8.303,364,3147,2918,3147,-1.507568359375,0.533935546875,-0.8470458984375
8.309,363,3147,2945,3147,-1.8360595703125,0.5269775390625,-1.0504150390625
8.346,371,3147,2948,3147,-1.939453125,0.50634765625,-0.9786376953125
8.346,371,3147,2934,3147,-1.8416748046875,0.4195556640625,-0.6630859375
8.346,364,3147,2918,3147,-1.490966796875,0.30908203125,-0.2264404296875
8.362,363,3147,2704,3147,-1.0081787109375,0.3746337890625,0.0787353515625
8.362,364,3147,2716,3147,-0.78955078125,0.6629638671875,-0.0423583984375
8.369,364,3147,2728,3147,-0.9296875,0.9346923828125,-0.450439453125
8.384,364,3147,2621,3147,-1.3203125,1.0120849609375,-0.796142578125
8.391,364,3147,2497,3147,-1.72265625,0.770751953125,-0.9227294921875
8.400,364,3147,2350,3147,-1.7706298828125,0.37744140625,-0.79833984375
8.414,360,3147,1996,3064,-1.4498291015625,0.139404296875,-0.521240234375
8.426,357,3147,1786,2801,-1.0675048828125,0.0953369140625,-0.2181396484375
8.430,349,3147,1610,2576,-0.7921142578125,0.111083984375,-0.0157470703125
8.477,346,3147,1382,1949,-0.6134033203125,0.140625,0.0450439453125
8.486,344,3147,1306,1241,-0.5411376953125,0.2177734375,0.0899658203125
8.487,338,3147,1243,826,-0.54443359375,0.216796875,0.12890625
8.487,334,3147,1217,402,-0.54443359375,0.216796875,0.12890625
8.489,329,2296,1137,384,-0.5640869140625,-0.0264892578125,-0.097412109375
8.495,324,2131,1100,378,-0.5426025390625,0.0367431640625,-0.2646484375
8.506,324,1742,1050,373,-0.5968017578125,0.197265625,-0.4166259765625
8.511,321,1573,1038,363,-0.701171875,0.34912109375,-0.4705810546875
8.519,318,1398,969,363,-0.7069091796875,0.3514404296875,-0.42138671875
8.533,319,1330,962,359,-0.631591796875,0.2701416015625,-0.3453369140625
8.561,318,1362,963,359,-0.595703125,0.2774658203125,-0.3192138671875
8.565,317,1437,959,352,-0.6173095703125,0.377685546875,-0.3218994140625
8.566,318,1700,992,361,-0.6494140625,0.453857421875,-0.3087158203125
8.571,319,1978,1010,369,-0.676025390625,0.4744873046875,-0.2877197265625
8.580,322,2161,1026,372,-0.6923828125,0.476806640625,-0.2784423828125
8.594,319,2407,1054,375,-0.696044921875,0.4566650390625,-0.2681884765625
8.602,323,2541,1078,381,-0.68603515625,0.3594970703125,-0.2481689453125
8.609,323,2840,1091,385,-0.68603515625,0.3594970703125,-0.2481689453125
8.631,324,3147,1125,794,-0.669189453125,0.1142578125,-0.1666259765625
8.632,310,3147,1134,1054,-0.6385498046875,0.099365234375,-0.1258544921875
8.639,328,3147,1160,1440,-0.6385498046875,0.099365234375,-0.1258544921875
8.670,336,3147,1173,1913,-0.5697021484375,0.2669677734375,-0.12060546875
8.671,338,3147,1198,2213,-0.492919921875,0.336181640625,-0.105712890625
8.671,336,3147,1401,2478,-0.492919921875,0.336181640625,-0.105712890625
8.684,355,3147,1700,2949,-0.270263671875,0.3343505859375,0.013427734375
8.691,354,3147,1933,3147,-0.2305908203125,0.3187255859375,0.0313720703125
8.699,359,3147,2106,3147,-0.2305908203125,0.3187255859375,0.0313720703125
8.713,355,3147,2384,3147,-0.626220703125,0.555908203125,-0.2606201171875
8.721,359,3147,2584,3147,-1.1187744140625,0.8046875,-0.630615234375
8.734,361,3147,2713,3147,-1.1187744140625,0.8046875,-0.630615234375
8.762,364,3147,2884,3147,-2.2623291015625,0.54443359375,-1.3408203125
8.762,373,3147,2891,3147,-2.5867919921875,0.0908203125,-1.1234130859375
8.764,369,3147,2872,3147,-2.5867919921875,0.0908203125,-1.1234130859375
8.780,365,3147,2713,3147,-1.327392578125,-0.2381591796875,0.20703125
8.781,361,3147,2689,3147,-0.675537109375,0.448486328125,0.1756591796875
8.790,369,3147,2695,3147,-0.675537109375,0.448486328125,0.1756591796875
8.803,371,3147,2612,3147,-1.29931640625,1.625,-0.95068359375
8.812,369,3147,2527,3147,-1.6474609375,1.21533203125,-0.9923095703125
8.819,364,3147,2382,3147,-1.6474609375,1.21533203125,-0.9923095703125
8.836,364,3147,2142,3147,-1.3184814453125,0.0584716796875,-0.3946533203125
8.842,361,3147,1914,3147,-1.3184814453125,0.0584716796875,-0.3946533203125
8.851,359,3147,1715,3147,-0.9906005859375,0.03125,-0.1875
8.864,356,3147,1504,2777,-0.6063232421875,0.1895751953125,0.00439453125
8.872,351,3147,1386,2379,-0.6063232421875,0.1895751953125,0.00439453125
8.879,348,3147,1351,2005,-0.5850830078125,0.2071533203125,-0.0250244140625
8.894,343,3147,1249,1229,-0.675048828125,0.194091796875,0.06396484375
8.901,336,3147,1188,607,-0.675048828125,0.194091796875,0.06396484375
8.909,334,3121,1129,410,-0.686279296875,0.087890625,-0.049072265625
8.924,330,2532,1116,400,-0.6324462890625,0.0933837890625,-0.3748779296875
8.939,328,2162,1081,388,-0.6324462890625,0.0933837890625,-0.3748779296875
8.940,324,1997,1093,382,-0.6474609375,0.211669921875,-0.437255859375
8.954,323,1881,1042,378,-0.6370849609375,0.3099365234375,-0.350830078125
8.977,321,1877,1010,385,-0.6370849609375,0.3099365234375,-0.350830078125
8.977,304,1830,1014,424,-0.614501953125,0.30029296875,-0.2628173828125
8.983,321,1943,1018,383,-0.676025390625,0.46533203125,-0.270263671875
8.992,323,2093,1014,378,-0.676025390625,0.46533203125,-0.270263671875
9.005,323,2296,1029,378,-0.680419921875,0.47021484375,-0.2734375
9.013,321,2818,1050,385,-0.6773681640625,0.4285888671875,-0.2537841796875
9.022,323,3106,1074,396,-0.6773681640625,0.4285888671875,-0.2537841796875
9.030,322,3147,1081,465,-0.6644287109375,0.389404296875,-0.2479248046875
9.043,323,3147,1103,835,-0.623779296875,0.2169189453125,-0.1990966796875
9.059,323,3147,1108,1129,-0.623779296875,0.2169189453125,-0.1990966796875
9.060,323,3147,1103,1370,-0.638916015625,0.223876953125,-0.19287109375
9.085,324,3147,1157,1864,-0.6605224609375,0.28173828125,-0.203857421875
9.085,315,3147,1182,2058,-0.6529541015625,0.31201171875,-0.2203369140625
9.090,337,3147,1186,2197,-0.6029052734375,0.301025390625,-0.20654296875
9.103,345,3147,1370,2561,-0.5150146484375,0.1781005859375,-0.1590576171875
9.117,347,3147,1509,2739,-0.4825439453125,0.02783203125,-0.1287841796875
9.119,349,3147,1604,3061,-0.50634765625,-0.0003662109375,-0.1614990234375
9.133,359,3147,1769,3147,-0.5281982421875,0.1121826171875,-0.2322998046875
9.141,359,3147,1890,3147,-0.6109619140625,0.33935546875,-0.3037109375
9.150,361,3147,2012,3147,-0.7738037109375,0.568359375,-0.414306640625
9.176,359,3147,2364,3147,-0.9755859375,0.7435302734375,-0.567626953125
9.177,362,3147,2497,3147,-1.2767333984375,0.8597412109375,-0.759033203125
9.189,364,3147,2527,3147,-1.6910400390625,0.776123046875,-0.9091796875
9.193,362,3147,2567,3147,-2.044677734375,0.5113525390625,-0.84814453125
9.201,364,3147,2524,3147,-2.080810546875,0.24169921875,-0.5543212890625
9.210,364,3147,2445,3147,-1.6304931640625,0.0687255859375,-0.1483154296875
9.230,363,3147,2280,3147,-0.9940185546875,0.189208984375,0.1009521484375
9.231,363,3147,2317,3147,-0.6910400390625,0.53466796875,-0.029296875
9.245,361,3147,2296,3147,-0.85546875,0.853271484375,-0.391357421875
9.253,361,3147,2143,3147,-1.28662109375,1.0,-0.710693359375
9.261,362,3147,2014,3147,-1.6231689453125,0.81005859375,-0.8323974609375
9.272,361,3147,1829,3147,-1.630126953125,0.4608154296875,-0.7442626953125
9.293,354,3147,1531,3147,-1.3955078125,0.2554931640625,-0.542724609375
9.294,351,3147,1398,3143,-1.0999755859375,0.197265625,-0.327392578125
9.299,348,3147,1271,2840,-0.8516845703125,0.220458984375,-0.1954345703125
9.313,343,3147,1228,2178,-0.6910400390625,0.2640380859375,-0.145263671875
9.322,337,3147,1202,1773,-0.6263427734375,0.25146484375,-0.02734375
9.329,332,3147,1189,1415,-0.62353515625,0.1685791015625,0.1290283203125
9.350,328,3147,1104,388,-0.628662109375,0.040771484375,0.1024169921875
9.352,326,2645,1065,375,-0.633544921875,0.010498046875,-0.0682373046875
9.367,324,2430,1039,371,-0.6083984375,0.091064453125,-0.238525390625
9.373,322,1985,1000,363,-0.60888671875,0.18408203125,-0.3709716796875
9.389,321,1709,952,363,-0.654541015625,0.2845458984375,-0.410400390625
9.389,319,1623,929,360,-0.6375732421875,0.3153076171875,-0.37060546875
9.403,316,1428,891,354,-0.595947265625,0.27197265625,-0.335693359375
9.412,318,1464,872,354,-0.5859375,0.2877197265625,-0.35302734375
9.419,317,1569,883,352,-0.595703125,0.4100341796875,-0.392578125
9.434,321,1766,900,356,-0.632080078125,0.5460205078125,-0.39111328125
9.441,318,1878,913,359,-0.6685791015625,0.611328125,-0.343505859375
9.455,318,2026,920,359,-0.67822265625,0.56103515625,-0.299560546875
9.467,313,2414,984,361,-0.6865234375,0.4124755859375,-0.287353515625
9.478,324,2587,991,369,-0.7025146484375,0.27294921875,-0.299560546875
9.480,316,2827,1034,371,-0.7236328125,0.1927490234375,-0.302490234375
9.493,321,3080,1050,376,-0.749755859375,0.158935546875,-0.2823486328125
9.507,317,3147,1050,409,-0.78076171875,0.1636962890625,-0.248779296875
9.510,323,3147,1038,683,-0.7950439453125,0.155517578125,-0.1939697265625
9.523,323,3147,1081,1173,-0.7598876953125,0.1234130859375,-0.14208984375
9.531,327,3147,1104,1462,-0.702392578125,0.15771484375,-0.1341552734375
9.540,328,3147,1107,1750,-0.6292724609375,0.2332763671875,-0.1815185546875
9.553,336,3147,1146,2225,-0.5377197265625,0.2806396484375,-0.2333984375
9.568,345,3147,1355,2497,-0.3975830078125,0.2874755859375,-0.2042236328125
9.569,347,3147,1464,2810,-0.150390625,0.2054443359375,-0.0706787109375
9.591,355,3147,1667,3147,0.0230712890625,0.189697265625,0.058837890625
9.592,351,3147,1800,3147,-0.0916748046875,0.42578125,-0.0140380859375
9.600,359,3147,1867,3147,-0.42919921875,0.7674560546875,-0.3287353515625
9.612,361,3147,1900,3147,-0.90478515625,1.07666015625,-0.774169921875
9.623,362,3147,2231,3147,-1.4744873046875,1.30322265625,-1.2037353515625
9.630,372,3147,2337,3147,-2.138671875,1.1864013671875,-1.4205322265625
9.638,371,3147,2205,3147,-2.138671875,1.1864013671875,-1.4205322265625
9.655,360,3147,2041,3147,-2.750244140625,-0.5482177734375,-0.4583740234375
9.660,360,3147,2052,3147,-1.7506103515625,-0.9814453125,0.405517578125
9.673,363,3147,2026,3147,-1.7506103515625,-0.9814453125,0.405517578125
9.686,360,3147,1945,3147,-0.66845703125,1.087890625,-0.309814453125
9.692,360,3147,1904,3147,-1.14404296875,1.8963623046875,-1.0079345703125
9.699,357,3147,1792,3147,-1.14404296875,1.8963623046875,-1.0079345703125
9.712,349,3147,1598,3147,-1.5498046875,0.493896484375,-0.614501953125
9.724,347,3147,1545,3147,-1.36083984375,-0.0802001953125,-0.2474365234375
9.728,346,3147,1393,3147,-1.36083984375,-0.0802001953125,-0.2474365234375
9.743,334,3147,1225,2970,-0.8253173828125,0.2506103515625,-0.20166015625
9.759,334,3147,1196,2563,-0.684326171875,0.2886962890625,-0.20947265625
9.759,332,3147,1172,2111,-0.684326171875,0.2886962890625,-0.20947265625
9.796,327,3147,1091,1473,-0.5889892578125,0.108154296875,0.060791015625
9.797,324,3147,1050,951,-0.55615234375,0.091796875,0.0709228515625
9.797,321,3147,978,373,-0.55615234375,0.091796875,0.0709228515625
9.804,321,2233,890,359,-0.6055908203125,0.2083740234375,-0.2664794921875
9.811,316,1970,883,360,-0.590576171875,0.260498046875,-0.3782958984375
9.827,316,1624,853,348,-0.590576171875,0.260498046875,-0.3782958984375
9.832,315,1137,803,346,-0.6566162109375,0.3265380859375,-0.3719482421875
9.841,313,995,739,338,-0.6231689453125,0.268310546875,-0.3536376953125
9.849,315,891,689,345,-0.6231689453125,0.268310546875,-0.3536376953125
9.862,315,894,715,344,-0.555908203125,0.31201171875,-0.2869873046875
9.876,314,844,748,344,-0.555908203125,0.31201171875,-0.2869873046875
9.891,313,944,761,345,-0.5784912109375,0.4754638671875,-0.292724609375
9.893,313,1278,784,348,-0.608642578125,0.5640869140625,-0.3282470703125
9.906,313,1684,777,356,-0.608642578125,0.5640869140625,-0.3282470703125
9.909,315,2021,788,370,-0.6146240234375,0.406494140625,-0.300537109375
9.922,315,2494,826,390,-0.6612548828125,0.1982421875,-0.2435302734375
9.934,316,2909,840,398,-0.6612548828125,0.1982421875,-0.2435302734375
9.939,317,3147,846,386,-0.659423828125,0.196533203125,-0.2264404296875
9.952,318,3147,937,754,-0.7047119140625,0.3851318359375,-0.2734375
9.962,318,3147,952,1014,-0.7047119140625,0.3851318359375,-0.2734375
9.968,318,3147,978,1260,-0.726806640625,0.429931640625,-0.31591796875
9.993,324,3147,1000,1742,-0.7388916015625,0.23779296875,-0.327880859375
9.994,330,3147,1031,1945,-0.7388916015625,0.23779296875,-0.327880859375
10.000,332,3147,1211,2238,-0.712158203125,0.137939453125,-0.2681884765625
10.018,344,3147,1455,2683,-0.5015869140625,0.051513671875,-0.1673583984375
10.020,345,3147,1541,2905,-0.5015869140625,0.051513671875,-0.1673583984375
10.029,349,3147,1650,3128,-0.4813232421875,0.1705322265625,-0.2001953125
10.043,351,3147,1847,3147,-0.6456298828125,0.6864013671875,-0.2918701171875
10.051,360,3147,2050,3147,-0.6456298828125,0.6864013671875,-0.2918701171875
10.064,363,3147,2258,3147,-0.7828369140625,0.8902587890625,-0.3658447265625
10.072,364,3147,2593,3147,-1.08349609375,0.97265625,-0.4796142578125
10.088,365,3147,2684,3147,-1.5294189453125,0.769775390625,-0.688720703125
10.089,352,3147,2586,3147,-1.9849853515625,0.4102783203125,-0.878173828125
10.103,369,3147,2514,3147,-2.2255859375,0.1431884765625,-0.8408203125
10.110,371,3147,2417,3147,-1.9283447265625,-0.0450439453125,-0.4906005859375
10.118,363,3147,2299,3147,-1.22314453125,0.0386962890625,-0.0506591796875
10.132,359,3147,2316,3147,-0.7320556640625,0.4896240234375,-0.0010986328125
10.144,361,3147,2273,3147,-0.7633056640625,1.0084228515625,-0.3646240234375
10.149,364,3147,2180,3147,-1.1748046875,1.2525634765625,-0.7247314453125
10.168,360,3147,1934,3147,-1.5787353515625,0.943115234375,-0.8236083984375
10.171,354,3147,1719,3147,-1.6363525390625,0.40087890625,-0.67919921875
10.182,354,3147,1541,3010,-1.3868408203125,0.159912109375,-0.4471435546875
10.205,346,3147,1306,2563,-1.066162109375,0.1845703125,-0.23046875
10.206,334,3147,1274,2172,-0.812744140625,0.2081298828125,-0.10693359375
10.209,332,3147,1248,1681,-0.679931640625,0.1883544921875,-0.076171875
10.223,327,3147,1189,905,-0.6458740234375,0.1884765625,-0.0126953125
10.232,324,3147,1138,426,-0.6051025390625,0.171875,0.0462646484375
10.253,323,2882,1085,378,-0.545166015625,0.1103515625,-0.027099609375
10.253,319,1957,969,344,-0.5543212890625,0.0758056640625,-0.1761474609375
10.261,317,1869,932,363,-0.594482421875,0.0877685546875,-0.2904052734375
10.268,318,1516,865,351,-0.617431640625,0.15478515625,-0.3787841796875
10.291,315,1173,840,338,-0.6800537109375,0.3184814453125,-0.43359375
10.295,315,912,764,338,-0.70068359375,0.4429931640625,-0.4385986328125
10.310,314,934,782,338,-0.6241455078125,0.4154052734375,-0.4552001953125
10.313,313,840,779,336,-0.5645751953125,0.3597412109375,-0.4593505859375
10.321,313,846,767,338,-0.5577392578125,0.4014892578125,-0.42578125
10.329,313,905,777,338,-0.5987548828125,0.536865234375,-0.3966064453125
10.343,313,967,793,336,-0.6654052734375,0.641845703125,-0.351806640625
10.372,315,1058,785,338,-0.6865234375,0.5843505859375,-0.2926025390625
10.372,298,1236,829,326,-0.68603515625,0.407470703125,-0.270751953125
10.373,314,1453,899,333,-0.71142578125,0.2486572265625,-0.2672119140625
10.380,313,1718,936,355,-0.7451171875,0.13916015625,-0.263427734375
10.388,315,2009,963,356,-0.7724609375,0.08056640625,-0.2535400390625
10.411,315,2416,996,361,-0.783203125,0.0806884765625,-0.2362060546875
10.411,316,2756,971,371,-0.7879638671875,0.1171875,-0.239501953125
10.419,316,3079,1009,376,-0.8016357421875,0.163330078125,-0.2509765625
10.433,317,3147,1014,682,-0.7857666015625,0.1881103515625,-0.25390625
10.441,318,3147,1039,1018,-0.73828125,0.2130126953125,-0.265625
10.449,323,3147,1065,1268,-0.67138671875,0.237060546875,-0.2647705078125
10.506,332,3147,1063,1820,-0.562255859375,0.2266845703125,-0.2481689453125
10.507,334,3147,1253,2152,-0.41845703125,0.2279052734375,-0.192138671875
10.507,344,3147,1393,2477,-0.2576904296875,0.2518310546875,-0.0823974609375
10.507,347,3147,1555,3028,-0.159912109375,0.2764892578125,-0.0025634765625
10.507,354,3147,1627,3147,-0.2550048828125,0.39404296875,-0.0435791015625
10.511,356,3147,1733,3147,-0.5418701171875,0.62451171875,-0.2735595703125
10.523,357,3147,1800,3147,-0.9031982421875,0.8585205078125,-0.65576171875
10.531,361,3147,1996,3147,-1.2435302734375,0.9947509765625,-1.0465087890625
10.538,369,3147,2341,3147,-1.571533203125,0.9927978515625,-1.26220703125
10.552,364,3147,2374,3147,-2.0078125,0.7391357421875,-1.188720703125
10.561,364,3147,2376,3147,-2.39306640625,0.1141357421875,-0.79296875
10.585,361,3147,2384,3147,-2.15185546875,-0.42822265625,-0.12939453125
10.585,359,3147,2190,3147,-1.3182373046875,-0.21533203125,0.3359375
10.603,359,3147,2178,3147,-0.6697998046875,0.592041015625,0.18115234375
10.604,361,3147,2186,3147,-0.591796875,1.2803955078125,-0.316650390625
10.613,361,3147,2100,3147,-0.953125,1.3599853515625,-0.664306640625
10.621,360,3147,2000,3147,-1.428955078125,0.800537109375,-0.727783203125
10.629,356,3147,1891,3147,-1.636962890625,0.199951171875,-0.6488037109375
10.642,347,3147,1673,3147,-1.489990234375,0.0655517578125,-0.56005859375
10.651,347,3147,1519,3147,-1.2086181640625,0.1982421875,-0.4471435546875
10.659,344,3147,1386,2988,-0.9317626953125,0.287353515625,-0.271240234375
10.686,336,3147,1268,2333,-0.7010498046875,0.310546875,-0.142333984375
10.687,332,3147,1225,1931,-0.5811767578125,0.3365478515625,-0.090087890625
10.713,331,3147,1242,1575,-0.5654296875,0.3348388671875,-0.011474609375
10.716,330,3147,1162,797,-0.6009521484375,0.2110595703125,0.0318603515625
10.716,323,3147,1157,419,-0.67236328125,0.065673828125,-0.033447265625
10.719,318,2973,1157,373,-0.7406005859375,0.080810546875,-0.16357421875
10.733,323,2078,1055,360,-0.76416015625,0.191162109375,-0.2899169921875
10.741,322,1922,1018,360,-0.7431640625,0.22607421875,-0.350830078125
10.749,316,1653,998,363,-0.67138671875,0.1690673828125,-0.3504638671875
10.763,318,1452,910,363,-0.57958984375,0.12451171875,-0.322998046875
10.770,316,1386,894,371,-0.5357666015625,0.17822265625,-0.3270263671875
10.788,317,1348,898,371,-0.5357666015625,0.17822265625,-0.3270263671875
10.800,316,1412,872,371,-0.5948486328125,0.471435546875,-0.427001953125
10.815,300,1625,888,369,-0.5826416015625,0.558349609375,-0.4652099609375
10.815,317,1816,910,376,-0.5826416015625,0.558349609375,-0.4652099609375
10.822,316,2131,951,388,-0.6629638671875,0.4774169921875,-0.3641357421875
10.831,317,2286,968,386,-0.6778564453125,0.3568115234375,-0.330078125
10.839,317,2467,991,390,-0.6778564453125,0.3568115234375,-0.330078125
10.853,317,2869,1014,387,-0.677978515625,0.1610107421875,-0.2838134765625
10.861,321,3092,1043,391,-0.688232421875,0.1395263671875,-0.231689453125
10.868,321,3147,1081,479,-0.688232421875,0.1395263671875,-0.231689453125
10.891,323,3147,1120,962,-0.7423095703125,0.2152099609375,-0.162841796875
10.891,327,3147,1134,1239,-0.73583984375,0.176513671875,-0.1533203125
10.901,327,3147,1155,1557,-0.73583984375,0.176513671875,-0.1533203125
10.912,336,3147,1382,2068,-0.6593017578125,0.1026611328125,-0.155517578125
10.920,345,3147,1518,2435,-0.4852294921875,0.1632080078125,-0.12158203125
10.928,347,3147,1588,2822,-0.4852294921875,0.1632080078125,-0.12158203125
10.942,352,3147,1882,3147,-0.0711669921875,0.4197998046875,-0.04296875
10.950,356,3147,2054,3147,-0.2203369140625,0.7159423828125,-0.198486328125
10.958,356,3147,2192,3147,-0.2203369140625,0.7159423828125,-0.198486328125
10.990,360,3147,2465,3147,-0.9794921875,1.1199951171875,-0.979248046875
10.990,373,3147,2785,3147,-0.9794921875,1.1199951171875,-0.979248046875
11.019,373,3147,2850,3147,-1.5145263671875,1.152587890625,-1.3311767578125
11.019,364,3147,2830,3147,-2.6829833984375,0.048828125,-1.2017822265625
11.019,371,3147,2827,3147,-2.6829833984375,0.048828125,-1.2017822265625
11.019,364,3147,2879,3147,-2.4813232421875,-0.8021240234375,-0.3673095703125
11.034,362,3147,2777,3147,-0.7081298828125,0.1190185546875,0.677978515625
11.040,360,3147,2753,3147,-0.7081298828125,0.1190185546875,0.677978515625
11.049,361,3147,2746,3147,-0.571533203125,1.2264404296875,0.11865234375
11.062,364,3147,2627,3147,-1.373779296875,1.1275634765625,-0.77001953125
11.070,364,3147,2471,3147,-1.373779296875,1.1275634765625,-0.77001953125
11.078,362,3147,2296,3147,-1.581787109375,0.3477783203125,-0.7816162109375
11.092,347,3147,1960,3147,-1.1763916015625,0.079833984375,-0.4771728515625
11.119,354,3147,1840,3071,-1.1763916015625,0.079833984375,-0.4771728515625
11.119,333,3147,1664,2765,-0.9239501953125,0.1258544921875,-0.255859375
11.122,346,3147,1434,2280,-0.6171875,0.3150634765625,-0.0904541015625
11.130,342,3147,1409,1960,-0.6171875,0.3150634765625,-0.0904541015625
11.145,336,3147,1372,1490,-0.61962890625,0.5009765625,-0.1292724609375
11.152,324,3147,1312,567,-0.678955078125,0.2510986328125,-0.2003173828125
11.161,323,2945,1278,416,-0.678955078125,0.2510986328125,-0.2003173828125
11.169,327,2472,1251,401,-0.7447509765625,-0.05859375,-0.2288818359375
11.190,323,2068,1160,383,-0.7947998046875,-0.1180419921875,-0.2646484375
11.190,321,1803,1109,388,-0.7947998046875,-0.1180419921875,-0.2646484375
11.199,318,1602,1067,371,-0.7587890625,0.0296630859375,-0.319091796875
11.220,319,1283,960,356,-0.693603515625,0.19091796875,-0.334716796875
11.220,316,1120,920,355,-0.6309814453125,0.28662109375,-0.309326171875
11.229,314,1125,917,352,-0.5966796875,0.36767578125,-0.28466796875
11.242,310,1195,910,349,-0.5955810546875,0.4730224609375,-0.3004150390625
11.257,313,1216,910,354,-0.627685546875,0.5435791015625,-0.33203125
11.259,315,1323,951,354,-0.632568359375,0.5406494140625,-0.3514404296875
11.272,315,1613,1005,361,-0.623779296875,0.487060546875,-0.3626708984375
11.281,315,1908,1043,369,-0.64453125,0.42431640625,-0.35888671875
11.294,316,2133,1055,375,-0.6785888671875,0.3465576171875,-0.345458984375
11.303,316,2567,1074,387,-0.697998046875,0.224853515625,-0.3123779296875
11.322,316,2807,1097,414,-0.6973876953125,0.104736328125,-0.26513671875
11.322,316,3147,1125,406,-0.6910400390625,0.07568359375,-0.24169921875
11.333,318,3147,1166,929,-0.691162109375,0.164794921875,-0.2479248046875
11.341,323,3147,1198,1225,-0.69921875,0.332763671875,-0.2840576171875
11.350,328,3147,1224,1503,-0.6795654296875,0.4288330078125,-0.308837890625
11.363,336,3147,1519,2075,-0.607177734375,0.3209228515625,-0.268310546875
11.371,347,3147,1700,2368,-0.5001220703125,0.1212158203125,-0.1475830078125
11.379,354,3147,1904,2683,-0.373779296875,0.0341796875,-0.009521484375
11.395,354,3147,2220,3147,-0.2711181640625,0.185791015625,0.0255126953125
11.401,356,3147,2344,3147,-0.31103515625,0.534423828125,-0.093017578125
11.411,359,3147,2443,3147,-0.5330810546875,0.775146484375,-0.30712890625
11.435,360,3147,2713,3147,-0.8636474609375,0.7320556640625,-0.5860595703125
11.436,364,3147,2840,3147,-1.3153076171875,0.660400390625,-0.915771484375
11.439,369,3147,2898,3147,-1.863525390625,0.609375,-1.1854248046875
11.452,372,3147,2916,3147,-2.37841796875,0.35400390625,-1.2320556640625
11.461,369,3147,3015,3147,-2.49755859375,-0.130126953125,-0.7664794921875
11.468,364,3147,3016,3147,-1.834716796875,-0.343017578125,0.089599609375
11.483,371,3147,2898,3147,-0.9195556640625,0.1971435546875,0.5333251953125
11.498,365,3147,2912,3147,-0.573974609375,0.9288330078125,0.259765625
11.500,344,3147,2886,3147,-0.785400390625,1.150634765625,-0.233642578125
11.535,364,3147,2700,3147,-1.23046875,0.8485107421875,-0.5751953125
11.536,363,3147,2565,3147,-1.5606689453125,0.3577880859375,-0.750732421875
11.536,363,3147,2381,3147,-1.5389404296875,0.1146240234375,-0.769775390625
11.543,357,3147,2106,3147,-1.3021240234375,0.1573486328125,-0.6529541015625
11.551,351,3147,1960,3040,-1.02880859375,0.2354736328125,-0.4569091796875
11.559,354,3147,1845,2677,-0.79833984375,0.2939453125,-0.2686767578125
11.573,346,3147,1643,2091,-0.6575927734375,0.38134765625,-0.1466064453125
11.581,346,3147,1545,1648,-0.6295166015625,0.45849609375,-0.048828125
11.602,336,3147,1474,1039,-0.6829833984375,0.4144287109375,0.008056640625
11.603,329,3000,1411,462,-0.7274169921875,0.1705322265625,-0.0111083984375
11.611,328,2584,1345,446,-0.7501220703125,-0.15185546875,-0.0462646484375
11.640,327,2311,1303,430,-0.776123046875,-0.287353515625,-0.0745849609375
11.640,324,1915,1160,411,-0.75927734375,-0.18408203125,-0.146728515625
11.641,308,1794,1112,385,-0.7020263671875,-0.003662109375,-0.23583984375
11.649,323,1546,1038,382,-0.6439208984375,0.163818359375,-0.3001708984375
11.663,321,1409,922,373,-0.6116943359375,0.3421630859375,-0.3555908203125
11.671,321,1415,968,371,-0.6207275390625,0.5306396484375,-0.420654296875
11.679,321,1481,978,371,-0.6405029296875,0.666015625,-0.4737548828125
11.692,318,1424,1012,363,-0.65478515625,0.7144775390625,-0.4920654296875
11.708,321,1434,1042,369,-0.674072265625,0.6387939453125,-0.467529296875
11.709,318,1598,1065,371,-0.6817626953125,0.456787109375,-0.4134521484375
11.742,318,1899,1078,376,-0.6864013671875,0.290771484375,-0.3607177734375
11.743,324,2074,1112,399,-0.71337890625,0.1875,-0.3131103515625
11.743,321,2277,1153,414,-0.742431640625,0.0999755859375,-0.268310546875
11.753,323,2612,1201,456,-0.7562255859375,0.01904296875,-0.225341796875
11.761,324,3017,1236,473,-0.753662109375,0.00439453125,-0.1962890625
11.769,324,3147,1251,523,-0.740234375,0.0634765625,-0.194091796875
11.782,328,3147,1276,899,-0.7266845703125,0.1329345703125,-0.226806640625
11.791,331,3147,1294,1206,-0.7080078125,0.16748046875,-0.2554931640625
11.807,330,3147,1348,1492,-0.684326171875,0.2105712890625,-0.2589111328125
11.813,338,3147,1595,2028,-0.6883544921875,0.3306884765625,-0.296875
11.821,338,3147,1742,2306,-0.6710205078125,0.4266357421875,-0.340087890625
11.851,351,3147,1865,2645,-0.5784912109375,0.4134521484375,-0.2796630859375
11.851,351,3147,2041,3115,-0.4791259765625,0.3875732421875,-0.130859375
11.852,353,3147,2215,3147,-0.407958984375,0.4144287109375,-0.0303955078125
11.859,356,3147,2354,3147,-0.3468017578125,0.5294189453125,-0.0460205078125
11.873,360,3147,2607,3147,-0.4012451171875,0.7210693359375,-0.172119140625
11.880,363,3147,2758,3147,-0.7120361328125,0.8831787109375,-0.4161376953125
11.889,364,3147,2993,3147,-0.7120361328125,0.8831787109375,-0.4161376953125
11.907,365,3147,3137,3147,-1.724365234375,0.7650146484375,-1.0264892578125
11.911,375,3147,3058,3147,-2.202880859375,0.4241943359375,-1.1219482421875
11.941,375,3147,3137,3147,-2.202880859375,0.4241943359375,-1.1219482421875
11.941,373,3147,3147,3147,-1.9892578125,-0.5921630859375,-0.1995849609375
11.942,369,3147,3133,3147,-1.1422119140625,-0.499267578125,0.39453125
11.956,373,3147,3016,3147,-1.1422119140625,-0.499267578125,0.39453125
11.966,371,3147,3056,3147,-0.63134765625,1.020751953125,-0.177490234375
11.970,371,3147,3051,3147,-0.9859619140625,1.3775634765625,-0.6751708984375
11.979,371,3147,3028,3147,-0.9859619140625,1.3775634765625,-0.6751708984375
11.993,365,3147,2859,3147,-1.7078857421875,0.677734375,-0.9345703125
12.001,364,3147,2610,3147,-1.513427734375,0.337158203125,-0.7364501953125
12.009,356,3147,2440,2772,-1.513427734375,0.337158203125,-0.7364501953125
12.025,352,3147,2132,1874,-0.9197998046875,0.1353759765625,-0.1270751953125
12.037,348,3147,1894,1343,-0.7501220703125,0.1439208984375,-0.026611328125
12.047,344,3147,1743,799,-0.7501220703125,0.1439208984375,-0.026611328125
12.063,334,2419,1700,467,-0.710693359375,0.253662109375,0.04443359375
12.063,332,1743,1592,425,-0.7596435546875,0.1737060546875,-0.018310546875
12.069,327,1385,1560,382,-0.7596435546875,0.1737060546875,-0.018310546875
12.082,321,868,1377,349,-0.733154296875,0.02587890625,-0.142333984375
12.091,315,643,1251,342,-0.703369140625,0.083251953125,-0.1724853515625
12.099,314,430,1066,330,-0.703369140625,0.083251953125,-0.1724853515625
12.113,313,445,895,324,-0.6767578125,0.179931640625,-0.3359375
12.121,308,475,829,330,-0.6767578125,0.179931640625,-0.3359375
12.129,308,485,841,326,-0.6011962890625,0.1748046875,-0.375732421875
12.143,308,484,818,327,-0.5382080078125,0.3897705078125,-0.4129638671875
12.168,308,428,837,324,-0.5382080078125,0.3897705078125,-0.4129638671875
12.171,308,464,879,327,-0.54736328125,0.5146484375,-0.3944091796875
12.173,306,499,947,328,-0.53173828125,0.4208984375,-0.250732421875
12.181,310,498,1004,328,-0.53173828125,0.4208984375,-0.250732421875
12.188,309,580,1081,328,-0.5045166015625,0.310791015625,-0.186279296875
12.202,316,1050,1220,347,-0.47802734375,0.1585693359375,-0.0966796875
12.215,317,1480,1257,360,-0.47802734375,0.1585693359375,-0.0966796875
12.219,323,2323,1306,385,-0.4532470703125,0.0596923828125,-0.077880859375
12.237,324,3147,1367,968,-0.54345703125,0.138427734375,-0.2330322265625
12.241,330,3147,1383,1557,-0.54345703125,0.138427734375,-0.2330322265625
12.249,338,3147,1449,2012,-0.65087890625,0.30322265625,-0.3212890625
12.262,347,3147,1878,2772,-0.531982421875,0.3587646484375,-0.118896484375
12.271,356,3147,2119,3133,-0.531982421875,0.3587646484375,-0.118896484375
12.281,360,3147,2368,3147,-0.406494140625,0.4061279296875,-0.1077880859375
12.293,362,3147,2828,3147,-0.68115234375,0.756103515625,-0.4178466796875
12.301,365,3147,3023,3147,-0.68115234375,0.756103515625,-0.4178466796875
12.309,373,3147,3133,3147,-1.090576171875,0.73974609375,-0.5286865234375
12.322,376,3147,3147,3147,-1.57177734375,0.581298828125,-0.6685791015625
12.334,376,3147,3147,3147,-2.0250244140625,0.3699951171875,-0.821044921875
12.343,406,3147,3147,3147,-2.3489990234375,0.1632080078125,-0.83837890625
12.357,526,3147,3147,3147,-2.2659912109375,-0.0943603515625,-0.564697265625
12.361,524,3147,3147,3147,-1.6058349609375,-0.1739501953125,-0.0146484375
12.370,485,3147,3147,3147,-0.8165283203125,0.221923828125,0.3294677734375
12.396,378,3147,3147,3147,-0.5003662109375,0.7886962890625,0.077880859375
12.396,371,3147,3147,3147,-0.6302490234375,1.0506591796875,-0.4132080078125
12.399,371,3147,3147,3147,-0.8453369140625,0.859130859375,-0.6385498046875
12.421,371,3147,3147,3147,-1.053466796875,0.47119140625,-0.630615234375
12.421,371,3147,3147,3147,-1.3009033203125,0.3046875,-0.6529541015625
12.429,371,3147,3115,3147,-1.4505615234375,0.309814453125,-0.697265625
12.451,364,3147,2918,2591,-1.3768310546875,0.261962890625,-0.5745849609375
12.451,364,3147,2788,2359,-1.172119140625,0.203125,-0.3028564453125
12.459,361,3147,2621,2098,-0.9508056640625,0.2215576171875,-0.091064453125
12.473,359,3147,2453,1686,-0.772705078125,0.314697265625,-0.0411376953125
12.498,356,3147,2374,1577,-0.6910400390625,0.4312744140625,-0.088134765625
12.498,364,3147,2266,1500,-0.7156982421875,0.501708984375,-0.085693359375
12.502,348,3147,2093,1125,-0.80712890625,0.406494140625,-0.0263671875
12.511,344,3147,2005,934,-0.930419921875,0.185546875,-0.034423828125
12.522,343,3147,1801,627,-1.003662109375,0.0548095703125,-0.13134765625
12.533,336,2929,1675,416,-0.974609375,0.0848388671875,-0.244384765625
12.545,331,2519,1636,404,-0.8997802734375,0.1466064453125,-0.293701171875
12.563,330,2194,1560,398,-0.823974609375,0.154541015625,-0.25927734375
12.564,327,1464,1424,375,-0.7730712890625,0.1724853515625,-0.2078857421875
12.571,321,1292,1317,359,-0.7452392578125,0.244873046875,-0.2000732421875
12.579,323,1065,1222,359,-0.7095947265625,0.3365478515625,-0.223388671875
12.597,318,963,1103,348,-0.666259765625,0.4010009765625,-0.2523193359375
12.626,317,960,1055,338,-0.6383056640625,0.42236328125,-0.283447265625
12.626,315,818,1027,346,-0.63037109375,0.413330078125,-0.3177490234375
12.626,316,842,1045,343,-0.6236572265625,0.3553466796875,-0.360107421875
12.631,316,959,1050,346,-0.603515625,0.2528076171875,-0.3916015625
12.653,316,1079,1082,346,-0.5872802734375,0.1412353515625,-0.3797607421875
12.654,323,1427,1170,359,-0.5877685546875,0.076171875,-0.3179931640625
12.661,323,1862,1225,364,-0.589111328125,0.095703125,-0.2396240234375
12.669,326,2555,1248,383,-0.5499267578125,0.13623046875,-0.1763916015625
12.683,329,3147,1317,842,-0.4815673828125,0.1580810546875,-0.1431884765625
12.691,334,3147,1328,1358,-0.4549560546875,0.1898193359375,-0.131591796875
12.705,344,3147,1390,1846,-0.4395751953125,0.2095947265625,-0.1358642578125
12.713,348,3147,1800,2557,-0.3984375,0.2421875,-0.1683349609375
12.733,356,3147,2073,3050,-0.34033203125,0.3369140625,-0.2039794921875
12.734,354,3147,2263,3147,-0.2740478515625,0.4659423828125,-0.2149658203125
12.743,361,3147,2654,3147,-0.305419921875,0.5838623046875,-0.203857421875
12.754,362,3147,2938,3147,-0.4906005859375,0.6378173828125,-0.193359375
12.764,364,3147,3089,3147,-0.818115234375,0.6729736328125,-0.2332763671875
12.773,375,3147,3147,3147,-1.28515625,0.6649169921875,-0.4107666015625
12.781,378,3147,3147,3147,-1.82421875,0.5560302734375,-0.67529296875
12.789,383,3147,3147,3147,-2.2896728515625,0.4613037109375,-0.820068359375
12.810,386,3147,3147,3147,-2.4554443359375,0.4002685546875,-0.782958984375
12.811,388,3147,3147,3147,-2.05029296875,0.2518310546875,-0.573974609375
12.819,378,3147,3147,3147,-1.2056884765625,0.2518310546875,-0.2635498046875
12.836,370,3147,3126,3147,-0.5885009765625,0.552734375,-0.192626953125
12.841,371,3147,3137,3147,-0.5562744140625,0.8214111328125,-0.412353515625
12.853,365,3147,3147,3147,-0.8804931640625,0.919677734375,-0.6236572265625
12.875,371,3147,3092,3147,-1.2799072265625,0.8656005859375,-0.7491455078125
12.876,364,3147,3000,3147,-1.5509033203125,0.6468505859375,-0.7943115234375
12.879,369,3147,2864,3147,-1.541259765625,0.3948974609375,-0.6907958984375
12.893,359,3147,2507,3147,-1.3031005859375,0.245361328125,-0.48291015625
12.901,360,3147,2317,3147,-1.0211181640625,0.2232666015625,-0.2921142578125
12.915,356,3147,2108,3147,-0.7911376953125,0.30029296875,-0.1595458984375
12.923,348,3147,1806,2739,-0.641357421875,0.3663330078125,-0.1038818359375
12.931,346,3147,1656,2516,-0.624267578125,0.3568115234375,-0.088134765625
12.939,345,3147,1560,2268,-0.698974609375,0.2982177734375,-0.0487060546875
12.955,331,3147,1433,1552,-0.751220703125,0.1954345703125,-0.04931640625
12.993,332,3147,1380,1112,-0.75537109375,0.060302734375,-0.100830078125
12.993,330,3147,1308,713,-0.7396240234375,-0.017333984375,-0.120361328125
12.993,306,2651,1157,403,-0.7205810546875,0.0328369140625,-0.135498046875
12.993,324,2341,1112,403,-0.7037353515625,0.1473388671875,-0.206787109375
13.005,324,2162,1065,398,-0.6568603515625,0.2403564453125,-0.307861328125
13.025,319,1789,1022,373,-0.587646484375,0.308837890625,-0.3841552734375
13.026,322,1705,978,373,-0.583740234375,0.392333984375,-0.424072265625
13.042,318,1580,971,363,-0.633056640625,0.4798583984375,-0.4263916015625
13.089,317,1666,951,363,-0.650634765625,0.496337890625,-0.3955078125
13.092,318,1792,936,369,-0.6461181640625,0.412841796875,-0.347900390625
13.092,318,1861,968,369,-0.6622314453125,0.324462890625,-0.3233642578125
13.092,318,2209,951,374,-0.6939697265625,0.31787109375,-0.338134765625
13.092,318,2430,980,378,-0.7203369140625,0.350341796875,-0.3631591796875
13.092,319,2619,976,382,-0.7459716796875,0.3485107421875,-0.36865234375
13.103,319,3035,1039,402,-0.775390625,0.286865234375,-0.3419189453125
13.116,318,3147,1051,426,-0.7899169921875,0.206787109375,-0.2982177734375
13.120,316,3147,1069,579,-0.7899169921875,0.206787109375,-0.2982177734375
13.139,318,3147,1091,912,-0.7655029296875,0.1805419921875,-0.2958984375
13.142,322,3147,1098,1236,-0.7603759765625,0.218505859375,-0.298828125
13.164,323,3147,1095,1439,-0.7603759765625,0.218505859375,-0.298828125
13.164,324,3147,1034,1880,-0.7017822265625,0.1351318359375,-0.1800537109375
13.175,326,3147,1026,2100,-0.5955810546875,0.119384765625,-0.115966796875
13.180,327,3147,1054,2372,-0.5955810546875,0.119384765625,-0.115966796875
13.196,336,3147,1276,2863,-0.4058837890625,0.45458984375,-0.0499267578125
13.202,336,3147,1390,3147,-0.1517333984375,0.387451171875,0.0472412109375
13.211,342,3147,1524,3147,-0.1517333984375,0.387451171875,0.0472412109375
13.224,356,3147,1762,3147,-0.0947265625,0.4378662109375,0.0242919921875
13.242,360,3147,1905,3147,-0.46337890625,0.6478271484375,-0.321044921875
13.242,354,3147,1929,3147,-0.46337890625,0.6478271484375,-0.321044921875
13.271,359,3147,2018,3147,-1.2762451171875,1.0748291015625,-1.3338623046875
13.272,360,3147,2183,3147,-1.460205078125,1.21044921875,-1.5562744140625
13.272,363,3147,2503,3147,-1.460205078125,1.21044921875,-1.5562744140625
13.285,369,3147,2601,3147,-1.982421875,0.6585693359375,-0.844970703125
13.292,371,3147,2581,3147,-2.1898193359375,-0.187255859375,-0.1888427734375
13.301,371,3147,2510,3147,-2.1898193359375,-0.187255859375,-0.1888427734375
13.314,361,3147,2492,3147,-1.1961669921875,-0.147705078125,0.1302490234375
13.322,365,3147,2490,3147,-0.904541015625,0.8294677734375,-0.460693359375
13.330,364,3147,2463,3147,-0.904541015625,0.8294677734375,-0.460693359375
13.361,363,3147,2314,3147,-1.4580078125,1.2130126953125,-0.91455078125
13.361,364,3147,2141,3147,-1.4580078125,1.2130126953125,-0.91455078125
13.362,361,3147,2010,3147,-1.4456787109375,0.5777587890625,-0.536376953125
13.374,356,3147,1794,3147,-0.8572998046875,0.282958984375,-0.1861572265625
13.382,359,3147,1697,3147,-0.8572998046875,0.282958984375,-0.1861572265625
13.390,348,3147,1613,3147,-0.6348876953125,0.353271484375,-0.239013671875
13.404,346,3147,1429,3106,-0.5135498046875,0.2408447265625,-0.2701416015625
13.412,344,3147,1373,2813,-0.5135498046875,0.2408447265625,-0.2701416015625
13.420,342,3147,1357,2677,-0.58349609375,0.208251953125,-0.256103515625
13.434,336,3147,1290,2093,-0.7838134765625,0.1712646484375,-0.1710205078125
13.451,332,3147,1239,1803,-0.7838134765625,0.1712646484375,-0.1710205078125
13.452,330,3147,1191,1312,-0.8682861328125,0.08349609375,-0.211181640625
13.476,328,3147,1081,644,-0.7799072265625,0.0755615234375,-0.232666015625
13.476,328,3147,998,411,-0.7799072265625,0.0755615234375,-0.232666015625
13.481,324,2809,996,401,-0.6826171875,0.1544189453125,-0.2598876953125
13.494,322,2277,986,385,-0.6031494140625,0.46875,-0.3382568359375
13.502,324,2105,991,381,-0.6031494140625,0.46875,-0.3382568359375
13.511,321,1908,971,371,-0.569580078125,0.56640625,-0.3372802734375
13.524,321,1748,943,364,-0.54736328125,0.44384765625,-0.3251953125
13.532,321,2061,987,376,-0.54736328125,0.44384765625,-0.3251953125
13.553,322,2354,987,385,-0.53076171875,0.375732421875,-0.3404541015625
13.554,307,2963,1022,391,-0.6090087890625,0.338623046875,-0.3388671875
13.590,322,3147,1026,404,-0.6090087890625,0.338623046875,-0.3388671875
13.596,307,3147,1078,594,-0.6607666015625,0.2821044921875,-0.345947265625
13.596,324,3147,1091,1017,-0.67919921875,0.2098388671875,-0.327392578125
13.596,321,3147,1103,1266,-0.685791015625,0.1817626953125,-0.295166015625
13.620,325,3147,1107,1494,-0.7003173828125,0.20458984375,-0.2620849609375
13.626,330,3147,1131,2024,-0.689453125,0.2586669921875,-0.2470703125
13.627,334,3147,1149,2178,-0.6610107421875,0.3277587890625,-0.2589111328125
13.629,336,3147,1281,2399,-0.6260986328125,0.324462890625,-0.27587890625
13.648,346,3147,1548,2820,-0.58349609375,0.254150390625,-0.2598876953125
13.672,347,3147,1652,3106,-0.4896240234375,0.179443359375,-0.1673583984375
13.672,348,3147,1775,3147,-0.2908935546875,0.1290283203125,-0.0576171875
13.674,359,3147,1925,3147,-0.1405029296875,0.2236328125,0.014404296875
13.686,356,3147,2068,3147,-0.1990966796875,0.4315185546875,-0.0220947265625
13.690,351,3147,2268,3147,-0.4581298828125,0.6600341796875,-0.2076416015625
13.704,359,3147,2721,3147,-0.8284912109375,0.9046630859375,-0.563232421875
13.712,365,3147,2936,3147,-1.226806640625,1.1419677734375,-0.99072265625
13.720,371,3147,2919,3147,-1.7015380859375,1.2607421875,-1.2008056640625
13.736,372,3147,2963,3147,-2.274169921875,0.91748046875,-1.0830078125
13.742,373,3147,2993,3147,-2.5262451171875,0.074951171875,-0.566650390625
13.750,369,3147,2968,3147,-1.95703125,-0.4981689453125,0.08154296875
13.780,364,3147,2842,3147,-1.0098876953125,-0.220703125,0.129150390625
13.780,365,3147,2884,3147,-0.527099609375,0.599853515625,-0.467529296875
13.781,363,3147,2929,3147,-0.6845703125,1.2899169921875,-1.032958984375
13.794,361,3147,2848,3147,-1.1593017578125,1.295654296875,-1.1717529296875
13.802,364,3147,2713,3147,-1.5198974609375,0.7425537109375,-0.954833984375
13.810,362,3147,2587,3147,-1.52197265625,0.27197265625,-0.64404296875
13.824,360,3147,2296,3147,-1.2684326171875,0.163818359375,-0.4405517578125
13.832,359,3147,2129,3147,-0.98779296875,0.2371826171875,-0.33056640625
13.840,356,3147,2000,3147,-0.7584228515625,0.2982177734375,-0.1910400390625
13.857,354,3147,1889,2753,-0.581787109375,0.321533203125,-0.0828857421875
13.862,351,3147,1826,2421,-0.5252685546875,0.362060546875,-0.117919921875
13.885,347,3147,1742,2137,-0.59765625,0.407470703125,-0.17529296875
13.885,346,3147,1488,1340,-0.677490234375,0.3741455078125,-0.1541748046875
13.892,342,3147,1390,710,-0.70654296875,0.2171630859375,-0.1650390625
13.900,336,3143,1357,468,-0.7330322265625,0.0604248046875,-0.2298583984375
13.913,330,2379,1268,419,-0.759033203125,0.0386962890625,-0.26318359375
13.922,330,2242,1243,415,-0.759033203125,0.078857421875,-0.2861328125
13.930,328,2024,1182,404,-0.7637939453125,0.1251220703125,-0.33056640625
13.944,325,1569,1103,383,-0.7398681640625,0.20361328125,-0.3658447265625
13.963,323,1428,1073,383,-0.6531982421875,0.2799072265625,-0.380859375
13.963,323,1439,1081,378,-0.57470703125,0.330078125,-0.369873046875
13.982,319,1478,1064,375,-0.543212890625,0.343994140625,-0.34228515625
13.982,321,1627,1065,352,-0.546142578125,0.3270263671875,-0.325439453125
13.998,321,1761,1108,371,-0.5618896484375,0.32373046875,-0.325439453125
14.004,323,2303,1122,378,-0.565185546875,0.3499755859375,-0.3211669921875
14.012,323,2698,1108,376,-0.561279296875,0.382568359375,-0.2974853515625
14.022,323,3090,1126,377,-0.56884765625,0.3880615234375,-0.25244140625
14.034,324,3147,1132,689,-0.5634765625,0.3548583984375,-0.204345703125
14.042,324,3147,1157,1005,-0.5682373046875,0.3690185546875,-0.2139892578125
14.057,327,3147,1163,1146,-0.638671875,0.4769287109375,-0.271240234375
14.064,329,3147,1228,1597,-0.7147216796875,0.523193359375,-0.284912109375
14.092,332,3147,1331,1774,-0.7156982421875,0.4178466796875,-0.25927734375
14.092,336,3147,1447,2041,-0.68115234375,0.3118896484375,-0.2493896484375
14.094,336,3147,1683,2398,-0.6390380859375,0.31640625,-0.2705078125
14.102,348,3147,1773,2662,-0.5518798828125,0.343994140625,-0.29541015625
14.110,348,3147,1900,2876,-0.4361572265625,0.2806396484375,-0.2481689453125
14.124,351,3147,2118,3147,-0.3531494140625,0.1861572265625,-0.1204833984375
14.132,360,3147,2233,3147,-0.35205078125,0.213623046875,-0.029541015625
14.140,361,3147,2334,3147,-0.4654541015625,0.445556640625,-0.1507568359375
14.159,361,3147,2498,3147,-0.7308349609375,0.8206787109375,-0.5845947265625
14.162,362,3147,2673,3147,-1.1119384765625,1.0736083984375,-1.2376708984375
14.170,364,3147,2842,3147,-1.5511474609375,1.015869140625,-1.7691650390625
14.201,361,3147,2940,3147,-2.0308837890625,0.75146484375,-1.7030029296875
14.202,371,3147,2943,3147,-2.2330322265625,0.2568359375,-0.8878173828125
14.202,371,3147,2876,3147,-1.786865234375,-0.263671875,0.0758056640625
14.213,364,3147,2803,3147,-1.098876953125,-0.180419921875,0.3739013671875
14.222,369,3147,2854,3147,-0.765380859375,0.5400390625,-0.153564453125
14.230,364,3147,2859,3147,-0.8890380859375,1.330322265625,-0.9259033203125
14.244,363,3147,2713,3147,-1.2305908203125,1.516357421875,-1.2716064453125
14.252,363,3147,2503,3147,-1.4423828125,0.9600830078125,-1.0863037109375
14.263,361,3147,2280,3147,-1.4423828125,0.9600830078125,-1.0863037109375
14.279,356,3147,2091,3147,-1.22802734375,0.056396484375,-0.299072265625
14.310,354,3147,1929,3087,-0.9581298828125,0.0264892578125,-0.069091796875
14.311,354,3147,1815,2770,-0.9581298828125,0.0264892578125,-0.069091796875
14.311,347,3147,1562,2210,-0.6446533203125,0.0958251953125,0.0413818359375
14.313,338,3147,1468,1897,-0.5670166015625,0.197998046875,0.0936279296875
14.320,338,3147,1355,1441,-0.5670166015625,0.197998046875,0.0936279296875
14.334,333,3147,1254,424,-0.5994873046875,0.313232421875,-0.08251953125
14.344,330,2645,1175,414,-0.6568603515625,0.2239990234375,-0.3016357421875
14.350,328,2194,1097,411,-0.6568603515625,0.2239990234375,-0.3016357421875
14.364,323,1529,1014,414,-0.666259765625,0.2574462890625,-0.4991455078125
14.372,323,1222,989,399,-0.7017822265625,0.358642578125,-0.486572265625
14.394,318,1078,946,364,-0.7017822265625,0.358642578125,-0.486572265625
14.395,315,827,917,348,-0.6124267578125,0.2279052734375,-0.329833984375
14.403,317,806,869,348,-0.57421875,0.2052001953125,-0.3145751953125
14.412,315,800,854,342,-0.57421875,0.2052001953125,-0.3145751953125
14.423,316,849,874,342,-0.594482421875,0.427490234375,-0.3255615234375
14.432,315,922,897,346,-0.5958251953125,0.4716796875,-0.270751953125
14.440,315,1078,899,346,-0.5958251953125,0.4716796875,-0.270751953125
14.454,316,1480,951,355,-0.584716796875,0.3021240234375,-0.182373046875
14.467,318,1862,984,364,-0.626220703125,0.2423095703125,-0.2132568359375
14.470,321,2207,1003,373,-0.626220703125,0.2423095703125,-0.2132568359375
14.488,319,2624,1063,378,-0.75341796875,0.2720947265625,-0.310302734375
14.496,318,2974,1098,378,-0.75341796875,0.2720947265625,-0.310302734375
14.513,323,3147,1117,388,-0.7607421875,0.249755859375,-0.31103515625
14.514,308,3147,1137,858,-0.7093505859375,0.123779296875,-0.2098388671875
14.524,329,3147,1143,1149,-0.7093505859375,0.123779296875,-0.2098388671875
14.530,336,3147,1123,1552,-0.64013671875,0.0313720703125,-0.117919921875
14.543,336,3147,1386,2233,-0.5030517578125,0.1484375,-0.024658203125
14.552,344,3147,1536,2567,-0.5030517578125,0.1484375,-0.024658203125
14.560,354,3147,1768,2858,-0.35888671875,0.302734375,-0.0020751953125
14.574,359,3147,2152,3147,-0.1357421875,0.58203125,-0.2252197265625
14.598,364,3147,2292,3147,-0.1357421875,0.58203125,-0.2252197265625
14.598,378,3147,2400,3147,-0.2506103515625,0.6949462890625,-0.5633544921875
14.607,364,3147,2571,3147,-1.0831298828125,1.1075439453125,-1.425537109375
14.620,370,3147,2708,3147,-1.0831298828125,1.1075439453125,-1.425537109375
14.620,371,3147,2837,3147,-1.509521484375,1.170654296875,-1.5657958984375
14.637,371,3147,2827,3147,-2.351806640625,0.3779296875,-0.897216796875
14.642,369,3147,2898,3147,-2.351806640625,0.3779296875,-0.897216796875
14.650,373,3147,2916,3147,-2.3505859375,-0.38720703125,-0.1590576171875
14.664,362,3147,2886,3147,-0.9544677734375,-0.12158203125,0.461181640625
14.672,363,3147,2881,3147,-0.9544677734375,-0.12158203125,0.461181640625
14.680,364,3147,2848,3147,-0.7197265625,0.788818359375,-0.0399169921875
14.705,363,3147,2679,3147,-0.9356689453125,1.349853515625,-0.5799560546875
14.705,363,3147,2611,3147,-1.3385009765625,1.18359375,-0.8062744140625
14.710,361,3147,2514,3147,-1.5322265625,0.6092529296875,-0.7420654296875
14.724,360,3147,2223,3147,-1.3516845703125,0.2720947265625,-0.5975341796875
14.732,360,3147,2058,3135,-1.050537109375,0.2557373046875,-0.4771728515625
14.740,359,3147,1847,2928,-0.8460693359375,0.2794189453125,-0.3616943359375
14.754,351,3147,1572,2368,-0.720703125,0.241943359375,-0.275634765625
14.762,348,3147,1494,2026,-0.6527099609375,0.2386474609375,-0.245361328125
14.776,346,3147,1439,1762,-0.622802734375,0.3009033203125,-0.1923828125
14.784,338,3147,1387,1231,-0.622314453125,0.335205078125,-0.0477294921875
14.792,334,3147,1341,780,-0.6614990234375,0.254638671875,0.0838623046875
14.800,328,3147,1251,497,-0.7213134765625,0.093505859375,0.043701171875
14.821,328,2668,1157,493,-0.753662109375,0.027099609375,-0.118408203125
14.831,326,2404,1136,447,-0.742431640625,0.080322265625,-0.2913818359375
14.831,325,1989,1025,441,-0.752197265625,0.1298828125,-0.43408203125
14.844,323,1693,958,409,-0.771728515625,0.17138671875,-0.4912109375
14.852,323,1575,933,389,-0.71435546875,0.2052001953125,-0.45458984375
14.862,321,1474,899,386,-0.6265869140625,0.23388671875,-0.375244140625
14.876,321,1348,902,369,-0.589599609375,0.3018798828125,-0.32568359375
14.883,321,1374,869,371,-0.6025390625,0.3995361328125,-0.3419189453125
14.906,318,1402,899,371,-0.61181640625,0.4749755859375,-0.3775634765625
14.907,318,1642,907,371,-0.592041015625,0.5244140625,-0.3887939453125
14.915,318,1850,918,376,-0.6014404296875,0.564208984375,-0.3740234375
14.920,313,2032,946,377,-0.6474609375,0.536865234375,-0.3577880859375
14.937,321,2308,976,385,-0.6866455078125,0.4200439453125,-0.3553466796875
14.944,319,2424,999,388,-0.7181396484375,0.270263671875,-0.35400390625
14.950,319,2691,1029,401,-0.7646484375,0.1363525390625,-0.3282470703125
14.964,321,3147,1043,456,-0.818359375,0.0704345703125,-0.2696533203125
14.984,321,3147,1067,711,-0.828857421875,0.09375,-0.213134765625
14.984,322,3147,1079,1017,-0.7928466796875,0.1986083984375,-0.1953125
14.994,324,3147,1091,1462,-0.723388671875,0.2978515625,-0.1995849609375
15.012,327,3147,1123,1813,-0.5902099609375,0.2813720703125,-0.1900634765625
15.012,342,3147,1188,2128,-0.4193115234375,0.2177734375,-0.1231689453125
15.024,347,3147,1622,2704,-0.24462890625,0.24365234375,-0.0264892578125
15.032,354,3147,1865,3092,-0.0892333984375,0.425048828125,-0.025146484375
15.046,359,3147,2037,3147,-0.0740966796875,0.7037353515625,-0.2135009765625
15.054,361,3147,2244,3147,-0.2767333984375,0.84716796875,-0.5518798828125
15.062,361,3147,2247,3147,-0.65771484375,0.809326171875,-0.917724609375
15.070,361,3147,2375,3147,-1.0987548828125,0.7703857421875,-1.1910400390625
15.083,372,3147,2486,3147,-1.537109375,0.7822265625,-1.348388671875
15.092,371,3147,2538,3147,-2.1116943359375,0.7044677734375,-1.3397216796875
15.104,364,3147,2665,3147,-2.640869140625,0.12255859375,-0.8828125
15.114,361,3147,2726,3147,-2.3673095703125,-0.7088623046875,0.0753173828125
15.122,361,3147,2664,3147,-1.38671875,-0.74365234375,0.80859375
15.131,360,3147,2585,3147,-0.63427734375,0.162353515625,0.637939453125
15.150,361,3147,2579,3147,-0.44970703125,1.2088623046875,-0.105224609375
15.152,354,3147,2530,3147,-0.7349853515625,1.5689697265625,-0.726318359375
15.161,361,3147,2449,3147,-1.218994140625,1.0543212890625,-0.9195556640625
15.174,360,3147,2249,3147,-1.4837646484375,0.33642578125,-0.7908935546875
15.186,359,3147,2083,3147,-1.3885498046875,-0.013427734375,-0.5828857421875
15.190,357,3147,1951,3147,-1.1484375,-0.019775390625,-0.40283203125
15.211,354,3147,1794,3147,-0.950927734375,0.122802734375,-0.310791015625
15.213,352,3147,1664,2965,-0.85791015625,0.292236328125,-0.339111328125
15.224,351,3147,1575,2599,-0.8685302734375,0.4376220703125,-0.387451171875
15.228,351,3147,1483,2230,-0.8685302734375,0.4376220703125,-0.387451171875
15.244,343,3147,1369,1561,-0.853515625,0.333251953125,-0.19287109375
15.250,336,3147,1308,1018,-0.801025390625,0.126708984375,-0.0384521484375
15.264,328,2876,1209,564,-0.772705078125,-0.0205078125,0.0245361328125
15.272,328,2445,1148,468,-0.7503662109375,-0.0638427734375,-0.003662109375
15.288,324,1967,1116,456,-0.7197265625,-0.017578125,-0.098876953125
15.294,325,1478,992,382,-0.6964111328125,0.0872802734375,-0.23291015625
15.302,316,1274,994,371,-0.669921875,0.2232666015625,-0.344482421875
15.320,319,1105,934,363,-0.632080078125,0.3447265625,-0.406982421875
15.325,316,803,894,347,-0.603271484375,0.430419921875,-0.4351806640625
15.332,315,799,872,345,-0.5869140625,0.4801025390625,-0.4439697265625
15.340,316,820,826,346,-0.5679931640625,0.4866943359375,-0.458251953125
15.354,317,867,865,345,-0.554443359375,0.4703369140625,-0.47265625
15.362,317,872,890,351,-0.5699462890625,0.4481201171875,-0.4407958984375
15.370,316,912,902,346,-0.608154296875,0.3955078125,-0.351806640625
15.388,318,1236,968,356,-0.6490478515625,0.3017578125,-0.2740478515625
15.393,318,1531,987,364,-0.6956787109375,0.20556640625,-0.2537841796875
15.428,319,1874,999,369,-0.6956787109375,0.20556640625,-0.2537841796875
15.428,321,2102,1063,378,-0.755859375,0.1595458984375,-0.263916015625
15.428,322,2498,1115,388,-0.7462158203125,0.188232421875,-0.2459716796875
15.430,322,2864,1157,416,-0.7462158203125,0.188232421875,-0.2459716796875
15.444,328,3147,1172,698,-0.6807861328125,0.1478271484375,-0.1715087890625
15.452,334,3147,1201,1079,-0.6103515625,0.0765380859375,-0.171630859375
15.460,337,3147,1231,1486,-0.6103515625,0.0765380859375,-0.171630859375
15.474,346,3147,1552,2087,-0.5081787109375,0.3704833984375,-0.2191162109375
15.482,352,3147,1826,2484,-0.4075927734375,0.511962890625,-0.1700439453125
15.492,356,3147,2001,2769,-0.4075927734375,0.511962890625,-0.1700439453125
15.510,357,3147,2309,3147,-0.2049560546875,0.4862060546875,-0.0738525390625
15.519,330,3147,2458,3147,-0.36474609375,0.5582275390625,-0.18896484375
15.520,345,3147,2601,3147,-0.36474609375,0.5582275390625,-0.18896484375
15.538,369,3147,2760,3147,-1.203125,0.8619384765625,-0.8662109375
15.542,370,3147,2925,3147,-1.7711181640625,0.8709716796875,-1.1239013671875
15.550,373,3147,2944,3147,-1.7711181640625,0.8709716796875,-1.1239013671875
15.564,364,3147,3084,3147,-2.700927734375,-0.1234130859375,-0.80859375
15.576,364,3147,3093,3147,-2.1500244140625,-0.5972900390625,-0.0103759765625
15.595,363,3147,3015,3147,-2.1500244140625,-0.5972900390625,-0.0103759765625
15.596,346,3147,2912,3147,-0.4027099609375,0.564453125,0.224365234375
15.602,363,3147,2948,3147,-0.5316162109375,1.328369140625,-0.4718017578125
15.614,363,3147,2943,3147,-0.5316162109375,1.328369140625,-0.4718017578125
15.637,362,3147,2798,3147,-1.4832763671875,0.9349365234375,-0.9510498046875
15.637,364,3147,2677,3147,-1.4832763671875,0.9349365234375,-0.9510498046875
15.640,361,3147,2532,3147,-1.5748291015625,0.3653564453125,-0.7398681640625
15.654,359,3147,2259,3147,-1.076416015625,0.185302734375,-0.427978515625
15.662,359,3147,2144,3147,-1.076416015625,0.185302734375,-0.427978515625
15.670,355,3147,1994,2973,-0.84326171875,0.2608642578125,-0.2742919921875
15.684,348,3147,1783,2534,-0.635986328125,0.2965087890625,-0.1236572265625
15.696,348,3147,1698,2291,-0.635986328125,0.2965087890625,-0.1236572265625
15.700,347,3147,1580,1954,-0.7041015625,0.315185546875,-0.1097412109375
15.714,344,3147,1447,1345,-0.8133544921875,0.129638671875,-0.026611328125
15.722,344,3147,1399,938,-0.8133544921875,0.129638671875,-0.026611328125
15.743,338,3147,1328,666,-0.817626953125,0.0030517578125,-0.04736328125
15.771,331,2925,1224,453,-0.7545166015625,0.0911865234375,-0.1702880859375
15.776,331,2534,1184,440,-0.7545166015625,0.0911865234375,-0.1702880859375
15.776,330,2325,1123,431,-0.6893310546875,0.18017578125,-0.2735595703125
15.780,329,1850,1042,413,-0.6048583984375,0.35888671875,-0.4249267578125
15.789,329,1761,1045,404,-0.6048583984375,0.35888671875,-0.4249267578125
15.790,328,1636,1010,409,-0.5882568359375,0.4381103515625,-0.425048828125
15.804,327,1739,1018,411,-0.6094970703125,0.480712890625,-0.374755859375
15.827,324,1878,1039,416,-0.6094970703125,0.480712890625,-0.374755859375
15.828,310,2047,1055,423,-0.626220703125,0.424072265625,-0.338623046875
15.836,326,2517,1078,445,-0.637939453125,0.3587646484375,-0.3162841796875
15.844,324,2749,1097,458,-0.656494140625,0.3292236328125,-0.3133544921875
15.850,327,2876,1137,470,-0.69580078125,0.31591796875,-0.303466796875
15.864,328,3147,1167,495,-0.7249755859375,0.2421875,-0.264404296875
15.876,328,3147,1191,793,-0.7137451171875,0.1357421875,-0.204833984375
15.880,338,3147,1213,1095,-0.68115234375,0.0938720703125,-0.1607666015625
15.904,333,3147,1236,1603,-0.65625,0.134033203125,-0.14990234375
15.905,334,3147,1241,1908,-0.6212158203125,0.203369140625,-0.170166015625
15.910,345,3147,1450,2110,-0.5775146484375,0.2684326171875,-0.2171630859375
15.933,348,3147,1829,2601,-0.5594482421875,0.3284912109375,-0.221435546875
15.933,355,3147,2035,2876,-0.51904296875,0.310791015625,-0.1470947265625
15.940,359,3147,2207,3143,-0.427001953125,0.23974609375,-0.02880859375
15.954,360,3147,2422,3147,-0.3778076171875,0.32373046875,0.0831298828125
15.962,362,3147,2622,3147,-0.4168701171875,0.5601806640625,0.0970458984375
15.970,361,3147,2808,3147,-0.552001953125,0.7763671875,-0.080810546875
15.988,360,3147,2935,3147,-0.845458984375,0.90283203125,-0.5013427734375
15.992,361,3147,2993,3147,-1.187744140625,0.94091796875,-1.0404052734375
16.011,371,3147,2981,3147,-1.5108642578125,0.81884765625,-1.4833984375
16.029,373,3147,3012,3147,-1.9158935546875,0.532958984375,-1.5
16.030,371,3147,3033,3147,-2.2008056640625,0.1439208984375,-0.929443359375
16.033,370,3147,3039,3147,-1.91357421875,-0.256591796875,-0.1785888671875
16.044,369,3147,3042,3147,-1.255859375,-0.1839599609375,0.1075439453125
16.052,371,3147,3064,3147,-0.8736572265625,0.49755859375,-0.2593994140625
16.060,371,3147,3025,3147,-0.9832763671875,1.232421875,-0.7554931640625
16.074,369,3147,2876,3147,-1.3441162109375,1.3809814453125,-0.884765625
16.082,364,3147,2759,3147,-1.580322265625,0.8831787109375,-0.677734375
16.090,365,3147,2647,3147,-1.48193359375,0.375,-0.4222412109375
16.109,363,3147,2333,3147,-1.1156005859375,0.213623046875,-0.2894287109375
16.112,361,3147,2133,3147,-0.7733154296875,0.236083984375,-0.2183837890625
16.127,359,3147,1934,3147,-0.57080078125,0.228515625,-0.1221923828125
16.146,356,3147,1642,2704,-0.473388671875,0.1480712890625,-0.06982421875
16.146,351,3147,1564,2359,-0.5103759765625,0.1309814453125,-0.0697021484375
16.150,348,3147,1529,2093,-0.6490478515625,0.226318359375,-0.0338134765625
16.164,342,3147,1399,1440,-0.79541015625,0.259033203125,-0.0177001953125
16.173,346,3147,1377,1029,-0.8817138671875,0.151123046875,-0.1094970703125
16.180,338,3147,1331,706,-0.857421875,0.0374755859375,-0.2508544921875
16.194,336,2900,1267,493,-0.7789306640625,0.03955078125,-0.3560791015625
16.236,336,2489,1234,497,-0.7515869140625,0.1527099609375,-0.4063720703125
16.237,332,2263,1103,485,-0.7354736328125,0.2508544921875,-0.3968505859375
16.238,330,1899,1067,439,-0.6641845703125,0.268798828125,-0.33544921875
16.238,330,1809,1083,424,-0.593505859375,0.311767578125,-0.279541015625
16.242,328,1835,1079,424,-0.5711669921875,0.4122314453125,-0.271240234375
16.254,328,2026,1083,419,-0.580810546875,0.4686279296875,-0.2835693359375
16.262,330,2233,1117,430,-0.59912109375,0.44873046875,-0.2769775390625
16.270,330,2544,1138,439,-0.6185302734375,0.421142578125,-0.2677001953125
16.284,328,2948,1184,458,-0.650634765625,0.41015625,-0.27734375
16.292,328,3095,1236,493,-0.6810302734375,0.3555908203125,-0.2861328125
16.300,331,3147,1265,514,-0.6922607421875,0.2296142578125,-0.2760009765625
16.329,334,3147,1330,852,-0.6939697265625,0.107421875,-0.2401123046875
16.336,334,3147,1362,1131,-0.7015380859375,0.0682373046875,-0.195556640625
16.336,336,3147,1355,1422,-0.710205078125,0.123046875,-0.1937255859375
16.351,342,3147,1474,1775,-0.7069091796875,0.2471923828125,-0.2545166015625
16.352,345,3147,1588,2083,-0.7081298828125,0.3494873046875,-0.2998046875
16.360,346,3147,1774,2368,-0.6629638671875,0.371337890625,-0.2510986328125
16.374,356,3147,2087,2808,-0.53076171875,0.341552734375,-0.1024169921875
16.382,359,3147,2235,3120,-0.3536376953125,0.2926025390625,0.039306640625
16.390,363,3147,2417,3147,-0.191162109375,0.3726806640625,0.09814453125
16.404,365,3147,2717,3147,-0.1279296875,0.615478515625,0.0147705078125
16.414,369,3147,2867,3147,-0.2598876953125,0.7957763671875,-0.2862548828125
16.431,371,3147,2996,3147,-0.61474609375,0.8465576171875,-0.722900390625
16.451,364,3147,3017,3147,-1.08203125,0.895751953125,-1.1309814453125
16.452,376,3147,3063,3147,-1.62744140625,0.9715576171875,-1.3616943359375
16.452,376,3147,3065,3147,-2.3023681640625,0.74609375,-1.2847900390625
16.464,371,3147,3147,3147,-2.8173828125,0.003173828125,-0.745361328125
16.472,371,3147,3147,3147,-2.43017578125,-0.7222900390625,0.140869140625
