time,compression0,compression1,compression2,compression3,accel_x,accel_y,accel_z
0.003,304,661,591,323,-0.704345703125,0.6094970703125,-0.3016357421875
0.012,304,651,605,323,-0.704345703125,0.6094970703125,-0.3016357421875
0.020,304,620,619,323,-0.7008056640625,0.618896484375,-0.31005859375
0.070,305,682,614,324,-0.69873046875,0.6298828125,-0.3260498046875
0.070,304,678,607,323,-0.69873046875,0.6298828125,-0.3260498046875
0.071,300,708,593,323,-0.699951171875,0.6300048828125,-0.3240966796875
0.085,304,698,624,323,-0.69580078125,0.6260986328125,-0.2921142578125
0.086,304,691,624,323,-0.69580078125,0.6260986328125,-0.2921142578125
0.100,306,675,645,323,-0.6937255859375,0.6219482421875,-0.27099609375
0.100,306,748,625,323,-0.6796875,0.6094970703125,-0.2637939453125
0.103,304,785,603,324,-0.6796875,0.6094970703125,-0.2637939453125
0.109,304,802,614,324,-0.669189453125,0.6141357421875,-0.2955322265625
0.123,304,907,616,323,-0.6671142578125,0.6224365234375,-0.351806640625
0.131,304,978,614,327,-0.6671142578125,0.6224365234375,-0.351806640625
0.140,304,998,646,324,-0.686767578125,0.635009765625,-0.34716796875
0.154,305,1014,591,324,-0.7098388671875,0.646728515625,-0.32763671875
0.167,306,1116,639,327,-0.7301025390625,0.6407470703125,-0.3067626953125
0.185,305,1202,685,328,-0.7452392578125,0.6141357421875,-0.2877197265625
0.201,305,1266,636,328,-0.752197265625,0.584716796875,-0.270263671875
0.203,307,1336,646,327,-0.75390625,0.5765380859375,-0.260009765625
0.204,306,1401,644,330,-0.74951171875,0.58984375,-0.2552490234375
0.214,305,1456,669,327,-0.739990234375,0.6087646484375,-0.258056640625
0.222,307,1494,678,330,-0.7325439453125,0.6221923828125,-0.268798828125
0.230,306,1536,673,330,-0.7294921875,0.629150390625,-0.280517578125
0.244,306,1652,680,330,-0.73046875,0.6339111328125,-0.287841796875
0.252,305,1742,684,330,-0.73291015625,0.633544921875,-0.2869873046875
0.267,307,1798,687,330,-0.734619140625,0.6282958984375,-0.2801513671875
0.274,306,1891,673,330,-0.7392578125,0.630859375,-0.2677001953125
0.299,308,1920,693,330,-0.74560546875,0.6402587890625,-0.251708984375
0.304,308,1989,689,331,-0.7496337890625,0.6435546875,-0.2425537109375
0.304,306,2012,698,332,-0.752197265625,0.6387939453125,-0.243408203125
0.312,308,2086,705,332,-0.7530517578125,0.6331787109375,-0.25048828125
0.319,308,2083,700,332,-0.7537841796875,0.6339111328125,-0.257080078125
0.333,308,2167,695,330,-0.7567138671875,0.636474609375,-0.258056640625
0.342,308,2203,702,332,-0.75830078125,0.6314697265625,-0.253662109375
0.350,308,2186,714,331,-0.7584228515625,0.6251220703125,-0.2457275390625
0.372,307,2139,720,334,-0.7568359375,0.6234130859375,-0.2359619140625
0.372,308,2153,723,316,-0.7501220703125,0.622802734375,-0.2279052734375
0.380,308,2135,723,332,-0.7431640625,0.619873046875,-0.2208251953125
0.407,310,2178,724,331,-0.739501953125,0.61474609375,-0.2130126953125
0.409,306,2192,725,336,-0.7362060546875,0.6107177734375,-0.2066650390625
0.410,308,2222,728,330,-0.7333984375,0.606689453125,-0.199951171875
0.424,306,2268,737,330,-0.734375,0.59765625,-0.19873046875
0.432,308,2284,720,334,-0.73974609375,0.591796875,-0.1998291015625
0.440,308,2279,731,334,-0.7489013671875,0.5889892578125,-0.1982421875
0.454,308,2348,731,333,-0.760009765625,0.5731201171875,-0.19482421875
0.462,308,2321,733,336,-0.7713623046875,0.5443115234375,-0.186767578125
0.472,309,2396,744,342,-0.7821044921875,0.5198974609375,-0.1768798828125
0.483,308,2621,750,333,-0.788330078125,0.519287109375,-0.1641845703125
0.519,308,2683,748,336,-0.7890625,0.5428466796875,-0.15185546875
0.519,310,2746,733,333,-0.7860107421875,0.5704345703125,-0.150146484375
0.520,306,2823,726,333,-0.7833251953125,0.590087890625,-0.15185546875
0.522,308,2842,713,336,-0.787109375,0.6005859375,-0.1534423828125
0.530,308,2928,706,336,-0.79052734375,0.599853515625,-0.158447265625
0.543,308,3110,712,334,-0.7913818359375,0.5946044921875,-0.153564453125
0.552,306,3125,688,334,-0.8004150390625,0.587646484375,-0.1444091796875
0.560,308,3144,683,334,-0.816650390625,0.5787353515625,-0.1502685546875
0.574,308,3125,721,332,-0.8310546875,0.5771484375,-0.164306640625
0.582,307,3072,702,334,-0.8408203125,0.577880859375,-0.176025390625
0.590,308,3051,689,333,-0.847900390625,0.5693359375,-0.1832275390625
0.619,307,2919,713,329,-0.85302734375,0.5631103515625,-0.1783447265625
0.619,306,2748,720,331,-0.8521728515625,0.5675048828125,-0.164794921875
0.620,306,2638,713,332,-0.8421630859375,0.569580078125,-0.1563720703125
0.633,305,2473,673,331,-0.82666015625,0.5606689453125,-0.1478271484375
0.642,306,2519,632,332,-0.8017578125,0.53076171875,-0.12890625
0.650,306,2581,634,332,-0.7630615234375,0.4891357421875,-0.10498046875
0.664,306,2677,617,332,-0.728759765625,0.47265625,-0.078125
0.676,306,2763,631,332,-0.7103271484375,0.4871826171875,-0.0740966796875
0.680,308,2818,633,328,-0.697509765625,0.5120849609375,-0.1021728515625
0.696,306,3073,621,330,-0.6826171875,0.5123291015625,-0.130615234375
0.715,306,3120,654,333,-0.661865234375,0.4619140625,-0.1435546875
0.716,308,3147,644,342,-0.640625,0.3905029296875,-0.1275634765625
0.724,306,3147,654,607,-0.6214599609375,0.3433837890625,-0.08642578125
0.731,307,3147,651,871,-0.5823974609375,0.3238525390625,-0.038330078125
0.743,308,3147,695,1134,-0.5145263671875,0.3087158203125,-0.0032958984375
0.754,308,3147,713,1627,-0.4176025390625,0.283203125,0.0107421875
0.762,310,3147,740,1864,-0.27294921875,0.2369384765625,0.0556640625
0.770,310,3147,740,2058,-0.0947265625,0.200927734375,0.167236328125
0.784,316,3147,951,2465,0.0513916015625,0.2022705078125,0.321533203125
0.795,322,3147,1093,2659,0.03759765625,0.3106689453125,0.458251953125
0.800,323,3147,1123,2872,-0.1956787109375,0.5836181640625,0.453857421875
0.818,344,3147,1120,3064,-0.5906982421875,0.963623046875,0.220947265625
0.822,348,3147,1220,3147,-1.1800537109375,1.3580322265625,-0.3123779296875
0.830,356,3147,1341,3147,-1.1800537109375,1.3580322265625,-0.3123779296875
0.843,359,3147,1434,3147,-2.4608154296875,1.3671875,-1.12060546875
0.857,359,3147,1496,3147,-2.491943359375,0.8258056640625,-0.690185546875
0.860,356,3147,1488,3147,-2.491943359375,0.8258056640625,-0.690185546875
0.881,356,3147,1397,3147,-1.13671875,0.1400146484375,0.056396484375
0.882,354,3147,1400,3147,-0.671875,0.7476806640625,-0.0264892578125
0.890,346,3147,1399,3147,-0.671875,0.7476806640625,-0.0264892578125
0.910,347,3147,1287,3147,-1.0614013671875,1.5162353515625,-0.30859375
0.912,354,3147,1220,3147,-1.48974609375,1.25390625,-0.258544921875
0.923,346,3147,1146,3106,-1.48974609375,1.25390625,-0.258544921875
0.933,338,3147,1043,2820,-1.4052734375,0.673583984375,0.0103759765625
0.941,332,3147,960,2590,-1.1043701171875,0.5089111328125,0.078125
0.950,328,3147,917,2347,-1.1043701171875,0.5089111328125,0.078125
0.969,321,3147,897,1908,-0.5872802734375,0.3973388671875,0.0272216796875
0.971,318,3147,891,1681,-0.5106201171875,0.34375,-0.0223388671875
0.983,316,3147,841,1338,-0.5106201171875,0.34375,-0.0223388671875
0.993,313,3147,864,470,-0.5762939453125,0.2989501953125,-0.1324462890625
1.011,310,3126,871,338,-0.6021728515625,0.2308349609375,-0.0753173828125
1.014,310,2840,865,336,-0.6021728515625,0.2308349609375,-0.0753173828125
1.037,312,2396,818,330,-0.691162109375,0.0933837890625,0.0072021484375
1.038,312,2024,816,334,-0.7183837890625,0.1866455078125,0.0050048828125
1.041,307,1759,816,332,-0.7183837890625,0.1866455078125,0.0050048828125
1.054,308,1202,816,328,-0.7069091796875,0.41357421875,-0.0604248046875
1.063,310,1108,816,330,-0.721435546875,0.410400390625,-0.0556640625
1.071,306,1055,794,330,-0.721435546875,0.410400390625,-0.0556640625
1.090,310,1115,837,330,-0.7105712890625,0.4219970703125,0.0439453125
1.093,308,1131,799,328,-0.691162109375,0.43017578125,0.0509033203125
1.114,308,1204,811,329,-0.691162109375,0.43017578125,0.0509033203125
1.122,310,1306,801,328,-0.6796875,0.398193359375,0.0107421875
1.123,308,1330,814,328,-0.6746826171875,0.3787841796875,-0.0096435546875
1.137,309,1598,826,328,-0.6746826171875,0.3787841796875,-0.0096435546875
1.145,308,1864,820,330,-0.6715087890625,0.3546142578125,-0.0615234375
1.153,308,2039,814,330,-0.6988525390625,0.387939453125,-0.097900390625
1.161,309,2243,806,331,-0.6988525390625,0.387939453125,-0.097900390625
1.174,308,2652,801,336,-0.774658203125,0.42138671875,-0.157958984375
1.189,311,3101,811,332,-0.774658203125,0.42138671875,-0.157958984375
1.191,294,3147,841,555,-0.7529296875,0.3367919921875,-0.137451171875
1.207,308,3147,816,1173,-0.5072021484375,0.197998046875,0.052734375
1.220,313,3147,813,1370,-0.5072021484375,0.197998046875,0.052734375
1.220,313,3147,782,1624,-0.326171875,0.19189453125,0.1873779296875
1.241,321,3147,799,2102,0.079833984375,0.316162109375,0.200927734375
1.243,324,3147,975,2394,0.079833984375,0.316162109375,0.200927734375
1.251,325,3147,1029,2611,0.179443359375,0.5672607421875,0.213134765625
1.264,345,3147,1083,2984,-0.3902587890625,0.8612060546875,0.1722412109375
1.272,351,3147,1224,3094,-0.3902587890625,0.8612060546875,0.1722412109375
1.280,357,3147,1340,3147,-0.9808349609375,1.067626953125,0.0628662109375
1.294,371,3147,1462,3147,-2.41357421875,1.0062255859375,-0.2979736328125
1.309,371,3147,1494,3147,-2.41357421875,1.0062255859375,-0.2979736328125
1.311,364,3147,1452,3147,-2.8726806640625,0.5587158203125,-0.4971923828125
1.326,361,3147,1422,3147,-1.4246826171875,0.323486328125,-0.1766357421875
1.332,359,3147,1382,3147,-1.4246826171875,0.323486328125,-0.1766357421875
1.341,356,3147,1398,3147,-0.6134033203125,0.8165283203125,0.020263671875
1.354,355,3147,1331,3147,-0.9322509765625,1.3162841796875,-0.1146240234375
1.362,354,3147,1278,3147,-0.9322509765625,1.3162841796875,-0.1146240234375
1.371,348,3147,1223,3147,-1.4422607421875,1.186279296875,-0.11572265625
1.384,344,3147,1078,3095,-1.7091064453125,0.9300537109375,-0.11279296875
1.395,338,3147,972,2875,-1.6873779296875,0.7235107421875,-0.0872802734375
1.402,334,3147,966,2587,-1.4814453125,0.62060546875,-0.0567626953125
1.432,323,3147,999,1987,-1.17333984375,0.5816650390625,-0.004150390625
1.433,321,3147,959,1762,-0.8441162109375,0.5294189453125,0.0655517578125
1.433,316,3147,939,1313,-0.5572509765625,0.4150390625,0.13330078125
1.444,315,3147,963,401,-0.3997802734375,0.3035888671875,0.1346435546875
1.458,315,2728,990,343,-0.406005859375,0.2540283203125,0.075927734375
1.461,296,2111,963,336,-0.5035400390625,0.2293701171875,0.077880859375
1.475,313,1427,936,328,-0.6307373046875,0.1507568359375,0.072998046875
1.483,313,1095,922,334,-0.730224609375,0.07958984375,-0.022705078125
1.499,308,860,882,331,-0.7364501953125,0.103271484375,-0.1278076171875
1.505,309,654,793,326,-0.6815185546875,0.1861572265625,-0.186279296875
1.552,310,625,788,327,-0.642578125,0.280029296875,-0.17529296875
1.553,309,621,739,327,-0.6400146484375,0.33349609375,-0.111083984375
1.553,307,651,713,325,-0.6248779296875,0.33056640625,-0.0465087890625
1.564,304,684,707,324,-0.595947265625,0.332275390625,-0.007080078125
1.565,308,674,723,324,-0.5760498046875,0.38232421875,0.028076171875
1.565,308,695,738,328,-0.559814453125,0.4495849609375,0.068603515625
1.575,308,829,766,328,-0.562744140625,0.5135498046875,0.1031494140625
1.582,308,922,803,328,-0.579833984375,0.547607421875,0.1177978515625
1.590,306,1055,799,328,-0.5982666015625,0.5062255859375,0.0787353515625
1.605,308,1372,788,329,-0.6273193359375,0.4041748046875,-0.01318359375
1.612,309,1891,761,328,-0.656494140625,0.3114013671875,-0.0977783203125
1.633,308,2281,754,330,-0.65576171875,0.2845458984375,-0.1368408203125
1.634,310,3147,826,344,-0.6343994140625,0.34130859375,-0.1129150390625
1.646,309,3147,841,687,-0.5977783203125,0.426025390625,-0.0272216796875
1.652,313,3147,834,1069,-0.4986572265625,0.43408203125,0.0836181640625
1.671,316,3147,853,1580,-0.32470703125,0.3311767578125,0.1640625
1.672,310,3147,849,1882,-0.1595458984375,0.2451171875,0.194580078125
1.681,321,3147,942,2058,-0.0643310546875,0.276611328125,0.2242431640625
1.694,328,3147,1145,2432,-0.0748291015625,0.3603515625,0.2850341796875
1.704,333,3147,1178,2613,-0.2747802734375,0.4857177734375,0.2935791015625
1.710,347,3147,1241,2824,-0.681640625,0.714599609375,0.12548828125
1.732,359,3147,1472,3017,-1.2315673828125,1.0146484375,-0.1038818359375
1.737,363,3147,1569,3095,-1.873046875,1.1309814453125,-0.2718505859375
1.740,371,3147,1634,3147,-2.4422607421875,0.8409423828125,-0.41162109375
1.760,370,3147,1628,3147,-2.62890625,0.4266357421875,-0.4090576171875
1.762,361,3147,1536,3147,-2.208740234375,0.3056640625,-0.2698974609375
1.779,364,3147,1501,3147,-1.3153076171875,0.5435791015625,-0.1134033203125
1.784,360,3147,1483,3147,-0.614990234375,0.964111328125,0.04052734375
1.792,359,3147,1443,3147,-0.5726318359375,1.2418212890625,0.107666015625
1.806,359,3147,1416,3147,-1.0093994140625,1.2469482421875,0.0823974609375
1.814,357,3147,1330,3147,-1.5048828125,1.055419921875,-0.0037841796875
1.832,347,3147,1253,3065,-1.7216796875,0.7708740234375,-0.1021728515625
1.833,345,3147,1149,2864,-1.6341552734375,0.5477294921875,-0.1241455078125
1.862,336,3147,963,2456,-1.374267578125,0.4586181640625,-0.0767822265625
1.862,330,3147,951,2209,-1.0623779296875,0.4844970703125,-0.0029296875
1.863,324,3147,966,1891,-0.776123046875,0.5096435546875,0.071044921875
2.257,318,3147,973,1148,-0.5711669921875,0.4744873046875,0.129638671875
2.266,317,3147,958,568,-0.501953125,0.406982421875,0.12744140625
2.275,316,2984,918,338,-0.55419921875,0.30419921875,0.09130859375
2.276,316,2021,909,346,-0.6497802734375,0.1898193359375,0.1080322265625
2.276,314,1681,913,336,-0.7275390625,0.0843505859375,0.1053466796875
2.276,313,1393,867,330,-0.7464599609375,0.023681640625,0.022705078125
2.276,308,1005,848,330,-0.703125,0.0406494140625,-0.0601806640625
2.276,310,913,849,328,-0.64306640625,0.1134033203125,-0.0924072265625
2.276,310,761,854,328,-0.5948486328125,0.21484375,-0.0645751953125
2.276,311,801,767,327,-0.5556640625,0.29638671875,-0.007568359375
2.276,312,816,780,327,-0.5318603515625,0.3504638671875,0.0355224609375
2.276,309,879,754,328,-0.5185546875,0.4134521484375,0.046875
2.276,308,861,725,323,-0.5064697265625,0.4693603515625,0.0338134765625
2.276,308,980,767,328,-0.5054931640625,0.483642578125,0.0054931640625
2.276,309,1109,778,328,-0.534912109375,0.468017578125,-0.0198974609375
2.277,308,1464,785,330,-0.5887451171875,0.4403076171875,-0.0499267578125
2.277,310,1730,792,332,-0.642578125,0.428955078125,-0.089599609375
2.277,310,2225,799,333,-0.6842041015625,0.4136962890625,-0.107421875
2.277,308,2624,813,334,-0.6842041015625,0.4136962890625,-0.107421875
2.277,312,3147,883,359,-0.7135009765625,0.343017578125,-0.0703125
2.277,314,3147,909,711,-0.693115234375,0.32275390625,0.0107421875
2.277,315,3147,891,1055,-0.693115234375,0.32275390625,0.0107421875
2.277,316,3147,944,1569,-0.560302734375,0.201904296875,0.0645751953125
2.277,318,3147,947,1877,-0.4761962890625,0.26806640625,0.0794677734375
2.277,324,3147,1064,2078,-0.4761962890625,0.26806640625,0.0794677734375
2.277,328,3147,1184,2435,-0.31298828125,0.5062255859375,0.2861328125
2.277,338,3147,1241,2559,-0.352294921875,0.52880859375,0.319091796875
2.277,347,3147,1382,2703,-0.352294921875,0.52880859375,0.319091796875
2.277,360,3147,1559,2966,-0.9501953125,0.77099609375,0.0654296875
2.277,371,3147,1602,3106,-1.468505859375,0.830078125,-0.099365234375
2.277,371,3147,1733,3147,-1.468505859375,0.830078125,-0.099365234375
2.278,372,3147,1891,3147,-2.19189453125,0.6318359375,-0.361083984375
2.278,375,3147,1931,3147,-2.19189453125,0.6318359375,-0.361083984375
2.278,375,3147,1895,3147,-2.0540771484375,0.6026611328125,-0.2943115234375
2.278,371,3147,1769,3147,-1.0091552734375,0.6422119140625,0.0242919921875
2.278,356,3147,1669,3147,-1.0091552734375,0.6422119140625,0.0242919921875
2.278,363,3147,1660,3147,-0.668212890625,0.8927001953125,0.0567626953125
2.278,359,3147,1533,3147,-1.0426025390625,1.099365234375,-0.2188720703125
2.278,356,3147,1477,3137,-1.505126953125,0.953369140625,-0.2557373046875
2.278,351,3147,1433,3017,-1.505126953125,0.953369140625,-0.2557373046875
2.278,346,3147,1251,2738,-1.711181640625,0.5078125,-0.0906982421875
2.285,343,3147,1145,2503,-1.446044921875,0.3695068359375,0.0411376953125
2.295,336,3147,1109,2178,-1.446044921875,0.3695068359375,0.0411376953125
2.346,328,3147,1014,1552,-0.802734375,0.447998046875,0.1861572265625
2.346,323,3147,986,1134,-0.802734375,0.447998046875,0.1861572265625
2.347,323,3147,1031,548,-0.61181640625,0.4412841796875,0.208740234375
2.347,318,2643,1012,345,-0.6044921875,0.26416015625,0.130615234375
2.347,300,2135,1029,344,-0.6044921875,0.26416015625,0.130615234375
2.376,315,1656,966,336,-0.6881103515625,0.18701171875,0.1123046875
2.385,314,936,922,332,-0.7484130859375,0.058349609375,-0.089111328125
2.386,308,816,883,330,-0.7484130859375,0.058349609375,-0.089111328125
2.387,296,765,800,329,-0.6907958984375,0.0775146484375,-0.1727294921875
2.406,313,682,820,327,-0.634033203125,0.1739501953125,-0.1629638671875
2.406,309,694,705,313,-0.603271484375,0.2813720703125,-0.1138916015625
2.426,311,698,695,328,-0.617431640625,0.364501953125,-0.0469970703125
2.434,311,712,765,328,-0.5992431640625,0.3953857421875,0.041015625
2.437,310,725,750,328,-0.5992431640625,0.3953857421875,0.041015625
2.447,308,691,748,324,-0.55078125,0.387451171875,0.0267333984375
2.488,310,788,777,332,-0.5015869140625,0.3514404296875,0.0125732421875
2.488,308,883,777,328,-0.5015869140625,0.3514404296875,0.0125732421875
2.488,310,932,816,332,-0.52734375,0.3414306640625,-0.0111083984375
2.488,312,1434,854,330,-0.5775146484375,0.3114013671875,-0.0870361328125
2.496,308,1895,872,334,-0.5775146484375,0.3114013671875,-0.0870361328125
2.507,313,2560,879,334,-0.586669921875,0.328857421875,-0.090576171875
2.596,316,3147,895,351,-0.6275634765625,0.455810546875,-0.0762939453125
2.596,316,3147,975,625,-0.6275634765625,0.455810546875,-0.0762939453125
2.596,318,3147,986,959,-0.6201171875,0.4820556640625,-0.033935546875
2.596,323,3147,957,1488,-0.570068359375,0.390380859375,0.0443115234375
2.597,327,3147,1092,1825,-0.493896484375,0.26123046875,0.101806640625
2.597,332,3147,1201,2161,-0.3848876953125,0.2225341796875,0.18115234375
2.597,346,3147,1283,2585,-0.3050537109375,0.2769775390625,0.343017578125
2.597,351,3147,1411,2824,-0.338134765625,0.3743896484375,0.5369873046875
2.597,362,3147,1504,2943,-0.534423828125,0.496337890625,0.5718994140625
2.605,371,3147,1675,3126,-0.9173583984375,0.633056640625,0.3243408203125
2.667,375,3147,1808,3147,-1.4005126953125,0.7252197265625,-0.0782470703125
2.667,376,3147,1918,3147,-1.87255859375,0.7359619140625,-0.4656982421875
2.667,378,3147,1996,3147,-2.1964111328125,0.7052001953125,-0.72412109375
2.676,378,3147,1943,3147,-2.2254638671875,0.71630859375,-0.6802978515625
2.676,378,3147,1890,3147,-1.9039306640625,0.7374267578125,-0.325927734375
2.677,375,3147,1693,3147,-1.25341796875,0.7076416015625,0.0950927734375
2.684,364,3147,1703,3147,-0.6895751953125,0.8653564453125,0.3182373046875
2.684,371,3147,1697,3147,-0.6298828125,1.1883544921875,0.1832275390625
2.695,364,3147,1561,3147,-1.049072265625,1.318359375,-0.084716796875
2.705,361,3147,1492,3147,-1.59814453125,1.0899658203125,-0.2313232421875
2.715,359,3147,1383,3061,-1.8482666015625,0.7027587890625,-0.2261962890625
2.725,348,3147,1226,2674,-1.738525390625,0.4635009765625,-0.110595703125
2.736,346,3147,1093,2364,-1.442138671875,0.4112548828125,-0.001708984375
2.745,338,3147,1025,1840,-1.0977783203125,0.447509765625,0.0775146484375
2.776,328,3147,963,1013,-0.8055419921875,0.4544677734375,0.1378173828125
2.776,328,3147,938,419,-0.619140625,0.38427734375,0.17822265625
2.785,322,2919,943,348,-0.5621337890625,0.2891845703125,0.16064453125
2.786,319,1973,963,342,-0.622802734375,0.2108154296875,0.09130859375
2.795,313,1398,922,334,-0.71728515625,0.1351318359375,0.0582275390625
2.834,315,923,841,336,-0.767578125,0.0408935546875,0.0146484375
2.846,306,725,750,327,-0.7452392578125,0.0074462890625,-0.0855712890625
2.847,313,780,711,331,-0.6634521484375,0.1136474609375,-0.138427734375
2.856,310,725,654,310,-0.59326171875,0.2767333984375,-0.1273193359375
2.856,313,634,683,329,-0.566650390625,0.381591796875,-0.10888671875
2.875,313,631,687,332,-0.5692138671875,0.40869140625,-0.0838623046875
2.895,313,654,692,331,-0.556640625,0.386962890625,-0.0550537109375
2.896,311,644,707,328,-0.5306396484375,0.3624267578125,-0.0518798828125
2.897,310,625,702,328,-0.5272216796875,0.3763427734375,-0.059326171875
2.905,308,646,728,327,-0.5382080078125,0.41015625,-0.0538330078125
2.916,309,639,777,328,-0.5780029296875,0.419677734375,-0.03466796875
2.936,308,693,762,314,-0.6251220703125,0.3779296875,-0.0166015625
2.937,308,683,785,328,-0.6478271484375,0.3111572265625,-0.0263671875
2.986,314,740,802,329,-0.65185546875,0.24853515625,-0.04931640625
2.987,310,933,788,330,-0.6510009765625,0.1959228515625,-0.066650390625
2.987,309,964,832,328,-0.65771484375,0.18017578125,-0.07275390625
3.014,314,1695,883,342,-0.67919921875,0.2315673828125,-0.0732421875
3.016,313,2246,922,332,-0.7171630859375,0.3419189453125,-0.08447265625
3.017,313,2888,942,336,-0.7652587890625,0.437744140625,-0.120361328125
3.017,317,3147,968,497,-0.79345703125,0.46728515625,-0.134521484375
3.018,319,3147,1005,721,-0.7509765625,0.4342041015625,-0.072265625
3.034,323,3147,1034,957,-0.634033203125,0.3843994140625,0.003173828125
3.037,331,3147,1271,1651,-0.4552001953125,0.3892822265625,0.067138671875
3.044,334,3147,1333,1959,-0.28125,0.4520263671875,0.1947021484375
3.086,346,3147,1294,2203,-0.225830078125,0.4852294921875,0.4146728515625
3.087,348,3147,1474,2648,-0.31103515625,0.4466552734375,0.626953125
3.087,363,3147,1615,2886,-0.5511474609375,0.388916015625,0.66748046875
3.087,371,3147,1691,2984,-0.9696044921875,0.3460693359375,0.4390869140625
3.095,377,3147,1850,3140,-1.461181640625,0.33837890625,0.0152587890625
3.096,378,3147,1968,3147,-1.9168701171875,0.4625244140625,-0.43701171875
3.115,382,3147,2060,3147,-2.2386474609375,0.6851806640625,-0.767578125
3.116,378,3147,2026,3147,-2.3077392578125,0.8245849609375,-0.794189453125
3.125,382,3147,1921,3147,-1.9451904296875,0.7568359375,-0.459716796875
3.136,382,3147,1811,3147,-1.1871337890625,0.6842041015625,0.0283203125
3.145,375,3147,1750,3147,-0.6295166015625,0.9102783203125,0.267333984375
3.177,372,3147,1739,3147,-0.65380859375,1.240234375,0.1243896484375
3.207,371,3147,1678,3147,-1.11181640625,1.3118896484375,-0.091552734375
3.207,364,3147,1580,3147,-1.6055908203125,1.0382080078125,-0.1905517578125
3.208,359,3147,1474,2991,-1.7763671875,0.6480712890625,-0.18212890625
3.215,356,3147,1390,2756,-1.6163330078125,0.4017333984375,-0.097900390625
3.227,348,3147,1191,2347,-1.2889404296875,0.32421875,0.01171875
3.245,346,3147,1091,1925,-0.9481201171875,0.3414306640625,0.10205078125
3.246,336,3147,1043,1464,-0.9481201171875,0.3414306640625,0.10205078125
3.246,329,3147,1024,725,-0.5545654296875,0.37109375,0.154052734375
3.246,327,3147,1014,359,-0.5560302734375,0.333984375,0.0989990234375
3.255,324,2689,1024,354,-0.5560302734375,0.333984375,0.0989990234375
3.286,321,2048,996,346,-0.73388671875,0.1947021484375,0.0313720703125
3.287,316,1686,966,345,-0.7635498046875,0.11865234375,0.0028076171875
3.287,316,1494,951,342,-0.7635498046875,0.11865234375,0.0028076171875
3.295,306,1104,882,334,-0.720703125,0.088623046875,-0.08740234375
3.305,315,947,832,332,-0.6796875,0.1331787109375,-0.0631103515625
3.316,313,813,772,334,-0.6796875,0.1331787109375,-0.0631103515625
3.325,313,737,763,334,-0.633544921875,0.2978515625,0.012939453125
3.387,310,749,774,330,-0.6031494140625,0.3834228515625,0.0426025390625
3.396,313,790,759,330,-0.6031494140625,0.3834228515625,0.0426025390625
3.404,311,872,800,328,-0.552734375,0.43115234375,0.0538330078125
3.405,311,934,818,333,-0.541748046875,0.4049072265625,0.0140380859375
3.407,313,968,846,332,-0.541748046875,0.4049072265625,0.0140380859375
3.415,318,1323,883,338,-0.6019287109375,0.3162841796875,-0.0657958984375
3.416,313,1660,869,334,-0.638916015625,0.2850341796875,-0.07080078125
3.416,313,2032,900,334,-0.638916015625,0.2850341796875,-0.07080078125
3.425,314,3047,963,346,-0.6533203125,0.249755859375,-0.056884765625
3.425,315,3147,943,484,-0.66845703125,0.2379150390625,-0.041748046875
3.465,316,3147,951,738,-0.66845703125,0.2379150390625,-0.041748046875
3.505,321,3147,968,1229,-0.5546875,0.2537841796875,0.0286865234375
3.506,323,3147,957,1595,-0.5546875,0.2537841796875,0.0286865234375
3.507,328,3147,1014,1914,-0.4171142578125,0.2587890625,0.06494140625
3.507,338,3147,1216,2410,-0.19287109375,0.339599609375,0.209716796875
3.514,348,3147,1340,2677,-0.19287109375,0.339599609375,0.209716796875
3.514,356,3147,1456,2940,-0.2205810546875,0.3697509765625,0.351806640625
3.547,369,3147,1669,3095,-0.9029541015625,0.5682373046875,0.3782958984375
3.564,371,3147,1748,3147,-0.9029541015625,0.5682373046875,0.3782958984375
3.565,371,3147,1862,3147,-1.3948974609375,0.6451416015625,0.1402587890625
3.575,378,3147,2035,3147,-2.07080078125,0.71533203125,-0.3577880859375
3.576,356,3147,2093,3147,-2.07080078125,0.71533203125,-0.3577880859375
3.587,382,3147,2085,3147,-2.1683349609375,0.759033203125,-0.43994140625
3.604,382,3147,1914,3147,-1.4366455078125,0.72265625,0.035400390625
3.605,370,3147,1786,3147,-1.4366455078125,0.72265625,0.035400390625
3.605,375,3147,1748,3147,-0.789794921875,0.822998046875,0.201416015625
3.606,375,3147,1664,3147,-0.7410888671875,1.2587890625,0.0323486328125
3.606,371,3147,1643,3147,-0.7410888671875,1.2587890625,0.0323486328125
3.615,371,3147,1560,3147,-1.222900390625,1.114013671875,-0.0316162109375
3.625,363,3147,1450,3147,-1.7359619140625,0.51806640625,0.00146484375
3.635,360,3147,1375,3147,-1.7359619140625,0.51806640625,0.00146484375
3.656,359,3147,1253,3104,-1.5753173828125,0.3857421875,0.0390625
3.657,344,3147,1108,2778,-1.3057861328125,0.3868408203125,0.041015625
3.665,344,3147,1000,2472,-1.03662109375,0.4705810546875,0.0194091796875
3.675,334,3147,1007,2087,-0.8375244140625,0.558349609375,0.006591796875
3.725,329,3147,988,1358,-0.7132568359375,0.5538330078125,0.023193359375
3.727,324,3147,1004,846,-0.640625,0.46484375,0.071044921875
3.735,323,3092,998,352,-0.6396484375,0.344482421875,0.0953369140625
3.735,318,2384,966,347,-0.7139892578125,0.218994140625,0.063232421875
3.755,318,1931,934,344,-0.7886962890625,0.125,0.0316162109375
3.756,316,1627,900,342,-0.810546875,0.0679931640625,-0.00830078125
3.757,315,999,788,328,-0.7796630859375,0.0579833984375,-0.0638427734375
3.764,315,802,806,324,-0.7105712890625,0.096435546875,-0.0738525390625
3.765,315,725,780,332,-0.635498046875,0.1702880859375,-0.0535888671875
3.815,313,617,725,328,-0.5684814453125,0.268798828125,-0.039306640625
3.817,310,631,706,331,-0.5162353515625,0.3443603515625,-0.01806640625
3.817,313,695,731,332,-0.48779296875,0.37060546875,0.0115966796875
3.824,313,754,737,330,-0.4722900390625,0.3857421875,0.03759765625
3.824,308,803,759,331,-0.4527587890625,0.4156494140625,0.060302734375
3.825,313,951,799,330,-0.4561767578125,0.43212890625,0.0694580078125
3.835,313,1306,818,332,-0.507080078125,0.418212890625,0.0557861328125
3.856,314,1547,835,331,-0.5792236328125,0.4066162109375,0.0108642578125
3.857,314,1870,815,313,-0.6561279296875,0.421875,-0.049560546875
3.920,313,2443,842,342,-0.7374267578125,0.4384765625,-0.090087890625
3.925,313,2861,853,332,-0.8095703125,0.42822265625,-0.1107177734375
3.925,316,3147,858,338,-0.851806640625,0.393310546875,-0.10888671875
3.926,316,3147,907,586,-0.86376953125,0.3526611328125,-0.08154296875
3.927,318,3147,902,922,-0.832763671875,0.2996826171875,-0.0498046875
3.927,318,3147,906,1178,-0.7564697265625,0.256103515625,-0.0341796875
3.927,324,3147,962,1689,-0.655029296875,0.2625732421875,-0.0162353515625
3.935,326,3147,1009,1936,-0.533203125,0.2777099609375,0.0452880859375
3.954,330,3147,1160,2218,-0.405029296875,0.2659912109375,0.1485595703125
3.955,344,3147,1226,2679,-0.26025390625,0.23779296875,0.2501220703125
3.965,351,3147,1331,2974,-0.13525390625,0.28369140625,0.342529296875
4.027,359,3147,1422,3147,-0.18017578125,0.47119140625,0.39697265625
4.027,370,3147,1652,3147,-0.51123046875,0.7017822265625,0.327392578125
4.035,376,3147,1704,3147,-1.0777587890625,0.831787109375,0.1363525390625
4.036,378,3147,1894,3147,-1.72509765625,0.8414306640625,-0.16162109375
4.037,378,3147,2050,3147,-2.2318115234375,0.744384765625,-0.4842529296875
4.045,383,3147,2057,3147,-2.411865234375,0.6192626953125,-0.6141357421875
4.045,382,3147,1912,3147,-2.1788330078125,0.602783203125,-0.435791015625
4.045,363,3147,1772,3147,-1.4952392578125,0.67529296875,-0.10791015625
4.057,376,3147,1681,3147,-0.772705078125,0.9222412109375,0.119140625
4.065,376,3147,1669,3147,-0.618408203125,1.301513671875,0.0845947265625
4.106,371,3147,1573,3147,-1.046875,1.478271484375,-0.0875244140625
4.135,361,3147,1477,3147,-1.55859375,1.2720947265625,-0.1519775390625
4.136,364,3147,1419,3147,-1.7579345703125,0.8551025390625,-0.0850830078125
4.137,354,3147,1231,2727,-1.6451416015625,0.527099609375,-0.006103515625
4.145,352,3147,1115,2421,-1.3597412109375,0.3936767578125,0.015869140625
4.146,344,3147,1079,1925,-1.0172119140625,0.3603515625,0.0308837890625
4.165,329,3147,1055,1214,-0.721435546875,0.2880859375,0.0616455078125
4.166,328,3147,1051,739,-0.52490234375,0.2039794921875,0.094482421875
4.167,324,3147,1029,360,-0.4620361328125,0.2132568359375,0.079345703125
4.196,321,2463,999,348,-0.528076171875,0.26220703125,0.03369140625
4.199,321,2063,958,345,-0.643798828125,0.2384033203125,0.0390625
4.200,316,1616,947,347,-0.7227783203125,0.1263427734375,0.0369873046875
4.216,316,1063,902,332,-0.7298583984375,0.0498046875,-0.019287109375
4.217,313,867,808,345,-0.6812744140625,0.113525390625,-0.0479736328125
4.245,311,766,813,332,-0.6295166015625,0.244873046875,-0.043701171875
4.246,315,721,744,334,-0.6171875,0.34521484375,-0.03125
4.246,315,707,694,334,-0.6151123046875,0.3677978515625,0.0023193359375
4.247,309,654,679,336,-0.59814453125,0.3280029296875,0.0361328125
4.271,313,667,687,330,-0.5621337890625,0.2958984375,0.0390625
4.337,313,702,705,328,-0.5321044921875,0.31787109375,0.017578125
4.341,310,761,739,331,-0.5404052734375,0.38330078125,0.0003662109375
4.381,313,918,803,332,-0.5762939453125,0.435302734375,-0.018798828125
4.426,300,1163,788,332,-0.6346435546875,0.457275390625,-0.05078125
4.426,315,1450,820,332,-0.6973876953125,0.4520263671875,-0.075927734375
4.427,313,1881,858,338,-0.7366943359375,0.4066162109375,-0.0821533203125
4.446,315,2255,891,316,-0.758056640625,0.339111328125,-0.0816650390625
4.447,313,2578,859,338,-0.7666015625,0.2890625,-0.094482421875
4.475,316,3147,902,401,-0.7474365234375,0.294189453125,-0.0921630859375
4.476,316,3147,976,660,-0.69189453125,0.3245849609375,-0.0609130859375
4.545,301,3147,986,934,-0.69189453125,0.3245849609375,-0.0609130859375
4.547,323,3147,957,1427,-0.560546875,0.275634765625,0.012939453125
4.555,328,3147,1034,1808,-0.5089111328125,0.262451171875,0.0391845703125
4.555,332,3147,1155,2026,-0.5089111328125,0.262451171875,0.0391845703125
4.556,346,3147,1185,2464,-0.3955078125,0.3753662109375,0.212646484375
4.557,345,3147,1289,2741,-0.4027099609375,0.4000244140625,0.3370361328125
4.577,359,3147,1341,2935,-0.4027099609375,0.4000244140625,0.3370361328125
4.580,365,3147,1555,3134,-0.8531494140625,0.676025390625,0.3048095703125
4.625,373,3147,1641,3147,-1.3011474609375,0.97265625,0.0252685546875
4.626,376,3147,1744,3147,-1.3011474609375,0.97265625,0.0252685546875
4.656,376,3147,1847,3147,-2.080078125,0.95654296875,-0.4583740234375
4.656,376,3147,1838,3147,-2.1553955078125,0.687255859375,-0.4852294921875
4.657,376,3147,1761,3147,-2.1553955078125,0.687255859375,-0.4852294921875
4.677,373,3147,1662,3147,-1.03564453125,0.2706298828125,-0.016845703125
4.687,371,3147,1590,3147,-0.6317138671875,0.6695556640625,0.1336669921875
4.726,372,3147,1596,3147,-0.6317138671875,0.6695556640625,0.1336669921875
4.726,371,3147,1561,3147,-1.1917724609375,1.3597412109375,-0.2294921875
4.735,365,3147,1543,3147,-1.5472412109375,1.163818359375,-0.2445068359375
4.736,363,3147,1430,3147,-1.5472412109375,1.163818359375,-0.2445068359375
4.737,359,3147,1344,2944,-1.443115234375,0.5712890625,-0.0201416015625
4.746,352,3147,1209,2548,-1.191650390625,0.4365234375,0.021728515625
4.757,348,3147,1050,2065,-1.191650390625,0.4365234375,0.021728515625
4.775,334,3147,999,1357,-0.7593994140625,0.3463134765625,0.0206298828125
4.784,330,3147,986,905,-0.7593994140625,0.3463134765625,0.0206298828125
4.825,327,3147,989,513,-0.615234375,0.2908935546875,0.0831298828125
4.826,323,2833,949,354,-0.6380615234375,0.22802734375,0.1207275390625
4.865,321,2437,900,357,-0.6380615234375,0.22802734375,0.1207275390625
4.866,317,2128,907,347,-0.693115234375,0.2120361328125,0.1119384765625
4.866,313,1456,887,336,-0.743896484375,0.1824951171875,-0.051025390625
4.867,313,1151,816,332,-0.743896484375,0.1824951171875,-0.051025390625
4.883,314,978,761,338,-0.7159423828125,0.2281494140625,-0.0882568359375
4.884,316,867,735,334,-0.65087890625,0.33544921875,-0.0994873046875
4.885,316,766,744,336,-0.65087890625,0.33544921875,-0.0994873046875
4.885,313,767,744,332,-0.6358642578125,0.3829345703125,-0.0782470703125
4.886,315,759,733,331,-0.57568359375,0.394287109375,-0.0150146484375
4.888,316,784,737,331,-0.57568359375,0.394287109375,-0.0150146484375
4.914,310,788,735,332,-0.5557861328125,0.3909912109375,-0.00390625
4.917,313,959,780,333,-0.5885009765625,0.3814697265625,-0.033447265625
4.924,313,1131,778,336,-0.5885009765625,0.3814697265625,-0.033447265625
4.925,313,1282,841,332,-0.62890625,0.3751220703125,-0.044921875
4.926,315,1789,900,336,-0.70166015625,0.2967529296875,-0.05126953125
4.936,315,2186,912,346,-0.70166015625,0.2967529296875,-0.05126953125
4.936,316,2505,927,344,-0.723876953125,0.2550048828125,-0.0445556640625
4.937,315,3047,949,344,-0.7476806640625,0.275390625,-0.06201171875
4.946,315,3147,932,579,-0.7694091796875,0.3311767578125,-0.1029052734375
4.946,321,3147,946,725,-0.7843017578125,0.37060546875,-0.1212158203125
4.946,323,3147,975,1093,-0.763671875,0.3724365234375,-0.07666015625
4.947,328,3147,1063,1404,-0.707763671875,0.335693359375,-0.004150390625
4.954,330,3147,1209,1746,-0.6629638671875,0.3309326171875,0.063720703125
4.957,338,3147,1260,2083,-0.59423828125,0.3804931640625,0.122314453125
5.037,347,3147,1328,2281,-0.4859619140625,0.450927734375,0.1669921875
5.047,354,3147,1348,2472,-0.4078369140625,0.538818359375,0.1993408203125
5.055,361,3147,1534,2840,-0.42822265625,0.638671875,0.21240234375
5.056,371,3147,1693,3012,-0.610107421875,0.719970703125,0.194091796875
5.057,371,3147,1819,3114,-0.9588623046875,0.7222900390625,0.1304931640625
5.066,374,3147,1954,3147,-1.357666015625,0.61328125,-0.0009765625
5.084,379,3147,2032,3147,-1.6728515625,0.4735107421875,-0.1602783203125
5.084,382,3147,2115,3147,-1.8104248046875,0.4029541015625,-0.26904296875
5.095,382,3147,2104,3147,-1.73046875,0.4739990234375,-0.2943115234375
5.103,382,3147,2063,3147,-1.5120849609375,0.68408203125,-0.2640380859375
5.104,382,3147,1968,3147,-1.227294921875,0.887451171875,-0.2000732421875
5.104,377,3147,1821,3147,-0.914306640625,0.981201171875,-0.09423828125
5.105,376,3147,1715,3147,-0.735595703125,0.9996337890625,-0.009521484375
5.105,375,3147,1741,3147,-0.799072265625,0.9666748046875,-0.005126953125
5.107,371,3147,1682,3147,-1.093994140625,0.9244384765625,-0.0509033203125
5.124,371,3147,1602,3050,-1.46923828125,0.85595703125,-0.0965576171875
5.124,364,3147,1557,2881,-1.6522216796875,0.674560546875,-0.0853271484375
5.124,355,3147,1424,2421,-1.5687255859375,0.4693603515625,-0.007080078125
5.125,354,3147,1330,2018,-1.34228515625,0.399169921875,0.043701171875
5.127,346,3147,1201,1546,-1.0975341796875,0.4459228515625,0.0438232421875
5.146,336,3147,1000,844,-0.865234375,0.4356689453125,0.0701904296875
5.146,330,3147,989,398,-0.667724609375,0.355224609375,0.1158447265625
5.146,325,3061,975,364,-0.566650390625,0.31982421875,0.1268310546875
5.156,322,2464,957,351,-0.5728759765625,0.2774658203125,0.123046875
5.156,318,2121,887,338,-0.6588134765625,0.179443359375,0.1273193359375
5.156,317,1714,830,342,-0.748291015625,0.0843505859375,0.0692138671875
5.194,316,1132,811,336,-0.76611328125,0.0693359375,-0.0615234375
5.195,315,1078,780,337,-0.718505859375,0.14990234375,-0.149658203125
5.204,313,1025,772,334,-0.6719970703125,0.224365234375,-0.1700439453125
5.236,310,887,784,334,-0.656005859375,0.25830078125,-0.154541015625
5.237,312,794,775,334,-0.625732421875,0.300048828125,-0.10791015625
5.244,313,816,740,332,-0.5679931640625,0.35693359375,-0.0458984375
5.245,315,865,750,331,-0.514892578125,0.423583984375,0.0111083984375
5.246,313,932,785,334,-0.495361328125,0.4736328125,0.0350341796875
5.246,313,1018,799,334,-0.5159912109375,0.46923828125,0.014404296875
5.246,313,1217,763,342,-0.5626220703125,0.431640625,-0.0318603515625
5.247,313,1348,800,334,-0.6197509765625,0.3944091796875,-0.0831298828125
5.247,310,1648,860,338,-0.6697998046875,0.34814453125,-0.123779296875
5.265,316,2287,888,338,-0.705322265625,0.290283203125,-0.15283203125
5.267,316,2591,937,344,-0.73876953125,0.2783203125,-0.1552734375
5.276,317,2936,975,338,-0.757080078125,0.31640625,-0.129638671875
5.276,317,3147,912,594,-0.7548828125,0.337646484375,-0.10009765625
5.325,319,3147,980,826,-0.75390625,0.33154296875,-0.0904541015625
5.326,323,3147,1004,1029,-0.7283935546875,0.297607421875,-0.103759765625
5.326,328,3147,1143,1529,-0.6607666015625,0.263916015625,-0.080078125
5.327,321,3147,1175,1874,-0.575927734375,0.279541015625,-0.00390625
5.335,342,3147,1242,2129,-0.4849853515625,0.3323974609375,0.0960693359375
5.345,351,3147,1290,2484,-0.3892822265625,0.387451171875,0.194091796875
5.346,359,3147,1366,2813,-0.329833984375,0.4378662109375,0.2840576171875
5.355,361,3147,1509,3010,-0.4326171875,0.5567626953125,0.3328857421875
5.366,371,3147,1677,3147,-0.751953125,0.7052001953125,0.258056640625
5.377,375,3147,1761,3147,-1.198486328125,0.7078857421875,0.082763671875
5.435,378,3147,1918,3147,-1.6505126953125,0.582763671875,-0.1041259765625
5.436,377,3147,2068,3147,-1.9932861328125,0.5294189453125,-0.3121337890625
5.436,379,3147,2080,3147,-2.1473388671875,0.6202392578125,-0.4698486328125
5.455,382,3147,1931,3147,-1.999755859375,0.6961669921875,-0.4111328125
5.455,371,3147,1785,3147,-1.40234375,0.6612548828125,-0.176025390625
5.455,378,3147,1808,3147,-0.757080078125,0.837890625,0.05078125
5.456,378,3147,1757,3147,-0.66064453125,1.2816162109375,0.015625
5.465,375,3147,1739,3147,-1.037109375,1.4400634765625,-0.1805419921875
5.466,373,3147,1702,3147,-1.47802734375,1.1124267578125,-0.2252197265625
5.495,371,3147,1664,3147,-1.47802734375,1.1124267578125,-0.2252197265625
5.497,364,3147,1508,3050,-1.63720703125,0.44677734375,-0.055419921875
5.506,361,3147,1480,2763,-1.4281005859375,0.3995361328125,-0.0240478515625
5.555,356,3147,1399,2554,-1.4281005859375,0.3995361328125,-0.0240478515625
5.556,347,3147,1211,1704,-0.8553466796875,0.371826171875,0.0546875
5.557,338,3147,1032,1214,-0.6390380859375,0.323486328125,0.137451171875
5.565,336,3147,963,739,-0.6390380859375,0.323486328125,0.137451171875
5.566,328,2955,923,360,-0.487060546875,0.23779296875,0.1661376953125
5.566,324,2605,898,359,-0.5584716796875,0.166748046875,0.165771484375
5.575,323,2323,859,352,-0.5584716796875,0.166748046875,0.165771484375
5.576,316,1686,826,346,-0.6827392578125,0.0555419921875,0.0030517578125
5.610,316,1480,803,346,-0.67138671875,0.1240234375,-0.1646728515625
5.656,315,1219,799,321,-0.67138671875,0.1240234375,-0.1646728515625
5.657,316,1175,761,338,-0.6611328125,0.27001953125,-0.268798828125
5.665,314,1151,816,336,-0.6639404296875,0.293212890625,-0.229736328125
5.666,316,1058,779,334,-0.6639404296875,0.293212890625,-0.229736328125
5.666,315,1101,763,347,-0.5797119140625,0.37451171875,-0.0264892578125
5.667,314,1143,811,334,-0.541259765625,0.4324951171875,0.0499267578125
5.677,302,1268,828,315,-0.541259765625,0.4324951171875,0.0499267578125
5.766,316,1519,855,334,-0.5938720703125,0.4652099609375,0.0135498046875
5.767,316,1704,912,344,-0.650390625,0.4241943359375,-0.0587158203125
5.775,317,1936,934,344,-0.650390625,0.4241943359375,-0.0587158203125
5.775,316,2478,944,346,-0.731201171875,0.351318359375,-0.1182861328125
5.776,316,2738,922,346,-0.731201171875,0.351318359375,-0.1182861328125
5.776,317,3082,951,347,-0.776611328125,0.3232421875,-0.123291015625
5.777,321,3147,1005,497,-0.7908935546875,0.261474609375,-0.1142578125
5.786,309,3147,1025,725,-0.7908935546875,0.261474609375,-0.1142578125
5.786,315,3147,1065,971,-0.7486572265625,0.278076171875,-0.0703125
5.787,332,3147,1211,1440,-0.6070556640625,0.3350830078125,-0.04833984375
5.799,317,3147,1222,1727,-0.6070556640625,0.3350830078125,-0.04833984375
5.875,346,3147,1229,2026,-0.5064697265625,0.301025390625,-0.0224609375
5.886,356,3147,1303,2407,-0.31884765625,0.19677734375,0.1170654296875
5.886,361,3147,1422,2692,-0.31884765625,0.19677734375,0.1170654296875
5.887,365,3147,1557,2961,-0.322998046875,0.30908203125,0.2294921875
5.899,372,3147,1682,3147,-0.9404296875,0.8302001953125,0.2698974609375
5.905,375,3147,1838,3147,-0.9404296875,0.8302001953125,0.2698974609375
5.906,375,3147,1987,3147,-1.3719482421875,0.8870849609375,0.0894775390625
5.906,379,3147,2058,3147,-1.9342041015625,0.684814453125,-0.30322265625
5.907,365,3147,2167,3147,-1.9342041015625,0.684814453125,-0.30322265625
5.931,382,3147,2068,3147,-2.0484619140625,0.5928955078125,-0.3863525390625
5.945,382,3147,1987,3147,-1.3084716796875,0.291748046875,-0.078125
5.992,382,3147,1929,3147,-1.3084716796875,0.291748046875,-0.078125
5.993,379,3147,1920,3147,-0.76708984375,0.5704345703125,0.120849609375
6.072,378,3147,1837,3147,-1.0474853515625,1.314697265625,-0.0841064453125
6.073,376,3147,1803,3147,-1.0474853515625,1.314697265625,-0.0841064453125
6.073,374,3147,1757,3147,-1.48583984375,1.0985107421875,-0.1422119140625
6.073,371,3147,1652,3055,-1.690185546875,0.7366943359375,-0.0919189453125
6.074,364,3147,1561,2869,-1.6158447265625,0.5106201171875,-0.0023193359375
6.074,359,3147,1504,2580,-1.3818359375,0.4471435546875,0.043212890625
6.075,354,3147,1375,1904,-1.1092529296875,0.4554443359375,0.054931640625
6.087,328,3147,1287,1501,-0.8626708984375,0.449951171875,0.0706787109375
6.087,344,3147,1145,1093,-0.667724609375,0.3878173828125,0.0977783203125
6.088,334,3147,944,378,-0.5491943359375,0.3189697265625,0.12353515625
6.091,330,2916,900,361,-0.533203125,0.2860107421875,0.1103515625
6.094,327,2529,874,356,-0.625,0.221923828125,0.0751953125
6.094,300,1973,827,348,-0.745849609375,0.103515625,0.0594482421875
6.094,319,1623,778,346,-0.8026123046875,0.00244140625,-0.0146484375
6.095,317,1437,761,344,-0.7845458984375,0.0108642578125,-0.1488037109375
6.095,315,1167,766,324,-0.7242431640625,0.1033935546875,-0.218994140625
6.096,316,1097,744,338,-0.670166015625,0.179443359375,-0.2066650390625
6.096,315,1043,754,330,-0.6390380859375,0.24267578125,-0.1573486328125
6.115,299,1004,787,336,-0.6124267578125,0.326171875,-0.0955810546875
6.115,316,1014,808,332,-0.580322265625,0.4112548828125,-0.0343017578125
6.116,315,1129,827,336,-0.5469970703125,0.45947265625,0.00634765625
6.116,300,1198,840,342,-0.53515625,0.4427490234375,0.00634765625
6.125,316,1312,855,338,-0.568359375,0.3905029296875,-0.030029296875
6.165,315,1519,862,334,-0.6356201171875,0.3658447265625,-0.0797119140625
6.166,316,1861,869,336,-0.699462890625,0.3641357421875,-0.119384765625
6.166,317,2275,874,343,-0.741943359375,0.3487548828125,-0.1317138671875
6.167,302,2469,883,344,-0.7664794921875,0.3170166015625,-0.1173095703125
6.175,318,3135,910,344,-0.7822265625,0.2896728515625,-0.1075439453125
6.185,321,3147,971,388,-0.7796630859375,0.279541015625,-0.1317138671875
6.195,322,3147,995,614,-0.742431640625,0.265625,-0.152099609375
6.214,330,3147,1191,1055,-0.69677734375,0.258544921875,-0.139404296875
6.215,334,3147,1184,1365,-0.649169921875,0.2720947265625,-0.1102294921875
6.224,344,3147,1215,1611,-0.5911865234375,0.2950439453125,-0.0167236328125
6.265,348,3147,1323,2068,-0.5123291015625,0.3145751953125,0.1455078125
6.265,355,3147,1411,2263,-0.413818359375,0.3306884765625,0.2996826171875
6.266,360,3147,1483,2648,-0.3817138671875,0.4132080078125,0.4150390625
6.266,364,3147,1597,2770,-0.490966796875,0.571533203125,0.410400390625
6.275,371,3147,1790,3080,-0.7628173828125,0.732421875,0.24609375
6.295,375,3147,1918,3147,-1.1494140625,0.8084716796875,0.0455322265625
6.297,376,3147,2048,3147,-1.521240234375,0.7239990234375,-0.08837890625
6.316,382,3147,2203,3147,-1.7684326171875,0.5758056640625,-0.1636962890625
6.366,383,3147,2254,3147,-1.843994140625,0.5186767578125,-0.218017578125
6.385,382,3147,2242,3147,-1.768798828125,0.575927734375,-0.252197265625
6.396,382,3147,2132,3147,-1.5147705078125,0.636474609375,-0.2296142578125
6.784,373,3147,1943,3147,-0.7662353515625,0.7890625,0.0244140625
6.785,378,3147,1891,3147,-0.748291015625,0.94775390625,0.0274658203125
6.785,377,3147,1864,3147,-0.9776611328125,0.9697265625,-0.039306640625
6.785,376,3147,1809,3147,-1.3248291015625,0.83740234375,-0.04443359375
6.785,371,3147,1705,3077,-1.54541015625,0.6160888671875,-0.0009765625
6.785,369,3147,1634,2912,-1.534423828125,0.45068359375,0.0523681640625
6.785,364,3147,1588,2665,-1.3626708984375,0.412841796875,0.069580078125
6.786,357,3147,1480,2230,-1.141357421875,0.4571533203125,0.0516357421875
6.786,353,3147,1393,1877,-0.951416015625,0.4881591796875,0.02685546875
6.794,347,3147,1328,1562,-0.81591796875,0.452392578125,0.01611328125
6.794,338,3147,1071,853,-0.7218017578125,0.39599609375,0.0306396484375
6.794,334,3147,978,371,-0.6788330078125,0.3865966796875,0.0343017578125
6.795,331,2938,958,371,-0.69921875,0.3604736328125,0.02099609375
6.795,327,2328,923,361,-0.7664794921875,0.24365234375,0.0140380859375
6.796,318,2023,883,354,-0.8231201171875,0.124755859375,-0.0054931640625
6.796,319,1774,854,351,-0.8231201171875,0.124755859375,-0.0054931640625
6.804,318,1228,818,344,-0.77587890625,0.113037109375,-0.0997314453125
6.804,316,999,785,315,-0.7403564453125,0.183837890625,-0.0692138671875
6.805,313,975,765,334,-0.7403564453125,0.183837890625,-0.0692138671875
6.805,315,846,695,332,-0.6893310546875,0.248779296875,-0.0159912109375
6.805,315,844,710,337,-0.6546630859375,0.2911376953125,-0.0145263671875
6.806,313,816,725,334,-0.6546630859375,0.2911376953125,-0.0145263671875
6.806,315,894,713,334,-0.5472412109375,0.3580322265625,-0.0203857421875
6.814,313,936,747,336,-0.509033203125,0.3662109375,-0.0364990234375
6.814,313,1031,754,334,-0.509033203125,0.3662109375,-0.0364990234375
6.814,315,1236,778,331,-0.529296875,0.3336181640625,-0.073486328125
6.815,315,1592,815,338,-0.56787109375,0.3292236328125,-0.0634765625
6.815,316,1913,883,344,-0.56787109375,0.3292236328125,-0.0634765625
6.816,316,2715,879,345,-0.56005859375,0.2607421875,-0.0589599609375
6.816,321,3143,907,348,-0.556884765625,0.2230224609375,-0.0693359375
6.817,321,3147,932,497,-0.556884765625,0.2230224609375,-0.0693359375
6.835,328,3147,1166,987,-0.646728515625,0.3206787109375,-0.0430908203125
6.863,336,3147,1283,1271,-0.6485595703125,0.34130859375,0.048583984375
6.884,343,3147,1271,1694,-0.6485595703125,0.34130859375,0.048583984375
6.886,347,3147,1497,2128,-0.569580078125,0.34375,0.2381591796875
6.914,360,3147,1588,2443,-0.6009521484375,0.336181640625,0.362060546875
6.933,365,3147,1689,2636,-0.6009521484375,0.336181640625,0.362060546875
6.955,373,3147,1907,2859,-0.915771484375,0.472900390625,0.27880859375
6.974,376,3147,2052,3022,-0.915771484375,0.472900390625,0.27880859375
6.976,377,3147,2133,3120,-1.163818359375,0.6915283203125,0.0762939453125
6.984,378,3147,2298,3147,-1.6492919921875,0.84326171875,-0.240966796875
6.985,378,3147,2333,3147,-1.6492919921875,0.84326171875,-0.240966796875
6.986,382,3147,2370,3147,-1.792236328125,0.76123046875,-0.2158203125
7.013,378,3147,2231,3147,-1.5106201171875,0.560302734375,0.040283203125
7.014,378,3147,2110,3147,-1.5106201171875,0.560302734375,0.040283203125
7.015,377,3147,1980,3147,-1.066162109375,0.5816650390625,0.073974609375
7.016,375,3147,1850,3147,-0.75048828125,0.8817138671875,-0.042724609375
7.016,371,3147,1823,3147,-0.75048828125,0.8817138671875,-0.042724609375
7.025,373,3147,1761,3147,-1.029541015625,0.8870849609375,-0.122314453125
7.025,363,3147,1615,2949,-1.67919921875,0.6683349609375,-0.128173828125
7.044,360,3147,1534,2744,-1.67919921875,0.6683349609375,-0.128173828125
7.053,360,3147,1464,2608,-1.658935546875,0.4986572265625,-0.032470703125
7.056,353,3147,1321,2108,-1.20361328125,0.406494140625,0.0457763671875
7.056,348,3147,1211,1744,-1.20361328125,0.406494140625,0.0457763671875
7.066,344,3147,1083,1211,-0.984619140625,0.467041015625,0.016845703125
7.066,331,3147,987,691,-0.6734619140625,0.38427734375,0.0908203125
7.084,330,3143,918,369,-0.6734619140625,0.38427734375,0.0908203125
7.086,327,2753,900,356,-0.634765625,0.29736328125,0.1090087890625
7.104,319,2021,830,345,-0.6805419921875,0.216064453125,0.0635986328125
7.105,317,1574,790,332,-0.7261962890625,0.148193359375,0.0240478515625
7.106,318,1178,784,342,-0.73291015625,0.10302734375,-0.0341796875
7.135,313,855,732,336,-0.70703125,0.112548828125,-0.109619140625
7.175,316,853,740,344,-0.6666259765625,0.17333984375,-0.1495361328125
7.185,313,814,698,334,-0.6495361328125,0.2467041015625,-0.1409912109375
7.194,313,705,682,331,-0.646484375,0.31005859375,-0.1009521484375
7.214,310,694,680,336,-0.622802734375,0.354248046875,-0.0484619140625
7.236,313,739,689,332,-0.57861328125,0.3712158203125,0.0020751953125
7.286,313,758,728,332,-0.530517578125,0.357177734375,0.034423828125
7.296,313,757,765,332,-0.49267578125,0.31982421875,0.0467529296875
7.315,315,958,793,336,-0.48388671875,0.2862548828125,0.0390625
7.336,315,1217,818,334,-0.5174560546875,0.2850341796875,0.0147705078125
7.365,315,1574,815,336,-0.5693359375,0.3006591796875,-0.0150146484375
7.394,315,1996,879,336,-0.609375,0.3057861328125,-0.04345703125
7.395,315,2735,913,342,-0.6318359375,0.3018798828125,-0.0687255859375
7.396,316,3112,912,347,-0.64501953125,0.29833984375,-0.0986328125
7.397,317,3147,912,548,-0.6707763671875,0.2982177734375,-0.131591796875
7.407,323,3147,951,990,-0.716552734375,0.3057861328125,-0.120849609375
7.414,326,3147,971,1269,-0.7449951171875,0.3076171875,-0.0560302734375
7.414,331,3147,1045,1572,-0.7261962890625,0.3167724609375,0.0128173828125
7.414,342,3147,1278,2093,-0.646240234375,0.3497314453125,0.0916748046875
7.424,346,3147,1411,2319,-0.557861328125,0.3603515625,0.1845703125
7.425,356,3147,1524,2504,-0.569580078125,0.3585205078125,0.252197265625
7.426,365,3147,1747,2792,-0.725830078125,0.3876953125,0.2314453125
7.446,371,3147,1877,2897,-1.0091552734375,0.4749755859375,0.089599609375
7.447,373,3147,1996,3031,-1.334716796875,0.5948486328125,-0.0701904296875
7.476,374,3147,2188,3147,-1.5963134765625,0.670654296875,-0.157470703125
7.485,365,3147,2259,3147,-1.725830078125,0.690185546875,-0.1529541015625
7.495,376,3147,2316,3147,-1.697265625,0.7000732421875,-0.06298828125
7.504,376,3147,2190,3147,-1.53369140625,0.7623291015625,0.053955078125
7.506,375,3147,2053,3147,-1.247802734375,0.8604736328125,0.115478515625
7.506,375,3147,1892,3147,-0.884033203125,0.935791015625,0.103271484375
7.515,371,3147,1789,3147,-0.6922607421875,0.97265625,0.0516357421875
7.516,365,3147,1742,3120,-0.8360595703125,0.9259033203125,-0.048095703125
7.545,364,3147,1693,3006,-1.2542724609375,0.833984375,-0.1375732421875
7.546,361,3147,1531,2704,-1.693115234375,0.7022705078125,-0.1708984375
7.556,356,3147,1474,2458,-1.8287353515625,0.54052734375,-0.1431884765625
7.595,351,3147,1413,2079,-1.6361083984375,0.47265625,-0.0704345703125
7.596,344,3147,1166,1294,-1.3040771484375,0.497314453125,-0.0157470703125
7.596,316,3147,1054,849,-0.9674072265625,0.5029296875,0.0433349609375
7.605,331,3147,986,375,-0.679931640625,0.4471435546875,0.1038818359375
7.605,324,2293,980,357,-0.517822265625,0.3780517578125,0.0877685546875
7.606,322,1918,975,355,-0.5067138671875,0.333740234375,0.040283203125
7.624,316,1666,957,346,-0.5706787109375,0.2977294921875,0.03662109375
7.645,315,1003,869,346,-0.644287109375,0.23681640625,0.010009765625
7.664,313,830,784,332,-0.70458984375,0.19091796875,-0.055908203125
7.695,314,666,772,334,-0.737548828125,0.19580078125,-0.090576171875
7.706,310,660,754,331,-0.7470703125,0.2164306640625,-0.07421875
7.714,310,661,735,332,-0.730224609375,0.2197265625,-0.0367431640625
7.754,316,705,705,332,-0.6727294921875,0.223876953125,0.0003662109375
7.782,313,643,748,332,-0.5955810546875,0.2515869140625,0.02392578125
7.816,313,725,740,332,-0.53076171875,0.2928466796875,0.039306640625
7.826,313,731,711,332,-0.483642578125,0.340576171875,0.058349609375
7.855,313,702,750,328,-0.4560546875,0.390869140625,0.0606689453125
7.856,313,707,781,330,-0.459228515625,0.416259765625,0.04052734375
7.877,312,816,830,331,-0.494873046875,0.4019775390625,0.013671875
7.915,309,1097,815,334,-0.5521240234375,0.3642578125,-0.0250244140625
7.916,314,1575,872,332,-0.6251220703125,0.32568359375,-0.0633544921875
7.926,315,2032,890,342,-0.7257080078125,0.3052978515625,-0.0811767578125
7.926,310,2671,959,344,-0.8475341796875,0.3275146484375,-0.0965576171875
7.934,316,3115,976,348,-0.9161376953125,0.3773193359375,-0.1119384765625
7.935,316,3147,1014,564,-0.880126953125,0.385498046875,-0.1031494140625
7.936,316,3147,1025,1034,-0.795166015625,0.333740234375,-0.076416015625
7.954,321,3147,1024,1266,-0.72265625,0.291748046875,-0.0523681640625
7.971,324,3147,1018,1521,-0.6407470703125,0.3172607421875,-0.018310546875
7.973,336,3147,1276,1968,-0.513916015625,0.38330078125,0.0526123046875
7.986,333,3147,1380,2293,-0.390869140625,0.44189453125,0.1402587890625
8.014,347,3147,1470,2478,-0.348876953125,0.5018310546875,0.2135009765625
8.015,359,3147,1666,2777,-0.4395751953125,0.5667724609375,0.2630615234375
8.016,369,3147,1766,2970,-0.6890869140625,0.6015625,0.254150390625
8.025,364,3147,1868,3080,-1.0677490234375,0.63134765625,0.166259765625
8.026,373,3147,2078,3147,-1.458740234375,0.6728515625,0.0064697265625
8.035,375,3147,2139,3147,-1.7423095703125,0.683349609375,-0.1748046875
8.036,375,3147,2207,3147,-1.89013671875,0.6396484375,-0.3089599609375
8.041,373,3147,2172,3147,-1.9281005859375,0.61376953125,-0.36767578125
8.107,376,3147,1969,3147,-1.73583984375,0.617919921875,-0.3082275390625
8.114,373,3147,1808,3147,-1.2149658203125,0.6112060546875,-0.09228515625
8.124,371,3147,1715,3147,-0.740478515625,0.7333984375,0.1693115234375
8.135,364,3147,1757,3147,-0.7281494140625,0.9969482421875,0.2294921875
8.155,363,3147,1703,3147,-0.7281494140625,0.9969482421875,0.2294921875
8.215,354,3147,1577,3063,-1.5322265625,0.9505615234375,-0.056640625
8.224,353,3147,1483,2797,-1.70068359375,0.600830078125,-0.1483154296875
8.236,344,3147,1355,2514,-1.70068359375,0.600830078125,-0.1483154296875
8.244,343,3147,1173,1934,-1.320068359375,0.3270263671875,-0.126953125
8.255,336,3147,1115,1442,-1.0218505859375,0.3182373046875,-0.0711669921875
8.264,331,3147,1085,1074,-1.0218505859375,0.3182373046875,-0.0711669921875
8.467,319,2651,989,348,-0.538330078125,0.321533203125,0.1343994140625
8.471,317,2160,934,346,-0.6678466796875,0.18701171875,0.1795654296875
8.486,315,1248,832,334,-0.7596435546875,0.0987548828125,-0.0272216796875
8.490,316,1070,782,328,-0.7225341796875,0.09716796875,-0.103759765625
8.496,315,996,766,332,-0.7225341796875,0.09716796875,-0.103759765625
8.498,313,1266,806,334,-0.5126953125,0.5654296875,-0.010986328125
8.500,314,1377,785,338,-0.5374755859375,0.5213623046875,-0.0247802734375
8.509,312,1557,802,331,-0.5374755859375,0.5213623046875,-0.0247802734375
8.516,315,2060,894,344,-0.6318359375,0.3668212890625,-0.100830078125
8.516,315,2392,913,342,-0.6318359375,0.3668212890625,-0.100830078125
8.521,313,2608,890,356,-0.6796875,0.314208984375,-0.12841796875
8.523,316,3147,927,360,-0.7476806640625,0.295654296875,-0.092529296875
8.525,316,3147,978,525,-0.7476806640625,0.295654296875,-0.092529296875
8.525,317,3147,975,835,-0.7733154296875,0.2757568359375,-0.033935546875
8.526,321,3147,1024,1201,-0.7476806640625,0.242919921875,0.0380859375
8.526,327,3147,1024,1480,-0.7476806640625,0.242919921875,0.0380859375
8.533,328,3147,1151,1819,-0.659423828125,0.3125,0.0863037109375
8.535,336,3147,1366,2244,-0.54296875,0.42333984375,0.1612548828125
8.535,343,3147,1452,2448,-0.54296875,0.42333984375,0.1612548828125
8.536,348,3147,1553,2638,-0.5902099609375,0.4222412109375,0.1798095703125
8.536,361,3147,1762,2901,-0.9061279296875,0.4886474609375,0.1572265625
8.540,364,3147,1853,3047,-0.9061279296875,0.4886474609375,0.1572265625
8.541,371,3147,1966,3147,-1.146240234375,0.596923828125,0.0535888671875
8.545,371,3147,2118,3147,-1.5341796875,0.6475830078125,-0.252197265625
8.545,375,3147,2178,3147,-1.5341796875,0.6475830078125,-0.252197265625
8.546,361,3147,2242,3147,-1.6064453125,0.608154296875,-0.265625
8.546,373,3147,2246,3147,-1.596923828125,0.574462890625,-0.1541748046875
8.554,374,3147,2053,3147,-1.482666015625,0.583251953125,0.0013427734375
8.554,365,3147,1769,3147,-0.746337890625,0.810302734375,0.1126708984375
8.555,323,3147,1321,1636,-1.548583984375,0.4566650390625,-0.03857421875
8.555,336,3147,1163,1138,-1.300048828125,0.4161376953125,-0.00146484375
8.555,332,3147,1117,735,-1.02197265625,0.36279296875,0.058349609375
8.556,326,3147,1103,390,-0.7803955078125,0.320556640625,0.123779296875
8.556,328,2736,1056,355,-0.6331787109375,0.3536376953125,0.1358642578125
8.563,319,2379,1018,348,-0.5919189453125,0.3480224609375,0.124755859375
8.564,313,860,808,328,-0.68310546875,0.194091796875,-0.1343994140625
8.564,306,802,774,330,-0.638671875,0.2947998046875,-0.1114501953125
8.564,313,747,754,308,-0.5955810546875,0.3680419921875,-0.0836181640625
8.565,313,745,785,332,-0.5555419921875,0.409423828125,-0.0618896484375
8.565,312,813,787,328,-0.5218505859375,0.4349365234375,-0.0423583984375
8.566,313,854,793,332,-0.4976806640625,0.4395751953125,-0.026123046875
8.566,315,922,837,338,-0.503173828125,0.4041748046875,-0.0244140625
8.574,312,1117,855,334,-0.5445556640625,0.347412109375,-0.037353515625
8.574,314,1328,853,336,-0.597900390625,0.302490234375,-0.05224609375
8.574,315,1535,868,336,-0.6414794921875,0.2772216796875,-0.061767578125
8.580,313,2372,912,338,-0.6737060546875,0.2796630859375,-0.0660400390625
8.585,316,2692,958,347,-0.701416015625,0.3126220703125,-0.0784912109375
8.585,315,3102,995,338,-0.717041015625,0.343994140625,-0.109619140625
8.586,321,3147,998,723,-0.7227783203125,0.34619140625,-0.126708984375
8.586,321,3147,989,994,-0.7265625,0.329833984375,-0.0938720703125
8.745,325,3147,1045,1280,-0.6983642578125,0.316162109375,-0.0538330078125
8.745,333,3147,1316,1800,-0.625244140625,0.36328125,0.00146484375
8.746,343,3147,1377,2076,-0.54736328125,0.452392578125,0.1038818359375
8.746,354,3147,1531,2386,-0.5396728515625,0.499267578125,0.1953125
8.762,359,3147,1761,2622,-0.6480712890625,0.509521484375,0.2552490234375
8.775,368,3147,1846,2877,-0.847900390625,0.502685546875,0.2679443359375
8.775,370,3147,1961,3000,-1.0806884765625,0.4998779296875,0.2152099609375
8.775,373,3147,2139,3141,-1.3089599609375,0.49609375,0.1031494140625
8.776,376,3147,2284,3147,-1.4940185546875,0.47705078125,-0.02978515625
8.786,376,3147,2372,3147,-1.6124267578125,0.4835205078125,-0.1136474609375
8.795,376,3147,2421,3147,-1.6610107421875,0.5399169921875,-0.1295166015625
8.795,377,3147,2279,3147,-1.6123046875,0.64306640625,-0.1204833984375
8.797,360,3147,2158,3147,-1.3712158203125,0.7093505859375,-0.11328125
8.797,372,3147,1891,3147,-0.9774169921875,0.7337646484375,-0.065185546875
8.798,348,3147,1819,3147,-0.7393798828125,0.793701171875,-0.001220703125
8.813,371,3147,1783,3147,-0.8016357421875,0.8150634765625,-0.0096435546875
8.815,364,3147,1756,3104,-1.095703125,0.7896728515625,-0.046142578125
8.834,363,3147,1666,2990,-1.4581298828125,0.742431640625,-0.068359375
8.836,361,3147,1676,2831,-1.639404296875,0.642578125,-0.068115234375
8.836,356,3147,1588,2374,-1.5533447265625,0.54443359375,-0.013916015625
8.845,351,3147,1483,1966,-1.306396484375,0.490966796875,0.050537109375
8.846,346,3147,1365,1529,-1.037353515625,0.44775390625,0.095703125
8.846,336,3147,1117,826,-0.810546875,0.3577880859375,0.14111328125
8.869,333,3147,1146,582,-0.6641845703125,0.2802734375,0.151611328125
8.876,327,3147,1096,364,-0.6077880859375,0.27783203125,0.1307373046875
8.876,324,2843,1042,355,-0.64111328125,0.2845458984375,0.1099853515625
8.886,321,2445,1014,348,-0.73486328125,0.2718505859375,0.0758056640625
8.955,318,2190,966,338,-0.73486328125,0.2718505859375,0.0758056640625
9.027,316,1487,934,338,-0.787109375,0.1458740234375,-0.163818359375
9.027,318,1216,869,345,-0.787109375,0.1458740234375,-0.163818359375
9.027,315,1050,774,338,-0.69091796875,0.2095947265625,-0.1104736328125
9.028,313,998,816,338,-0.644287109375,0.30029296875,-0.088134765625
9.028,313,936,803,334,-0.644287109375,0.30029296875,-0.088134765625
9.056,313,946,780,332,-0.59619140625,0.488037109375,-0.0682373046875
9.064,313,944,780,334,-0.572509765625,0.5418701171875,-0.0455322265625
9.064,313,1012,802,331,-0.572509765625,0.5418701171875,-0.0455322265625
9.065,313,1191,813,332,-0.5712890625,0.5345458984375,-0.02197265625
9.065,313,1264,845,338,-0.6103515625,0.4541015625,-0.0560302734375
9.081,316,1400,883,338,-0.6103515625,0.4541015625,-0.0560302734375
9.083,315,1824,872,334,-0.7022705078125,0.3116455078125,-0.0784912109375
9.094,315,2124,874,342,-0.744140625,0.2503662109375,-0.069091796875
9.105,315,2340,922,345,-0.744140625,0.2503662109375,-0.069091796875
9.114,321,2753,933,347,-0.8414306640625,0.231201171875,-0.1156005859375
9.114,316,3147,975,344,-0.83349609375,0.212158203125,-0.13623046875
9.115,317,3147,1018,533,-0.83349609375,0.212158203125,-0.13623046875
9.115,321,3147,1012,1012,-0.65673828125,0.235107421875,0.0291748046875
9.133,327,3147,1091,1447,-0.4649658203125,0.245361328125,0.112548828125
9.133,334,3147,1195,1755,-0.4649658203125,0.245361328125,0.112548828125
9.133,346,3147,1243,2340,-0.05712890625,0.3443603515625,0.2789306640625
9.185,353,3147,1351,2689,-0.05712890625,0.3443603515625,0.2789306640625
9.194,342,3147,1523,2859,-0.0103759765625,0.4940185546875,0.3843994140625
9.194,364,3147,1783,3147,-0.6754150390625,0.840087890625,0.3450927734375
9.194,371,3147,1973,3147,-0.6754150390625,0.840087890625,0.3450927734375
9.195,374,3147,2076,3147,-1.2628173828125,0.90234375,0.133544921875
9.195,376,3147,2240,3147,-2.1033935546875,0.64111328125,-0.31494140625
9.195,376,3147,2345,3147,-2.1033935546875,0.64111328125,-0.31494140625
9.196,376,3147,2281,3147,-2.238525390625,0.5867919921875,-0.4942626953125
9.196,373,3147,2098,3147,-1.476806640625,0.5953369140625,-0.334716796875
9.196,376,3147,2061,3147,-1.476806640625,0.5953369140625,-0.334716796875
9.265,373,3147,2065,3147,-0.80322265625,0.6956787109375,-0.0211181640625
9.284,375,3147,1920,3147,-0.847412109375,1.2845458984375,0.033203125
9.284,373,3147,1862,3147,-0.847412109375,1.2845458984375,0.033203125
9.284,371,3147,1808,3147,-1.310546875,1.239990234375,-0.058349609375
9.284,365,3147,1641,3147,-1.6949462890625,0.649658203125,-0.060546875
9.284,361,3147,1602,3107,-1.6949462890625,0.649658203125,-0.060546875
9.284,355,3147,1508,2842,-1.5213623046875,0.53564453125,-0.0545654296875
9.285,346,3147,1236,1980,-0.9058837890625,0.5245361328125,0.00244140625
9.285,337,3147,1117,1422,-0.9058837890625,0.5245361328125,0.00244140625
9.285,334,3147,1038,1078,-0.6590576171875,0.449951171875,0.0555419921875
9.356,327,3147,963,346,-0.4722900390625,0.2294921875,0.11328125
9.356,316,2870,966,356,-0.4722900390625,0.2294921875,0.11328125
9.356,321,2477,960,347,-0.5489501953125,0.1539306640625,0.119140625
9.363,318,1920,887,328,-0.6243896484375,0.0987548828125,0.1217041015625
9.364,315,1597,846,345,-0.6632080078125,0.0673828125,0.0289306640625
9.365,316,1348,837,344,-0.6820068359375,0.1068115234375,-0.0899658203125
9.366,316,1103,763,338,-0.674560546875,0.1923828125,-0.1336669921875
9.373,315,1043,766,338,-0.6654052734375,0.2647705078125,-0.1307373046875
9.375,313,922,818,337,-0.669921875,0.3333740234375,-0.1197509765625
9.385,316,871,739,324,-0.65869140625,0.4014892578125,-0.094482421875
9.385,315,906,794,333,-0.6307373046875,0.430908203125,-0.050048828125
9.425,314,949,797,316,-0.60595703125,0.4139404296875,-0.008544921875
9.434,310,1066,788,316,-0.598388671875,0.3861083984375,0.0235595703125
9.434,310,1163,834,334,-0.6090087890625,0.3670654296875,0.0390625
9.464,313,1286,853,338,-0.6396484375,0.36572265625,0.0233154296875
9.474,313,1634,826,334,-0.6837158203125,0.3740234375,-0.01123046875
9.486,315,2075,871,342,-0.7227783203125,0.3720703125,-0.0552978515625
9.496,301,2268,912,336,-0.7608642578125,0.36669921875,-0.1015625
9.504,315,2659,932,345,-0.802001953125,0.3740234375,-0.1346435546875
9.513,316,2863,951,328,-0.83837890625,0.4066162109375,-0.154541015625
9.514,315,3121,922,347,-0.8614501953125,0.447021484375,-0.1544189453125
9.516,316,3147,971,564,-0.8756103515625,0.4473876953125,-0.125732421875
9.554,317,3147,989,840,-0.8719482421875,0.3936767578125,-0.07666015625
9.554,321,3147,1007,1018,-0.7880859375,0.3021240234375,-0.0340576171875
9.555,327,3147,1050,1608,-0.60888671875,0.208740234375,0.03662109375
9.565,330,3147,1209,1902,-0.3924560546875,0.1510009765625,0.1153564453125
9.576,336,3147,1228,2192,-0.17919921875,0.169921875,0.168212890625
9.595,347,3147,1375,2541,-0.0362548828125,0.3133544921875,0.2835693359375
9.634,356,3147,1528,2827,-0.07568359375,0.53369140625,0.397216796875
9.645,361,3147,1681,3064,-0.3624267578125,0.71728515625,0.3914794921875
9.664,365,3147,1943,3147,-0.8739013671875,0.81298828125,0.2652587890625
9.675,372,3147,2078,3147,-1.438232421875,0.7806396484375,0.04150390625
9.694,373,3147,2178,3147,-1.87939453125,0.63525390625,-0.183349609375
9.714,377,3147,2316,3147,-2.150634765625,0.4876708984375,-0.359375
9.746,375,3147,2255,3147,-2.198486328125,0.46826171875,-0.4718017578125
9.783,376,3147,2180,3147,-1.8873291015625,0.5771484375,-0.4122314453125
9.794,374,3147,2012,3147,-1.1929931640625,0.7113037109375,-0.15283203125
9.795,373,3147,1973,3147,-0.6058349609375,0.9295654296875,0.1119384765625
9.795,372,3147,1920,3147,-0.5374755859375,1.15478515625,0.1336669921875
9.803,371,3147,1847,3147,-0.87451171875,1.1920166015625,0.0123291015625
9.803,362,3147,1789,3147,-1.3426513671875,1.0135498046875,-0.0631103515625
9.835,364,3147,1704,3147,-1.6512451171875,0.725341796875,-0.1021728515625
9.883,356,3147,1508,2930,-1.515380859375,0.4432373046875,-0.0838623046875
9.883,348,3147,1435,2635,-1.2432861328125,0.4820556640625,-0.0516357421875
9.883,332,3147,1162,1732,-0.9813232421875,0.528076171875,-0.003662109375
9.884,332,3147,1042,1352,-0.7459716796875,0.4725341796875,0.0694580078125
9.885,324,3147,998,805,-0.5693359375,0.372314453125,0.14501953125
9.885,323,3024,975,357,-0.5101318359375,0.2777099609375,0.1693115234375
9.894,322,2749,976,354,-0.556396484375,0.17626953125,0.16357421875
9.894,318,2370,944,346,-0.634033203125,0.1024169921875,0.136474609375
9.895,316,1676,814,331,-0.6834716796875,0.066650390625,0.0103759765625
9.896,315,1366,818,329,-0.702392578125,0.1260986328125,-0.138427734375
9.904,316,1160,767,330,-0.6912841796875,0.2523193359375,-0.2021484375
9.905,316,1005,759,336,-0.678466796875,0.3248291015625,-0.2108154296875
9.914,313,867,738,334,-0.6807861328125,0.3487548828125,-0.1866455078125
9.914,313,830,725,333,-0.6639404296875,0.36962890625,-0.12646484375
9.955,313,808,737,334,-0.6241455078125,0.3770751953125,-0.05078125
9.964,310,878,738,332,-0.592041015625,0.36474609375,0.004150390625
9.966,313,883,725,332,-0.5811767578125,0.3668212890625,0.034423828125
10.005,313,1004,799,332,-0.585693359375,0.3963623046875,0.046875
10.025,316,1151,788,346,-0.593994140625,0.42822265625,0.0321044921875
10.064,313,1302,803,336,-0.6187744140625,0.4510498046875,0.0008544921875
10.075,316,1700,837,336,-0.6607666015625,0.449462890625,-0.031005859375
10.105,315,1978,888,336,-0.7061767578125,0.415283203125,-0.0706787109375
10.154,314,2260,904,316,-0.7459716796875,0.356201171875,-0.107177734375
10.165,314,2807,893,344,-0.7589111328125,0.294677734375,-0.119384765625
10.165,316,3147,932,334,-0.7581787109375,0.2843017578125,-0.102783203125
10.166,316,3147,984,591,-0.7313232421875,0.3143310546875,-0.0408935546875
10.173,319,3147,1034,1109,-0.6156005859375,0.2996826171875,0.0782470703125
10.174,323,3147,1157,1490,-0.425537109375,0.23388671875,0.1671142578125
10.175,328,3147,1188,1838,-0.425537109375,0.23388671875,0.1671142578125
10.176,342,3147,1201,2268,-0.122802734375,0.345458984375,0.0506591796875
10.179,347,3147,1253,2527,-0.1309814453125,0.57421875,0.0377197265625
10.224,355,3147,1338,2748,-0.1309814453125,0.57421875,0.0377197265625
10.247,356,3147,1640,3108,-0.8233642578125,0.9520263671875,0.1119384765625
10.253,369,3147,1757,3147,-1.4066162109375,0.94140625,0.1890869140625
10.254,371,3147,1900,3147,-1.4066162109375,0.94140625,0.1890869140625
10.255,373,3147,2074,3147,-2.2186279296875,0.3033447265625,0.0086669921875
10.255,371,3147,2058,3147,-2.139892578125,0.2960205078125,-0.242919921875
10.256,364,3147,1931,3147,-2.139892578125,0.2960205078125,-0.242919921875
10.258,373,3147,1772,3147,-1.10400390625,0.860595703125,-0.2607421875
10.265,381,3147,1770,3147,-0.63818359375,0.99951171875,-0.014404296875
10.265,371,3147,1709,3147,-0.63818359375,0.99951171875,-0.014404296875
10.266,371,3147,1733,3147,-1.093505859375,1.118896484375,-0.0281982421875
10.283,359,3147,1694,3147,-1.446044921875,1.020751953125,-0.171630859375
10.304,364,3147,1643,3147,-1.446044921875,1.020751953125,-0.171630859375
10.325,359,3147,1557,3147,-1.504638671875,0.7041015625,-0.2564697265625
10.366,356,3147,1464,3007,-1.290283203125,0.5843505859375,-0.176513671875
10.375,348,3147,1402,2658,-1.290283203125,0.5843505859375,-0.176513671875
10.384,334,3147,1241,1888,-0.7781982421875,0.4117431640625,0.1448974609375
10.385,334,3147,1065,1411,-0.5926513671875,0.3009033203125,0.2772216796875
10.402,326,3147,1014,855,-0.5926513671875,0.3009033203125,0.2772216796875
10.415,324,3147,1000,375,-0.6087646484375,0.20947265625,0.2139892578125
10.415,323,2962,952,348,-0.6087646484375,0.20947265625,0.2139892578125
10.416,321,2610,918,349,-0.716796875,0.1739501953125,0.129150390625
10.433,319,2230,879,347,-0.787353515625,0.1304931640625,-0.0867919921875
10.433,317,1862,834,348,-0.787353515625,0.1304931640625,-0.0867919921875
10.435,315,1608,832,342,-0.7459716796875,0.2056884765625,-0.1324462890625
10.476,315,1220,779,336,-0.61865234375,0.354736328125,-0.0728759765625
10.483,318,1108,813,338,-0.61865234375,0.354736328125,-0.0728759765625
10.484,313,1056,794,334,-0.609375,0.436279296875,-0.0230712890625
10.485,314,1022,832,332,-0.6116943359375,0.509765625,0.0126953125
10.494,315,1038,808,336,-0.6116943359375,0.509765625,0.0126953125
10.515,315,1129,816,334,-0.6065673828125,0.4930419921875,0.013916015625
10.534,314,1226,803,318,-0.608154296875,0.3985595703125,-0.0252685546875
10.564,315,1357,802,336,-0.608154296875,0.3985595703125,-0.0252685546875
10.568,314,1521,813,337,-0.640869140625,0.395751953125,-0.034912109375
10.576,315,1881,778,318,-0.7086181640625,0.3536376953125,-0.0828857421875
10.583,314,2167,846,346,-0.7086181640625,0.3536376953125,-0.0828857421875
10.594,315,2280,864,338,-0.7366943359375,0.323486328125,-0.0970458984375
11.075,316,3073,914,348,-0.8072509765625,0.356689453125,-0.1204833984375
11.075,321,3147,927,338,-0.8226318359375,0.3736572265625,-0.1126708984375
11.075,318,3147,920,661,-0.809814453125,0.358642578125,0.0347900390625
11.075,321,3147,973,958,-0.809814453125,0.358642578125,0.0347900390625
11.075,323,3147,1074,1185,-0.7723388671875,0.3604736328125,0.089599609375
11.075,330,3147,1283,1834,-0.6697998046875,0.3887939453125,0.111083984375
11.075,333,3147,1312,1927,-0.4815673828125,0.4390869140625,0.13623046875
11.076,338,3147,1287,2254,-0.2686767578125,0.470703125,0.172607421875
11.077,348,3147,1370,2652,-0.103515625,0.4443359375,0.2393798828125
11.077,356,3147,1514,2870,-0.0775146484375,0.4039306640625,0.3226318359375
11.077,362,3147,1662,3046,-0.2799072265625,0.43603515625,0.35888671875
11.077,371,3147,1838,3147,-0.7301025390625,0.537841796875,0.2950439453125
11.077,373,3147,1943,3147,-1.3155517578125,0.5902099609375,0.1207275390625
11.077,370,3147,2035,3147,-1.8494873046875,0.5767822265625,-0.094482421875
11.077,364,3147,2190,3147,-2.1875,0.6136474609375,-0.3184814453125
11.077,376,3147,2105,3147,-2.2188720703125,0.72265625,-0.4796142578125
11.077,375,3147,2050,3147,-1.8426513671875,0.795166015625,-0.4033203125
11.077,375,3147,1912,3147,-1.13427734375,0.836669921875,-0.1104736328125
11.077,371,3147,1848,3147,-0.5965576171875,1.02294921875,0.1055908203125
11.077,371,3147,1838,3147,-0.544921875,1.1837158203125,0.0399169921875
11.078,371,3147,1774,3147,-0.86279296875,1.1092529296875,-0.083984375
11.078,361,3147,1733,3147,-1.34326171875,0.9027099609375,-0.0933837890625
11.078,370,3147,1689,3147,-1.690185546875,0.7166748046875,-0.0887451171875
11.078,359,3147,1574,3012,-1.756591796875,0.6431884765625,-0.088623046875
11.078,338,3147,1519,2853,-1.5706787109375,0.606689453125,-0.0540771484375
11.078,347,3147,1441,2493,-1.2454833984375,0.556884765625,0.0279541015625
11.078,342,3147,1243,1694,-0.9307861328125,0.5137939453125,0.12158203125
11.078,331,3147,1083,1201,-0.6800537109375,0.4417724609375,0.193603515625
11.078,328,3147,1054,562,-0.515869140625,0.3641357421875,0.2266845703125
11.079,323,2728,989,354,-0.480712890625,0.2987060546875,0.19677734375
11.079,322,2421,975,351,-0.5594482421875,0.2215576171875,0.1473388671875
11.079,313,2118,922,348,-0.6668701171875,0.1416015625,0.100341796875
11.079,316,1239,813,345,-0.73388671875,0.0943603515625,-0.018310546875
11.079,313,1122,780,337,-0.734619140625,0.15087890625,-0.1519775390625
11.079,315,958,740,330,-0.6893310546875,0.25048828125,-0.2109375
11.079,311,738,737,319,-0.6094970703125,0.4183349609375,0.010986328125
11.079,313,713,757,334,-0.5770263671875,0.4161376953125,0.052490234375
11.079,310,739,761,313,-0.5587158203125,0.40380859375,0.0792236328125
11.079,314,871,759,338,-0.5589599609375,0.3878173828125,0.088623046875
11.079,314,963,772,332,-0.5753173828125,0.3739013671875,0.0753173828125
11.079,310,1101,790,334,-0.607666015625,0.3714599609375,0.05615234375
11.079,313,1472,843,336,-0.6470947265625,0.361083984375,0.0274658203125
11.080,315,1837,894,334,-0.6883544921875,0.3297119140625,-0.021728515625
11.080,313,2131,889,344,-0.739501953125,0.3076171875,-0.0791015625
11.080,315,2410,907,342,-0.7935791015625,0.3223876953125,-0.132080078125
11.080,316,2912,933,346,-0.824462890625,0.3427734375,-0.1558837890625
11.080,317,3147,966,360,-0.823486328125,0.3271484375,-0.1275634765625
11.080,318,3147,960,548,-0.81201171875,0.3140869140625,-0.07177734375
11.080,321,3147,1050,1014,-0.759765625,0.35107421875,-0.000244140625
11.080,324,3147,1201,1424,-0.6431884765625,0.418701171875,0.093505859375
11.080,327,3147,1265,1732,-0.4649658203125,0.4439697265625,0.1654052734375
11.080,338,3147,1328,2215,-0.2540283203125,0.4078369140625,0.2073974609375
11.080,347,3147,1443,2497,-0.1231689453125,0.3690185546875,0.281494140625
11.080,354,3147,1560,2689,-0.1746826171875,0.3873291015625,0.3914794921875
11.080,363,3147,1781,3012,-0.4453125,0.4910888671875,0.4154052734375
11.080,371,3147,1929,3137,-0.888916015625,0.6053466796875,0.2669677734375
11.080,371,3147,2032,3147,-1.3935546875,0.6295166015625,-0.003173828125
11.080,373,3147,2306,3147,-1.8521728515625,0.5902099609375,-0.2889404296875
11.080,376,3147,2392,3147,-2.1368408203125,0.56396484375,-0.507568359375
11.081,375,3147,2443,3147,-2.1856689453125,0.599609375,-0.5311279296875
11.081,373,3147,2263,3147,-1.939453125,0.6185302734375,-0.2694091796875
11.081,375,3147,2123,3147,-1.31787109375,0.582763671875,0.094970703125
11.081,375,3147,1967,3147,-0.696044921875,0.783447265625,0.313720703125
11.081,371,3147,1902,3147,-0.5472412109375,1.1827392578125,0.2088623046875
11.081,371,3147,1850,3147,-0.8914794921875,1.34619140625,-0.052978515625
11.085,361,3147,1794,3147,-1.4251708984375,1.10791015625,-0.178466796875
11.085,362,3147,1711,3147,-1.7347412109375,0.703369140625,-0.148193359375
11.085,360,3147,1623,3032,-1.6875,0.4423828125,-0.039306640625
11.085,351,3147,1578,2813,-1.4207763671875,0.363525390625,0.0501708984375
11.085,348,3147,1472,2364,-1.0843505859375,0.359130859375,0.105712890625
11.085,344,3147,1370,1869,-0.793701171875,0.3514404296875,0.1544189453125
11.114,338,3147,1213,1536,-0.609375,0.3055419921875,0.18994140625
11.124,334,3147,1112,958,-0.52734375,0.2738037109375,0.1761474609375
11.165,326,3147,1067,669,-0.5338134765625,0.34765625,0.116943359375
11.184,324,3147,1064,452,-0.611572265625,0.3944091796875,0.071044921875
11.185,323,2916,966,354,-0.7303466796875,0.2965087890625,0.05810546875
11.195,318,2652,996,348,-0.8226318359375,0.1488037109375,0.008544921875
11.234,319,2478,949,346,-0.8370361328125,0.0670166015625,-0.0775146484375
11.274,316,1914,891,344,-0.7939453125,0.0888671875,-0.107666015625
11.285,316,1608,882,337,-0.74365234375,0.1527099609375,-0.08837890625
11.295,317,1591,860,342,-0.74365234375,0.1527099609375,-0.08837890625
11.305,315,1404,759,336,-0.69384765625,0.295166015625,-0.0281982421875
11.314,316,1397,800,334,-0.6710205078125,0.3663330078125,0.0052490234375
11.396,315,1331,784,346,-0.6710205078125,0.3663330078125,0.0052490234375
11.414,313,1471,777,338,-0.6171875,0.470947265625,0.0457763671875
11.415,314,1598,826,338,-0.5809326171875,0.467041015625,0.0570068359375
11.416,310,1781,832,344,-0.5809326171875,0.467041015625,0.0570068359375
11.416,304,2151,844,334,-0.5958251953125,0.4124755859375,0.016845703125
11.416,315,2422,894,344,-0.6412353515625,0.4085693359375,-0.021728515625
11.416,315,2559,894,338,-0.6412353515625,0.4085693359375,-0.021728515625
11.416,316,2988,938,347,-0.7010498046875,0.32080078125,-0.0496826171875
11.416,316,3134,944,348,-0.7225341796875,0.2464599609375,-0.07861328125
11.416,308,3147,947,521,-0.7225341796875,0.2464599609375,-0.07861328125
11.434,318,3147,958,818,-0.7767333984375,0.215087890625,-0.0826416015625
11.434,317,3147,996,1018,-0.78759765625,0.2249755859375,-0.041748046875
11.434,323,3147,1018,1320,-0.78759765625,0.2249755859375,-0.041748046875
11.435,328,3147,1155,1781,-0.6571044921875,0.407958984375,0.114501953125
11.435,334,3147,1254,2074,-0.5108642578125,0.459716796875,0.1680908203125
11.435,338,3147,1355,2292,-0.5108642578125,0.459716796875,0.1680908203125
11.435,338,3147,1541,2599,-0.3802490234375,0.3714599609375,0.232177734375
11.435,356,3147,1687,2861,-0.510986328125,0.383544921875,0.266845703125
11.435,361,3147,1835,2959,-0.510986328125,0.383544921875,0.266845703125
11.435,369,3147,2035,3126,-1.104248046875,0.4542236328125,0.097900390625
11.435,371,3147,2164,3147,-1.104248046875,0.4542236328125,0.097900390625
11.435,364,3147,2246,3147,-1.432861328125,0.5654296875,-0.069580078125
11.435,373,3147,2394,3147,-1.7989501953125,0.84619140625,-0.33740234375
11.435,374,3147,2418,3147,-1.7989501953125,0.84619140625,-0.33740234375
11.435,375,3147,2372,3147,-1.80517578125,0.8900146484375,-0.295654296875
11.436,364,3147,2204,3147,-1.1085205078125,0.7320556640625,0.125
11.436,373,3147,2102,3147,-1.1085205078125,0.7320556640625,0.125
11.593,371,3147,2047,3147,-0.712646484375,0.8421630859375,0.1815185546875
11.604,370,3147,1912,3147,-1.019287109375,0.9658203125,-0.0499267578125
11.604,369,3147,1848,3147,-1.019287109375,0.9658203125,-0.0499267578125
11.604,364,3147,1772,3147,-1.458251953125,0.7828369140625,-0.0794677734375
11.795,360,3147,1662,3042,-1.6624755859375,0.455810546875,0.0086669921875
11.796,359,3147,1607,2832,-1.6624755859375,0.455810546875,0.0086669921875
11.803,353,3147,1516,2580,-1.4405517578125,0.406005859375,0.0511474609375
11.804,332,3147,1370,2061,-0.8817138671875,0.4327392578125,0.083251953125
11.804,337,3147,1209,1743,-0.8817138671875,0.4327392578125,0.083251953125
11.805,332,3147,1131,1357,-0.6669921875,0.384521484375,0.1502685546875
11.815,327,3147,1018,621,-0.4906005859375,0.3892822265625,0.1654052734375
11.815,323,3147,1014,359,-0.4906005859375,0.3892822265625,0.1654052734375
11.816,323,3044,999,356,-0.5462646484375,0.4049072265625,0.106689453125
11.823,321,2612,951,347,-0.8106689453125,0.156005859375,0.044921875
11.824,318,2299,917,323,-0.8106689453125,0.156005859375,0.044921875
11.824,316,2008,921,348,-0.8502197265625,0.075927734375,-0.0367431640625
11.825,314,1428,785,346,-0.8057861328125,0.10205078125,-0.0906982421875
11.825,316,1340,784,333,-0.74560546875,0.1561279296875,-0.1004638671875
11.845,314,1199,725,336,-0.7159423828125,0.177978515625,-0.087158203125
11.883,299,1131,744,342,-0.703857421875,0.2115478515625,-0.0499267578125
11.905,315,1112,725,315,-0.6614990234375,0.2838134765625,-0.0064697265625
11.915,314,1160,754,334,-0.5897216796875,0.368896484375,0.0223388671875
11.925,313,1359,766,336,-0.5235595703125,0.44677734375,0.0426025390625
11.944,315,1560,803,342,-0.4940185546875,0.4913330078125,0.03759765625
11.973,316,1786,827,338,-0.5245361328125,0.48828125,-0.00146484375
12.014,311,2102,853,336,-0.602783203125,0.4605712890625,-0.0498046875
12.024,315,2280,846,342,-0.68115234375,0.4219970703125,-0.0804443359375
12.045,316,2497,885,347,-0.7421875,0.3631591796875,-0.074462890625
12.054,323,2930,932,330,-0.7864990234375,0.28515625,-0.047607421875
12.065,318,3147,927,363,-0.7962646484375,0.2130126953125,-0.0416259765625
12.125,318,3147,957,555,-0.7742919921875,0.1864013671875,-0.0379638671875
12.134,321,3147,1020,1050,-0.7034912109375,0.1998291015625,-0.0052490234375
12.155,323,3147,1167,1289,-0.581787109375,0.235107421875,0.0404052734375
12.164,332,3147,1234,1643,-0.454833984375,0.2996826171875,0.0904541015625
12.183,343,3147,1255,2124,-0.326904296875,0.371337890625,0.1563720703125
12.224,347,3147,1411,2400,-0.2203369140625,0.443359375,0.2357177734375
12.225,354,3147,1555,2683,-0.212158203125,0.52880859375,0.28076171875
12.225,364,3147,1830,2988,-0.3983154296875,0.6387939453125,0.299560546875
12.234,375,3147,2007,3114,-0.808349609375,0.689697265625,0.2667236328125
12.234,372,3147,2142,3147,-1.3203125,0.6072998046875,0.122802734375
12.234,376,3147,2375,3147,-1.7740478515625,0.49072265625,-0.06103515625
12.235,376,3147,2472,3147,-2.037353515625,0.4599609375,-0.207763671875
12.236,376,3147,2489,3147,-2.034423828125,0.543701171875,-0.2835693359375
12.236,378,3147,2359,3147,-1.80712890625,0.7266845703125,-0.2540283203125
12.254,376,3147,2203,3147,-1.3507080078125,0.8953857421875,-0.1575927734375
12.255,376,3147,2058,3147,-0.8245849609375,1.0303955078125,-0.046630859375
12.260,378,3147,2050,3147,-0.6064453125,1.1490478515625,-0.017822265625
12.274,373,3147,1955,3147,-0.8145751953125,1.1396484375,-0.07568359375
12.303,371,3147,1907,3147,-1.274169921875,0.9864501953125,-0.100341796875
12.304,361,3147,1838,3147,-1.654541015625,0.7659912109375,-0.1025390625
12.304,360,3147,1709,3048,-1.7362060546875,0.6136474609375,-0.0882568359375
12.305,356,3147,1649,2936,-1.5823974609375,0.560546875,-0.04296875
12.306,356,3147,1537,2648,-1.3125,0.543212890625,0.0047607421875
12.313,346,3147,1387,1929,-1.0096435546875,0.5306396484375,0.0361328125
12.315,334,3147,1241,1497,-0.7491455078125,0.4805908203125,0.07177734375
12.315,334,3147,1054,1048,-0.5543212890625,0.392578125,0.1385498046875
12.324,324,3146,947,362,-0.462890625,0.316650390625,0.1807861328125
12.325,321,2741,946,359,-0.4964599609375,0.2386474609375,0.1795654296875
12.325,323,2445,891,348,-0.5906982421875,0.1405029296875,0.1680908203125
12.325,316,2021,777,346,-0.6693115234375,0.0574951171875,0.0718994140625
12.325,316,1577,777,344,-0.6954345703125,0.051025390625,-0.0933837890625
12.333,319,1476,777,347,-0.6849365234375,0.1275634765625,-0.1968994140625
12.334,314,1196,734,347,-0.694580078125,0.2318115234375,-0.218994140625
12.335,314,1058,725,338,-0.723388671875,0.32080078125,-0.1978759765625
12.335,313,959,684,330,-0.7186279296875,0.3533935546875,-0.1473388671875
12.336,315,927,711,334,-0.6912841796875,0.3604736328125,-0.0543212890625
12.336,316,1467,761,316,-0.6766357421875,0.4180908203125,0.02734375
12.354,315,1623,787,334,-0.6978759765625,0.38623046875,0.00146484375
12.354,316,2320,879,344,-0.7393798828125,0.2598876953125,-0.1094970703125
12.355,313,2560,883,344,-0.75439453125,0.319580078125,-0.0849609375
12.355,318,3147,890,419,-0.705322265625,0.3863525390625,-0.0106201171875
12.404,327,3147,1156,1577,-0.4154052734375,0.3226318359375,0.0419921875
12.405,334,3147,1222,1943,-0.277099609375,0.3895263671875,0.1109619140625
12.405,344,3147,1222,2230,-0.1689453125,0.4490966796875,0.195068359375
12.413,352,3147,1398,2684,-0.1585693359375,0.509521484375,0.2979736328125
12.413,359,3147,1546,2901,-0.322509765625,0.618896484375,0.33837890625
12.414,360,3147,1705,3078,-0.322509765625,0.618896484375,0.33837890625
12.414,374,3147,2005,3147,-1.2723388671875,0.96484375,0.18310546875
12.415,375,3147,2113,3147,-1.8656005859375,0.7333984375,-0.0401611328125
12.434,375,3147,2238,3147,-1.8656005859375,0.7333984375,-0.0401611328125
12.443,375,3147,2361,3147,-2.201416015625,0.361572265625,-0.4915771484375
12.465,376,3147,2341,3147,-1.9429931640625,0.5771484375,-0.4117431640625
12.473,374,3147,2240,3147,-1.9429931640625,0.5771484375,-0.4117431640625
12.478,373,3147,2024,3147,-0.843505859375,0.7890625,0.122314453125
12.503,371,3147,1983,3147,-0.63671875,1.0706787109375,0.1734619140625
12.505,373,3147,1959,3147,-0.63671875,1.0706787109375,0.1734619140625
12.514,371,3147,1828,3147,-1.330322265625,1.2525634765625,-0.092529296875
12.515,364,3147,1762,3147,-1.613525390625,0.9139404296875,-0.1173095703125
12.524,356,3147,1686,3147,-1.613525390625,0.9139404296875,-0.1173095703125
12.533,359,3147,1548,2898,-1.44873046875,0.5013427734375,-0.0341796875
12.533,334,3147,1472,2538,-1.2442626953125,0.4866943359375,-0.029541015625
12.534,346,3147,1334,2076,-0.9974365234375,0.4501953125,-0.007080078125
12.534,333,3147,1178,1659,-0.9974365234375,0.4501953125,-0.007080078125
12.535,330,3147,989,705,-0.59033203125,0.244873046875,0.15673828125
12.542,321,3147,978,363,-0.5091552734375,0.199462890625,0.19384765625
12.543,323,2869,986,359,-0.5091552734375,0.199462890625,0.19384765625
12.543,318,2442,958,348,-0.534423828125,0.193603515625,0.2064208984375
12.543,318,1880,867,347,-0.7003173828125,0.078369140625,0.102783203125
12.544,318,1437,834,346,-0.7003173828125,0.078369140625,0.102783203125
12.545,316,1289,785,346,-0.73876953125,0.0640869140625,-0.0482177734375
12.556,316,1053,767,334,-0.6649169921875,0.25341796875,-0.1884765625
12.563,313,978,754,336,-0.6649169921875,0.25341796875,-0.1884765625
12.564,313,912,723,332,-0.6497802734375,0.3311767578125,-0.1849365234375
12.573,316,841,767,336,-0.599853515625,0.38330078125,-0.0350341796875
12.579,313,883,764,333,-0.599853515625,0.38330078125,-0.0350341796875
12.614,313,947,780,336,-0.5789794921875,0.39013671875,0.0311279296875
12.615,313,998,797,324,-0.5753173828125,0.3973388671875,0.07080078125
12.615,313,1116,780,334,-0.5753173828125,0.3973388671875,0.07080078125
12.624,313,1274,815,344,-0.5965576171875,0.3812255859375,0.070556640625
12.644,298,1616,840,336,-0.640869140625,0.3736572265625,0.0498046875
12.664,313,1891,868,338,-0.69384765625,0.3529052734375,0.0091552734375
12.672,315,2275,905,336,-0.732421875,0.31201171875,-0.047119140625
12.723,316,2638,900,346,-0.762451171875,0.2880859375,-0.0908203125
12.724,314,3099,932,346,-0.758056640625,0.281982421875,-0.110107421875
12.724,323,3147,959,501,-0.7127685546875,0.287841796875,-0.083251953125
12.725,318,3147,922,830,-0.66943359375,0.32080078125,-0.0205078125
12.725,323,3147,1000,1281,-0.6268310546875,0.3819580078125,0.021240234375
12.726,324,3147,1162,1580,-0.5552978515625,0.4346923828125,0.0328369140625
12.733,336,3147,1266,2122,-0.4788818359375,0.4451904296875,0.064453125
12.733,344,3147,1320,2347,-0.4176025390625,0.4169921875,0.168212890625
12.733,349,3147,1447,2571,-0.356689453125,0.347900390625,0.287353515625
12.734,361,3147,1655,3003,-0.3502197265625,0.2891845703125,0.3648681640625
12.734,364,3147,1826,3147,-0.5335693359375,0.3509521484375,0.369140625
12.762,371,3147,1959,3147,-0.9254150390625,0.529541015625,0.2264404296875
12.763,371,3147,2135,3147,-1.409423828125,0.7008056640625,-0.049560546875
12.763,373,3147,2275,3147,-1.8421630859375,0.7791748046875,-0.3560791015625
12.773,371,3147,2341,3147,-2.1021728515625,0.804443359375,-0.560791015625
12.804,371,3147,2275,3147,-2.1197509765625,0.8397216796875,-0.501708984375
12.805,371,3147,2230,3147,-1.7440185546875,0.7847900390625,-0.16015625
12.805,361,3147,2118,3147,-1.0404052734375,0.70458984375,0.2249755859375
12.823,371,3147,2037,3147,-0.55029296875,0.8671875,0.3505859375
12.824,371,3147,1973,3147,-0.5850830078125,1.1395263671875,0.158935546875
12.833,371,3147,1865,3147,-0.981201171875,1.1693115234375,-0.063720703125
12.853,364,3147,1769,3147,-1.43603515625,0.90966796875,-0.1304931640625
12.855,361,3147,1733,3147,-1.6717529296875,0.608154296875,-0.11572265625
12.865,360,3147,1669,3147,-1.6474609375,0.487548828125,-0.0836181640625
12.884,352,3147,1555,2864,-1.454345703125,0.51318359375,-0.049560546875
12.923,347,3147,1470,2576,-1.1795654296875,0.539794921875,-0.0006103515625
12.925,344,3147,1317,2124,-0.90283203125,0.504638671875,0.062255859375
12.934,332,3147,1108,1422,-0.673095703125,0.4112548828125,0.1339111328125
12.945,330,3147,1042,888,-0.510498046875,0.3330078125,0.192138671875
12.974,325,3147,1005,519,-0.451904296875,0.3333740234375,0.20751953125
13.034,323,2974,974,334,-0.512939453125,0.32275390625,0.197021484375
13.044,316,2630,922,354,-0.6466064453125,0.2359619140625,0.1640625
13.059,318,2368,919,356,-0.775146484375,0.1220703125,0.0648193359375
13.104,316,1727,840,336,-0.843505859375,0.0810546875,-0.060546875
13.114,316,1362,790,336,-0.8392333984375,0.1405029296875,-0.1326904296875
13.124,315,1125,778,347,-0.7884521484375,0.19921875,-0.1634521484375
13.215,316,1031,723,332,-0.748779296875,0.2159423828125,-0.16455078125
13.216,313,1018,720,338,-0.7181396484375,0.239013671875,-0.1197509765625
13.224,315,1018,679,334,-0.658203125,0.2889404296875,-0.03955078125
13.225,315,1091,694,336,-0.580322265625,0.33837890625,0.047607421875
13.225,313,1209,666,337,-0.5107421875,0.3555908203125,0.10693359375
13.233,315,1353,667,338,-0.4666748046875,0.354736328125,0.11474609375
13.233,313,1788,710,334,-0.4801025390625,0.384765625,0.083984375
13.234,313,2065,678,344,-0.5599365234375,0.4451904296875,0.044189453125
13.234,306,2273,694,338,-0.673095703125,0.484619140625,0.0130615234375
13.234,306,2759,694,315,-0.751220703125,0.4649658203125,-0.0177001953125
13.235,314,3032,761,346,-0.75537109375,0.403564453125,-0.0552978515625
13.254,316,3147,810,360,-0.7381591796875,0.341796875,-0.0533447265625
13.254,316,3147,844,766,-0.72412109375,0.295166015625,-0.006103515625
13.255,316,3147,918,1104,-0.70361328125,0.282470703125,0.0465087890625
13.263,316,3147,992,1167,-0.69189453125,0.315185546875,0.0677490234375
13.263,318,3147,894,1640,-0.6514892578125,0.385009765625,0.036865234375
13.264,323,3147,996,1819,-0.5682373046875,0.4593505859375,0.02197265625
13.264,328,3147,1163,2035,-0.5157470703125,0.4620361328125,0.015625
13.292,334,3147,1323,2379,-0.50146484375,0.3828125,-0.01318359375
13.315,347,3147,1456,2569,-0.4970703125,0.350341796875,-0.02783203125
13.325,354,3147,1593,2715,-0.59912109375,0.4815673828125,-0.035400390625
13.344,361,3147,1869,2944,-0.90185546875,0.66845703125,-0.070068359375
13.352,369,3147,2012,3099,-1.2955322265625,0.7388916015625,-0.08837890625
13.365,365,3147,2158,3147,-1.558837890625,0.65185546875,-0.0072021484375
13.393,365,3147,2269,3147,-1.587646484375,0.5418701171875,0.1170654296875
13.395,371,3147,2381,3147,-1.4454345703125,0.5750732421875,0.14599609375
13.404,371,3147,2407,3147,-1.321044921875,0.7777099609375,0.046875
13.434,364,3147,2330,3147,-1.3228759765625,0.992919921875,-0.0679931640625
13.444,364,3147,2210,3147,-1.2725830078125,0.9427490234375,-0.0599365234375
13.454,369,3147,2137,3147,-1.020263671875,0.6962890625,0.0728759765625
13.465,369,3147,2053,3147,-1.020263671875,0.6962890625,0.0728759765625
13.466,364,3147,1948,3147,-0.8184814453125,0.7557373046875,0.052978515625
13.504,364,3147,1874,3147,-1.05908203125,0.88818359375,-0.0667724609375
13.534,363,3147,1801,3147,-1.05908203125,0.88818359375,-0.0667724609375
13.536,352,3147,1693,3098,-1.4619140625,0.6766357421875,-0.0079345703125
13.544,359,3147,1602,2981,-1.3917236328125,0.52978515625,0.076416015625
13.545,354,3147,1553,2772,-1.3917236328125,0.52978515625,0.076416015625
13.545,348,3147,1428,2337,-1.10009765625,0.4964599609375,0.1859130859375
13.553,344,3147,1370,2139,-0.98486328125,0.5198974609375,0.201171875
13.555,338,3147,1265,1800,-0.98486328125,0.5198974609375,0.201171875
13.624,331,3147,1050,1132,-0.8353271484375,0.43994140625,0.1629638671875
13.634,328,3147,986,761,-0.779541015625,0.369140625,0.1279296875
13.634,323,3147,978,402,-0.779541015625,0.369140625,0.1279296875
13.643,318,2942,946,329,-0.7587890625,0.2666015625,0.0220947265625
13.645,321,2551,946,348,-0.79150390625,0.1578369140625,0.03564453125
13.645,318,2037,849,348,-0.79150390625,0.1578369140625,0.03564453125
13.645,316,1351,763,336,-0.806884765625,0.064697265625,0.0155029296875
13.646,315,1026,698,342,-0.720947265625,0.1236572265625,-0.0150146484375
13.646,315,927,639,330,-0.720947265625,0.1236572265625,-0.0150146484375
13.654,310,780,625,332,-0.5321044921875,0.2899169921875,-0.035400390625
13.654,310,684,658,334,-0.5321044921875,0.2899169921875,-0.035400390625
13.655,313,734,654,332,-0.483154296875,0.3616943359375,-0.0155029296875
13.663,313,830,695,333,-0.4552001953125,0.38134765625,0.0484619140625
13.664,313,949,744,334,-0.4552001953125,0.38134765625,0.0484619140625
13.665,313,1107,754,329,-0.4688720703125,0.3546142578125,0.0474853515625
13.665,315,1647,827,334,-0.5638427734375,0.3509521484375,0.0264892578125
13.665,315,1948,865,336,-0.5638427734375,0.3509521484375,0.0264892578125
13.665,315,2281,871,346,-0.618896484375,0.354736328125,-0.0078125
13.665,315,2859,888,348,-0.6817626953125,0.3212890625,-0.059326171875
13.665,318,3147,933,355,-0.6817626953125,0.3212890625,-0.059326171875
13.665,317,3147,938,561,-0.69091796875,0.2861328125,-0.051513671875
13.665,318,3147,959,1042,-0.6905517578125,0.2757568359375,0.0382080078125
13.666,323,3147,1064,1375,-0.6905517578125,0.2757568359375,0.0382080078125
13.666,332,3147,1220,1735,-0.6728515625,0.2880859375,0.0621337890625
13.666,336,3147,1323,2166,-0.5274658203125,0.464599609375,0.182861328125
13.666,346,3147,1528,2408,-0.5274658203125,0.464599609375,0.182861328125
13.666,354,3147,1643,2593,-0.442138671875,0.4901123046875,0.2244873046875
13.666,351,3147,1774,2769,-0.45361328125,0.47412109375,0.26171875
13.673,369,3147,1989,3047,-0.6318359375,0.50439453125,0.2200927734375
13.684,371,3147,2153,3147,-0.93017578125,0.580810546875,0.07421875
13.733,371,3147,2354,3147,-1.578857421875,0.66259765625,-0.291259765625
13.744,372,3147,2418,3147,-1.578857421875,0.66259765625,-0.291259765625
13.744,373,3147,2461,3147,-1.781005859375,0.70458984375,-0.321533203125
13.745,373,3147,2479,3147,-1.602783203125,0.7882080078125,0.00537109375
13.745,373,3147,2375,3147,-1.602783203125,0.7882080078125,0.00537109375
13.745,373,3147,2268,3147,-1.29150390625,0.8277587890625,0.2037353515625
13.755,371,3147,2076,3147,-0.6878662109375,1.023193359375,0.04150390625
13.764,369,3147,2012,3147,-0.6878662109375,1.023193359375,0.04150390625
13.775,364,3147,1963,3147,-0.733642578125,1.0987548828125,-0.1337890625
13.963,362,3147,1757,3147,-1.4228515625,0.8621826171875,-0.1260986328125
13.964,361,3147,1664,3147,-1.4228515625,0.8621826171875,-0.1260986328125
13.964,356,3147,1588,3032,-1.6737060546875,0.6739501953125,-0.0328369140625
13.964,348,3147,1470,2722,-1.4154052734375,0.4254150390625,0.153564453125
13.965,347,3147,1369,2435,-1.4154052734375,0.4254150390625,0.153564453125
13.965,334,3147,1239,2070,-1.1484375,0.4410400390625,0.1658935546875
13.965,332,3147,1064,1462,-0.898193359375,0.4736328125,0.1661376953125
13.965,328,3147,1050,1014,-0.721923828125,0.444091796875,0.175537109375
13.965,327,3147,1038,428,-0.611328125,0.3646240234375,0.1787109375
13.965,322,2912,1014,344,-0.5579833984375,0.3406982421875,0.1436767578125
13.965,313,2584,1014,342,-0.5673828125,0.356689453125,0.1107177734375
13.965,321,2317,994,356,-0.6285400390625,0.3118896484375,0.1060791015625
13.965,318,1773,858,338,-0.7203369140625,0.20263671875,0.0650634765625
13.965,313,1452,833,336,-0.7791748046875,0.106689453125,-0.0140380859375
13.965,315,1155,763,334,-0.767822265625,0.0941162109375,-0.0623779296875
13.965,300,874,766,334,-0.7144775390625,0.1453857421875,-0.08056640625
13.965,313,913,748,334,-0.6734619140625,0.205810546875,-0.0980224609375
13.965,330,883,713,336,-0.6402587890625,0.2474365234375,-0.0927734375
14.045,312,951,698,334,-0.5831298828125,0.2724609375,-0.0577392578125
14.053,315,996,711,336,-0.5203857421875,0.3135986328125,-0.005615234375
14.054,313,1207,739,336,-0.476806640625,0.357421875,0.041748046875
14.054,314,1834,790,317,-0.457763671875,0.3614501953125,0.065673828125
14.054,315,2151,840,318,-0.4830322265625,0.357421875,0.0654296875
14.054,313,2481,872,342,-0.544677734375,0.386962890625,0.0467529296875
14.054,315,3068,894,347,-0.595703125,0.41796875,0.015380859375
14.054,315,3147,917,347,-0.630126953125,0.43212890625,-0.0076904296875
14.055,323,3147,978,603,-0.646240234375,0.4227294921875,-0.0074462890625
14.064,313,3147,932,1132,-0.6317138671875,0.3538818359375,-0.0311279296875
14.064,318,3147,952,1516,-0.6072998046875,0.2659912109375,-0.0716552734375
14.074,327,3147,1045,1816,-0.5782470703125,0.2608642578125,-0.056884765625
14.095,336,3147,1280,2279,-0.531494140625,0.3609619140625,0.022705078125
14.095,346,3147,1450,2484,-0.4716796875,0.4705810546875,0.125244140625
14.104,351,3147,1595,2722,-0.4549560546875,0.5244140625,0.2115478515625
14.175,360,3147,1785,3059,-0.5850830078125,0.5634765625,0.25830078125
14.176,371,3147,1899,3147,-0.8975830078125,0.5797119140625,0.205078125
14.176,370,3147,1985,3147,-1.285888671875,0.5377197265625,0.04296875
14.176,371,3147,2254,3147,-1.63134765625,0.5155029296875,-0.1156005859375
14.176,371,3147,2325,3147,-1.843017578125,0.5838623046875,-0.16552734375
14.176,356,3147,2360,3147,-1.841552734375,0.7061767578125,-0.07666015625
14.204,359,3147,2128,3147,-1.650634765625,0.816650390625,0.0787353515625
14.204,371,3147,2012,3147,-1.2886962890625,0.86865234375,0.1776123046875
14.204,352,3147,1826,3147,-0.8486328125,0.90185546875,0.1553955078125
14.275,351,3147,1757,3147,-0.648681640625,0.9676513671875,0.0189208984375
14.276,361,3147,1730,3147,-0.8558349609375,0.998046875,-0.1602783203125
14.276,360,3147,1701,3147,-1.29736328125,0.8973388671875,-0.26025390625
14.276,356,3147,1627,3147,-1.6568603515625,0.6842041015625,-0.23779296875
14.276,351,3147,1550,3147,-1.747314453125,0.520751953125,-0.1619873046875
14.276,344,3147,1430,3078,-1.6124267578125,0.479736328125,-0.064697265625
14.276,338,3147,1201,2571,-1.341064453125,0.440185546875,0.033935546875
14.276,333,3147,1067,2308,-1.030029296875,0.3648681640625,0.0982666015625
14.365,327,3147,949,1914,-0.750732421875,0.3367919921875,0.1551513671875
14.365,323,3147,922,1065,-0.5240478515625,0.3990478515625,0.2117919921875
14.366,321,3147,934,599,-0.421875,0.474853515625,0.2169189453125
14.366,307,3147,898,327,-0.4891357421875,0.419189453125,0.187744140625
14.366,315,2647,808,329,-0.61181640625,0.2467041015625,0.1397705078125
14.366,304,2299,802,328,-0.6832275390625,0.1148681640625,-0.0098876953125
14.366,316,1914,744,322,-0.67431640625,0.12890625,-0.1959228515625
14.366,316,1806,759,346,-0.6353759765625,0.2266845703125,-0.2877197265625
14.384,315,1480,735,325,-0.651611328125,0.3060302734375,-0.2884521484375
14.385,315,1380,697,337,-0.6663818359375,0.341064453125,-0.225830078125
14.385,315,1278,674,323,-0.6297607421875,0.361083984375,-0.113525390625
14.474,315,1243,683,336,-0.5877685546875,0.4202880859375,0.024658203125
14.502,313,1428,673,317,-0.5709228515625,0.4847412109375,0.1278076171875
14.504,315,1496,653,334,-0.5709228515625,0.4847412109375,0.1278076171875
14.513,314,1850,714,318,-0.6478271484375,0.4503173828125,0.123779296875
14.523,301,2024,733,323,-0.7135009765625,0.3935546875,0.07421875
14.564,315,2192,745,355,-0.7135009765625,0.3935546875,0.07421875
14.574,321,2608,806,338,-0.7347412109375,0.2811279296875,-0.0296630859375
14.574,304,2925,852,336,-0.725341796875,0.2471923828125,-0.069580078125
14.583,315,3112,889,341,-0.725341796875,0.2471923828125,-0.069580078125
14.583,315,3147,943,597,-0.7054443359375,0.3424072265625,-0.0653076171875
14.584,317,3147,921,834,-0.6754150390625,0.37451171875,-0.01904296875
14.585,316,3147,913,1041,-0.6754150390625,0.37451171875,-0.01904296875
14.606,318,3147,954,1598,-0.607666015625,0.3541259765625,0.01806640625
14.614,323,3147,936,1854,-0.527587890625,0.3521728515625,0.021728515625
14.614,323,3147,992,2122,-0.527587890625,0.3521728515625,0.021728515625
14.615,330,3147,1303,2538,-0.364990234375,0.3897705078125,0.1063232421875
14.615,338,3147,1445,2769,-0.3671875,0.4326171875,0.1627197265625
14.622,348,3147,1593,2929,-0.3671875,0.4326171875,0.1627197265625
14.623,360,3147,1840,3147,-0.8270263671875,0.5643310546875,0.1607666015625
14.675,370,3147,1978,3147,-1.2174072265625,0.59130859375,0.0443115234375
14.675,371,3147,2104,3147,-1.2174072265625,0.59130859375,0.0443115234375
14.683,371,3147,2343,3147,-1.8341064453125,0.4742431640625,-0.15966796875
14.684,373,3147,2430,3147,-1.8802490234375,0.4981689453125,-0.1280517578125
14.684,373,3147,2473,3147,-1.8802490234375,0.4981689453125,-0.1280517578125
14.685,359,3147,2458,3147,-1.3914794921875,0.877197265625,0.161376953125
14.689,373,3147,2409,3147,-1.3914794921875,0.877197265625,0.161376953125
14.694,373,3147,2275,3147,-0.9915771484375,0.9879150390625,0.2366943359375
14.695,360,3147,1955,3147,-0.6802978515625,0.9822998046875,0.1036376953125
14.695,363,3147,1892,3147,-0.6802978515625,0.9822998046875,0.1036376953125
14.714,364,3147,1850,3147,-0.858154296875,0.7882080078125,-0.02734375
14.714,360,3147,1755,3147,-1.46630859375,0.4864501953125,-0.06591796875
14.715,361,3147,1689,3147,-1.46630859375,0.4864501953125,-0.06591796875
14.715,364,3147,1615,3115,-1.6458740234375,0.4539794921875,-0.0328369140625
14.730,351,3147,1503,2927,-1.37841796875,0.413818359375,0.1463623046875
14.744,348,3147,1434,2722,-1.37841796875,0.413818359375,0.1463623046875
14.745,342,3147,1366,2477,-1.1246337890625,0.4815673828125,0.215087890625
14.785,336,3147,1131,1830,-0.7532958984375,0.594970703125,0.2066650390625
14.785,330,3147,1050,1379,-0.7532958984375,0.594970703125,0.2066650390625
14.785,327,3147,1014,910,-0.682373046875,0.55078125,0.14111328125
14.794,322,3147,936,334,-0.717529296875,0.3399658203125,-0.02392578125
14.815,321,2840,897,356,-0.717529296875,0.3399658203125,-0.02392578125
14.846,321,2469,917,348,-0.779541015625,0.19091796875,-0.031982421875
14.885,322,1914,811,347,-0.750244140625,0.019775390625,-0.06103515625
14.894,317,1413,754,346,-0.750244140625,0.019775390625,-0.06103515625
14.895,314,1156,705,338,-0.667724609375,0.064208984375,-0.0771484375
14.913,312,996,682,338,-0.5977783203125,0.1566162109375,-0.078857421875
14.915,315,933,666,334,-0.566650390625,0.2742919921875,-0.0780029296875
14.915,315,939,668,334,-0.546142578125,0.399658203125,-0.056884765625
15.004,308,1026,661,333,-0.5152587890625,0.4910888671875,-0.0096435546875
15.005,314,1153,685,336,-0.4873046875,0.51708984375,0.02880859375
15.015,313,1331,651,334,-0.4891357421875,0.506103515625,0.0394287109375
15.015,313,1689,679,338,-0.5281982421875,0.4808349609375,0.0294189453125
15.015,315,1949,738,338,-0.5958251953125,0.4544677734375,0.009521484375
15.024,313,2167,765,336,-0.660400390625,0.419677734375,-0.0157470703125
15.024,316,2532,840,342,-0.7021484375,0.352783203125,-0.0521240234375
15.025,315,2833,859,347,-0.7291259765625,0.283935546875,-0.0780029296875
15.034,316,3147,894,344,-0.7076416015625,0.226318359375,-0.0872802734375
15.043,316,3147,934,744,-0.6439208984375,0.1964111328125,-0.0855712890625
15.075,316,3147,933,1034,-0.6051025390625,0.2147216796875,-0.0626220703125
15.092,317,3147,939,1427,-0.5814208984375,0.2547607421875,-0.0301513671875
15.093,304,3147,1173,1983,-0.54541015625,0.310791015625,0.021484375
15.093,334,3147,1283,2228,-0.4720458984375,0.3404541015625,0.111328125
15.093,338,3147,1359,2490,-0.34521484375,0.3206787109375,0.233154296875
15.094,354,3147,1582,2881,-0.2425537109375,0.3427734375,0.3492431640625
15.094,361,3147,1762,3064,-0.326171875,0.544921875,0.4136962890625
15.095,371,3147,1948,3147,-0.6845703125,0.85693359375,0.3443603515625
15.102,361,3147,2213,3147,-1.21142578125,0.9853515625,0.129638671875
15.103,373,3147,2334,3147,-1.7269287109375,0.8433837890625,-0.086181640625
15.103,373,3147,2418,3147,-2.081787109375,0.6162109375,-0.22998046875
15.103,373,3147,2477,3147,-2.1812744140625,0.5008544921875,-0.265869140625
15.104,374,3147,2368,3147,-1.955322265625,0.525390625,-0.1224365234375
15.104,373,3147,2235,3147,-1.3770751953125,0.6097412109375,0.0814208984375
15.125,371,3147,2087,3147,-0.76513671875,0.8492431640625,0.146240234375
15.125,371,3147,1996,3147,-0.540283203125,1.1654052734375,-0.0086669921875
15.165,369,3147,1929,3147,-0.6837158203125,1.1942138671875,-0.2286376953125
15.174,361,3147,1813,3147,-1.04638671875,0.9251708984375,-0.26611328125
15.174,360,3147,1748,3147,-1.4793701171875,0.63037109375,-0.177734375
15.174,360,3147,1743,3147,-1.7138671875,0.47216796875,-0.094482421875
15.174,355,3147,1647,3085,-1.6507568359375,0.4163818359375,0.0029296875
15.184,348,3147,1579,2909,-1.431396484375,0.3939208984375,0.0975341796875
15.204,346,3147,1497,2616,-1.16455078125,0.4090576171875,0.144775390625
15.235,336,3147,1271,1914,-0.872802734375,0.4471435546875,0.164306640625
15.265,327,3147,1198,1627,-0.6375732421875,0.4681396484375,0.183837890625
15.275,328,3147,1123,1214,-0.53662109375,0.4658203125,0.19970703125
15.293,324,3147,1067,605,-0.5599365234375,0.464111328125,0.1488037109375
15.303,323,3147,998,356,-0.6573486328125,0.430419921875,0.05126953125
15.323,319,2863,963,354,-0.7845458984375,0.3115234375,-0.001953125
15.323,317,2258,912,344,-0.88330078125,0.1385498046875,-0.04736328125
15.324,318,1860,860,344,-0.89990234375,0.00634765625,-0.1436767578125
15.324,318,1634,838,342,-0.833984375,-0.0029296875,-0.2159423828125
15.353,316,1228,785,336,-0.74365234375,0.0755615234375,-0.2098388671875
15.392,316,1083,750,337,-0.69287109375,0.1810302734375,-0.1658935546875
15.413,313,991,702,334,-0.656005859375,0.2738037109375,-0.109375
15.424,298,830,673,334,-0.5968017578125,0.33056640625,-0.0447998046875
15.435,313,907,678,334,-0.5286865234375,0.3870849609375,0.039794921875
15.474,313,1063,689,334,-0.4658203125,0.442138671875,0.1241455078125
15.483,315,1506,707,338,-0.43505859375,0.4605712890625,0.153564453125
15.484,313,1748,721,338,-0.465576171875,0.4290771484375,0.118408203125
15.485,308,2026,785,343,-0.5340576171875,0.408203125,0.0604248046875
15.485,313,2421,829,344,-0.585205078125,0.4117431640625,0.0150146484375
15.493,315,2770,865,342,-0.60888671875,0.3919677734375,-0.0206298828125
15.504,315,3125,900,338,-0.6424560546875,0.3800048828125,-0.044921875
15.504,315,3147,944,763,-0.6783447265625,0.3526611328125,-0.057373046875
15.505,318,3147,958,922,-0.6954345703125,0.2919921875,-0.0587158203125
15.505,321,3147,1017,1183,-0.6986083984375,0.2569580078125,-0.0260009765625
15.505,327,3147,1009,1773,-0.674072265625,0.2591552734375,0.0103759765625
15.514,332,3147,1204,2028,-0.6070556640625,0.3050537109375,0.062255859375
15.514,338,3147,1341,2254,-0.5126953125,0.40283203125,0.18359375
15.515,332,3147,1634,2648,-0.44970703125,0.46630859375,0.3013916015625
15.515,360,3147,1755,2837,-0.4913330078125,0.46728515625,0.3096923828125
15.533,363,3147,1894,3020,-0.697998046875,0.52587890625,0.2034912109375
15.533,364,3147,2056,3085,-1.0540771484375,0.6358642578125,0.0242919921875
15.534,371,3147,2280,3147,-1.4661865234375,0.70751953125,-0.1739501953125
15.535,375,3147,2382,3147,-1.8060302734375,0.69677734375,-0.2828369140625
15.535,375,3147,2467,3147,-1.8060302734375,0.69677734375,-0.2828369140625
15.554,374,3147,2541,3147,-1.669677734375,0.597900390625,-0.0159912109375
15.565,375,3147,2543,3147,-1.267333984375,0.7301025390625,0.135498046875
15.565,375,3147,2465,3147,-1.267333984375,0.7301025390625,0.135498046875
15.584,369,3147,2328,3147,-0.7423095703125,1.088623046875,-0.014892578125
15.584,373,3147,2207,3147,-0.7535400390625,1.010498046875,-0.0968017578125
15.593,369,3147,2041,3147,-0.7535400390625,1.010498046875,-0.0968017578125
15.605,365,3147,1954,3147,-0.9813232421875,0.5565185546875,-0.0301513671875
15.685,364,3147,1957,3147,-1.177001953125,0.5047607421875,0.002685546875
15.695,364,3147,1922,3147,-1.177001953125,0.5047607421875,0.002685546875
15.705,362,3147,1800,3147,-1.5443115234375,0.600341796875,0.023681640625
15.732,360,3147,1715,3076,-1.4205322265625,0.52099609375,0.0963134765625
15.784,359,3147,1704,2870,-1.4205322265625,0.52099609375,0.0963134765625
15.794,349,3147,1494,2428,-0.920166015625,0.505126953125,0.103759765625
15.804,345,3147,1382,2061,-0.7603759765625,0.5731201171875,0.066650390625
15.823,338,3147,1237,1689,-0.7603759765625,0.5731201171875,0.066650390625
15.844,331,3147,1160,1018,-0.70947265625,0.5291748046875,0.0203857421875
15.894,328,3147,1148,632,-0.744140625,0.50732421875,-0.003173828125
15.915,324,3147,1078,361,-0.744140625,0.50732421875,-0.003173828125
15.995,321,2886,1063,351,-0.84619140625,0.3143310546875,0.0179443359375
15.995,321,2467,1026,348,-0.916748046875,0.1812744140625,0.0318603515625
16.004,318,2058,1005,346,-0.916748046875,0.1812744140625,0.0318603515625
16.004,316,1372,913,337,-0.860107421875,0.0693359375,-0.068115234375
16.005,316,1058,830,338,-0.860107421875,0.0693359375,-0.068115234375
16.013,308,856,790,334,-0.771484375,0.107666015625,-0.072265625
16.013,315,759,723,332,-0.6494140625,0.231689453125,-0.008056640625
16.014,315,777,713,332,-0.6494140625,0.231689453125,-0.008056640625
16.023,312,700,713,334,-0.62158203125,0.348388671875,0.01220703125
16.024,310,758,731,332,-0.5174560546875,0.454345703125,0.0416259765625
16.024,313,829,765,334,-0.5174560546875,0.454345703125,0.0416259765625
16.024,313,869,806,334,-0.472412109375,0.435791015625,0.03076171875
16.024,313,1172,894,334,-0.51806640625,0.404052734375,-0.0343017578125
16.025,314,1355,890,338,-0.51806640625,0.404052734375,-0.0343017578125
16.094,313,2323,966,338,-0.606201171875,0.287353515625,-0.0662841796875
16.095,316,2797,1009,347,-0.606201171875,0.287353515625,-0.0662841796875
16.095,316,3147,1018,426,-0.559814453125,0.283935546875,-0.068359375
16.095,318,3147,1043,874,-0.5418701171875,0.3538818359375,-0.0704345703125
16.104,323,3147,1125,1222,-0.5418701171875,0.3538818359375,-0.0704345703125
16.105,328,3147,1267,1560,-0.5291748046875,0.3843994140625,-0.0350341796875
16.114,345,3147,1500,2080,-0.455810546875,0.4462890625,0.0950927734375
16.125,348,3147,1640,2464,-0.455810546875,0.4462890625,0.0950927734375
16.144,352,3147,1762,2580,-0.4451904296875,0.4981689453125,0.240966796875
16.204,363,3147,2053,3015,-0.8187255859375,0.3948974609375,0.3701171875
16.222,363,3147,2263,3115,-0.8187255859375,0.3948974609375,0.3701171875
16.234,371,3147,2410,3147,-1.160888671875,0.3974609375,0.2236328125
16.243,374,3147,2573,3147,-1.4356689453125,0.4913330078125,0.0159912109375
16.274,375,3147,2691,3147,-1.59716796875,0.601318359375,-0.14306640625
16.303,375,3147,2757,3147,-1.659912109375,0.6756591796875,-0.2069091796875
16.315,378,3147,2820,3147,-1.646240234375,0.763671875,-0.20361328125
16.325,378,3147,2715,3147,-1.5631103515625,0.9056396484375,-0.14306640625
16.333,376,3147,2587,3147,-1.3648681640625,0.9833984375,-0.0687255859375
16.346,375,3147,2412,3147,-0.7313232421875,0.9163818359375,-0.0164794921875
16.416,373,3147,2280,3147,-0.7313232421875,0.9163818359375,-0.0164794921875
16.423,371,3147,2221,3147,-0.7237548828125,0.9271240234375,-0.0252685546875
16.433,375,3147,2080,3147,-0.94091796875,0.833251953125,-0.0322265625
16.434,371,3147,1987,3147,-1.287353515625,0.696533203125,-0.01025390625
16.443,364,3147,1918,3147,-1.5604248046875,0.58056640625,0.0230712890625
16.443,361,3147,1803,3140,-1.5855712890625,0.4923095703125,0.0888671875
16.444,361,3147,1705,3055,-1.419677734375,0.453125,0.129638671875
16.454,356,3147,1635,2850,-1.184814453125,0.4617919921875,0.11181640625
16.456,333,3147,1490,2296,-0.9383544921875,0.4813232421875,0.0933837890625
16.484,343,3147,1348,1941,-0.7431640625,0.4853515625,0.09765625
16.490,336,3147,1183,1575,-0.649658203125,0.4671630859375,0.1019287109375
16.524,329,3147,1131,920,-0.6387939453125,0.47021484375,0.084716796875
16.524,328,3147,1100,632,-0.685791015625,0.4945068359375,0.0355224609375
16.525,323,3147,1050,359,-0.7740478515625,0.4482421875,-0.0147705078125
16.525,319,2605,1000,348,-0.876953125,0.319580078125,-0.0118408203125
16.534,317,2017,984,338,-0.9267578125,0.1768798828125,0.000732421875
16.534,316,1733,923,336,-0.8851318359375,0.0802001953125,-0.0545654296875
16.535,315,1370,815,302,-0.8046875,0.0750732421875,-0.119140625
16.536,316,984,774,318,-0.7169189453125,0.115966796875,-0.1185302734375
16.556,313,895,731,334,-0.652587890625,0.166748046875,-0.09716796875
16.586,315,737,683,333,-0.6278076171875,0.274169921875,-0.0782470703125
16.603,312,777,713,334,-0.6004638671875,0.3966064453125,-0.04345703125
16.606,313,815,737,333,-0.5562744140625,0.445556640625,0.00146484375
16.615,310,834,722,334,-0.5042724609375,0.4033203125,0.0364990234375
16.635,313,978,750,332,-0.4696044921875,0.3284912109375,0.0394287109375
16.643,313,1081,788,332,-0.4754638671875,0.3062744140625,0.01123046875
16.653,314,1380,849,330,-0.525390625,0.350341796875,-0.0205078125
16.664,300,1894,858,334,-0.6068115234375,0.4049072265625,-0.0352783203125
16.673,315,2287,884,344,-0.69287109375,0.4248046875,-0.0438232421875
16.724,315,2435,921,342,-0.766845703125,0.402587890625,-0.040283203125
16.743,315,3056,942,344,-0.7998046875,0.3319091796875,-0.0361328125
16.763,315,3147,947,572,-0.7764892578125,0.2620849609375,-0.0435791015625
16.792,316,3147,1018,860,-0.7216796875,0.2498779296875,-0.0673828125
16.864,322,3147,1026,1345,-0.660400390625,0.2977294921875,-0.087890625
16.866,306,3147,1160,1627,-0.564208984375,0.3526611328125,-0.069091796875
16.866,332,3147,1251,1929,-0.44287109375,0.367919921875,-0.0147705078125
16.866,338,3147,1398,2421,-0.3563232421875,0.3861083984375,0.103271484375
16.866,346,3147,1540,2664,-0.3182373046875,0.4515380859375,0.2552490234375
16.866,359,3147,1662,2885,-0.377685546875,0.562255859375,0.337890625
16.866,355,3147,1865,3022,-0.635009765625,0.680908203125,0.314697265625
16.867,360,3147,2065,3143,-1.06591796875,0.7081298828125,0.171630859375
16.867,355,3147,2319,3147,-1.5205078125,0.5985107421875,-0.0340576171875
16.867,372,3147,2394,3147,-1.85205078125,0.433349609375,-0.1605224609375
16.867,373,3147,2468,3147,-1.953857421875,0.369384765625,-0.1824951171875
16.867,374,3147,2493,3147,-1.8031005859375,0.5123291015625,-0.17138671875
16.867,375,3147,2419,3147,-1.4716796875,0.795654296875,-0.133544921875
16.867,371,3147,2065,3147,-0.7034912109375,1.099365234375,-0.0457763671875
16.867,371,3147,1996,3147,-0.646484375,1.083984375,-0.0731201171875
16.867,370,3147,1955,3147,-0.8131103515625,0.9376220703125,-0.1527099609375
16.934,364,3147,1914,3147,-1.0875244140625,0.744140625,-0.1612548828125
16.935,364,3147,1880,3147,-1.4228515625,0.6302490234375,-0.0986328125
16.935,355,3147,1850,3147,-1.6370849609375,0.5831298828125,-0.057373046875
16.935,357,3147,1730,3147,-1.610595703125,0.57080078125,-0.0333251953125
16.935,355,3147,1658,3126,-1.400634765625,0.563232421875,0.010498046875
16.935,347,3147,1580,2897,-1.106689453125,0.539794921875,0.0570068359375
16.936,338,3147,1343,2220,-0.82666015625,0.517822265625,0.0928955078125
16.936,334,3147,1178,1862,-0.6375732421875,0.5064697265625,0.1390380859375
16.936,331,3147,1101,1478,-0.5579833984375,0.49072265625,0.16064453125
16.936,309,3147,1070,784,-0.5838623046875,0.4510498046875,0.1163330078125
16.936,323,3147,957,473,-0.681640625,0.36767578125,0.0589599609375
16.947,321,3089,963,347,-0.770263671875,0.245361328125,0.028564453125
16.947,315,2410,879,347,-0.8018798828125,0.1146240234375,-0.0606689453125
16.947,316,2019,885,338,-0.80126953125,0.05810546875,-0.1920166015625
16.947,316,1864,815,344,-0.7855224609375,0.10498046875,-0.228759765625
16.947,314,1472,777,336,-0.763671875,0.1854248046875,-0.190673828125
16.947,315,912,790,333,-0.7061767578125,0.3209228515625,-0.123779296875
16.947,300,746,728,338,-0.648681640625,0.3463134765625,-0.0626220703125
16.948,312,1094,723,334,-0.4842529296875,0.36767578125,0.1182861328125
16.948,315,1748,820,338,-0.47607421875,0.363525390625,0.087890625
16.948,322,3147,1010,1345,-0.519775390625,0.3297119140625,-0.1053466796875
16.948,331,3147,1155,1890,-0.4990234375,0.377685546875,-0.0516357421875
16.975,330,3147,1266,2203,-0.5125732421875,0.4073486328125,0.0411376953125
16.976,344,3147,1391,2507,-0.5125732421875,0.4073486328125,0.0411376953125
16.976,356,3147,1636,2899,-0.575927734375,0.4884033203125,0.351318359375
16.976,360,3147,1813,3056,-0.78271484375,0.446533203125,0.42724609375
16.985,361,3147,1949,3147,-0.78271484375,0.446533203125,0.42724609375
16.985,371,3147,2167,3147,-1.4464111328125,0.4859619140625,0.14697265625
16.985,371,3147,2260,3147,-1.6534423828125,0.526611328125,-0.1044921875
16.985,371,3147,2384,3147,-1.6534423828125,0.526611328125,-0.1044921875
17.042,373,3147,2443,3147,-1.587890625,0.69970703125,-0.29296875
17.043,373,3147,2430,3147,-1.4405517578125,0.8997802734375,-0.214599609375
17.043,373,3147,2340,3147,-1.4405517578125,0.8997802734375,-0.214599609375
17.043,371,3147,2142,3147,-0.9400634765625,1.041259765625,-0.1031494140625
17.043,372,3147,2039,3147,-0.9400634765625,1.041259765625,-0.1031494140625
17.043,371,3147,2005,3147,-0.734619140625,0.9835205078125,-0.1165771484375
17.043,364,3147,1960,3147,-1.0152587890625,0.917724609375,-0.1123046875
17.043,365,3147,1925,3147,-1.0152587890625,0.917724609375,-0.1123046875
17.044,364,3147,1880,3147,-1.346923828125,0.8304443359375,-0.080810546875
17.123,360,3147,1745,3147,-1.510009765625,0.555419921875,0.0028076171875
17.124,356,3147,1607,3147,-1.510009765625,0.555419921875,0.0028076171875
17.134,347,3147,1589,3089,-1.34521484375,0.50048828125,0.041015625
17.135,345,3147,1393,2587,-0.83349609375,0.4852294921875,0.0845947265625
17.135,338,3147,1211,2188,-0.83349609375,0.4852294921875,0.0845947265625
17.135,334,3147,1170,1813,-0.6248779296875,0.46240234375,0.1312255859375
17.135,330,3147,1093,1278,-0.541748046875,0.4393310546875,0.1016845703125
17.135,327,3147,1029,975,-0.541748046875,0.4393310546875,0.1016845703125
