time,compression0,compression1,compression2,compression3,accel_x,accel_y,accel_z
0.017,302,858,442,324,-0.875,0.3616943359375,-0.3631591796875
0.017,304,871,441,322,-0.873779296875,0.355712890625,-0.35693359375
0.019,292,826,484,323,-0.8707275390625,0.34912109375,-0.3505859375
0.039,304,828,487,323,-0.867431640625,0.342041015625,-0.345947265625
0.042,304,816,496,321,-0.86376953125,0.3353271484375,-0.3450927734375
0.051,304,800,484,323,-0.8612060546875,0.33447265625,-0.3465576171875
0.063,304,814,501,321,-0.8624267578125,0.33837890625,-0.3458251953125
0.078,304,778,506,323,-0.8665771484375,0.3416748046875,-0.3409423828125
0.079,304,763,501,323,-0.8720703125,0.3416748046875,-0.3350830078125
0.093,302,767,500,322,-0.877197265625,0.3392333984375,-0.3292236328125
0.101,304,761,522,323,-0.8797607421875,0.3367919921875,-0.3236083984375
0.113,302,777,513,323,-0.8795166015625,0.336181640625,-0.3214111328125
0.123,302,775,501,323,-0.877197265625,0.33984375,-0.3233642578125
0.144,302,774,501,323,-0.8724365234375,0.34375,-0.328857421875
0.144,302,766,523,321,-0.863525390625,0.341796875,-0.3316650390625
0.153,304,780,532,323,-0.855224609375,0.33349609375,-0.32421875
0.168,304,780,495,323,-0.853271484375,0.3236083984375,-0.31103515625
0.169,304,766,519,323,-0.85595703125,0.3165283203125,-0.298095703125
0.196,304,777,495,323,-0.859375,0.311279296875,-0.2899169921875
0.196,302,765,508,323,-0.8619384765625,0.307861328125,-0.2926025390625
0.235,302,786,543,323,-0.8619384765625,0.307861328125,-0.2926025390625
0.235,302,766,525,323,-0.8656005859375,0.3115234375,-0.30859375
0.235,302,778,504,323,-0.8663330078125,0.3173828125,-0.3040771484375
0.265,300,799,537,323,-0.8663330078125,0.3173828125,-0.3040771484375
0.266,302,826,559,323,-0.8695068359375,0.3228759765625,-0.2760009765625
0.275,301,873,568,324,-0.8707275390625,0.326416015625,-0.271484375
0.275,302,860,591,323,-0.8707275390625,0.326416015625,-0.271484375
0.275,305,854,590,323,-0.8765869140625,0.3360595703125,-0.280517578125
0.281,304,872,572,323,-0.8800048828125,0.3289794921875,-0.2862548828125
0.289,304,872,566,328,-0.8800048828125,0.3289794921875,-0.2862548828125
0.308,304,865,543,323,-0.863037109375,0.2967529296875,-0.2779541015625
0.318,305,887,540,322,-0.8460693359375,0.28955078125,-0.269287109375
0.319,305,869,501,324,-0.8460693359375,0.28955078125,-0.269287109375
0.356,304,865,548,323,-0.8265380859375,0.3052978515625,-0.2764892578125
0.357,306,883,543,323,-0.8382568359375,0.324462890625,-0.2880859375
0.357,304,918,537,327,-0.8382568359375,0.324462890625,-0.2880859375
0.363,304,962,598,325,-0.871826171875,0.3397216796875,-0.300537109375
0.371,304,990,620,327,-0.8734130859375,0.338623046875,-0.294921875
0.381,304,1038,630,327,-0.8734130859375,0.338623046875,-0.294921875
0.393,305,1149,639,327,-0.8321533203125,0.3260498046875,-0.263427734375
0.401,305,1225,772,328,-0.805908203125,0.30859375,-0.259033203125
0.423,308,1269,853,329,-0.805908203125,0.30859375,-0.259033203125
0.424,306,1494,879,328,-0.7833251953125,0.3253173828125,-0.26953125
0.431,304,1634,879,330,-0.7833251953125,0.3253173828125,-0.26953125
0.439,306,1770,944,334,-0.7703857421875,0.3453369140625,-0.2791748046875
0.459,307,2009,1018,334,-0.7242431640625,0.348388671875,-0.2724609375
0.461,311,2255,1085,338,-0.7242431640625,0.348388671875,-0.2724609375
0.470,312,2421,1155,344,-0.695556640625,0.3375244140625,-0.236572265625
0.489,317,3120,1463,351,-0.5521240234375,0.330078125,-0.131591796875
0.491,321,3147,1582,548,-0.5521240234375,0.330078125,-0.131591796875
0.499,321,3147,1655,778,-0.426025390625,0.3580322265625,-0.10009765625
0.514,326,3147,1821,1413,-0.4298095703125,0.53125,-0.171142578125
0.533,325,3147,1908,1850,-0.4298095703125,0.53125,-0.171142578125
0.537,328,3147,2041,2089,-0.5865478515625,0.4935302734375,-0.312744140625
0.546,330,3147,2180,2479,-1.2193603515625,0.5125732421875,-0.56884765625
0.555,332,3147,2161,2648,-1.2193603515625,0.5125732421875,-0.56884765625
0.565,334,3147,2230,2788,-1.4835205078125,0.577880859375,-0.520751953125
0.573,334,3147,2312,2989,-1.5682373046875,0.4608154296875,-0.1251220703125
0.581,334,3147,2357,3048,-1.5682373046875,0.4608154296875,-0.1251220703125
0.595,334,3147,2394,3112,-1.4326171875,0.274169921875,0.014892578125
0.603,336,3147,2430,3147,-1.1063232421875,0.3907470703125,-0.064453125
0.611,336,3147,2432,3147,-1.1063232421875,0.3907470703125,-0.064453125
0.626,334,3147,2430,3147,-0.9267578125,0.59619140625,-0.141357421875
0.634,336,3147,2409,3147,-0.825439453125,0.772216796875,-0.281005859375
0.653,336,3147,2394,2984,-0.825439453125,0.772216796875,-0.281005859375
0.654,336,3147,2368,2901,-1.118408203125,0.676513671875,-0.3917236328125
0.663,334,3147,2266,2765,-1.412353515625,0.5386962890625,-0.4525146484375
0.671,334,3147,2194,2844,-1.50048828125,0.4412841796875,-0.434814453125
0.679,331,3147,2080,2692,-1.390869140625,0.45263671875,-0.3895263671875
0.700,330,3147,1920,2221,-1.236083984375,0.52978515625,-0.3680419921875
0.705,330,3147,1809,1848,-1.11474609375,0.5743408203125,-0.354736328125
0.710,328,3147,1711,1328,-1.0205078125,0.544189453125,-0.3218994140625
0.728,322,3147,1383,411,-0.9234619140625,0.4713134765625,-0.27197265625
0.731,323,2820,1134,359,-0.8128662109375,0.3970947265625,-0.213134765625
0.739,316,2424,932,346,-0.6817626953125,0.3028564453125,-0.1158447265625
0.760,312,1781,694,330,-0.558349609375,0.2264404296875,-0.016357421875
0.761,306,1478,631,332,-0.5323486328125,0.2291259765625,-0.0196533203125
0.769,307,1211,590,327,-0.6446533203125,0.313720703125,-0.116455078125
0.784,306,728,501,324,-0.7957763671875,0.4471435546875,-0.228759765625
0.791,304,567,555,323,-0.8807373046875,0.5340576171875,-0.324951171875
0.799,302,533,531,318,-0.9044189453125,0.4912109375,-0.3809814453125
0.813,304,591,444,319,-0.907470703125,0.3399658203125,-0.40625
0.821,302,590,508,319,-0.908203125,0.216552734375,-0.3990478515625
0.829,304,588,468,323,-0.8543701171875,0.1690673828125,-0.3402099609375
0.848,302,582,445,321,-0.752197265625,0.1339111328125,-0.274658203125
0.874,300,572,433,321,-0.6759033203125,0.0946044921875,-0.211181640625
0.874,304,571,438,321,-0.635009765625,0.0592041015625,-0.1455078125
0.875,302,564,465,321,-0.6024169921875,0.0484619140625,-0.1177978515625
0.881,304,590,464,321,-0.5716552734375,0.10205078125,-0.119140625
0.889,302,571,441,321,-0.5533447265625,0.20751953125,-0.0999755859375
0.903,302,578,495,322,-0.552490234375,0.2861328125,-0.0570068359375
0.913,304,601,470,321,-0.559326171875,0.289794921875,-0.017333984375
0.919,302,603,478,323,-0.551513671875,0.2359619140625,0.005859375
0.933,304,694,519,318,-0.5325927734375,0.18212890625,0.009521484375
0.941,300,978,548,328,-0.5240478515625,0.17626953125,-0.000732421875
0.950,306,1409,778,327,-0.5322265625,0.2213134765625,-0.0155029296875
0.963,310,2203,957,334,-0.5888671875,0.3397216796875,-0.049560546875
0.972,309,2648,1109,347,-0.74658203125,0.4974365234375,-0.1666259765625
0.980,315,2828,1201,354,-0.916748046875,0.5123291015625,-0.359619140625
0.994,318,3147,1427,922,-0.9556884765625,0.39794921875,-0.43701171875
1.002,323,3147,1572,1373,-0.8531494140625,0.289306640625,-0.3150634765625
1.010,324,3147,1665,1588,-0.7310791015625,0.146728515625,-0.1514892578125
1.024,330,3147,1913,2231,-0.70166015625,-0.0274658203125,-0.0478515625
1.036,328,3147,2004,2478,-0.781494140625,-0.0352783203125,0.0068359375
1.040,332,3147,2091,2876,-0.9014892578125,0.19775390625,-0.0087890625
1.066,333,3147,2268,2974,-0.9722900390625,0.4989013671875,-0.025146484375
1.066,336,3147,2308,3147,-1.0184326171875,0.65625,0.0240478515625
1.073,338,3147,2430,3147,-1.1517333984375,0.6419677734375,0.0235595703125
1.084,342,3147,2579,3147,-1.353271484375,0.6275634765625,-0.139892578125
1.092,342,3147,2648,3147,-1.5286865234375,0.5986328125,-0.42724609375
1.101,338,3147,2746,3147,-1.6002197265625,0.5157470703125,-0.568359375
1.114,345,3147,2848,3147,-1.5328369140625,0.4210205078125,-0.438720703125
1.127,344,3147,2880,3147,-1.3975830078125,0.3272705078125,-0.236083984375
1.137,346,3147,2901,3147,-1.23046875,0.2589111328125,-0.1326904296875
1.144,345,3147,2850,3147,-1.0394287109375,0.3115234375,-0.17529296875
1.155,344,3147,2807,3147,-0.923095703125,0.50146484375,-0.2900390625
1.168,344,3147,2736,3147,-0.9659423828125,0.6212158203125,-0.3529052734375
1.175,344,3147,2672,3147,-1.152099609375,0.59521484375,-0.2900390625
1.182,344,3147,2638,3147,-1.439208984375,0.43896484375,-0.150390625
1.190,342,3147,2576,3147,-1.6396484375,0.2335205078125,-0.0260009765625
1.205,337,3147,2430,3147,-1.5804443359375,0.175537109375,0.022705078125
1.212,334,3147,2308,3147,-1.34033203125,0.29248046875,-0.0443115234375
1.220,336,3147,2190,3147,-1.0955810546875,0.447265625,-0.1798095703125
1.241,331,3147,1943,2721,-0.954833984375,0.5142822265625,-0.2889404296875
1.243,316,3147,1821,2379,-0.9056396484375,0.4814453125,-0.31884765625
1.256,328,3147,1684,1981,-0.874755859375,0.436279296875,-0.2857666015625
1.270,324,3147,1428,1413,-0.8128662109375,0.420654296875,-0.25830078125
1.273,323,3147,1253,859,-0.748291015625,0.402587890625,-0.2659912109375
1.280,316,3147,1074,442,-0.7286376953125,0.351318359375,-0.271728515625
1.294,316,2622,869,351,-0.74853515625,0.273681640625,-0.288818359375
1.302,313,2231,766,342,-0.779296875,0.218994140625,-0.317138671875
1.317,310,1850,621,336,-0.790771484375,0.2127685546875,-0.3302001953125
1.324,306,1434,536,327,-0.7666015625,0.25927734375,-0.2972412109375
1.352,306,1170,508,327,-0.708740234375,0.3115234375,-0.185791015625
1.353,304,1000,513,323,-0.6690673828125,0.28955078125,-0.0733642578125
1.357,304,767,445,324,-0.69677734375,0.2181396484375,-0.029052734375
1.364,304,731,484,323,-0.75439453125,0.1796875,-0.027099609375
1.370,304,660,466,322,-0.80078125,0.216796875,-0.0523681640625
1.387,300,653,482,321,-0.8277587890625,0.2862548828125,-0.0916748046875
1.392,302,660,467,318,-0.83251953125,0.29541015625,-0.126220703125
1.400,301,666,468,323,-0.8236083984375,0.2342529296875,-0.146484375
1.414,300,673,497,321,-0.8177490234375,0.166259765625,-0.1513671875
1.422,304,647,510,321,-0.8214111328125,0.1356201171875,-0.152099609375
1.430,304,639,540,321,-0.8182373046875,0.1492919921875,-0.1512451171875
1.451,304,678,551,321,-0.79931640625,0.1827392578125,-0.1572265625
1.452,304,707,521,299,-0.7744140625,0.2100830078125,-0.1676025390625
1.464,302,725,526,323,-0.7744140625,0.2100830078125,-0.1676025390625
1.480,304,733,539,321,-0.714599609375,0.2164306640625,-0.1478271484375
1.484,304,695,470,324,-0.6820068359375,0.212890625,-0.1141357421875
1.490,304,784,491,323,-0.6820068359375,0.212890625,-0.1141357421875
1.504,304,1026,525,323,-0.6632080078125,0.2218017578125,-0.0445556640625
1.512,305,1323,533,323,-0.677734375,0.2152099609375,-0.0423583984375
1.520,304,1643,648,331,-0.677734375,0.2152099609375,-0.0423583984375
1.534,306,2213,855,332,-0.75341796875,0.19140625,-0.14208984375
1.575,310,2492,987,342,-0.76904296875,0.1810302734375,-0.2088623046875
1.581,298,2891,1079,347,-0.76904296875,0.1810302734375,-0.2088623046875
1.584,317,3147,1251,708,-0.5989990234375,0.2252197265625,-0.2320556640625
1.585,321,3147,1390,1153,-0.46142578125,0.3006591796875,-0.1680908203125
1.585,321,3147,1588,1580,-0.46142578125,0.3006591796875,-0.1680908203125
1.588,324,3147,1794,1960,-0.3748779296875,0.320068359375,-0.0936279296875
1.602,327,3147,1967,2445,-0.651123046875,0.285888671875,-0.135498046875
1.610,330,3147,2028,2777,-0.651123046875,0.285888671875,-0.135498046875
1.624,334,3147,2175,3147,-1.1502685546875,0.6197509765625,-0.1673583984375
1.632,336,3147,2242,3147,-1.274658203125,0.6622314453125,-0.0921630859375
1.640,337,3147,2359,3147,-1.274658203125,0.6622314453125,-0.0921630859375
1.679,338,3147,2497,3147,-1.4267578125,0.5020751953125,-0.0865478515625
1.679,338,3147,2544,3147,-1.4947509765625,0.52197265625,-0.144775390625
1.679,346,3147,2627,3147,-1.4947509765625,0.52197265625,-0.144775390625
1.687,344,3147,2662,3147,-1.6024169921875,0.51806640625,-0.1744384765625
1.692,346,3147,2584,3147,-1.6024169921875,0.51806640625,-0.1744384765625
1.700,338,3147,2561,3147,-1.58056640625,0.43359375,-0.1153564453125
1.716,344,3147,2563,3147,-1.035400390625,0.4569091796875,-0.2708740234375
1.722,344,3147,2563,3147,-1.035400390625,0.4569091796875,-0.2708740234375
1.730,344,3147,2521,3147,-1.189697265625,0.6397705078125,-0.3629150390625
1.744,338,3147,2386,3147,-1.7210693359375,0.3089599609375,-0.2056884765625
1.752,338,3147,2296,3147,-1.7210693359375,0.3089599609375,-0.2056884765625
1.775,336,3147,2172,3147,-1.6943359375,0.22021484375,-0.1197509765625
1.779,334,3147,1982,3088,-1.350830078125,0.450439453125,-0.212646484375
1.793,333,3147,1826,2775,-1.350830078125,0.450439453125,-0.212646484375
1.793,330,3147,1702,2395,-1.138671875,0.554443359375,-0.2470703125
1.805,328,3147,1320,1709,-0.81884765625,0.5589599609375,-0.223388671875
1.812,318,3147,973,1108,-0.81884765625,0.5589599609375,-0.223388671875
1.820,316,3147,864,657,-0.6634521484375,0.4840087890625,-0.2337646484375
1.834,307,2741,666,344,-0.4130859375,0.3966064453125,-0.3218994140625
1.843,306,2141,473,338,-0.4130859375,0.3966064453125,-0.3218994140625
1.855,305,1742,404,333,-0.41064453125,0.3658447265625,-0.2979736328125
1.864,306,1173,437,330,-0.533447265625,0.2276611328125,-0.182373046875
1.872,304,922,462,323,-0.533447265625,0.2276611328125,-0.182373046875
1.887,302,702,446,318,-0.585693359375,0.2178955078125,-0.0631103515625
1.895,304,634,469,323,-0.67724609375,0.1827392578125,0.0489501953125
1.903,300,644,487,321,-0.7554931640625,0.125732421875,0.1309814453125
1.911,306,623,514,322,-0.7803955078125,0.085693359375,0.1334228515625
1.919,302,658,605,323,-0.76904296875,0.082275390625,0.0718994140625
1.933,306,644,537,321,-0.7501220703125,0.0931396484375,-0.018310546875
1.941,304,647,561,321,-0.7530517578125,0.119140625,-0.092041015625
1.957,306,698,548,321,-0.7750244140625,0.1595458984375,-0.1214599609375
1.963,302,765,482,321,-0.805419921875,0.1971435546875,-0.1220703125
2.002,300,834,452,323,-0.8291015625,0.219970703125,-0.1275634765625
2.002,301,858,364,323,-0.8331298828125,0.22900390625,-0.1502685546875
2.003,304,1009,460,323,-0.823974609375,0.2392578125,-0.1856689453125
2.003,302,1014,484,321,-0.8248291015625,0.2607421875,-0.217041015625
2.010,302,1163,525,324,-0.846923828125,0.2755126953125,-0.2164306640625
2.024,304,1278,536,327,-0.8804931640625,0.27001953125,-0.1943359375
2.033,304,1455,540,326,-0.908935546875,0.258544921875,-0.181396484375
2.040,304,1553,512,328,-0.9219970703125,0.24951171875,-0.1776123046875
2.061,304,1838,548,328,-0.9300537109375,0.2322998046875,-0.1678466796875
2.063,302,1997,653,333,-0.9344482421875,0.1995849609375,-0.1580810546875
2.085,306,2170,632,330,-0.9190673828125,0.1629638671875,-0.1593017578125
2.088,305,2478,725,334,-0.8720703125,0.1468505859375,-0.1702880859375
2.093,310,2777,854,346,-0.7999267578125,0.178466796875,-0.1773681640625
2.106,310,3147,934,346,-0.737060546875,0.24560546875,-0.166015625
2.114,311,3147,1109,905,-0.6839599609375,0.2869873046875,-0.1278076171875
2.123,315,3147,1251,1228,-0.578125,0.256103515625,-0.0771484375
2.130,318,3147,1415,1702,-0.41259765625,0.179443359375,-0.056396484375
2.158,324,3147,1686,2263,-0.265380859375,0.12060546875,-0.085205078125
2.158,328,3147,1840,2579,-0.220458984375,0.07080078125,-0.1534423828125
2.165,328,3147,1954,2916,-0.3201904296875,-0.0013427734375,-0.25341796875
2.182,330,3147,2054,3147,-0.57177734375,0.041015625,-0.29150390625
2.195,337,3147,2151,3147,-0.9398193359375,0.301025390625,-0.2266845703125
2.195,334,3147,2191,3147,-1.3160400390625,0.6363525390625,-0.1593017578125
2.204,337,3147,2359,3147,-1.5487060546875,0.897216796875,-0.052734375
2.219,336,3147,2398,3147,-1.56298828125,0.906005859375,0.1068115234375
2.220,334,3147,2435,3147,-1.4998779296875,0.729736328125,0.2093505859375
2.234,343,3147,2479,3147,-1.4593505859375,0.663330078125,0.2366943359375
2.242,344,3147,2493,3147,-1.382080078125,0.715087890625,0.1676025390625
2.250,346,3147,2472,3147,-1.2872314453125,0.7431640625,-0.021728515625
2.264,344,3147,2445,3147,-1.197998046875,0.69970703125,-0.268310546875
2.272,342,3147,2445,3147,-1.096923828125,0.680419921875,-0.4500732421875
2.280,346,3147,2458,3147,-1.1197509765625,0.779296875,-0.476806640625
2.301,344,3147,2415,3147,-1.39501953125,0.79736328125,-0.40869140625
2.302,338,3147,2356,3147,-1.715087890625,0.5438232421875,-0.324462890625
2.310,338,3147,2272,3147,-1.7950439453125,0.2313232421875,-0.222412109375
2.331,336,3147,2122,3147,-1.6119384765625,0.140869140625,-0.1473388671875
2.332,334,3147,2005,3147,-1.320556640625,0.2921142578125,-0.148193359375
2.340,334,3147,1909,3147,-1.0733642578125,0.51708984375,-0.20556640625
2.355,327,3147,1704,2532,-0.9197998046875,0.644287109375,-0.29443359375
2.366,328,3147,1494,2110,-0.831298828125,0.640625,-0.3206787109375
2.370,323,3147,1231,1615,-0.74169921875,0.57666015625,-0.242919921875
2.385,318,3147,1010,761,-0.5972900390625,0.4820556640625,-0.1827392578125
2.392,317,3147,935,360,-0.4244384765625,0.418701171875,-0.2022705078125
2.408,308,2843,723,347,-0.327392578125,0.4432373046875,-0.2269287109375
2.414,304,1959,508,338,-0.36376953125,0.4703369140625,-0.20654296875
2.422,309,1616,567,330,-0.46923828125,0.4154052734375,-0.1846923828125
2.430,299,1323,495,324,-0.5650634765625,0.3507080078125,-0.1357421875
2.444,302,1054,404,327,-0.650146484375,0.3319091796875,-0.047119140625
2.452,304,891,399,323,-0.7532958984375,0.3175048828125,0.0069580078125
2.460,302,853,424,322,-0.8505859375,0.26806640625,0.0091552734375
2.475,304,780,464,324,-0.8944091796875,0.2008056640625,-0.0286865234375
2.485,304,733,447,322,-0.893798828125,0.177001953125,-0.078125
2.502,302,683,466,321,-0.88037109375,0.1942138671875,-0.1119384765625
2.514,302,633,437,321,-0.8673095703125,0.20458984375,-0.1219482421875
2.515,302,607,402,321,-0.8592529296875,0.195068359375,-0.1220703125
2.520,304,593,462,318,-0.8516845703125,0.1905517578125,-0.1405029296875
2.534,304,630,428,323,-0.838134765625,0.208740234375,-0.167236328125
2.542,304,576,493,319,-0.8251953125,0.2469482421875,-0.1826171875
2.558,302,605,490,321,-0.8143310546875,0.287109375,-0.1888427734375
2.571,304,621,519,323,-0.8043212890625,0.310546875,-0.1829833984375
2.572,304,688,445,302,-0.8028564453125,0.308837890625,-0.16357421875
2.580,302,739,454,321,-0.8028564453125,0.308837890625,-0.16357421875
2.599,304,806,423,321,-0.8013916015625,0.2596435546875,-0.1339111328125
2.635,304,871,441,323,-0.7847900390625,0.2357177734375,-0.1197509765625
2.636,302,985,466,322,-0.7847900390625,0.2357177734375,-0.1197509765625
2.637,300,1284,455,328,-0.7628173828125,0.2120361328125,-0.0853271484375
2.642,304,1516,555,328,-0.7657470703125,0.2254638671875,-0.0782470703125
2.644,307,1803,564,333,-0.7657470703125,0.2254638671875,-0.0782470703125
2.711,304,2308,673,332,-0.7838134765625,0.263427734375,-0.09228515625
2.714,305,2532,733,338,-0.7650146484375,0.2506103515625,-0.127685546875
2.714,306,2901,780,338,-0.7650146484375,0.2506103515625,-0.127685546875
2.716,310,3147,1055,780,-0.5721435546875,0.1934814453125,-0.2479248046875
2.723,295,3147,1231,1306,-0.4189453125,0.171630859375,-0.307861328125
2.724,316,3147,1424,1656,-0.4189453125,0.171630859375,-0.307861328125
2.724,296,3147,1516,2321,-0.244140625,0.18359375,-0.2261962890625
2.724,323,3147,1676,2691,-0.39208984375,0.2518310546875,-0.109375
2.731,324,3147,1786,3065,-0.39208984375,0.2518310546875,-0.109375
2.739,327,3147,1865,3147,-0.683349609375,0.3138427734375,-0.0435791015625
2.753,330,3147,1966,3147,-1.281494140625,0.4481201171875,0.0791015625
2.761,330,3147,2026,3147,-1.281494140625,0.4481201171875,0.0791015625
2.782,334,3147,2093,3147,-1.372314453125,0.4906005859375,0.1513671875
2.783,338,3147,2228,3147,-1.377685546875,0.666015625,0.0477294921875
2.798,338,3147,2280,3147,-1.377685546875,0.666015625,0.0477294921875
2.810,334,3147,2340,3147,-1.4642333984375,0.7462158203125,-0.056640625
2.815,342,3147,2350,3147,-1.6328125,0.7210693359375,-0.0323486328125
2.821,338,3147,2317,3147,-1.6328125,0.7210693359375,-0.0323486328125
2.834,342,3147,2349,3147,-1.50634765625,0.53271484375,-0.0908203125
2.843,342,3147,2330,3147,-1.0377197265625,0.7440185546875,-0.2027587890625
2.851,338,3147,2292,3147,-1.0377197265625,0.7440185546875,-0.2027587890625
2.859,338,3147,2281,3147,-1.277587890625,0.790771484375,-0.2672119140625
2.878,338,3147,2195,3147,-1.636474609375,0.202392578125,-0.3017578125
2.881,336,3147,2093,3147,-1.636474609375,0.202392578125,-0.3017578125
2.896,334,3147,1989,3147,-1.6201171875,0.2017822265625,-0.2669677734375
2.911,330,3147,1789,3147,-1.163818359375,0.5401611328125,-0.2769775390625
2.912,328,3147,1686,3147,-1.163818359375,0.5401611328125,-0.2769775390625
2.920,323,3147,1536,2936,-0.84130859375,0.65576171875,-0.288330078125
2.937,317,3147,1308,2277,-0.6495361328125,0.6976318359375,-0.29150390625
2.942,316,3147,1172,1865,-0.58740234375,0.701416015625,-0.268798828125
2.956,313,3147,1134,1478,-0.562255859375,0.64794921875,-0.2349853515625
2.965,313,3147,995,713,-0.5269775390625,0.535400390625,-0.2452392578125
2.972,316,3147,844,371,-0.4984130859375,0.4588623046875,-0.249267578125
2.980,310,2949,780,344,-0.5322265625,0.4190673828125,-0.206298828125
3.019,306,2257,711,332,-0.6202392578125,0.33837890625,-0.15380859375
3.019,304,1914,660,330,-0.6683349609375,0.24609375,-0.091552734375
3.020,304,1689,650,328,-0.6602783203125,0.1954345703125,-0.0185546875
3.025,304,1463,652,327,-0.7239990234375,0.141845703125,0.044677734375
3.032,307,1302,562,328,-0.7239990234375,0.141845703125,0.044677734375
3.044,306,1201,572,321,-0.78564453125,0.155517578125,0.0111083984375
3.055,304,1083,522,323,-0.82763671875,0.193603515625,-0.04638671875
3.063,302,1012,490,323,-0.8436279296875,0.24365234375,-0.1026611328125
3.070,301,982,487,323,-0.8486328125,0.2861328125,-0.14111328125
3.084,304,952,479,321,-0.852783203125,0.29736328125,-0.1593017578125
3.092,302,963,445,323,-0.8494873046875,0.276611328125,-0.163818359375
3.101,300,1003,460,323,-0.84130859375,0.2486572265625,-0.1661376953125
3.124,305,1042,462,323,-0.83154296875,0.234619140625,-0.1744384765625
3.124,304,1115,470,326,-0.830078125,0.2440185546875,-0.189453125
3.131,298,1156,501,324,-0.8485107421875,0.27099609375,-0.2021484375
3.152,302,1231,513,324,-0.8662109375,0.284912109375,-0.1978759765625
3.152,301,1334,504,327,-0.86865234375,0.2666015625,-0.175048828125
3.161,304,1355,523,326,-0.8641357421875,0.2384033203125,-0.1510009765625
3.175,306,1488,526,328,-0.8572998046875,0.228515625,-0.1385498046875
3.185,302,1535,546,327,-0.854248046875,0.239990234375,-0.1373291015625
3.191,304,1508,562,326,-0.8577880859375,0.2567138671875,-0.1431884765625
3.213,304,1722,598,328,-0.8621826171875,0.2608642578125,-0.1558837890625
3.214,304,1820,548,334,-0.8612060546875,0.251953125,-0.16943359375
3.224,304,1931,551,332,-0.857177734375,0.244384765625,-0.16162109375
3.235,304,2246,578,330,-0.849609375,0.241943359375,-0.1197509765625
3.242,304,2503,600,337,-0.8123779296875,0.2203369140625,-0.0653076171875
3.250,308,2912,797,338,-0.7239990234375,0.182373046875,-0.0281982421875
3.264,310,3147,1191,814,-0.5711669921875,0.173583984375,-0.0052490234375
3.272,310,3147,1340,1317,-0.3529052734375,0.2222900390625,0.0157470703125
3.296,317,3147,1401,1861,-0.1534423828125,0.3575439453125,0.04833984375
3.297,324,3147,1762,2525,-0.08349609375,0.5428466796875,0.0380859375
3.317,323,3147,1867,2909,-0.1575927734375,0.6417236328125,-0.075927734375
3.317,328,3147,1954,3147,-0.3409423828125,0.617431640625,-0.2877197265625
3.325,331,3147,2035,3147,-0.6358642578125,0.503662109375,-0.564453125
3.333,333,3147,2072,3147,-1.0361328125,0.402587890625,-0.74169921875
3.345,336,3147,2144,3147,-1.440185546875,0.413818359375,-0.665771484375
3.364,337,3147,2258,3147,-1.6949462890625,0.46435546875,-0.3626708984375
3.371,338,3147,2361,3147,-1.725830078125,0.482177734375,-0.0308837890625
3.372,338,3147,2424,3147,-1.5999755859375,0.482666015625,0.1905517578125
3.390,338,3147,2498,3147,-1.49609375,0.44775390625,0.216796875
3.392,344,3147,2444,3147,-1.5693359375,0.4288330078125,0.0635986328125
3.400,336,3147,2460,3147,-1.5662841796875,0.4383544921875,-0.078369140625
3.415,343,3147,2468,3147,-1.204345703125,0.513427734375,-0.1212158203125
3.423,338,3147,2428,3147,-0.92529296875,0.7437744140625,-0.083251953125
3.431,338,3147,2368,3147,-1.1292724609375,0.881103515625,-0.1444091796875
3.444,338,3147,2260,3147,-1.44384765625,0.7384033203125,-0.30859375
3.472,334,3147,2186,3147,-1.532958984375,0.5338134765625,-0.3563232421875
3.472,334,3147,2117,3147,-1.478271484375,0.463623046875,-0.294921875
3.475,332,3147,1981,3147,-1.380859375,0.461669921875,-0.2393798828125
3.483,330,3147,1855,3147,-1.28369140625,0.4498291015625,-0.2275390625
3.496,327,3147,1757,3147,-1.14013671875,0.4344482421875,-0.2305908203125
3.504,322,3147,1437,2626,-0.9012451171875,0.4400634765625,-0.208251953125
3.525,321,3147,1217,2205,-0.6279296875,0.4927978515625,-0.1861572265625
3.525,321,3147,1173,1711,-0.39892578125,0.54638671875,-0.23486328125
3.534,316,3147,1122,962,-0.2738037109375,0.5574951171875,-0.313720703125
3.542,313,3147,1026,653,-0.2989501953125,0.5618896484375,-0.3077392578125
3.551,310,3147,968,352,-0.4666748046875,0.5697021484375,-0.23876953125
3.577,306,2632,846,342,-0.6630859375,0.53173828125,-0.2012939453125
3.577,308,2325,801,338,-0.737060546875,0.4117431640625,-0.177001953125
3.580,306,2113,755,332,-0.69873046875,0.284423828125,-0.1256103515625
3.595,306,1681,749,327,-0.6861572265625,0.2261962890625,-0.0635986328125
3.602,307,1540,733,329,-0.750244140625,0.221435546875,-0.0076904296875
3.621,304,1447,737,328,-0.8284912109375,0.2435302734375,0.006591796875
3.625,304,1229,646,327,-0.8687744140625,0.2740478515625,-0.0316162109375
3.632,305,1051,616,328,-0.872314453125,0.3026123046875,-0.096435546875
3.640,302,973,603,324,-0.8614501953125,0.3175048828125,-0.1534423828125
3.654,304,958,521,323,-0.851806640625,0.3114013671875,-0.1861572265625
3.662,304,910,512,321,-0.8499755859375,0.289306640625,-0.1998291015625
3.670,304,837,433,323,-0.850830078125,0.267578125,-0.2030029296875
3.697,304,834,466,322,-0.8509521484375,0.2574462890625,-0.2086181640625
3.698,302,835,428,323,-0.8563232421875,0.260498046875,-0.2181396484375
3.701,304,830,430,323,-0.8641357421875,0.2821044921875,-0.221923828125
3.715,300,829,462,321,-0.8690185546875,0.31396484375,-0.2147216796875
3.730,298,837,447,323,-0.86376953125,0.3284912109375,-0.2091064453125
3.730,304,890,464,322,-0.86376953125,0.3284912109375,-0.2091064453125
3.745,304,897,481,321,-0.83447265625,0.3218994140625,-0.1964111328125
3.753,304,936,499,324,-0.824951171875,0.3299560546875,-0.1748046875
3.760,304,977,485,322,-0.824951171875,0.3299560546875,-0.1748046875
3.774,302,1058,531,323,-0.7935791015625,0.3043212890625,-0.1568603515625
3.805,300,1134,563,327,-0.7623291015625,0.270751953125,-0.1446533203125
3.805,304,1306,579,327,-0.7623291015625,0.270751953125,-0.1446533203125
3.806,304,1655,625,330,-0.7218017578125,0.2652587890625,-0.0963134765625
3.815,306,1967,620,330,-0.716064453125,0.2886962890625,-0.084228515625
3.828,306,2266,744,338,-0.716064453125,0.2886962890625,-0.084228515625
3.834,306,2859,1011,342,-0.659912109375,0.24853515625,-0.1031494140625
3.870,304,3147,1160,569,-0.5947265625,0.1531982421875,-0.151611328125
3.870,314,3147,1305,988,-0.5947265625,0.1531982421875,-0.151611328125
3.871,315,3147,1434,1693,-0.386962890625,0.111328125,-0.1876220703125
3.884,318,3147,1564,2063,-0.2908935546875,0.23974609375,-0.1436767578125
3.886,323,3147,1689,2295,-0.2908935546875,0.23974609375,-0.1436767578125
3.944,324,3147,1838,2993,-0.6453857421875,0.3690185546875,-0.1494140625
3.959,328,3147,1921,3147,-1.0311279296875,0.3045654296875,-0.178955078125
3.961,329,3147,1983,3147,-1.0311279296875,0.3045654296875,-0.178955078125
3.962,330,3147,2104,3147,-1.48779296875,0.351806640625,0.120361328125
3.970,338,3147,2172,3147,-1.459716796875,0.3411865234375,0.2178955078125
3.991,314,3147,2194,3147,-1.459716796875,0.3411865234375,0.2178955078125
3.991,336,3147,2220,3147,-1.5146484375,0.5455322265625,-0.0845947265625
3.992,331,3147,2213,3147,-1.5146484375,0.5455322265625,-0.0845947265625
3.992,334,3147,2166,3147,-1.5943603515625,0.695556640625,-0.2408447265625
3.992,334,3147,2124,3147,-1.4921875,0.6439208984375,-0.283447265625
3.994,336,3147,2071,3147,-0.78125,0.3839111328125,-0.1846923828125
4.010,334,3147,2001,3147,-0.78125,0.3839111328125,-0.1846923828125
4.011,334,3147,2018,3147,-0.745361328125,0.5206298828125,-0.2979736328125
4.027,334,3147,2074,3147,-1.239990234375,0.8533935546875,-0.677978515625
4.033,336,3147,2079,3147,-1.239990234375,0.8533935546875,-0.677978515625
4.039,334,3147,2065,3147,-1.4971923828125,0.8333740234375,-0.5830078125
4.053,332,3147,1994,3147,-1.691162109375,0.466064453125,-0.386474609375
4.062,331,3147,1895,3147,-1.72705078125,0.0931396484375,-0.201416015625
4.069,323,3147,1781,3147,-1.5728759765625,0.049072265625,-0.1082763671875
4.083,325,3147,1519,3093,-1.338134765625,0.23583984375,-0.1505126953125
4.091,323,3147,1316,2710,-1.12060546875,0.4097900390625,-0.261962890625
4.113,318,3147,1117,2320,-0.9373779296875,0.5361328125,-0.23681640625
4.114,315,3147,971,1552,-0.7420654296875,0.59033203125,-0.0992431640625
4.123,314,3147,900,986,-0.507080078125,0.4984130859375,-0.059814453125
4.148,308,3147,790,444,-0.3172607421875,0.3916015625,-0.1016845703125
4.148,306,2584,647,342,-0.28173828125,0.40771484375,-0.163818359375
4.152,305,2174,643,332,-0.3966064453125,0.505126953125,-0.2535400390625
4.160,306,1897,683,334,-0.548095703125,0.5843505859375,-0.3004150390625
4.173,304,1480,731,327,-0.6614990234375,0.569580078125,-0.2802734375
4.181,304,1283,682,332,-0.74755859375,0.443115234375,-0.2642822265625
4.193,304,1101,711,325,-0.8145751953125,0.2679443359375,-0.2506103515625
4.218,304,871,705,321,-0.84912109375,0.138671875,-0.204345703125
4.219,302,837,654,319,-0.85205078125,0.0977783203125,-0.1365966796875
4.223,291,780,642,306,-0.847412109375,0.1368408203125,-0.0777587890625
4.249,302,710,614,323,-0.8402099609375,0.2047119140625,-0.0394287109375
4.250,304,706,600,318,-0.822509765625,0.235595703125,-0.022705078125
4.250,305,725,574,323,-0.8050537109375,0.2257080078125,-0.036376953125
4.264,302,749,539,323,-0.7994384765625,0.2225341796875,-0.0782470703125
4.272,304,761,572,323,-0.8006591796875,0.2366943359375,-0.1270751953125
4.280,299,754,591,323,-0.80322265625,0.2508544921875,-0.155029296875
4.293,304,782,579,322,-0.7999267578125,0.2515869140625,-0.15380859375
4.301,304,865,598,323,-0.7841796875,0.237548828125,-0.141845703125
4.313,304,895,606,331,-0.7645263671875,0.22705078125,-0.1339111328125
4.328,304,1067,631,324,-0.743896484375,0.2266845703125,-0.1312255859375
4.339,306,1308,689,328,-0.71630859375,0.23486328125,-0.1287841796875
4.339,304,1659,705,328,-0.6953125,0.253662109375,-0.1251220703125
4.359,308,2188,711,338,-0.6978759765625,0.2862548828125,-0.123779296875
4.362,304,2635,747,338,-0.7117919921875,0.31005859375,-0.13134765625
4.369,308,3044,887,344,-0.704345703125,0.2822265625,-0.1610107421875
4.384,309,3147,1093,634,-0.647216796875,0.2158203125,-0.2218017578125
4.392,315,3147,1231,1147,-0.553466796875,0.183837890625,-0.2962646484375
4.399,313,3147,1357,1716,-0.457763671875,0.244384765625,-0.3311767578125
4.414,318,3147,1551,2218,-0.3572998046875,0.3743896484375,-0.2705078125
4.431,321,3147,1590,2514,-0.2685546875,0.486083984375,-0.197509765625
4.432,323,3147,1711,2788,-0.30712890625,0.4769287109375,-0.2188720703125
4.443,326,3147,1820,3107,-0.615234375,0.4344482421875,-0.269775390625
4.451,328,3147,1920,3147,-1.1680908203125,0.5118408203125,-0.216064453125
4.459,324,3147,2000,3147,-1.6904296875,0.561279296875,-0.0472412109375
4.473,331,3147,2139,3147,-1.9063720703125,0.4420166015625,0.0782470703125
4.481,332,3147,2205,3147,-1.800537109375,0.2843017578125,0.127197265625
4.489,332,3147,2238,3147,-1.5943603515625,0.2945556640625,0.0965576171875
4.503,334,3147,2263,3147,-1.44775390625,0.493896484375,-0.0357666015625
4.516,334,3147,2253,3147,-1.3277587890625,0.662841796875,-0.1834716796875
4.520,334,3147,2225,3147,-1.14013671875,0.70703125,-0.2652587890625
4.535,332,3147,2213,3147,-0.882080078125,0.7392578125,-0.2410888671875
4.543,333,3147,2225,3147,-0.8101806640625,0.7606201171875,-0.220947265625
4.557,333,3147,2195,3147,-1.1026611328125,0.644775390625,-0.3031005859375
4.563,332,3147,2160,3147,-1.507080078125,0.37939453125,-0.39501953125
4.572,332,3147,2085,3147,-1.6826171875,0.1903076171875,-0.3934326171875
4.584,330,3147,2010,3147,-1.5845947265625,0.2294921875,-0.3372802734375
4.593,328,3147,1789,3126,-1.3836669921875,0.3671875,-0.3228759765625
4.602,326,3147,1666,2912,-1.1943359375,0.454345703125,-0.314697265625
4.609,323,3147,1518,2627,-0.993896484375,0.47265625,-0.2364501953125
4.623,318,3147,1303,2186,-0.740478515625,0.490966796875,-0.0958251953125
4.649,317,3147,1243,1904,-0.4971923828125,0.5399169921875,0.02978515625
4.650,314,3147,1157,1399,-0.3917236328125,0.5526123046875,0.0504150390625
4.653,313,3147,991,813,-0.4642333984375,0.475830078125,0.018798828125
4.661,309,3147,907,501,-0.613037109375,0.3692626953125,0.0076904296875
4.669,300,3147,867,344,-0.736328125,0.27734375,-0.0452880859375
4.683,307,2525,848,344,-0.8194580078125,0.2127685546875,-0.1827392578125
4.696,309,2235,842,334,-0.8558349609375,0.2059326171875,-0.29296875
4.700,304,1961,840,332,-0.84033203125,0.2398681640625,-0.3056640625
4.713,304,1440,737,327,-0.805419921875,0.2757568359375,-0.2559814453125
4.721,304,1216,744,329,-0.78369140625,0.274169921875,-0.1883544921875
4.729,302,1117,710,323,-0.77099609375,0.234375,-0.156005859375
4.749,306,909,711,325,-0.76513671875,0.20166015625,-0.1705322265625
4.762,302,919,658,327,-0.76708984375,0.2177734375,-0.206298828125
4.762,304,923,653,324,-0.76708984375,0.2177734375,-0.206298828125
4.773,302,846,551,324,-0.7974853515625,0.32666015625,-0.23974609375
4.782,300,829,553,321,-0.82568359375,0.328125,-0.2315673828125
4.789,304,869,524,323,-0.82568359375,0.328125,-0.2315673828125
4.809,300,894,504,323,-0.8446044921875,0.3038330078125,-0.201171875
4.811,301,865,497,324,-0.8380126953125,0.3173828125,-0.181396484375
4.825,302,922,484,323,-0.8380126953125,0.3173828125,-0.181396484375
4.833,302,948,482,323,-0.8040771484375,0.3040771484375,-0.1480712890625
4.842,304,963,473,322,-0.7705078125,0.291748046875,-0.1556396484375
4.865,302,1120,473,322,-0.7705078125,0.291748046875,-0.1556396484375
4.866,302,1445,473,328,-0.7261962890625,0.2689208984375,-0.1934814453125
4.871,304,1647,493,323,-0.7413330078125,0.273681640625,-0.2037353515625
4.879,304,1955,531,330,-0.7413330078125,0.273681640625,-0.2037353515625
4.893,302,2295,567,333,-0.7926025390625,0.3336181640625,-0.197265625
4.902,302,2494,575,337,-0.785888671875,0.3382568359375,-0.1968994140625
4.909,304,2777,554,342,-0.785888671875,0.3382568359375,-0.1968994140625
4.929,306,3147,684,348,-0.6746826171875,0.2659912109375,-0.2005615234375
4.932,309,3147,842,656,-0.5968017578125,0.220947265625,-0.24072265625
4.945,308,3147,1054,917,-0.5968017578125,0.220947265625,-0.24072265625
4.963,316,3147,1323,1409,-0.48193359375,0.3433837890625,-0.2352294921875
4.964,317,3147,1445,1664,-0.406494140625,0.46728515625,-0.1282958984375
4.970,321,3147,1580,1899,-0.406494140625,0.46728515625,-0.1282958984375
4.983,323,3147,1830,2514,-0.4156494140625,0.32275390625,-0.140380859375
4.992,324,3147,1895,2668,-0.4156494140625,0.32275390625,-0.140380859375
5.000,328,3147,1982,2824,-0.710693359375,0.3238525390625,-0.1475830078125
5.014,333,3147,2113,3133,-1.364013671875,0.324462890625,0.00830078125
5.036,332,3147,2178,3147,-1.364013671875,0.324462890625,0.00830078125
5.036,310,3147,2233,3147,-1.4830322265625,0.3382568359375,0.0509033203125
5.043,336,3147,2311,3147,-1.532470703125,0.632568359375,-0.1834716796875
5.057,334,3147,2375,3147,-1.532470703125,0.632568359375,-0.1834716796875
5.070,337,3147,2386,3147,-1.5819091796875,0.8387451171875,-0.314697265625
5.074,336,3147,2356,3147,-1.5294189453125,0.4991455078125,-0.231689453125
5.082,338,3147,2388,3147,-1.5294189453125,0.4991455078125,-0.231689453125
5.090,336,3147,2375,3147,-1.2060546875,0.420654296875,-0.1619873046875
5.104,336,3147,2337,3147,-1.2476806640625,0.4853515625,-0.26513671875
5.112,334,3147,2306,3147,-1.2476806640625,0.4853515625,-0.26513671875
5.119,334,3147,2244,3147,-1.5194091796875,0.2681884765625,-0.36474609375
5.134,334,3147,2108,3147,-1.4957275390625,0.40771484375,-0.3818359375
5.164,332,3147,2039,3147,-1.4957275390625,0.40771484375,-0.3818359375
5.164,332,3147,1890,3066,-1.314697265625,0.5521240234375,-0.363037109375
5.165,330,3147,1686,2601,-0.9979248046875,0.459716796875,-0.229248046875
5.176,323,3147,1541,2259,-0.9979248046875,0.459716796875,-0.229248046875
5.180,322,3147,1419,1881,-0.8505859375,0.43505859375,-0.0897216796875
5.193,315,3147,1149,1213,-0.6883544921875,0.44580078125,-0.004638671875
5.201,313,3147,1051,592,-0.55517578125,0.426025390625,-0.0194091796875
5.210,310,3147,935,351,-0.484375,0.34619140625,-0.1077880859375
5.223,304,2633,750,338,-0.4576416015625,0.2547607421875,-0.1766357421875
5.235,304,2257,748,334,-0.4859619140625,0.2557373046875,-0.182373046875
5.240,304,1912,707,332,-0.6055908203125,0.319580078125,-0.1756591796875
5.281,306,1386,700,324,-0.74853515625,0.31591796875,-0.1729736328125
5.282,306,1041,689,329,-0.82421875,0.2362060546875,-0.1524658203125
5.282,302,856,654,324,-0.8372802734375,0.17529296875,-0.1246337890625
5.285,304,677,559,323,-0.837158203125,0.1785888671875,-0.11767578125
5.292,304,631,553,323,-0.8280029296875,0.205810546875,-0.139404296875
5.299,302,606,526,323,-0.795654296875,0.22607421875,-0.176025390625
5.313,305,644,531,318,-0.7618408203125,0.2525634765625,-0.1990966796875
5.321,300,631,490,321,-0.750732421875,0.2919921875,-0.18798828125
5.340,302,620,444,321,-0.762451171875,0.3189697265625,-0.156005859375
5.347,302,666,446,323,-0.7794189453125,0.32763671875,-0.1263427734375
5.375,304,694,479,322,-0.7919921875,0.3345947265625,-0.1109619140625
5.375,304,693,478,323,-0.80517578125,0.3370361328125,-0.1173095703125
5.375,302,687,462,322,-0.81201171875,0.3258056640625,-0.138671875
5.388,302,740,484,322,-0.8079833984375,0.305908203125,-0.16064453125
5.394,302,780,493,318,-0.7998046875,0.2822265625,-0.1741943359375
5.403,304,923,510,324,-0.781982421875,0.2532958984375,-0.177978515625
5.413,300,1093,564,324,-0.7529296875,0.228515625,-0.1669921875
5.420,306,1306,546,328,-0.73291015625,0.2205810546875,-0.1424560546875
5.441,306,1838,593,327,-0.734130859375,0.2347412109375,-0.1292724609375
5.445,304,2039,563,334,-0.7506103515625,0.2647705078125,-0.1400146484375
5.467,305,2337,644,334,-0.767333984375,0.2764892578125,-0.1605224609375
5.468,292,2870,737,344,-0.773193359375,0.27197265625,-0.1990966796875
5.495,308,3137,778,342,-0.7637939453125,0.3013916015625,-0.252685546875
5.496,308,3147,958,509,-0.720947265625,0.3544921875,-0.2838134765625
5.496,311,3147,1242,1064,-0.6326904296875,0.383544921875,-0.2939453125
5.503,314,3147,1336,1488,-0.5379638671875,0.3812255859375,-0.27587890625
5.511,318,3147,1450,1700,-0.466796875,0.3382568359375,-0.217529296875
5.525,318,3147,1678,2167,-0.4224853515625,0.2535400390625,-0.1617431640625
5.533,324,3147,1806,2418,-0.4437255859375,0.197265625,-0.166015625
5.541,328,3147,1927,2619,-0.5638427734375,0.294189453125,-0.161865234375
5.593,327,3147,2053,2966,-0.7847900390625,0.4727783203125,-0.078857421875
5.598,330,3147,2130,3106,-1.0579833984375,0.564208984375,0.047607421875
5.606,332,3147,2220,3147,-1.306884765625,0.490234375,0.18505859375
5.610,336,3147,2361,3147,-1.4793701171875,0.29296875,0.2510986328125
5.610,336,3147,2424,3147,-1.585693359375,0.1983642578125,0.17529296875
5.610,336,3147,2473,3147,-1.68896484375,0.3016357421875,-0.0047607421875
5.615,336,3147,2440,3147,-1.7510986328125,0.49609375,-0.1776123046875
5.625,338,3147,2437,3147,-1.658447265625,0.6041259765625,-0.2879638671875
5.636,338,3147,2445,3147,-1.287353515625,0.61962890625,-0.380615234375
5.644,334,3147,2447,3147,-0.86376953125,0.7674560546875,-0.4407958984375
5.653,338,3147,2437,3147,-0.8804931640625,0.9075927734375,-0.51513671875
5.660,337,3147,2422,3147,-1.2364501953125,0.7703857421875,-0.5828857421875
5.674,338,3147,2341,3147,-1.463623046875,0.5133056640625,-0.5186767578125
5.683,336,3147,2284,3147,-1.4764404296875,0.385986328125,-0.4046630859375
5.690,336,3147,2207,3147,-1.4072265625,0.4000244140625,-0.3140869140625
5.715,332,3147,1996,3147,-1.303955078125,0.430419921875,-0.2333984375
5.715,332,3147,1864,3147,-1.183349609375,0.4384765625,-0.1915283203125
5.721,328,3147,1761,3088,-1.083251953125,0.451416015625,-0.1961669921875
5.734,321,3147,1545,2456,-1.005126953125,0.4522705078125,-0.1976318359375
5.747,322,3147,1353,2048,-0.886474609375,0.384033203125,-0.1728515625
5.751,318,3147,1253,1588,-0.7022705078125,0.2904052734375,-0.1319580078125
5.784,313,3147,1057,816,-0.507568359375,0.2535400390625,-0.0721435546875
5.785,315,3147,986,431,-0.3824462890625,0.2828369140625,-0.0328369140625
5.785,310,3107,871,348,-0.3558349609375,0.346923828125,-0.054443359375
5.796,307,2667,710,343,-0.415771484375,0.40869140625,-0.0985107421875
5.803,306,2409,720,336,-0.5643310546875,0.4639892578125,-0.1678466796875
5.823,307,2175,720,336,-0.755615234375,0.4920654296875,-0.2379150390625
5.825,304,1772,673,330,-0.8707275390625,0.4678955078125,-0.24267578125
5.833,306,1531,631,332,-0.8778076171875,0.3782958984375,-0.210205078125
5.852,306,1318,654,329,-0.853515625,0.242431640625,-0.18798828125
5.854,304,1105,548,326,-0.8365478515625,0.1322021484375,-0.1756591796875
5.877,300,1056,588,324,-0.8211669921875,0.113525390625,-0.1580810546875
5.877,304,966,543,324,-0.809814453125,0.18603515625,-0.1400146484375
5.887,302,962,551,325,-0.806884765625,0.2923583984375,-0.1378173828125
5.895,304,934,533,324,-0.8074951171875,0.375,-0.151123046875
5.901,304,889,547,323,-0.8050537109375,0.4027099609375,-0.1695556640625
5.923,302,959,576,324,-0.7989501953125,0.3897705078125,-0.186767578125
5.924,304,989,571,324,-0.7972412109375,0.359619140625,-0.1912841796875
5.936,305,1050,594,324,-0.810791015625,0.3173828125,-0.179931640625
5.951,304,1112,605,324,-0.8359375,0.2730712890625,-0.1619873046875
5.953,304,1183,607,324,-0.859619140625,0.2581787109375,-0.1419677734375
5.961,304,1306,587,328,-0.8729248046875,0.284912109375,-0.123779296875
5.977,304,1390,600,328,-0.8748779296875,0.3106689453125,-0.120849609375
5.983,304,1481,564,328,-0.8739013671875,0.30322265625,-0.1343994140625
5.993,304,1589,551,327,-0.8739013671875,0.30322265625,-0.1343994140625
6.007,306,1743,625,330,-0.8704833984375,0.276611328125,-0.1741943359375
6.013,304,1891,627,330,-0.8609619140625,0.281005859375,-0.1956787109375
6.028,304,1996,636,330,-0.8609619140625,0.281005859375,-0.1956787109375
6.035,305,2178,640,332,-0.838623046875,0.33203125,-0.1826171875
6.057,306,2386,659,342,-0.8040771484375,0.3372802734375,-0.166015625
6.057,291,2605,660,345,-0.8040771484375,0.3372802734375,-0.166015625
6.084,310,3084,906,344,-0.669189453125,0.3258056640625,-0.1822509765625
6.084,310,3147,963,469,-0.6168212890625,0.3333740234375,-0.2177734375
6.084,310,3147,1143,833,-0.6168212890625,0.3333740234375,-0.2177734375
6.094,310,3147,1271,1422,-0.5067138671875,0.3541259765625,-0.1734619140625
6.104,316,3147,1344,1854,-0.3758544921875,0.29150390625,-0.0712890625
6.111,318,3147,1441,2117,-0.3758544921875,0.29150390625,-0.0712890625
6.124,321,3147,1664,2525,-0.3194580078125,0.1026611328125,-0.0260009765625
6.133,323,3147,1850,2772,-0.5303955078125,0.1461181640625,-0.052978515625
6.140,327,3147,1973,2961,-0.5303955078125,0.1461181640625,-0.052978515625
6.163,328,3147,2075,3147,-1.2279052734375,0.4134521484375,-0.0433349609375
6.163,328,3147,2119,3147,-1.425537109375,0.505126953125,-0.0579833984375
6.171,330,3147,2210,3147,-1.425537109375,0.505126953125,-0.0579833984375
6.193,334,3147,2341,3147,-1.553466796875,0.646484375,-0.2071533203125
6.194,336,3147,2409,3147,-1.539794921875,0.655517578125,-0.181884765625
6.200,338,3147,2440,3147,-1.539794921875,0.655517578125,-0.181884765625
6.215,338,3147,2442,3147,-1.3760986328125,0.656494140625,0.047119140625
6.223,336,3147,2386,3147,-1.3760986328125,0.656494140625,0.047119140625
6.230,334,3147,2359,3147,-1.248046875,0.6251220703125,0.0452880859375
6.244,334,3147,2381,3147,-1.037109375,0.38427734375,-0.351806640625
6.258,338,3147,2367,3147,-1.037109375,0.38427734375,-0.351806640625
6.261,334,3147,2330,3147,-1.2310791015625,0.4647216796875,-0.44580078125
6.285,330,3147,2247,3147,-1.6884765625,0.236083984375,-0.2734375
6.286,334,3147,2215,3147,-1.6884765625,0.236083984375,-0.2734375
6.291,334,3147,2117,3147,-1.6376953125,0.184326171875,-0.1357421875
6.299,332,3147,2012,3147,-1.455810546875,0.2984619140625,-0.107177734375
6.313,327,3147,1842,3147,-1.2352294921875,0.4610595703125,-0.1396484375
6.322,324,3147,1702,3147,-1.046142578125,0.5303955078125,-0.1676025390625
6.335,322,3147,1492,2593,-0.7489013671875,0.4439697265625,-0.1336669921875
6.349,315,3147,1280,2178,-0.7489013671875,0.4439697265625,-0.1336669921875
6.351,313,3147,1184,1744,-0.5723876953125,0.4759521484375,-0.13916015625
6.363,298,3147,1137,1268,-0.451171875,0.5479736328125,-0.2071533203125
6.402,306,3147,1025,375,-0.4368896484375,0.5970458984375,-0.2816162109375
6.405,312,2944,883,338,-0.5029296875,0.5531005859375,-0.32861328125
6.405,310,2541,883,336,-0.5986328125,0.450439453125,-0.2777099609375
6.405,296,2028,721,316,-0.661376953125,0.3629150390625,-0.115234375
6.412,307,1753,642,332,-0.6873779296875,0.2672119140625,0.00830078125
6.419,306,1562,653,324,-0.7310791015625,0.1522216796875,0.037841796875
6.433,304,1387,654,327,-0.7774658203125,0.088623046875,0.0240478515625
6.441,304,1328,600,328,-0.794189453125,0.1280517578125,-0.001953125
6.452,306,1278,571,329,-0.805419921875,0.22705078125,-0.02734375
6.464,304,1278,561,324,-0.8232421875,0.2965087890625,-0.062255859375
6.472,304,1303,614,327,-0.8272705078125,0.30712890625,-0.1025390625
6.489,302,1343,559,327,-0.8125,0.282470703125,-0.12744140625
6.500,306,1384,552,324,-0.7991943359375,0.266845703125,-0.145751953125
6.501,304,1452,538,315,-0.7991943359375,0.273193359375,-0.17138671875
6.511,304,1502,555,327,-0.8177490234375,0.2822265625,-0.194580078125
6.523,304,1604,546,328,-0.8551025390625,0.293701171875,-0.211181640625
6.531,304,1655,545,328,-0.89453125,0.3089599609375,-0.216796875
6.539,304,1683,561,328,-0.9140625,0.3038330078125,-0.2030029296875
6.569,306,1800,589,328,-0.90380859375,0.2662353515625,-0.18359375
6.571,305,1869,561,328,-0.869873046875,0.2139892578125,-0.17529296875
6.573,304,2010,596,338,-0.82373046875,0.175537109375,-0.175537109375
6.583,304,2286,582,334,-0.7734375,0.1790771484375,-0.174072265625
6.596,304,2471,634,336,-0.7288818359375,0.2244873046875,-0.1634521484375
6.602,304,2728,811,338,-0.6864013671875,0.274169921875,-0.1463623046875
6.613,309,3147,1091,490,-0.62158203125,0.2943115234375,-0.1402587890625
6.622,315,3147,1213,744,-0.532470703125,0.2705078125,-0.1630859375
6.630,316,3147,1279,1101,-0.4395751953125,0.2288818359375,-0.1949462890625
6.644,318,3147,1481,1669,-0.3387451171875,0.2528076171875,-0.2088623046875
6.652,319,3147,1656,2024,-0.2344970703125,0.3956298828125,-0.20166015625
6.673,323,3147,1786,2341,-0.2137451171875,0.5474853515625,-0.2196044921875
6.674,324,3147,1925,2780,-0.3870849609375,0.6197509765625,-0.2357177734375
6.693,328,3147,1983,3032,-0.7696533203125,0.6552734375,-0.1549072265625
6.694,331,3147,2087,3147,-1.2322998046875,0.576171875,-0.0115966796875
6.706,332,3147,2223,3147,-1.58642578125,0.3223876953125,0.1522216796875
6.712,333,3147,2286,3147,-1.728759765625,0.03955078125,0.2703857421875
6.726,334,3147,2322,3147,-1.659423828125,-0.0692138671875,0.286376953125
6.734,334,3147,2386,3147,-1.5509033203125,0.0638427734375,0.1444091796875
6.742,336,3147,2407,3147,-1.5799560546875,0.3427734375,-0.1051025390625
6.750,336,3147,2386,3147,-1.62646484375,0.53076171875,-0.2237548828125
6.777,336,3147,2388,3147,-1.443115234375,0.5142822265625,-0.2322998046875
6.777,336,3147,2412,3147,-1.0521240234375,0.6019287109375,-0.20703125
6.780,336,3147,2414,3147,-0.908935546875,0.759521484375,-0.2191162109375
6.795,336,3147,2382,3147,-1.1934814453125,0.6370849609375,-0.3175048828125
6.807,334,3147,2334,3147,-1.495849609375,0.3602294921875,-0.329833984375
6.810,334,3147,2279,3147,-1.562744140625,0.236572265625,-0.2554931640625
6.824,331,3147,2137,3147,-1.4774169921875,0.3170166015625,-0.189208984375
6.837,331,3147,2035,3147,-1.3631591796875,0.4180908203125,-0.16455078125
6.840,328,3147,1878,3147,-1.2738037109375,0.4114990234375,-0.17529296875
6.854,323,3147,1634,3084,-1.1864013671875,0.3538818359375,-0.1832275390625
6.862,318,3147,1523,2713,-1.0457763671875,0.345947265625,-0.1676025390625
6.880,321,3147,1372,2286,-0.82275390625,0.3826904296875,-0.138427734375
6.900,310,3147,1213,1456,-0.57373046875,0.4224853515625,-0.1275634765625
6.904,310,3147,1178,827,-0.40771484375,0.4312744140625,-0.10986328125
6.905,309,3147,1097,398,-0.3660888671875,0.3948974609375,-0.1002197265625
6.914,310,2573,971,338,-0.42578125,0.348388671875,-0.1387939453125
6.922,308,2341,852,338,-0.5592041015625,0.358154296875,-0.1839599609375
6.930,306,2053,790,334,-0.70556640625,0.396484375,-0.227783203125
6.949,310,1560,811,327,-0.7908935546875,0.3941650390625,-0.2415771484375
6.952,301,1386,784,328,-0.79833984375,0.340087890625,-0.173828125
6.960,302,1091,698,332,-0.78271484375,0.24462890625,-0.0804443359375
6.974,306,910,697,323,-0.797119140625,0.1607666015625,-0.0341796875
7.006,304,895,678,327,-0.8236083984375,0.134033203125,-0.0506591796875
7.006,289,864,653,321,-0.83203125,0.166748046875,-0.0963134765625
7.007,304,818,578,323,-0.8358154296875,0.2237548828125,-0.13623046875
7.012,302,767,559,323,-0.8499755859375,0.267822265625,-0.1583251953125
7.020,302,739,568,323,-0.8499755859375,0.267822265625,-0.1583251953125
7.033,302,735,526,323,-0.8614501953125,0.2698974609375,-0.18310546875
7.042,304,766,536,323,-0.8453369140625,0.259033203125,-0.1976318359375
7.050,304,806,568,327,-0.8453369140625,0.259033203125,-0.1976318359375
7.063,304,864,559,323,-0.8270263671875,0.2664794921875,-0.2130126953125
7.078,306,929,590,322,-0.827880859375,0.28125,-0.2037353515625
7.080,302,1005,594,322,-0.827880859375,0.28125,-0.2037353515625
7.095,304,1074,601,323,-0.8409423828125,0.283447265625,-0.17578125
7.106,302,1271,598,328,-0.835205078125,0.2659912109375,-0.1651611328125
7.115,304,1402,591,328,-0.835205078125,0.2659912109375,-0.1651611328125
7.127,304,1695,617,330,-0.7974853515625,0.21923828125,-0.1485595703125
7.133,304,1878,562,332,-0.768310546875,0.212158203125,-0.13671875
7.140,304,2093,536,331,-0.768310546875,0.212158203125,-0.13671875
7.153,304,2626,532,334,-0.654541015625,0.2686767578125,-0.125244140625
7.162,300,3063,683,342,-0.5665283203125,0.315185546875,-0.1326904296875
7.183,304,3147,816,702,-0.5665283203125,0.315185546875,-0.1326904296875
7.184,293,3147,1039,1280,-0.40625,0.358154296875,-0.187255859375
7.219,313,3147,1217,1662,-0.366455078125,0.3858642578125,-0.1090087890625
7.220,316,3147,1369,2041,-0.366455078125,0.3858642578125,-0.1090087890625
7.220,321,3147,1598,2554,-0.39208984375,0.2821044921875,0.166015625
7.222,328,3147,1743,2890,-0.58349609375,0.097900390625,0.1656494140625
7.230,323,3147,1853,3101,-0.58349609375,0.097900390625,0.1656494140625
7.244,328,3147,1996,3147,-1.362060546875,0.1285400390625,0.0306396484375
7.252,328,3147,2113,3147,-1.362060546875,0.1285400390625,0.0306396484375
7.260,331,3147,2152,3147,-1.6580810546875,0.250244140625,-0.2166748046875
7.274,332,3147,2243,3147,-1.811279296875,0.4400634765625,-0.628662109375
7.288,334,3147,2258,3147,-1.811279296875,0.4400634765625,-0.628662109375
7.290,330,3147,2257,3147,-1.6837158203125,0.45751953125,-0.3995361328125
7.304,338,3147,2174,3147,-1.3192138671875,0.60498046875,-0.163818359375
7.320,330,3147,2135,3147,-1.3192138671875,0.60498046875,-0.163818359375
7.321,330,3147,2131,3147,-1.132568359375,0.6654052734375,-0.345947265625
7.334,331,3147,2192,3147,-0.92626953125,0.8087158203125,-0.412109375
7.342,331,3147,2180,3147,-0.92626953125,0.8087158203125,-0.412109375
7.351,331,3147,2123,3147,-1.253662109375,0.6527099609375,-0.251220703125
7.364,327,3147,1925,3147,-1.7891845703125,-0.04833984375,0.0267333984375
7.372,327,3147,1806,3147,-1.7891845703125,-0.04833984375,0.0267333984375
7.385,327,3147,1684,3147,-1.534423828125,-0.058349609375,0.0224609375
7.400,321,3147,1440,3147,-0.9237060546875,0.520263671875,-0.2738037109375
7.402,318,3147,1323,3147,-0.9237060546875,0.520263671875,-0.2738037109375
7.419,313,3147,1183,2949,-0.8323974609375,0.572509765625,-0.358154296875
7.424,316,3147,1071,2135,-0.7945556640625,0.384521484375,-0.3133544921875
7.433,312,3147,989,1689,-0.7945556640625,0.384521484375,-0.3133544921875
7.441,314,3147,906,1278,-0.7528076171875,0.3927001953125,-0.28857421875
7.455,306,3147,750,628,-0.7269287109375,0.41015625,-0.298828125
7.463,305,3120,628,345,-0.7269287109375,0.41015625,-0.298828125
7.471,306,2607,536,332,-0.7347412109375,0.3118896484375,-0.3121337890625
7.488,302,1997,481,332,-0.6512451171875,0.22998046875,-0.196044921875
7.494,304,1629,456,327,-0.6512451171875,0.22998046875,-0.196044921875
7.501,304,1323,460,324,-0.612060546875,0.2562255859375,-0.0489501953125
7.531,304,1024,456,323,-0.76220703125,0.2135009765625,0.03759765625
7.532,300,918,439,324,-0.76220703125,0.2135009765625,0.03759765625
7.532,286,750,387,323,-0.8414306640625,0.2086181640625,-0.0244140625
7.545,304,559,385,317,-0.8714599609375,0.31396484375,-0.1588134765625
7.553,300,591,391,321,-0.8714599609375,0.31396484375,-0.1588134765625
7.561,304,564,384,317,-0.8502197265625,0.2960205078125,-0.1934814453125
7.575,302,619,426,321,-0.8238525390625,0.2232666015625,-0.2099609375
7.590,304,643,433,322,-0.8057861328125,0.14892578125,-0.204345703125
7.591,301,607,462,305,-0.7978515625,0.1207275390625,-0.200927734375
7.607,302,614,440,321,-0.794921875,0.1419677734375,-0.2093505859375
7.631,302,625,444,321,-0.789794921875,0.1796875,-0.2152099609375
7.631,283,658,427,319,-0.7923583984375,0.206787109375,-0.20947265625
7.635,302,661,423,321,-0.808837890625,0.22021484375,-0.194580078125
7.643,304,693,411,321,-0.822021484375,0.228515625,-0.18359375
7.651,304,794,425,325,-0.8125,0.226318359375,-0.182373046875
7.665,302,1000,405,325,-0.7857666015625,0.20751953125,-0.18896484375
7.673,306,1186,361,332,-0.7591552734375,0.1959228515625,-0.1968994140625
7.683,302,1488,419,328,-0.7440185546875,0.2125244140625,-0.195068359375
7.695,306,1877,391,329,-0.7559814453125,0.2515869140625,-0.1868896484375
7.719,306,2100,432,338,-0.78759765625,0.291748046875,-0.18505859375
7.719,306,2409,469,336,-0.807861328125,0.311279296875,-0.1929931640625
7.742,308,2901,684,347,-0.7926025390625,0.301025390625,-0.210205078125
7.742,309,3147,944,361,-0.7196044921875,0.2608642578125,-0.22900390625
7.742,314,3147,1156,678,-0.5859375,0.200927734375,-0.236083984375
7.755,318,3147,1537,1160,-0.4375,0.1761474609375,-0.1866455078125
7.763,321,3147,1669,1557,-0.3134765625,0.1932373046875,-0.0869140625
7.771,318,3147,1798,1792,-0.24853515625,0.1922607421875,-0.015869140625
7.784,328,3147,2026,2286,-0.3094482421875,0.2109375,-0.02490234375
7.794,328,3147,2160,2560,-0.5640869140625,0.3701171875,-0.083251953125
7.801,331,3147,2258,2818,-0.9962158203125,0.6212158203125,-0.1414794921875
7.816,332,3147,2281,3147,-1.455810546875,0.6832275390625,-0.2081298828125
7.823,336,3147,2367,3147,-1.7647705078125,0.49560546875,-0.2252197265625
7.844,336,3147,2410,3147,-1.8668212890625,0.2718505859375,-0.1839599609375
7.851,332,3147,2519,3147,-1.810791015625,0.183837890625,-0.0830078125
7.853,334,3147,2493,3147,-1.700927734375,0.21142578125,-0.0159912109375
7.861,336,3147,2516,3147,-1.5782470703125,0.26123046875,-0.091552734375
7.874,337,3147,2544,3147,-1.3236083984375,0.353759765625,-0.28564453125
7.882,336,3147,2544,3147,-1.0587158203125,0.622314453125,-0.4844970703125
7.897,336,3147,2534,3147,-1.1295166015625,0.825439453125,-0.57373046875
7.905,337,3147,2484,3147,-1.4207763671875,0.6630859375,-0.55078125
7.921,336,3147,2419,3147,-1.5733642578125,0.397216796875,-0.409423828125
7.931,336,3147,2334,3147,-1.5308837890625,0.2821044921875,-0.25537109375
7.964,334,3147,2183,3147,-1.3778076171875,0.3023681640625,-0.1597900390625
7.965,330,3147,2102,3046,-1.1922607421875,0.350341796875,-0.11474609375
7.965,327,3147,1908,2757,-1.0343017578125,0.369873046875,-0.130615234375
7.965,324,3147,1629,2257,-0.9127197265625,0.373046875,-0.1658935546875
7.973,321,3147,1516,1969,-0.7979736328125,0.3466796875,-0.17431640625
7.980,315,3147,1411,1604,-0.6864013671875,0.30224609375,-0.16748046875
8.000,313,3147,1278,987,-0.604248046875,0.313232421875,-0.1419677734375
8.003,313,3147,1157,578,-0.55517578125,0.330078125,-0.131591796875
8.016,308,3147,1054,347,-0.5355224609375,0.2882080078125,-0.1881103515625
8.028,307,2532,910,344,-0.5662841796875,0.248291015625,-0.2442626953125
8.033,313,2246,799,338,-0.6593017578125,0.2620849609375,-0.211669921875
8.041,307,2078,767,336,-0.7708740234375,0.2945556640625,-0.1422119140625
8.055,304,1773,774,332,-0.83984375,0.3026123046875,-0.1199951171875
8.063,310,1611,778,334,-0.8359375,0.285888671875,-0.1309814453125
8.076,306,1501,725,330,-0.78564453125,0.2496337890625,-0.1409912109375
8.085,305,1283,697,329,-0.7603759765625,0.2198486328125,-0.135009765625
8.093,308,1120,705,329,-0.7861328125,0.2177734375,-0.122802734375
8.101,306,1098,710,327,-0.8271484375,0.240966796875,-0.1268310546875
8.117,306,1025,660,327,-0.8531494140625,0.276123046875,-0.14306640625
8.131,304,987,669,327,-0.8599853515625,0.3045654296875,-0.1597900390625
8.131,307,1003,654,327,-0.8570556640625,0.3062744140625,-0.1744384765625
8.145,305,978,636,327,-0.8555908203125,0.2769775390625,-0.1787109375
8.157,304,1009,650,326,-0.8560791015625,0.241455078125,-0.1790771484375
8.161,305,1043,654,321,-0.851318359375,0.223876953125,-0.1883544921875
8.175,306,1081,687,324,-0.8460693359375,0.228759765625,-0.196044921875
8.189,306,1157,698,328,-0.846435546875,0.244140625,-0.1925048828125
8.191,306,1216,707,328,-0.8475341796875,0.2525634765625,-0.182861328125
8.204,306,1440,725,328,-0.8419189453125,0.244873046875,-0.1728515625
8.213,306,1521,733,334,-0.8321533203125,0.2242431640625,-0.1641845703125
8.242,306,1641,748,330,-0.82666015625,0.2000732421875,-0.1593017578125
8.243,306,1918,737,336,-0.822021484375,0.191162109375,-0.16064453125
8.243,308,2100,714,336,-0.806396484375,0.20947265625,-0.15869140625
8.251,308,2330,735,338,-0.7772216796875,0.2432861328125,-0.1524658203125
8.264,313,2769,784,345,-0.7374267578125,0.28662109375,-0.1385498046875
8.273,306,3105,853,347,-0.682861328125,0.33837890625,-0.1156005859375
8.281,311,3147,1083,607,-0.682861328125,0.33837890625,-0.1156005859375
8.308,315,3147,1255,1222,-0.4559326171875,0.3480224609375,-0.1334228515625
8.311,316,3147,1443,1529,-0.2918701171875,0.3106689453125,-0.1060791015625
8.311,317,3147,1509,1882,-0.2918701171875,0.3106689453125,-0.1060791015625
8.333,319,3147,1695,2507,-0.189208984375,0.222900390625,0.0755615234375
8.334,327,3147,1815,2912,-0.4478759765625,0.2227783203125,0.040771484375
8.343,327,3147,1878,3147,-0.4478759765625,0.2227783203125,0.040771484375
8.356,329,3147,2060,3147,-1.473388671875,0.51123046875,-0.2880859375
8.370,328,3147,2160,3147,-1.77978515625,0.485595703125,-0.3731689453125
8.371,317,3147,2221,3147,-1.77978515625,0.485595703125,-0.3731689453125
8.385,332,3147,2299,3147,-1.6629638671875,0.197998046875,-0.2391357421875
8.393,334,3147,2334,3147,-1.5765380859375,0.208740234375,-0.1697998046875
8.416,334,3147,2350,3147,-1.5765380859375,0.208740234375,-0.1697998046875
8.416,334,3147,2308,3147,-1.4449462890625,0.463623046875,-0.1839599609375
8.438,334,3147,2255,3147,-1.2838134765625,0.51171875,-0.2513427734375
8.438,334,3147,2217,3147,-1.2838134765625,0.51171875,-0.2513427734375
8.446,332,3147,2249,3147,-0.9034423828125,0.7255859375,-0.2196044921875
8.453,332,3147,2220,3147,-1.2073974609375,0.6328125,-0.14599609375
8.461,331,3147,2153,3147,-1.2073974609375,0.6328125,-0.14599609375
8.477,328,3147,1996,3147,-1.65478515625,0.062744140625,-0.014404296875
8.483,328,3147,1877,3147,-1.65478515625,0.062744140625,-0.014404296875
8.491,324,3147,1798,3147,-1.4405517578125,0.0811767578125,-0.0628662109375
8.511,324,3147,1607,3147,-1.0592041015625,0.432373046875,-0.2781982421875
8.513,306,3147,1476,3088,-1.0592041015625,0.432373046875,-0.2781982421875
8.529,323,3147,1427,2837,-0.989501953125,0.4119873046875,-0.318115234375
8.551,300,3147,1236,2153,-0.876708984375,0.405029296875,-0.2059326171875
8.551,298,3147,1120,1700,-0.876708984375,0.405029296875,-0.2059326171875
8.567,313,3147,1005,1331,-0.7939453125,0.4461669921875,-0.16845703125
8.586,312,3147,943,932,-0.7095947265625,0.4222412109375,-0.1890869140625
8.587,308,3147,744,344,-0.6326904296875,0.35302734375,-0.214599609375
8.589,310,2683,702,334,-0.6326904296875,0.35302734375,-0.214599609375
8.598,306,2344,679,331,-0.654052734375,0.3643798828125,-0.1859130859375
8.617,292,1662,673,328,-0.677490234375,0.3031005859375,-0.15673828125
8.617,306,1469,695,330,-0.677490234375,0.3031005859375,-0.15673828125
8.621,304,1269,654,327,-0.68603515625,0.255126953125,-0.1466064453125
8.653,304,986,654,327,-0.787353515625,0.21435546875,-0.0902099609375
8.662,304,925,620,324,-0.787353515625,0.21435546875,-0.0902099609375
8.662,280,897,591,327,-0.839111328125,0.2325439453125,-0.061279296875
8.665,304,759,572,322,-0.891357421875,0.2373046875,-0.0859375
8.673,304,644,479,323,-0.891357421875,0.2373046875,-0.0859375
8.681,304,653,493,323,-0.89599609375,0.2137451171875,-0.1126708984375
8.695,300,689,467,321,-0.88818359375,0.1829833984375,-0.1307373046875
8.703,304,698,497,317,-0.8668212890625,0.1566162109375,-0.144775390625
8.715,302,684,509,322,-0.8416748046875,0.147216796875,-0.1641845703125
8.725,304,733,510,321,-0.82373046875,0.156494140625,-0.1812744140625
8.733,304,744,508,321,-0.8153076171875,0.1766357421875,-0.1890869140625
8.753,302,775,514,321,-0.8177490234375,0.2047119140625,-0.1871337890625
8.755,286,824,523,323,-0.8265380859375,0.23095703125,-0.1771240234375
8.763,304,872,533,326,-0.8319091796875,0.2391357421875,-0.166748046875
8.807,304,939,562,323,-0.828125,0.229736328125,-0.1654052734375
8.807,306,1100,682,323,-0.815673828125,0.2122802734375,-0.1695556640625
8.807,306,1257,687,328,-0.802490234375,0.19384765625,-0.16748046875
8.807,306,1447,689,328,-0.80224609375,0.1898193359375,-0.1519775390625
8.825,306,1838,726,332,-0.8143310546875,0.208251953125,-0.135009765625
8.833,305,2012,766,332,-0.8211669921875,0.22900390625,-0.1253662109375
8.834,305,2183,803,332,-0.80517578125,0.2276611328125,-0.121826171875
8.845,313,2679,927,338,-0.7626953125,0.19677734375,-0.11865234375
8.855,306,3147,980,347,-0.691162109375,0.133544921875,-0.11669921875
8.865,310,3147,1189,582,-0.5924072265625,0.0701904296875,-0.1199951171875
8.875,316,3147,1411,1178,-0.494873046875,0.0712890625,-0.1043701171875
8.883,315,3147,1519,1470,-0.396240234375,0.1353759765625,-0.0528564453125
8.891,319,3147,1640,1892,-0.3226318359375,0.2052001953125,0.0286865234375
8.904,324,3147,1821,2574,-0.3809814453125,0.2496337890625,0.0802001953125
8.923,324,3147,1952,2874,-0.599609375,0.266357421875,0.022705078125
8.923,328,3147,2129,3147,-0.9222412109375,0.385009765625,-0.098876953125
8.941,329,3147,2233,3147,-1.265625,0.634521484375,-0.23779296875
8.946,332,3147,2277,3147,-1.4747314453125,0.8092041015625,-0.378173828125
8.961,332,3147,2344,3147,-1.4586181640625,0.829833984375,-0.3955078125
8.965,333,3147,2407,3147,-1.399658203125,0.6998291015625,-0.3140869140625
8.977,333,3147,2448,3147,-1.464111328125,0.51123046875,-0.2135009765625
8.981,336,3147,2469,3147,-1.5780029296875,0.4095458984375,-0.1417236328125
8.995,334,3147,2394,3147,-1.6387939453125,0.3753662109375,-0.1715087890625
9.009,333,3147,2376,3147,-1.5145263671875,0.3187255859375,-0.2757568359375
9.011,323,3147,2357,3147,-1.1322021484375,0.4052734375,-0.349609375
9.025,332,3147,2388,3147,-0.81591796875,0.71435546875,-0.353515625
9.033,332,3147,2381,3147,-0.9393310546875,0.9217529296875,-0.3277587890625
9.041,333,3147,2337,3147,-1.3939208984375,0.7567138671875,-0.2279052734375
9.054,330,3147,2155,3147,-1.78271484375,0.327880859375,-0.08447265625
9.063,328,3147,1996,3147,-1.7926025390625,0.045654296875,-0.002197265625
9.070,327,3147,1850,3147,-1.5023193359375,0.158203125,-0.051025390625
9.090,324,3147,1646,2948,-1.2181396484375,0.46533203125,-0.2135009765625
9.093,318,3147,1555,2590,-1.0733642578125,0.6014404296875,-0.363525390625
9.101,316,3147,1433,2178,-0.99609375,0.51025390625,-0.3697509765625
9.197,315,3147,1166,1357,-0.8531494140625,0.3758544921875,-0.25244140625
9.214,314,3147,1065,824,-0.604736328125,0.312744140625,-0.1807861328125
9.293,308,3147,913,490,-0.3511962890625,0.347900390625,-0.2001953125
9.293,304,2650,748,337,-0.2357177734375,0.400146484375,-0.2381591796875
9.294,306,2235,723,336,-0.3179931640625,0.38330078125,-0.281005859375
9.294,307,1922,725,332,-0.523193359375,0.345458984375,-0.2828369140625
9.297,304,1659,744,308,-0.69384765625,0.31689453125,-0.1993408203125
9.302,307,1508,710,328,-0.7635498046875,0.260498046875,-0.13037109375
9.316,306,1355,682,328,-0.8021240234375,0.188232421875,-0.1083984375
9.317,306,1071,721,323,-0.8433837890625,0.12646484375,-0.0714111328125
9.318,304,1009,700,323,-0.8653564453125,0.0665283203125,-0.0345458984375
9.318,304,966,702,324,-0.859375,0.04248046875,-0.0216064453125
9.319,305,944,625,324,-0.842529296875,0.0908203125,-0.044921875
9.319,304,918,653,324,-0.84130859375,0.1715087890625,-0.094482421875
9.320,306,918,684,324,-0.853759765625,0.2320556640625,-0.141845703125
9.320,304,921,697,323,-0.86669921875,0.2647705078125,-0.1715087890625
9.336,304,895,689,323,-0.87841796875,0.2718505859375,-0.182373046875
9.336,304,907,631,323,-0.891357421875,0.2530517578125,-0.18505859375
9.337,304,947,603,323,-0.8994140625,0.228271484375,-0.1864013671875
9.337,304,987,567,328,-0.898193359375,0.226806640625,-0.1865234375
9.337,304,1000,588,324,-0.888916015625,0.2384033203125,-0.1900634765625
9.337,302,1024,568,324,-0.888916015625,0.2384033203125,-0.1900634765625
9.338,304,1118,656,307,-0.8603515625,0.22119140625,-0.203125
9.345,306,1163,654,328,-0.847412109375,0.2049560546875,-0.198486328125
9.377,304,1251,730,327,-0.83154296875,0.1949462890625,-0.1910400390625
9.384,291,1527,759,331,-0.818603515625,0.19140625,-0.1810302734375
9.385,308,1681,800,332,-0.81494140625,0.1942138671875,-0.1695556640625
9.385,306,1772,827,333,-0.81884765625,0.2169189453125,-0.157958984375
9.395,306,2000,808,333,-0.8248291015625,0.259033203125,-0.1507568359375
9.403,308,2145,835,334,-0.829833984375,0.2889404296875,-0.155517578125
9.411,300,2303,859,338,-0.829833984375,0.2889404296875,-0.155517578125
9.437,310,2727,984,345,-0.8203125,0.249267578125,-0.15869140625
9.437,316,3066,1053,346,-0.7945556640625,0.225341796875,-0.1556396484375
9.441,310,3147,1116,437,-0.7945556640625,0.225341796875,-0.1556396484375
9.464,310,3147,1280,894,-0.726318359375,0.2850341796875,-0.1016845703125
9.465,298,3147,1380,1225,-0.6396484375,0.23583984375,-0.0535888671875
9.471,316,3147,1472,1545,-0.6396484375,0.23583984375,-0.0535888671875
9.485,318,3147,1634,1985,-0.470703125,0.1180419921875,0.0313720703125
9.493,321,3147,1819,2394,-0.47314453125,0.1729736328125,0.009765625
9.501,324,3147,1980,2627,-0.47314453125,0.1729736328125,0.009765625
9.515,328,3147,2167,3147,-0.7064208984375,0.439697265625,-0.420166015625
9.523,328,3147,2210,3147,-0.923583984375,0.613037109375,-0.6258544921875
9.543,330,3147,2260,3147,-0.923583984375,0.613037109375,-0.6258544921875
9.548,333,3147,2296,3147,-1.209228515625,0.58447265625,-0.444580078125
9.562,332,3147,2350,3147,-1.256103515625,0.4893798828125,-0.1220703125
9.563,330,3147,2412,3147,-1.256103515625,0.4893798828125,-0.1220703125
9.580,334,3147,2486,3147,-1.5494384765625,0.5408935546875,0.145751953125
9.583,342,3147,2521,3147,-1.6451416015625,0.65380859375,0.1314697265625
9.591,334,3147,2498,3147,-1.6451416015625,0.65380859375,0.1314697265625
9.605,334,3147,2526,3147,-1.57080078125,0.3348388671875,0.0184326171875
9.613,334,3147,2514,3147,-1.312255859375,0.236083984375,-0.0277099609375
9.621,336,3147,2492,3147,-1.312255859375,0.236083984375,-0.0277099609375
9.654,334,3147,2410,3147,-1.3214111328125,0.3291015625,-0.0941162109375
9.671,334,3147,2354,3147,-1.3214111328125,0.3291015625,-0.0941162109375
9.671,332,3147,2286,3147,-1.4039306640625,0.2744140625,-0.14111328125
9.683,329,3147,2139,3147,-1.21044921875,0.4195556640625,-0.3135986328125
9.683,324,3147,2058,3147,-1.21044921875,0.4195556640625,-0.3135986328125
9.683,328,3147,1980,3147,-1.087890625,0.54638671875,-0.3692626953125
9.694,323,3147,1691,2820,-1.09619140625,0.500732421875,-0.279541015625
9.703,319,3147,1550,2435,-1.09619140625,0.500732421875,-0.279541015625
9.711,318,3147,1447,2106,-1.1204833984375,0.414306640625,-0.191650390625
9.724,315,3147,1202,1348,-0.870361328125,0.321044921875,-0.0987548828125
9.739,310,3147,1091,917,-0.870361328125,0.321044921875,-0.0987548828125
9.741,293,3147,1000,439,-0.636962890625,0.30615234375,-0.1553955078125
9.760,304,2449,864,344,-0.3443603515625,0.441650390625,-0.2359619140625
9.770,305,2231,794,334,-0.3443603515625,0.441650390625,-0.2359619140625
9.771,310,1989,780,330,-0.37744140625,0.44287109375,-0.21923828125
9.785,306,1705,772,331,-0.607421875,0.2738037109375,-0.1668701171875
9.793,306,1470,837,327,-0.607421875,0.2738037109375,-0.1668701171875
9.801,306,1336,785,327,-0.7413330078125,0.20166015625,-0.1473388671875
9.815,306,1067,794,324,-0.91259765625,0.0966796875,-0.06298828125
9.823,304,957,797,323,-0.91259765625,0.0966796875,-0.06298828125
9.831,304,830,790,327,-0.96630859375,0.0989990234375,-0.0201416015625
9.845,306,826,782,323,-0.978515625,0.132568359375,-0.0052490234375
9.867,304,731,748,323,-0.9581298828125,0.1634521484375,-0.0433349609375
9.869,306,693,697,323,-0.9281005859375,0.170166015625,-0.097900390625
9.881,305,697,648,321,-0.89404296875,0.1610107421875,-0.1343994140625
9.883,306,678,660,321,-0.861328125,0.1722412109375,-0.153564453125
9.892,302,725,607,321,-0.8284912109375,0.222900390625,-0.162841796875
9.900,304,728,591,322,-0.79345703125,0.2816162109375,-0.16455078125
9.914,304,733,679,323,-0.764404296875,0.3037109375,-0.1622314453125
9.922,304,772,702,323,-0.7529296875,0.28369140625,-0.1588134765625
9.930,304,813,754,323,-0.754638671875,0.2415771484375,-0.1544189453125
9.944,308,1005,865,323,-0.7547607421875,0.2027587890625,-0.143798828125
9.952,302,1249,905,331,-0.7513427734375,0.1815185546875,-0.126708984375
9.966,308,1529,883,329,-0.7427978515625,0.165771484375,-0.1114501953125
9.978,308,1979,946,334,-0.73095703125,0.1619873046875,-0.102783203125
9.991,308,2188,984,334,-0.7352294921875,0.18115234375,-0.0997314453125
9.993,309,2379,1079,343,-0.7584228515625,0.1922607421875,-0.1104736328125
10.004,310,2959,1231,346,-0.759033203125,0.171630859375,-0.142578125
10.012,310,3147,1333,456,-0.7127685546875,0.156982421875,-0.1640625
10.020,316,3147,1397,761,-0.633544921875,0.1871337890625,-0.1365966796875
10.034,318,3147,1634,1294,-0.50927734375,0.218505859375,-0.0545654296875
10.047,318,3147,1700,1786,-0.3697509765625,0.229736328125,0.0523681640625
10.050,323,3147,1820,2166,-0.323974609375,0.258056640625,0.0963134765625
10.064,328,3147,2071,2746,-0.4560546875,0.29736328125,0.0482177734375
10.073,327,3147,2203,2954,-0.763427734375,0.4078369140625,-0.0263671875
10.091,328,3147,2259,3147,-1.134765625,0.553955078125,-0.130859375
10.094,333,3147,2348,3147,-1.4105224609375,0.6368408203125,-0.253662109375
10.104,331,3147,2410,3147,-1.5142822265625,0.6556396484375,-0.312255859375
10.110,332,3147,2456,3147,-1.506591796875,0.58447265625,-0.3284912109375
10.124,334,3147,2521,3147,-1.510498046875,0.5272216796875,-0.316162109375
10.132,334,3147,2554,3147,-1.5269775390625,0.5697021484375,-0.26318359375
10.140,336,3147,2530,3147,-1.510986328125,0.63232421875,-0.2158203125
10.154,334,3147,2456,3147,-1.448974609375,0.60400390625,-0.1968994140625
10.165,333,3147,2464,3147,-1.233154296875,0.545654296875,-0.20849609375
10.189,334,3147,2464,3147,-1.027587890625,0.635498046875,-0.1817626953125
10.189,332,3147,2394,3147,-1.175537109375,0.6600341796875,-0.1566162109375
10.192,332,3147,2330,3147,-1.495849609375,0.409423828125,-0.156982421875
10.201,332,3147,2272,3147,-1.611572265625,0.1314697265625,-0.1234130859375
10.216,328,3147,2113,3147,-1.5013427734375,0.114501953125,-0.1448974609375
10.222,328,3147,2018,3147,-1.3033447265625,0.349609375,-0.2410888671875
10.230,324,3147,1882,3147,-1.1363525390625,0.561767578125,-0.327880859375
10.251,323,3147,1597,2665,-1.0657958984375,0.575927734375,-0.353515625
10.252,313,3147,1452,2243,-1.047607421875,0.4803466796875,-0.3043212890625
10.260,316,3147,1382,1769,-0.9669189453125,0.390625,-0.238037109375
10.294,313,3147,1071,991,-0.775390625,0.35693359375,-0.211669921875
10.296,307,3147,964,497,-0.5291748046875,0.3922119140625,-0.208251953125
10.296,307,2840,800,338,-0.3646240234375,0.4268798828125,-0.2296142578125
10.304,307,2035,772,342,-0.3699951171875,0.4334716796875,-0.2340087890625
10.312,306,1757,785,332,-0.4776611328125,0.4407958984375,-0.1693115234375
10.320,304,1476,806,328,-0.606201171875,0.443115234375,-0.06689453125
10.334,306,958,800,324,-0.73876953125,0.3978271484375,-0.0216064453125
10.342,306,806,805,319,-0.8577880859375,0.302978515625,-0.073486328125
10.354,304,720,793,323,-0.921142578125,0.2301025390625,-0.14453125
10.375,308,642,695,321,-0.91015625,0.2227783203125,-0.1861572265625
10.386,306,630,682,321,-0.8580322265625,0.2235107421875,-0.1976318359375
10.419,302,694,673,321,-0.8111572265625,0.1885986328125,-0.1826171875
10.419,302,695,620,321,-0.7960205078125,0.149658203125,-0.14599609375
10.419,302,648,683,319,-0.7969970703125,0.1334228515625,-0.101806640625
10.419,302,607,594,322,-0.7969970703125,0.1334228515625,-0.101806640625
10.423,304,603,569,319,-0.802001953125,0.17236328125,-0.0667724609375
10.432,306,607,620,322,-0.8048095703125,0.2147216796875,-0.0697021484375
10.441,306,584,576,318,-0.8048095703125,0.2147216796875,-0.0697021484375
10.456,304,593,632,321,-0.803955078125,0.2442626953125,-0.0966796875
10.462,304,634,678,321,-0.8060302734375,0.2476806640625,-0.1162109375
10.470,304,636,698,322,-0.8060302734375,0.2476806640625,-0.1162109375
10.484,304,678,744,321,-0.8162841796875,0.223876953125,-0.1329345703125
10.502,304,679,725,321,-0.8125,0.199462890625,-0.127685546875
10.503,302,737,748,321,-0.8125,0.199462890625,-0.127685546875
10.514,306,765,774,321,-0.781005859375,0.1468505859375,-0.1204833984375
10.522,304,918,820,323,-0.7584228515625,0.1514892578125,-0.1231689453125
10.530,304,1129,871,324,-0.7584228515625,0.1514892578125,-0.1231689453125
10.544,306,1662,898,332,-0.737548828125,0.214599609375,-0.11328125
10.564,306,1960,936,330,-0.7855224609375,0.264404296875,-0.09326171875
10.564,308,2179,947,336,-0.7855224609375,0.264404296875,-0.09326171875
10.578,307,2785,999,343,-0.9033203125,0.26611328125,-0.1275634765625
10.608,310,3147,1067,348,-0.8626708984375,0.2200927734375,-0.1893310546875
10.608,294,3147,1189,639,-0.8626708984375,0.2200927734375,-0.1893310546875
10.608,315,3147,1506,1211,-0.5341796875,0.1180419921875,-0.263427734375
10.612,316,3147,1638,1584,-0.3720703125,0.11328125,-0.20166015625
10.620,318,3147,1750,1922,-0.3720703125,0.11328125,-0.20166015625
10.633,321,3147,1931,2484,-0.3985595703125,0.3330078125,-0.074951171875
10.642,324,3147,2012,2758,-0.3985595703125,0.3330078125,-0.074951171875
10.650,330,3147,2117,3027,-0.607666015625,0.401123046875,-0.0657958984375
10.667,330,3147,2255,3147,-1.2691650390625,0.401611328125,0.006103515625
10.674,331,3147,2337,3147,-1.2691650390625,0.401611328125,0.006103515625
10.693,334,3147,2479,3147,-1.4454345703125,0.3895263671875,0.065185546875
10.694,319,3147,2579,3147,-1.5396728515625,0.4991455078125,0.04296875
10.702,336,3147,2615,3147,-1.5396728515625,0.4991455078125,0.04296875
10.711,336,3147,2651,3147,-1.5728759765625,0.614990234375,0.0325927734375
10.724,338,3147,2634,3147,-1.5330810546875,0.6458740234375,-0.1439208984375
10.732,336,3147,2624,3147,-1.5330810546875,0.6458740234375,-0.1439208984375
10.740,337,3147,2622,3147,-1.344970703125,0.566162109375,-0.2081298828125
10.754,336,3147,2622,3147,-0.8980712890625,0.40576171875,-0.342529296875
10.763,336,3147,2625,3147,-0.8980712890625,0.40576171875,-0.342529296875
10.770,336,3147,2601,3147,-1.177490234375,0.384765625,-0.35595703125
10.793,334,3147,2493,3147,-1.7275390625,0.18994140625,-0.033447265625
10.793,333,3147,2359,3147,-1.7275390625,0.18994140625,-0.033447265625
10.803,332,3147,2293,3147,-1.710205078125,0.131591796875,0.08544921875
10.820,330,3147,2100,3147,-1.298828125,0.34375,-0.0572509765625
10.822,324,3147,2001,3147,-1.298828125,0.34375,-0.0572509765625
10.830,327,3147,1874,3050,-1.1199951171875,0.494384765625,-0.163818359375
10.844,321,3147,1584,2493,-0.9837646484375,0.394287109375,-0.20703125
10.852,316,3147,1413,1935,-0.9837646484375,0.394287109375,-0.20703125
10.867,316,3147,1229,1516,-0.857421875,0.300537109375,-0.1666259765625
10.874,310,3147,1014,723,-0.607666015625,0.2796630859375,-0.1688232421875
10.893,310,3147,922,351,-0.3612060546875,0.3492431640625,-0.2210693359375
10.895,307,2788,820,344,-0.263671875,0.4818115234375,-0.267578125
10.910,308,2178,765,337,-0.3336181640625,0.553466796875,-0.3021240234375
10.912,306,1929,774,334,-0.47314453125,0.529296875,-0.2957763671875
10.927,302,1705,767,332,-0.5987548828125,0.48876953125,-0.1885986328125
10.934,310,1519,725,330,-0.7025146484375,0.3978271484375,-0.0938720703125
10.942,308,1398,711,331,-0.8128662109375,0.2308349609375,-0.10546875
10.950,305,1251,737,327,-0.9091796875,0.0831298828125,-0.132568359375
10.968,304,1038,750,324,-0.9456787109375,0.0133056640625,-0.11962890625
10.972,304,946,744,327,-0.9259033203125,0.016357421875,-0.0743408203125
10.980,304,883,765,327,-0.88525390625,0.0625,-0.027587890625
11.009,304,846,730,322,-0.85107421875,0.1162109375,-0.018798828125
11.009,304,867,692,322,-0.8358154296875,0.166015625,-0.0516357421875
11.012,304,898,689,323,-0.83740234375,0.22119140625,-0.0975341796875
11.033,304,912,607,324,-0.84375,0.2763671875,-0.1339111328125
11.034,304,933,607,323,-0.84619140625,0.310546875,-0.1591796875
11.040,304,980,591,326,-0.8428955078125,0.3143310546875,-0.1785888671875
11.054,304,1026,644,324,-0.83837890625,0.305419921875,-0.192626953125
11.062,304,1069,632,323,-0.8389892578125,0.30322265625,-0.2010498046875
11.070,304,1117,650,327,-0.841796875,0.3023681640625,-0.20458984375
11.098,304,1292,677,328,-0.8411865234375,0.296875,-0.2001953125
11.098,306,1424,731,333,-0.840087890625,0.285400390625,-0.1842041015625
11.104,294,1574,774,331,-0.8402099609375,0.2598876953125,-0.166748046875
11.119,300,1813,762,329,-0.8408203125,0.2237548828125,-0.15380859375
11.122,304,1994,777,334,-0.841064453125,0.1885986328125,-0.1441650390625
11.130,304,2105,808,334,-0.83544921875,0.165283203125,-0.147216796875
11.144,309,2468,816,338,-0.8245849609375,0.163330078125,-0.15234375
11.152,310,2810,841,344,-0.8017578125,0.172119140625,-0.150390625
11.160,309,3147,925,346,-0.7509765625,0.1820068359375,-0.143798828125
11.174,310,3147,1172,998,-0.6666259765625,0.2059326171875,-0.12060546875
11.182,315,3147,1258,1398,-0.5482177734375,0.258056640625,-0.0560302734375
11.190,310,3147,1382,1798,-0.38037109375,0.323486328125,0.039794921875
11.205,318,3147,1748,2391,-0.1954345703125,0.4033203125,0.1256103515625
11.212,323,3147,1880,2749,-0.0999755859375,0.4927978515625,0.1005859375
11.220,324,3147,2010,3090,-0.2098388671875,0.544189453125,-0.0914306640625
11.234,327,3147,2131,3147,-0.5980224609375,0.56884765625,-0.33544921875
11.244,330,3147,2192,3147,-1.212890625,0.55126953125,-0.5440673828125
11.250,330,3147,2240,3147,-1.7860107421875,0.4462890625,-0.5498046875
11.264,330,3147,2325,3147,-2.00146484375,0.2452392578125,-0.314697265625
11.275,334,3147,2412,3147,-1.89306640625,0.0340576171875,-0.021240234375
11.280,334,3147,2443,3147,-1.6990966796875,-0.00048828125,0.176513671875
11.309,334,3147,2490,3147,-1.53857421875,0.163330078125,0.1566162109375
11.309,334,3147,2473,3147,-1.4022216796875,0.361328125,-0.04638671875
11.310,318,3147,2450,3147,-1.1461181640625,0.5302734375,-0.2403564453125
11.324,333,3147,2448,3147,-0.854248046875,0.6964111328125,-0.285888671875
11.332,332,3147,2456,3147,-0.84765625,0.747802734375,-0.2615966796875
11.343,333,3147,2437,3147,-1.1319580078125,0.59912109375,-0.212890625
11.354,330,3147,2367,3147,-1.4576416015625,0.3404541015625,-0.13671875
11.362,332,3147,2317,3147,-1.6182861328125,0.15283203125,-0.08935546875
11.370,330,3147,2230,3147,-1.5408935546875,0.1673583984375,-0.080322265625
11.384,328,3147,2105,3147,-1.3243408203125,0.3050537109375,-0.1103515625
11.409,327,3147,2030,3147,-1.1214599609375,0.41064453125,-0.159912109375
11.409,327,3147,1934,3147,-0.9881591796875,0.418701171875,-0.1959228515625
11.415,323,3147,1762,3040,-0.9039306640625,0.3846435546875,-0.2041015625
11.422,322,3147,1648,2703,-0.84228515625,0.39892578125,-0.173828125
11.430,318,3147,1548,2362,-0.790283203125,0.4644775390625,-0.1492919921875
11.444,316,3147,1383,1704,-0.756591796875,0.5140380859375,-0.17578125
11.464,316,3147,1294,1373,-0.7470703125,0.499755859375,-0.23681640625
11.465,313,3147,1195,977,-0.752685546875,0.4407958984375,-0.2972412109375
11.481,309,3147,1013,346,-0.7626953125,0.3863525390625,-0.32275390625
11.482,294,2695,927,344,-0.7528076171875,0.3759765625,-0.308349609375
11.490,306,2314,883,338,-0.6968994140625,0.3995361328125,-0.249267578125
11.510,304,1824,802,332,-0.6295166015625,0.396728515625,-0.13134765625
11.512,308,1611,787,332,-0.6231689453125,0.31005859375,-0.02392578125
11.520,307,1422,786,328,-0.7052001953125,0.1783447265625,0.0107421875
11.534,304,1034,802,325,-0.8167724609375,0.1009521484375,-0.016357421875
11.542,304,920,784,328,-0.882080078125,0.119140625,-0.0799560546875
11.550,304,936,794,324,-0.882080078125,0.119140625,-0.0799560546875
11.570,304,793,788,324,-0.8699951171875,0.2476806640625,-0.1663818359375
11.572,304,737,765,322,-0.8511962890625,0.23779296875,-0.1591796875
11.584,306,682,765,323,-0.8511962890625,0.23779296875,-0.1591796875
11.597,305,720,733,323,-0.8406982421875,0.21435546875,-0.1182861328125
11.611,304,744,689,322,-0.8363037109375,0.237548828125,-0.1285400390625
11.611,304,757,705,324,-0.8363037109375,0.237548828125,-0.1285400390625
11.624,300,786,744,322,-0.82373046875,0.27978515625,-0.1934814453125
11.634,304,802,759,321,-0.8153076171875,0.293212890625,-0.2137451171875
11.640,305,841,772,323,-0.8153076171875,0.293212890625,-0.2137451171875
11.654,300,957,763,325,-0.801025390625,0.2918701171875,-0.17626953125
11.662,304,1009,800,327,-0.7974853515625,0.2874755859375,-0.1356201171875
11.672,305,1081,813,327,-0.7974853515625,0.2874755859375,-0.1356201171875
11.689,307,1308,833,327,-0.819091796875,0.2574462890625,-0.0736083984375
11.692,304,1486,808,328,-0.8179931640625,0.2340087890625,-0.07275390625
11.712,308,1739,837,333,-0.8179931640625,0.2340087890625,-0.07275390625
11.727,304,2041,853,334,-0.7855224609375,0.217041015625,-0.134033203125
11.728,308,2249,946,336,-0.7701416015625,0.2294921875,-0.158935546875
11.730,304,2534,1073,342,-0.7701416015625,0.2294921875,-0.158935546875
11.744,313,3101,1250,348,-0.6397705078125,0.2423095703125,-0.1728515625
11.752,310,3147,1361,497,-0.482666015625,0.263671875,-0.1585693359375
11.760,313,3147,1521,815,-0.482666015625,0.263671875,-0.1585693359375
11.777,316,3147,1744,1437,-0.21923828125,0.4556884765625,-0.13232421875
11.797,323,3147,1860,1815,-0.21923828125,0.4556884765625,-0.13232421875
11.797,324,3147,2018,2214,-0.3323974609375,0.5177001953125,-0.126220703125
11.819,327,3147,2176,2758,-0.9774169921875,0.2242431640625,-0.237060546875
11.820,328,3147,2207,2966,-0.9774169921875,0.2242431640625,-0.237060546875
11.820,328,3147,2308,3147,-1.3123779296875,0.2203369140625,-0.2489013671875
11.835,330,3147,2389,3147,-1.5174560546875,0.31201171875,-0.021240234375
11.843,332,3147,2447,3147,-1.51806640625,0.31640625,-0.0048828125
11.851,332,3147,2494,3147,-1.51806640625,0.31640625,-0.0048828125
11.865,334,3147,2557,3147,-1.4915771484375,0.491455078125,-0.0465087890625
11.873,332,3147,2543,3147,-1.436279296875,0.552978515625,0.0140380859375
11.892,331,3147,2525,3147,-1.436279296875,0.552978515625,0.0140380859375
11.895,332,3147,2514,3147,-1.2752685546875,0.1031494140625,-0.09716796875
11.908,328,3147,2519,3147,-1.2752685546875,0.1031494140625,-0.09716796875
11.918,333,3147,2510,3147,-1.0714111328125,0.1583251953125,-0.23583984375
11.927,332,3147,2472,3147,-1.4400634765625,0.416748046875,-0.221923828125
11.933,330,3147,2419,3147,-1.4400634765625,0.416748046875,-0.221923828125
11.941,330,3147,2341,3147,-1.642333984375,0.134765625,-0.0777587890625
11.955,327,3147,2217,3147,-1.48779296875,0.142822265625,-0.0489501953125
11.963,325,3147,2119,3147,-1.48779296875,0.142822265625,-0.0489501953125
11.971,324,3147,1954,2912,-1.3299560546875,0.34619140625,-0.15234375
11.998,317,3147,1596,2310,-1.101318359375,0.4466552734375,-0.2197265625
11.998,302,3147,1427,1906,-1.101318359375,0.4466552734375,-0.2197265625
12.001,316,3147,1294,1442,-0.94482421875,0.401611328125,-0.2049560546875
12.026,313,3147,1116,694,-0.43505859375,0.3548583984375,-0.21484375
12.027,308,3147,1011,357,-0.43505859375,0.3548583984375,-0.21484375
12.033,310,2765,968,342,-0.2720947265625,0.3826904296875,-0.2669677734375
12.045,308,2308,874,342,-0.347412109375,0.47705078125,-0.29443359375
12.053,306,2113,867,334,-0.347412109375,0.47705078125,-0.29443359375
12.061,308,2024,806,334,-0.479736328125,0.55322265625,-0.1654052734375
12.075,304,1838,799,332,-0.7672119140625,0.3729248046875,-0.0543212890625
12.083,304,1665,815,330,-0.7672119140625,0.3729248046875,-0.0543212890625
12.103,308,1541,834,328,-0.900390625,0.19873046875,-0.0843505859375
12.105,305,1336,796,327,-0.96630859375,0.114990234375,-0.091796875
12.122,306,1185,784,330,-0.9676513671875,0.130859375,-0.0732421875
12.122,289,1146,746,328,-0.9383544921875,0.1732177734375,-0.0447998046875
12.135,304,1095,721,323,-0.9097900390625,0.1785888671875,-0.0361328125
12.145,306,1071,746,325,-0.8846435546875,0.1697998046875,-0.051513671875
12.151,306,1067,725,324,-0.85595703125,0.20263671875,-0.0902099609375
12.165,306,1039,754,326,-0.831787109375,0.2833251953125,-0.1380615234375
12.173,307,1051,737,328,-0.8231201171875,0.3531494140625,-0.1783447265625
12.181,306,1063,728,323,-0.832275390625,0.3714599609375,-0.2073974609375
12.205,306,1108,762,327,-0.8555908203125,0.3511962890625,-0.2276611328125
12.205,305,1129,772,327,-0.878662109375,0.314208984375,-0.239990234375
12.230,304,1202,780,328,-0.8876953125,0.27587890625,-0.2353515625
12.231,304,1348,780,328,-0.8848876953125,0.24072265625,-0.2142333984375
12.234,304,1430,757,330,-0.8714599609375,0.2069091796875,-0.1876220703125
12.244,304,1560,780,330,-0.84912109375,0.1827392578125,-0.15966796875
12.256,308,1757,827,332,-0.8277587890625,0.1827392578125,-0.13037109375
12.263,307,1904,854,334,-0.807373046875,0.2041015625,-0.1080322265625
12.271,306,2028,858,334,-0.7862548828125,0.2362060546875,-0.0933837890625
12.285,308,2367,888,338,-0.7646484375,0.2567138671875,-0.0897216796875
12.324,308,2785,1014,344,-0.7205810546875,0.2373046875,-0.09765625
12.330,309,3147,1120,373,-0.6298828125,0.181884765625,-0.10400390625
12.330,310,3147,1317,1201,-0.4957275390625,0.125244140625,-0.12353515625
12.331,315,3147,1416,1548,-0.3277587890625,0.1114501953125,-0.174072265625
12.331,315,3147,1547,1862,-0.1016845703125,0.1561279296875,-0.20849609375
12.345,318,3147,1837,2437,0.0587158203125,0.289794921875,-0.1064453125
12.358,321,3147,1957,2807,-0.10693359375,0.5147705078125,0.080078125
12.361,324,3147,2080,3127,-0.58447265625,0.61279296875,0.1376953125
12.375,328,3147,2243,3147,-1.1895751953125,0.5152587890625,0.046875
12.383,328,3147,2284,3147,-1.7850341796875,0.4066162109375,-0.0474853515625
12.391,328,3147,2334,3147,-2.1102294921875,0.35302734375,-0.083984375
12.405,328,3147,2382,3147,-2.009765625,0.3363037109375,-0.143310546875
12.431,330,3147,2381,3147,-1.68701171875,0.3504638671875,-0.2049560546875
12.432,331,3147,2357,3147,-1.3829345703125,0.414306640625,-0.1966552734375
12.435,330,3147,2359,3147,-1.161376953125,0.542236328125,-0.1705322265625
12.443,330,3147,2333,3147,-1.0294189453125,0.6871337890625,-0.1962890625
12.451,330,3147,2317,3147,-0.9652099609375,0.7406005859375,-0.2860107421875
12.470,328,3147,2306,3147,-0.94482421875,0.673828125,-0.378173828125
12.473,330,3147,2341,3147,-0.9761962890625,0.5614013671875,-0.4129638671875
12.481,328,3147,2341,3147,-1.0853271484375,0.5155029296875,-0.3685302734375
12.495,328,3147,2292,3147,-1.33203125,0.51611328125,-0.2646484375
12.505,328,3147,2218,3147,-1.603271484375,0.416748046875,-0.1627197265625
12.511,323,3147,2151,3147,-1.6558837890625,0.2540283203125,-0.10302734375
12.537,323,3147,1967,3147,-1.4805908203125,0.2314453125,-0.120361328125
12.538,322,3147,1745,3147,-1.2767333984375,0.3935546875,-0.1929931640625
12.541,318,3147,1607,3147,-1.1551513671875,0.548583984375,-0.250244140625
12.555,316,3147,1442,2840,-1.08544921875,0.5478515625,-0.269775390625
12.563,315,3147,1283,2296,-0.9820556640625,0.467529296875,-0.2357177734375
12.571,310,3147,1201,1766,-0.766357421875,0.3919677734375,-0.1923828125
12.585,310,3147,1055,1091,-0.4835205078125,0.3575439453125,-0.205078125
12.593,310,3147,966,566,-0.2584228515625,0.4197998046875,-0.242919921875
12.608,308,3071,976,346,-0.185546875,0.5242919921875,-0.2720947265625
12.615,306,2489,853,336,-0.2608642578125,0.559326171875,-0.2991943359375
12.680,306,2335,819,334,-0.413818359375,0.5338134765625,-0.2613525390625
12.681,307,2176,794,336,-0.5849609375,0.5029296875,-0.1781005859375
12.681,308,1989,822,330,-0.7547607421875,0.4339599609375,-0.1446533203125
12.681,306,1904,823,334,-0.8985595703125,0.3375244140625,-0.13330078125
12.681,306,1766,832,331,-0.9736328125,0.2652587890625,-0.118896484375
12.681,304,1387,738,324,-0.9827880859375,0.22119140625,-0.107421875
12.683,306,1182,788,324,-0.947998046875,0.20654296875,-0.080322265625
12.694,306,1012,757,328,-0.8917236328125,0.2171630859375,-0.0472412109375
12.711,306,932,744,324,-0.839111328125,0.235107421875,-0.0408935546875
12.713,304,907,750,323,-0.79833984375,0.262451171875,-0.0670166015625
12.723,304,917,766,324,-0.777099609375,0.3138427734375,-0.113037109375
12.740,306,922,706,323,-0.7850341796875,0.380859375,-0.1561279296875
12.746,304,958,687,327,-0.8114013671875,0.4285888671875,-0.1802978515625
12.753,300,969,705,323,-0.8385009765625,0.427734375,-0.191650390625
12.765,305,1037,700,325,-0.8563232421875,0.375,-0.1981201171875
12.773,304,1058,739,323,-0.856689453125,0.2947998046875,-0.20703125
12.781,306,1081,767,326,-0.8426513671875,0.2255859375,-0.2117919921875
12.795,304,1191,774,327,-0.830078125,0.1943359375,-0.2001953125
12.816,305,1365,778,330,-0.82275390625,0.2015380859375,-0.177490234375
12.816,304,1428,766,310,-0.82275390625,0.2015380859375,-0.177490234375
12.846,307,1693,820,330,-0.801025390625,0.2554931640625,-0.12548828125
12.846,307,1862,860,332,-0.7850341796875,0.2803955078125,-0.102783203125
12.847,302,2021,899,318,-0.7850341796875,0.2803955078125,-0.102783203125
12.855,308,2435,883,336,-0.721923828125,0.2764892578125,-0.0816650390625
12.865,307,2801,887,344,-0.6629638671875,0.2392578125,-0.09228515625
12.871,315,3147,1067,371,-0.6629638671875,0.2392578125,-0.09228515625
12.885,313,3147,1303,1225,-0.480224609375,0.112060546875,-0.1837158203125
12.893,314,3147,1467,1555,-0.35595703125,0.1202392578125,-0.216552734375
12.901,316,3147,1634,1927,-0.35595703125,0.1202392578125,-0.216552734375
12.920,318,3147,1861,2544,-0.0604248046875,0.3294677734375,-0.2161865234375
12.923,322,3147,1985,2905,-0.210693359375,0.383056640625,-0.2052001953125
12.932,327,3147,2091,3147,-0.210693359375,0.383056640625,-0.2052001953125
12.952,327,3147,2242,3147,-1.3480224609375,0.6527099609375,-0.1524658203125
12.953,328,3147,2279,3147,-1.84375,0.8170166015625,-0.102294921875
12.961,330,3147,2360,3147,-1.84375,0.8170166015625,-0.102294921875
12.975,330,3147,2404,3147,-1.7869873046875,0.4708251953125,0.29150390625
12.984,330,3147,2442,3147,-1.54931640625,0.21923828125,0.273193359375
12.991,330,3147,2461,3147,-1.54931640625,0.21923828125,0.273193359375
13.005,330,3147,2444,3147,-1.3038330078125,0.30126953125,-0.1102294921875
13.018,332,3147,2428,3147,-1.2061767578125,0.444091796875,-0.3736572265625
13.021,332,3147,2414,3147,-1.2061767578125,0.444091796875,-0.3736572265625
13.055,330,3147,2407,3147,-1.1676025390625,0.7315673828125,-0.377685546875
13.057,331,3147,2382,3147,-1.1676025390625,0.7315673828125,-0.377685546875
13.057,331,3147,2359,3147,-1.37451171875,0.542724609375,-0.271240234375
13.059,328,3147,2318,3147,-1.53515625,0.2689208984375,-0.177490234375
13.073,328,3147,2202,3147,-1.537841796875,0.1268310546875,-0.11767578125
13.081,328,3147,2128,3147,-1.39892578125,0.1558837890625,-0.1104736328125
13.095,324,3147,1957,3147,-1.176025390625,0.332275390625,-0.1866455078125
13.103,321,3147,1789,3020,-1.176025390625,0.332275390625,-0.1866455078125
13.119,316,3147,1616,2494,-1.1783447265625,0.310546875,-0.221435546875
13.125,310,3147,1336,1616,-1.0208740234375,0.36572265625,-0.2001953125
13.133,315,3147,1226,1122,-1.0208740234375,0.36572265625,-0.2001953125
13.165,308,3147,1107,695,-0.71142578125,0.4366455078125,-0.2164306640625
13.166,308,2754,944,338,-0.0283203125,0.568115234375,-0.24658203125
13.166,308,2532,780,336,-0.0283203125,0.568115234375,-0.24658203125
13.172,306,2257,820,334,0.05810546875,0.548828125,-0.1861572265625
13.185,306,2091,780,332,-0.44189453125,0.4105224609375,-0.09814453125
13.193,304,2012,749,330,-0.44189453125,0.4105224609375,-0.09814453125
13.201,306,1874,774,331,-0.7672119140625,0.3746337890625,-0.088623046875
13.223,306,1557,787,328,-1.1029052734375,0.314697265625,-0.158203125
13.224,306,1316,792,326,-1.1029052734375,0.314697265625,-0.158203125
13.231,306,1067,737,327,-1.1185302734375,0.2442626953125,-0.2147216796875
13.260,306,820,746,328,-1.0535888671875,0.2125244140625,-0.207275390625
13.268,306,818,731,324,-0.9539794921875,0.221923828125,-0.15283203125
13.269,307,785,684,323,-0.857421875,0.2645263671875,-0.1302490234375
13.275,304,738,684,323,-0.780517578125,0.3555908203125,-0.1640625
13.283,305,698,705,328,-0.740478515625,0.46484375,-0.2047119140625
13.291,304,698,711,322,-0.7408447265625,0.5179443359375,-0.2259521484375
13.305,304,707,750,322,-0.75732421875,0.48193359375,-0.23095703125
13.313,305,740,767,328,-0.7686767578125,0.394287109375,-0.22705078125
13.324,304,774,780,323,-0.78173828125,0.315185546875,-0.2276611328125
13.335,305,854,820,324,-0.798828125,0.276123046875,-0.2335205078125
13.363,306,894,840,327,-0.80908203125,0.2650146484375,-0.229248046875
13.363,304,1007,832,323,-0.8123779296875,0.255615234375,-0.2034912109375
13.371,304,1185,844,330,-0.810546875,0.245849609375,-0.1649169921875
13.373,306,1323,883,329,-0.8072509765625,0.248779296875,-0.12255859375
13.381,306,1500,891,328,-0.8126220703125,0.2587890625,-0.0936279296875
13.395,306,1750,898,332,-0.824951171875,0.267822265625,-0.1014404296875
13.403,307,1912,920,334,-0.8336181640625,0.2958984375,-0.1361083984375
13.411,306,2028,920,332,-0.8349609375,0.34033203125,-0.1800537109375
13.427,308,2534,1045,338,-0.8116455078125,0.3548583984375,-0.2197265625
13.433,310,3064,1167,344,-0.7288818359375,0.3309326171875,-0.2239990234375
13.457,308,3147,1276,656,-0.588623046875,0.3089599609375,-0.187255859375
13.457,315,3147,1383,1262,-0.4296875,0.3157958984375,-0.1414794921875
13.463,316,3147,1529,1615,-0.283203125,0.316162109375,-0.102294921875
13.471,318,3147,1739,1925,-0.2081298828125,0.32421875,-0.042724609375
13.489,318,3147,2000,2517,-0.29248046875,0.376220703125,0.0428466796875
13.493,323,3147,2076,2861,-0.5723876953125,0.381103515625,0.0582275390625
13.502,324,3147,2176,3147,-0.9776611328125,0.3192138671875,-0.04296875
13.515,327,3147,2286,3147,-1.3662109375,0.340576171875,-0.1944580078125
13.529,328,3147,2324,3147,-1.5938720703125,0.4722900390625,-0.331787109375
13.531,328,3147,2367,3147,-1.5921630859375,0.5645751953125,-0.4290771484375
13.545,332,3147,2419,3147,-1.453125,0.5501708984375,-0.439453125
13.555,331,3147,2458,3147,-1.3321533203125,0.4669189453125,-0.356689453125
13.566,331,3147,2478,3147,-1.2867431640625,0.371826171875,-0.2562255859375
13.575,331,3147,2464,3147,-1.3394775390625,0.29541015625,-0.2213134765625
13.587,330,3147,2432,3147,-1.4642333984375,0.2340087890625,-0.2579345703125
13.596,330,3147,2449,3147,-1.4102783203125,0.1793212890625,-0.2352294921875
13.605,327,3147,2419,3147,-1.1204833984375,0.2462158203125,-0.1009521484375
13.613,328,3147,2394,3147,-1.0308837890625,0.4034423828125,0.0347900390625
13.621,328,3147,2359,3147,-1.2784423828125,0.380126953125,0.0411376953125
13.635,327,3147,2287,3147,-1.503173828125,0.1932373046875,-0.0545654296875
13.665,327,3147,2215,3147,-1.4947509765625,0.0921630859375,-0.1630859375
13.665,310,3147,2115,3147,-1.3359375,0.1785888671875,-0.271484375
13.668,304,3147,1900,3147,-1.177734375,0.3408203125,-0.339111328125
13.673,316,3147,1739,2876,-1.0755615234375,0.4354248046875,-0.3370361328125
13.681,319,3147,1537,2484,-0.9991455078125,0.4180908203125,-0.3082275390625
13.696,313,3147,1348,1808,-0.8817138671875,0.3294677734375,-0.2938232421875
13.708,311,3147,1225,1396,-0.691162109375,0.2705078125,-0.28564453125
13.711,313,3147,1163,986,-0.487060546875,0.3291015625,-0.2801513671875
13.735,308,3147,1104,334,-0.355712890625,0.52978515625,-0.2840576171875
13.735,313,2808,1051,336,-0.3299560546875,0.7628173828125,-0.2452392578125
13.742,310,2598,1034,342,-0.39306640625,0.818603515625,-0.1331787109375
13.766,306,2306,986,332,-0.5167236328125,0.646728515625,-0.0377197265625
13.766,291,2165,923,334,-0.6689453125,0.3597412109375,-0.0418701171875
13.771,308,2058,934,331,-0.807861328125,0.1343994140625,-0.087890625
13.785,306,1929,860,329,-0.892578125,0.081298828125,-0.1158447265625
13.793,309,1822,846,332,-0.9227294921875,0.1466064453125,-0.1422119140625
13.801,305,1681,844,332,-0.9227294921875,0.2275390625,-0.1573486328125
13.821,307,1548,784,329,-0.911376953125,0.26171875,-0.1490478515625
13.823,307,1440,778,330,-0.91259765625,0.2716064453125,-0.1318359375
13.836,306,1243,808,329,-0.92724609375,0.311767578125,-0.1339111328125
13.845,308,1120,758,327,-0.9276123046875,0.3885498046875,-0.170654296875
13.853,310,1041,784,323,-0.9102783203125,0.46826171875,-0.22314453125
13.862,306,978,774,327,-0.8953857421875,0.508056640625,-0.267333984375
13.876,304,871,753,324,-0.8831787109375,0.477294921875,-0.3045654296875
13.883,304,733,737,325,-0.8619384765625,0.393798828125,-0.3388671875
13.891,306,723,757,323,-0.83447265625,0.3115234375,-0.3560791015625
13.907,304,687,757,323,-0.8148193359375,0.2662353515625,-0.34912109375
13.913,304,678,778,323,-0.8104248046875,0.257080078125,-0.3189697265625
13.922,305,682,788,322,-0.814453125,0.2657470703125,-0.269775390625
13.944,306,733,826,323,-0.81201171875,0.2781982421875,-0.223388671875
13.945,304,782,832,323,-0.8006591796875,0.2890625,-0.1947021484375
13.967,305,848,835,323,-0.8006591796875,0.2890625,-0.1947021484375
13.967,306,1003,846,322,-0.7642822265625,0.2962646484375,-0.16015625
13.975,304,1037,872,324,-0.738037109375,0.298828125,-0.1424560546875
13.981,306,1224,883,327,-0.738037109375,0.298828125,-0.1424560546875
13.995,306,1715,897,331,-0.6651611328125,0.35986328125,-0.125244140625
14.003,306,2061,891,334,-0.6402587890625,0.41845703125,-0.1429443359375
14.016,306,2334,890,336,-0.6402587890625,0.41845703125,-0.1429443359375
14.025,306,3101,946,338,-0.6796875,0.446533203125,-0.242919921875
14.050,310,3147,1163,630,-0.71240234375,0.3536376953125,-0.2977294921875
14.051,313,3147,1313,803,-0.71240234375,0.3536376953125,-0.2977294921875
14.058,313,3147,1440,1348,-0.5494384765625,0.154052734375,-0.2703857421875
14.073,317,3147,1555,1641,-0.31201171875,0.285888671875,-0.111572265625
14.073,316,3147,1703,2070,-0.31201171875,0.285888671875,-0.111572265625
14.085,313,3147,1878,2671,-0.47216796875,0.639404296875,-0.102783203125
14.093,321,3147,1994,2850,-0.941650390625,0.53759765625,-0.3203125
14.101,323,3147,2083,2916,-0.941650390625,0.53759765625,-0.3203125
14.120,324,3147,2167,3147,-1.72509765625,0.37548828125,-0.2930908203125
14.123,323,3147,2233,3147,-1.707763671875,0.1658935546875,-0.1201171875
14.131,328,3147,2255,3147,-1.707763671875,0.1658935546875,-0.1201171875
14.145,328,3147,2330,3147,-1.3404541015625,-0.0262451171875,0.1572265625
14.161,328,3147,2347,3147,-1.2713623046875,0.031005859375,0.09033203125
14.161,325,3147,2345,3147,-1.2713623046875,0.031005859375,0.09033203125
14.181,327,3147,2345,3147,-1.259033203125,0.3636474609375,-0.2255859375
14.183,313,3147,2354,3147,-1.259033203125,0.3636474609375,-0.2255859375
14.191,328,3147,2344,3147,-1.1544189453125,0.3955078125,-0.385498046875
14.205,327,3147,2303,3147,-1.3187255859375,0.331298828125,-0.3365478515625
14.213,327,3147,2268,3147,-1.3187255859375,0.331298828125,-0.3365478515625
14.227,327,3147,2190,3147,-1.541748046875,0.2177734375,-0.23974609375
14.235,323,3147,2034,3147,-1.476318359375,0.089111328125,-0.076171875
14.247,321,3147,1878,3143,-1.476318359375,0.089111328125,-0.076171875
14.251,318,3147,1702,2961,-1.3369140625,0.104248046875,-0.1300048828125
14.279,316,3147,1468,2345,-1.11865234375,0.2369384765625,-0.3016357421875
14.279,312,3147,1276,1695,-1.11865234375,0.2369384765625,-0.3016357421875
14.283,316,3147,1143,1143,-1.009521484375,0.2791748046875,-0.3206787109375
14.295,304,3147,963,338,-0.5821533203125,0.235107421875,-0.0733642578125
14.304,310,2905,869,338,-0.5821533203125,0.235107421875,-0.0733642578125
14.311,306,2589,747,336,-0.287841796875,0.29638671875,0.086669921875
14.325,300,2128,652,330,-0.2802734375,0.6470947265625,-0.0211181640625
14.335,307,1863,678,331,-0.2802734375,0.6470947265625,-0.0211181640625
14.349,305,1597,689,324,-0.5147705078125,0.7012939453125,-0.1517333984375
14.355,304,1237,685,321,-0.88134765625,0.7579345703125,-0.2779541015625
14.388,313,959,744,329,-0.88134765625,0.7579345703125,-0.2779541015625
14.388,304,895,733,300,-0.9232177734375,0.651123046875,-0.3314208984375
14.388,306,711,700,321,-0.906494140625,0.4246826171875,-0.3399658203125
14.393,304,628,630,324,-0.8997802734375,0.17724609375,-0.2913818359375
14.401,304,644,621,321,-0.91455078125,0.00439453125,-0.229736328125
14.415,306,630,636,321,-0.91845703125,-0.0455322265625,-0.194580078125
14.423,304,620,607,327,-0.8936767578125,0.0184326171875,-0.2030029296875
14.431,304,656,651,323,-0.8643798828125,0.13671875,-0.23974609375
14.452,304,629,625,321,-0.8480224609375,0.2232666015625,-0.2574462890625
14.454,302,652,593,318,-0.839599609375,0.2454833984375,-0.2451171875
14.466,304,673,625,321,-0.8271484375,0.241943359375,-0.222900390625
14.488,304,668,631,318,-0.80908203125,0.251953125,-0.1910400390625
14.488,302,666,636,319,-0.7911376953125,0.2718505859375,-0.159423828125
14.497,304,689,658,323,-0.775634765625,0.2862548828125,-0.1435546875
14.505,300,654,667,322,-0.765869140625,0.302490234375,-0.141357421875
14.513,304,678,667,323,-0.766357421875,0.3226318359375,-0.1494140625
14.521,304,722,667,323,-0.77294921875,0.328369140625,-0.1651611328125
14.535,304,827,705,321,-0.778564453125,0.31005859375,-0.1778564453125
14.555,306,872,754,328,-0.786376953125,0.2750244140625,-0.1778564453125
14.555,308,975,765,324,-0.797119140625,0.244140625,-0.1671142578125
14.565,305,1357,792,327,-0.8050537109375,0.237548828125,-0.157470703125
14.591,306,1655,830,334,-0.81884765625,0.2528076171875,-0.1575927734375
14.591,306,1798,826,328,-0.84423828125,0.263427734375,-0.176025390625
14.595,308,2202,837,336,-0.88037109375,0.259765625,-0.210693359375
14.611,308,2507,827,336,-0.9136962890625,0.264892578125,-0.2442626953125
14.612,306,2833,900,318,-0.9202880859375,0.3056640625,-0.2623291015625
14.625,310,3147,1063,445,-0.881103515625,0.3580322265625,-0.25146484375
14.633,310,3147,1157,864,-0.7890625,0.3564453125,-0.236083984375
14.641,310,3147,1258,1188,-0.6611328125,0.2880859375,-0.2393798828125
14.659,308,3147,1341,1702,-0.518310546875,0.2037353515625,-0.2127685546875
14.663,313,3147,1474,2039,-0.3922119140625,0.195068359375,-0.1209716796875
14.685,315,3147,1608,2340,-0.3148193359375,0.2813720703125,-0.005859375
14.687,318,3147,1798,2909,-0.3419189453125,0.390625,0.0711669921875
14.693,321,3147,1863,3130,-0.5604248046875,0.4658203125,0.0472412109375
14.701,321,3147,1954,3147,-0.9835205078125,0.4888916015625,-0.0963134765625
14.715,323,3147,2071,3147,-1.423583984375,0.4539794921875,-0.283935546875
14.723,324,3147,2117,3147,-1.635009765625,0.4149169921875,-0.37744140625
14.731,324,3147,2167,3147,-1.5799560546875,0.4132080078125,-0.2572021484375
14.745,326,3147,2233,3147,-1.4249267578125,0.3660888671875,-0.0645751953125
14.765,325,3147,2255,3147,-1.3812255859375,0.350830078125,0.0050048828125
14.766,327,3147,2191,3147,-1.444091796875,0.4168701171875,-0.0328369140625
14.776,324,3147,2207,3147,-1.4676513671875,0.38525390625,-0.13232421875
14.790,324,3147,2180,3147,-1.3096923828125,0.260498046875,-0.212158203125
14.792,324,3147,2135,3147,-1.0716552734375,0.28076171875,-0.175048828125
14.805,323,3147,2110,3147,-1.113037109375,0.3934326171875,-0.1190185546875
14.813,323,3147,2058,3147,-1.3826904296875,0.3809814453125,-0.143798828125
14.821,323,3147,2014,3147,-1.5396728515625,0.3116455078125,-0.188232421875
14.835,321,3147,1865,3147,-1.5048828125,0.324462890625,-0.2076416015625
14.843,318,3147,1722,3147,-1.3973388671875,0.3853759765625,-0.21533203125
14.851,315,3147,1557,3147,-1.3272705078125,0.3856201171875,-0.237060546875
14.866,315,3147,1380,2955,-1.3043212890625,0.3194580078125,-0.2520751953125
14.876,310,3147,1224,2510,-1.2225341796875,0.2718505859375,-0.2591552734375
14.892,313,3147,1081,2162,-0.97314453125,0.2861328125,-0.2530517578125
14.901,308,3147,920,1323,-0.57958984375,0.305419921875,-0.244873046875
14.904,310,3147,829,780,-0.184814453125,0.3837890625,-0.2506103515625
14.911,304,3147,720,336,0.0390625,0.5679931640625,-0.231201171875
14.925,306,2823,705,328,-0.0079345703125,0.718994140625,-0.1661376953125
14.933,304,2424,706,338,-0.2645263671875,0.74609375,-0.092041015625
14.947,306,2347,710,336,-0.56689453125,0.646484375,-0.06884765625
14.979,306,2220,728,332,-0.8052978515625,0.463623046875,-0.11181640625
14.982,304,2039,761,330,-0.9720458984375,0.302734375,-0.185546875
15.002,307,1786,767,329,-1.076171875,0.21728515625,-0.2362060546875
15.002,292,1447,749,318,-1.0948486328125,0.1763916015625,-0.2313232421875
15.002,306,1357,733,327,-1.0372314453125,0.154541015625,-0.1724853515625
15.002,302,1138,700,326,-0.9521484375,0.1536865234375,-0.1004638671875
15.015,305,951,720,324,-0.8753662109375,0.1689453125,-0.0706787109375
15.023,305,907,614,329,-0.8262939453125,0.2025146484375,-0.1011962890625
15.031,304,918,619,321,-0.8048095703125,0.2662353515625,-0.16552734375
15.045,308,912,644,324,-0.798828125,0.343017578125,-0.21826171875
15.067,304,868,572,324,-0.79833984375,0.3994140625,-0.240966796875
15.070,304,859,548,324,-0.79833984375,0.3994140625,-0.240966796875
15.097,304,820,543,323,-0.8211669921875,0.420654296875,-0.2384033203125
15.097,289,824,537,323,-0.8443603515625,0.3988037109375,-0.2320556640625
15.098,304,828,571,323,-0.8443603515625,0.3988037109375,-0.2320556640625
15.105,304,887,600,322,-0.87060546875,0.324462890625,-0.216064453125
15.115,304,883,631,328,-0.866943359375,0.28076171875,-0.2132568359375
15.121,304,932,648,323,-0.866943359375,0.28076171875,-0.2132568359375
15.179,305,1037,707,323,-0.84716796875,0.23046875,-0.216796875
15.180,304,1112,740,327,-0.827880859375,0.2396240234375,-0.20166015625
15.180,304,1211,784,326,-0.827880859375,0.2396240234375,-0.20166015625
15.180,306,1440,803,328,-0.76220703125,0.27783203125,-0.16259765625
15.181,306,1616,802,324,-0.7410888671875,0.306640625,-0.148681640625
15.194,305,1798,830,328,-0.7410888671875,0.306640625,-0.148681640625
15.196,306,2381,838,332,-0.710693359375,0.30712890625,-0.119384765625
15.204,308,2744,912,338,-0.6480712890625,0.2750244140625,-0.1278076171875
15.211,308,3147,1038,371,-0.6480712890625,0.2750244140625,-0.1278076171875
15.225,312,3147,1281,1115,-0.4788818359375,0.109619140625,-0.1656494140625
15.233,313,3147,1328,1561,-0.34521484375,0.025634765625,-0.1466064453125
15.241,314,3147,1504,1943,-0.34521484375,0.025634765625,-0.1466064453125
15.255,316,3147,1732,2593,-0.2998046875,0.3328857421875,-0.0140380859375
15.271,318,3147,1852,2962,-0.6802978515625,0.4547119140625,-0.1470947265625
15.271,319,3147,1874,3147,-0.6802978515625,0.4547119140625,-0.1470947265625
15.309,322,3147,2008,3147,-1.6527099609375,0.5146484375,-0.488037109375
15.309,323,3147,2058,3147,-1.6527099609375,0.5146484375,-0.488037109375
15.309,327,3147,2078,3147,-1.800537109375,0.5625,-0.4332275390625
15.315,324,3147,2131,3147,-1.357666015625,0.4169921875,0.050048828125
15.323,324,3147,2175,3147,-1.357666015625,0.4169921875,0.050048828125
15.331,323,3147,2202,3147,-1.2052001953125,0.39306640625,0.2125244140625
15.345,324,3147,2186,3147,-1.221923828125,0.57763671875,-0.0069580078125
15.353,321,3147,2153,3147,-1.221923828125,0.57763671875,-0.0069580078125
15.361,324,3147,2161,3147,-1.23193359375,0.646240234375,-0.2379150390625
15.375,324,3147,2178,3147,-1.0089111328125,0.6455078125,-0.2734375
15.406,324,3147,2158,3147,-1.0089111328125,0.6455078125,-0.2734375
15.410,324,3147,2127,3147,-1.1553955078125,0.534423828125,-0.1123046875
15.411,321,3147,2035,3147,-1.3353271484375,0.1513671875,-0.0587158203125
15.413,321,3147,1983,3147,-1.3353271484375,0.1513671875,-0.0587158203125
15.421,321,3147,1931,3147,-1.217529296875,0.255615234375,-0.14599609375
15.435,322,3147,1742,3147,-1.123779296875,0.549072265625,-0.2835693359375
15.443,316,3147,1604,3147,-1.123779296875,0.549072265625,-0.2835693359375
15.451,316,3147,1483,2996,-1.17431640625,0.4862060546875,-0.2783203125
15.465,313,3147,1316,2306,-1.17431640625,0.3565673828125,-0.2294921875
15.479,308,3147,1201,1748,-1.17431640625,0.3565673828125,-0.2294921875
15.481,308,3147,1116,1239,-1.04052734375,0.3731689453125,-0.2515869140625
15.515,304,3147,883,346,-0.60107421875,0.402099609375,-0.274169921875
15.515,305,2608,814,334,-0.60107421875,0.402099609375,-0.274169921875
15.516,306,2217,740,332,-0.4049072265625,0.3660888671875,-0.1751708984375
15.527,304,1700,667,324,-0.3067626953125,0.3548583984375,-0.01123046875
15.533,304,1457,679,328,-0.3564453125,0.398193359375,0.0662841796875
15.541,302,1209,673,326,-0.5418701171875,0.43701171875,-0.0062255859375
15.555,306,871,648,323,-0.75244140625,0.4791259765625,-0.153076171875
15.563,306,790,620,321,-0.8995361328125,0.49365234375,-0.291748046875
15.578,302,694,591,319,-0.97021484375,0.42822265625,-0.347412109375
15.628,300,590,526,323,-0.9791259765625,0.2999267578125,-0.3341064453125
15.630,304,603,567,318,-0.9591064453125,0.177001953125,-0.2733154296875
15.630,290,605,537,318,-0.935791015625,0.112060546875,-0.182373046875
15.630,307,593,508,321,-0.918212890625,0.0999755859375,-0.1142578125
15.630,304,600,481,321,-0.8939208984375,0.114990234375,-0.0927734375
15.631,302,594,458,321,-0.85986328125,0.14306640625,-0.1043701171875
15.645,302,593,490,321,-0.8311767578125,0.181640625,-0.1248779296875
15.653,304,598,473,318,-0.8115234375,0.21484375,-0.140380859375
15.661,302,617,529,321,-0.7900390625,0.23681640625,-0.1441650390625
15.681,304,601,465,321,-0.7628173828125,0.271728515625,-0.134033203125
15.683,301,614,481,321,-0.7440185546875,0.325927734375,-0.118896484375
15.705,300,618,490,321,-0.7440185546875,0.37353515625,-0.106689453125
15.707,304,657,497,318,-0.7537841796875,0.3912353515625,-0.091796875
15.720,302,648,484,321,-0.760498046875,0.3712158203125,-0.0772705078125
15.722,304,630,484,319,-0.761962890625,0.3323974609375,-0.082763671875
15.736,304,614,526,323,-0.755615234375,0.2965087890625,-0.1092529296875
15.743,302,607,632,322,-0.740478515625,0.262939453125,-0.13671875
15.751,300,832,678,324,-0.72900390625,0.241943359375,-0.146240234375
15.765,306,1274,805,330,-0.7298583984375,0.24951171875,-0.1412353515625
15.782,306,1616,844,331,-0.734375,0.2633056640625,-0.1387939453125
15.783,306,2001,883,332,-0.7620849609375,0.2838134765625,-0.14404296875
15.803,308,2612,894,338,-0.855712890625,0.34375,-0.1568603515625
15.805,292,3000,932,328,-0.9736328125,0.36962890625,-0.207275390625
15.828,309,3147,1101,473,-1.008544921875,0.294677734375,-0.3006591796875
15.828,309,3147,1214,929,-0.9024658203125,0.21533203125,-0.3897705078125
15.833,310,3147,1287,1312,-0.6925048828125,0.1829833984375,-0.4097900390625
15.841,309,3147,1393,1679,-0.4913330078125,0.1263427734375,-0.3106689453125
15.855,315,3147,1518,2213,-0.4130859375,0.0682373046875,-0.16015625
15.863,316,3147,1643,2492,-0.47314453125,0.141357421875,-0.0545654296875
15.871,316,3147,1702,2780,-0.6221923828125,0.3221435546875,-0.0152587890625
15.885,321,3147,1854,3147,-0.8421630859375,0.50439453125,-0.0233154296875
15.893,319,3147,1912,3147,-1.0679931640625,0.6217041015625,-0.0042724609375
15.909,318,3147,1973,3147,-1.197021484375,0.5994873046875,0.067626953125
15.921,322,3147,2082,3147,-1.2835693359375,0.4976806640625,0.1239013671875
15.938,323,3147,2131,3147,-1.40185546875,0.42041015625,0.121337890625
15.938,324,3147,2160,3147,-1.4583740234375,0.3773193359375,0.018798828125
15.945,324,3147,2215,3147,-1.4210205078125,0.421875,-0.1209716796875
15.953,324,3147,2218,3147,-1.383056640625,0.4945068359375,-0.1954345703125
15.963,324,3147,2195,3147,-1.4041748046875,0.460205078125,-0.1878662109375
15.975,324,3147,2118,3147,-1.380126953125,0.337890625,-0.1495361328125
15.987,318,3147,2119,3147,-1.14990234375,0.313720703125,-0.14404296875
15.991,323,3147,2117,3147,-0.9447021484375,0.55419921875,-0.12255859375
16.009,321,3147,2024,3147,-1.0880126953125,0.775634765625,-0.1114501953125
16.027,321,3147,1946,3147,-1.393798828125,0.642333984375,-0.115966796875
16.028,321,3147,1891,3147,-1.546142578125,0.3199462890625,-0.0604248046875
16.036,316,3147,1689,3147,-1.5357666015625,0.1690673828125,-0.015380859375
16.043,316,3147,1514,3147,-1.4658203125,0.2886962890625,-0.05224609375
16.051,313,3147,1452,3147,-1.3682861328125,0.482666015625,-0.1434326171875
16.065,310,3147,1292,2891,-1.2467041015625,0.563232421875,-0.2076416015625
16.074,308,3147,1266,2445,-1.097412109375,0.506103515625,-0.1903076171875
16.090,310,3147,1191,1719,-0.9058837890625,0.38134765625,-0.1265869140625
16.095,306,3147,1007,675,-0.6734619140625,0.2869873046875,-0.055908203125
16.103,305,3147,920,356,-0.4207763671875,0.2132568359375,0.0330810546875
16.129,304,2928,816,343,-0.202880859375,0.14990234375,0.09423828125
16.130,308,2268,754,331,-0.166259765625,0.2041015625,0.029052734375
16.133,304,2058,772,330,-0.375,0.3570556640625,-0.1075439453125
16.143,304,1870,780,330,-0.657958984375,0.5177001953125,-0.2275390625
16.155,304,1488,782,327,-0.837158203125,0.6319580078125,-0.30419921875
16.163,306,1413,738,327,-0.8994140625,0.618896484375,-0.31591796875
16.171,302,1189,725,323,-0.901611328125,0.4552001953125,-0.283935546875
16.194,304,1078,703,323,-0.8863525390625,0.2259521484375,-0.2193603515625
16.195,302,938,684,323,-0.88427734375,0.0614013671875,-0.13330078125
16.201,302,890,706,318,-0.88427734375,0.0614013671875,-0.13330078125
16.221,304,774,657,321,-0.9110107421875,0.057373046875,-0.063232421875
16.223,304,755,639,317,-0.91162109375,0.1458740234375,-0.07958984375
16.231,304,713,634,323,-0.91162109375,0.1458740234375,-0.07958984375
16.249,304,695,642,321,-0.8970947265625,0.23828125,-0.09423828125
16.258,305,675,603,321,-0.8775634765625,0.2496337890625,-0.1053466796875
16.261,304,648,601,324,-0.8775634765625,0.2496337890625,-0.1053466796875
16.275,304,649,590,321,-0.8140869140625,0.2535400390625,-0.1304931640625
16.283,305,666,617,326,-0.793701171875,0.2642822265625,-0.1318359375
16.301,302,656,636,321,-0.793701171875,0.2642822265625,-0.1318359375
16.305,304,713,648,321,-0.802734375,0.3099365234375,-0.1458740234375
16.322,304,785,646,321,-0.809814453125,0.31396484375,-0.1480712890625
16.323,304,864,673,323,-0.809814453125,0.31396484375,-0.1480712890625
16.335,304,963,661,318,-0.8238525390625,0.275390625,-0.1351318359375
16.343,302,1199,653,326,-0.8218994140625,0.2451171875,-0.126708984375
16.356,306,1358,680,328,-0.8218994140625,0.2451171875,-0.126708984375
16.365,304,1735,669,330,-0.811767578125,0.2161865234375,-0.128173828125
16.373,304,1981,707,332,-0.828857421875,0.2135009765625,-0.1302490234375
16.381,306,2273,689,336,-0.828857421875,0.2135009765625,-0.1302490234375
16.396,304,2788,695,338,-0.848876953125,0.22265625,-0.1387939453125
16.403,307,3147,697,344,-0.800048828125,0.234375,-0.1309814453125
16.420,306,3147,790,631,-0.800048828125,0.234375,-0.1309814453125
16.429,310,3147,1143,1243,-0.5823974609375,0.2799072265625,-0.0987548828125
16.437,311,3147,1251,1519,-0.5823974609375,0.2799072265625,-0.0987548828125
16.441,315,3147,1387,1798,-0.4149169921875,0.253662109375,-0.04833984375
16.455,317,3147,1636,2308,-0.13232421875,0.302001953125,0.048828125
16.465,316,3147,1739,2676,-0.13232421875,0.302001953125,0.048828125
16.471,321,3147,1838,3062,-0.2938232421875,0.3409423828125,0.039794921875
16.485,322,3147,1920,3147,-1.390625,0.2672119140625,-0.264404296875
16.499,324,3147,1996,3147,-1.390625,0.2672119140625,-0.264404296875
16.501,304,3147,2085,3147,-1.896240234375,0.466552734375,-0.3885498046875
16.515,322,3147,2128,3147,-1.7298583984375,0.47802734375,-0.242431640625
16.532,327,3147,2192,3147,-1.7298583984375,0.47802734375,-0.242431640625
16.532,326,3147,2183,3147,-1.38916015625,0.4005126953125,-0.0247802734375
16.545,327,3147,2188,3147,-1.0430908203125,0.69140625,0.0927734375
16.553,326,3147,2110,3147,-1.0430908203125,0.69140625,0.0927734375
16.561,324,3147,2061,3147,-1.1065673828125,0.823974609375,-0.078369140625
16.575,324,3147,2070,3147,-1.1756591796875,0.4737548828125,-0.4140625
16.583,324,3147,2093,3147,-1.1756591796875,0.4737548828125,-0.4140625
16.591,324,3147,2087,3147,-1.06640625,0.445556640625,-0.3487548828125
16.605,323,3147,2012,3147,-1.5611572265625,0.27294921875,-0.1875
16.641,323,3147,1918,3147,-1.5611572265625,0.27294921875,-0.1875
16.642,322,3147,1815,3147,-1.69091796875,0.06103515625,-0.102783203125
16.642,316,3147,1572,3147,-1.287353515625,0.27490234375,-0.104736328125
16.643,313,3147,1386,3147,-1.287353515625,0.27490234375,-0.104736328125
16.651,309,3147,1267,3147,-1.093505859375,0.482421875,-0.1705322265625
16.665,315,3147,1097,2881,-0.9681396484375,0.5224609375,-0.170166015625
