time,compression0,compression1,compression2,compression3,magn_x,magn_y,magn_z,gyro_x,gyro_y,gyro_z,accel_x,accel_y,accel_z
0.020,306,2290,942,338,-16.0,36.0,10.0,-16.9677734375,-19.71435546875,-3.417968511581421,-0.704345703125,0.30908203125,-0.4727783203125
0.020,309,2448,986,342,-16.0,36.0,10.0,-20.935056686401367,-15.624999046325684,-3.784179449081421,-0.6878662109375,0.278076171875,-0.4189453125
0.022,314,2654,1014,346,-16.0,36.0,10.0,-22.827146530151367,-11.718749046325684,-3.540038824081421,-0.6593017578125,0.236572265625,-0.37109375
0.055,318,3147,1048,356,-16.0,36.0,10.0,-23.010251998901367,-8.544921875,-2.44140625,-0.626220703125,0.1986083984375,-0.34716796875
0.056,315,3147,1058,590,-16.0,36.0,10.0,-23.925779342651367,-6.530761241912842,-0.1220703050494194,-0.58251953125,0.2003173828125,-0.325927734375
0.056,316,3147,1031,883,-16.0,36.0,10.0,-27.343748092651367,-6.896972179412842,2.868652105331421,-0.5147705078125,0.2410888671875,-0.3121337890625
0.067,318,3147,1029,1346,-16.0,36.0,10.0,-32.3486328125,-11.108397483825684,4.21142578125,-0.4359130859375,0.2879638671875,-0.30712890625
0.075,315,3147,1029,1569,-16.0,36.0,10.0,-37.29248046875,-20.935056686401367,2.25830078125,-0.3406982421875,0.382080078125,-0.281005859375
0.084,316,3147,1137,1960,-16.0,36.0,10.0,-41.320796966552734,-37.7197265625,-3.845214605331421,-0.1878662109375,0.49462890625,-0.1990966796875
0.097,321,3147,1178,2479,-16.0,36.0,10.0,-42.541500091552734,-60.607906341552734,-15.869139671325684,-0.001220703125,0.395751953125,0.001953125
0.180,324,3147,1239,2797,-11.0,36.0,15.0,-40.0390625,-82.09227752685547,-29.113767623901367,0.1240234375,0.062255859375,0.2493896484375
0.180,327,3147,1369,3064,-11.0,36.0,15.0,-27.038572311401367,-93.81102752685547,-32.8369140625,0.129638671875,-0.1260986328125,0.323974609375
0.180,336,3147,1627,3147,-11.0,36.0,15.0,0.7934569716453552,-95.52001190185547,-26.794431686401367,-0.042724609375,0.04736328125,0.11328125
0.180,334,3147,1741,3147,-11.0,36.0,15.0,30.944822311401367,-88.07372283935547,-20.385740280151367,-0.3955078125,0.439697265625,-0.439697265625
0.181,344,3147,1943,3147,-11.0,36.0,15.0,42.724605560302734,-73.18115234375,-24.597166061401367,-0.89306640625,0.57861328125,-1.1318359375
0.181,349,3147,2330,3147,-11.0,36.0,15.0,28.015134811401367,-57.983394622802734,-42.907711029052734,-1.4400634765625,0.428466796875,-1.47802734375
0.181,356,3147,2532,3147,-11.0,36.0,15.0,-8.7890625,-52.062984466552734,-59.692378997802734,-1.7974853515625,0.4144287109375,-1.319580078125
0.181,361,3147,2713,3147,-11.0,36.0,15.0,-51.818843841552734,-56.335445404052734,-61.645503997802734,-1.870849609375,0.3026123046875,-0.81689453125
0.187,373,3147,2984,3147,-11.0,36.0,15.0,-74.3408203125,-61.279293060302734,-50.231929779052734,-1.8424072265625,0.0654296875,-0.2154541015625
0.199,373,3147,3084,3147,-11.0,36.0,15.0,-58.959957122802734,-51.757808685302734,-31.799314498901367,-2.030517578125,0.3480224609375,-0.2607421875
0.206,378,3147,3086,3147,-7.0,33.0,13.0,-27.648923873901367,-28.747556686401367,-16.17431640625,-2.291259765625,0.6685791015625,-0.7259521484375
0.221,382,3147,2978,3147,-7.0,33.0,13.0,-12.634276390075684,-17.7001953125,-11.657713890075684,-1.9949951171875,0.2525634765625,-0.5062255859375
0.231,383,3147,2870,3147,-7.0,33.0,13.0,1.03759765625,-21.911619186401367,-10.925292015075684,-1.2890625,-0.0047607421875,-0.100830078125
0.233,379,3147,2808,3147,-7.0,33.0,13.0,27.709959030151367,-23.376462936401367,-6.713866710662842,-0.8272705078125,0.294189453125,-0.2864990234375
0.247,399,3147,2797,3147,-7.0,33.0,13.0,42.907711029052734,-22.338865280151367,-7.995604991912842,-0.7191162109375,0.504150390625,-0.6971435546875
0.269,478,3147,2799,3147,-7.0,33.0,13.0,31.066892623901367,-24.047849655151367,-17.333984375,-0.923583984375,0.630859375,-0.9483642578125
0.269,900,3147,2345,3147,-7.0,33.0,13.0,31.066892623901367,-24.047849655151367,-17.333984375,-1.456787109375,0.7904052734375,-1.1240234375
0.277,382,3147,2901,3147,-7.0,33.0,13.0,-33.935546875,-29.968259811401367,-30.395505905151367,-1.9224853515625,0.6614990234375,-1.072509765625
0.287,348,3147,2657,3147,-7.0,33.0,13.0,-58.776851654052734,-36.56005859375,-29.968259811401367,-1.9478759765625,0.3460693359375,-0.7415771484375
0.293,346,3147,2573,3147,-7.0,33.0,13.0,-58.776851654052734,-36.56005859375,-29.968259811401367,-1.6673583984375,0.2421875,-0.43310546875
0.328,351,3147,2524,3147,-7.0,33.0,17.0,-54.687496185302734,-34.97314453125,-20.629880905151367,-1.43994140625,0.3016357421875,-0.2745361328125
0.329,473,3147,2316,3147,-7.0,33.0,17.0,-41.503902435302734,-20.812986373901367,-15.075682640075684,-1.3590087890625,0.3902587890625,-0.2711181640625
0.329,455,3147,2139,3147,-7.0,33.0,17.0,-41.503902435302734,-20.812986373901367,-15.075682640075684,-1.2757568359375,0.453857421875,-0.292724609375
0.344,654,3147,1691,3147,-7.0,33.0,17.0,-30.639646530151367,12.512206077575684,-7.385253429412842,-1.1253662109375,0.3328857421875,-0.181884765625
0.345,713,3147,1855,3147,-7.0,33.0,17.0,-22.155759811401367,24.536130905151367,-10.742186546325684,-0.899658203125,0.019287109375,0.026611328125
0.361,767,3147,1815,2723,-7.0,33.0,17.0,-4.2724609375,35.5224609375,-14.038084983825684,-0.6419677734375,-0.2386474609375,0.160888671875
0.362,687,3147,1608,2213,-7.0,33.0,17.0,-4.2724609375,35.5224609375,-14.038084983825684,-0.38916015625,-0.343994140625,0.24169921875
0.378,495,3147,1702,1018,-7.0,33.0,17.0,38.26904296875,40.222164154052734,-7.446288585662842,-0.258544921875,-0.2838134765625,0.3505859375
0.384,744,3147,1386,376,-7.0,33.0,17.0,38.26904296875,40.222164154052734,-7.446288585662842,-0.2772216796875,-0.106201171875,0.3406982421875
0.392,385,2823,1577,354,-7.0,33.0,17.0,52.185054779052734,25.634763717651367,-3.601073980331421,-0.2772216796875,-0.106201171875,0.3406982421875
0.406,1217,2218,737,315,-10.0,33.0,18.0,50.354000091552734,-9.27734375,1.9531248807907104,-0.3531494140625,-0.056640625,-0.2176513671875
0.427,1050,2012,328,338,-10.0,33.0,18.0,50.354000091552734,-9.27734375,1.9531248807907104,-0.23388671875,-0.00048828125,-0.5010986328125
0.427,765,1954,324,334,-10.0,33.0,18.0,52.001949310302734,-16.4794921875,12.756346702575684,-0.23388671875,-0.00048828125,-0.5010986328125
0.454,388,1869,1160,337,-10.0,33.0,18.0,70.25146484375,-1.3427733182907104,38.2080078125,-0.335693359375,0.5865478515625,-0.7877197265625
0.455,423,1927,1051,336,-10.0,33.0,18.0,70.25146484375,-1.3427733182907104,38.2080078125,-0.4609375,0.7191162109375,-0.65625
0.455,404,1957,1056,333,-10.0,33.0,18.0,60.241695404052734,2.685546636581421,33.38623046875,-0.4609375,0.7191162109375,-0.65625
0.468,387,2192,1183,342,-10.0,33.0,18.0,-4.0283203125,-7.324218273162842,0.4882812201976776,-0.6551513671875,0.422607421875,-0.2091064453125
0.474,378,2421,1278,344,-10.0,33.0,18.0,-4.0283203125,-7.324218273162842,0.4882812201976776,-0.70703125,0.314208984375,-0.1220703125
0.492,540,2627,1157,336,-10.0,33.0,18.0,-25.878904342651367,-11.047362327575684,-7.995604991912842,-0.70703125,0.314208984375,-0.1220703125
0.496,418,2963,1428,344,-9.0,34.0,18.0,-32.77587890625,-5.798339366912842,-5.859374523162842,-0.747314453125,0.2147216796875,-0.2117919921875
0.504,478,3147,1372,345,-9.0,34.0,18.0,-32.77587890625,-5.798339366912842,-5.859374523162842,-0.73583984375,0.2044677734375,-0.23388671875
0.533,512,3147,1359,462,-9.0,34.0,18.0,-28.503416061401367,-1.3427733182907104,-2.50244140625,-0.73583984375,0.2044677734375,-0.23388671875
0.533,441,3147,1580,832,-9.0,34.0,18.0,-24.536130905151367,7.019042491912842,3.356933355331421,-0.721435546875,0.1424560546875,-0.249267578125
0.534,384,3147,1564,1123,-9.0,34.0,18.0,-24.536130905151367,7.019042491912842,3.356933355331421,-0.7066650390625,0.057373046875,-0.258056640625
0.550,411,3147,1662,1419,-9.0,34.0,18.0,-24.597166061401367,11.718749046325684,7.568358898162842,-0.7066650390625,0.057373046875,-0.258056640625
0.649,401,3147,1488,1867,-9.0,34.0,18.0,-23.315427780151367,17.88330078125,25.085447311401367,-0.634033203125,0.051513671875,-0.17431640625
0.651,439,3147,1427,2135,-9.0,34.0,18.0,-23.315427780151367,17.88330078125,25.085447311401367,-0.554931640625,0.0458984375,-0.1497802734375
0.652,371,3147,1494,2354,-9.0,34.0,18.0,-18.06640625,15.380858421325684,34.97314453125,-0.554931640625,0.0458984375,-0.1497802734375
0.652,382,3147,1537,2763,-9.0,34.0,18.0,-1.4038084745407104,-4.82177734375,41.870113372802734,-0.30810546875,0.2264404296875,-0.12548828125
0.652,356,3147,1604,3053,-10.0,35.0,16.0,-1.4038084745407104,-4.82177734375,41.870113372802734,-0.30810546875,0.2264404296875,-0.12548828125
0.652,371,3147,1615,3147,-10.0,35.0,16.0,-0.6103515625,-21.789548873901367,34.66796875,-0.11279296875,0.5025634765625,-0.150146484375
0.652,473,3147,1470,3147,-10.0,35.0,16.0,-8.48388671875,-37.353515625,21.240232467651367,-0.0062255859375,0.45947265625,-0.1025390625
0.652,498,3147,2137,3147,-10.0,35.0,16.0,-23.193357467651367,-46.997066497802734,5.371093273162842,-0.0062255859375,0.45947265625,-0.1025390625
0.652,351,3147,2106,3147,-10.0,35.0,16.0,-40.649410247802734,-47.241207122802734,-11.657713890075684,-0.3768310546875,0.02734375,0.0272216796875
0.652,324,3147,2203,3147,-10.0,35.0,16.0,-53.039546966552734,-38.63525390625,-26.977537155151367,-1.202880859375,-0.494140625,0.1190185546875
0.658,342,3147,2379,3147,-10.0,35.0,16.0,-46.447750091552734,-29.968259811401367,-27.770994186401367,-1.202880859375,-0.494140625,0.1190185546875
0.663,346,3147,2679,3147,-10.0,35.0,16.0,-20.996091842651367,-21.850584030151367,-10.742186546325684,-1.34375,0.176025390625,-0.3978271484375
0.676,363,3147,3147,3147,-10.0,35.0,16.0,-3.051757574081421,-12.634276390075684,7.812499523162842,-2.010009765625,1.3533935546875,-1.2664794921875
0.684,501,3147,3147,3147,-10.0,35.0,16.0,-11.840819358825684,-7.751464366912842,14.465331077575684,-2.010009765625,1.3533935546875,-1.2664794921875
0.692,430,3147,3147,3147,-6.0,33.0,16.0,-44.250484466552734,3.051757574081421,11.718749046325684,-2.8809814453125,1.722900390625,-1.583740234375
0.706,408,3147,3147,3147,-6.0,33.0,16.0,-76.904296875,14.648436546325684,3.479003667831421,-1.4925537109375,-0.5640869140625,0.6806640625
0.716,401,3147,3017,3147,-6.0,33.0,16.0,-61.096187591552734,-2.868652105331421,-5.187987804412842,-1.4925537109375,-0.5640869140625,0.6806640625
0.750,391,3147,2990,3147,-6.0,33.0,16.0,6.164550304412842,-7.629394054412842,-2.01416015625,-0.681884765625,0.13916015625,0.65234375
0.750,389,3147,2963,3147,-6.0,33.0,16.0,62.866207122802734,18.49365234375,-1.3427733182907104,-1.0494384765625,0.6802978515625,-1.3101806640625
0.750,387,3147,2997,3147,-6.0,33.0,16.0,67.32177734375,28.015134811401367,-17.7001953125,-1.0494384765625,0.6802978515625,-1.3101806640625
0.773,391,3147,3018,3147,-6.0,33.0,16.0,30.212400436401367,12.390135765075684,-34.24072265625,-1.4891357421875,0.59619140625,-1.3211669921875
0.773,387,3147,3055,3147,-6.0,33.0,16.0,-13.122557640075684,-14.709471702575684,-37.78076171875,-1.9571533203125,0.50634765625,-0.732666015625
0.782,378,3147,3008,3147,-6.0,33.0,16.0,-39.73388671875,-35.2783203125,-31.249998092651367,-1.9571533203125,0.50634765625,-0.732666015625
0.782,373,3147,2946,3147,-6.0,33.0,16.0,-48.156734466552734,-44.006343841552734,-21.362302780151367,-1.8284912109375,0.3487548828125,-0.38720703125
0.797,364,3147,2677,3147,-6.0,31.0,18.0,-44.311519622802734,-41.564937591552734,-12.145995140075684,-1.31005859375,0.4012451171875,-0.03955078125
0.805,364,3147,2498,3147,-6.0,31.0,18.0,-33.447265625,-29.785154342651367,-6.774901866912842,-1.31005859375,0.4012451171875,-0.03955078125
0.813,363,3147,2254,3147,-6.0,31.0,18.0,-20.874021530151367,-11.840819358825684,-5.371093273162842,-1.1448974609375,0.5068359375,-0.115966796875
0.838,361,3147,2001,3147,-6.0,31.0,18.0,-12.145995140075684,9.1552734375,-5.920409679412842,-0.8551025390625,0.205078125,-0.0968017578125
0.838,364,3147,2139,3147,-6.0,31.0,18.0,-9.09423828125,30.700681686401367,-6.774901866912842,-0.8551025390625,0.205078125,-0.0968017578125
0.843,360,3147,1904,3147,-6.0,31.0,18.0,-5.737304210662842,51.208492279052734,-6.530761241912842,-0.7275390625,-0.07373046875,0.121337890625
0.861,359,3147,1578,2551,-6.0,31.0,18.0,3.051757574081421,65.36865234375,-5.187987804412842,-0.355712890625,-0.37060546875,0.3192138671875
0.878,382,3147,1527,2356,-6.0,31.0,18.0,19.10400390625,72.1435546875,-3.295898199081421,-0.355712890625,-0.37060546875,0.3192138671875
0.879,378,3147,1474,1968,-6.0,31.0,18.0,38.02490234375,73.30322265625,2.0751953125,-0.2786865234375,-0.2376708984375,0.21484375
0.887,739,3147,1167,1183,-7.0,35.0,13.0,44.921871185302734,64.51416015625,10.314940452575684,-0.476318359375,0.29296875,-0.185546875
0.895,346,3147,1157,740,-7.0,35.0,13.0,39.48974609375,45.227046966552734,10.742186546325684,-0.476318359375,0.29296875,-0.185546875
0.906,333,3147,1025,490,-7.0,35.0,13.0,36.92626953125,24.536130905151367,3.051757574081421,-0.55908203125,0.0999755859375,-0.4364013671875
0.917,479,3072,332,310,-7.0,35.0,13.0,42.114253997802734,12.084959983825684,3.784179449081421,-0.4844970703125,0.1712646484375,-0.6524658203125
0.943,382,2710,837,349,-7.0,35.0,13.0,52.978511810302734,9.46044921875,16.6015625,-0.4844970703125,0.1712646484375,-0.6524658203125
0.944,636,2510,497,330,-7.0,35.0,13.0,62.805171966552734,10.986327171325684,26.733396530151367,-0.517578125,0.439453125,-0.6861572265625
0.947,375,2207,894,334,-7.0,35.0,13.0,58.288570404052734,9.46044921875,25.329587936401367,-0.5828857421875,0.5390625,-0.6046142578125
0.958,973,2060,766,328,-7.0,35.0,13.0,37.17041015625,2.563476324081421,17.15087890625,-0.6124267578125,0.481201171875,-0.424072265625
0.963,501,1996,780,333,-7.0,35.0,13.0,13.366698265075684,-5.126952648162842,9.46044921875,-0.6197509765625,0.398193359375,-0.257080078125
0.985,944,2039,347,310,-7.0,35.0,13.0,-0.3662109076976776,-8.60595703125,4.150390625,-0.64501953125,0.3265380859375,-0.1708984375
0.986,606,2117,559,328,-10.0,34.0,18.0,-2.624511480331421,-6.469726085662842,2.3193359375,-0.7056884765625,0.299560546875,-0.173828125
0.993,531,2197,811,337,-10.0,34.0,18.0,3.173827886581421,-0.3662109076976776,5.065917491912842,-0.7528076171875,0.33642578125,-0.2286376953125
1.007,764,2445,567,322,-10.0,34.0,18.0,10.742186546325684,5.432128429412842,9.27734375,-0.757080078125,0.3826904296875,-0.2757568359375
1.015,591,2608,766,334,-10.0,34.0,18.0,13.366698265075684,8.48388671875,9.94873046875,-0.7454833984375,0.3712158203125,-0.2835693359375
1.023,532,2798,829,338,-10.0,34.0,18.0,9.6435546875,9.765625,7.324218273162842,-0.741455078125,0.2862548828125,-0.2618408203125
1.043,402,3147,846,334,-10.0,34.0,18.0,3.417968511581421,12.268065452575684,6.408690929412842,-0.7364501953125,0.1788330078125,-0.2498779296875
1.045,987,3147,433,426,-10.0,34.0,18.0,-1.15966796875,15.930174827575684,9.70458984375,-0.69775390625,0.1217041015625,-0.263916015625
1.054,361,3147,1034,737,-10.0,34.0,18.0,-4.8828125,18.12744140625,14.770506858825684,-0.6318359375,0.106689453125,-0.2869873046875
1.068,508,3147,348,1278,-10.0,34.0,18.0,-9.521484375,17.7001953125,19.95849609375,-0.5701904296875,0.0787353515625,-0.271484375
1.090,588,3147,952,1541,-10.0,34.0,18.0,-12.451170921325684,13.854979515075684,26.672361373901367,-0.476806640625,0.0303955078125,-0.191650390625
1.090,989,3147,387,830,-11.0,34.0,14.0,-10.559081077575684,5.065917491912842,33.50830078125,-0.312744140625,-0.0203857421875,-0.07666015625
1.097,582,3147,883,2587,-11.0,34.0,14.0,-5.859374523162842,-9.6435546875,33.38623046875,-0.12255859375,0.0401611328125,-0.0062255859375
1.105,411,3147,600,2424,-11.0,34.0,14.0,-6.469726085662842,-29.846189498901367,18.85986328125,0.0823974609375,0.4139404296875,-0.0941162109375
1.113,360,3147,1440,3147,-11.0,34.0,14.0,-32.1044921875,-50.109859466552734,-9.58251953125,0.1712646484375,0.8262939453125,-0.264404296875
1.127,400,3147,1806,3147,-11.0,34.0,14.0,-92.46825408935547,-59.753414154052734,-28.808591842651367,0.1109619140625,0.59375,-0.281982421875
1.154,618,3147,1237,3147,-11.0,34.0,14.0,-149.169921875,-62.499996185302734,-18.9208984375,0.1627197265625,-0.140380859375,-0.0882568359375
1.154,475,3147,1895,3147,-11.0,34.0,14.0,-147.4609375,-58.044429779052734,-1.8310545682907104,-0.052734375,-0.545166015625,-0.0531005859375
1.157,623,3147,2122,3147,-11.0,34.0,14.0,-90.94237518310547,-44.189449310302734,-5.615233898162842,-0.8426513671875,-0.157470703125,-0.2589111328125
1.170,631,3147,2345,3147,-11.0,34.0,14.0,-43.273921966552734,-42.602535247802734,-15.380858421325684,-1.593994140625,0.7296142578125,-0.4974365234375
1.180,735,3147,2668,3147,-11.0,34.0,14.0,-36.68212890625,-52.246089935302734,-14.404295921325684,-2.028076171875,1.132080078125,-0.7322998046875
1.191,1217,3147,1662,3147,-5.0,34.0,18.0,-47.790523529052734,-46.630855560302734,-5.310058116912842,-2.6842041015625,1.6075439453125,-1.2838134765625
1.195,867,3147,2580,3147,-5.0,34.0,18.0,-77.81982421875,1.6479490995407104,23.803709030151367,-3.2373046875,1.2337646484375,-1.704345703125
1.203,590,3147,3031,3147,-5.0,34.0,18.0,-86.73094940185547,21.362302780151367,29.602048873901367,-2.3466796875,-0.612060546875,-0.0521240234375
1.217,2804,3147,685,3147,-5.0,34.0,18.0,-26.489255905151367,-8.97216796875,3.356933355331421,-1.106689453125,-0.8734130859375,1.6126708984375
1.225,624,3147,2624,3147,-5.0,34.0,18.0,61.523433685302734,2.563476324081421,-3.234863042831421,-0.7672119140625,0.246826171875,0.79833984375
1.247,754,3147,2419,3147,-5.0,34.0,18.0,114.92919158935547,39.97802734375,-7.751464366912842,-0.865966796875,0.77001953125,-0.7691650390625
1.247,1315,3147,1881,3147,-5.0,34.0,18.0,101.62352752685547,50.048824310302734,-23.193357467651367,-1.1435546875,0.859375,-1.540283203125
1.255,766,3147,2394,3147,-5.0,34.0,18.0,48.034664154052734,25.878904342651367,-36.68212890625,-1.3603515625,0.9158935546875,-1.4759521484375
1.263,631,3147,2576,3147,-5.0,34.0,18.0,-1.220703125,-7.812499523162842,-44.006343841552734,-1.623046875,0.8680419921875,-1.210693359375
1.297,559,3147,2492,3147,-5.0,34.0,18.0,-30.395505905151367,-29.479978561401367,-41.564937591552734,-1.8138427734375,0.6151123046875,-0.80712890625
1.299,631,3147,2424,3147,-8.0,34.0,19.0,-40.832515716552734,-36.92626953125,-30.273435592651367,-1.7510986328125,0.2945556640625,-0.30615234375
1.300,619,3147,2316,3147,-8.0,34.0,19.0,-32.77587890625,-31.616209030151367,-15.930174827575684,-1.57080078125,0.1290283203125,0.0106201171875
1.307,1292,3147,1377,3147,-8.0,34.0,19.0,-12.939452171325684,-17.578125,-2.197265625,-1.385498046875,0.2261962890625,0.053955078125
1.315,1236,3147,1157,3147,-8.0,34.0,19.0,5.310058116912842,2.38037109375,9.1552734375,-1.1895751953125,0.4215087890625,-0.059326171875
1.323,413,3147,2058,3147,-8.0,34.0,19.0,13.488768577575684,25.268552780151367,15.258788108825684,-0.97802734375,0.4173583984375,-0.10791015625
1.350,631,3147,1874,3147,-8.0,34.0,19.0,14.221190452575684,47.790523529052734,14.770506858825684,-0.779052734375,0.1988525390625,0.009033203125
1.351,533,3147,1721,3147,-8.0,34.0,19.0,14.648436546325684,63.720699310302734,9.21630859375,-0.546142578125,-0.0811767578125,0.262451171875
1.353,533,3147,1521,3012,-8.0,34.0,19.0,19.22607421875,71.10595703125,1.7089842557907104,-0.3306884765625,-0.3291015625,0.4052734375
1.368,363,3147,1806,2512,-8.0,34.0,19.0,33.50830078125,75.5615234375,0.7324218153953552,-0.2542724609375,-0.3194580078125,0.2239990234375
1.378,373,3147,1798,2190,-7.0,33.0,18.0,53.894039154052734,71.4111328125,8.48388671875,-0.261962890625,0.0384521484375,-0.0517578125
1.407,531,3147,1557,1824,-7.0,33.0,18.0,64.63623046875,52.490230560302734,13.671874046325684,-0.362548828125,0.4183349609375,-0.2823486328125
1.409,1318,3147,371,1109,-7.0,33.0,18.0,59.936519622802734,26.916501998901367,8.6669921875,-0.525146484375,0.414306640625,-0.4918212890625
1.409,425,3147,1012,998,-7.0,33.0,18.0,50.781246185302734,7.019042491912842,1.5869139432907104,-0.593017578125,0.150390625,-0.646240234375
1.413,725,3147,393,738,-7.0,33.0,18.0,50.781246185302734,7.019042491912842,1.5869139432907104,-0.5802001953125,0.0712890625,-0.72412109375
1.427,406,3147,1204,539,-7.0,33.0,18.0,50.231929779052734,1.220703125,12.451170921325684,-0.58837890625,0.259765625,-0.7154541015625
1.451,361,3134,1261,355,-7.0,33.0,18.0,50.964351654052734,0.9155272841453552,13.549803733825684,-0.61279296875,0.44873046875,-0.616943359375
1.452,1201,2884,426,313,-7.0,33.0,18.0,50.964351654052734,0.9155272841453552,13.549803733825684,-0.6324462890625,0.431884765625,-0.4276123046875
1.457,1264,2573,371,313,-7.0,33.0,18.0,23.315427780151367,-9.27734375,-1.7700194120407104,-0.6680908203125,0.31591796875,-0.2130126953125
1.465,689,2391,806,327,-7.0,33.0,18.0,9.09423828125,-10.437010765075684,-2.38037109375,-0.6922607421875,0.2794189453125,-0.0989990234375
1.474,765,2328,748,323,-9.0,34.0,20.0,9.09423828125,-10.437010765075684,-2.38037109375,-0.69970703125,0.2947998046875,-0.10595703125
1.491,385,2394,1078,338,-9.0,34.0,20.0,5.0048828125,-8.30078125,1.03759765625,-0.735595703125,0.268798828125,-0.165283203125
1.495,533,2477,1067,338,-9.0,34.0,20.0,10.498045921325684,-4.45556640625,3.417968511581421,-0.76708984375,0.24658203125,-0.2315673828125
1.513,1050,2677,815,334,-9.0,34.0,20.0,10.498045921325684,-4.45556640625,3.417968511581421,-0.756591796875,0.317138671875,-0.2657470703125
1.517,321,2925,1172,348,-9.0,34.0,20.0,16.6015625,4.57763671875,16.54052734375,-0.7255859375,0.4031982421875,-0.2635498046875
1.525,315,3128,1162,354,-9.0,34.0,20.0,10.314940452575684,4.638671875,17.333984375,-0.700927734375,0.3682861328125,-0.2742919921875
1.533,332,3147,1129,413,-9.0,34.0,20.0,10.314940452575684,4.638671875,17.333984375,-0.690673828125,0.2640380859375,-0.3184814453125
1.554,332,3147,1129,714,-9.0,34.0,20.0,-2.624511480331421,3.479003667831421,13.854979515075684,-0.6776123046875,0.2210693359375,-0.373779296875
1.555,385,3147,1107,936,-9.0,34.0,20.0,-8.1787109375,3.173827886581421,14.831542015075684,-0.6654052734375,0.2528076171875,-0.413818359375
1.563,369,3147,1129,1151,-9.0,34.0,20.0,-8.1787109375,3.173827886581421,14.831542015075684,-0.6466064453125,0.28515625,-0.3990478515625
1.577,522,3147,963,1508,-8.0,32.0,20.0,-29.052732467651367,-4.33349609375,19.71435546875,-0.6016845703125,0.25,-0.324462890625
1.593,390,3147,1217,1824,-8.0,32.0,20.0,-36.80419921875,-9.70458984375,24.719236373901367,-0.53515625,0.1341552734375,-0.21044921875
1.593,803,3147,402,1024,-8.0,32.0,20.0,-36.80419921875,-9.70458984375,24.719236373901367,-0.45263671875,0.0047607421875,-0.0787353515625
1.620,1312,3147,1014,2417,-8.0,32.0,20.0,-20.874021530151367,-22.277830123901367,28.015134811401367,-0.315673828125,0.013427734375,0.0238037109375
1.621,403,3147,1687,2952,-8.0,32.0,20.0,-9.6435546875,-31.249998092651367,15.197752952575684,-0.099365234375,0.27294921875,-0.00634765625
1.623,338,3147,1848,3147,-8.0,32.0,20.0,-9.6435546875,-31.249998092651367,15.197752952575684,-0.099365234375,0.27294921875,-0.00634765625
1.637,359,3147,1913,3147,-8.0,32.0,20.0,-55.725093841552734,-37.17041015625,-30.090330123901367,0.0556640625,0.684814453125,-0.4063720703125
1.656,364,3147,2058,3147,-8.0,32.0,20.0,-55.725093841552734,-37.17041015625,-30.090330123901367,-0.001220703125,0.2064208984375,-0.31298828125
1.657,363,3147,2076,3147,-8.0,32.0,20.0,-106.62841033935547,-31.616209030151367,-31.921384811401367,-0.001220703125,0.2064208984375,-0.31298828125
1.667,371,3147,2172,3147,-8.0,32.0,20.0,-109.37499237060547,-14.953612327575684,-13.977049827575684,-0.762451171875,-0.39892578125,0.105224609375
1.675,375,3147,2280,3147,-6.0,30.0,19.0,-109.37499237060547,-14.953612327575684,-13.977049827575684,-1.254638671875,-0.052001953125,0.201904296875
1.691,385,3147,2372,3147,-6.0,30.0,19.0,-72.021484375,-18.00537109375,-14.892577171325684,-1.254638671875,-0.052001953125,0.201904296875
1.697,404,3147,2861,3147,-6.0,30.0,19.0,-9.765625,-35.70556640625,9.09423828125,-1.6473388671875,0.8775634765625,-0.739013671875
1.705,401,3147,3115,3147,-6.0,30.0,19.0,-9.765625,-35.70556640625,9.09423828125,-2.42138671875,1.801513671875,-1.5927734375
1.713,371,3147,3106,3147,-6.0,30.0,19.0,-3.723144292831421,-21.728513717651367,18.98193359375,-2.42138671875,1.801513671875,-1.5927734375
1.730,398,3147,3035,3147,-6.0,30.0,19.0,-90.08788299560547,8.9111328125,19.22607421875,-2.453857421875,-0.4627685546875,-0.239501953125
1.735,387,3147,2912,3147,-6.0,30.0,19.0,-90.08788299560547,8.9111328125,19.22607421875,-1.1314697265625,-0.9652099609375,1.3243408203125
1.760,385,3147,2881,3147,-6.0,30.0,19.0,-37.53662109375,-28.991697311401367,-8.6669921875,-1.1314697265625,-0.9652099609375,1.3243408203125
1.760,371,3147,2828,3147,-6.0,30.0,19.0,94.54344940185547,22.338865280151367,-9.6435546875,-0.78515625,0.9359130859375,-0.81103515625
1.765,385,3147,2884,3147,-6.0,30.0,19.0,94.54344940185547,22.338865280151367,-9.6435546875,-1.1343994140625,1.00146484375,-1.3782958984375
1.773,386,3147,2981,3147,-6.0,32.0,14.0,75.86669921875,30.944822311401367,-27.343748092651367,-1.1343994140625,1.00146484375,-1.3782958984375
1.788,385,3147,2887,3147,-6.0,32.0,14.0,-12.695311546325684,-14.221190452575684,-50.476070404052734,-1.856201171875,0.944580078125,-1.21044921875
1.800,391,3147,2887,3147,-6.0,32.0,14.0,-12.695311546325684,-14.221190452575684,-50.476070404052734,-2.0069580078125,0.5390625,-0.819091796875
1.805,388,3147,2890,3147,-6.0,32.0,14.0,-35.58349609375,-34.423828125,-48.095699310302734,-2.0069580078125,0.5390625,-0.819091796875
1.817,387,3147,2723,3147,-6.0,32.0,14.0,-29.785154342651367,-43.457027435302734,-19.71435546875,-1.59228515625,0.074462890625,-0.00830078125
1.828,375,3147,2563,3147,-6.0,32.0,14.0,-29.785154342651367,-43.457027435302734,-19.71435546875,-1.286376953125,0.3502197265625,0.034912109375
1.833,371,3147,2398,3147,-6.0,32.0,14.0,-10.498045921325684,-32.958984375,-4.21142578125,-1.286376953125,0.3502197265625,0.034912109375
1.865,375,3147,2253,3147,-6.0,32.0,14.0,6.103515148162842,-16.66259765625,4.45556640625,-0.67578125,0.463623046875,0.0887451171875
1.866,382,3147,2316,3147,-6.0,32.0,14.0,15.380858421325684,3.723144292831421,2.3193359375,-0.67578125,0.463623046875,0.0887451171875
1.866,356,3147,2464,3115,-6.0,32.0,14.0,19.287109375,25.512693405151367,-7.629394054412842,-0.5782470703125,0.2154541015625,0.16552734375
1.874,361,3147,2222,2464,-4.0,34.0,14.0,23.071287155151367,42.297359466552734,-17.08984375,-0.53759765625,-0.1014404296875,0.2142333984375
1.905,351,3147,2156,1536,-4.0,34.0,14.0,37.04833984375,52.001949310302734,-20.629880905151367,-0.297607421875,-0.3936767578125,0.1920166015625
1.905,336,3147,1941,883,-4.0,34.0,14.0,59.936519622802734,56.396480560302734,-15.136717796325684,-0.297607421875,-0.3936767578125,0.1920166015625
1.906,361,3147,1794,617,-4.0,34.0,14.0,73.42529296875,54.077144622802734,-2.746581792831421,-0.2130126953125,-0.1912841796875,0.24267578125
1.917,362,2976,1467,351,-4.0,34.0,14.0,72.20458984375,49.499507904052734,7.873534679412842,-0.48291015625,-0.0113525390625,-0.215576171875
1.925,375,2887,1255,347,-4.0,34.0,14.0,67.93212890625,46.813961029052734,11.596678733825684,-0.48291015625,-0.0113525390625,-0.215576171875
1.933,371,2638,1123,349,-4.0,34.0,14.0,64.94140625,44.311519622802734,15.136717796325684,-0.55615234375,-0.0166015625,-0.43798828125
1.965,361,2108,905,337,-4.0,34.0,14.0,65.97900390625,43.457027435302734,26.550291061401367,-0.572509765625,0.5010986328125,-0.65625
1.966,325,1828,853,343,-4.0,34.0,14.0,74.0966796875,42.480464935302734,39.61181640625,-0.572509765625,0.5010986328125,-0.65625
1.967,349,1636,864,337,-12.0,33.0,11.0,76.47705078125,36.1328125,42.785640716552734,-0.6148681640625,0.6466064453125,-0.5909423828125
1.977,351,1502,806,336,-12.0,33.0,11.0,62.194820404052734,25.085447311401367,34.5458984375,-0.7010498046875,0.41748046875,-0.265625
1.987,336,1523,785,330,-12.0,33.0,11.0,43.762203216552734,14.465331077575684,22.583005905151367,-0.7010498046875,0.41748046875,-0.265625
1.993,353,1557,806,330,-12.0,33.0,11.0,36.0107421875,7.202147960662842,14.526366233825684,-0.710205078125,0.3826904296875,-0.280517578125
2.007,330,1676,849,332,-12.0,33.0,11.0,38.0859375,2.624511480331421,10.375975608825684,-0.7042236328125,0.42138671875,-0.484130859375
2.015,336,1838,899,336,-12.0,33.0,11.0,41.442867279052734,0.30517578125,8.4228515625,-0.7042236328125,0.42138671875,-0.484130859375
2.023,336,1908,872,338,-12.0,33.0,11.0,38.2080078125,-3.601073980331421,6.713866710662842,-0.68310546875,0.4822998046875,-0.53076171875
2.040,338,2195,853,336,-12.0,33.0,11.0,24.719236373901367,-10.192870140075684,0.8544921278953552,-0.714111328125,0.3585205078125,-0.3580322265625
2.045,330,2379,858,346,-12.0,33.0,11.0,8.9111328125,-15.075682640075684,-5.432128429412842,-0.714111328125,0.3585205078125,-0.3580322265625
2.069,334,2581,813,344,-12.0,33.0,11.0,-1.4038084745407104,-18.9208984375,-9.82666015625,-0.6495361328125,0.3306884765625,-0.32177734375
2.069,328,3042,927,346,-12.0,34.0,15.0,-13.244627952575684,-21.362302780151367,-15.624999046325684,-0.733642578125,0.1243896484375,-0.2630615234375
2.075,332,3147,933,391,-12.0,34.0,15.0,-24.108884811401367,-17.76123046875,-14.221190452575684,-0.733642578125,0.1243896484375,-0.2630615234375
2.083,364,3147,998,700,-12.0,34.0,15.0,-21.972654342651367,-9.82666015625,0.1831054538488388,-0.700927734375,0.0430908203125,-0.2423095703125
2.097,323,3147,1097,1283,-12.0,34.0,15.0,-11.596678733825684,-3.112792730331421,17.39501953125,-0.5738525390625,0.0140380859375,-0.2373046875
2.105,323,3147,1173,1568,-12.0,34.0,15.0,-4.638671875,0.30517578125,29.785154342651367,-0.4964599609375,0.0296630859375,-0.179931640625
2.113,318,3147,1188,1904,-12.0,34.0,15.0,-0.1220703050494194,-1.9531248807907104,35.7666015625,-0.453857421875,0.10888671875,-0.0887451171875
2.127,323,3147,1253,2409,-12.0,34.0,15.0,5.065917491912842,-9.70458984375,31.005857467651367,-0.417724609375,0.2659912109375,-0.0836181640625
2.135,328,3147,1452,2721,-12.0,34.0,15.0,2.868652105331421,-17.9443359375,14.648436546325684,-0.3699951171875,0.508544921875,-0.191650390625
2.148,334,3147,1742,3048,-12.0,34.0,15.0,-23.803709030151367,-28.259275436401367,-8.72802734375,-0.2119140625,0.74462890625,-0.276123046875
2.168,345,3147,2174,3147,-12.0,34.0,15.0,-81.97020721435547,-43.395992279052734,-35.09521484375,-0.013427734375,0.8157958984375,-0.32373046875
2.168,347,3147,2275,3147,-8.0,31.0,20.0,-155.09033203125,-54.382320404052734,-55.175777435302734,-0.011474609375,0.6175537109375,-0.3577880859375
2.173,346,3147,2295,3147,-8.0,31.0,20.0,-212.40232849121094,-52.490230560302734,-54.199214935302734,-0.146484375,-0.06005859375,-0.2587890625
2.187,353,3147,2510,3147,-8.0,31.0,20.0,-207.09226989746094,-38.75732421875,-42.602535247802734,-0.4261474609375,-1.17578125,-0.110107421875
2.195,354,3147,2698,3147,-8.0,31.0,20.0,-131.16455078125,-24.658201217651367,-35.2783203125,-0.8812255859375,-1.2886962890625,0.0743408203125
2.207,357,3147,2935,3147,-8.0,31.0,20.0,-52.062984466552734,-25.390623092651367,-16.11328125,-1.2431640625,0.0382080078125,0.13427734375
2.217,385,3147,3147,3147,-8.0,31.0,20.0,-16.2353515625,-33.14208984375,11.596678733825684,-1.545166015625,1.22509765625,-0.2474365234375
2.225,693,3147,3147,3147,-8.0,31.0,20.0,-9.21630859375,-34.7900390625,20.996091842651367,-1.993896484375,1.5863037109375,-0.7421875
2.233,711,3147,3147,3147,-8.0,31.0,20.0,-11.962889671325684,-18.5546875,15.136717796325684,-2.8828125,1.950439453125,-1.4539794921875
2.253,563,3147,3147,3147,-8.0,31.0,20.0,-22.644041061401367,11.657713890075684,7.873534679412842,-3.1861572265625,0.775634765625,-1.2314453125
2.271,419,3147,3147,3147,-8.0,31.0,20.0,-12.329100608825684,-6.835937023162842,-6.896972179412842,-1.9354248046875,-0.9794921875,0.5125732421875
2.272,359,3147,3147,3147,-3.0,32.0,19.0,47.058101654052734,-32.71484375,-9.94873046875,-0.829833984375,-0.3607177734375,0.7398681640625
2.277,356,3147,3147,3147,-3.0,32.0,19.0,101.86766815185547,-7.385253429412842,0.4882812201976776,-0.8299560546875,0.677734375,-0.6109619140625
2.286,361,3147,3147,3147,-3.0,32.0,19.0,83.74022674560547,13.305663108825684,-1.8310545682907104,-1.2069091796875,0.824951171875,-1.26171875
2.294,361,3147,3147,3147,-3.0,32.0,19.0,16.54052734375,10.437010765075684,-9.6435546875,-1.63623046875,0.9390869140625,-1.2835693359375
2.310,359,3147,3095,3147,-3.0,32.0,19.0,-41.931148529052734,-2.685546636581421,-14.099120140075684,-1.99658203125,1.0343017578125,-1.0872802734375
2.315,356,3147,3089,3147,-3.0,32.0,19.0,-71.6552734375,-18.85986328125,-18.73779296875,-2.03759765625,0.6314697265625,-0.65283203125
2.323,356,3147,2984,3147,-3.0,32.0,19.0,-69.88525390625,-29.785154342651367,-19.775390625,-1.7652587890625,0.22314453125,-0.152099609375
2.337,348,3147,2608,3147,-3.0,32.0,19.0,-43.579097747802734,-27.832029342651367,-12.573241233825684,-1.4637451171875,0.2659912109375,0.0728759765625
2.345,346,3147,2479,3147,-3.0,32.0,19.0,-9.1552734375,-14.892577171325684,-3.540038824081421,-1.2073974609375,0.4935302734375,-0.02001953125
2.375,344,3147,2244,3147,-3.0,32.0,19.0,16.2353515625,2.44140625,2.0751953125,-0.9281005859375,0.536376953125,-0.1021728515625
2.376,342,3147,2368,3147,-7.0,33.0,20.0,28.991697311401367,19.53125,2.50244140625,-0.6749267578125,0.29345703125,0.0218505859375
2.376,337,3147,2178,3084,-7.0,33.0,20.0,36.31591796875,33.8134765625,-1.8920897245407104,-0.507568359375,-0.1021728515625,0.28955078125
2.383,332,3147,1971,2584,-7.0,33.0,20.0,46.630855560302734,42.846675872802734,-6.591796398162842,-0.3870849609375,-0.471923828125,0.495849609375
2.397,331,3147,1874,1927,-7.0,33.0,20.0,67.2607421875,45.959468841552734,-5.126952648162842,-0.26513671875,-0.5113525390625,0.4158935546875
2.412,328,3147,1734,1306,-7.0,33.0,20.0,89.23339080810547,40.832515716552734,3.112792730331421,-0.1558837890625,-0.17333984375,0.2269287109375
2.413,326,3147,1534,897,-7.0,33.0,20.0,94.72655487060547,31.005857467651367,8.4228515625,-0.1910400390625,0.1263427734375,-0.0147705078125
2.427,324,3147,1241,603,-7.0,33.0,20.0,85.08300018310547,23.193357467651367,4.94384765625,-0.347412109375,0.1392822265625,-0.335205078125
2.435,318,3147,1155,514,-7.0,33.0,20.0,71.71630859375,19.775390625,2.01416015625,-0.4686279296875,0.097900390625,-0.5765380859375
2.444,313,3147,963,373,-7.0,33.0,20.0,64.8193359375,24.353025436401367,8.97216796875,-0.5765380859375,0.2333984375,-0.7122802734375
2.457,315,3056,883,347,-11.0,33.0,13.0,62.744136810302734,32.958984375,21.972654342651367,-0.6593017578125,0.425537109375,-0.6923828125
2.478,313,2930,897,348,-11.0,33.0,13.0,52.856441497802734,35.94970703125,31.372068405151367,-0.6595458984375,0.473388671875,-0.4971923828125
2.478,315,2896,893,348,-11.0,33.0,13.0,33.8134765625,30.334470748901367,32.53173828125,-0.632568359375,0.39404296875,-0.24755859375
2.487,316,3061,957,348,-11.0,33.0,13.0,19.95849609375,18.6767578125,27.954099655151367,-0.614013671875,0.365478515625,-0.106201171875
2.495,316,3094,966,351,-11.0,33.0,13.0,19.1650390625,5.432128429412842,21.057126998901367,-0.6168212890625,0.460693359375,-0.154052734375
2.503,315,3147,984,349,-11.0,33.0,13.0,22.949216842651367,-3.845214605331421,12.329100608825684,-0.6678466796875,0.573486328125,-0.3331298828125
2.521,315,3147,1014,364,-11.0,33.0,13.0,19.6533203125,-6.652831554412842,2.44140625,-0.7322998046875,0.560302734375,-0.4818115234375
2.525,316,3147,1058,445,-11.0,33.0,13.0,6.591796398162842,-5.371093273162842,-6.896972179412842,-0.770263671875,0.441162109375,-0.484375
2.533,315,3147,1063,533,-11.0,33.0,13.0,-9.46044921875,-3.173827886581421,-13.366698265075684,-0.784423828125,0.326171875,-0.379638671875
2.547,315,3147,1069,659,-11.0,33.0,13.0,-20.446775436401367,-1.3427733182907104,-15.991209983825684,-0.7877197265625,0.253173828125,-0.282958984375
2.555,318,3147,1120,785,-8.0,33.0,14.0,-24.414060592651367,0.4272460639476776,-15.686034202575684,-0.7940673828125,0.2041015625,-0.248779296875
2.581,317,3147,1215,912,-8.0,33.0,14.0,-24.414060592651367,0.4272460639476776,-15.686034202575684,-0.79052734375,0.16796875,-0.244384765625
2.581,319,3147,1239,1188,-8.0,33.0,14.0,-26.184080123901367,4.7607421875,-8.4228515625,-0.763916015625,0.143798828125,-0.2435302734375
2.585,318,3147,1268,1352,-8.0,33.0,14.0,-27.648923873901367,7.446288585662842,-2.38037109375,-0.716064453125,0.1202392578125,-0.240478515625
2.594,319,3147,1320,1551,-8.0,33.0,14.0,-27.648923873901367,7.446288585662842,-2.38037109375,-0.6619873046875,0.097900390625,-0.224853515625
2.608,321,3147,1352,1945,-8.0,33.0,14.0,-31.616209030151367,14.526366233825684,12.939452171325684,-0.6248779296875,0.0888671875,-0.1912841796875
2.616,321,3147,1382,2167,-8.0,33.0,14.0,-31.616209030151367,17.4560546875,21.545408248901367,-0.5914306640625,0.1138916015625,-0.160888671875
2.623,321,3147,1503,2417,-8.0,33.0,14.0,-31.616209030151367,17.4560546875,21.545408248901367,-0.5008544921875,0.188232421875,-0.1539306640625
2.637,325,3147,1669,2876,-8.0,33.0,14.0,-23.132322311401367,1.8920897245407104,23.803709030151367,-0.3070068359375,0.3072509765625,-0.1368408203125
2.645,330,3147,1860,3147,-8.0,33.0,14.0,-27.221677780151367,-21.667478561401367,7.324218273162842,-0.0380859375,0.4852294921875,-0.09619140625
2.653,332,3147,2024,3147,-10.0,33.0,19.0,-27.221677780151367,-21.667478561401367,7.324218273162842,0.142822265625,0.688232421875,-0.1444091796875
2.682,344,3147,2312,3147,-10.0,33.0,19.0,-85.87645721435547,-61.462398529052734,-40.466304779052734,0.1160888671875,0.5426025390625,-0.213623046875
2.683,342,3147,2435,3147,-10.0,33.0,19.0,-129.5166015625,-57.739253997802734,-38.0859375,-0.0457763671875,-0.0926513671875,-0.138427734375
2.683,346,3147,2472,3147,-10.0,33.0,19.0,-129.5166015625,-57.739253997802734,-38.0859375,-0.4755859375,-0.6005859375,-0.0025634765625
2.697,346,3147,2557,3147,-10.0,33.0,19.0,-90.82030487060547,-21.057126998901367,-24.536130905151367,-1.0556640625,-0.4617919921875,0.1114501953125
2.705,348,3147,2750,3147,-10.0,33.0,19.0,-48.767086029052734,-21.484373092651367,-19.22607421875,-1.4083251953125,0.2259521484375,-0.079345703125
2.720,354,3147,2899,3147,-10.0,33.0,19.0,-48.767086029052734,-21.484373092651367,-19.22607421875,-1.605712890625,0.898681640625,-0.601318359375
2.727,505,3147,3147,3147,-10.0,33.0,19.0,-21.972654342651367,-31.372068405151367,13.122557640075684,-1.8521728515625,1.126953125,-0.921142578125
2.735,673,3147,3147,3147,-10.0,33.0,19.0,-25.207517623901367,-25.512693405151367,12.817381858825684,-2.490478515625,1.5023193359375,-1.08154296875
2.744,648,3147,3147,3147,-10.0,33.0,19.0,-25.207517623901367,-25.512693405151367,12.817381858825684,-3.091796875,1.2110595703125,-1.080810546875
2.757,584,3147,3147,3147,-6.0,31.0,23.0,-32.40966796875,4.57763671875,11.718749046325684,-2.4354248046875,-0.2349853515625,-0.05224609375
2.765,415,3147,3147,3147,-6.0,31.0,23.0,16.4794921875,-10.498045921325684,-8.97216796875,-1.2122802734375,-0.4365234375,0.7657470703125
2.788,391,3147,3147,3147,-6.0,31.0,23.0,16.4794921875,-10.498045921325684,-8.97216796875,-1.2122802734375,-0.4365234375,0.7657470703125
2.788,456,3147,3147,3147,-6.0,31.0,23.0,75.25634765625,19.10400390625,-20.507810592651367,-1.25927734375,0.8670654296875,-0.93896484375
2.795,465,3147,3147,3147,-6.0,31.0,23.0,75.25634765625,19.10400390625,-20.507810592651367,-1.871826171875,0.770751953125,-1.2371826171875
2.805,388,3147,3147,3147,-6.0,31.0,23.0,35.46142578125,26.916501998901367,-24.963376998901367,-1.871826171875,0.770751953125,-1.2371826171875
2.822,351,3147,3137,3147,-6.0,31.0,23.0,-45.837398529052734,1.7700194120407104,-9.27734375,-2.08251953125,0.58544921875,-0.7174072265625
2.825,348,3147,3066,3147,-6.0,31.0,23.0,-45.837398529052734,1.7700194120407104,-9.27734375,-1.6685791015625,0.5341796875,-0.351806640625
2.833,346,3147,2957,3147,-6.0,31.0,23.0,-47.302242279052734,-10.131834983825684,-4.7607421875,-1.6685791015625,0.5341796875,-0.351806640625
2.849,344,3147,2590,3147,-5.0,30.0,14.0,-16.54052734375,2.197265625,-2.868652105331421,-1.032470703125,0.5614013671875,-0.1290283203125
2.857,342,3147,2322,3147,-5.0,30.0,14.0,-16.54052734375,2.197265625,-2.868652105331421,-0.8173828125,0.3458251953125,-0.0576171875
2.863,332,3147,2249,3147,-5.0,30.0,14.0,1.3427733182907104,16.9677734375,-2.01416015625,-0.8173828125,0.3458251953125,-0.0576171875
2.893,331,3147,2039,3105,-5.0,30.0,14.0,39.9169921875,36.7431640625,-7.141112804412842,-0.515869140625,-0.381591796875,0.40234375
2.893,332,3147,1897,2591,-5.0,30.0,14.0,39.9169921875,36.7431640625,-7.141112804412842,-0.362548828125,-0.583984375,0.4649658203125
2.894,331,3147,1803,2142,-5.0,30.0,14.0,59.631343841552734,38.4521484375,-10.437010765075684,-0.362548828125,-0.583984375,0.4649658203125
2.908,331,3147,1638,1104,-5.0,30.0,14.0,95.45897674560547,34.48486328125,5.676269054412842,-0.2412109375,-0.154541015625,0.0997314453125
2.922,322,3147,1401,571,-5.0,30.0,14.0,95.45897674560547,34.48486328125,5.676269054412842,-0.2930908203125,0.0782470703125,-0.2066650390625
2.923,316,3146,1251,359,-5.0,30.0,14.0,96.19139862060547,27.282712936401367,16.41845703125,-0.2930908203125,0.0782470703125,-0.2066650390625
2.937,315,2525,1018,347,-5.0,30.0,14.0,82.15331268310547,13.549803733825684,10.620116233825684,-0.3682861328125,0.2623291015625,-0.7313232421875
2.945,316,2259,946,346,-8.0,34.0,13.0,82.15331268310547,13.549803733825684,10.620116233825684,-0.4774169921875,0.5018310546875,-0.792236328125
2.955,315,2133,963,347,-8.0,34.0,13.0,75.0732421875,13.366698265075684,10.009765625,-0.4774169921875,0.5018310546875,-0.792236328125
2.969,316,2018,1034,346,-8.0,34.0,13.0,42.419429779052734,18.6767578125,21.728513717651367,-0.64208984375,0.6488037109375,-0.3746337890625
2.987,316,2047,1053,347,-8.0,34.0,13.0,42.419429779052734,18.6767578125,21.728513717651367,-0.667724609375,0.4122314453125,-0.0400390625
2.988,316,2194,1081,346,-8.0,34.0,13.0,15.502928733825684,12.207030296325684,25.390623092651367,-0.667724609375,0.4122314453125,-0.0400390625
2.999,316,2460,1064,348,-8.0,34.0,13.0,3.967284917831421,0.30517578125,28.869626998901367,-0.6241455078125,0.2327880859375,0.052001953125
3.005,316,2587,1083,342,-8.0,34.0,13.0,13.305663108825684,-11.474608421325684,30.456541061401367,-0.6241455078125,0.2327880859375,0.052001953125
3.013,316,2715,1078,347,-8.0,34.0,13.0,31.921384811401367,-15.808104515075684,28.564451217651367,-0.6715087890625,0.316162109375,-0.225341796875
3.027,318,2918,1095,347,-8.0,34.0,13.0,45.104976654052734,-11.779784202575684,25.390623092651367,-0.7633056640625,0.417724609375,-0.4847412109375
3.035,317,3024,1125,349,-8.0,34.0,13.0,44.921871185302734,-4.150390625,21.606443405151367,-0.7633056640625,0.417724609375,-0.4847412109375
3.043,317,3144,1138,351,-13.0,32.0,18.0,34.7900390625,3.051757574081421,16.17431640625,-0.773681640625,0.4029541015625,-0.400634765625
3.062,316,3147,1149,376,-13.0,32.0,18.0,22.644041061401367,6.164550304412842,9.33837890625,-0.7420654296875,0.35546875,-0.2808837890625
3.065,317,3147,1170,532,-13.0,32.0,18.0,9.3994140625,2.44140625,-1.03759765625,-0.7420654296875,0.35546875,-0.2808837890625
3.090,316,3147,1199,691,-13.0,32.0,18.0,-4.33349609375,-0.4882812201976776,-9.3994140625,-0.8673095703125,0.2386474609375,-0.27294921875
3.091,314,3147,1188,927,-13.0,32.0,18.0,-10.070799827575684,3.723144292831421,-5.126952648162842,-0.8004150390625,0.2313232421875,-0.3531494140625
3.095,315,3147,1163,1104,-13.0,32.0,18.0,-8.1787109375,8.36181640625,5.126952648162842,-0.8004150390625,0.2313232421875,-0.3531494140625
3.105,316,3147,1185,1201,-13.0,32.0,18.0,-9.46044921875,9.27734375,9.6435546875,-0.733154296875,0.281005859375,-0.37890625
3.117,316,3147,1239,1548,-13.0,32.0,18.0,-16.357421875,7.263183116912842,7.934569835662842,-0.7244873046875,0.21923828125,-0.2806396484375
3.125,316,3147,1292,1816,-13.0,32.0,18.0,-24.780271530151367,4.39453125,4.94384765625,-0.7244873046875,0.21923828125,-0.2806396484375
3.133,318,3147,1315,2047,-13.0,32.0,18.0,-30.761716842651367,1.15966796875,3.051757574081421,-0.702392578125,0.186767578125,-0.1917724609375
3.147,323,3147,1447,2492,-8.0,34.0,20.0,-29.357908248901367,-5.615233898162842,1.03759765625,-0.3851318359375,0.21533203125,-0.1240234375
3.155,323,3147,1536,2823,-8.0,34.0,20.0,-22.155759811401367,-20.080564498901367,-5.920409679412842,-0.3851318359375,0.21533203125,-0.1240234375
3.163,328,3147,1651,3147,-8.0,34.0,20.0,-18.12744140625,-41.198726654052734,-20.812986373901367,-0.125244140625,0.3212890625,-0.0479736328125
3.194,331,3147,1978,3147,-8.0,34.0,20.0,-24.108884811401367,-61.279293060302734,-40.832515716552734,0.1778564453125,0.474853515625,-0.0396728515625
3.195,334,3147,2087,3147,-8.0,34.0,20.0,-47.912593841552734,-70.25146484375,-56.457515716552734,0.1778564453125,0.474853515625,-0.0396728515625
3.196,338,3147,2202,3147,-8.0,34.0,20.0,-85.14403533935547,-67.56591796875,-53.527828216552734,0.1453857421875,0.138427734375,-0.0325927734375
3.212,329,3147,2243,3147,-8.0,34.0,20.0,-101.68456268310547,-57.189937591552734,-36.68212890625,-0.5367431640625,-0.693359375,-0.2833251953125
3.215,336,3147,2372,3147,-8.0,34.0,20.0,-76.904296875,-39.85595703125,-29.846189498901367,-0.5367431640625,-0.693359375,-0.2833251953125
3.230,344,3147,2601,3147,-8.0,34.0,20.0,-43.090816497802734,-29.113767623901367,-27.160642623901367,-1.104248046875,-0.0814208984375,-0.265625
3.237,351,3147,2955,3147,-5.0,33.0,19.0,-32.53173828125,-28.015134811401367,-11.718749046325684,-1.59130859375,0.8455810546875,-0.398193359375
3.245,519,3147,3147,3147,-5.0,33.0,19.0,-42.785640716552734,-27.954099655151367,2.0751953125,-2.0072021484375,1.1263427734375,-0.6085205078125
3.253,360,3147,3147,3147,-5.0,33.0,19.0,-59.753414154052734,-20.446775436401367,6.958007335662842,-2.7225341796875,1.69873046875,-1.1082763671875
3.267,416,3147,3147,3147,-5.0,33.0,19.0,-85.08300018310547,16.29638671875,15.686034202575684,-3.2789306640625,1.1151123046875,-1.433837890625
3.276,402,3147,3147,3147,-5.0,33.0,19.0,-76.7822265625,18.49365234375,5.615233898162842,-2.279541015625,-0.7767333984375,0.0372314453125
3.294,361,3147,3137,3147,-5.0,33.0,19.0,-2.01416015625,-17.88330078125,-15.624999046325684,-1.0103759765625,-0.6563720703125,1.195068359375
3.297,359,3147,3115,3147,-5.0,33.0,19.0,83.00780487060547,-11.901854515075684,-17.39501953125,-0.8162841796875,0.5076904296875,0.145263671875
3.307,361,3147,3147,3147,-5.0,33.0,19.0,109.86327362060547,14.892577171325684,-15.869139671325684,-1.1031494140625,0.833251953125,-1.0469970703125
3.321,360,3147,3147,3147,-5.0,33.0,19.0,68.7255859375,27.404783248901367,-16.7236328125,-1.6395263671875,0.8355712890625,-1.40478515625
3.334,356,3147,3015,3147,-5.0,33.0,19.0,2.44140625,22.277830123901367,-13.854979515075684,-2.0279541015625,0.8463134765625,-1.221435546875
3.335,356,3147,2949,3147,-5.0,31.0,21.0,-48.461910247802734,6.530761241912842,-10.253905296325684,-1.9573974609375,0.5732421875,-0.758056640625
3.343,351,3147,2769,3147,-5.0,31.0,21.0,-64.5751953125,-4.5166015625,-9.1552734375,-1.64501953125,0.3101806640625,-0.277587890625
3.357,348,3147,2463,3147,-5.0,31.0,21.0,-54.687496185302734,-1.220703125,-6.103515148162842,-1.3955078125,0.361328125,-0.023681640625
3.365,344,3147,2280,3147,-5.0,31.0,21.0,-36.62109375,12.512206077575684,-1.5258787870407104,-1.22021484375,0.4544677734375,-0.0093994140625
3.373,342,3147,2190,3147,-5.0,31.0,21.0,-16.90673828125,27.343748092651367,2.685546636581421,-1.01953125,0.3565673828125,-0.0147705078125
3.398,346,3147,2337,3147,-5.0,31.0,21.0,7.080077648162842,34.66796875,6.408690929412842,-0.7967529296875,0.0859375,0.08349609375
3.400,336,3147,2152,3147,-5.0,31.0,21.0,37.17041015625,31.372068405151367,6.591796398162842,-0.568115234375,-0.2271728515625,0.2376708984375
3.407,333,3147,1865,3147,-5.0,31.0,21.0,68.4814453125,21.545408248901367,4.0283203125,-0.349365234375,-0.4256591796875,0.305419921875
3.434,331,3147,1874,2790,-5.0,31.0,21.0,97.04589080810547,15.502928733825684,5.798339366912842,-0.204833984375,-0.3485107421875,0.161376953125
3.435,332,3147,1801,2465,-5.0,31.0,21.0,112.67089080810547,15.624999046325684,13.854979515075684,-0.15185546875,0.006591796875,-0.01318359375
3.436,330,3147,1785,2127,-9.0,34.0,19.0,101.62352752685547,15.686034202575684,20.874021530151367,-0.2430419921875,0.382568359375,-0.1182861328125
3.447,330,3147,1585,1727,-9.0,34.0,19.0,72.509765625,14.831542015075684,18.24951171875,-0.4288330078125,0.4300537109375,-0.2689208984375
3.455,326,3147,1508,1527,-9.0,34.0,19.0,47.119136810302734,14.587401390075684,8.30078125,-0.5340576171875,0.2464599609375,-0.4412841796875
3.463,324,3147,1462,1437,-9.0,34.0,19.0,34.85107421875,16.41845703125,2.3193359375,-0.56689453125,0.2244873046875,-0.551025390625
3.477,324,3147,1463,1137,-9.0,34.0,19.0,33.02001953125,18.24951171875,2.01416015625,-0.6256103515625,0.366455078125,-0.5560302734375
3.499,323,3147,1476,966,-9.0,34.0,19.0,30.883787155151367,15.991209983825684,1.03759765625,-0.7099609375,0.4029541015625,-0.4544677734375
3.499,325,3147,1452,855,-9.0,34.0,19.0,20.01953125,10.009765625,0.2441406100988388,-0.761474609375,0.288330078125,-0.3026123046875
3.507,323,3147,1450,667,-9.0,34.0,19.0,7.934569835662842,2.13623046875,3.479003667831421,-0.7601318359375,0.2127685546875,-0.1861572265625
3.515,324,3147,1437,625,-9.0,34.0,19.0,4.8828125,-6.042479991912842,7.873534679412842,-0.7548828125,0.24072265625,-0.1729736328125
3.523,324,3147,1434,621,-9.0,34.0,19.0,9.27734375,-12.573241233825684,8.85009765625,-0.7835693359375,0.2847900390625,-0.242431640625
3.545,323,3147,1452,548,-11.0,32.0,18.0,13.549803733825684,-15.319823265075684,7.202147960662842,-0.8275146484375,0.30908203125,-0.3292236328125
3.545,324,3147,1467,495,-11.0,32.0,18.0,14.343260765075684,-14.160155296325684,5.737304210662842,-0.8507080078125,0.3477783203125,-0.3770751953125
3.553,323,3147,1480,514,-11.0,32.0,18.0,10.925292015075684,-11.779784202575684,3.845214605331421,-0.845947265625,0.4002685546875,-0.363037109375
3.568,323,3147,1470,539,-11.0,32.0,18.0,3.662109136581421,-9.8876953125,-0.1831054538488388,-0.8218994140625,0.40185546875,-0.304931640625
3.575,321,3147,1464,678,-11.0,32.0,18.0,-4.21142578125,-8.11767578125,-5.310058116912842,-0.7879638671875,0.3177490234375,-0.2474365234375
3.583,323,3147,1470,780,-11.0,32.0,18.0,-9.27734375,-5.615233898162842,-8.11767578125,-0.7601318359375,0.213134765625,-0.2138671875
3.601,324,3147,1487,952,-11.0,32.0,18.0,-11.230467796325684,-2.3193359375,-6.225585460662842,-0.7528076171875,0.167236328125,-0.21044921875
3.605,324,3147,1480,1070,-11.0,32.0,18.0,-11.230467796325684,1.03759765625,-1.3427733182907104,-0.7550048828125,0.168701171875,-0.2286376953125
3.613,325,3147,1487,1241,-11.0,32.0,18.0,-11.840819358825684,3.479003667831421,3.356933355331421,-0.753662109375,0.1751708984375,-0.2431640625
3.627,326,3147,1488,1536,-11.0,32.0,18.0,-15.197752952575684,5.126952648162842,6.835937023162842,-0.7503662109375,0.18505859375,-0.24658203125
3.650,324,3147,1483,1757,-7.0,34.0,14.0,-19.59228515625,6.408690929412842,10.253905296325684,-0.733154296875,0.1973876953125,-0.2298583984375
3.651,326,3147,1474,1961,-7.0,34.0,14.0,-23.376462936401367,6.225585460662842,13.732909202575684,-0.6650390625,0.1807861328125,-0.1739501953125
3.657,323,3147,1508,2450,-7.0,34.0,14.0,-24.536130905151367,2.38037109375,15.502928733825684,-0.5447998046875,0.1435546875,-0.113037109375
3.665,329,3147,1592,2733,-7.0,34.0,14.0,-20.385740280151367,-5.493163585662842,14.038084983825684,-0.4390869140625,0.165771484375,-0.1055908203125
3.673,329,3147,1683,3000,-7.0,34.0,14.0,-12.512206077575684,-16.7236328125,8.48388671875,-0.302490234375,0.291015625,-0.1087646484375
3.687,330,3147,1994,3147,-7.0,34.0,14.0,-13.183592796325684,-31.860349655151367,-2.990722417831421,-0.0726318359375,0.44921875,-0.094482421875
3.705,334,3147,2066,3147,-7.0,34.0,14.0,-33.14208984375,-45.654293060302734,-17.7001953125,0.1217041015625,0.490478515625,-0.11962890625
3.705,338,3147,2176,3147,-7.0,34.0,14.0,-33.14208984375,-45.654293060302734,-17.7001953125,0.24365234375,0.3248291015625,-0.1142578125
3.717,331,3147,2407,3147,-7.0,34.0,14.0,-94.60448455810547,-52.307125091552734,-18.98193359375,0.21484375,0.0345458984375,-0.0643310546875
3.728,330,3147,2392,3147,-7.0,34.0,14.0,-96.00829315185547,-37.2314453125,-16.41845703125,-0.259765625,-0.3536376953125,-0.1085205078125
3.733,333,3147,2503,3147,-4.0,33.0,20.0,-96.00829315185547,-37.2314453125,-16.41845703125,-0.985107421875,-0.503173828125,-0.0323486328125
3.750,342,3147,2803,3147,-4.0,33.0,20.0,-47.546382904052734,-14.953612327575684,-22.155759811401367,-1.5274658203125,0.0208740234375,0.003173828125
3.758,344,3147,2939,3147,-4.0,33.0,20.0,-29.418943405151367,-21.606443405151367,-5.981444835662842,-1.8238525390625,0.689208984375,-0.3919677734375
3.763,348,3147,3147,3147,-4.0,33.0,20.0,-29.418943405151367,-21.606443405151367,-5.981444835662842,-2.1226806640625,1.027099609375,-0.8570556640625
3.777,468,3147,3147,3147,-4.0,33.0,20.0,-34.48486328125,-15.014647483825684,14.892577171325684,-2.9063720703125,1.7171630859375,-1.4752197265625
3.785,437,3147,3147,3147,-4.0,33.0,20.0,-69.9462890625,10.253905296325684,23.620603561401367,-3.1373291015625,0.7674560546875,-1.2821044921875
3.806,428,3147,3147,3147,-4.0,33.0,20.0,-69.9462890625,10.253905296325684,23.620603561401367,-1.87255859375,-0.9039306640625,0.466552734375
3.808,359,3147,3147,3147,-4.0,33.0,20.0,16.357421875,-31.677244186401367,-13.366698265075684,-0.767822265625,-0.2275390625,1.0858154296875
3.815,359,3147,3147,3147,-4.0,33.0,20.0,84.59471893310547,-13.122557640075684,-11.657713890075684,-0.746826171875,0.813720703125,-0.2322998046875
3.823,356,3147,3147,3147,-4.0,33.0,20.0,84.59471893310547,-13.122557640075684,-11.657713890075684,-1.1939697265625,0.8963623046875,-1.276611328125
3.837,364,3147,3147,3147,-6.0,30.0,18.0,55.603023529052734,-2.197265625,-25.207517623901367,-1.764404296875,0.7823486328125,-1.38623046875
3.853,354,3147,3147,3147,-6.0,30.0,18.0,10.681151390075684,-26.550291061401367,-28.259275436401367,-2.1517333984375,0.738525390625,-1.1014404296875
3.854,359,3147,3059,3147,-6.0,30.0,18.0,10.681151390075684,-26.550291061401367,-28.259275436401367,-2.042724609375,0.4642333984375,-0.6551513671875
3.870,347,3147,2959,3147,-6.0,30.0,18.0,-27.465818405151367,-64.27001953125,-25.878904342651367,-1.6136474609375,0.281005859375,-0.1710205078125
3.875,347,3147,2803,3147,-6.0,30.0,18.0,-16.357421875,-57.434078216552734,-20.446775436401367,-1.2706298828125,0.3739013671875,0.1541748046875
3.883,338,3147,2591,3147,-6.0,30.0,18.0,-16.357421875,-57.434078216552734,-20.446775436401367,-1.0523681640625,0.4228515625,0.238525390625
3.909,336,3147,2376,3147,-6.0,30.0,18.0,21.789548873901367,-19.53125,-13.671874046325684,-0.8563232421875,0.3553466796875,0.171875
3.910,344,3147,2312,3147,-6.0,30.0,18.0,35.09521484375,0.54931640625,-12.451170921325684,-0.6927490234375,0.2388916015625,0.144287109375
3.913,338,3147,2534,3147,-6.0,30.0,18.0,35.09521484375,0.54931640625,-12.451170921325684,-0.6927490234375,0.2388916015625,0.144287109375
3.927,333,3147,2210,3147,-4.0,30.0,19.0,42.419429779052734,34.72900390625,-19.53125,-0.5665283203125,-0.1343994140625,0.2381591796875
3.936,330,3147,2063,3098,-4.0,30.0,19.0,42.419429779052734,34.72900390625,-19.53125,-0.5562744140625,-0.2088623046875,0.095703125
3.957,330,3147,2049,2587,-4.0,30.0,19.0,45.654293060302734,45.837398529052734,-19.775390625,-0.5562744140625,-0.2088623046875,0.095703125
3.957,327,3147,1840,1411,-4.0,30.0,19.0,47.302242279052734,42.846675872802734,-10.253905296325684,-0.419921875,-0.0318603515625,-0.0863037109375
3.965,328,3147,1785,918,-4.0,30.0,19.0,47.302242279052734,42.846675872802734,-10.253905296325684,-0.4593505859375,-0.05810546875,-0.002685546875
3.973,329,3147,1786,687,-4.0,30.0,19.0,33.5693359375,29.541013717651367,-10.986327171325684,-0.4593505859375,-0.05810546875,-0.002685546875
3.987,327,2989,1704,359,-4.0,30.0,19.0,30.517576217651367,15.808104515075684,-7.019042491912842,-0.587646484375,-0.3133544921875,-0.1602783203125
4.012,324,2532,1572,357,-4.0,30.0,19.0,30.517576217651367,15.808104515075684,-7.019042491912842,-0.5703125,-0.1805419921875,-0.238037109375
4.012,310,1945,1454,343,-4.0,30.0,19.0,47.668453216552734,18.85986328125,9.521484375,-0.5703125,-0.1805419921875,-0.238037109375
4.018,316,1422,1160,333,-4.0,30.0,19.0,85.51024627685547,28.747556686401367,44.738765716552734,-0.564208984375,0.370849609375,-0.3199462890625
4.026,311,1519,1098,342,-8.0,33.0,17.0,85.51024627685547,28.747556686401367,44.738765716552734,-0.5660400390625,0.500732421875,-0.2884521484375
4.034,317,1534,1047,338,-8.0,33.0,17.0,88.13475799560547,28.442380905151367,49.743648529052734,-0.5660400390625,0.500732421875,-0.2884521484375
4.051,316,1837,1122,338,-8.0,33.0,17.0,66.46728515625,14.465331077575684,27.893064498901367,-0.689697265625,0.71923828125,-0.2459716796875
4.055,315,1970,1143,344,-8.0,33.0,17.0,66.46728515625,14.465331077575684,27.893064498901367,-0.7696533203125,0.8543701171875,-0.36669921875
4.064,315,2161,1163,344,-8.0,33.0,17.0,50.476070404052734,5.0048828125,15.380858421325684,-0.7696533203125,0.8543701171875,-0.36669921875
4.077,315,2379,1216,344,-8.0,33.0,17.0,-0.1220703050494194,-5.187987804412842,-4.7607421875,-0.818359375,0.4854736328125,-0.4405517578125
4.085,316,2490,1243,347,-8.0,33.0,17.0,-0.1220703050494194,-5.187987804412842,-4.7607421875,-0.80517578125,0.303466796875,-0.3826904296875
4.095,315,2648,1280,347,-8.0,33.0,17.0,-19.8974609375,-5.310058116912842,-10.803221702575684,-0.80517578125,0.303466796875,-0.3826904296875
4.110,318,3048,1397,348,-8.0,33.0,17.0,-31.494138717651367,-2.746581792831421,-14.038084983825684,-0.811279296875,0.180908203125,-0.2750244140625
4.115,318,3147,1409,354,-8.0,33.0,17.0,-31.494138717651367,-2.746581792831421,-14.038084983825684,-0.8243408203125,0.1641845703125,-0.253173828125
4.127,317,3147,1427,387,-10.0,30.0,19.0,-31.677244186401367,-1.4648436307907104,-11.840819358825684,-0.8243408203125,0.1641845703125,-0.253173828125
4.137,321,3147,1472,697,-10.0,30.0,19.0,-30.578611373901367,-0.1831054538488388,-6.958007335662842,-0.8201904296875,0.115966796875,-0.240478515625
4.153,318,3147,1464,859,-10.0,30.0,19.0,-29.174802780151367,0.9155272841453552,-0.54931640625,-0.8201904296875,0.115966796875,-0.240478515625
4.157,310,3147,1503,1079,-10.0,30.0,19.0,-28.198240280151367,2.197265625,6.774901866912842,-0.8092041015625,0.07568359375,-0.2021484375
4.172,323,3147,1523,1504,-10.0,30.0,19.0,-26.672361373901367,4.21142578125,15.258788108825684,-0.726806640625,0.0469970703125,-0.0924072265625
4.175,323,3147,1527,1761,-10.0,30.0,19.0,-24.108884811401367,7.263183116912842,25.085447311401367,-0.726806640625,0.0469970703125,-0.0924072265625
4.183,324,3147,1531,1996,-10.0,30.0,19.0,-21.301267623901367,10.925292015075684,35.09521484375,-0.6585693359375,0.0413818359375,-0.0867919921875
4.197,323,3147,1550,2418,-10.0,30.0,19.0,-17.9443359375,12.878417015075684,43.579097747802734,-0.459228515625,0.124755859375,-0.15283203125
4.216,326,3147,1611,2677,-10.0,30.0,19.0,-13.671874046325684,8.9111328125,48.583980560302734,-0.459228515625,0.124755859375,-0.15283203125
4.217,324,3147,1595,3008,-10.0,30.0,19.0,-10.803221702575684,-2.929687261581421,46.752925872802734,-0.2615966796875,0.2694091796875,-0.1048583984375
4.227,330,3147,2047,3147,-12.0,30.0,21.0,-12.268065452575684,-18.9208984375,34.48486328125,0.1787109375,0.8817138671875,-0.095947265625
4.235,336,3147,2430,3147,-12.0,30.0,21.0,-24.963376998901367,-32.16552734375,10.559081077575684,0.1787109375,0.8817138671875,-0.095947265625
4.244,338,3147,2662,3147,-12.0,30.0,21.0,-58.410640716552734,-36.9873046875,-19.95849609375,0.052734375,1.0379638671875,-0.2220458984375
4.261,344,3147,2581,3147,-12.0,30.0,21.0,-108.82567596435547,-34.66796875,-45.104976654052734,-0.7607421875,-0.9720458984375,-0.02392578125
4.265,344,3147,2676,3147,-12.0,30.0,21.0,-143.9208984375,-32.1044921875,-59.814449310302734,-0.7607421875,-0.9720458984375,-0.02392578125
4.283,346,3147,2782,3147,-12.0,30.0,21.0,-131.28662109375,-24.597166061401367,-55.786128997802734,-1.0184326171875,-1.52392578125,0.185791015625
4.287,352,3147,2965,3147,-12.0,30.0,21.0,-82.03124237060547,-9.33837890625,-25.695798873901367,-1.4903564453125,0.948486328125,-0.23828125
4.295,360,3147,3147,3147,-12.0,30.0,21.0,-39.794921875,3.906249761581421,10.803221702575684,-1.4903564453125,0.948486328125,-0.23828125
4.324,543,3147,3147,3147,-12.0,30.0,21.0,-30.578611373901367,9.521484375,25.756834030151367,-1.953125,1.6754150390625,-0.828857421875
4.324,495,3147,3147,3147,-4.0,32.0,20.0,-49.865718841552734,19.71435546875,21.362302780151367,-3.145751953125,0.7135009765625,-1.1541748046875
4.326,466,3147,3147,3147,-4.0,32.0,20.0,-77.392578125,39.4287109375,11.901854515075684,-3.145751953125,0.7135009765625,-1.1541748046875
4.334,369,3147,3147,3147,-4.0,32.0,20.0,-57.189937591552734,18.61572265625,-8.36181640625,-1.79296875,-1.02294921875,0.6968994140625
4.359,359,3147,3147,3147,-4.0,32.0,20.0,22.277830123901367,-5.126952648162842,-16.90673828125,-0.708740234375,-0.294189453125,1.049072265625
4.359,371,3147,3147,3147,-4.0,32.0,20.0,95.03173065185547,18.310546875,-8.544921875,-1.215087890625,0.8984375,-1.4163818359375
4.369,385,3147,3147,3147,-4.0,32.0,20.0,105.77391815185547,33.8134765625,-13.549803733825684,-1.215087890625,0.8984375,-1.4163818359375
4.373,363,3147,3147,3147,-4.0,32.0,20.0,57.617183685302734,21.057126998901367,-25.756834030151367,-1.6683349609375,0.789306640625,-1.456787109375
4.387,349,3147,3112,3147,-4.0,32.0,20.0,-5.371093273162842,-2.929687261581421,-29.968259811401367,-1.9769287109375,0.71728515625,-1.125244140625
4.397,351,3147,3147,3147,-4.0,32.0,20.0,-47.485347747802734,-24.353025436401367,-28.076169967651367,-1.959716796875,0.431396484375,-0.6611328125
4.403,354,3147,3144,3147,-4.0,32.0,20.0,-56.579586029052734,-37.59765625,-23.803709030151367,-1.6923828125,0.1446533203125,-0.181396484375
4.421,347,3147,2877,3147,-5.0,33.0,25.0,-41.931148529052734,-37.78076171875,-14.160155296325684,-1.431640625,0.1585693359375,0.0885009765625
4.425,347,3147,2587,3147,-5.0,33.0,25.0,-18.4326171875,-27.221677780151367,-2.746581792831421,-1.2540283203125,0.3687744140625,0.0709228515625
4.433,344,3147,2370,3147,-5.0,33.0,25.0,3.234863042831421,-12.207030296325684,2.807616949081421,-1.0921630859375,0.537353515625,-0.055908203125
4.451,334,3147,2308,3147,-5.0,33.0,25.0,16.357421875,2.807616949081421,-0.7934569716453552,-0.9388427734375,0.501708984375,-0.0877685546875
4.462,338,3147,2317,3147,-5.0,33.0,25.0,22.338865280151367,14.343260765075684,-10.131834983825684,-0.8065185546875,0.2523193359375,-0.015625
4.463,324,3147,2078,2695,-5.0,33.0,25.0,28.137205123901367,19.59228515625,-17.08984375,-0.636962890625,-0.105224609375,0.1011962890625
4.477,331,3147,1931,1744,-5.0,33.0,25.0,40.0390625,21.057126998901367,-14.892577171325684,-0.417236328125,-0.4271240234375,0.153076171875
4.490,330,3147,1867,1267,-5.0,33.0,25.0,60.363765716552734,24.108884811401367,-3.234863042831421,-0.2115478515625,-0.5107421875,0.1463623046875
4.493,324,3147,1904,893,-5.0,33.0,25.0,79.58984375,29.174802780151367,11.474608421325684,-0.13427734375,-0.2525634765625,0.174560546875
4.508,329,3044,1846,354,-5.0,33.0,25.0,84.35057830810547,35.94970703125,19.83642578125,-0.2498779296875,0.11865234375,0.0989990234375
4.515,324,2683,1766,355,-9.0,30.0,18.0,76.171875,41.442867279052734,14.587401390075684,-0.461669921875,0.2833251953125,-0.1424560546875
4.524,323,2158,1733,351,-9.0,30.0,18.0,65.5517578125,45.227046966552734,1.4648436307907104,-0.678955078125,0.2738037109375,-0.3515625
4.537,316,1343,1514,334,-9.0,30.0,18.0,57.922359466552734,49.072261810302734,-4.2724609375,-0.7799072265625,0.328125,-0.4019775390625
4.552,316,1050,1396,333,-9.0,30.0,18.0,52.734371185302734,49.621578216552734,-1.8310545682907104,-0.74462890625,0.409423828125,-0.3739013671875
4.569,317,739,1372,323,-9.0,30.0,18.0,47.973628997802734,46.997066497802734,-0.30517578125,-0.7357177734375,0.40576171875,-0.3660888671875
4.569,313,588,1278,323,-9.0,30.0,18.0,41.809078216552734,43.640132904052734,1.5869139432907104,-0.77001953125,0.3529052734375,-0.33935546875
4.575,314,530,1303,322,-9.0,30.0,18.0,34.1796875,39.0625,6.591796398162842,-0.76220703125,0.303466796875,-0.2784423828125
4.583,314,501,1287,317,-9.0,30.0,18.0,26.977537155151367,33.3251953125,10.803221702575684,-0.703857421875,0.27001953125,-0.2275390625
4.598,314,518,1289,322,-9.0,30.0,18.0,21.972654342651367,27.587888717651367,10.131834983825684,-0.6590576171875,0.236572265625,-0.200439453125
4.605,314,584,1308,323,-9.0,30.0,18.0,19.6533203125,24.169919967651367,6.713866710662842,-0.67431640625,0.2076416015625,-0.2191162109375
4.627,316,618,1330,323,-7.0,33.0,17.0,19.53125,24.597166061401367,6.408690929412842,-0.69921875,0.2022705078125,-0.2763671875
4.628,318,683,1370,323,-7.0,33.0,17.0,20.507810592651367,26.733396530151367,10.314940452575684,-0.6893310546875,0.2169189453125,-0.3341064453125
4.635,314,706,1399,324,-7.0,33.0,17.0,21.301267623901367,27.282712936401367,14.526366233825684,-0.6671142578125,0.2373046875,-0.362548828125
4.643,316,842,1426,325,-7.0,33.0,17.0,21.057126998901367,24.597166061401367,16.78466796875,-0.6395263671875,0.2584228515625,-0.367919921875
4.657,316,1129,1398,331,-7.0,33.0,17.0,18.24951171875,18.37158203125,17.08984375,-0.5631103515625,0.3016357421875,-0.367919921875
4.665,317,1862,1390,346,-7.0,33.0,17.0,8.72802734375,7.995604991912842,13.977049827575684,-0.5048828125,0.3033447265625,-0.3411865234375
4.673,318,2591,1328,346,-7.0,33.0,17.0,-7.446288585662842,-1.0986328125,10.192870140075684,-0.5399169921875,0.2197265625,-0.278076171875
4.687,316,3147,1243,558,-7.0,33.0,17.0,-20.629880905151367,-3.051757574081421,12.878417015075684,-0.61279296875,0.1644287109375,-0.249755859375
4.695,316,3147,1191,907,-7.0,33.0,17.0,-22.766111373901367,1.8310545682907104,22.277830123901367,-0.7032470703125,0.1990966796875,-0.3134765625
4.705,313,3147,1103,1184,-7.0,33.0,17.0,-17.333984375,9.3994140625,32.8369140625,-0.76611328125,0.2823486328125,-0.40478515625
4.728,308,3147,978,1641,-11.0,33.0,13.0,-15.808104515075684,12.084959983825684,37.90283203125,-0.7625732421875,0.3720703125,-0.4111328125
4.728,313,3147,946,1985,-11.0,33.0,13.0,-26.489255905151367,6.347655773162842,34.36279296875,-0.730712890625,0.4061279296875,-0.3179931640625
4.734,308,3147,972,2345,-11.0,33.0,13.0,-44.372554779052734,-3.906249761581421,26.367185592651367,-0.7059326171875,0.3570556640625,-0.1881103515625
4.748,313,3147,978,2872,-11.0,33.0,13.0,-55.969234466552734,-14.343260765075684,18.49365234375,-0.654296875,0.2886962890625,-0.0438232421875
4.755,310,3147,1022,3147,-11.0,33.0,13.0,-54.931636810302734,-29.968259811401367,7.080077648162842,-0.430419921875,0.2681884765625,0.1143798828125
4.777,318,3147,1366,3147,-11.0,33.0,13.0,-48.889156341552734,-59.326168060302734,-18.1884765625,-0.0487060546875,0.440185546875,0.22705078125
4.778,330,3147,2135,3147,-11.0,33.0,13.0,-53.649898529052734,-89.35546112060547,-57.983394622802734,0.0828857421875,0.857421875,0.0794677734375
4.785,342,3147,2296,3147,-11.0,33.0,13.0,-92.04100799560547,-89.05028533935547,-89.35546112060547,-0.323486328125,0.6685791015625,-0.24951171875
4.794,338,3147,2287,3147,-11.0,33.0,13.0,-154.4189453125,-68.42041015625,-83.00780487060547,-0.6729736328125,-0.90234375,-0.1845703125
4.809,347,3147,2240,3147,-2.0,33.0,18.0,-165.10008239746094,-51.208492279052734,-47.302242279052734,-0.663818359375,-1.99853515625,0.2088623046875
4.831,347,3147,2314,3147,-2.0,33.0,18.0,-96.49657440185547,-27.587888717651367,-11.352538108825684,-0.8402099609375,-1.0635986328125,0.322265625
4.831,351,3147,2345,3147,-2.0,33.0,18.0,-21.362302780151367,-5.126952648162842,16.11328125,-1.3201904296875,0.6832275390625,-0.2066650390625
4.837,363,3147,2820,3147,-2.0,33.0,18.0,-2.685546636581421,3.112792730331421,33.50830078125,-1.82421875,1.725830078125,-1.176513671875
4.845,364,3147,3006,3147,-2.0,33.0,18.0,-34.24072265625,3.784179449081421,32.958984375,-2.543701171875,2.2239990234375,-1.8695068359375
4.853,356,3147,2930,3147,-2.0,33.0,18.0,-34.24072265625,3.784179449081421,32.958984375,-3.232421875,1.643798828125,-1.5997314453125
4.870,360,3147,2676,3147,-2.0,33.0,18.0,-89.11132049560547,10.864256858825684,2.0751953125,-2.52392578125,-0.309326171875,0.1007080078125
4.875,359,3147,2555,3147,-2.0,33.0,18.0,-8.97216796875,-3.723144292831421,-21.179197311401367,-1.1983642578125,-0.80029296875,1.239990234375
4.884,351,3147,2484,3147,-2.0,33.0,18.0,-8.97216796875,-3.723144292831421,-21.179197311401367,-0.799560546875,0.286376953125,0.36865234375
4.898,348,3147,2557,3147,-2.0,33.0,18.0,112.06053924560547,33.14208984375,-17.333984375,-1.09375,0.859619140625,-0.96484375
4.905,351,3147,2567,3147,-5.0,33.0,25.0,79.52880859375,36.865234375,-22.827146530151367,-1.6881103515625,0.9541015625,-1.710205078125
4.915,351,3147,2510,3147,-5.0,33.0,25.0,79.52880859375,36.865234375,-22.827146530151367,-2.1253662109375,0.8985595703125,-1.708740234375
4.933,355,3147,2415,3147,-5.0,33.0,25.0,-42.358394622802734,-12.084959983825684,-26.062009811401367,-2.1016845703125,0.5357666015625,-1.1519775390625
4.935,355,3147,2456,3147,-5.0,33.0,25.0,-62.133785247802734,-37.59765625,-22.277830123901367,-1.7822265625,0.06982421875,-0.4600830078125
4.943,354,3147,2372,3147,-5.0,33.0,25.0,-62.133785247802734,-37.59765625,-22.277830123901367,-1.4737548828125,-0.0203857421875,-0.0379638671875
4.957,334,3147,2114,3147,-5.0,33.0,25.0,-11.413573265075684,-43.884273529052734,0.7324218153953552,-1.211669921875,0.25,-0.0035400390625
5.002,336,3147,1974,3147,-5.0,33.0,25.0,14.160155296325684,-33.75244140625,11.047362327575684,-0.9468994140625,0.4444580078125,-0.088623046875
5.002,323,3147,1925,3147,-5.0,33.0,25.0,14.160155296325684,-33.75244140625,11.047362327575684,-0.73681640625,0.3486328125,-0.071533203125
5.002,321,3147,1843,3147,-5.0,33.0,25.0,34.36279296875,-13.916014671325684,4.82177734375,-0.6195068359375,0.1181640625,0.039306640625
5.002,333,3147,1656,3086,-5.0,33.0,25.0,36.80419921875,-6.896972179412842,-2.197265625,-0.5098876953125,-0.0877685546875,0.1734619140625
5.003,316,3147,1613,2467,-4.0,32.0,24.0,36.80419921875,-6.896972179412842,-2.197265625,-0.3299560546875,-0.2403564453125,0.2152099609375
5.041,327,3147,1574,1822,-4.0,32.0,24.0,44.616695404052734,9.3994140625,-6.347655773162842,-0.1407470703125,-0.242431640625,0.217529296875
5.041,328,3147,1560,1138,-4.0,32.0,24.0,41.381832122802734,20.324705123901367,-4.5166015625,-0.12060546875,-0.01953125,0.2261962890625
5.041,327,3147,1501,689,-4.0,32.0,24.0,41.381832122802734,20.324705123901367,-4.5166015625,-0.27001953125,0.1810302734375,0.13818359375
5.042,323,3147,1483,495,-4.0,32.0,24.0,24.108884811401367,28.808591842651367,-6.591796398162842,-0.27001953125,0.1810302734375,0.13818359375
5.058,325,3065,1488,351,-4.0,32.0,24.0,-0.1220703050494194,27.465818405151367,-23.010251998901367,-0.5543212890625,0.165283203125,-0.1708984375
5.071,324,2890,1417,348,-4.0,32.0,24.0,-0.1220703050494194,27.465818405151367,-23.010251998901367,-0.61083984375,0.2421875,-0.2191162109375
5.072,323,2721,1365,351,-4.0,32.0,24.0,5.920409679412842,25.390623092651367,-19.8974609375,-0.61083984375,0.2421875,-0.2191162109375
5.086,321,2563,1271,347,-4.0,32.0,24.0,24.597166061401367,27.038572311401367,6.164550304412842,-0.681884765625,0.434814453125,-0.3043212890625
5.095,321,2723,1251,354,-4.0,32.0,24.0,24.597166061401367,27.038572311401367,6.164550304412842,-0.6690673828125,0.430419921875,-0.270751953125
5.102,323,2901,1274,356,-6.0,33.0,18.0,27.587888717651367,24.353025436401367,14.892577171325684,-0.6690673828125,0.430419921875,-0.270751953125
5.116,322,3073,1271,355,-6.0,33.0,18.0,17.08984375,7.446288585662842,12.145995140075684,-0.6904296875,0.36279296875,-0.2762451171875
5.144,323,3147,1283,360,-6.0,33.0,18.0,17.08984375,7.446288585662842,12.145995140075684,-0.7498779296875,0.3583984375,-0.352294921875
5.144,308,3147,1315,369,-6.0,33.0,18.0,11.779784202575684,2.197265625,7.995604991912842,-0.7498779296875,0.3583984375,-0.352294921875
5.146,323,3147,1340,533,-6.0,33.0,18.0,1.6479490995407104,2.868652105331421,4.2724609375,-0.8026123046875,0.2860107421875,-0.3809814453125
5.155,323,3147,1353,590,-6.0,33.0,18.0,1.6479490995407104,2.868652105331421,4.2724609375,-0.8170166015625,0.2635498046875,-0.331298828125
5.162,324,3147,1390,763,-6.0,33.0,18.0,-5.493163585662842,4.8828125,3.234863042831421,-0.8170166015625,0.2635498046875,-0.331298828125
5.177,324,3147,1397,933,-6.0,33.0,18.0,-10.803221702575684,6.225585460662842,2.807616949081421,-0.8306884765625,0.2071533203125,-0.2352294921875
5.184,328,3147,1388,1098,-6.0,33.0,18.0,-12.634276390075684,5.920409679412842,3.540038824081421,-0.8306884765625,0.2071533203125,-0.2352294921875
5.192,322,3147,1375,1283,-6.0,33.0,18.0,-12.268065452575684,4.21142578125,6.286620616912842,-0.8277587890625,0.1649169921875,-0.2030029296875
5.206,323,3147,1383,1514,-8.0,32.0,13.0,-10.864256858825684,2.01416015625,11.047362327575684,-0.8048095703125,0.13671875,-0.19091796875
5.214,323,3147,1375,1689,-8.0,32.0,13.0,-8.85009765625,0.1220703050494194,16.357421875,-0.8048095703125,0.13671875,-0.19091796875
5.222,323,3147,1365,1856,-8.0,32.0,13.0,-6.408690929412842,-1.03759765625,20.446775436401367,-0.7816162109375,0.1578369140625,-0.218505859375
5.243,313,3147,1312,2176,-8.0,32.0,13.0,-5.187987804412842,-1.0986328125,22.521970748901367,-0.68798828125,0.20068359375,-0.2198486328125
5.244,316,3147,1330,2386,-8.0,32.0,13.0,-5.981444835662842,-1.5869139432907104,22.399900436401367,-0.68798828125,0.20068359375,-0.2198486328125
5.252,323,3147,1284,2658,-8.0,32.0,13.0,-5.615233898162842,-5.432128429412842,19.10400390625,-0.5849609375,0.13818359375,-0.1240234375
5.266,318,3147,1294,3125,-8.0,32.0,13.0,-2.197265625,-12.817381858825684,13.549803733825684,-0.2259521484375,0.2332763671875,-0.0201416015625
5.280,321,3147,1336,3147,-8.0,32.0,13.0,-0.2441406100988388,-20.751951217651367,8.48388671875,-0.2259521484375,0.2332763671875,-0.0201416015625
5.282,327,3147,1568,3147,-8.0,32.0,13.0,-9.58251953125,-26.062009811401367,4.21142578125,-0.0782470703125,0.556396484375,-0.0540771484375
5.296,333,3147,1981,3147,-5.0,30.0,18.0,-36.9873046875,-27.832029342651367,-0.3662109076976776,-0.2314453125,0.48974609375,-0.080810546875
5.304,334,3147,2035,3147,-5.0,30.0,18.0,-76.7822265625,-28.625486373901367,-6.652831554412842,-0.2314453125,0.48974609375,-0.080810546875
5.312,334,3147,2041,3147,-5.0,30.0,18.0,-107.66600799560547,-29.541013717651367,-17.08984375,-0.473388671875,-0.3759765625,0.103271484375
5.346,344,3147,2217,3147,-5.0,30.0,18.0,-101.92870330810547,-26.977537155151367,-25.146482467651367,-0.8021240234375,-0.623779296875,0.34033203125
5.346,338,3147,2275,3147,-5.0,30.0,18.0,-57.739253997802734,-16.54052734375,-18.310546875,-0.8021240234375,-0.623779296875,0.34033203125
5.347,337,3147,2375,3147,-5.0,30.0,18.0,-5.493163585662842,-2.807616949081421,0.0,-1.171142578125,0.272216796875,-0.158203125
5.356,348,3147,2921,3147,-5.0,30.0,18.0,19.83642578125,5.187987804412842,16.29638671875,-2.2744140625,1.746337890625,-1.654052734375
5.366,359,3147,3003,3147,-5.0,30.0,18.0,6.774901866912842,4.5166015625,20.690916061401367,-2.2744140625,1.746337890625,-1.654052734375
5.372,359,3147,3000,3147,-5.0,30.0,18.0,-42.297359466552734,12.939452171325684,23.376462936401367,-3.0732421875,1.829345703125,-1.841064453125
5.386,349,3147,2867,3147,-5.0,30.0,18.0,-83.31298065185547,20.202634811401367,20.568845748901367,-2.6524658203125,0.158935546875,-0.4915771484375
5.394,348,3147,2760,3147,-6.0,32.0,14.0,-44.616695404052734,3.417968511581421,1.4038084745407104,-1.3704833984375,-0.94384765625,1.1236572265625
5.402,346,3147,2683,3147,-6.0,32.0,14.0,42.907711029052734,2.990722417831421,-4.8828125,-0.83935546875,-0.0811767578125,0.66357421875
5.416,354,3147,2679,3147,-6.0,32.0,14.0,97.35106658935547,20.996091842651367,-0.7934569716453552,-0.9005126953125,0.7691650390625,-0.774658203125
5.424,353,3147,2672,3147,-6.0,32.0,14.0,92.89550018310547,19.775390625,-12.634276390075684,-1.2242431640625,1.0775146484375,-1.5225830078125
5.458,354,3147,2672,3147,-6.0,32.0,14.0,46.325679779052734,-0.7324218153953552,-30.944822311401367,-1.6458740234375,1.0247802734375,-1.4560546875
5.459,348,3147,2621,3147,-6.0,32.0,14.0,-8.6669921875,-26.489255905151367,-40.405269622802734,-1.954833984375,0.72216796875,-1.0654296875
5.459,347,3147,2541,3147,-6.0,32.0,14.0,-45.410152435302734,-45.837398529052734,-37.9638671875,-1.921875,0.2694091796875,-0.552734375
5.462,348,3147,2541,3147,-6.0,32.0,14.0,-52.978511810302734,-52.734371185302734,-27.465818405151367,-1.659912109375,0.04248046875,-0.1387939453125
5.476,346,3147,2341,3147,-6.0,32.0,14.0,-40.161128997802734,-46.813961029052734,-14.160155296325684,-1.3614501953125,0.152099609375,0.0457763671875
5.485,344,3147,2212,3147,-6.0,32.0,14.0,-22.521970748901367,-33.50830078125,-4.0283203125,-1.0670166015625,0.3741455078125,0.0413818359375
5.492,338,3147,2065,3147,-6.0,33.0,16.0,-8.9111328125,-15.197752952575684,0.4882812201976776,-0.7943115234375,0.488037109375,0.006103515625
5.506,334,3147,1973,3147,-6.0,33.0,16.0,-0.9155272841453552,5.798339366912842,-1.4648436307907104,-0.6275634765625,0.4156494140625,0.05859375
5.514,336,3147,1949,3147,-6.0,33.0,16.0,4.150390625,25.329587936401367,-8.30078125,-0.5849609375,0.1820068359375,0.1573486328125
5.522,338,3147,1927,3147,-6.0,33.0,16.0,10.070799827575684,37.59765625,-14.160155296325684,-0.5538330078125,-0.1273193359375,0.26904296875
5.563,332,3147,1757,3076,-6.0,33.0,16.0,22.155759811401367,42.480464935302734,-15.380858421325684,-0.4698486328125,-0.3348388671875,0.2841796875
5.564,332,3147,1759,2801,-6.0,33.0,16.0,40.710445404052734,45.898433685302734,-10.986327171325684,-0.3779296875,-0.2515869140625,0.1524658203125
5.565,334,3147,1719,2557,-6.0,33.0,16.0,53.649898529052734,47.546382904052734,-2.746581792831421,-0.304443359375,0.032470703125,-0.0008544921875
5.566,316,3147,1695,2260,-6.0,33.0,16.0,50.170894622802734,42.602535247802734,0.9765624403953552,-0.3302001953125,0.2369384765625,-0.1231689453125
5.574,334,3147,1676,2142,-6.0,33.0,16.0,33.75244140625,32.2265625,-3.723144292831421,-0.479736328125,0.2725830078125,-0.2432861328125
5.590,330,3147,1640,2035,-6.0,33.0,16.0,17.51708984375,20.935056686401367,-8.72802734375,-0.6336669921875,0.2530517578125,-0.383544921875
5.596,328,3147,1572,1880,-4.0,32.0,17.0,11.352538108825684,12.451170921325684,-7.263183116912842,-0.7135009765625,0.2772216796875,-0.4847412109375
5.604,326,3147,1523,1861,-4.0,32.0,17.0,13.366698265075684,6.164550304412842,-3.295898199081421,-0.7244873046875,0.3115234375,-0.4681396484375
5.612,326,3147,1516,1798,-4.0,32.0,17.0,14.648436546325684,0.2441406100988388,-2.197265625,-0.7225341796875,0.326904296875,-0.3555908203125
5.677,328,3147,1490,1704,-4.0,32.0,17.0,12.084959983825684,-5.432128429412842,-4.0283203125,-0.7447509765625,0.3201904296875,-0.239990234375
5.678,328,3147,1499,1669,-4.0,32.0,17.0,8.9111328125,-10.131834983825684,-6.286620616912842,-0.78125,0.285400390625,-0.17724609375
5.679,328,3147,1463,1669,-4.0,32.0,17.0,6.652831554412842,-12.695311546325684,-7.019042491912842,-0.8043212890625,0.25244140625,-0.161865234375
5.680,318,3147,1502,1693,-4.0,32.0,17.0,4.2724609375,-13.061522483825684,-5.920409679412842,-0.8165283203125,0.248779296875,-0.1561279296875
5.680,318,3147,1447,1730,-4.0,32.0,17.0,2.746581792831421,-10.864256858825684,-3.112792730331421,-0.8343505859375,0.2718505859375,-0.18701171875
5.682,323,3147,1424,1766,-4.0,32.0,17.0,2.929687261581421,-6.591796398162842,0.6103515625,-0.853759765625,0.29052734375,-0.2371826171875
5.719,323,3147,1383,1792,-4.0,34.0,18.0,3.234863042831421,-2.3193359375,3.540038824081421,-0.865478515625,0.2686767578125,-0.2227783203125
5.723,324,3147,1372,1810,-4.0,34.0,18.0,2.13623046875,2.3193359375,5.187987804412842,-0.865234375,0.218994140625,-0.187744140625
5.726,322,3147,1370,1862,-4.0,34.0,18.0,-0.4272460639476776,7.629394054412842,6.713866710662842,-0.8543701171875,0.177734375,-0.1741943359375
5.727,324,3147,1274,1981,-4.0,34.0,18.0,-2.746581792831421,12.695311546325684,9.033203125,-0.8343505859375,0.1580810546875,-0.175537109375
5.727,316,3147,1262,2041,-4.0,34.0,18.0,-2.807616949081421,17.578125,12.634276390075684,-0.8099365234375,0.15576171875,-0.19873046875
5.732,323,3147,1224,2124,-4.0,34.0,18.0,-1.4648436307907104,21.972654342651367,17.88330078125,-0.78466796875,0.152587890625,-0.2288818359375
5.754,316,3147,1185,2240,-4.0,34.0,18.0,-0.6103515625,25.451658248901367,24.414060592651367,-0.7491455078125,0.1474609375,-0.240478515625
5.754,319,3147,1163,2435,-4.0,34.0,18.0,-1.3427733182907104,28.320310592651367,31.127927780151367,-0.6976318359375,0.14794921875,-0.2064208984375
5.768,315,3147,1108,2613,-4.0,34.0,18.0,-2.746581792831421,30.029294967651367,36.43798828125,-0.635498046875,0.1494140625,-0.13427734375
5.776,319,3147,1042,2981,-4.0,34.0,18.0,-0.0610351525247097,28.686521530151367,39.36767578125,-0.5494384765625,0.15673828125,-0.0653076171875
5.827,318,3147,1081,3147,-9.0,33.0,18.0,10.559081077575684,20.629880905151367,39.0625,-0.3994140625,0.1844482421875,-0.011474609375
5.831,319,3147,1155,3147,-9.0,33.0,18.0,27.587888717651367,2.990722417831421,33.38623046875,-0.157470703125,0.30712890625,0.0184326171875
5.841,324,3147,1577,3147,-9.0,33.0,18.0,38.9404296875,-21.118162155151367,17.7001953125,0.162109375,0.622802734375,-0.0704345703125
5.841,337,3147,1933,3147,-9.0,33.0,18.0,17.4560546875,-39.12353515625,-6.347655773162842,0.2720947265625,0.904541015625,-0.2713623046875
5.842,346,3147,2119,3147,-9.0,33.0,18.0,-48.583980560302734,-43.029781341552734,-24.719236373901367,-0.031494140625,0.5738525390625,-0.32421875
5.842,346,3147,2172,3147,-9.0,33.0,18.0,-116.51610565185547,-40.588375091552734,-30.151365280151367,-0.48828125,-0.495361328125,-0.1148681640625
5.859,348,3147,2217,3147,-9.0,33.0,18.0,-124.20653533935547,-37.04833984375,-27.648923873901367,-0.824951171875,-1.1759033203125,0.0975341796875
5.859,357,3147,2412,3147,-9.0,33.0,18.0,-71.8994140625,-32.470703125,-15.441893577575684,-1.037353515625,-0.5924072265625,0.0118408203125
5.867,362,3147,2695,3147,-9.0,33.0,18.0,-20.141599655151367,-29.296873092651367,4.638671875,-1.33642578125,0.66455078125,-0.515380859375
5.874,361,3147,3023,3147,-9.0,33.0,18.0,-17.39501953125,-26.428220748901367,20.141599655151367,-1.7978515625,1.536865234375,-1.1728515625
5.882,382,3147,3102,3147,-5.0,30.0,20.0,-17.39501953125,-26.428220748901367,20.141599655151367,-2.538818359375,1.908203125,-1.3880615234375
5.900,872,3147,2587,3147,-5.0,30.0,20.0,-90.39305877685547,-10.009765625,31.494138717651367,-3.2647705078125,1.26220703125,-0.9981689453125
5.904,603,3147,2807,3147,-5.0,30.0,20.0,-73.18115234375,-3.601073980331421,28.930662155151367,-2.5938720703125,-0.5440673828125,0.37158203125
5.912,445,3147,2738,3147,-5.0,30.0,20.0,-73.18115234375,-3.601073980331421,28.930662155151367,-1.2239990234375,-0.7938232421875,1.1324462890625
5.926,390,3147,2543,3147,-5.0,30.0,20.0,88.31786346435547,4.69970703125,-1.6479490995407104,-0.704345703125,0.5552978515625,0.1456298828125
5.934,497,3147,2563,3147,-5.0,30.0,20.0,102.47801971435547,30.151365280151367,-8.056640625,-0.8692626953125,1.187255859375,-0.9471435546875
5.963,513,3147,2643,3147,-5.0,30.0,20.0,102.47801971435547,30.151365280151367,-8.056640625,-1.4176025390625,1.0772705078125,-1.361083984375
5.965,2007,3147,991,3147,-5.0,30.0,20.0,0.4272460639476776,23.742673873901367,-29.724119186401367,-1.9385986328125,0.8173828125,-1.250732421875
5.965,2579,3147,651,2271,-5.0,30.0,20.0,-35.09521484375,1.4038084745407104,-25.573728561401367,-2.0828857421875,0.50732421875,-0.868408203125
5.998,2225,3147,1029,3147,-5.0,30.0,20.0,-35.09521484375,1.4038084745407104,-25.573728561401367,-1.81689453125,0.2347412109375,-0.3985595703125
5.999,1526,3147,711,2898,-2.0,30.0,16.0,-34.60693359375,-16.9677734375,-9.58251953125,-1.421630859375,0.179931640625,-0.0703125
5.999,2217,3147,347,2337,-2.0,30.0,16.0,-16.05224609375,-7.141112804412842,-2.746581792831421,-1.09716796875,0.320556640625,-0.0364990234375
6.003,2052,3147,354,816,-2.0,30.0,16.0,-16.05224609375,-7.141112804412842,-2.746581792831421,-0.82861328125,0.443115234375,-0.11328125
6.016,1801,3147,523,2007,-2.0,30.0,16.0,9.1552734375,20.01953125,2.685546636581421,-0.6463623046875,0.3563232421875,-0.078857421875
6.024,1163,3147,1047,3147,-2.0,30.0,16.0,13.732909202575684,30.273435592651367,-1.9531248807907104,-0.5919189453125,0.10400390625,0.030517578125
6.032,1043,3147,1220,3112,-2.0,30.0,16.0,13.732909202575684,30.273435592651367,-1.9531248807907104,-0.569091796875,-0.18017578125,0.156005859375
6.058,749,3147,1447,2701,-2.0,30.0,16.0,26.611326217651367,37.41455078125,-9.70458984375,-0.5174560546875,-0.2957763671875,0.1617431640625
6.059,1700,3147,842,469,-2.0,30.0,16.0,44.921871185302734,38.4521484375,-7.080077648162842,-0.4541015625,-0.139404296875,0.065673828125
6.063,1452,3147,1437,2021,-2.0,30.0,16.0,44.921871185302734,38.4521484375,-7.080077648162842,-0.4146728515625,0.1390380859375,0.015625
6.076,1656,3147,310,328,-2.0,30.0,16.0,60.058589935302734,32.2265625,2.38037109375,-0.463134765625,0.2406005859375,-0.0159912109375
6.102,1143,3147,1474,1093,-5.0,29.0,17.0,60.058589935302734,32.2265625,2.38037109375,-0.577392578125,0.117919921875,-0.068359375
6.103,1282,3147,986,739,-5.0,29.0,17.0,54.565425872802734,26.245115280151367,1.03759765625,-0.577392578125,0.117919921875,-0.068359375
6.111,1488,3147,309,313,-5.0,29.0,17.0,51.147457122802734,17.39501953125,6.469726085662842,-0.671142578125,0.210205078125,-0.226318359375
6.114,1003,3147,780,428,-5.0,29.0,17.0,51.147457122802734,17.39501953125,6.469726085662842,-0.66064453125,0.3792724609375,-0.307861328125
6.124,361,3147,1362,355,-5.0,29.0,17.0,57.800289154052734,10.864256858825684,9.46044921875,-0.66064453125,0.3792724609375,-0.307861328125
6.136,1079,3094,309,308,-5.0,29.0,17.0,59.509273529052734,4.94384765625,7.995604991912842,-0.765625,0.311767578125,-0.325927734375
6.144,388,2968,1231,352,-5.0,29.0,17.0,59.509273529052734,4.94384765625,7.995604991912842,-0.771484375,0.35400390625,-0.3201904296875
6.161,458,2810,1160,349,-5.0,29.0,17.0,55.053707122802734,8.1787109375,17.333984375,-0.771484375,0.35400390625,-0.3201904296875
6.166,1116,2850,310,334,-5.0,29.0,17.0,46.813961029052734,7.751464366912842,26.855466842651367,-0.72265625,0.2823486328125,-0.29541015625
6.174,1054,2981,310,309,-5.0,29.0,17.0,46.813961029052734,7.751464366912842,26.855466842651367,-0.71337890625,0.2054443359375,-0.3160400390625
6.184,759,3072,321,308,-9.0,32.0,17.0,42.846675872802734,7.568358898162842,26.245115280151367,-0.71337890625,0.2054443359375,-0.3160400390625
6.205,371,3147,1133,347,-9.0,32.0,17.0,46.325679779052734,9.46044921875,25.146482467651367,-0.746826171875,0.3355712890625,-0.449462890625
6.207,347,3147,1178,382,-9.0,32.0,17.0,46.325679779052734,9.46044921875,25.146482467651367,-0.7711181640625,0.345458984375,-0.444091796875
6.212,342,3147,1191,473,-9.0,32.0,17.0,45.349117279052734,10.009765625,23.376462936401367,-0.7711181640625,0.345458984375,-0.444091796875
6.226,398,3147,1173,644,-9.0,32.0,17.0,30.761716842651367,11.413573265075684,22.460935592651367,-0.77587890625,0.2808837890625,-0.3355712890625
6.238,414,3147,1151,738,-9.0,32.0,17.0,30.761716842651367,11.413573265075684,22.460935592651367,-0.672607421875,0.358642578125,-0.3565673828125
6.242,561,3147,864,813,-9.0,32.0,17.0,22.155759811401367,9.21630859375,20.507810592651367,-0.672607421875,0.358642578125,-0.3565673828125
6.273,359,3147,1178,1093,-9.0,32.0,17.0,-18.5546875,-3.112792730331421,-4.33349609375,-0.8060302734375,0.21044921875,-0.2962646484375
6.310,334,3147,1183,1276,-9.0,32.0,17.0,-18.5546875,-3.112792730331421,-4.33349609375,-0.84423828125,0.12109375,-0.232666015625
6.310,344,3147,1167,1468,-9.0,32.0,17.0,-23.986814498901367,-0.1831054538488388,-0.7934569716453552,-0.84423828125,0.12109375,-0.232666015625
6.317,1202,3147,625,1202,-7.0,33.0,15.0,2.929687261581421,8.85009765625,22.644041061401367,-0.657470703125,0.1844482421875,-0.1829833984375
6.318,1034,3147,363,1959,-7.0,33.0,15.0,2.929687261581421,8.85009765625,22.644041061401367,-0.5430908203125,0.205078125,-0.1715087890625
6.320,344,3147,1157,2296,-7.0,33.0,15.0,7.934569835662842,6.408690929412842,25.024412155151367,-0.5430908203125,0.205078125,-0.1715087890625
6.320,305,3147,1156,2710,-7.0,33.0,15.0,5.615233898162842,-0.0610351525247097,21.484373092651367,-0.3570556640625,0.38232421875,-0.249755859375
6.324,314,3147,1104,3025,-7.0,33.0,15.0,-2.25830078125,-9.46044921875,15.380858421325684,-0.3570556640625,0.38232421875,-0.249755859375
6.332,315,3147,1131,3147,-7.0,33.0,15.0,-18.85986328125,-23.742673873901367,5.371093273162842,-0.128662109375,0.5009765625,-0.201171875
6.348,334,3147,1677,3147,-7.0,33.0,15.0,-42.480464935302734,-41.442867279052734,-14.465331077575684,0.1546630859375,0.8450927734375,-0.1920166015625
6.368,644,3147,1846,3147,-7.0,33.0,15.0,-68.29833984375,-55.114742279052734,-43.945308685302734,0.1546630859375,0.8450927734375,-0.1920166015625
6.369,410,3147,1434,963,-7.0,33.0,15.0,-103.51561737060547,-54.504390716552734,-71.71630859375,-0.2362060546875,0.9669189453125,-0.4176025390625
6.381,430,3147,2192,3147,-5.0,32.0,14.0,-156.92138671875,-41.381832122802734,-81.05467987060547,-1.144775390625,-1.77587890625,-0.0135498046875
6.384,495,3147,2062,3147,-5.0,32.0,14.0,-188.84275817871094,-39.73388671875,-65.85693359375,-1.144775390625,-1.77587890625,-0.0135498046875
6.392,466,3147,2028,3147,-5.0,32.0,14.0,-151.30615234375,-47.668453216552734,-34.3017578125,-1.0533447265625,-1.6591796875,0.4322509765625
6.413,445,3147,2414,3147,-5.0,32.0,14.0,-70.37353515625,-46.447750091552734,2.13623046875,-1.446044921875,1.4471435546875,-0.6544189453125
6.414,513,3147,2494,3147,-5.0,32.0,14.0,-6.591796398162842,-39.97802734375,28.198240280151367,-1.446044921875,1.4471435546875,-0.6544189453125
6.422,725,3147,2473,3147,-5.0,32.0,14.0,2.25830078125,-33.63037109375,31.921384811401367,-1.9586181640625,2.018798828125,-1.4002685546875
6.436,913,3147,1202,3147,-5.0,32.0,14.0,-30.273435592651367,-33.0810546875,13.916014671325684,-2.794189453125,0.60986328125,-0.447265625
6.448,797,3147,2165,3147,-5.0,32.0,14.0,-52.062984466552734,-35.888671875,-5.920409679412842,-2.794189453125,0.60986328125,-0.447265625
6.469,614,3147,2443,3147,-5.0,32.0,14.0,-25.695798873901367,-41.442867279052734,-16.41845703125,-2.172607421875,-0.46923828125,0.4698486328125
6.469,416,3147,2630,3147,-5.0,32.0,14.0,41.076656341552734,-41.137691497802734,-20.263669967651367,-0.7691650390625,0.568603515625,-0.353271484375
6.474,374,3147,2717,3147,-4.0,31.0,18.0,93.32274627685547,-24.108884811401367,-16.4794921875,-0.7691650390625,0.568603515625,-0.353271484375
6.482,372,3147,2713,3147,-4.0,31.0,18.0,87.03612518310547,-7.385253429412842,-15.258788108825684,-1.0667724609375,1.1483154296875,-0.953369140625
6.496,371,3147,2717,3147,-4.0,31.0,18.0,33.5693359375,0.0610351525247097,-21.667478561401367,-2.0517578125,0.5736083984375,-0.7890625
6.515,365,3147,2648,3147,-4.0,31.0,18.0,-25.024412155151367,-2.01416015625,-26.245115280151367,-2.0517578125,0.5736083984375,-0.7890625
6.516,375,3147,2544,3147,-4.0,31.0,18.0,-54.992671966552734,-10.559081077575684,-23.376462936401367,-1.9178466796875,0.20947265625,-0.3834228515625
6.526,371,3147,2424,3147,-4.0,31.0,18.0,-53.710933685302734,-15.197752952575684,-16.54052734375,-1.18310546875,0.2493896484375,-0.005126953125
6.534,361,3147,2379,3147,-4.0,31.0,18.0,-38.330078125,-11.779784202575684,-9.58251953125,-1.18310546875,0.2493896484375,-0.005126953125
6.542,359,3147,2316,3147,-4.0,31.0,18.0,-24.291990280151367,-0.7324218153953552,-3.967284917831421,-0.9403076171875,0.4486083984375,-0.0272216796875
6.576,356,3147,2166,3147,-4.0,31.0,18.0,-16.29638671875,12.390135765075684,-2.807616949081421,-0.7877197265625,0.49658203125,-0.0147705078125
6.577,359,3147,2151,3147,-4.0,31.0,18.0,-9.70458984375,23.559568405151367,-7.812499523162842,-0.742919921875,0.352783203125,0.06005859375
6.577,359,3147,2058,3147,-4.0,30.0,21.0,-0.1831054538488388,31.249998092651367,-14.709471702575684,-0.753662109375,0.1275634765625,0.1097412109375
6.586,354,3147,1978,3147,-4.0,30.0,21.0,12.817381858825684,33.50830078125,-18.85986328125,-0.73046875,-0.101318359375,0.1373291015625
6.599,351,3147,1798,3147,-4.0,30.0,21.0,30.395505905151367,33.50830078125,-17.9443359375,-0.6658935546875,-0.245849609375,0.083984375
6.603,348,3147,1789,2840,-4.0,30.0,21.0,51.818843841552734,34.11865234375,-11.108397483825684,-0.5660400390625,-0.171630859375,-0.0308837890625
6.619,348,3147,1727,2258,-4.0,30.0,21.0,66.89453125,31.188962936401367,-1.5869139432907104,-0.4222412109375,0.0482177734375,-0.072509765625
6.624,346,3147,1693,1860,-4.0,30.0,21.0,66.162109375,23.376462936401367,2.25830078125,-0.35595703125,0.15869140625,-0.0020751953125
6.638,348,3147,1662,1533,-4.0,30.0,21.0,53.833003997802734,16.4794921875,-1.9531248807907104,-0.4456787109375,0.1282958984375,0.0166015625
6.648,336,3147,1487,1276,-4.0,30.0,21.0,42.785640716552734,14.343260765075684,-5.615233898162842,-0.5423583984375,0.0892333984375,-0.134033203125
6.674,338,3147,1456,1229,-4.0,30.0,21.0,41.503902435302734,14.770506858825684,-4.2724609375,-0.5775146484375,0.10498046875,-0.30517578125
6.689,334,3147,1359,1157,-4.0,30.0,21.0,45.654293060302734,17.88330078125,0.3662109076976776,-0.6302490234375,0.200439453125,-0.4095458984375
6.698,330,3147,1253,1097,-7.0,31.0,19.0,45.715328216552734,22.155759811401367,6.530761241912842,-0.703125,0.3388671875,-0.444580078125
6.698,332,3147,1280,1071,-7.0,31.0,19.0,36.31591796875,22.216794967651367,10.986327171325684,-0.753662109375,0.386474609375,-0.412353515625
6.700,329,3147,1264,1078,-7.0,31.0,19.0,20.01953125,18.798828125,13.061522483825684,-0.7747802734375,0.314208984375,-0.3438720703125
6.713,330,3147,1248,1143,-7.0,31.0,19.0,6.103515148162842,15.319823265075684,14.282225608825684,-0.769287109375,0.2572021484375,-0.272216796875
6.718,323,3147,1231,1211,-7.0,31.0,19.0,0.30517578125,11.901854515075684,14.526366233825684,-0.7613525390625,0.27978515625,-0.231689453125
6.726,328,3147,1173,1266,-7.0,31.0,19.0,0.9155272841453552,8.6669921875,12.695311546325684,-0.7803955078125,0.335205078125,-0.2423095703125
6.736,324,3147,1189,1303,-7.0,31.0,19.0,3.540038824081421,7.080077648162842,9.765625,-0.8194580078125,0.3709716796875,-0.2894287109375
6.747,325,3147,1198,1348,-7.0,31.0,19.0,4.39453125,6.591796398162842,7.446288585662842,-0.8436279296875,0.364013671875,-0.317138671875
6.759,324,3147,1213,1411,-7.0,31.0,19.0,1.4038084745407104,5.676269054412842,5.859374523162842,-0.83544921875,0.3153076171875,-0.294189453125
6.783,330,3147,1173,1543,-8.0,32.0,22.0,-3.540038824081421,4.69970703125,5.249022960662842,-0.809326171875,0.2452392578125,-0.2532958984375
6.783,328,3147,1170,1640,-8.0,32.0,22.0,-6.713866710662842,5.065917491912842,6.408690929412842,-0.7750244140625,0.1844482421875,-0.22998046875
6.789,328,3147,1146,1750,-8.0,32.0,22.0,-7.629394054412842,7.751464366912842,10.192870140075684,-0.7340087890625,0.147705078125,-0.2149658203125
6.803,310,3147,1143,2058,-8.0,32.0,22.0,-8.7890625,12.756346702575684,16.54052734375,-0.6922607421875,0.126220703125,-0.1937255859375
6.818,316,3147,1109,2284,-8.0,32.0,22.0,-11.291502952575684,19.1650390625,24.597166061401367,-0.6405029296875,0.1121826171875,-0.1563720703125
6.820,323,3147,1054,2514,-8.0,32.0,22.0,-13.122557640075684,24.414060592651367,32.958984375,-0.5670166015625,0.0968017578125,-0.114013671875
6.835,1050,3147,731,2668,-8.0,32.0,22.0,-10.498045921325684,25.024412155151367,40.588375091552734,-0.4888916015625,0.1053466796875,-0.0855712890625
6.836,865,3147,883,3143,-8.0,32.0,22.0,-1.15966796875,14.770506858825684,45.166011810302734,-0.3590087890625,0.17138671875,-0.0430908203125
6.842,561,3147,639,2622,-8.0,32.0,22.0,12.756346702575684,-10.620116233825684,40.405269622802734,-0.0760498046875,0.3004150390625,0.0535888671875
6.856,572,3147,1316,3147,-8.0,32.0,22.0,26.245115280151367,-43.273921966552734,19.59228515625,0.3138427734375,0.5870361328125,0.056396484375
6.879,744,3147,1700,3147,-6.0,31.0,19.0,21.789548873901367,-63.659664154052734,-16.6015625,0.416015625,1.112548828125,-0.2017822265625
6.880,423,3147,1492,1686,-6.0,31.0,19.0,-26.184080123901367,-60.241695404052734,-52.429195404052734,-0.0965576171875,1.0347900390625,-0.423095703125
6.886,418,3147,2021,3147,-6.0,31.0,19.0,-100.95214080810547,-50.537105560302734,-67.19970703125,-0.73876953125,-0.6220703125,-0.2952880859375
6.894,589,3147,1819,3147,-6.0,31.0,19.0,-141.4794921875,-45.349117279052734,-54.687496185302734,-0.9329833984375,-1.929931640625,0.1075439453125
6.902,437,3147,2119,3147,-6.0,31.0,19.0,-116.08885955810547,-33.8134765625,-22.583005905151367,-0.992431640625,-1.093994140625,0.2969970703125
6.918,697,3147,2253,3147,-6.0,31.0,19.0,-61.279293060302734,-17.51708984375,14.892577171325684,-1.386962890625,0.69970703125,-0.2655029296875
6.925,1095,3147,1996,3147,-6.0,31.0,19.0,-40.0390625,-7.263183116912842,40.954586029052734,-2.0465087890625,1.9716796875,-1.1278076171875
6.939,811,3147,2464,3147,-6.0,31.0,19.0,-69.51904296875,4.638671875,51.818843841552734,-2.9990234375,2.518798828125,-1.8526611328125
6.946,462,3147,2726,3147,-6.0,31.0,19.0,-104.43114471435547,28.747556686401367,52.124019622802734,-3.1165771484375,0.86962890625,-1.106689453125
6.954,378,3147,2722,3147,-6.0,31.0,19.0,-68.4814453125,14.648436546325684,23.437498092651367,-1.759033203125,-1.109130859375,0.9791259765625
6.962,391,3147,2538,3147,-6.0,34.0,17.0,27.648923873901367,-5.249022960662842,-1.4648436307907104,-0.7344970703125,-0.4322509765625,1.287353515625
6.982,411,3147,2394,3147,-6.0,34.0,17.0,103.33251190185547,18.4326171875,2.50244140625,-0.712158203125,0.765869140625,-0.2147216796875
6.984,390,3147,2435,3147,-6.0,34.0,17.0,120.30028533935547,37.353515625,-2.563476324081421,-1.0718994140625,1.1060791015625,-1.3232421875
6.992,427,3147,2448,3147,-6.0,34.0,17.0,82.15331268310547,30.883787155151367,-18.12744140625,-1.519775390625,1.05517578125,-1.545654296875
7.006,495,3147,2296,3147,-6.0,34.0,17.0,22.094724655151367,7.324218273162842,-28.808591842651367,-1.8907470703125,0.9195556640625,-1.3612060546875
7.026,408,3147,2478,3147,-6.0,34.0,17.0,-27.099607467651367,-18.61572265625,-30.639646530151367,-1.9769287109375,0.52587890625,-0.9364013671875
7.026,404,3147,2443,3147,-6.0,34.0,17.0,-27.099607467651367,-18.61572265625,-30.639646530151367,-1.77587890625,0.1429443359375,-0.399169921875
7.036,409,3147,2354,3147,-6.0,34.0,17.0,-40.222164154052734,-42.053218841552734,-16.7236328125,-1.5382080078125,0.133056640625,-0.0694580078125
7.045,411,3147,2296,3147,-6.0,34.0,17.0,-19.53125,-37.53662109375,-8.85009765625,-1.2989501953125,0.337158203125,-0.0445556640625
7.052,402,3147,2217,3147,-6.0,34.0,17.0,-19.53125,-37.53662109375,-8.85009765625,-1.0135498046875,0.469482421875,-0.123779296875
7.066,388,3147,2117,3147,-6.0,32.0,23.0,12.939452171325684,-19.71435546875,-4.5166015625,-0.7520751953125,0.4566650390625,-0.0733642578125
7.085,378,3147,2024,3147,-6.0,32.0,23.0,19.53125,-9.33837890625,-10.375975608825684,-0.5833740234375,0.2811279296875,0.106201171875
7.086,371,3147,1975,3147,-6.0,32.0,23.0,19.53125,-9.33837890625,-10.375975608825684,-0.45703125,-0.030517578125,0.2967529296875
7.096,373,3147,1855,3089,-6.0,32.0,23.0,32.470703125,9.27734375,-23.803709030151367,-0.3546142578125,-0.28662109375,0.349853515625
7.106,368,3147,1803,2756,-6.0,32.0,23.0,48.583980560302734,20.812986373901367,-18.00537109375,-0.279296875,-0.269775390625,0.283203125
7.113,354,3147,1742,2504,-6.0,32.0,23.0,48.583980560302734,20.812986373901367,-18.00537109375,-0.2398681640625,-0.0482177734375,0.2587890625
7.127,346,3147,1650,2165,-6.0,32.0,23.0,65.12451171875,30.029294967651367,-0.30517578125,-0.29638671875,0.0982666015625,0.2440185546875
7.152,334,3147,1577,1997,-6.0,32.0,23.0,57.495113372802734,30.944822311401367,-1.7700194120407104,-0.435546875,0.1309814453125,0.1021728515625
7.160,344,3147,1527,1809,-6.0,32.0,23.0,57.495113372802734,30.944822311401367,-1.7700194120407104,-0.5570068359375,0.2235107421875,-0.1519775390625
7.168,337,3147,1403,1600,-4.0,34.0,23.0,33.38623046875,35.46142578125,-1.5258787870407104,-0.600830078125,0.364990234375,-0.37060546875
7.190,330,3147,1303,1533,-4.0,34.0,23.0,22.827146530151367,34.97314453125,-0.9155272841453552,-0.6187744140625,0.388916015625,-0.46826171875
7.191,331,3147,1213,1494,-4.0,34.0,23.0,22.827146530151367,34.97314453125,-0.9155272841453552,-0.677001953125,0.3175048828125,-0.4652099609375
7.197,324,3147,1091,1370,-4.0,34.0,23.0,4.69970703125,35.94970703125,-1.8920897245407104,-0.7484130859375,0.28955078125,-0.409912109375
7.212,311,3147,1070,1289,-4.0,34.0,23.0,0.2441406100988388,34.24072265625,0.9155272841453552,-0.802490234375,0.2972412109375,-0.3553466796875
7.218,304,3147,1091,1306,-4.0,34.0,23.0,0.2441406100988388,34.24072265625,0.9155272841453552,-0.83984375,0.285400390625,-0.3375244140625
7.226,321,3147,1078,1239,-4.0,34.0,23.0,1.2817381620407104,20.568845748901367,1.7089842557907104,-0.86865234375,0.288818359375,-0.345947265625
7.227,324,3147,1098,1251,-4.0,34.0,23.0,4.33349609375,11.169432640075684,-0.1831054538488388,-0.88916015625,0.336669921875,-0.369873046875
7.240,323,3147,1138,1170,-4.0,34.0,23.0,4.33349609375,11.169432640075684,-0.1831054538488388,-0.89013671875,0.3768310546875,-0.4080810546875
7.255,324,3147,1198,1160,-4.0,34.0,23.0,8.23974609375,-0.6103515625,-3.784179449081421,-0.880615234375,0.3609619140625,-0.41748046875
7.263,302,3147,1239,1188,-5.0,34.0,22.0,7.080077648162842,-2.563476324081421,-5.0048828125,-0.86962890625,0.2994384765625,-0.3753662109375
7.264,327,3147,1264,1236,-5.0,34.0,22.0,7.080077648162842,-2.563476324081421,-5.0048828125,-0.85205078125,0.232421875,-0.32373046875
7.293,319,3147,1289,1357,-5.0,34.0,22.0,2.38037109375,-4.45556640625,-2.990722417831421,-0.834716796875,0.181396484375,-0.285888671875
7.295,328,3147,1294,1456,-5.0,34.0,22.0,0.9765624403953552,-6.164550304412842,0.2441406100988388,-0.820068359375,0.148681640625,-0.26318359375
7.305,327,3147,1269,1557,-5.0,34.0,22.0,0.9765624403953552,-6.164550304412842,0.2441406100988388,-0.786865234375,0.1312255859375,-0.2574462890625
7.316,327,3147,1243,1753,-5.0,34.0,22.0,-0.7934569716453552,-4.45556640625,10.681151390075684,-0.7373046875,0.126220703125,-0.2440185546875
7.328,306,3147,1255,1870,-5.0,34.0,22.0,-3.845214605331421,-0.7934569716453552,16.6015625,-0.688720703125,0.137451171875,-0.2177734375
7.338,328,3147,1248,2111,-5.0,34.0,22.0,-3.845214605331421,-0.7934569716453552,16.6015625,-0.6309814453125,0.1480712890625,-0.1666259765625
7.347,336,3147,1222,2472,-5.0,34.0,22.0,-7.812499523162842,3.295898199081421,26.000974655151367,-0.5452880859375,0.1451416015625,-0.08642578125
7.349,365,3147,1191,2744,-5.0,34.0,22.0,-7.812499523162842,3.295898199081421,26.000974655151367,-0.421630859375,0.1444091796875,-0.0054931640625
7.372,332,3147,1268,3070,-6.0,35.0,18.0,-4.08935546875,0.4882812201976776,27.465818405151367,-0.421630859375,0.1444091796875,-0.0054931640625
7.372,332,3147,1396,3147,-6.0,35.0,18.0,15.075682640075684,-22.155759811401367,12.512206077575684,0.0428466796875,0.3974609375,0.0054931640625
7.390,333,3147,1501,3147,-6.0,35.0,18.0,15.075682640075684,-22.155759811401367,12.512206077575684,0.295166015625,0.7213134765625,-0.1328125
7.391,338,3147,1715,3147,-6.0,35.0,18.0,8.6669921875,-34.0576171875,-4.8828125,0.295166015625,0.7213134765625,-0.1328125
7.397,371,3147,2048,3147,-6.0,35.0,18.0,-91.24755096435547,-42.724605560302734,-24.841306686401367,0.0235595703125,0.224609375,-0.1873779296875
7.405,454,3147,2047,3147,-6.0,35.0,18.0,-91.24755096435547,-42.724605560302734,-24.841306686401367,-0.641845703125,-0.8292236328125,0.0634765625
7.415,494,3147,1973,3147,-6.0,35.0,18.0,-131.7138671875,-36.92626953125,-27.221677780151367,-0.641845703125,-0.8292236328125,0.0634765625
7.427,385,3147,2244,3147,-6.0,35.0,18.0,-59.814449310302734,-15.686034202575684,-3.112792730331421,-1.4842529296875,-0.158203125,0.126708984375
7.435,391,3147,2424,3147,-6.0,35.0,18.0,-59.814449310302734,-15.686034202575684,-3.112792730331421,-1.7027587890625,0.976806640625,-0.5640869140625
7.443,391,3147,2539,3147,-6.0,35.0,18.0,-12.207030296325684,-9.27734375,20.507810592651367,-1.7027587890625,0.976806640625,-0.5640869140625
7.457,619,3147,2482,3147,-5.0,33.0,18.0,-35.46142578125,-5.126952648162842,24.169919967651367,-2.618408203125,1.755126953125,-1.519775390625
7.465,423,3147,2689,3147,-5.0,33.0,18.0,-35.46142578125,-5.126952648162842,24.169919967651367,-3.1231689453125,0.940185546875,-0.9993896484375
7.495,390,3147,2612,3147,-5.0,33.0,18.0,-67.626953125,2.25830078125,22.705076217651367,-3.1231689453125,0.940185546875,-0.9993896484375
7.495,377,3147,2486,3147,-5.0,33.0,18.0,18.310546875,-7.873534679412842,-2.0751953125,-1.0975341796875,-0.590576171875,1.0181884765625
7.496,370,3147,2400,3147,-5.0,33.0,18.0,18.310546875,-7.873534679412842,-2.0751953125,-0.838623046875,0.55419921875,-0.155517578125
7.503,360,3147,2428,3147,-5.0,33.0,18.0,89.59960174560547,15.319823265075684,-0.1831054538488388,-0.838623046875,0.55419921875,-0.155517578125
7.517,359,3147,2493,3147,-5.0,33.0,18.0,79.04052734375,18.49365234375,-12.817381858825684,-1.5244140625,0.9920654296875,-1.4954833984375
7.525,359,3147,2456,3147,-5.0,33.0,18.0,79.04052734375,18.49365234375,-12.817381858825684,-1.8817138671875,0.8048095703125,-1.2926025390625
7.533,356,3147,2450,3147,-5.0,33.0,18.0,29.724119186401367,-3.784179449081421,-20.385740280151367,-1.8817138671875,0.8048095703125,-1.2926025390625
7.547,356,3147,2458,3147,-5.0,33.0,16.0,-34.66796875,-38.87939453125,-19.83642578125,-1.6378173828125,0.23828125,-0.38818359375
7.555,359,3147,2473,3147,-5.0,33.0,16.0,-34.66796875,-38.87939453125,-19.83642578125,-1.3504638671875,0.1783447265625,-0.1278076171875
7.563,351,3147,2435,3147,-5.0,33.0,16.0,-32.40966796875,-41.015621185302734,-16.11328125,-1.3504638671875,0.1783447265625,-0.1278076171875
7.595,346,3147,2321,3147,-5.0,33.0,16.0,-16.845703125,-35.5224609375,-11.230467796325684,-0.9530029296875,0.4619140625,-0.1551513671875
7.595,347,3147,2235,3147,-5.0,33.0,16.0,0.2441406100988388,-25.512693405151367,-6.347655773162842,-0.9530029296875,0.4619140625,-0.1551513671875
7.596,346,3147,2191,3147,-5.0,33.0,16.0,10.559081077575684,-15.075682640075684,-6.713866710662842,-0.7813720703125,0.4803466796875,-0.1087646484375
7.607,347,3147,2091,3147,-5.0,33.0,16.0,12.756346702575684,-5.371093273162842,-14.343260765075684,-0.5718994140625,0.0274658203125,0.1993408203125
7.615,348,3147,2141,3147,-5.0,33.0,16.0,10.009765625,3.295898199081421,-23.010251998901367,-0.5718994140625,0.0274658203125,0.1993408203125
7.631,344,3147,2063,3064,-5.0,33.0,16.0,8.97216796875,10.742186546325684,-26.672361373901367,-0.4644775390625,-0.216796875,0.26904296875
7.643,338,3147,2008,2442,-5.0,33.0,16.0,16.6015625,19.04296875,-22.644041061401367,-0.2711181640625,-0.01953125,0.110107421875
7.653,344,3147,1882,1957,-5.0,29.0,17.0,25.695798873901367,26.550291061401367,-13.305663108825684,-0.2711181640625,-0.01953125,0.110107421875
7.664,338,3147,1716,1600,-5.0,29.0,17.0,22.094724655151367,28.747556686401367,-7.568358898162842,-0.3135986328125,0.1304931640625,0.136962890625
7.671,323,3147,1528,1384,-5.0,29.0,17.0,9.1552734375,27.770994186401367,-8.6669921875,-0.5933837890625,-0.0372314453125,0.00732421875
7.713,328,3147,1334,1278,-5.0,29.0,17.0,13.854979515075684,29.846189498901367,0.4272460639476776,-0.5992431640625,0.0242919921875,-0.1915283203125
7.714,327,3147,1239,1239,-5.0,29.0,17.0,32.16552734375,23.193357467651367,7.568358898162842,-0.6041259765625,0.3585205078125,-0.3819580078125
7.714,324,3147,1198,1282,-5.0,29.0,17.0,36.7431640625,10.620116233825684,1.8920897245407104,-0.6041259765625,0.3585205078125,-0.3819580078125
7.727,324,3147,1134,1243,-5.0,29.0,17.0,26.428220748901367,8.7890625,-1.4038084745407104,-0.8831787109375,0.2957763671875,-0.28515625
7.747,324,3147,1172,1348,-5.0,29.0,17.0,25.756834030151367,14.648436546325684,11.108397483825684,-0.755126953125,0.4776611328125,-0.3330078125
7.757,325,3147,1191,1409,-5.0,29.0,17.0,39.73388671875,15.258788108825684,22.705076217651367,-0.755126953125,0.4776611328125,-0.3330078125
7.758,324,3147,1231,1422,-5.0,34.0,20.0,46.874996185302734,7.141112804412842,18.06640625,-0.7227783203125,0.5855712890625,-0.4169921875
7.758,319,3147,1215,1545,-5.0,34.0,20.0,41.076656341552734,-2.44140625,7.263183116912842,-0.8507080078125,0.2645263671875,-0.3458251953125
7.767,324,3147,1251,1607,-5.0,34.0,20.0,37.109375,-7.263183116912842,3.906249761581421,-0.8507080078125,0.2645263671875,-0.3458251953125
7.776,329,3147,1248,1659,-5.0,34.0,20.0,39.85595703125,-7.629394054412842,4.94384765625,-0.869384765625,0.1856689453125,-0.3433837890625
7.814,346,3147,1224,1733,-5.0,34.0,20.0,40.527339935302734,-7.446288585662842,4.638671875,-0.90576171875,0.2020263671875,-0.354248046875
7.825,351,3147,1233,1790,-5.0,34.0,20.0,31.188962936401367,-10.192870140075684,1.220703125,-0.90576171875,0.2020263671875,-0.354248046875
7.832,336,3147,1241,1838,-5.0,34.0,20.0,15.502928733825684,-14.099120140075684,-1.6479490995407104,-0.927001953125,0.155029296875,-0.2852783203125
7.842,346,3147,1241,1996,-5.0,34.0,20.0,5.432128429412842,-15.808104515075684,-0.2441406100988388,-0.9136962890625,0.091796875,-0.2169189453125
7.850,316,3147,1215,2068,-5.0,34.0,20.0,5.798339366912842,-14.282225608825684,5.126952648162842,-0.855224609375,0.0723876953125,-0.1884765625
7.860,327,3147,1214,2231,-5.0,34.0,20.0,10.681151390075684,-11.474608421325684,10.559081077575684,-0.765380859375,0.1212158203125,-0.20947265625
7.860,330,3147,1211,2479,-8.0,30.0,17.0,11.108397483825684,-9.765625,11.901854515075684,-0.669189453125,0.227294921875,-0.252685546875
7.866,330,3147,1178,2665,-8.0,30.0,17.0,1.15966796875,-9.94873046875,8.30078125,-0.606689453125,0.3419189453125,-0.2891845703125
7.874,324,3147,1163,2877,-8.0,30.0,17.0,-19.47021484375,-11.657713890075684,3.112792730331421,-0.5743408203125,0.407958984375,-0.2996826171875
7.878,336,3147,1129,3147,-8.0,30.0,17.0,-45.776363372802734,-16.4794921875,0.54931640625,-0.4757080078125,0.4310302734375,-0.2579345703125
7.886,363,3147,1097,3147,-8.0,30.0,17.0,-72.20458984375,-26.306150436401367,-1.9531248807907104,-0.2796630859375,0.4630126953125,-0.1783447265625
7.909,475,3147,1103,3147,-8.0,30.0,17.0,-100.64696502685547,-39.4287109375,-8.48388671875,-0.1251220703125,0.5013427734375,-0.071044921875
7.909,646,3147,1552,3147,-8.0,30.0,17.0,-131.8359375,-53.222652435302734,-13.366698265075684,-0.120361328125,0.538818359375,0.0172119140625
7.915,438,3147,1967,3147,-8.0,30.0,17.0,-160.2783203125,-64.51416015625,-9.1552734375,-0.173828125,0.4002685546875,0.0399169921875
7.930,473,3147,2034,3147,-8.0,30.0,17.0,-174.62156677246094,-64.51416015625,-7.324218273162842,-0.3345947265625,-0.37890625,0.0831298828125
7.943,455,3147,2070,3147,-8.0,30.0,17.0,-152.4658203125,-42.419429779052734,-15.930174827575684,-0.584716796875,-1.2620849609375,0.181640625
7.945,437,3147,2076,3147,-2.0,29.0,17.0,-97.59520721435547,-12.634276390075684,-13.732909202575684,-0.7293701171875,-1.028076171875,0.274658203125
7.953,499,3147,1494,3147,-2.0,29.0,17.0,-44.494625091552734,2.44140625,6.530761241912842,-0.9224853515625,0.093017578125,0.2083740234375
7.967,442,3147,2391,3147,-2.0,29.0,17.0,-18.49365234375,2.563476324081421,24.536130905151367,-1.2916259765625,1.0673828125,-0.1748046875
7.975,439,3147,2599,3147,-2.0,29.0,17.0,-15.014647483825684,0.0,26.977537155151367,-1.7799072265625,1.371826171875,-0.706787109375
7.983,441,3147,2651,3147,-2.0,29.0,17.0,-12.695311546325684,3.540038824081421,18.00537109375,-2.431640625,1.459228515625,-0.98681640625
8.007,385,3147,2615,3147,-2.0,29.0,17.0,-16.41845703125,15.808104515075684,15.808104515075684,-3.065185546875,1.157470703125,-0.839599609375
8.007,409,3147,2565,3147,-2.0,29.0,17.0,-19.53125,24.291990280151367,15.319823265075684,-2.5726318359375,-0.2301025390625,0.1019287109375
8.013,400,3147,2530,3147,-2.0,29.0,17.0,13.671874046325684,21.484373092651367,6.042479991912842,-1.3817138671875,-0.6690673828125,0.7425537109375
8.028,385,3147,2384,3147,-2.0,29.0,17.0,64.14794921875,27.038572311401367,4.8828125,-0.9000244140625,0.3414306640625,0.050048828125
8.035,385,3147,2388,3147,-2.0,29.0,17.0,82.58055877685547,32.71484375,5.065917491912842,-0.9840087890625,0.9820556640625,-0.820556640625
8.052,488,3147,2410,3147,-5.0,31.0,16.0,64.02587890625,23.681638717651367,-9.09423828125,-1.3701171875,1.012939453125,-1.1402587890625
8.057,377,3147,2348,3147,-5.0,31.0,16.0,28.686521530151367,5.737304210662842,-24.963376998901367,-1.7982177734375,0.7464599609375,-1.013427734375
8.065,378,3147,2287,3147,-5.0,31.0,16.0,-2.563476324081421,-15.014647483825684,-30.517576217651367,-1.9498291015625,0.496826171875,-0.7119140625
8.073,406,3147,2190,3147,-5.0,31.0,16.0,-17.88330078125,-29.418943405151367,-27.465818405151367,-1.77490234375,0.32421875,-0.3912353515625
8.088,438,3147,2072,3147,-5.0,31.0,16.0,-17.2119140625,-33.935546875,-20.141599655151367,-1.4461669921875,0.253173828125,-0.1173095703125
8.116,696,3147,1722,3147,-5.0,31.0,16.0,-5.371093273162842,-29.174802780151367,-12.268065452575684,-1.186279296875,0.27001953125,0.012451171875
8.116,1323,3147,973,3147,-5.0,31.0,16.0,10.925292015075684,-18.12744140625,-6.408690929412842,-1.0360107421875,0.3648681640625,-0.0379638671875
8.117,1437,3147,675,2833,-5.0,31.0,16.0,23.010251998901367,-5.493163585662842,-3.784179449081421,-0.9129638671875,0.45458984375,-0.1219482421875
8.125,543,3147,1531,3147,-5.0,31.0,16.0,25.756834030151367,5.737304210662842,-6.652831554412842,-0.7933349609375,0.394287109375,-0.1009521484375
8.133,1387,3147,830,3147,-5.0,31.0,16.0,22.521970748901367,15.380858421325684,-15.075682640075684,-0.7232666015625,0.2093505859375,0.0159912109375
8.198,509,3147,1695,3147,-3.0,32.0,16.0,21.240232467651367,21.606443405151367,-25.146482467651367,-0.672607421875,-0.045166015625,0.178955078125
8.198,1611,3147,537,2085,-3.0,32.0,16.0,27.709959030151367,24.658201217651367,-32.40966796875,-0.59912109375,-0.2274169921875,0.218017578125
8.198,1675,3147,455,1079,-3.0,32.0,16.0,40.283199310302734,27.709959030151367,-33.38623046875,-0.51708984375,-0.186767578125,0.0733642578125
8.198,883,3147,1074,2142,-3.0,32.0,16.0,48.034664154052734,29.113767623901367,-28.076169967651367,-0.427490234375,0.0159912109375,-0.025390625
8.199,575,3147,1330,1915,-3.0,32.0,16.0,43.457027435302734,24.475095748901367,-22.399900436401367,-0.4111328125,0.08349609375,0.06005859375
8.206,1063,3147,628,1178,-3.0,32.0,16.0,36.4990234375,19.775390625,-20.01953125,-0.513916015625,-0.0523681640625,0.0955810546875
8.218,527,3147,1217,1241,-3.0,32.0,16.0,38.51318359375,22.155759811401367,-14.587401390075684,-0.6148681640625,-0.1182861328125,-0.0592041015625
8.218,499,3147,1320,1120,-3.0,32.0,16.0,48.156734466552734,27.526853561401367,-2.807616949081421,-0.6402587890625,0.0238037109375,-0.24658203125
8.223,411,3147,1163,1007,-3.0,32.0,16.0,56.518550872802734,29.052732467651367,8.48388671875,-0.6492919921875,0.235107421875,-0.3463134765625
8.237,465,3147,1067,1014,-7.0,32.0,18.0,56.396480560302734,25.512693405151367,14.160155296325684,-0.6815185546875,0.37255859375,-0.3702392578125
8.245,455,3147,1045,996,-7.0,32.0,18.0,47.180171966552734,18.310546875,15.808104515075684,-0.706787109375,0.416748046875,-0.3594970703125
8.253,458,3147,1050,1003,-7.0,32.0,18.0,33.87451171875,9.8876953125,15.380858421325684,-0.7047119140625,0.388671875,-0.3221435546875
8.267,456,3147,1067,1173,-7.0,32.0,18.0,21.545408248901367,3.173827886581421,13.549803733825684,-0.695556640625,0.3558349609375,-0.2872314453125
8.275,464,3147,1078,1268,-7.0,32.0,18.0,11.535643577575684,-0.6713866591453552,10.620116233825684,-0.7161865234375,0.381103515625,-0.2774658203125
8.283,465,3147,1091,1328,-7.0,32.0,18.0,11.535643577575684,-0.6713866591453552,10.620116233825684,-0.7747802734375,0.4189453125,-0.29638671875
8.316,431,3147,1137,1440,-7.0,32.0,18.0,-4.33349609375,-1.6479490995407104,1.8310545682907104,-0.83154296875,0.3955078125,-0.3057861328125
8.324,393,3147,1170,1529,-7.0,32.0,18.0,-10.986327171325684,-0.9155272841453552,-2.44140625,-0.8663330078125,0.3260498046875,-0.2847900390625
8.325,382,3147,1199,1602,-7.0,32.0,18.0,-10.986327171325684,-0.9155272841453552,-2.44140625,-0.8809814453125,0.265625,-0.2445068359375
8.327,369,3147,1201,1743,-7.0,32.0,18.0,-17.822265625,-2.25830078125,-5.493163585662842,-0.878173828125,0.2091064453125,-0.21142578125
8.335,369,3147,1216,1846,-5.0,31.0,22.0,-17.08984375,-4.150390625,-4.57763671875,-0.8687744140625,0.13818359375,-0.207275390625
8.350,364,3147,1224,1931,-5.0,31.0,22.0,-17.08984375,-4.150390625,-4.57763671875,-0.8529052734375,0.087646484375,-0.223876953125
8.357,373,3147,1222,2115,-5.0,31.0,22.0,-11.291502952575684,-7.141112804412842,3.295898199081421,-0.822998046875,0.0911865234375,-0.243896484375
8.365,376,3147,1201,2221,-5.0,31.0,22.0,-10.192870140075684,-7.446288585662842,9.94873046875,-0.7821044921875,0.120849609375,-0.255126953125
8.376,371,3147,1173,2388,-5.0,31.0,22.0,-10.192870140075684,-7.446288585662842,9.94873046875,-0.7432861328125,0.1348876953125,-0.242431640625
8.387,401,3147,1083,2713,-5.0,31.0,22.0,-11.657713890075684,-6.530761241912842,22.155759811401367,-0.6937255859375,0.1319580078125,-0.198974609375
8.395,424,3147,1063,2881,-5.0,31.0,22.0,-10.986327171325684,-7.690429210662842,24.963376998901367,-0.6029052734375,0.1148681640625,-0.1357421875
8.416,415,3147,1064,3147,-5.0,31.0,22.0,-10.986327171325684,-7.690429210662842,24.963376998901367,-0.461181640625,0.0992431640625,-0.05908203125
8.417,1101,3147,750,3147,-5.0,31.0,22.0,-0.9765624403953552,-23.742673873901367,18.24951171875,-0.272705078125,0.2059326171875,0.011962890625
8.430,440,3147,1357,3147,-5.0,31.0,22.0,-2.01416015625,-39.1845703125,8.60595703125,-0.0465087890625,0.511474609375,-0.00634765625
8.433,466,3147,1494,3147,-2.0,33.0,19.0,-2.01416015625,-39.1845703125,8.60595703125,0.1202392578125,0.74267578125,-0.1114501953125
8.450,1428,3147,948,3147,-2.0,33.0,19.0,-68.78662109375,-61.950679779052734,-4.33349609375,0.073974609375,0.544189453125,-0.1131591796875
8.455,739,3147,1730,3147,-2.0,33.0,19.0,-113.95262908935547,-59.448238372802734,-3.601073980331421,-0.1915283203125,-0.2169189453125,0.1002197265625
8.463,713,3147,1877,3147,-2.0,33.0,19.0,-113.95262908935547,-59.448238372802734,-3.601073980331421,-0.5330810546875,-0.93359375,0.41162109375
8.477,343,3147,2263,3147,-2.0,33.0,19.0,-87.15819549560547,-24.291990280151367,-2.13623046875,-0.9224853515625,-0.666259765625,0.44970703125
8.489,373,3147,2255,3147,-2.0,33.0,19.0,-87.15819549560547,-24.291990280151367,-2.13623046875,-1.3916015625,0.36083984375,-0.0924072265625
8.493,596,3147,2240,3147,-2.0,33.0,19.0,-31.677244186401367,-11.047362327575684,2.01416015625,-1.3916015625,0.36083984375,-0.0924072265625
8.519,673,3147,2430,3147,-2.0,33.0,19.0,-30.151365280151367,-8.60595703125,16.6015625,-2.4564208984375,1.483154296875,-1.346435546875
8.519,2539,3147,2317,3147,-2.0,33.0,19.0,-30.151365280151367,-8.60595703125,16.6015625,-3.210205078125,1.4010009765625,-1.0816650390625
8.523,673,3147,2530,3147,-2.0,33.0,19.0,-63.598628997802734,-3.356933355331421,25.878904342651367,-3.210205078125,1.4010009765625,-1.0816650390625
