time,compression0,compression1,compression2,compression3,magn_x,magn_y,magn_z,gyro_x,gyro_y,gyro_z,accel_x,accel_y,accel_z
0.002,308,1123,331,324,6.0,34.0,11.0,1.220703125,-8.48388671875,-12.817381858825684,-0.8363037109375,0.4356689453125,-0.062744140625
0.010,308,1182,351,328,6.0,34.0,11.0,1.220703125,-8.48388671875,-12.817381858825684,-0.8463134765625,0.443359375,-0.047607421875
0.023,309,1292,336,319,6.0,34.0,11.0,1.4648436307907104,-9.09423828125,-13.305663108825684,-0.8553466796875,0.443603515625,-0.03759765625
0.032,307,1302,334,328,6.0,34.0,11.0,0.0610351525247097,-9.33837890625,-13.549803733825684,-0.862548828125,0.43896484375,-0.03466796875
0.054,309,1262,336,328,6.0,34.0,11.0,0.0610351525247097,-9.33837890625,-13.549803733825684,-0.8695068359375,0.432861328125,-0.0311279296875
0.057,308,1509,359,328,6.0,34.0,11.0,-1.4038084745407104,-9.70458984375,-13.549803733825684,-0.87841796875,0.42822265625,-0.02587890625
0.068,310,1494,356,324,6.0,34.0,11.0,-0.9765624403953552,-9.94873046875,-13.488768577575684,-0.885498046875,0.425048828125,-0.0164794921875
0.073,308,1483,344,328,5.0,33.0,12.0,-0.9765624403953552,-9.94873046875,-13.488768577575684,-0.8858642578125,0.42138671875,-0.0018310546875
0.092,313,1575,346,330,5.0,33.0,12.0,-0.2441406100988388,-10.192870140075684,-13.549803733825684,-0.8853759765625,0.4212646484375,0.0135498046875
0.097,310,1773,336,328,5.0,33.0,12.0,0.6103515625,-10.192870140075684,-14.282225608825684,-0.8900146484375,0.4232177734375,0.02197265625
0.106,310,1834,356,330,5.0,33.0,12.0,0.6103515625,-10.192870140075684,-14.282225608825684,-0.8968505859375,0.4227294921875,0.0159912109375
0.115,309,1954,346,328,5.0,33.0,12.0,0.2441406100988388,-9.8876953125,-14.404295921325684,-0.8968505859375,0.4227294921875,0.0159912109375
0.156,312,2000,338,328,5.0,33.0,12.0,-1.03759765625,-9.09423828125,-13.549803733825684,-0.8997802734375,0.4207763671875,-0.012939453125
0.161,308,1997,354,328,5.0,33.0,12.0,-1.03759765625,-9.09423828125,-13.549803733825684,-0.8992919921875,0.431884765625,-0.02490234375
0.174,310,2047,344,330,5.0,33.0,12.0,-1.0986328125,-9.27734375,-13.305663108825684,-0.8992919921875,0.431884765625,-0.02490234375
0.195,308,2155,371,312,5.0,33.0,12.0,-0.3662109076976776,-10.803221702575684,-14.038084983825684,-0.8990478515625,0.4595947265625,-0.03857421875
0.208,312,2242,362,330,5.0,33.0,12.0,-0.3662109076976776,-10.803221702575684,-14.038084983825684,-0.895263671875,0.456787109375,-0.0345458984375
0.214,308,2290,346,330,6.0,34.0,7.0,-0.30517578125,-11.413573265075684,-14.587401390075684,-0.895263671875,0.456787109375,-0.0345458984375
0.218,310,2381,345,330,6.0,34.0,7.0,0.1831054538488388,-12.329100608825684,-15.624999046325684,-0.8912353515625,0.4346923828125,-0.01123046875
0.222,308,2529,382,332,6.0,34.0,7.0,0.1831054538488388,-12.329100608825684,-15.624999046325684,-0.8946533203125,0.427001953125,-0.00146484375
0.225,308,2559,356,330,6.0,34.0,7.0,0.2441406100988388,-12.695311546325684,-16.41845703125,-0.8946533203125,0.427001953125,-0.00146484375
0.228,310,2683,361,333,6.0,34.0,7.0,-0.6713866591453552,-12.634276390075684,-17.63916015625,-0.8917236328125,0.4169921875,0.0050048828125
0.231,310,2700,360,332,6.0,34.0,7.0,-0.6713866591453552,-12.634276390075684,-17.63916015625,-0.881103515625,0.4061279296875,0.009521484375
0.234,299,2748,323,328,6.0,34.0,7.0,-2.3193359375,-11.901854515075684,-17.76123046875,-0.881103515625,0.4061279296875,0.009521484375
0.263,313,2679,431,329,6.0,34.0,7.0,-9.82666015625,-8.72802734375,-16.54052734375,-0.84765625,0.358154296875,0.0301513671875
0.266,313,2811,414,334,6.0,34.0,7.0,-9.82666015625,-8.72802734375,-16.54052734375,-0.8360595703125,0.32958984375,0.039794921875
0.268,313,2974,426,334,6.0,34.0,7.0,-13.000487327575684,-7.202147960662842,-14.953612327575684,-0.8360595703125,0.32958984375,0.039794921875
0.276,306,3128,426,334,10.0,33.0,7.0,-14.526366233825684,-5.432128429412842,-8.1787109375,-0.8564453125,0.3099365234375,0.0384521484375
0.292,314,3147,423,338,10.0,33.0,7.0,-14.526366233825684,-5.432128429412842,-8.1787109375,-0.8892822265625,0.3118896484375,0.029296875
0.297,313,3147,418,332,10.0,33.0,7.0,-14.892577171325684,-5.493163585662842,-2.563476324081421,-0.8892822265625,0.3118896484375,0.029296875
0.306,316,3147,445,447,10.0,33.0,7.0,-18.310546875,-6.591796398162842,13.916014671325684,-0.9427490234375,0.2408447265625,0.024658203125
0.317,316,3147,438,551,10.0,33.0,7.0,-18.310546875,-6.591796398162842,13.916014671325684,-0.9273681640625,0.1929931640625,0.0208740234375
0.322,316,3147,455,680,10.0,33.0,7.0,-21.484373092651367,-6.408690929412842,24.414060592651367,-0.9273681640625,0.1929931640625,0.0208740234375
0.334,317,3147,462,971,10.0,33.0,7.0,-28.930662155151367,-2.44140625,45.227046966552734,-0.8187255859375,0.239990234375,0.06005859375
0.342,316,3147,478,1125,10.0,33.0,7.0,-28.930662155151367,-2.44140625,45.227046966552734,-0.729248046875,0.259033203125,0.1077880859375
0.366,313,3147,485,1428,10.0,33.0,7.0,-34.0576171875,1.03759765625,52.429195404052734,-0.729248046875,0.259033203125,0.1077880859375
0.367,323,3147,466,1925,8.0,33.0,14.0,-34.912109375,1.0986328125,55.419918060302734,-0.3148193359375,0.1005859375,0.0887451171875
0.374,326,3147,480,2255,8.0,33.0,14.0,-34.912109375,1.0986328125,55.419918060302734,0.070068359375,0.003662109375,0.0731201171875
0.379,332,3147,551,2407,8.0,33.0,14.0,-24.475095748901367,-7.141112804412842,49.499507904052734,0.070068359375,0.003662109375,0.0731201171875
0.409,382,3147,1009,2859,8.0,33.0,14.0,14.892577171325684,-38.9404296875,-2.197265625,0.561767578125,0.2012939453125,-0.0673828125
0.410,402,3147,1366,3146,8.0,33.0,14.0,14.892577171325684,-38.9404296875,-2.197265625,0.417724609375,0.551025390625,-0.12548828125
0.424,415,3147,1595,3147,8.0,33.0,14.0,23.437498092651367,-49.743648529052734,-46.081539154052734,0.417724609375,0.551025390625,-0.12548828125
0.443,442,3147,1853,3147,8.0,33.0,14.0,10.559081077575684,-47.790523529052734,-83.19091033935547,-0.7340087890625,1.42041015625,0.0533447265625
0.443,456,3147,2053,3147,8.0,33.0,14.0,-22.827146530151367,-36.68212890625,-97.65624237060547,-0.7340087890625,1.42041015625,0.0533447265625
0.443,473,3147,2223,3147,8.0,33.0,14.0,-65.673828125,-26.367185592651367,-81.66503143310547,-1.37255859375,1.615234375,0.315185546875
0.467,485,3147,2591,3147,8.0,33.0,14.0,-95.64208221435547,-25.146482467651367,-42.724605560302734,-2.689208984375,0.064208984375,0.5576171875
0.468,485,3147,2624,3147,9.0,33.0,13.0,-95.33690643310547,-29.968259811401367,-2.990722417831421,-2.689208984375,0.064208984375,0.5576171875
0.470,483,3147,2578,3147,9.0,33.0,13.0,-71.4111328125,-31.127927780151367,24.963376998901367,-3.437744140625,-0.9990234375,0.3916015625
0.483,475,3147,2443,3147,9.0,33.0,13.0,-24.536130905151367,-29.052732467651367,50.964351654052734,-1.812744140625,-0.71484375,0.080078125
0.495,479,3147,2395,3147,9.0,33.0,13.0,56.945796966552734,-26.245115280151367,78.43017578125,-1.812744140625,-0.71484375,0.080078125
0.501,473,3147,2375,3147,9.0,33.0,13.0,139.22119140625,-20.141599655151367,88.25682830810547,-0.66748046875,0.73876953125,0.015869140625
0.513,468,3147,2368,3147,9.0,33.0,13.0,154.72412109375,-5.981444835662842,65.91796875,-0.3873291015625,2.322509765625,-0.316650390625
0.522,473,3147,2417,3147,9.0,33.0,13.0,75.25634765625,17.7001953125,20.874021530151367,-0.3873291015625,2.322509765625,-0.316650390625
0.530,473,3147,2442,3147,9.0,33.0,13.0,-39.48974609375,40.466304779052734,-23.620603561401367,-0.7537841796875,1.577880859375,-0.181640625
0.544,473,3147,2407,3147,9.0,33.0,13.0,-103.08837127685547,49.316402435302734,-49.255367279052734,-1.672119140625,0.4354248046875,0.1754150390625
0.572,473,3147,2367,3147,9.0,33.0,13.0,-95.94725799560547,42.724605560302734,-52.673336029052734,-1.672119140625,0.4354248046875,0.1754150390625
0.573,473,3147,2296,3147,3.0,30.0,6.0,-56.518550872802734,28.869626998901367,-41.748043060302734,-1.884765625,0.376708984375,0.1339111328125
0.574,473,3147,2093,3147,3.0,30.0,6.0,-22.277830123901367,15.014647483825684,-26.367185592651367,-1.595947265625,0.2763671875,0.0885009765625
0.581,470,3147,1989,3147,3.0,30.0,6.0,-1.8920897245407104,3.662109136581421,-11.352538108825684,-1.595947265625,0.2763671875,0.0885009765625
0.599,468,3147,1815,3147,3.0,30.0,6.0,11.108397483825684,-4.150390625,1.0986328125,-1.3011474609375,0.30322265625,0.1715087890625
0.603,462,3147,1529,3147,3.0,30.0,6.0,20.874021530151367,-7.080077648162842,8.72802734375,-0.699462890625,0.541015625,0.211181640625
0.613,456,3147,1323,3147,3.0,30.0,6.0,26.672361373901367,-4.7607421875,8.36181640625,-0.699462890625,0.541015625,0.211181640625
0.620,455,3147,1101,3147,3.0,30.0,6.0,26.306150436401367,2.50244140625,-0.8544921278953552,-0.5357666015625,0.5880126953125,0.1483154296875
0.633,428,3147,899,2726,3.0,30.0,6.0,18.9208984375,12.451170921325684,-14.770506858825684,-0.6402587890625,0.521240234375,-0.0137939453125
0.641,410,3147,819,2287,3.0,30.0,6.0,6.408690929412842,21.362302780151367,-27.709959030151367,-0.6402587890625,0.521240234375,-0.0137939453125
0.674,385,3147,694,1954,3.0,30.0,6.0,-6.774901866912842,26.855466842651367,-36.80419921875,-0.755126953125,0.37890625,-0.122802734375
0.677,360,3147,561,1375,13.0,32.0,12.0,-15.319823265075684,30.334470748901367,-42.846675872802734,-0.8016357421875,0.2166748046875,-0.255126953125
0.682,351,3147,491,1117,13.0,32.0,12.0,-17.27294921875,31.921384811401367,-47.485347747802734,-0.805419921875,0.09326171875,-0.3192138671875
0.685,334,3147,456,814,13.0,32.0,12.0,-14.221190452575684,29.663084030151367,-50.720211029052734,-0.78369140625,0.0430908203125,-0.2943115234375
0.705,328,3147,455,355,13.0,32.0,12.0,-6.713866710662842,23.681638717651367,-51.757808685302734,-0.7239990234375,0.078369140625,-0.1708984375
0.711,327,2837,456,351,13.0,32.0,12.0,2.990722417831421,15.563963890075684,-51.147457122802734,-0.6221923828125,0.174072265625,0.00634765625
0.715,322,2494,423,348,13.0,32.0,12.0,10.559081077575684,8.11767578125,-50.415035247802734,-0.534423828125,0.2862548828125,0.15185546875
0.726,318,1862,419,338,13.0,32.0,12.0,13.610838890075684,3.784179449081421,-49.926753997802734,-0.51953125,0.3515625,0.2044677734375
0.732,321,1868,404,338,13.0,32.0,12.0,12.145995140075684,3.356933355331421,-47.851558685302734,-0.5528564453125,0.359130859375,0.202880859375
0.740,318,1867,401,338,13.0,32.0,12.0,8.60595703125,4.45556640625,-42.480464935302734,-0.5775146484375,0.3328857421875,0.2161865234375
0.780,317,2205,401,338,15.0,29.0,10.0,4.7607421875,3.967284917831421,-35.400390625,-0.5831298828125,0.2965087890625,0.229736328125
0.785,317,2456,402,346,15.0,29.0,10.0,-0.1831054538488388,1.4648436307907104,-29.296873092651367,-0.592041015625,0.276123046875,0.2431640625
0.790,318,2683,413,344,15.0,29.0,10.0,-5.310058116912842,-2.38037109375,-24.963376998901367,-0.6217041015625,0.268798828125,0.2371826171875
0.792,318,3051,411,344,15.0,29.0,10.0,-8.056640625,-5.859374523162842,-21.484373092651367,-0.658447265625,0.24853515625,0.1845703125
0.804,321,3147,402,383,15.0,29.0,10.0,-9.033203125,-7.995604991912842,-17.76123046875,-0.6884765625,0.2047119140625,0.11767578125
0.811,321,3147,404,638,15.0,29.0,10.0,-10.314940452575684,-9.3994140625,-13.793944358825684,-0.7169189453125,0.1634521484375,0.0673828125
0.817,322,3147,426,788,15.0,29.0,10.0,-12.695311546325684,-10.986327171325684,-9.765625,-0.7391357421875,0.139892578125,0.0281982421875
0.825,327,3147,430,1236,15.0,29.0,10.0,-15.747069358825684,-13.000487327575684,-5.737304210662842,-0.7462158203125,0.1168212890625,0.0079345703125
0.834,330,3147,438,1422,15.0,29.0,10.0,-16.66259765625,-15.319823265075684,-0.7934569716453552,-0.7451171875,0.089111328125,0.005859375
0.838,332,3147,461,1652,15.0,29.0,10.0,-14.038084983825684,-17.63916015625,6.042479991912842,-0.7381591796875,0.0560302734375,0.0003662109375
0.852,338,3147,508,2014,13.0,32.0,9.0,-10.742186546325684,-19.95849609375,13.793944358825684,-0.6865234375,0.0172119140625,-0.0137939453125
0.889,338,3147,574,2213,13.0,32.0,9.0,-7.507323741912842,-22.583005905151367,19.34814453125,-0.57470703125,0.028076171875,-0.00927734375
0.889,348,3147,562,2409,13.0,32.0,9.0,-4.0283203125,-25.695798873901367,19.71435546875,-0.4439697265625,0.127685546875,0.040283203125
0.889,372,3147,698,2801,13.0,32.0,9.0,-5.493163585662842,-28.381345748901367,12.756346702575684,-0.3232421875,0.2564697265625,0.15185546875
0.891,385,3147,843,2981,13.0,32.0,9.0,-16.29638671875,-28.137205123901367,-0.54931640625,-0.2410888671875,0.33740234375,0.276123046875
0.911,411,3147,1103,3147,13.0,32.0,9.0,-30.273435592651367,-24.536130905151367,-15.930174827575684,-0.2249755859375,0.3787841796875,0.311279296875
0.912,433,3147,1666,3147,13.0,32.0,9.0,-40.161128997802734,-20.263669967651367,-27.709959030151367,-0.236572265625,0.4156494140625,0.244140625
0.922,445,3147,2068,3147,13.0,32.0,9.0,-42.297359466552734,-18.9208984375,-31.982419967651367,-0.2899169921875,0.5050048828125,0.112060546875
0.933,466,3147,2290,3147,13.0,32.0,9.0,-37.04833984375,-21.545408248901367,-30.029294967651367,-0.6292724609375,0.6934814453125,-0.0701904296875
0.942,484,3147,2884,3147,13.0,32.0,9.0,-35.5224609375,-23.010251998901367,-23.925779342651367,-1.3082275390625,0.7301025390625,-0.16552734375
0.950,490,3147,3093,3147,15.0,32.0,6.0,-48.706050872802734,-20.01953125,-12.329100608825684,-1.9520263671875,0.3380126953125,0.01611328125
0.961,504,3147,3147,3147,15.0,32.0,6.0,-61.889644622802734,-15.747069358825684,1.8310545682907104,-2.4368896484375,-0.1168212890625,0.29931640625
0.977,543,3147,3147,3147,15.0,32.0,6.0,-52.795406341552734,-10.925292015075684,17.39501953125,-2.79736328125,-0.1195068359375,0.4644775390625
0.981,497,3147,3098,3147,15.0,32.0,6.0,-24.291990280151367,-5.371093273162842,36.31591796875,-2.78466796875,0.12890625,0.38037109375
0.998,495,3147,2927,3147,15.0,32.0,6.0,9.6435546875,0.9765624403953552,49.499507904052734,-1.9906005859375,0.3487548828125,0.13818359375
1.008,494,3147,2850,3147,15.0,32.0,6.0,41.442867279052734,6.591796398162842,41.564937591552734,-0.933837890625,0.7923583984375,0.015625
1.014,480,3147,2842,3147,15.0,32.0,6.0,53.100582122802734,10.253905296325684,13.183592796325684,-0.7113037109375,1.3602294921875,0.0059814453125
1.019,494,3147,2829,3147,15.0,32.0,6.0,53.100582122802734,10.253905296325684,13.183592796325684,-1.30078125,1.3560791015625,0.0765380859375
1.032,490,3147,2593,3147,15.0,32.0,6.0,-26.489255905151367,15.686034202575684,-34.72900390625,-1.945068359375,0.71142578125,0.2354736328125
1.040,486,3147,2467,3147,15.0,32.0,6.0,-45.715328216552734,13.366698265075684,-28.869626998901367,-2.12255859375,0.1241455078125,0.35986328125
1.049,485,3147,2333,3147,12.0,28.0,11.0,-45.715328216552734,13.366698265075684,-28.869626998901367,-1.8714599609375,-0.0037841796875,0.318603515625
1.078,483,3147,2100,3147,12.0,28.0,11.0,17.15087890625,1.4648436307907104,14.465331077575684,-1.4947509765625,0.12939453125,0.1827392578125
1.081,483,3147,1973,3147,12.0,28.0,11.0,34.11865234375,1.15966796875,23.254392623901367,-1.205810546875,0.236328125,0.10400390625
1.082,473,3147,1790,3147,12.0,28.0,11.0,34.11865234375,1.15966796875,23.254392623901367,-0.998291015625,0.300048828125,0.1378173828125
1.112,465,3147,1499,3147,12.0,28.0,11.0,25.695798873901367,10.925292015075684,21.484373092651367,-0.8099365234375,0.3914794921875,0.162109375
1.116,455,3147,1275,3110,12.0,28.0,11.0,28.564451217651367,15.624999046325684,19.04296875,-0.667236328125,0.50244140625,0.104736328125
1.117,438,3147,944,2637,12.0,28.0,11.0,28.564451217651367,15.624999046325684,19.04296875,-0.5697021484375,0.52392578125,0.008544921875
1.123,400,3147,648,1878,12.0,28.0,11.0,20.751951217651367,22.583005905151367,-5.920409679412842,-0.5040283203125,0.3536376953125,-0.0858154296875
1.130,376,3147,576,1490,12.0,28.0,11.0,10.314940452575684,23.071287155151367,-21.484373092651367,-0.468017578125,0.1121826171875,-0.1243896484375
1.150,360,3147,527,1173,12.0,28.0,11.0,10.314940452575684,23.071287155151367,-21.484373092651367,-0.4569091796875,-0.0274658203125,-0.1171875
1.158,338,3147,399,677,14.0,31.0,9.0,5.0048828125,21.362302780151367,-32.470703125,-0.486083984375,-0.00830078125,-0.0689697265625
1.182,333,3147,402,359,14.0,31.0,9.0,7.019042491912842,21.240232467651367,-26.794431686401367,-0.5228271484375,0.081298828125,0.05810546875
1.187,326,3034,404,354,14.0,31.0,9.0,7.019042491912842,21.240232467651367,-26.794431686401367,-0.533447265625,0.1279296875,0.19140625
1.218,322,2604,411,324,14.0,31.0,9.0,9.765625,14.770506858825684,-17.9443359375,-0.543212890625,0.15625,0.215576171875
1.224,315,2580,430,346,14.0,31.0,9.0,11.352538108825684,12.878417015075684,-18.6767578125,-0.546875,0.2099609375,0.1517333984375
1.228,318,2517,376,338,14.0,31.0,9.0,11.352538108825684,12.878417015075684,-18.6767578125,-0.56103515625,0.2904052734375,0.099853515625
1.235,318,2620,373,338,14.0,31.0,9.0,8.544921875,9.82666015625,-19.83642578125,-0.5997314453125,0.3729248046875,0.0921630859375
1.245,321,2741,369,338,14.0,31.0,9.0,6.774901866912842,5.920409679412842,-17.15087890625,-0.6409912109375,0.4302978515625,0.1031494140625
1.253,316,2833,361,338,14.0,31.0,9.0,6.774901866912842,5.920409679412842,-17.15087890625,-0.68701171875,0.421630859375,0.13427734375
1.284,321,3044,388,346,14.0,29.0,8.0,2.25830078125,-4.638671875,-12.084959983825684,-0.74609375,0.32763671875,0.149169921875
1.292,323,3147,391,346,14.0,29.0,8.0,0.0,-7.385253429412842,-13.061522483825684,-0.814697265625,0.210205078125,0.1181640625
1.319,323,3147,440,402,14.0,29.0,8.0,0.0,-7.385253429412842,-13.061522483825684,-0.8797607421875,0.14306640625,0.073486328125
1.331,324,3147,452,614,14.0,29.0,8.0,2.13623046875,-7.385253429412842,-11.413573265075684,-0.9166259765625,0.1258544921875,0.042724609375
1.336,324,3147,423,761,14.0,29.0,8.0,5.065917491912842,-8.544921875,-7.873534679412842,-0.9171142578125,0.125732421875,0.0343017578125
1.340,327,3147,442,853,14.0,29.0,8.0,5.065917491912842,-8.544921875,-7.873534679412842,-0.8953857421875,0.126953125,0.038818359375
1.343,328,3147,469,1198,14.0,29.0,8.0,13.366698265075684,-16.2353515625,0.30517578125,-0.860107421875,0.123291015625,0.041015625
1.346,333,3147,466,1302,14.0,29.0,8.0,19.47021484375,-20.874021530151367,4.33349609375,-0.8150634765625,0.1177978515625,0.03466796875
1.349,319,3147,478,1444,14.0,29.0,8.0,19.47021484375,-20.874021530151367,4.33349609375,-0.75390625,0.1304931640625,0.0081787109375
1.352,337,3147,501,1643,14.0,29.0,8.0,25.451658248901367,-25.146482467651367,7.995604991912842,-0.75390625,0.1304931640625,0.0081787109375
1.355,351,3147,525,2019,15.0,29.0,10.0,24.780271530151367,-31.005857467651367,11.596678733825684,-0.5760498046875,0.3092041015625,0.05322265625
1.357,354,3147,606,2197,15.0,29.0,10.0,24.780271530151367,-31.005857467651367,11.596678733825684,-0.498046875,0.344970703125,0.0802001953125
1.360,371,3147,739,2440,15.0,29.0,10.0,14.038084983825684,-31.616209030151367,7.995604991912842,-0.498046875,0.344970703125,0.0802001953125
1.387,398,3147,1018,2848,15.0,29.0,10.0,-2.746581792831421,-33.87451171875,-6.835937023162842,-0.2938232421875,0.1566162109375,-0.0003662109375
1.387,418,3147,1357,3106,15.0,29.0,10.0,-2.746581792831421,-33.87451171875,-6.835937023162842,-0.2230224609375,0.1534423828125,-0.0546875
1.390,426,3147,1681,3147,15.0,29.0,10.0,3.723144292831421,-39.00146484375,-10.559081077575684,-0.2230224609375,0.1534423828125,-0.0546875
1.403,458,3147,2244,3147,15.0,29.0,10.0,21.606443405151367,-52.368160247802734,-11.413573265075684,-0.1634521484375,0.5140380859375,0.138916015625
1.425,466,3147,2552,3147,15.0,29.0,10.0,21.606443405151367,-52.368160247802734,-11.413573265075684,-0.439697265625,0.5062255859375,0.327880859375
1.425,468,3147,2861,3147,15.0,29.0,10.0,16.29638671875,-56.762691497802734,-17.7001953125,-0.439697265625,0.5062255859375,0.327880859375
1.444,498,3147,3147,3147,15.0,29.0,10.0,-21.850584030151367,-51.391597747802734,-34.0576171875,-1.52294921875,-0.07861328125,0.4501953125
1.444,603,3147,3147,3147,16.0,27.0,15.0,-21.850584030151367,-51.391597747802734,-34.0576171875,-1.911376953125,-0.0823974609375,0.3245849609375
1.450,711,3147,3147,3147,16.0,27.0,15.0,-24.536130905151367,-41.870113372802734,-27.465818405151367,-1.911376953125,-0.0823974609375,0.3245849609375
1.465,827,3147,3147,3147,16.0,27.0,15.0,22.521970748901367,-24.475095748901367,17.7001953125,-2.32861328125,0.3634033203125,0.1319580078125
1.488,840,3147,3147,3147,16.0,27.0,15.0,22.521970748901367,-24.475095748901367,17.7001953125,-2.3428955078125,0.4036865234375,0.2823486328125
1.488,765,3147,3147,3147,16.0,27.0,15.0,29.541013717651367,-20.507810592651367,36.9873046875,-2.3428955078125,0.4036865234375,0.2823486328125
1.493,593,3147,3147,3147,16.0,27.0,15.0,21.362302780151367,-9.21630859375,35.64453125,-1.28515625,0.6964111328125,0.267822265625
1.502,525,3147,3147,3147,16.0,27.0,15.0,21.362302780151367,-9.21630859375,35.64453125,-0.7474365234375,1.1480712890625,0.144287109375
1.510,527,3147,3147,3147,16.0,27.0,15.0,20.385740280151367,4.33349609375,7.141112804412842,-0.7474365234375,1.1480712890625,0.144287109375
1.525,504,3147,3147,3147,16.0,27.0,15.0,-37.353515625,27.282712936401367,-55.541988372802734,-1.566162109375,0.820068359375,0.157958984375
1.532,507,3147,3071,3147,16.0,27.0,15.0,-37.353515625,27.282712936401367,-55.541988372802734,-2.1187744140625,0.0853271484375,0.2427978515625
1.541,508,3147,2984,3147,14.0,28.0,17.0,-67.626953125,25.756834030151367,-59.326168060302734,-2.1187744140625,0.0853271484375,0.2427978515625
1.554,497,3147,2810,3147,14.0,28.0,17.0,-20.507810592651367,6.164550304412842,-8.11767578125,-1.6954345703125,-0.1839599609375,0.3653564453125
1.561,495,3147,2713,3147,14.0,28.0,17.0,-20.507810592651367,6.164550304412842,-8.11767578125,-1.324462890625,0.023193359375,0.349609375
1.570,495,3147,2561,3147,14.0,28.0,17.0,12.695311546325684,0.6103515625,14.465331077575684,-1.324462890625,0.023193359375,0.349609375
1.583,485,3147,2235,3147,14.0,28.0,17.0,19.775390625,4.45556640625,23.559568405151367,-0.9676513671875,0.2127685546875,0.3094482421875
1.591,482,3147,2053,3147,14.0,28.0,17.0,14.709471702575684,13.549803733825684,27.404783248901367,-0.9676513671875,0.2127685546875,0.3094482421875
1.599,481,3147,1838,3147,14.0,28.0,17.0,16.4794921875,21.972654342651367,31.311033248901367,-0.8448486328125,0.385986328125,0.228759765625
1.636,458,3147,1422,2612,14.0,28.0,17.0,22.094724655151367,28.198240280151367,30.395505905151367,-0.6595458984375,0.657958984375,-0.019775390625
1.643,433,3147,1155,2117,14.0,28.0,17.0,16.29638671875,32.3486328125,20.446775436401367,-0.6595458984375,0.657958984375,-0.019775390625
1.648,409,3147,905,1607,14.0,28.0,17.0,-2.685546636581421,34.3017578125,5.065917491912842,-0.6094970703125,0.4676513671875,-0.1024169921875
1.651,364,3147,607,679,14.0,32.0,9.0,-21.728513717651367,33.99658203125,-9.33837890625,-0.5850830078125,-0.06201171875,-0.1077880859375
1.654,347,2713,487,376,14.0,32.0,9.0,-28.503416061401367,31.677244186401367,-18.4326171875,-0.5850830078125,-0.06201171875,-0.1077880859375
1.671,336,2111,344,343,14.0,32.0,9.0,-23.193357467651367,26.916501998901367,-21.118162155151367,-0.5789794921875,-0.1435546875,-0.030029296875
1.692,324,1398,323,332,14.0,32.0,9.0,-13.916014671325684,21.179197311401367,-19.287109375,-0.55810546875,-0.05419921875,0.130126953125
1.696,321,1251,336,331,14.0,32.0,9.0,-6.896972179412842,17.4560546875,-15.930174827575684,-0.55810546875,-0.05419921875,0.130126953125
1.699,317,815,332,334,14.0,32.0,9.0,-1.5258787870407104,15.502928733825684,-11.718749046325684,-0.615234375,-0.0255126953125,0.1849365234375
1.707,316,507,330,321,14.0,32.0,9.0,6.164550304412842,14.709471702575684,-5.249022960662842,-0.6749267578125,0.2755126953125,0.1278076171875
1.714,314,590,330,330,14.0,32.0,9.0,16.54052734375,15.624999046325684,3.723144292831421,-0.6749267578125,0.2755126953125,0.1278076171875
1.727,310,617,344,328,14.0,32.0,9.0,20.263669967651367,13.854979515075684,9.1552734375,-0.609375,0.4453125,0.191162109375
1.740,313,725,416,328,15.0,29.0,12.0,11.962889671325684,7.019042491912842,4.82177734375,-0.61865234375,0.4364013671875,0.2821044921875
1.743,311,751,424,331,15.0,29.0,12.0,0.4882812201976776,0.1831054538488388,-4.5166015625,-0.61865234375,0.4364013671875,0.2821044921875
1.751,315,793,430,332,15.0,29.0,12.0,-4.33349609375,-4.638671875,-10.803221702575684,-0.6641845703125,0.421875,0.2479248046875
1.766,316,948,411,332,15.0,29.0,12.0,-1.220703125,-7.385253429412842,-12.329100608825684,-0.71630859375,0.3201904296875,0.05810546875
1.795,316,1417,445,336,15.0,29.0,12.0,3.173827886581421,-8.11767578125,-12.268065452575684,-0.71630859375,0.3201904296875,0.05810546875
1.797,316,1653,437,342,15.0,29.0,12.0,3.234863042831421,-8.23974609375,-12.023924827575684,-0.7410888671875,0.2049560546875,-0.0037841796875
1.799,322,2277,409,338,15.0,29.0,12.0,1.6479490995407104,-9.21630859375,-10.620116233825684,-0.7625732421875,0.107421875,-0.0133056640625
1.804,321,2472,357,336,15.0,29.0,12.0,1.9531248807907104,-11.230467796325684,-7.568358898162842,-0.7750244140625,0.0543212890625,0.0152587890625
1.812,324,2739,430,354,15.0,29.0,12.0,2.685546636581421,-13.244627952575684,-2.746581792831421,-0.7763671875,0.0347900390625,0.041015625
1.832,328,3147,444,365,15.0,29.0,12.0,2.807616949081421,-14.526366233825684,3.601073980331421,-0.7696533203125,0.0458984375,0.053955078125
1.844,332,3147,532,605,13.0,28.0,12.0,1.7700194120407104,-15.197752952575684,10.986327171325684,-0.74267578125,0.0794677734375,0.05322265625
1.846,334,3147,553,855,13.0,28.0,12.0,-1.0986328125,-15.686034202575684,18.24951171875,-0.6903076171875,0.1260986328125,0.0330810546875
1.855,347,3147,578,1292,13.0,28.0,12.0,-3.967284917831421,-17.2119140625,23.315427780151367,-0.6395263671875,0.1851806640625,0.032470703125
1.864,355,3147,666,1560,13.0,28.0,12.0,-4.8828125,-20.812986373901367,24.963376998901367,-0.5777587890625,0.2392578125,0.060791015625
1.871,371,3147,869,1826,13.0,28.0,12.0,-4.94384765625,-25.756834030151367,23.620603561401367,-0.4796142578125,0.2451171875,0.088623046875
1.897,404,3147,1377,2254,13.0,28.0,12.0,-5.310058116912842,-30.029294967651367,19.6533203125,-0.3739013671875,0.19873046875,0.1114501953125
1.899,430,3147,1761,2568,13.0,28.0,12.0,-6.164550304412842,-33.14208984375,12.512206077575684,-0.2698974609375,0.168212890625,0.1328125
1.900,438,3147,2010,2746,13.0,28.0,12.0,-6.408690929412842,-35.64453125,1.5869139432907104,-0.1947021484375,0.248046875,0.126953125
1.913,465,3147,2505,3147,13.0,28.0,12.0,-7.202147960662842,-38.14697265625,-12.756346702575684,-0.15185546875,0.40283203125,0.1142578125
1.935,478,3147,2807,3147,13.0,28.0,12.0,-14.709471702575684,-40.344234466552734,-29.418943405151367,-0.30908203125,0.5592041015625,0.1627197265625
1.936,484,3147,3012,3147,15.0,29.0,12.0,-30.883787155151367,-41.259761810302734,-44.128414154052734,-0.7908935546875,0.5887451171875,0.3309326171875
1.950,561,3147,3147,3147,15.0,29.0,12.0,-50.964351654052734,-39.1845703125,-49.377437591552734,-1.4423828125,0.4342041015625,0.5557861328125
1.952,693,3147,3147,3147,15.0,29.0,12.0,-63.964839935302734,-32.8369140625,-38.818359375,-1.99169921875,0.186279296875,0.6712646484375
1.960,774,3147,3147,3147,15.0,29.0,12.0,-60.302730560302734,-23.193357467651367,-15.869139671325684,-2.3001708984375,-0.174072265625,0.5447998046875
1.973,830,3147,3147,3147,15.0,29.0,12.0,-38.6962890625,-12.512206077575684,12.268065452575684,-2.4696044921875,-0.3756103515625,0.42822265625
1.982,793,3147,3147,3147,15.0,29.0,12.0,1.2817381620407104,-6.896972179412842,44.982906341552734,-2.4075927734375,-0.2607421875,0.4173583984375
2.007,725,3147,3147,3147,15.0,29.0,12.0,48.400875091552734,-3.417968511581421,70.49560546875,-1.961669921875,0.0999755859375,0.2413330078125
2.007,587,3147,3147,3147,15.0,29.0,12.0,75.74462890625,9.8876953125,70.73974609375,-1.205810546875,0.748046875,0.1171875
2.012,579,3147,3147,3147,15.0,29.0,12.0,61.767574310302734,30.761716842651367,44.555660247802734,-0.677734375,1.30615234375,0.1724853515625
2.020,567,3147,3147,3147,15.0,29.0,12.0,9.1552734375,50.231929779052734,6.713866710662842,-0.8140869140625,1.35986328125,0.2579345703125
2.036,500,3147,3147,3147,18.0,28.0,12.0,-50.354000091552734,61.828609466552734,-24.414060592651367,-1.448486328125,1.010009765625,0.2806396484375
2.043,497,3147,3098,3147,18.0,28.0,12.0,-82.33641815185547,62.072750091552734,-36.2548828125,-2.0516357421875,0.4940185546875,0.2059326171875
2.057,497,3147,2984,3147,18.0,28.0,12.0,-78.30810546875,52.307125091552734,-28.564451217651367,-2.18603515625,0.066650390625,0.173583984375
2.063,490,3147,2695,3147,18.0,28.0,12.0,-49.072261810302734,37.109375,-11.169432640075684,-1.93994140625,-0.0634765625,0.2117919921875
2.072,484,3147,2487,3147,18.0,28.0,12.0,-14.770506858825684,23.315427780151367,5.493163585662842,-1.6036376953125,0.0074462890625,0.24853515625
2.080,484,3147,2284,3147,18.0,28.0,12.0,8.23974609375,17.02880859375,16.41845703125,-1.3199462890625,0.1390380859375,0.2860107421875
2.103,470,3147,1874,3144,18.0,28.0,12.0,20.385740280151367,19.04296875,23.376462936401367,-1.051513671875,0.2845458984375,0.2838134765625
2.105,462,3147,1652,2769,18.0,28.0,12.0,27.770994186401367,25.573728561401367,27.404783248901367,-0.802490234375,0.41748046875,0.1705322265625
2.118,440,3147,1370,2367,18.0,28.0,12.0,28.076169967651367,33.3251953125,24.597166061401367,-0.6346435546875,0.5205078125,0.0103759765625
2.124,401,3147,986,1488,15.0,30.0,9.0,15.075682640075684,39.794921875,12.145995140075684,-0.5592041015625,0.49365234375,-0.111572265625
2.138,375,3147,860,922,15.0,30.0,9.0,-7.446288585662842,43.395992279052734,-6.896972179412842,-0.5660400390625,0.306640625,-0.2044677734375
2.140,354,3147,677,400,15.0,30.0,9.0,-26.855466842651367,43.579097747802734,-24.536130905151367,-0.6019287109375,0.0953369140625,-0.251953125
2.154,336,1850,428,360,15.0,30.0,9.0,-34.72900390625,40.161128997802734,-34.11865234375,-0.6015625,-0.0341796875,-0.196533203125
2.163,328,1494,400,355,15.0,30.0,9.0,-32.3486328125,33.447265625,-34.0576171875,-0.53076171875,-0.0728759765625,-0.08154296875
2.170,321,1289,364,336,15.0,30.0,9.0,-25.207517623901367,26.367185592651367,-27.770994186401367,-0.4461669921875,-0.0648193359375,0.0411376953125
2.183,314,639,439,332,15.0,30.0,9.0,-14.587401390075684,21.850584030151367,-19.8974609375,-0.480712890625,-0.0364990234375,0.1441650390625
2.204,313,497,466,325,15.0,30.0,9.0,-1.0986328125,19.95849609375,-10.986327171325684,-0.5946044921875,0.0152587890625,0.1976318359375
2.204,313,438,402,327,15.0,30.0,9.0,12.634276390075684,19.04296875,-0.8544921278953552,-0.6456298828125,0.095703125,0.2545166015625
2.213,313,430,447,328,15.0,30.0,9.0,24.414060592651367,15.686034202575684,6.469726085662842,-0.63134765625,0.24169921875,0.3331298828125
2.222,312,462,473,324,16.0,29.0,14.0,29.113767623901367,7.995604991912842,6.835937023162842,-0.611572265625,0.365966796875,0.3743896484375
2.247,310,482,479,326,16.0,29.0,14.0,24.963376998901367,-1.4648436307907104,1.9531248807907104,-0.6051025390625,0.378662109375,0.3206787109375
2.247,310,593,470,323,16.0,29.0,14.0,18.73779296875,-8.23974609375,-2.13623046875,-0.5845947265625,0.3436279296875,0.19140625
2.252,310,642,458,324,16.0,29.0,14.0,13.366698265075684,-10.681151390075684,-3.234863042831421,-0.5655517578125,0.2899169921875,0.0694580078125
2.261,310,891,456,333,16.0,29.0,14.0,13.366698265075684,-10.681151390075684,-3.234863042831421,-0.60107421875,0.2283935546875,0.007568359375
2.274,310,1583,446,330,16.0,29.0,14.0,7.507323741912842,-8.1787109375,-4.7607421875,-0.683349609375,0.1715087890625,-0.0052490234375
2.282,316,1943,499,334,16.0,29.0,14.0,10.192870140075684,-8.48388671875,-5.310058116912842,-0.766845703125,0.1219482421875,-0.0069580078125
2.308,316,2257,430,334,16.0,29.0,14.0,10.192870140075684,-8.48388671875,-5.310058116912842,-0.8074951171875,0.0968017578125,-0.026611328125
2.308,316,3025,514,345,16.0,29.0,14.0,16.78466796875,-15.563963890075684,-1.5869139432907104,-0.809814453125,0.103759765625,-0.0460205078125
2.313,323,3147,525,401,16.0,29.0,14.0,18.6767578125,-19.8974609375,2.197265625,-0.7965087890625,0.1383056640625,-0.0399169921875
2.320,327,3147,506,707,15.0,28.0,9.0,18.6767578125,-19.8974609375,2.197265625,-0.7625732421875,0.2049560546875,-0.0167236328125
2.345,330,3147,551,971,15.0,28.0,9.0,20.874021530151367,-23.559568405151367,6.164550304412842,-0.6947021484375,0.2886962890625,-0.01416015625
2.346,346,3147,603,1548,15.0,28.0,9.0,16.7236328125,-27.587888717651367,9.6435546875,-0.6260986328125,0.36376953125,-0.0096435546875
2.354,352,3147,710,1739,15.0,28.0,9.0,7.934569835662842,-28.076169967651367,7.385253429412842,-0.593017578125,0.389892578125,0.041748046875
2.361,364,3147,864,2012,15.0,28.0,9.0,7.934569835662842,-28.076169967651367,7.385253429412842,-0.593017578125,0.389892578125,0.041748046875
2.377,401,3147,1395,2375,15.0,28.0,9.0,-8.4228515625,-30.212400436401367,2.990722417831421,-0.548095703125,0.2176513671875,0.14404296875
2.382,414,3147,1662,2579,15.0,28.0,9.0,-8.4228515625,-30.212400436401367,2.990722417831421,-0.4537353515625,0.163330078125,0.2020263671875
2.389,426,3147,1852,2847,15.0,28.0,9.0,-11.291502952575684,-33.38623046875,0.9155272841453552,-0.4537353515625,0.163330078125,0.2020263671875
2.411,439,3147,2279,3147,15.0,28.0,9.0,-26.611326217651367,-39.4287109375,-13.732909202575684,-0.291748046875,0.39697265625,0.372314453125
2.412,455,3147,2557,3147,15.0,28.0,9.0,-26.611326217651367,-39.4287109375,-13.732909202575684,-0.4146728515625,0.5286865234375,0.4102783203125
2.419,465,3147,2780,3147,18.0,29.0,14.0,-48.278804779052734,-36.80419921875,-27.099607467651367,-0.4146728515625,0.5286865234375,0.4102783203125
2.447,484,3147,3046,3147,18.0,29.0,14.0,-91.61376190185547,-21.606443405151367,-46.081539154052734,-1.29248046875,0.498779296875,0.249755859375
2.447,490,3147,3147,3147,18.0,29.0,14.0,-91.61376190185547,-21.606443405151367,-46.081539154052734,-1.8134765625,0.3994140625,0.0689697265625
2.457,526,3147,3147,3147,18.0,29.0,14.0,-100.15868377685547,-11.291502952575684,-47.851558685302734,-1.8134765625,0.3994140625,0.0689697265625
2.465,694,3147,3147,3147,18.0,29.0,14.0,-82.64159393310547,-1.5258787870407104,-31.005857467651367,-2.3031005859375,-0.0655517578125,0.0936279296875
2.471,723,3147,3147,3147,18.0,29.0,14.0,-82.64159393310547,-1.5258787870407104,-31.005857467651367,-2.3001708984375,-0.23046875,0.36767578125
2.485,678,3147,3147,3147,18.0,29.0,14.0,-61.035152435302734,-4.7607421875,-16.7236328125,-2.3001708984375,-0.23046875,0.36767578125
2.493,590,3147,3147,3147,18.0,29.0,14.0,-9.46044921875,4.2724609375,7.629394054412842,-1.3553466796875,-0.148681640625,0.4095458984375
2.511,497,3147,3147,3147,18.0,29.0,14.0,-9.46044921875,4.2724609375,7.629394054412842,-0.862060546875,0.236083984375,0.2889404296875
2.511,487,3147,3120,3147,18.0,29.0,14.0,5.493163585662842,22.521970748901367,9.09423828125,-0.862060546875,0.236083984375,0.2889404296875
2.524,484,3147,2985,3147,17.0,29.0,7.0,-20.874021530151367,51.147457122802734,-9.58251953125,-1.103271484375,0.646240234375,0.1417236328125
2.532,482,3147,2900,3147,17.0,29.0,7.0,-20.874021530151367,51.147457122802734,-9.58251953125,-1.6217041015625,0.46630859375,0.1273193359375
2.546,481,3147,2827,3147,17.0,29.0,7.0,-39.48974609375,50.415035247802734,-17.27294921875,-1.6217041015625,0.46630859375,0.1273193359375
2.553,479,3147,2665,3147,17.0,29.0,7.0,-27.893064498901367,20.629880905151367,2.0751953125,-2.00048828125,-0.0284423828125,0.1668701171875
2.569,473,3147,2568,3147,17.0,29.0,7.0,-27.893064498901367,20.629880905151367,2.0751953125,-1.7254638671875,-0.08203125,0.28857421875
2.569,470,3147,2449,3147,17.0,29.0,7.0,-0.6103515625,7.202147960662842,21.423337936401367,-1.7254638671875,-0.08203125,0.28857421875
2.589,465,3147,2195,3147,17.0,29.0,7.0,25.817869186401367,2.01416015625,36.7431640625,-1.1134033203125,0.1378173828125,0.4801025390625
2.591,462,3147,2010,3147,17.0,29.0,7.0,42.236324310302734,4.5166015625,45.959468841552734,-1.1134033203125,0.1378173828125,0.4801025390625
2.617,455,3147,1838,3003,17.0,29.0,7.0,47.729488372802734,12.207030296325684,48.583980560302734,-0.8934326171875,0.28564453125,0.324951171875
2.617,438,3147,1545,2507,17.0,29.0,7.0,41.992183685302734,22.399900436401367,43.273921966552734,-0.7296142578125,0.3638916015625,-0.119873046875
2.621,425,3147,1379,2170,15.0,29.0,4.0,26.977537155151367,30.395505905151367,31.555173873901367,-0.7296142578125,0.3638916015625,-0.119873046875
2.629,411,3147,1222,1801,15.0,29.0,4.0,11.474608421325684,32.40966796875,18.6767578125,-0.7203369140625,0.2969970703125,-0.2489013671875
2.651,375,3147,1054,867,15.0,29.0,4.0,3.540038824081421,28.625486373901367,8.72802734375,-0.6900634765625,0.224365234375,-0.2431640625
2.651,346,3147,854,385,15.0,29.0,4.0,3.356933355331421,22.949216842651367,2.624511480331421,-0.6900634765625,0.224365234375,-0.2431640625
2.660,351,2630,666,385,15.0,29.0,4.0,6.469726085662842,18.4326171875,-0.30517578125,-0.602783203125,0.146728515625,-0.1201171875
2.682,336,2257,508,359,15.0,29.0,4.0,10.192870140075684,15.197752952575684,-2.01416015625,-0.464599609375,0.0213623046875,0.1907958984375
2.683,330,2008,468,354,15.0,29.0,4.0,13.793944358825684,12.878417015075684,-3.112792730331421,-0.464599609375,0.0213623046875,0.1907958984375
2.695,328,1711,444,351,15.0,29.0,4.0,17.578125,11.657713890075684,-3.417968511581421,-0.4835205078125,0.021240234375,0.2799072265625
2.717,321,1662,383,342,15.0,29.0,4.0,22.033689498901367,11.047362327575684,-2.624511480331421,-0.6822509765625,0.1097412109375,0.208251953125
2.717,321,1559,391,344,13.0,28.0,9.0,26.306150436401367,10.314940452575684,0.30517578125,-0.6822509765625,0.1097412109375,0.208251953125
2.719,316,1516,388,345,13.0,28.0,9.0,31.188962936401367,8.23974609375,5.493163585662842,-0.7056884765625,0.164306640625,0.15625
2.732,318,1809,437,344,13.0,28.0,9.0,37.59765625,4.638671875,10.803221702575684,-0.65185546875,0.3355712890625,0.173095703125
2.758,318,1954,411,344,13.0,28.0,9.0,41.687007904052734,0.1831054538488388,13.671874046325684,-0.65185546875,0.3355712890625,0.173095703125
2.758,304,2178,447,344,13.0,28.0,9.0,39.4287109375,-3.784179449081421,13.427733421325684,-0.6641845703125,0.3927001953125,0.2181396484375
2.763,321,2543,430,345,13.0,28.0,9.0,29.602048873901367,-5.371093273162842,10.803221702575684,-0.76953125,0.349853515625,0.1661376953125
2.771,324,2808,416,347,13.0,28.0,9.0,15.563963890075684,-4.2724609375,7.202147960662842,-0.76953125,0.349853515625,0.1661376953125
2.779,324,2938,445,356,13.0,28.0,9.0,6.042479991912842,-2.25830078125,4.0283203125,-0.7913818359375,0.2718505859375,0.0633544921875
2.823,324,3147,526,526,13.0,28.0,9.0,4.8828125,-1.8920897245407104,2.01416015625,-0.7862548828125,0.206787109375,-0.0858154296875
2.823,329,3147,484,780,13.0,28.0,9.0,7.812499523162842,-4.39453125,1.2817381620407104,-0.7862548828125,0.206787109375,-0.0858154296875
2.823,334,3147,523,1029,14.0,31.0,6.0,10.314940452575684,-8.72802734375,2.25830078125,-0.7603759765625,0.2056884765625,-0.0950927734375
2.824,321,3147,634,1474,14.0,31.0,6.0,11.718749046325684,-13.732909202575684,5.493163585662842,-0.728515625,0.2015380859375,-0.0665283203125
2.833,345,3147,644,1687,14.0,31.0,6.0,12.145995140075684,-18.12744140625,10.498045921325684,-0.6827392578125,0.2086181640625,-0.014892578125
2.839,348,3147,800,1912,14.0,31.0,6.0,10.498045921325684,-21.179197311401367,15.258788108825684,-0.6229248046875,0.2462158203125,0.054443359375
2.858,371,3147,1005,2194,14.0,31.0,6.0,5.554198741912842,-23.559568405151367,17.02880859375,-0.5545654296875,0.2855224609375,0.1021728515625
2.861,383,3147,1160,2478,14.0,31.0,6.0,-2.807616949081421,-25.817869186401367,14.953612327575684,-0.4578857421875,0.266845703125,0.11767578125
2.873,406,3147,1440,2770,14.0,31.0,6.0,-11.657713890075684,-28.198240280151367,10.131834983825684,-0.332763671875,0.1656494140625,0.11962890625
2.882,437,3147,2141,3106,14.0,31.0,6.0,-13.305663108825684,-31.616209030151367,4.33349609375,-0.2294921875,0.0693359375,0.103759765625
2.891,454,3147,2421,3147,14.0,31.0,6.0,-5.920409679412842,-36.62109375,-1.7089842557907104,-0.193115234375,0.1175537109375,0.1556396484375
2.899,464,3147,2664,3147,14.0,31.0,6.0,0.7934569716453552,-41.625972747802734,-9.82666015625,-0.2764892578125,0.233642578125,0.2691650390625
2.927,478,3147,3089,3147,16.0,29.0,10.0,-3.173827886581421,-43.029781341552734,-22.888181686401367,-0.5465087890625,0.3114013671875,0.3428955078125
2.928,487,3147,3147,3147,16.0,29.0,10.0,-17.51708984375,-39.12353515625,-38.4521484375,-0.92626953125,0.306640625,0.3521728515625
2.929,559,3147,3147,3147,16.0,29.0,10.0,-32.8369140625,-31.433103561401367,-49.865718841552734,-1.3582763671875,0.240478515625,0.3211669921875
2.943,793,3147,3147,3147,16.0,29.0,10.0,-39.00146484375,-21.606443405151367,-48.950191497802734,-1.821044921875,0.2996826171875,0.2491455078125
2.956,854,3147,3147,3147,16.0,29.0,10.0,-35.7666015625,-11.230467796325684,-32.2265625,-2.211669921875,0.3065185546875,0.170654296875
2.959,887,3147,3147,3147,16.0,29.0,10.0,-29.418943405151367,-2.563476324081421,-6.469726085662842,-2.4918212890625,0.0731201171875,0.202880859375
2.973,714,3147,3147,3147,16.0,29.0,10.0,-16.845703125,1.3427733182907104,21.240232467651367,-2.5177001953125,-0.1781005859375,0.314697265625
2.981,567,3147,3147,3147,16.0,29.0,10.0,9.33837890625,1.5869139432907104,44.250484466552734,-1.986328125,-0.218994140625,0.321533203125
2.989,499,3147,3147,3147,16.0,29.0,10.0,44.189449310302734,5.493163585662842,48.645015716552734,-1.1685791015625,0.2369384765625,0.2635498046875
3.003,491,3147,3147,3147,16.0,29.0,10.0,62.133785247802734,16.357421875,29.846189498901367,-0.774658203125,1.034423828125,0.236083984375
3.031,487,3147,3147,3147,16.0,29.0,11.0,38.51318359375,29.785154342651367,3.417968511581421,-1.104248046875,1.3927001953125,0.1871337890625
3.031,485,3147,3042,3147,16.0,29.0,11.0,-10.498045921325684,38.39111328125,-10.864256858825684,-1.7242431640625,0.9517822265625,0.114501953125
3.036,478,3147,2717,3147,16.0,29.0,11.0,-39.24560546875,36.7431640625,-7.324218273162842,-2.037841796875,0.2532958984375,0.0877685546875
3.041,481,3147,2541,3147,16.0,29.0,11.0,-28.869626998901367,25.634763717651367,6.713866710662842,-1.9688720703125,-0.1055908203125,0.1497802734375
3.063,473,3147,2362,3147,16.0,29.0,11.0,0.2441406100988388,12.634276390075684,23.010251998901367,-1.71875,-0.12939453125,0.2142333984375
3.064,465,3147,1949,3147,16.0,29.0,11.0,25.024412155151367,6.103515148162842,38.9404296875,-1.4580078125,-0.0067138671875,0.2686767578125
3.072,456,3147,1627,3147,16.0,29.0,11.0,37.04833984375,7.141112804412842,56.823726654052734,-1.1883544921875,0.1279296875,0.2921142578125
3.079,439,3147,1442,3147,16.0,29.0,11.0,40.954586029052734,12.878417015075684,74.27978515625,-0.9234619140625,0.24169921875,0.2265625
3.093,402,3147,922,3147,16.0,29.0,11.0,44.372554779052734,20.080564498901367,81.72606658935547,-0.6915283203125,0.3402099609375,0.1207275390625
3.101,375,3147,735,2983,16.0,29.0,11.0,45.104976654052734,26.062009811401367,73.05908203125,-0.5030517578125,0.3486328125,0.0185546875
3.109,359,3147,601,2541,10.0,32.0,15.0,38.51318359375,30.151365280151367,51.696773529052734,-0.3876953125,0.25537109375,-0.0697021484375
3.131,330,3147,390,1611,10.0,32.0,15.0,27.770994186401367,31.799314498901367,24.902341842651367,-0.360107421875,0.1973876953125,-0.168701171875
3.132,323,3147,336,1222,10.0,32.0,15.0,19.22607421875,31.372068405151367,-0.30517578125,-0.400390625,0.3011474609375,-0.2352294921875
3.141,317,3147,328,869,10.0,32.0,15.0,12.512206077575684,28.625486373901367,-17.4560546875,-0.44091796875,0.404052734375,-0.197021484375
3.168,316,2616,324,327,10.0,32.0,15.0,5.798339366912842,23.559568405151367,-24.108884811401367,-0.5262451171875,0.4591064453125,-0.1292724609375
3.168,314,2161,328,324,10.0,32.0,15.0,2.44140625,20.080564498901367,-20.568845748901367,-0.57373046875,0.461181640625,-0.0784912109375
3.171,310,1681,330,304,10.0,32.0,15.0,2.929687261581421,18.98193359375,-13.854979515075684,-0.5401611328125,0.327392578125,0.003662109375
3.185,310,1427,324,323,10.0,32.0,15.0,6.225585460662842,18.12744140625,-10.559081077575684,-0.589111328125,0.2310791015625,0.080322265625
3.193,310,1219,361,328,10.0,32.0,15.0,10.192870140075684,17.2119140625,-7.873534679412842,-0.661865234375,0.205322265625,0.1201171875
3.201,310,1279,357,333,10.0,32.0,15.0,12.145995140075684,15.502928733825684,-3.295898199081421,-0.6488037109375,0.179931640625,0.1712646484375
3.231,313,1815,336,328,12.0,30.0,9.0,15.563963890075684,11.901854515075684,1.3427733182907104,-0.6370849609375,0.1971435546875,0.2547607421875
3.234,314,2119,324,328,12.0,30.0,9.0,19.1650390625,5.615233898162842,3.906249761581421,-0.722900390625,0.2427978515625,0.346435546875
3.236,311,2284,383,327,12.0,30.0,9.0,17.4560546875,-1.15966796875,6.347655773162842,-0.8243408203125,0.263427734375,0.37646484375
3.246,314,2647,389,330,12.0,30.0,9.0,10.620116233825684,-4.45556640625,10.498045921325684,-0.8365478515625,0.2242431640625,0.2880859375
3.266,313,2769,349,330,12.0,30.0,9.0,2.44140625,-2.929687261581421,14.892577171325684,-0.78466796875,0.15380859375,0.143798828125
3.268,313,3045,371,332,12.0,30.0,9.0,-3.723144292831421,-0.1220703050494194,18.85986328125,-0.743896484375,0.1334228515625,0.03662109375
3.274,310,3147,378,442,12.0,30.0,9.0,-5.920409679412842,0.7324218153953552,23.498533248901367,-0.7353515625,0.1710205078125,-0.0135498046875
3.282,314,3147,391,640,12.0,30.0,9.0,-6.103515148162842,-0.8544921278953552,29.479978561401367,-0.7294921875,0.208740234375,-0.0240478515625
3.290,313,3147,388,907,12.0,30.0,9.0,-6.103515148162842,-0.8544921278953552,29.479978561401367,-0.703125,0.2286376953125,-0.0289306640625
3.305,315,3147,398,1397,11.0,31.0,12.0,-9.58251953125,-4.69970703125,42.602535247802734,-0.6529541015625,0.2425537109375,-0.0260009765625
3.313,316,3147,411,1615,11.0,31.0,12.0,-12.451170921325684,-5.737304210662842,46.691890716552734,-0.5953369140625,0.254150390625,-0.0162353515625
3.336,314,3147,430,1730,11.0,31.0,12.0,-12.451170921325684,-5.737304210662842,46.691890716552734,-0.5408935546875,0.260498046875,-0.0068359375
3.336,318,3147,411,2165,11.0,31.0,12.0,-11.108397483825684,-10.131834983825684,42.175289154052734,-0.4764404296875,0.23193359375,0.0189208984375
3.341,327,3147,509,2374,11.0,31.0,12.0,-6.774901866912842,-14.770506858825684,32.71484375,-0.3990478515625,0.171630859375,0.03271484375
3.349,328,3147,741,2671,11.0,31.0,12.0,-6.774901866912842,-14.770506858825684,32.71484375,-0.31298828125,0.1590576171875,0.0548095703125
3.367,375,3147,998,3078,11.0,31.0,12.0,4.638671875,-25.512693405151367,3.662109136581421,-0.2138671875,0.207275390625,0.093505859375
3.371,404,3147,1241,3147,11.0,31.0,12.0,5.737304210662842,-28.686521530151367,-11.596678733825684,-0.103271484375,0.2862548828125,0.117919921875
3.379,423,3147,1527,3147,11.0,31.0,12.0,5.737304210662842,-28.686521530151367,-11.596678733825684,-0.0426025390625,0.4197998046875,0.19921875
3.392,455,3147,1966,3147,11.0,31.0,12.0,-12.268065452575684,-27.465818405151367,-34.48486328125,-0.222900390625,0.6788330078125,0.3704833984375
3.401,470,3147,2223,3147,13.0,33.0,9.0,-24.108884811401367,-26.672361373901367,-36.865234375,-0.7281494140625,1.0185546875,0.5712890625
3.409,485,3147,2527,3147,13.0,33.0,9.0,-24.108884811401367,-26.672361373901367,-36.865234375,-1.5047607421875,1.0125732421875,0.5047607421875
3.423,509,3147,2882,3147,13.0,33.0,9.0,-44.616695404052734,-18.5546875,-33.75244140625,-2.4339599609375,0.673583984375,0.13427734375
3.442,508,3147,3019,3147,13.0,33.0,9.0,-49.987789154052734,-6.408690929412842,-27.282712936401367,-3.066162109375,0.4161376953125,-0.1085205078125
3.442,527,3147,2820,3147,13.0,33.0,9.0,-49.987789154052734,-6.408690929412842,-27.282712936401367,-3.1678466796875,0.2366943359375,-0.19482421875
3.453,496,3147,2521,3147,13.0,33.0,9.0,-10.375975608825684,0.1220703050494194,19.10400390625,-2.4173583984375,-0.086669921875,-0.1798095703125
3.470,487,3147,2503,3147,13.0,33.0,9.0,19.10400390625,1.7089842557907104,25.634763717651367,-1.259765625,-0.11181640625,0.0950927734375
3.471,490,3147,2486,3147,13.0,33.0,9.0,19.10400390625,1.7089842557907104,25.634763717651367,-0.8902587890625,0.6558837890625,0.3267822265625
3.482,484,3147,2275,3147,13.0,33.0,9.0,32.1044921875,21.057126998901367,-5.310058116912842,-1.3428955078125,1.4212646484375,0.267578125
3.491,482,3147,2139,3147,13.0,33.0,9.0,-9.58251953125,36.9873046875,-9.1552734375,-1.9461669921875,1.2919921875,0.1639404296875
3.499,481,3147,2032,3147,14.0,34.0,5.0,-9.58251953125,36.9873046875,-9.1552734375,-1.9461669921875,1.2919921875,0.1639404296875
3.513,470,3147,1789,3147,14.0,34.0,5.0,-33.14208984375,31.799314498901367,14.465331077575684,-2.03857421875,0.1094970703125,0.2943115234375
3.521,465,3147,1683,3147,14.0,34.0,5.0,-33.14208984375,31.799314498901367,14.465331077575684,-1.69189453125,0.116943359375,0.282958984375
3.549,455,3147,1480,3147,14.0,34.0,5.0,11.413573265075684,18.798828125,32.3486328125,-1.69189453125,0.116943359375,0.282958984375
3.549,424,3147,1074,3147,14.0,34.0,5.0,61.706539154052734,12.390135765075684,55.725093841552734,-0.96484375,0.3585205078125,0.18798828125
3.551,383,3147,689,3147,14.0,34.0,5.0,61.706539154052734,12.390135765075684,55.725093841552734,-0.57763671875,0.387451171875,0.0927734375
3.565,354,3147,684,2658,14.0,34.0,5.0,65.673828125,13.427733421325684,59.448238372802734,-0.57763671875,0.387451171875,0.0927734375
3.573,333,3147,364,1815,14.0,34.0,5.0,66.89453125,18.06640625,20.141599655151367,-0.115966796875,0.335693359375,-0.1806640625
3.583,324,3147,434,1316,14.0,34.0,5.0,66.89453125,18.06640625,20.141599655151367,-0.1180419921875,0.3017578125,-0.273681640625
3.589,321,3147,348,787,14.0,34.0,5.0,48.706050872802734,24.963376998901367,-15.869139671325684,-0.1180419921875,0.3017578125,-0.273681640625
3.602,315,2912,411,330,9.0,33.0,7.0,-8.72802734375,38.26904296875,-49.377437591552734,-0.307373046875,0.2237548828125,-0.155517578125
3.611,318,2328,404,331,9.0,33.0,7.0,-8.72802734375,38.26904296875,-49.377437591552734,-0.3973388671875,0.250732421875,-0.10107421875
3.619,315,1980,387,332,9.0,33.0,7.0,-17.76123046875,37.4755859375,-44.982906341552734,-0.3973388671875,0.250732421875,-0.10107421875
3.639,315,1440,369,338,9.0,33.0,7.0,-13.549803733825684,28.503416061401367,-31.127927780151367,-0.5977783203125,0.2152099609375,-0.0625
3.641,313,1336,360,323,9.0,33.0,7.0,-13.549803733825684,28.503416061401367,-31.127927780151367,-0.639892578125,0.1763916015625,0.06201171875
3.654,314,958,371,328,9.0,33.0,7.0,-10.742186546325684,21.789548873901367,-25.207517623901367,-0.639892578125,0.1763916015625,0.06201171875
3.674,313,1359,390,332,9.0,33.0,7.0,4.94384765625,8.4228515625,-12.878417015075684,-0.5816650390625,0.2821044921875,0.2681884765625
3.676,314,1508,416,327,9.0,33.0,7.0,4.94384765625,8.4228515625,-12.878417015075684,-0.591064453125,0.3260498046875,0.341552734375
3.679,314,1686,418,330,9.0,33.0,7.0,5.126952648162842,4.69970703125,-10.864256858825684,-0.591064453125,0.3260498046875,0.341552734375
3.695,315,2113,414,332,13.0,35.0,5.0,-6.774901866912842,-0.1831054538488388,-10.925292015075684,-0.7060546875,0.32373046875,0.215576171875
3.702,313,2280,411,334,13.0,35.0,5.0,-6.774901866912842,-0.1831054538488388,-10.925292015075684,-0.728759765625,0.270263671875,0.04150390625
3.710,315,2484,411,336,13.0,35.0,5.0,-13.366698265075684,-0.3662109076976776,-8.11767578125,-0.728759765625,0.270263671875,0.04150390625
3.723,316,2833,416,330,13.0,35.0,5.0,-18.37158203125,-1.03759765625,-3.723144292831421,-0.766357421875,0.1884765625,-0.1143798828125
3.731,315,3086,411,338,13.0,35.0,5.0,-18.1884765625,-4.5166015625,0.4272460639476776,-0.766357421875,0.1884765625,-0.1143798828125
3.740,317,3147,426,398,13.0,35.0,5.0,-13.061522483825684,-10.253905296325684,3.662109136581421,-0.7991943359375,0.2216796875,-0.11572265625
3.761,318,3147,482,685,13.0,35.0,5.0,-7.568358898162842,-15.930174827575684,5.981444835662842,-0.8524169921875,0.30078125,-0.028076171875
3.761,321,3147,549,913,13.0,35.0,5.0,-5.371093273162842,-19.95849609375,7.873534679412842,-0.8524169921875,0.30078125,-0.028076171875
3.777,324,3147,475,1076,13.0,35.0,5.0,-5.126952648162842,-21.606443405151367,10.131834983825684,-0.8492431640625,0.2890625,-0.0244140625
3.784,328,3147,513,1416,13.0,35.0,5.0,-3.112792730331421,-21.972654342651367,13.427733421325684,-0.718505859375,0.3299560546875,-0.10546875
3.791,328,3147,540,1638,15.0,35.0,12.0,1.5258787870407104,-22.949216842651367,16.11328125,-0.718505859375,0.3299560546875,-0.10546875
3.799,336,3147,607,1819,15.0,35.0,12.0,6.530761241912842,-25.390623092651367,15.869139671325684,-0.6021728515625,0.3614501953125,-0.112060546875
3.813,361,3147,785,2133,15.0,35.0,12.0,7.507323741912842,-29.235837936401367,12.207030296325684,-0.3641357421875,0.26025390625,-0.00048828125
3.821,390,3147,1045,2296,15.0,35.0,12.0,3.479003667831421,-33.203125,5.493163585662842,-0.3641357421875,0.26025390625,-0.00048828125
3.843,423,3147,1398,2514,15.0,35.0,12.0,-2.25830078125,-36.0107421875,-3.173827886581421,-0.2713623046875,0.2147216796875,0.060302734375
3.843,462,3147,1880,2820,15.0,35.0,12.0,-6.774901866912842,-37.9638671875,-12.634276390075684,-0.084228515625,0.1812744140625,-0.0042724609375
3.851,478,3147,2213,3055,15.0,35.0,12.0,-9.521484375,-41.259761810302734,-24.047849655151367,-0.084228515625,0.1812744140625,-0.0042724609375
3.876,490,3147,2472,3147,15.0,35.0,12.0,-9.8876953125,-46.813961029052734,-38.57421875,-0.1534423828125,0.2652587890625,-0.042236328125
3.877,508,3147,2991,3147,15.0,35.0,12.0,-9.1552734375,-52.429195404052734,-54.992671966552734,-1.2652587890625,0.8206787109375,0.488037109375
3.881,513,3147,3147,3147,15.0,35.0,12.0,-11.352538108825684,-55.114742279052734,-67.32177734375,-1.2652587890625,0.8206787109375,0.488037109375
3.890,519,3147,3147,3147,14.0,31.0,6.0,-21.667478561401367,-54.077144622802734,-65.7958984375,-1.9674072265625,0.8671875,0.7904052734375
3.904,555,3147,3147,3147,14.0,31.0,6.0,-37.41455078125,-45.654293060302734,-50.109859466552734,-2.7923583984375,-0.08935546875,0.2965087890625
3.911,521,3147,3147,3147,14.0,31.0,6.0,-43.334957122802734,-28.808591842651367,-24.475095748901367,-2.7923583984375,-0.08935546875,0.2965087890625
3.921,519,3147,3012,3147,14.0,31.0,6.0,-25.512693405151367,-15.991209983825684,6.835937023162842,-2.581787109375,-0.5078125,0.07666015625
3.949,512,3147,2679,3147,14.0,31.0,6.0,14.770506858825684,-12.817381858825684,32.53173828125,-1.1036376953125,0.140869140625,0.0885009765625
3.950,509,3147,2703,3147,14.0,31.0,6.0,59.204097747802734,-9.765625,42.724605560302734,-1.1036376953125,0.140869140625,0.0885009765625
3.950,509,3147,2736,3147,14.0,31.0,6.0,78.67431640625,1.5869139432907104,35.0341796875,-0.6793212890625,1.1871337890625,0.222412109375
3.963,506,3147,2601,3147,14.0,31.0,6.0,47.546382904052734,21.362302780151367,15.014647483825684,-0.8780517578125,1.7484130859375,0.285400390625
3.981,501,3147,2516,3147,14.0,31.0,6.0,-19.4091796875,38.87939453125,-4.69970703125,-1.4554443359375,1.4132080078125,0.25537109375
3.984,491,3147,2388,3147,14.0,31.0,6.0,-68.29833984375,44.372554779052734,-12.207030296325684,-1.903076171875,0.55859375,0.2127685546875
3.993,493,3147,2162,3147,11.0,31.0,13.0,-64.02587890625,37.65869140625,-6.958007335662842,-1.97705078125,0.0130615234375,0.2620849609375
4.001,486,3147,1961,3147,11.0,31.0,13.0,-21.789548873901367,27.343748092651367,4.82177734375,-1.7860107421875,0.016357421875,0.2833251953125
4.009,481,3147,1769,3147,11.0,31.0,13.0,16.54052734375,22.766111373901367,16.41845703125,-1.52880859375,0.203857421875,0.23291015625
4.022,462,3147,1463,3147,11.0,31.0,13.0,30.456541061401367,25.817869186401367,25.085447311401367,-1.3243408203125,0.336669921875,0.1968994140625
4.035,433,3147,1264,2876,11.0,31.0,13.0,29.541013717651367,31.738279342651367,32.470703125,-1.14306640625,0.3790283203125,0.1669921875
4.047,411,3147,927,2512,11.0,31.0,13.0,27.526853561401367,36.56005859375,37.78076171875,-0.96826171875,0.36474609375,0.0621337890625
4.053,371,3147,590,1681,11.0,31.0,13.0,26.611326217651367,39.794921875,36.2548828125,-0.80810546875,0.3172607421875,-0.0743408203125
4.061,346,3147,487,1103,11.0,31.0,13.0,23.132322311401367,40.405269622802734,23.986814498901367,-0.641845703125,0.17626953125,-0.1883544921875
4.069,332,3147,342,508,11.0,31.0,13.0,17.76123046875,38.0859375,2.563476324081421,-0.4993896484375,0.0081787109375,-0.257080078125
4.085,323,2111,336,334,11.0,29.0,7.0,12.939452171325684,34.11865234375,-19.287109375,-0.4093017578125,-0.0286865234375,-0.2095947265625
4.091,321,1667,360,334,11.0,29.0,7.0,8.4228515625,29.357908248901367,-31.127927780151367,-0.3526611328125,0.0628662109375,-0.0950927734375
4.099,318,1163,404,342,11.0,29.0,7.0,6.164550304412842,25.573728561401367,-30.761716842651367,-0.3394775390625,0.1312255859375,0.01171875
4.112,316,512,398,337,11.0,29.0,7.0,9.521484375,23.681638717651367,-25.146482467651367,-0.4119873046875,0.1412353515625,0.0533447265625
4.121,315,402,328,323,11.0,29.0,7.0,17.2119140625,22.888181686401367,-17.822265625,-0.4984130859375,0.175537109375,0.0111083984375
4.129,313,484,323,323,11.0,29.0,7.0,23.925779342651367,21.606443405151367,-8.36181640625,-0.497802734375,0.2572021484375,0.0076904296875
4.149,308,387,323,319,11.0,29.0,7.0,27.954099655151367,17.822265625,0.30517578125,-0.4501953125,0.3505859375,0.0654296875
4.151,310,402,318,321,11.0,29.0,7.0,31.982419967651367,13.244627952575684,4.33349609375,-0.4329833984375,0.3792724609375,0.0916748046875
4.159,310,506,328,323,11.0,29.0,7.0,37.29248046875,9.70458984375,3.051757574081421,-0.4656982421875,0.3770751953125,0.113525390625
4.172,308,675,328,322,11.0,29.0,7.0,39.6728515625,4.08935546875,-0.3662109076976776,-0.52001953125,0.4195556640625,0.173583984375
4.188,312,1067,328,332,14.0,32.0,14.0,34.48486328125,-4.2724609375,-3.234863042831421,-0.5675048828125,0.4698486328125,0.1846923828125
4.189,313,1224,332,327,14.0,32.0,14.0,21.423337936401367,-10.375975608825684,-5.615233898162842,-0.635009765625,0.4769287109375,0.123291015625
4.202,315,1722,357,332,14.0,32.0,14.0,6.042479991912842,-11.962889671325684,-6.286620616912842,-0.7313232421875,0.421630859375,0.0513916015625
4.211,315,2063,364,334,14.0,32.0,14.0,-4.08935546875,-12.023924827575684,-3.356933355331421,-0.7860107421875,0.3282470703125,-0.0108642578125
4.219,313,2366,363,334,14.0,32.0,14.0,-7.141112804412842,-12.878417015075684,1.5258787870407104,-0.7889404296875,0.2705078125,-0.0228271484375
4.233,316,2668,413,334,14.0,32.0,14.0,-6.896972179412842,-15.258788108825684,5.676269054412842,-0.79296875,0.249267578125,0.021240234375
4.258,321,2703,409,337,14.0,32.0,14.0,-6.347655773162842,-18.73779296875,7.873534679412842,-0.816162109375,0.2392578125,0.0347900390625
4.259,319,2996,437,346,14.0,32.0,14.0,-6.164550304412842,-21.118162155151367,8.544921875,-0.8480224609375,0.2587890625,-0.01708984375
4.266,321,3147,482,600,14.0,32.0,14.0,-8.11767578125,-21.423337936401367,8.60595703125,-0.8656005859375,0.2755126953125,-0.085693359375
4.271,323,3147,439,787,14.0,32.0,14.0,-12.817381858825684,-21.423337936401367,8.72802734375,-0.8306884765625,0.2650146484375,-0.1396484375
4.295,324,3147,464,1018,12.0,29.0,14.0,-14.892577171325684,-22.094724655151367,9.765625,-0.7384033203125,0.255126953125,-0.1793212890625
4.297,334,3147,490,1623,12.0,29.0,14.0,-9.70458984375,-24.291990280151367,11.718749046325684,-0.6112060546875,0.23095703125,-0.1910400390625
4.301,346,3147,620,1874,12.0,29.0,14.0,-1.8920897245407104,-28.442380905151367,11.901854515075684,-0.432861328125,0.1982421875,-0.164794921875
4.309,390,3147,944,2131,12.0,29.0,14.0,0.9765624403953552,-33.3251953125,6.713866710662842,-0.2113037109375,0.20654296875,-0.0806884765625
4.323,452,3147,1743,2516,12.0,29.0,14.0,-3.906249761581421,-36.7431640625,-6.225585460662842,-0.01025390625,0.2578125,0.0322265625
4.331,466,3147,2047,2792,12.0,29.0,14.0,-15.075682640075684,-38.63525390625,-25.024412155151367,0.0604248046875,0.33837890625,0.138916015625
4.339,482,3147,2295,3065,12.0,29.0,14.0,-31.188962936401367,-40.283199310302734,-43.518062591552734,-0.1431884765625,0.3868408203125,0.302734375
4.358,506,3147,2870,3147,12.0,29.0,14.0,-51.269527435302734,-40.344234466552734,-54.565425872802734,-0.65380859375,0.3914794921875,0.566650390625
4.361,513,3147,3126,3147,12.0,29.0,14.0,-64.8193359375,-37.9638671875,-50.964351654052734,-1.346435546875,0.4163818359375,0.8099365234375
4.370,525,3147,3147,3147,12.0,29.0,14.0,-57.800289154052734,-35.2783203125,-31.860349655151367,-1.9854736328125,0.3167724609375,0.7830810546875
4.386,684,3147,3147,3147,13.0,31.0,8.0,-32.958984375,-30.334470748901367,-10.253905296325684,-2.5267333984375,0.1302490234375,0.3890380859375
4.401,688,3147,3147,3147,13.0,31.0,8.0,-4.69970703125,-19.47021484375,7.690429210662842,-2.88037109375,0.1317138671875,-0.0223388671875
4.401,588,3147,3147,3147,13.0,31.0,8.0,20.263669967651367,-9.8876953125,29.052732467651367,-2.6883544921875,0.1641845703125,-0.227294921875
4.413,519,3147,3147,3147,13.0,31.0,8.0,43.762203216552734,-8.36181640625,45.227046966552734,-1.8525390625,0.099853515625,-0.23828125
4.421,521,3147,3141,3147,13.0,31.0,8.0,62.866207122802734,-10.925292015075684,34.48486328125,-0.985595703125,0.4656982421875,-0.01806640625
4.429,519,3147,3147,3147,13.0,31.0,8.0,62.866207122802734,-10.925292015075684,34.48486328125,-0.7122802734375,1.2236328125,0.1683349609375
4.453,519,3147,3118,3147,13.0,31.0,8.0,22.338865280151367,6.774901866912842,-23.437498092651367,-1.0657958984375,1.52001953125,0.1820068359375
4.458,514,3147,3073,3147,13.0,31.0,8.0,-33.75244140625,20.996091842651367,-29.235837936401367,-1.64208984375,1.0455322265625,0.1448974609375
4.459,518,3147,2966,3147,13.0,31.0,8.0,-33.75244140625,20.996091842651367,-29.235837936401367,-1.970703125,0.3035888671875,0.1488037109375
4.473,509,3147,2612,3147,13.0,31.0,8.0,-46.936031341552734,17.2119140625,-9.46044921875,-1.956298828125,-0.056396484375,0.225830078125
4.490,508,3147,2372,3147,14.0,32.0,11.0,-9.765625,6.347655773162842,2.38037109375,-1.7052001953125,0.01806640625,0.2904052734375
4.494,501,3147,2127,3147,14.0,32.0,11.0,-9.765625,6.347655773162842,2.38037109375,-1.43017578125,0.242919921875,0.28564453125
4.505,485,3147,1656,2799,14.0,32.0,11.0,27.099607467651367,3.479003667831421,23.498533248901367,-1.1900634765625,0.439208984375,0.2186279296875
4.512,473,3147,1424,2549,14.0,32.0,11.0,24.230955123901367,11.108397483825684,29.785154342651367,-0.951171875,0.4990234375,0.118896484375
4.520,458,3147,1201,2207,14.0,32.0,11.0,24.230955123901367,11.108397483825684,29.785154342651367,-0.7447509765625,0.4351806640625,0.0277099609375
4.533,402,3147,740,1393,14.0,32.0,11.0,10.559081077575684,23.803709030151367,14.526366233825684,-0.57275390625,0.2642822265625,-0.0556640625
4.541,376,3147,605,814,14.0,32.0,11.0,-1.8310545682907104,28.076169967651367,-5.981444835662842,-0.4603271484375,0.01220703125,-0.125732421875
4.563,371,3147,470,473,14.0,32.0,11.0,-1.8310545682907104,28.076169967651367,-5.981444835662842,-0.410888671875,-0.21435546875,-0.1500244140625
4.563,336,2622,387,354,14.0,32.0,11.0,-18.1884765625,32.3486328125,-32.40966796875,-0.408203125,-0.2935791015625,-0.0931396484375
4.572,334,2320,348,337,14.0,32.0,11.0,-11.352538108825684,28.686521530151367,-27.770994186401367,-0.41650390625,-0.168701171875,0.0052490234375
4.579,327,2166,371,344,13.0,31.0,11.0,-11.352538108825684,28.686521530151367,-27.770994186401367,-0.4061279296875,0.045654296875,0.0743408203125
4.597,324,1652,354,334,13.0,31.0,11.0,13.549803733825684,17.7001953125,-6.286620616912842,-0.4591064453125,0.19140625,0.1064453125
4.601,318,1521,391,334,13.0,31.0,11.0,19.775390625,12.817381858825684,-0.9155272841453552,-0.535888671875,0.244140625,0.07763671875
4.613,317,1643,402,334,13.0,31.0,11.0,19.775390625,12.817381858825684,-0.9155272841453552,-0.541015625,0.3341064453125,0.06103515625
4.623,317,1865,409,334,13.0,31.0,11.0,30.090330123901367,7.995604991912842,10.314940452575684,-0.543212890625,0.5106201171875,0.1368408203125
4.631,316,2156,389,334,13.0,31.0,11.0,35.2783203125,2.25830078125,15.624999046325684,-0.58349609375,0.6201171875,0.224365234375
4.639,317,2359,390,342,13.0,31.0,11.0,35.2783203125,2.25830078125,15.624999046325684,-0.58349609375,0.6201171875,0.224365234375
4.658,316,2576,399,336,13.0,31.0,11.0,26.611326217651367,-8.4228515625,15.136717796325684,-0.6632080078125,0.489013671875,0.2166748046875
4.664,316,2703,385,334,13.0,31.0,11.0,26.611326217651367,-8.4228515625,15.136717796325684,-0.6654052734375,0.3609619140625,0.1170654296875
4.669,316,2823,401,336,13.0,31.0,10.0,15.624999046325684,-8.9111328125,10.681151390075684,-0.6654052734375,0.3609619140625,0.1170654296875
4.683,318,3072,430,336,13.0,31.0,10.0,-4.57763671875,-7.751464366912842,5.432128429412842,-0.7105712890625,0.2779541015625,-0.00146484375
4.698,321,3147,470,334,13.0,31.0,10.0,-4.57763671875,-7.751464366912842,5.432128429412842,-0.748291015625,0.2728271484375,-0.001708984375
4.699,306,3147,499,308,13.0,31.0,10.0,-10.864256858825684,-10.925292015075684,6.958007335662842,-0.748291015625,0.2728271484375,-0.001708984375
4.718,324,3147,493,772,13.0,31.0,10.0,-17.39501953125,-18.5546875,10.620116233825684,-0.7647705078125,0.2120361328125,-0.0413818359375
4.721,323,3147,478,991,13.0,31.0,10.0,-17.39501953125,-18.5546875,10.620116233825684,-0.7421875,0.215087890625,-0.0543212890625
4.729,324,3147,481,1209,13.0,31.0,10.0,-18.1884765625,-19.83642578125,12.695311546325684,-0.7421875,0.215087890625,-0.0543212890625
4.743,338,3147,536,1596,13.0,31.0,10.0,-11.413573265075684,-20.874021530151367,18.798828125,-0.6253662109375,0.2451171875,-0.1116943359375
4.751,347,3147,572,1908,13.0,31.0,10.0,-11.413573265075684,-20.874021530151367,18.798828125,-0.528564453125,0.2127685546875,-0.1260986328125
4.768,385,3147,800,2203,13.0,31.0,10.0,-13.305663108825684,-20.690916061401367,17.822265625,-0.528564453125,0.2127685546875,-0.1260986328125
4.773,424,3147,1564,2613,12.0,32.0,9.0,-26.000974655151367,-20.568845748901367,5.126952648162842,-0.5069580078125,0.1597900390625,0.064697265625
4.781,442,3147,1892,2818,12.0,32.0,9.0,-26.000974655151367,-20.568845748901367,5.126952648162842,-0.532470703125,0.1285400390625,0.2576904296875
4.796,456,3147,2065,3031,12.0,32.0,9.0,-32.5927734375,-23.803709030151367,-6.103515148162842,-0.532470703125,0.1285400390625,0.2576904296875
4.803,470,3147,2391,3147,12.0,32.0,9.0,-35.7666015625,-27.709959030151367,-25.512693405151367,-0.4957275390625,0.0980224609375,0.463623046875
4.811,479,3147,2665,3147,12.0,32.0,9.0,-35.7666015625,-27.709959030151367,-25.512693405151367,-0.6324462890625,0.2862548828125,0.5369873046875
4.829,486,3147,2928,3147,12.0,32.0,9.0,-19.59228515625,-27.893064498901367,-22.766111373901367,-0.6324462890625,0.2862548828125,0.5369873046875
4.833,505,3147,3147,3147,12.0,32.0,9.0,12.695311546325684,-34.11865234375,-2.807616949081421,-1.3536376953125,0.916015625,0.5048828125
4.841,644,3147,3147,3147,12.0,32.0,9.0,12.695311546325684,-34.11865234375,-2.807616949081421,-1.8486328125,0.7799072265625,0.1953125
4.849,708,3147,3147,3147,12.0,32.0,9.0,13.977049827575684,-31.982419967651367,0.2441406100988388,-1.8486328125,0.7799072265625,0.1953125
4.871,780,3147,3147,3147,12.0,32.0,9.0,7.202147960662842,-23.132322311401367,-3.967284917831421,-2.553955078125,0.404296875,-0.1827392578125
4.871,767,3147,3147,3147,13.0,30.0,13.0,3.845214605331421,-13.732909202575684,-1.220703125,-2.553955078125,0.404296875,-0.1827392578125
4.880,748,3147,3147,3147,13.0,30.0,13.0,13.244627952575684,-11.047362327575684,11.596678733825684,-2.20068359375,0.19140625,-0.1396484375
4.898,678,3147,3147,3147,13.0,30.0,13.0,30.212400436401367,-11.291502952575684,14.770506858825684,-0.8826904296875,0.5267333984375,0.2596435546875
4.902,675,3147,3147,3147,13.0,30.0,13.0,38.63525390625,-6.103515148162842,-2.38037109375,-0.8826904296875,0.5267333984375,0.2596435546875
4.909,644,3147,3147,3147,13.0,30.0,13.0,25.268552780151367,8.48388671875,-26.672361373901367,-0.84326171875,1.06689453125,0.34423828125
4.923,535,3147,3147,3147,13.0,30.0,13.0,-7.751464366912842,26.184080123901367,-40.893550872802734,-1.801025390625,0.7236328125,0.18408203125
4.937,512,3147,3147,3147,13.0,30.0,13.0,-41.198726654052734,35.46142578125,-39.306640625,-1.801025390625,0.7236328125,0.18408203125
4.939,494,3147,3110,3147,13.0,30.0,13.0,-51.025386810302734,31.738279342651367,-26.123044967651367,-1.9732666015625,0.1207275390625,0.224365234375
4.953,501,3147,2872,3147,13.0,30.0,13.0,-29.052732467651367,19.47021484375,-6.713866710662842,-1.4464111328125,-0.0911865234375,0.3045654296875
4.973,497,3147,2668,3147,13.0,30.0,13.0,6.347655773162842,9.09423828125,15.258788108825684,-1.4464111328125,-0.0911865234375,0.3045654296875
4.973,495,3147,2477,3147,14.0,30.0,11.0,30.822751998901367,7.629394054412842,35.33935546875,-1.1646728515625,0.1097412109375,0.22509765625
4.983,484,3147,2089,2938,14.0,30.0,11.0,38.57421875,13.000487327575684,48.217769622802734,-0.78125,0.3680419921875,-0.0113525390625
4.991,478,3147,1904,2573,14.0,30.0,11.0,36.865234375,19.775390625,48.278804779052734,-0.78125,0.3680419921875,-0.0113525390625
5.008,468,3147,1681,2249,14.0,30.0,11.0,31.616209030151367,24.291990280151367,35.15625,-0.648681640625,0.4345703125,-0.101318359375
5.014,444,3147,1178,1679,14.0,30.0,11.0,24.841306686401367,25.695798873901367,14.892577171325684,-0.4920654296875,0.2957763671875,-0.159423828125
5.021,424,3147,788,1323,14.0,30.0,11.0,17.76123046875,24.658201217651367,-5.126952648162842,-0.4920654296875,0.2957763671875,-0.159423828125
5.031,390,3147,627,921,14.0,30.0,11.0,11.901854515075684,22.583005905151367,-19.34814453125,-0.47216796875,0.165283203125,-0.0816650390625
5.046,363,3147,418,409,14.0,30.0,11.0,7.690429210662842,21.606443405151367,-23.742673873901367,-0.4478759765625,0.142578125,0.140380859375
5.051,351,3147,475,371,14.0,30.0,11.0,2.868652105331421,21.972654342651367,-19.53125,-0.4478759765625,0.142578125,0.140380859375
5.073,344,3112,469,365,14.0,30.0,11.0,-3.173827886581421,22.399900436401367,-13.366698265075684,-0.464599609375,0.157470703125,0.2462158203125
5.074,333,2993,346,318,12.0,31.0,12.0,-7.507323741912842,23.010251998901367,-9.33837890625,-0.6507568359375,0.1441650390625,0.1387939453125
5.081,330,2944,355,345,12.0,31.0,12.0,-9.033203125,24.353025436401367,-6.286620616912842,-0.6507568359375,0.1441650390625,0.1387939453125
5.090,331,2832,336,334,12.0,31.0,12.0,-6.286620616912842,24.353025436401367,-2.563476324081421,-0.6717529296875,0.224609375,0.0728759765625
5.110,329,2916,345,344,12.0,31.0,12.0,-0.30517578125,20.385740280151367,1.3427733182907104,-0.65478515625,0.3399658203125,0.057373046875
5.111,327,3050,345,330,12.0,31.0,12.0,2.44140625,13.183592796325684,3.601073980331421,-0.6248779296875,0.4031982421875,0.09521484375
5.122,330,3147,356,347,12.0,31.0,12.0,-0.6103515625,5.859374523162842,4.45556640625,-0.6041259765625,0.4190673828125,0.16357421875
5.133,332,3147,386,465,12.0,31.0,12.0,-6.042479991912842,0.7934569716453552,5.554198741912842,-0.613525390625,0.3984375,0.1761474609375
5.146,330,3147,404,577,12.0,31.0,12.0,-10.070799827575684,-1.15966796875,6.835937023162842,-0.6490478515625,0.3623046875,0.117431640625
5.150,332,3147,438,728,12.0,31.0,12.0,-10.803221702575684,-1.7089842557907104,6.652831554412842,-0.6956787109375,0.3433837890625,0.055908203125
5.177,336,3147,495,811,11.0,31.0,8.0,-8.48388671875,-3.662109136581421,4.7607421875,-0.7412109375,0.3446044921875,0.013427734375
5.177,344,3147,548,952,11.0,31.0,8.0,-5.0048828125,-8.056640625,2.38037109375,-0.772216796875,0.360107421875,-0.010986328125
5.179,346,3147,584,1117,11.0,31.0,8.0,-2.807616949081421,-14.038084983825684,0.0,-0.7728271484375,0.348388671875,-0.0228271484375
5.193,351,3147,644,1557,11.0,31.0,8.0,-2.624511480331421,-19.8974609375,-2.624511480331421,-0.7593994140625,0.2896728515625,-0.0333251953125
5.213,356,3147,688,1715,11.0,31.0,8.0,-2.13623046875,-24.291990280151367,-4.2724609375,-0.7615966796875,0.2449951171875,-0.0390625
5.213,363,3147,710,1905,11.0,31.0,8.0,-1.4648436307907104,-27.343748092651367,-3.967284917831421,-0.734619140625,0.2264404296875,-0.0321044921875
5.224,391,3147,952,2374,11.0,31.0,8.0,-4.150390625,-28.991697311401367,-4.45556640625,-0.6348876953125,0.1953125,-0.000244140625
5.232,418,3147,1384,2651,11.0,31.0,8.0,-10.437010765075684,-29.357908248901367,-9.09423828125,-0.49462890625,0.1754150390625,0.0306396484375
5.249,433,3147,1744,2859,11.0,31.0,8.0,-15.502928733825684,-29.479978561401367,-18.4326171875,-0.3677978515625,0.1558837890625,0.02490234375
5.254,463,3147,2122,3147,11.0,31.0,8.0,-14.038084983825684,-31.249998092651367,-29.724119186401367,-0.287353515625,0.134033203125,-0.005615234375
5.278,478,3147,2375,3147,14.0,30.0,8.0,-6.225585460662842,-35.58349609375,-38.2080078125,-0.27001953125,0.1727294921875,0.0111083984375
5.279,482,3147,2668,3147,14.0,30.0,8.0,3.051757574081421,-42.480464935302734,-40.222164154052734,-0.3485107421875,0.2347412109375,0.15576171875
5.284,498,3147,3147,3147,14.0,30.0,8.0,9.765625,-51.147457122802734,-36.9873046875,-0.5501708984375,0.2791748046875,0.42236328125
5.292,578,3147,3147,3147,14.0,30.0,8.0,14.282225608825684,-59.448238372802734,-31.005857467651367,-0.8609619140625,0.388916015625,0.637939453125
5.310,696,3147,3147,3147,14.0,30.0,8.0,15.502928733825684,-60.913082122802734,-22.277830123901367,-1.3052978515625,0.4468994140625,0.569091796875
5.315,824,3147,3147,3147,14.0,30.0,8.0,12.268065452575684,-50.048824310302734,-9.46044921875,-1.89501953125,0.373291015625,0.309326171875
5.322,860,3147,3147,3147,14.0,30.0,8.0,11.413573265075684,-33.75244140625,9.94873046875,-2.421142578125,0.2464599609375,0.1209716796875
5.330,860,3147,3147,3147,14.0,30.0,8.0,18.61572265625,-22.399900436401367,32.3486328125,-2.65185546875,0.1658935546875,0.04443359375
5.343,806,3147,3147,3147,14.0,30.0,8.0,32.5927734375,-18.12744140625,47.851558685302734,-2.3994140625,0.20068359375,0.05029296875
5.357,733,3147,3147,3147,14.0,30.0,8.0,44.799800872802734,-15.441893577575684,45.532222747802734,-1.61181640625,0.2979736328125,0.17529296875
5.360,710,3147,3147,3147,12.0,27.0,7.0,44.677730560302734,-5.737304210662842,22.521970748901367,-0.837890625,0.6575927734375,0.349609375
5.385,644,3147,3147,3147,12.0,27.0,7.0,25.268552780151367,14.831542015075684,-5.310058116912842,-0.673583984375,1.1810302734375,0.4146728515625
5.385,540,3147,3147,3147,12.0,27.0,7.0,-13.183592796325684,37.04833984375,-20.874021530151367,-1.1895751953125,1.313232421875,0.3333740234375
5.393,519,3147,3147,3147,12.0,27.0,7.0,-51.513668060302734,47.119136810302734,-20.568845748901367,-1.890869140625,0.855224609375,0.2081298828125
5.416,514,3147,2941,3147,12.0,27.0,7.0,-64.3310546875,41.870113372802734,-10.986327171325684,-2.205078125,0.1968994140625,0.1903076171875
5.416,508,3147,2805,3147,12.0,27.0,7.0,-44.067378997802734,27.770994186401367,0.9155272841453552,-2.0936279296875,-0.128173828125,0.2569580078125
5.422,506,3147,2554,3147,12.0,27.0,7.0,-6.469726085662842,15.624999046325684,14.709471702575684,-1.7864990234375,-0.0355224609375,0.2623291015625
5.429,498,3147,2375,3147,12.0,27.0,7.0,22.460935592651367,12.817381858825684,30.578611373901367,-1.47216796875,0.2398681640625,0.2080078125
5.443,486,3147,2000,2859,12.0,27.0,7.0,30.395505905151367,19.1650390625,47.119136810302734,-1.1683349609375,0.4312744140625,0.1507568359375
5.452,478,3147,1721,2407,12.0,27.0,7.0,23.254392623901367,29.052732467651367,59.753414154052734,-0.832763671875,0.3973388671875,0.078857421875
5.482,466,3147,1441,2005,8.0,32.0,11.0,13.122557640075684,36.80419921875,58.593746185302734,-0.512939453125,0.2620849609375,-0.0064697265625
5.482,424,3147,748,1108,8.0,32.0,11.0,10.192870140075684,40.466304779052734,36.4990234375,-0.29296875,0.1849365234375,-0.091552734375
5.482,384,3147,588,554,8.0,32.0,11.0,9.46044921875,42.541500091552734,0.54931640625,-0.2080078125,0.131103515625,-0.146728515625
5.489,371,2557,513,388,8.0,32.0,11.0,-0.0610351525247097,43.212886810302734,-30.151365280151367,-0.251220703125,0.0799560546875,-0.104736328125
5.503,351,2030,369,359,8.0,32.0,11.0,-13.061522483825684,41.503902435302734,-39.85595703125,-0.328369140625,0.0977783203125,0.0198974609375
5.520,336,1656,360,356,8.0,32.0,11.0,-16.9677734375,37.65869140625,-31.555173873901367,-0.388916015625,0.1231689453125,0.1080322265625
5.520,327,1253,338,328,8.0,32.0,11.0,-11.352538108825684,33.5693359375,-19.47021484375,-0.471923828125,0.1514892578125,0.0596923828125
5.533,318,944,326,324,8.0,32.0,11.0,-5.676269054412842,31.127927780151367,-10.253905296325684,-0.4951171875,0.1807861328125,-0.028564453125
5.543,316,951,330,334,8.0,32.0,11.0,-4.94384765625,26.794431686401367,-2.685546636581421,-0.452392578125,0.1993408203125,0.018798828125
5.549,317,989,354,330,8.0,32.0,11.0,-4.94384765625,26.794431686401367,-2.685546636581421,-0.4588623046875,0.2884521484375,0.1568603515625
5.563,316,1323,360,333,14.0,32.0,13.0,11.291502952575684,9.09423828125,10.620116233825684,-0.53662109375,0.420166015625,0.268310546875
5.590,315,1476,330,330,14.0,32.0,13.0,18.4326171875,3.540038824081421,10.864256858825684,-0.638427734375,0.521240234375,0.326171875
5.590,314,1627,371,332,14.0,32.0,13.0,18.4326171875,3.540038824081421,10.864256858825684,-0.7069091796875,0.5594482421875,0.2911376953125
5.593,316,2019,363,332,14.0,32.0,13.0,3.601073980331421,2.990722417831421,2.807616949081421,-0.7164306640625,0.5093994140625,0.1712646484375
5.616,318,2144,376,338,14.0,32.0,13.0,-10.192870140075684,5.065917491912842,-1.8310545682907104,-0.690185546875,0.389404296875,0.05517578125
5.626,321,2287,371,336,14.0,32.0,13.0,-10.192870140075684,5.065917491912842,-1.8310545682907104,-0.68896484375,0.278076171875,0.00537109375
5.626,323,2375,361,337,14.0,32.0,13.0,-22.094724655151367,0.7324218153953552,-6.652831554412842,-0.726318359375,0.2288818359375,0.001220703125
5.634,328,2763,430,354,14.0,32.0,13.0,-17.08984375,-5.615233898162842,-4.94384765625,-0.7744140625,0.2237548828125,-0.005615234375
5.639,328,3003,437,356,14.0,32.0,13.0,-17.08984375,-5.615233898162842,-4.94384765625,-0.8121337890625,0.2156982421875,-0.0279541015625
5.653,332,3147,473,426,11.0,31.0,8.0,-6.225585460662842,-14.465331077575684,5.126952648162842,-0.8245849609375,0.1944580078125,-0.0679931640625
5.663,336,3147,481,625,11.0,31.0,8.0,-3.967284917831421,-15.197752952575684,12.023924827575684,-0.8193359375,0.2054443359375,-0.094970703125
5.692,338,3147,527,887,11.0,31.0,8.0,-3.967284917831421,-15.197752952575684,12.023924827575684,-0.78369140625,0.2398681640625,-0.09716796875
5.692,355,3147,691,1306,11.0,31.0,8.0,-4.21142578125,-16.29638671875,15.808104515075684,-0.71142578125,0.2633056640625,-0.0677490234375
5.692,361,3147,735,1582,11.0,31.0,8.0,-3.479003667831421,-18.49365234375,8.7890625,-0.6329345703125,0.3062744140625,-0.011962890625
5.699,375,3147,859,1791,11.0,31.0,8.0,-3.479003667831421,-18.49365234375,8.7890625,-0.5723876953125,0.3697509765625,0.04052734375
5.725,411,3147,1380,2128,11.0,31.0,8.0,2.197265625,-25.756834030151367,-6.591796398162842,-0.51904296875,0.3975830078125,0.1014404296875
5.725,425,3147,1640,2330,11.0,31.0,8.0,0.9765624403953552,-30.395505905151367,-12.817381858825684,-0.4561767578125,0.3597412109375,0.1455078125
5.730,439,3147,1912,2567,11.0,31.0,8.0,0.9765624403953552,-30.395505905151367,-12.817381858825684,-0.398681640625,0.2930908203125,0.1512451171875
5.744,465,3147,2165,2787,11.0,31.0,8.0,-8.056640625,-38.75732421875,-28.259275436401367,-0.391357421875,0.26708984375,0.1983642578125
5.752,473,3147,2368,3064,13.0,29.0,9.0,-14.526366233825684,-39.55078125,-34.0576171875,-0.5103759765625,0.2801513671875,0.33203125
5.760,483,3147,2698,3147,13.0,29.0,9.0,-14.526366233825684,-39.55078125,-34.0576171875,-0.8050537109375,0.2669677734375,0.467041015625
5.801,496,3147,3066,3147,13.0,29.0,9.0,-26.550291061401367,-31.066892623901367,-36.07177734375,-1.2711181640625,0.3204345703125,0.486083984375
5.802,499,3147,3147,3147,13.0,29.0,9.0,-22.949216842651367,-23.010251998901367,-27.893064498901367,-1.7655029296875,0.4246826171875,0.3447265625
5.802,568,3147,3147,3147,13.0,29.0,9.0,-22.949216842651367,-23.010251998901367,-27.893064498901367,-2.1768798828125,0.375732421875,0.1112060546875
5.804,617,3147,3147,3147,13.0,29.0,9.0,-3.295898199081421,-5.798339366912842,5.859374523162842,-2.4613037109375,0.3001708984375,-0.0377197265625
5.825,590,3147,3147,3147,13.0,29.0,9.0,7.995604991912842,-0.2441406100988388,24.475095748901367,-2.331298828125,0.233154296875,-0.0244140625
5.825,519,3147,3147,3147,13.0,29.0,9.0,7.995604991912842,-0.2441406100988388,24.475095748901367,-1.6656494140625,0.1107177734375,0.0966796875
5.835,499,3147,3128,3147,13.0,29.0,9.0,37.17041015625,1.3427733182907104,24.414060592651367,-0.96337890625,0.365966796875,0.2764892578125
5.842,499,3147,3102,3147,13.0,29.0,9.0,36.56005859375,9.033203125,-4.150390625,-0.6705322265625,0.960693359375,0.3433837890625
5.851,497,3147,3033,3147,14.0,30.0,8.0,36.56005859375,9.033203125,-4.150390625,-0.91015625,1.2066650390625,0.2850341796875
5.863,497,3147,2820,3147,14.0,30.0,8.0,-39.85595703125,42.175289154052734,-38.75732421875,-1.5015869140625,0.900390625,0.17626953125
5.872,495,3147,2727,3147,14.0,30.0,8.0,-62.133785247802734,46.691890716552734,-29.724119186401367,-1.9581298828125,0.3585205078125,0.080078125
5.905,487,3147,2633,3147,14.0,30.0,8.0,-62.133785247802734,46.691890716552734,-29.724119186401367,-1.9581298828125,0.3585205078125,0.080078125
5.905,473,3147,2419,2984,14.0,30.0,8.0,-21.545408248901367,25.268552780151367,5.554198741912842,-1.86669921875,-0.0257568359375,0.1875
5.905,463,3147,2333,2813,14.0,30.0,8.0,-21.545408248901367,25.268552780151367,5.554198741912842,-1.5750732421875,0.12890625,0.2479248046875
5.910,470,3147,2139,2612,14.0,30.0,8.0,5.371093273162842,16.6015625,23.437498092651367,-1.5750732421875,0.12890625,0.2479248046875
5.929,446,3147,1715,2186,14.0,30.0,8.0,24.047849655151367,24.719236373901367,49.743648529052734,-0.94580078125,0.3970947265625,0.146240234375
5.932,428,3147,1377,1861,14.0,30.0,8.0,24.047849655151367,24.719236373901367,49.743648529052734,-0.6986083984375,0.431884765625,0.04052734375
5.940,402,3147,1105,1541,14.0,30.0,8.0,19.10400390625,33.14208984375,45.959468841552734,-0.6986083984375,0.431884765625,0.04052734375
5.953,374,3147,802,644,15.0,33.0,8.0,-7.385253429412842,43.212886810302734,-0.2441406100988388,-0.4830322265625,0.2554931640625,-0.1248779296875
5.962,355,2872,644,376,15.0,33.0,8.0,-7.385253429412842,43.212886810302734,-0.2441406100988388,-0.528076171875,0.114990234375,-0.1524658203125
5.970,346,2183,553,365,15.0,33.0,8.0,-18.98193359375,43.884273529052734,-23.864744186401367,-0.528076171875,0.114990234375,-0.1524658203125
6.007,328,1483,402,346,15.0,33.0,8.0,-19.4091796875,35.09521484375,-28.747556686401367,-0.50439453125,-0.0120849609375,-0.037109375
6.008,323,1330,364,317,15.0,33.0,8.0,-19.4091796875,35.09521484375,-28.747556686401367,-0.414306640625,0.091552734375,-0.017822265625
6.008,321,1260,382,334,15.0,33.0,8.0,-10.681151390075684,31.616209030151367,-17.39501953125,-0.414306640625,0.091552734375,-0.017822265625
6.014,312,887,376,328,15.0,33.0,8.0,-6.286620616912842,26.306150436401367,-9.09423828125,-0.4622802734375,0.1697998046875,0.11572265625
6.026,315,813,362,328,15.0,33.0,8.0,-6.286620616912842,26.306150436401367,-9.09423828125,-0.5057373046875,0.23388671875,0.19921875
6.031,314,895,371,330,15.0,33.0,8.0,-9.27734375,23.071287155151367,-7.690429210662842,-0.5057373046875,0.23388671875,0.19921875
6.043,316,1241,402,336,15.0,32.0,9.0,-8.11767578125,15.197752952575684,1.5258787870407104,-0.53759765625,0.4884033203125,0.2232666015625
6.052,315,1386,404,334,15.0,32.0,9.0,-8.11767578125,15.197752952575684,1.5258787870407104,-0.5853271484375,0.541748046875,0.1773681640625
6.060,316,1600,402,334,15.0,32.0,9.0,-7.507323741912842,8.97216796875,5.065917491912842,-0.5853271484375,0.541748046875,0.1773681640625
6.074,318,1840,406,336,15.0,32.0,9.0,-11.352538108825684,-4.69970703125,-1.8920897245407104,-0.648681640625,0.2723388671875,-0.021240234375
6.085,321,1973,390,334,15.0,32.0,9.0,-11.352538108825684,-4.69970703125,-1.8920897245407104,-0.6561279296875,0.1640625,-0.063232421875
6.104,323,2362,418,351,15.0,32.0,9.0,-7.568358898162842,-10.009765625,-6.591796398162842,-0.6561279296875,0.1640625,-0.063232421875
6.104,324,2863,401,348,15.0,32.0,9.0,0.54931640625,-15.747069358825684,-7.629394054412842,-0.68115234375,0.239013671875,0.003662109375
6.112,329,3147,442,356,15.0,32.0,9.0,6.835937023162842,-21.667478561401367,-6.347655773162842,-0.68115234375,0.239013671875,0.003662109375
6.133,332,3147,526,559,15.0,32.0,9.0,6.164550304412842,-26.306150436401367,-5.126952648162842,-0.7152099609375,0.2686767578125,0.003662109375
6.134,324,3147,596,922,15.0,32.0,9.0,0.30517578125,-28.808591842651367,-4.69970703125,-0.755615234375,0.2265625,-0.07421875
6.142,347,3147,677,1129,14.0,30.0,11.0,-4.69970703125,-29.785154342651367,-3.601073980331421,-0.755615234375,0.2265625,-0.07421875
6.150,360,3147,802,1262,14.0,30.0,11.0,-5.0048828125,-30.883787155151367,-1.7700194120407104,-0.7576904296875,0.2335205078125,-0.085205078125
6.164,387,3147,958,1665,14.0,30.0,11.0,-3.051757574081421,-33.3251953125,-1.03759765625,-0.6934814453125,0.1748046875,0.0054931640625
6.172,401,3147,1251,2047,14.0,30.0,11.0,-2.3193359375,-36.7431640625,-1.0986328125,-0.6934814453125,0.1748046875,0.0054931640625
6.180,414,3147,1453,2207,14.0,30.0,11.0,-2.868652105331421,-39.48974609375,0.1220703050494194,-0.54931640625,0.1358642578125,0.10546875
6.199,436,3147,1691,2648,14.0,30.0,11.0,-5.615233898162842,-41.687007904052734,1.5258787870407104,-0.3035888671875,0.0870361328125,0.2781982421875
6.213,447,3147,1915,2898,14.0,30.0,11.0,-10.131834983825684,-42.541500091552734,-1.5869139432907104,-0.3035888671875,0.0870361328125,0.2781982421875
6.214,458,3147,2113,3090,14.0,30.0,11.0,-14.160155296325684,-41.015621185302734,-12.023924827575684,-0.291748046875,0.083740234375,0.3099365234375
6.231,479,3147,2448,3147,14.0,30.0,11.0,-16.90673828125,-37.353515625,-26.855466842651367,-0.8199462890625,0.4261474609375,0.383056640625
6.235,469,3147,2734,3147,14.0,30.0,11.0,-17.578125,-33.203125,-36.1328125,-0.8199462890625,0.4261474609375,0.383056640625
6.240,495,3147,2919,3147,15.0,31.0,8.0,-17.39501953125,-30.761716842651367,-30.334470748901367,-1.4150390625,0.714111328125,0.436279296875
6.254,504,3147,3115,3147,15.0,31.0,8.0,-16.78466796875,-27.832029342651367,-12.939452171325684,-2.486328125,0.432861328125,0.1414794921875
6.262,508,3147,3147,3147,15.0,31.0,8.0,-12.634276390075684,-21.484373092651367,5.615233898162842,-2.486328125,0.432861328125,0.1414794921875
6.270,513,3147,3147,3147,15.0,31.0,8.0,-3.662109136581421,-13.610838890075684,21.362302780151367,-2.651123046875,0.2547607421875,-0.016357421875
6.288,507,3147,3057,3147,15.0,31.0,8.0,10.742186546325684,-8.4228515625,34.11865234375,-1.4810791015625,0.0634765625,0.1097412109375
6.304,505,3147,3035,3147,15.0,31.0,8.0,30.883787155151367,-5.981444835662842,34.1796875,-1.4810791015625,0.0634765625,0.1097412109375
6.304,501,3147,3035,3147,15.0,31.0,8.0,48.400875091552734,-1.3427733182907104,14.343260765075684,-0.8756103515625,0.5059814453125,0.3360595703125
6.317,501,3147,2954,3147,15.0,31.0,8.0,43.151851654052734,11.291502952575684,-10.437010765075684,-1.54296875,1.1961669921875,0.197265625
6.322,497,3147,2887,3147,15.0,31.0,8.0,5.432128429412842,28.686521530151367,-19.6533203125,-1.54296875,1.1961669921875,0.197265625
6.335,497,3147,2798,3147,15.0,31.0,8.0,-36.07177734375,37.841796875,-10.925292015075684,-1.995361328125,0.6387939453125,0.0333251953125
6.344,496,3147,2576,3147,13.0,28.0,9.0,-43.701168060302734,31.494138717651367,3.417968511581421,-2.04052734375,0.114013671875,0.0784912109375
6.352,495,3147,2471,3147,13.0,28.0,9.0,-18.00537109375,15.808104515075684,15.014647483825684,-1.8011474609375,0.0040283203125,0.2095947265625
6.360,490,3147,2306,3015,13.0,28.0,9.0,14.160155296325684,4.39453125,24.536130905151367,-1.4764404296875,0.201904296875,0.2569580078125
6.425,479,3147,2018,2512,13.0,28.0,9.0,30.883787155151367,4.69970703125,33.63037109375,-1.1697998046875,0.402587890625,0.2056884765625
6.425,469,3147,1816,2213,13.0,28.0,9.0,27.648923873901367,13.610838890075684,39.9169921875,-0.897705078125,0.3751220703125,0.1087646484375
6.425,465,3147,1638,1769,13.0,28.0,9.0,14.526366233825684,23.498533248901367,37.78076171875,-0.6773681640625,0.222412109375,-0.004150390625
6.425,433,3147,1224,917,13.0,28.0,9.0,7.019042491912842,29.602048873901367,23.132322311401367,-0.5377197265625,0.15234375,-0.100830078125
6.425,414,3147,907,464,13.0,28.0,9.0,8.97216796875,32.1044921875,-0.7934569716453552,-0.4649658203125,0.183349609375,-0.1702880859375
6.433,393,2810,588,391,13.0,28.0,9.0,10.314940452575684,32.71484375,-22.888181686401367,-0.43896484375,0.1922607421875,-0.1646728515625
6.441,363,1934,564,383,15.0,31.0,11.0,4.08935546875,30.700681686401367,-32.71484375,-0.4349365234375,0.1051025390625,-0.0811767578125
6.442,348,1794,468,354,15.0,31.0,11.0,-2.746581792831421,26.794431686401367,-28.198240280151367,-0.427734375,0.0440673828125,0.0184326171875
6.450,342,1387,361,348,15.0,31.0,11.0,-1.7089842557907104,23.498533248901367,-16.66259765625,-0.432861328125,0.0540771484375,0.102294921875
6.464,328,1129,344,344,15.0,31.0,11.0,3.967284917831421,20.568845748901367,-7.446288585662842,-0.4764404296875,0.0594482421875,0.16552734375
6.472,323,976,363,332,15.0,31.0,11.0,9.09423828125,16.54052734375,-2.38037109375,-0.5137939453125,0.0989990234375,0.24609375
6.480,323,1064,360,338,15.0,31.0,11.0,13.305663108825684,11.291502952575684,1.03759765625,-0.5123291015625,0.216796875,0.335205078125
6.514,321,1331,347,332,15.0,31.0,11.0,16.54052734375,6.103515148162842,2.685546636581421,-0.5330810546875,0.4013671875,0.4031982421875
6.515,322,1348,369,338,15.0,31.0,11.0,16.357421875,1.5869139432907104,2.01416015625,-0.604736328125,0.5711669921875,0.4063720703125
6.515,321,1424,356,332,15.0,31.0,11.0,10.803221702575684,-2.197265625,-0.4272460639476776,-0.6785888671875,0.5972900390625,0.2789306640625
6.544,327,1593,456,338,15.0,31.0,11.0,1.5258787870407104,-4.57763671875,-4.08935546875,-0.7156982421875,0.4764404296875,0.0765380859375
6.544,328,1607,438,348,11.0,32.0,12.0,-6.530761241912842,-6.103515148162842,-7.934569835662842,-0.7252197265625,0.3065185546875,-0.0745849609375
6.544,330,1806,454,352,11.0,32.0,12.0,-8.056640625,-8.544921875,-9.765625,-0.722412109375,0.1878662109375,-0.1453857421875
6.554,336,2440,574,361,11.0,32.0,12.0,-3.540038824081421,-11.413573265075684,-8.36181640625,-0.7301025390625,0.1778564453125,-0.1492919921875
6.562,336,2698,604,371,11.0,32.0,12.0,0.2441406100988388,-14.038084983825684,-4.57763671875,-0.763427734375,0.224365234375,-0.11328125
6.570,346,2938,627,375,11.0,32.0,12.0,-1.03759765625,-15.930174827575684,-0.1220703050494194,-0.8099365234375,0.251220703125,-0.0870361328125
6.584,351,3147,687,493,11.0,32.0,12.0,-5.371093273162842,-16.78466796875,4.2724609375,-0.83154296875,0.251708984375,-0.08056640625
6.611,361,3147,784,667,11.0,32.0,12.0,-8.1787109375,-16.9677734375,8.056640625,-0.799072265625,0.2659912109375,-0.0833740234375
6.611,371,3147,808,943,11.0,32.0,12.0,-7.019042491912842,-17.08984375,9.765625,-0.721923828125,0.30078125,-0.0975341796875
6.614,400,3147,853,1365,11.0,32.0,12.0,-3.723144292831421,-17.51708984375,8.23974609375,-0.6153564453125,0.3240966796875,-0.09423828125
6.623,409,3147,1170,1610,11.0,32.0,12.0,-0.4882812201976776,-19.59228515625,4.39453125,-0.53271484375,0.341552734375,-0.0423583984375
6.648,423,3147,1487,1840,11.0,29.0,8.0,0.6713866591453552,-25.024412155151367,1.4038084745407104,-0.48974609375,0.3104248046875,0.0743408203125
6.649,441,3147,1850,2205,11.0,29.0,8.0,-3.906249761581421,-34.24072265625,-0.9155272841453552,-0.42724609375,0.2049560546875,0.2391357421875
6.652,455,3147,2087,2430,11.0,29.0,8.0,-11.962889671325684,-43.518062591552734,-6.164550304412842,-0.322509765625,0.1263427734375,0.3494873046875
6.660,468,3147,2233,2599,11.0,29.0,8.0,-17.39501953125,-47.973628997802734,-17.39501953125,-0.22998046875,0.110107421875,0.360107421875
6.674,485,3147,2657,2945,11.0,29.0,8.0,-17.333984375,-47.180171966552734,-32.3486328125,-0.25146484375,0.130615234375,0.3272705078125
6.682,497,3147,2959,3058,11.0,29.0,8.0,-14.160155296325684,-43.945308685302734,-44.677730560302734,-0.5225830078125,0.248046875,0.3360595703125
6.690,506,3147,3147,3137,11.0,29.0,8.0,-14.648436546325684,-39.306640625,-47.668453216552734,-1.032470703125,0.484375,0.404052734375
6.712,643,3147,3147,3147,11.0,29.0,8.0,-25.512693405151367,-32.8369140625,-37.9638671875,-1.616943359375,0.62646484375,0.392822265625
6.713,705,3147,3147,3147,11.0,29.0,8.0,-43.029781341552734,-22.949216842651367,-17.7001953125,-2.1982421875,0.48193359375,0.2637939453125
6.720,757,3147,3147,3147,11.0,29.0,8.0,-54.138179779052734,-12.084959983825684,9.09423828125,-2.6207275390625,0.0654296875,0.150146484375
6.746,769,3147,3147,3147,15.0,28.0,14.0,-45.776363372802734,-5.676269054412842,36.68212890625,-2.6201171875,-0.3604736328125,0.107666015625
6.747,711,3147,3147,3147,15.0,28.0,14.0,-11.596678733825684,-3.540038824081421,54.138179779052734,-2.1055908203125,-0.3802490234375,0.08984375
6.750,648,3147,3147,3147,15.0,28.0,14.0,36.7431640625,-1.4038084745407104,51.269527435302734,-1.2750244140625,0.2252197265625,0.1715087890625
6.764,533,3147,3147,3147,15.0,28.0,14.0,65.4296875,6.530761241912842,28.747556686401367,-0.6607666015625,1.1358642578125,0.3087158203125
6.772,518,3147,3147,3147,15.0,28.0,14.0,41.503902435302734,24.414060592651367,-1.0986328125,-0.6787109375,1.5631103515625,0.3575439453125
6.780,518,3147,3147,3147,15.0,28.0,14.0,-23.803709030151367,46.264644622802734,-22.888181686401367,-1.23876953125,1.2169189453125,0.3038330078125
6.794,514,3147,3010,3147,15.0,28.0,14.0,-77.45361328125,58.288570404052734,-27.160642623901367,-1.857666015625,0.478271484375,0.174560546875
6.813,513,3147,2879,3147,15.0,28.0,14.0,-81.78710174560547,52.307125091552734,-15.686034202575684,-2.1072998046875,-0.1197509765625,0.0870361328125
6.813,512,3147,2695,3147,15.0,28.0,14.0,-81.78710174560547,52.307125091552734,-15.686034202575684,-1.9710693359375,-0.227294921875,0.09765625
6.825,501,3147,2354,3082,16.0,29.0,10.0,6.713866710662842,14.465331077575684,22.644041061401367,-1.625732421875,0.041748046875,0.184814453125
6.832,498,3147,2205,2898,16.0,29.0,10.0,37.65869140625,3.540038824081421,36.2548828125,-1.23046875,0.358642578125,0.2569580078125
6.851,488,3147,2058,2683,16.0,29.0,10.0,37.65869140625,3.540038824081421,36.2548828125,-0.8958740234375,0.5347900390625,0.23388671875
6.854,478,3147,1757,2137,16.0,29.0,10.0,39.48974609375,13.916014671325684,38.39111328125,-0.670654296875,0.53564453125,0.13671875
6.863,465,3147,1610,1815,16.0,29.0,10.0,27.648923873901367,24.963376998901367,26.306150436401367,-0.5457763671875,0.404541015625,0.02392578125
6.870,455,3147,1400,1395,16.0,29.0,10.0,27.648923873901367,24.963376998901367,26.306150436401367,-0.488525390625,0.24169921875,-0.0682373046875
6.884,426,3147,1085,564,16.0,29.0,10.0,3.356933355331421,36.19384765625,-9.3994140625,-0.470458984375,0.1102294921875,-0.1407470703125
6.892,402,3147,738,428,16.0,29.0,10.0,-5.187987804412842,34.72900390625,-19.8974609375,-0.4921875,0.0242919921875,-0.152587890625
6.916,374,2823,546,391,16.0,29.0,10.0,-5.187987804412842,34.72900390625,-19.8974609375,-0.5286865234375,-0.0185546875,-0.0931396484375
6.916,348,2460,363,344,16.0,29.0,10.0,-7.019042491912842,22.155759811401367,-13.916014671325684,-0.5364990234375,-0.03173828125,0.031005859375
6.922,338,2367,390,352,15.0,33.0,8.0,0.0610351525247097,16.41845703125,-5.676269054412842,-0.5479736328125,0.025146484375,0.1556396484375
6.930,336,2407,347,348,15.0,33.0,8.0,0.0610351525247097,16.41845703125,-5.676269054412842,-0.560791015625,0.1239013671875,0.2080078125
6.964,331,2391,327,328,15.0,33.0,8.0,13.793944358825684,13.977049827575684,5.249022960662842,-0.5672607421875,0.224853515625,0.22314453125
6.964,330,2367,354,338,15.0,33.0,8.0,15.014647483825684,13.854979515075684,6.103515148162842,-0.598876953125,0.3607177734375,0.1956787109375
6.964,329,2396,369,344,15.0,33.0,8.0,15.014647483825684,13.854979515075684,6.103515148162842,-0.6197509765625,0.4775390625,0.146728515625
6.974,330,2616,363,343,15.0,33.0,8.0,1.9531248807907104,9.94873046875,3.479003667831421,-0.6292724609375,0.5269775390625,0.1427001953125
6.982,329,2765,351,346,15.0,33.0,8.0,-6.164550304412842,5.859374523162842,1.7089842557907104,-0.6588134765625,0.4962158203125,0.145751953125
6.990,331,2909,351,344,15.0,33.0,8.0,-6.164550304412842,5.859374523162842,1.7089842557907104,-0.705078125,0.4019775390625,0.0867919921875
7.018,334,3099,388,354,15.0,33.0,8.0,-7.202147960662842,-0.7324218153953552,0.1220703050494194,-0.7523193359375,0.310546875,0.005859375
7.018,336,3147,416,360,15.0,33.0,8.0,-3.845214605331421,-2.807616949081421,0.6103515625,-0.7882080078125,0.24755859375,-0.0244140625
7.021,338,3147,453,417,12.0,30.0,9.0,-3.845214605331421,-2.807616949081421,0.6103515625,-0.7882080078125,0.24755859375,-0.0244140625
7.030,343,3147,473,567,12.0,30.0,9.0,-1.2817381620407104,-6.103515148162842,1.2817381620407104,-0.7952880859375,0.212890625,0.00146484375
7.064,346,3147,572,917,12.0,30.0,9.0,-1.7089842557907104,-13.671874046325684,2.685546636581421,-0.755615234375,0.201904296875,0.037353515625
7.065,348,3147,548,1146,12.0,30.0,9.0,-1.7089842557907104,-13.671874046325684,2.685546636581421,-0.70849609375,0.2052001953125,0.019287109375
7.065,360,3147,546,1384,12.0,30.0,9.0,-2.197265625,-16.4794921875,4.7607421875,-0.70849609375,0.2052001953125,0.019287109375
7.074,382,3147,617,1781,12.0,30.0,9.0,-0.6103515625,-21.301267623901367,9.6435546875,-0.632568359375,0.2481689453125,0.0267333984375
7.082,398,3147,797,1969,12.0,30.0,9.0,-0.6103515625,-21.301267623901367,9.6435546875,-0.5894775390625,0.262451171875,0.0308837890625
7.089,414,3147,1122,2215,12.0,30.0,9.0,-0.2441406100988388,-24.414060592651367,9.58251953125,-0.5894775390625,0.262451171875,0.0308837890625
7.121,438,3147,1382,2541,12.0,30.0,9.0,-5.249022960662842,-30.395505905151367,2.44140625,-0.4666748046875,0.2569580078125,0.052978515625
7.121,455,3147,1613,2734,12.0,30.0,9.0,-5.249022960662842,-30.395505905151367,2.44140625,-0.486083984375,0.2733154296875,0.1004638671875
7.121,466,3147,1770,2901,11.0,29.0,12.0,-9.33837890625,-31.616209030151367,-3.173827886581421,-0.486083984375,0.2733154296875,0.1004638671875
7.133,479,3147,2093,3126,11.0,29.0,12.0,-12.145995140075684,-31.433103561401367,-9.521484375,-0.7462158203125,0.3551025390625,0.2347412109375
7.141,488,3147,2347,3147,11.0,29.0,12.0,-13.000487327575684,-31.005857467651367,-15.319823265075684,-0.7462158203125,0.3551025390625,0.2347412109375
7.154,497,3147,2541,3147,11.0,29.0,12.0,-11.474608421325684,-31.860349655151367,-18.49365234375,-0.977783203125,0.357177734375,0.30517578125
7.167,508,3147,2840,3147,11.0,29.0,12.0,-7.751464366912842,-34.36279296875,-16.7236328125,-1.4107666015625,0.1712646484375,0.3275146484375
7.171,510,3147,3010,3147,11.0,29.0,12.0,-2.44140625,-36.2548828125,-11.657713890075684,-1.4107666015625,0.1712646484375,0.3275146484375
7.179,526,3147,3101,3147,11.0,29.0,12.0,4.150390625,-34.24072265625,-4.82177734375,-1.586181640625,0.1671142578125,0.2845458984375
7.192,526,3147,3147,3147,11.0,29.0,12.0,11.779784202575684,-27.893064498901367,5.187987804412842,-1.8385009765625,0.4337158203125,0.1463623046875
7.201,521,3147,3147,3147,11.0,29.0,12.0,18.37158203125,-19.59228515625,17.02880859375,-1.8385009765625,0.4337158203125,0.1463623046875
7.225,519,3147,3147,3147,11.0,29.0,12.0,20.568845748901367,-11.962889671325684,25.329587936401367,-1.8040771484375,0.480224609375,0.129150390625
7.226,497,3147,2993,3147,11.0,30.0,7.0,19.10400390625,-5.798339366912842,26.611326217651367,-1.1151123046875,0.4676513671875,0.23974609375
7.231,514,3147,2948,3147,11.0,30.0,7.0,19.775390625,0.0610351525247097,19.775390625,-1.1151123046875,0.4676513671875,0.23974609375
7.239,514,3147,2919,3147,11.0,30.0,7.0,22.583005905151367,8.36181640625,6.408690929412842,-0.86083984375,0.64208984375,0.325927734375
7.255,518,3147,2769,3147,11.0,30.0,7.0,16.90673828125,20.874021530151367,-8.30078125,-1.5113525390625,0.915283203125,0.219482421875
7.261,514,3147,2679,3147,11.0,30.0,7.0,-4.94384765625,33.447265625,-17.39501953125,-1.5113525390625,0.915283203125,0.219482421875
7.274,512,3147,2581,3147,11.0,30.0,7.0,-31.494138717651367,38.87939453125,-16.2353515625,-1.9349365234375,0.5404052734375,0.0814208984375
7.283,506,3147,2316,3147,11.0,30.0,7.0,-38.51318359375,33.8134765625,-6.652831554412842,-1.80224609375,0.0037841796875,0.139892578125
7.291,498,3147,2132,3098,11.0,30.0,7.0,-15.747069358825684,20.996091842651367,7.080077648162842,-1.80224609375,0.0037841796875,0.139892578125
7.299,497,3147,2005,2922,11.0,30.0,7.0,18.61572265625,8.36181640625,21.606443405151367,-1.4493408203125,0.25439453125,0.2193603515625
7.330,485,3147,1670,2456,12.0,31.0,3.0,39.9169921875,4.2724609375,32.470703125,-0.8125,0.532470703125,0.1448974609375
7.330,478,3147,1519,2167,12.0,31.0,3.0,39.48974609375,10.070799827575684,34.7900390625,-0.8125,0.532470703125,0.1448974609375
7.330,456,3147,1381,1796,12.0,31.0,3.0,25.329587936401367,20.202634811401367,27.221677780151367,-0.6419677734375,0.3626708984375,0.0743408203125
7.343,437,3147,1043,944,12.0,31.0,3.0,12.329100608825684,28.503416061401367,12.512206077575684,-0.56005859375,0.1541748046875,0.0078125
7.362,406,3089,714,424,12.0,31.0,3.0,9.765625,32.8369140625,-4.94384765625,-0.5347900390625,0.0870361328125,-0.052978515625
7.363,373,2905,458,389,12.0,31.0,3.0,14.038084983825684,33.26416015625,-21.179197311401367,-0.518798828125,0.1387939453125,-0.060791015625
7.382,356,2026,400,359,12.0,31.0,3.0,13.366698265075684,29.785154342651367,-32.8369140625,-0.4276123046875,0.114501953125,0.0234375
7.382,344,1769,332,327,12.0,31.0,3.0,5.920409679412842,24.597166061401367,-36.7431640625,-0.4276123046875,0.114501953125,0.0234375
7.390,334,1667,330,338,12.0,31.0,3.0,2.01416015625,19.83642578125,-32.71484375,-0.460693359375,0.1026611328125,0.0526123046875
7.403,329,1649,356,346,12.0,31.0,3.0,5.676269054412842,16.11328125,-23.376462936401367,-0.544677734375,0.192138671875,0.0758056640625
7.428,327,1607,354,338,12.0,28.0,13.0,10.803221702575684,12.939452171325684,-13.000487327575684,-0.544677734375,0.192138671875,0.0758056640625
7.428,327,1658,336,338,12.0,28.0,13.0,12.268065452575684,9.521484375,-4.7607421875,-0.5565185546875,0.273193359375,0.1328125
7.433,318,1794,390,342,12.0,28.0,13.0,9.70458984375,6.347655773162842,0.8544921278953552,-0.6036376953125,0.4884033203125,0.2763671875
7.442,324,1908,383,338,12.0,28.0,13.0,4.69970703125,3.845214605331421,3.967284917831421,-0.6036376953125,0.4884033203125,0.2763671875
7.450,325,1997,378,344,12.0,28.0,13.0,-0.9155272841453552,1.7700194120407104,4.69970703125,-0.6788330078125,0.513427734375,0.26806640625
7.465,324,2263,382,344,12.0,28.0,13.0,-6.652831554412842,0.7934569716453552,3.479003667831421,-0.7445068359375,0.41796875,0.161376953125
7.472,327,2293,409,346,12.0,28.0,13.0,-11.108397483825684,1.0986328125,1.8310545682907104,-0.7889404296875,0.2978515625,0.0430908203125
7.489,328,2616,387,346,12.0,28.0,13.0,-12.939452171325684,0.7934569716453552,1.3427733182907104,-0.828125,0.222412109375,-0.020751953125
7.494,330,3015,363,348,12.0,28.0,13.0,-12.634276390075684,-1.2817381620407104,2.868652105331421,-0.855224609375,0.1956787109375,-0.0357666015625
7.502,334,3147,382,356,12.0,28.0,13.0,-11.352538108825684,-4.33349609375,6.042479991912842,-0.8538818359375,0.2010498046875,-0.0367431640625
7.510,336,3147,402,481,13.0,30.0,10.0,-9.8876953125,-7.019042491912842,9.8876953125,-0.8243408203125,0.2158203125,-0.0465087890625
7.531,342,3147,418,904,13.0,30.0,10.0,-7.995604991912842,-8.7890625,13.549803733825684,-0.7845458984375,0.25927734375,-0.0645751953125
7.532,344,3147,430,1031,13.0,30.0,10.0,-5.493163585662842,-9.82666015625,16.6015625,-0.7772216796875,0.344482421875,-0.0582275390625
7.542,346,3147,525,1167,13.0,30.0,10.0,-4.2724609375,-11.047362327575684,18.61572265625,-0.790771484375,0.4024658203125,-0.0360107421875
7.567,348,3147,487,1597,13.0,30.0,10.0,-6.591796398162842,-12.878417015075684,19.95849609375,-0.7489013671875,0.3729248046875,-0.0140380859375
7.568,336,3147,539,1834,13.0,30.0,10.0,-9.6435546875,-15.075682640075684,21.911619186401367,-0.661376953125,0.31396484375,0.00537109375
7.570,359,3147,653,2080,13.0,30.0,10.0,-10.803221702575684,-19.10400390625,25.695798873901367,-0.5919189453125,0.2479248046875,0.02978515625
7.584,382,3147,973,2468,13.0,30.0,10.0,-12.512206077575684,-26.794431686401367,28.442380905151367,-0.4810791015625,0.1082763671875,0.10205078125
7.594,406,3147,1201,2736,13.0,30.0,10.0,-14.099120140075684,-36.31591796875,23.803709030151367,-0.2108154296875,-0.0465087890625,0.1865234375
7.600,437,3147,1400,2961,13.0,30.0,10.0,-9.033203125,-43.823238372802734,6.652831554412842,0.13525390625,-0.071533203125,0.221923828125
7.614,473,3147,1786,3147,13.0,29.0,10.0,1.5869139432907104,-46.447750091552734,-22.766111373901367,0.3184814453125,0.070556640625,0.2037353515625
7.638,484,3147,2089,3147,13.0,29.0,10.0,4.8828125,-41.198726654052734,-54.565425872802734,0.154541015625,0.332275390625,0.2257080078125
7.639,500,3147,2435,3147,13.0,29.0,10.0,-10.559081077575684,-29.052732467651367,-73.2421875,-0.4453125,0.64892578125,0.3934326171875
7.646,519,3147,2943,3147,13.0,29.0,10.0,-38.9404296875,-16.4794921875,-69.4580078125,-1.3798828125,0.9083251953125,0.5716552734375
7.652,525,3147,3114,3147,13.0,29.0,10.0,-62.438961029052734,-8.4228515625,-46.081539154052734,-2.2415771484375,0.7496337890625,0.4901123046875
7.665,527,3147,3147,3147,13.0,29.0,10.0,-63.720699310302734,-4.69970703125,-19.34814453125,-2.93310546875,0.2142333984375,0.1690673828125
7.674,526,3147,3040,3147,13.0,29.0,10.0,-37.7197265625,-4.69970703125,5.310058116912842,-3.303466796875,-0.173828125,-0.036376953125
7.682,535,3147,2772,3147,13.0,29.0,10.0,3.356933355331421,-9.46044921875,35.09521484375,-2.7978515625,-0.4144287109375,-0.030517578125
7.690,527,3147,2608,3147,13.0,29.0,10.0,45.715328216552734,-13.366698265075684,57.189937591552734,-1.607177734375,-0.3583984375,0.1983642578125
7.704,524,3147,2559,3147,13.0,29.0,10.0,82.21434783935547,-8.7890625,51.025386810302734,-0.7567138671875,0.54638671875,0.510986328125
7.712,523,3147,2514,3147,14.0,29.0,9.0,88.50096893310547,9.33837890625,23.376462936401367,-0.8348388671875,1.8001708984375,0.4844970703125
7.734,521,3147,2477,3147,14.0,29.0,9.0,35.400390625,34.3017578125,-1.5869139432907104,-1.4495849609375,2.015625,0.1748046875
7.734,500,3147,2388,3147,14.0,29.0,9.0,-43.029781341552734,47.607418060302734,-12.390135765075684,-1.954833984375,1.0302734375,-0.011474609375
7.742,518,3147,2268,3147,14.0,29.0,9.0,-70.9228515625,42.602535247802734,-11.596678733825684,-2.0517578125,0.0838623046875,0.030517578125
7.750,513,3147,2098,3147,14.0,29.0,9.0,-32.89794921875,27.038572311401367,-3.723144292831421,-1.798583984375,-0.118408203125,0.1187744140625
7.772,507,3147,1834,3147,14.0,29.0,9.0,18.9208984375,12.756346702575684,6.835937023162842,-1.4310302734375,0.135986328125,0.162109375
7.772,481,3147,1624,3147,14.0,29.0,9.0,42.846675872802734,8.11767578125,16.7236328125,-1.093505859375,0.4176025390625,0.1572265625
7.781,485,3147,1494,2985,14.0,29.0,9.0,38.26904296875,13.183592796325684,23.742673873901367,-0.782958984375,0.5052490234375,0.126708984375
7.789,473,3147,1379,2636,14.0,29.0,9.0,22.827146530151367,22.033689498901367,23.925779342651367,-0.558837890625,0.4031982421875,0.0830078125
7.837,445,3147,1127,2032,11.0,32.0,4.0,9.09423828125,30.090330123901367,14.831542015075684,-0.4505615234375,0.2359619140625,0.027099609375
7.837,426,3147,1003,1433,11.0,32.0,4.0,0.1220703050494194,35.5224609375,-2.13623046875,-0.42919921875,0.08203125,-0.03857421875
7.837,403,3147,630,858,11.0,32.0,4.0,0.1220703050494194,35.5224609375,-2.13623046875,-0.47119140625,-0.01708984375,-0.102783203125
7.837,361,3147,430,375,11.0,32.0,4.0,-8.72802734375,36.68212890625,-34.36279296875,-0.526611328125,-0.0291748046875,-0.1019287109375
7.841,348,2657,470,363,11.0,32.0,4.0,-8.36181640625,30.395505905151367,-35.46142578125,-0.5445556640625,0.0333251953125,-0.0469970703125
7.849,345,2396,369,352,11.0,32.0,4.0,-8.36181640625,30.395505905151367,-35.46142578125,-0.511962890625,0.141357421875,0.0062255859375
7.876,336,2152,344,348,11.0,32.0,4.0,3.417968511581421,17.333984375,-17.88330078125,-0.4698486328125,0.20849609375,0.041015625
7.876,332,1850,365,347,11.0,32.0,4.0,7.629394054412842,15.014647483825684,-12.084959983825684,-0.5009765625,0.212646484375,0.0615234375
7.879,331,1826,343,336,11.0,32.0,4.0,7.629394054412842,15.014647483825684,-12.084959983825684,-0.5654296875,0.24169921875,0.0848388671875
7.892,328,1999,371,344,11.0,32.0,4.0,15.197752952575684,10.131834983825684,-1.9531248807907104,-0.5572509765625,0.3167724609375,0.128662109375
7.901,330,2108,348,344,15.0,30.0,12.0,16.41845703125,6.042479991912842,2.44140625,-0.5264892578125,0.4337158203125,0.21875
7.915,328,2230,371,347,15.0,30.0,12.0,16.41845703125,6.042479991912842,2.44140625,-0.5772705078125,0.5286865234375,0.2777099609375
7.944,331,2505,385,349,15.0,30.0,12.0,3.906249761581421,-3.479003667831421,-1.15966796875,-0.680419921875,0.4849853515625,0.2042236328125
7.945,334,2691,356,332,15.0,30.0,12.0,-5.310058116912842,-4.39453125,-3.479003667831421,-0.77392578125,0.343505859375,0.0650634765625
7.945,333,2765,363,361,15.0,30.0,12.0,-5.310058116912842,-4.39453125,-3.479003667831421,-0.854248046875,0.2344970703125,-0.01806640625
7.954,336,2952,398,344,15.0,30.0,12.0,-5.859374523162842,-6.042479991912842,1.15966796875,-0.912109375,0.181640625,-0.0341796875
7.975,336,3126,456,361,15.0,30.0,12.0,0.1220703050494194,-10.559081077575684,6.652831554412842,-0.942138671875,0.1685791015625,-0.01513671875
7.979,344,3147,470,370,15.0,30.0,12.0,0.1220703050494194,-10.559081077575684,6.652831554412842,-0.95458984375,0.1767578125,0.0015869140625
7.984,349,3147,567,504,15.0,30.0,12.0,6.347655773162842,-18.6767578125,18.12744140625,-0.9727783203125,0.185302734375,-0.007568359375
7.992,351,3147,594,501,15.0,30.0,12.0,6.103515148162842,-19.04296875,26.062009811401367,-1.0283203125,0.1942138671875,-0.015869140625
8.001,352,3147,620,562,15.0,35.0,7.0,6.103515148162842,-19.04296875,26.062009811401367,-1.125244140625,0.16455078125,-0.0010986328125
8.021,354,3147,553,683,15.0,35.0,7.0,-0.7324218153953552,-18.12744140625,53.527828216552734,-1.20751953125,0.063720703125,0.00732421875
8.022,338,3147,564,800,15.0,35.0,7.0,-1.8920897245407104,-20.812986373901367,70.98388671875,-1.169677734375,-0.0565185546875,0.0008544921875
8.057,352,3147,537,927,15.0,35.0,7.0,-1.8920897245407104,-20.812986373901367,70.98388671875,-0.9967041015625,-0.103271484375,0.028564453125
8.085,346,3147,478,1215,15.0,35.0,7.0,21.301267623901367,-35.70556640625,98.38866424560547,-0.7764892578125,-0.0628662109375,0.080810546875
8.085,359,3147,496,1540,15.0,35.0,7.0,45.593257904052734,-45.532222747802734,105.28563690185547,-0.48876953125,-0.000244140625,0.1251220703125
8.085,375,3147,521,1813,15.0,35.0,7.0,45.593257904052734,-45.532222747802734,105.28563690185547,-0.00927734375,0.06591796875,0.166259765625
8.085,416,3147,1184,2308,15.0,35.0,7.0,77.45361328125,-56.640621185302734,83.98436737060547,0.661376953125,0.1591796875,0.17578125
8.087,437,3147,1575,2489,15.0,35.0,7.0,78.79638671875,-56.640621185302734,39.9169921875,1.2392578125,0.3460693359375,0.1383056640625
8.091,465,3147,1809,2723,15.0,35.0,7.0,78.79638671875,-56.640621185302734,39.9169921875,1.2872314453125,0.755126953125,0.0408935546875
8.104,487,3147,2113,3147,10.0,32.0,9.0,34.0576171875,-35.15625,-76.66015625,0.6533203125,1.369384765625,-0.03515625
8.112,513,3147,2384,3147,10.0,32.0,9.0,-18.06640625,-13.671874046325684,-95.33690643310547,-0.5390625,1.9635009765625,0.0301513671875
8.146,522,3147,2724,3147,10.0,32.0,9.0,-18.06640625,-13.671874046325684,-95.33690643310547,-1.8211669921875,2.1473388671875,0.3079833984375
8.147,533,3147,3147,3147,10.0,32.0,9.0,-118.40819549560547,-13.793944358825684,-35.5224609375,-2.6007080078125,1.1966552734375,0.49560546875
8.147,567,3147,3147,3147,10.0,32.0,9.0,-137.51220703125,-33.3251953125,-23.681638717651367,-3.0028076171875,-0.6412353515625,0.37939453125
8.151,646,3147,3147,3147,10.0,32.0,9.0,-137.51220703125,-33.3251953125,-23.681638717651367,-3.0028076171875,-0.6412353515625,0.37939453125
8.164,559,3147,3147,3147,10.0,32.0,9.0,-26.916501998901367,-33.447265625,-37.4755859375,-2.8419189453125,-0.8955078125,0.46826171875
8.174,536,3147,3147,3147,10.0,32.0,9.0,-26.916501998901367,-33.447265625,-37.4755859375,-1.76171875,0.064208984375,0.3038330078125
8.180,533,3147,3147,3147,10.0,32.0,9.0,65.85693359375,-22.155759811401367,2.746581792831421,-1.76171875,0.064208984375,0.3038330078125
8.200,533,3147,3064,3147,10.0,32.0,11.0,96.49657440185547,20.812986373901367,19.10400390625,-0.4954833984375,1.5584716796875,0.1827392578125
8.202,532,3147,3064,3147,10.0,32.0,11.0,96.49657440185547,20.812986373901367,19.10400390625,-0.7652587890625,1.818115234375,-0.0411376953125
8.211,527,3147,2991,3147,10.0,32.0,11.0,26.916501998901367,44.250484466552734,-15.563963890075684,-0.7652587890625,1.818115234375,-0.0411376953125
8.224,526,3147,2901,3147,10.0,32.0,11.0,-86.85301971435547,47.119136810302734,-56.152339935302734,-1.939453125,0.68115234375,-0.0670166015625
8.264,526,3147,2795,3147,10.0,32.0,11.0,-86.85301971435547,47.119136810302734,-56.152339935302734,-2.08203125,0.3001708984375,0.0238037109375
8.265,525,3147,2621,3147,10.0,32.0,11.0,-62.377925872802734,30.944822311401367,-46.508785247802734,-2.08203125,0.3001708984375,0.0238037109375
8.265,519,3147,2394,3147,10.0,32.0,11.0,6.896972179412842,0.7934569716453552,-23.254392623901367,-1.6463623046875,0.214111328125,0.2415771484375
8.265,514,3147,2178,3086,10.0,32.0,11.0,6.896972179412842,0.7934569716453552,-23.254392623901367,-1.3575439453125,0.2972412109375,0.2896728515625
8.289,508,3147,2028,2813,10.0,32.0,11.0,18.24951171875,-3.234863042831421,-12.451170921325684,-1.3575439453125,0.2972412109375,0.2896728515625
8.294,497,3147,1741,2233,10.0,32.0,11.0,19.34814453125,10.131834983825684,14.587401390075684,-0.744140625,0.28125,0.24462890625
8.294,482,3147,1527,1874,10.0,32.0,9.0,19.34814453125,10.131834983825684,14.587401390075684,-0.5577392578125,0.1177978515625,0.161865234375
8.304,466,3147,1343,1357,10.0,32.0,9.0,17.333984375,19.6533203125,20.629880905151367,-0.5577392578125,0.1177978515625,0.161865234375
8.314,427,3147,989,731,10.0,32.0,9.0,16.357421875,32.958984375,3.601073980331421,-0.4697265625,-0.12255859375,-0.0802001953125
8.330,402,3147,576,411,10.0,32.0,9.0,16.357421875,32.958984375,3.601073980331421,-0.4669189453125,-0.021240234375,-0.120361328125
8.330,371,2760,464,377,10.0,32.0,9.0,18.5546875,33.935546875,-12.756346702575684,-0.4669189453125,-0.021240234375,-0.120361328125
8.363,356,1978,431,371,10.0,32.0,9.0,19.59228515625,22.155759811401367,-40.832515716552734,-0.3824462890625,0.2720947265625,-0.0335693359375
8.363,347,1592,348,338,10.0,32.0,9.0,19.59228515625,22.155759811401367,-40.832515716552734,-0.4852294921875,0.35205078125,-0.016845703125
8.363,324,1370,348,338,10.0,32.0,9.0,13.305663108825684,18.4326171875,-49.377437591552734,-0.4852294921875,0.35205078125,-0.016845703125
8.383,327,646,375,334,10.0,32.0,9.0,4.2724609375,17.63916015625,-48.950191497802734,-0.6214599609375,0.35302734375,0.0577392578125
8.386,322,513,361,329,10.0,32.0,9.0,-2.929687261581421,15.319823265075684,-40.283199310302734,-0.6214599609375,0.35302734375,0.0577392578125
8.391,318,513,371,338,8.0,32.0,13.0,-3.417968511581421,11.535643577575684,-28.076169967651367,-0.5650634765625,0.3992919921875,0.0985107421875
8.399,318,616,371,336,8.0,32.0,13.0,-0.2441406100988388,8.1787109375,-16.78466796875,-0.52734375,0.459716796875,0.1658935546875
8.413,321,790,382,336,8.0,32.0,13.0,-0.0610351525247097,3.479003667831421,-10.681151390075684,-0.6165771484375,0.328125,0.298095703125
8.426,323,975,372,328,8.0,32.0,13.0,-1.7700194120407104,-1.8310545682907104,-11.413573265075684,-0.6165771484375,0.328125,0.298095703125
8.429,327,1079,390,346,8.0,32.0,13.0,-2.50244140625,-5.187987804412842,-15.869139671325684,-0.67333984375,0.227783203125,0.266357421875
8.460,330,1508,472,346,8.0,32.0,13.0,-3.723144292831421,-6.347655773162842,-19.22607421875,-0.7169189453125,0.1834716796875,0.10791015625
8.461,331,1560,508,351,8.0,32.0,13.0,-5.798339366912842,-6.408690929412842,-18.12744140625,-0.7169189453125,0.1834716796875,0.10791015625
8.461,333,1775,537,348,8.0,32.0,13.0,-9.27734375,-6.225585460662842,-13.061522483825684,-0.7342529296875,0.1968994140625,0.040771484375
8.488,342,2165,594,360,8.0,32.0,13.0,-14.587401390075684,-6.774901866912842,-5.371093273162842,-0.752685546875,0.170166015625,-0.01123046875
8.490,344,2507,588,370,8.0,32.0,13.0,-19.34814453125,-8.7890625,3.723144292831421,-0.753173828125,0.123046875,-0.0626220703125
8.492,347,2963,600,354,11.0,30.0,9.0,-20.324705123901367,-12.268065452575684,11.962889671325684,-0.7490234375,0.110595703125,-0.1107177734375
8.503,365,3147,625,519,11.0,30.0,9.0,-16.6015625,-16.90673828125,16.78466796875,-0.7359619140625,0.1507568359375,-0.132080078125
8.511,383,3147,651,862,11.0,30.0,9.0,-10.864256858825684,-22.094724655151367,17.7001953125,-0.6591796875,0.2003173828125,-0.0859375
8.519,400,3147,938,1117,11.0,30.0,9.0,-5.859374523162842,-27.465818405151367,15.747069358825684,-0.5357666015625,0.233154296875,0.0244140625
8.558,430,3147,1470,1662,11.0,30.0,9.0,-3.784179449081421,-32.71484375,12.268065452575684,-0.371337890625,0.232666015625,0.1298828125
8.559,454,3147,1838,1888,11.0,30.0,9.0,-6.225585460662842,-36.56005859375,5.371093273162842,-0.103515625,0.188232421875,0.1903076171875
8.559,468,3147,2111,2194,11.0,30.0,9.0,-11.962889671325684,-36.92626953125,-10.375975608825684,0.2103271484375,0.16650390625,0.1844482421875
8.563,486,3147,2594,2481,11.0,30.0,9.0,-19.59228515625,-33.3251953125,-36.19384765625,0.3704833984375,0.2001953125,0.1378173828125
8.571,497,3147,2861,2692,11.0,30.0,9.0,-29.968259811401367,-26.916501998901367,-64.453125,0.1201171875,0.2818603515625,0.1649169921875
8.587,509,3147,3147,2929,11.0,30.0,9.0,-43.151851654052734,-20.507810592651367,-82.09227752685547,-0.588623046875,0.4989013671875,0.32470703125
8.593,683,3147,3147,3147,16.0,30.0,8.0,-56.823726654052734,-18.24951171875,-79.833984375,-1.50244140625,0.81689453125,0.5396728515625
8.601,769,3147,3147,3147,16.0,30.0,8.0,-67.626953125,-20.996091842651367,-59.265132904052734,-2.321044921875,0.7967529296875,0.6153564453125
8.609,834,3147,3147,3147,16.0,30.0,8.0,-68.9697265625,-23.071287155151367,-35.58349609375,-2.9210205078125,0.178955078125,0.3990478515625
8.623,815,3147,3147,3147,16.0,30.0,8.0,-54.870601654052734,-19.287109375,-19.4091796875,-3.23291015625,-0.4959716796875,0.1136474609375
8.631,766,3147,3147,3147,16.0,30.0,8.0,-22.094724655151367,-13.183592796325684,2.563476324081421,-2.8846435546875,-0.7734375,0.0189208984375
8.662,710,3147,3147,3147,16.0,30.0,8.0,29.174802780151367,-8.11767578125,33.203125,-1.7559814453125,-0.61181640625,0.158447265625
