time,compression0,compression1,compression2,compression3,magn_x,magn_y,magn_z,gyro_x,gyro_y,gyro_z,accel_x,accel_y,accel_z
0.009,351,3147,1488,1056,6.0,30.0,12.0,-16.90673828125,-15.869139671325684,15.502928733825684,-0.8680419921875,0.4595947265625,0.0682373046875
0.017,347,3147,1468,1055,6.0,30.0,12.0,-17.51708984375,-17.27294921875,16.78466796875,-0.8680419921875,0.4595947265625,0.0682373046875
0.033,346,3147,1481,1039,6.0,30.0,12.0,-20.01953125,-18.06640625,19.04296875,-0.876708984375,0.4720458984375,0.0775146484375
0.051,356,3147,1440,992,6.0,33.0,11.0,-25.817869186401367,-17.27294921875,23.315427780151367,-0.8974609375,0.4345703125,0.0501708984375
0.052,349,3147,1411,934,6.0,33.0,11.0,-35.0341796875,-15.502928733825684,30.700681686401367,-0.8974609375,0.4345703125,0.0501708984375
0.061,346,3147,1316,813,6.0,33.0,11.0,-47.668453216552734,-14.099120140075684,41.870113372802734,-0.8955078125,0.376953125,0.0472412109375
0.069,338,3147,1195,757,6.0,33.0,11.0,-63.476558685302734,-13.244627952575684,56.701656341552734,-0.8106689453125,0.177001953125,0.0733642578125
0.085,334,3147,1082,829,6.0,33.0,11.0,-79.52880859375,-13.427733421325684,73.1201171875,-0.8106689453125,0.177001953125,0.0733642578125
0.091,334,3147,918,951,6.0,33.0,11.0,-87.82958221435547,-17.39501953125,86.30370330810547,-0.7359619140625,0.1275634765625,0.1251220703125
0.099,331,3147,874,1204,6.0,33.0,11.0,-76.66015625,-26.123044967651367,91.24755096435547,-0.220458984375,0.1943359375,0.1953125
0.107,328,3147,856,1516,6.0,33.0,11.0,-43.884273529052734,-35.82763671875,83.80126190185547,-0.220458984375,0.1943359375,0.1953125
0.115,329,3147,883,2018,6.0,33.0,11.0,3.173827886581421,-44.738765716552734,56.396480560302734,0.3348388671875,0.1783447265625,0.224853515625
0.130,338,3147,991,2737,6.0,33.0,11.0,67.7490234375,-51.025386810302734,5.554198741912842,0.8297119140625,0.54931640625,-0.0048828125
0.160,348,3147,1206,3147,5.0,32.0,19.0,138.24462890625,-50.720211029052734,-51.818843841552734,0.8297119140625,0.54931640625,-0.0048828125
0.161,360,3147,1430,3147,5.0,32.0,19.0,153.80859375,-45.166011810302734,-94.78759002685547,0.506103515625,1.3189697265625,-0.005859375
0.161,382,3147,1899,3147,5.0,32.0,19.0,70.49560546875,-36.0107421875,-119.07958221435547,-1.2923583984375,1.8616943359375,0.078125
0.173,400,3147,2161,3147,5.0,32.0,19.0,-70.556640625,-23.132322311401367,-123.22997283935547,-1.2923583984375,1.8616943359375,0.078125
0.176,411,3147,2308,3147,5.0,32.0,19.0,-201.41600036621094,-14.343260765075684,-108.64257049560547,-1.904541015625,1.8350830078125,0.0711669921875
0.195,430,3147,2494,3147,5.0,32.0,19.0,-299.6826171875,-18.4326171875,-92.59032440185547,-2.43505859375,0.4464111328125,0.253173828125
0.200,436,3147,2557,3147,5.0,32.0,19.0,-354.6752624511719,-23.498533248901367,-88.98925018310547,-2.43505859375,0.4464111328125,0.253173828125
0.206,431,3147,2722,3147,5.0,32.0,19.0,-330.8105163574219,-18.4326171875,-87.28026580810547,-2.376953125,-0.322021484375,0.4710693359375
0.220,428,3147,2754,3147,5.0,32.0,19.0,-225.70799255371094,-4.0283203125,-82.15331268310547,-1.294189453125,-0.8594970703125,0.60791015625
0.228,440,3147,2659,3147,5.0,32.0,19.0,-90.57616424560547,13.122557640075684,-76.84326171875,-1.294189453125,-0.8594970703125,0.60791015625
0.236,439,3147,2530,3147,12.0,30.0,11.0,10.864256858825684,17.88330078125,-63.537593841552734,-1.0760498046875,-0.5509033203125,0.674072265625
0.258,454,3147,2535,3147,12.0,30.0,11.0,53.955074310302734,17.63916015625,-43.395992279052734,-1.2545166015625,0.3355712890625,0.6026611328125
0.259,445,3147,2525,3147,12.0,30.0,11.0,57.250972747802734,29.663084030151367,-29.602048873901367,-1.2545166015625,0.3355712890625,0.6026611328125
0.266,466,3147,2464,3147,12.0,30.0,11.0,35.888671875,42.663570404052734,-21.179197311401367,-1.531005859375,1.0101318359375,0.42236328125
0.302,434,3147,2408,3147,12.0,30.0,11.0,1.8920897245407104,44.494625091552734,-10.437010765075684,-1.615234375,0.7181396484375,0.082763671875
0.303,430,3147,2308,3089,12.0,30.0,11.0,-15.930174827575684,41.198726654052734,-0.9155272841453552,-1.615234375,0.7181396484375,0.082763671875
0.304,430,3147,2207,3031,12.0,30.0,11.0,1.2817381620407104,31.921384811401367,6.530761241912842,-1.338623046875,0.0687255859375,0.0985107421875
0.311,400,3147,1996,2790,12.0,30.0,11.0,36.56005859375,15.441893577575684,16.7236328125,-0.96923828125,-0.32861328125,0.188232421875
0.318,391,3147,1874,2668,12.0,30.0,11.0,68.4814453125,-0.30517578125,29.479978561401367,-0.648193359375,-0.355224609375,0.2677001953125
0.326,387,3147,1742,2514,12.0,30.0,11.0,91.85790252685547,-8.60595703125,37.841796875,-0.4476318359375,-0.1318359375,0.348876953125
0.340,376,3147,1551,2290,9.0,30.0,11.0,106.56737518310547,-4.57763671875,36.376953125,-0.39208984375,0.1973876953125,0.3963623046875
0.360,373,3147,1456,2203,9.0,30.0,11.0,110.10741424560547,11.779784202575684,26.428220748901367,-0.4581298828125,0.4434814453125,0.3575439453125
0.361,371,3147,1447,2028,9.0,30.0,11.0,102.11180877685547,30.944822311401367,13.793944358825684,-0.6207275390625,0.5267333984375,0.24365234375
0.370,369,3147,1450,1694,9.0,30.0,11.0,86.60887908935547,41.320796966552734,5.249022960662842,-0.809814453125,0.5052490234375,0.119873046875
0.381,362,3147,1416,1437,9.0,30.0,11.0,69.88525390625,42.114253997802734,3.051757574081421,-0.8994140625,0.4278564453125,-0.0037841796875
0.404,361,3147,1316,1196,9.0,30.0,11.0,55.603023529052734,39.794921875,4.33349609375,-0.8746337890625,0.3402099609375,-0.1077880859375
0.405,361,3147,1173,818,9.0,30.0,11.0,44.921871185302734,36.1328125,7.446288585662842,-0.806640625,0.2734375,-0.13525390625
0.408,360,3147,1078,673,9.0,30.0,11.0,40.954586029052734,31.066892623901367,11.535643577575684,-0.758544921875,0.2279052734375,-0.0941162109375
0.417,356,3147,1038,501,9.0,30.0,11.0,43.090816497802734,25.085447311401367,14.526366233825684,-0.768310546875,0.19482421875,-0.0233154296875
0.430,347,3128,913,375,9.0,27.0,17.0,47.180171966552734,19.287109375,15.808104515075684,-0.8321533203125,0.185302734375,0.060546875
0.438,334,2801,799,371,9.0,27.0,17.0,52.490230560302734,14.892577171325684,15.930174827575684,-0.900146484375,0.208984375,0.13916015625
0.463,337,2400,806,371,9.0,27.0,17.0,60.241695404052734,12.573241233825684,14.770506858825684,-0.9039306640625,0.26220703125,0.178955078125
0.464,334,1732,853,369,9.0,27.0,17.0,70.9228515625,12.268065452575684,13.061522483825684,-0.8480224609375,0.385986328125,0.2027587890625
0.468,338,1648,919,364,9.0,27.0,17.0,81.11571502685547,11.840819358825684,11.962889671325684,-0.78564453125,0.5576171875,0.2236328125
0.476,332,1476,971,360,9.0,27.0,17.0,84.71678924560547,9.21630859375,11.047362327575684,-0.7540283203125,0.682861328125,0.2000732421875
0.500,333,1116,1034,354,9.0,27.0,17.0,79.04052734375,4.5166015625,8.85009765625,-0.7564697265625,0.7183837890625,0.149658203125
0.502,328,932,1054,323,9.0,27.0,17.0,67.07763671875,-0.1220703050494194,4.33349609375,-0.7890625,0.65966796875,0.100830078125
0.511,330,859,1079,348,9.0,27.0,17.0,54.992671966552734,-2.929687261581421,-0.6713866591453552,-0.8270263671875,0.5322265625,0.0443115234375
0.520,343,661,1071,346,9.0,27.0,17.0,48.400875091552734,-4.0283203125,-2.563476324081421,-0.833740234375,0.4119873046875,-0.0054931640625
0.528,344,694,1100,347,10.0,32.0,20.0,46.813961029052734,-4.638671875,-1.15966796875,-0.7652587890625,0.3577880859375,-0.03125
0.537,345,714,1117,348,10.0,32.0,20.0,41.687007904052734,-5.615233898162842,0.4272460639476776,-0.6002197265625,0.427001953125,-0.052490234375
0.555,337,658,1149,348,10.0,32.0,20.0,23.376462936401367,-6.713866710662842,-1.15966796875,-0.5272216796875,0.5277099609375,-0.074951171875
0.568,348,835,1103,348,10.0,32.0,20.0,-11.535643577575684,-7.324218273162842,-3.479003667831421,-0.570068359375,0.4591064453125,-0.089599609375
0.568,344,1283,1070,347,10.0,32.0,20.0,-53.344722747802734,-6.286620616912842,0.6103515625,-0.56640625,0.2645263671875,-0.110595703125
0.582,328,2359,943,338,10.0,32.0,20.0,-88.13475799560547,-5.126952648162842,12.207030296325684,-0.5478515625,0.0870361328125,-0.0955810546875
0.588,328,3048,966,348,10.0,32.0,20.0,-106.50634002685547,-8.30078125,28.564451217651367,-0.5673828125,-0.0133056640625,0.0328369140625
0.603,327,3147,910,707,10.0,32.0,20.0,-98.08348846435547,-19.775390625,45.715328216552734,-0.45068359375,-0.0701904296875,0.23974609375
0.610,331,3147,803,1834,10.0,32.0,20.0,-57.739253997802734,-39.12353515625,51.818843841552734,0.0157470703125,-0.09765625,0.3155517578125
0.624,328,3147,799,2362,10.0,32.0,20.0,3.662109136581421,-60.974117279052734,33.69140625,0.7030029296875,-0.2598876953125,0.1907958984375
0.626,324,3147,747,2797,7.0,31.0,13.0,78.7353515625,-76.416015625,-10.375975608825684,1.440673828125,-0.2734375,-0.07763671875
0.641,338,3147,830,3147,7.0,31.0,13.0,140.0146484375,-74.27978515625,-73.54736328125,1.4410400390625,0.45361328125,-0.288818359375
0.672,390,3147,1466,3147,7.0,31.0,13.0,2.25830078125,-24.719236373901367,-148.92578125,-1.16162109375,2.27880859375,0.1014404296875
0.679,414,3147,2398,3147,7.0,31.0,13.0,-168.09080505371094,-0.6713866591453552,-134.09423828125,-2.4990234375,3.14794921875,0.34130859375
0.685,423,3147,2911,3147,7.0,31.0,13.0,-377.0141296386719,-3.479003667831421,-106.44530487060547,-3.3037109375,2.41162109375,0.434814453125
0.703,425,3147,3120,3147,7.0,31.0,13.0,-532.65380859375,-12.329100608825684,-91.67479705810547,-3.4912109375,0.2293701171875,0.34521484375
0.707,548,3147,3147,3147,7.0,31.0,13.0,-468.3227233886719,-3.601073980331421,-81.84813690185547,-3.21240234375,-1.227294921875,0.28515625
0.711,579,3147,3147,3147,7.0,31.0,13.0,-222.53416442871094,13.977049827575684,-63.354488372802734,-2.28466796875,-1.9307861328125,0.2724609375
0.718,539,3147,3147,3147,7.0,31.0,13.0,21.850584030151367,32.40966796875,-48.400875091552734,-1.3714599609375,-1.82763671875,0.19873046875
0.736,428,3147,3147,3147,18.0,28.0,13.0,138.61083984375,26.306150436401367,-34.85107421875,-1.114013671875,-0.8358154296875,0.484375
0.738,416,3147,3147,3147,18.0,28.0,13.0,120.23925018310547,10.925292015075684,-20.629880905151367,-1.391845703125,0.260498046875,0.8385009765625
0.746,424,3147,3147,3147,18.0,28.0,13.0,56.213375091552734,28.991697311401367,-8.97216796875,-1.9637451171875,1.2882080078125,0.6185302734375
0.768,416,3147,3022,3147,18.0,28.0,13.0,-3.845214605331421,59.143062591552734,2.3193359375,-2.1939697265625,1.4332275390625,0.1048583984375
0.768,431,3147,2833,3147,18.0,28.0,13.0,-33.99658203125,64.697265625,9.521484375,-1.950927734375,0.7200927734375,-0.177978515625
0.777,414,3147,2671,3147,18.0,28.0,13.0,-33.99658203125,64.697265625,9.521484375,-1.4857177734375,-0.0093994140625,-0.05029296875
0.790,441,3147,2362,3120,18.0,28.0,13.0,20.812986373901367,0.0,42.114253997802734,-1.0103759765625,-0.4193115234375,0.3076171875
0.804,415,3147,2207,2859,18.0,28.0,13.0,55.908199310302734,-18.85986328125,71.4111328125,-0.7205810546875,-0.59423828125,0.5098876953125
0.806,398,3147,1981,2516,18.0,28.0,13.0,55.908199310302734,-18.85986328125,71.4111328125,-0.6605224609375,-0.6021728515625,0.403076171875
0.821,376,3147,1326,1798,14.0,31.0,15.0,86.48680877685547,7.507323741912842,119.75096893310547,-0.6956787109375,-0.469482421875,0.1602783203125
0.828,354,3147,934,1217,14.0,31.0,15.0,93.38378143310547,15.563963890075684,130.67626953125,-0.65673828125,-0.2252197265625,-0.0377197265625
0.836,348,3147,917,748,14.0,31.0,15.0,93.38378143310547,15.563963890075684,130.67626953125,-0.535400390625,0.133056640625,-0.110595703125
0.850,348,2813,1025,400,14.0,31.0,15.0,101.98973846435547,2.746581792831421,102.72216033935547,-0.5225830078125,0.4080810546875,0.017822265625
0.871,344,2054,1081,398,14.0,31.0,15.0,103.82079315185547,8.48388671875,65.73486328125,-0.5859375,0.4447021484375,0.129638671875
0.871,338,986,1109,371,14.0,31.0,15.0,103.82079315185547,8.48388671875,65.73486328125,-0.6009521484375,0.433837890625,-0.025146484375
0.886,321,555,942,334,14.0,31.0,15.0,99.85350799560547,54.870601654052734,-20.935056686401367,-0.593017578125,0.5260009765625,-0.21435546875
0.888,313,579,834,330,14.0,31.0,15.0,91.12548065185547,51.818843841552734,-39.306640625,-0.5933837890625,0.557373046875,-0.127685546875
0.911,315,639,694,332,14.0,31.0,15.0,91.12548065185547,51.818843841552734,-39.306640625,-0.50439453125,0.334716796875,0.0909423828125
0.911,315,625,646,330,14.0,31.0,15.0,57.678218841552734,17.15087890625,-63.903804779052734,-0.3746337890625,0.2052001953125,0.236083984375
0.921,313,725,678,330,11.0,31.0,12.0,46.020503997802734,11.352538108825684,-68.42041015625,-0.390380859375,0.38525390625,0.26416015625
0.927,315,757,733,334,11.0,31.0,12.0,46.020503997802734,11.352538108825684,-68.42041015625,-0.4283447265625,0.6199951171875,0.1597900390625
0.940,316,1065,837,336,11.0,31.0,12.0,34.24072265625,-2.44140625,-29.541013717651367,-0.3897705078125,0.743408203125,0.0322265625
0.949,321,1163,871,344,11.0,31.0,12.0,14.282225608825684,-0.4882812201976776,-4.39453125,-0.40185546875,0.7567138671875,-0.062744140625
0.974,323,1372,858,331,11.0,31.0,12.0,14.282225608825684,-0.4882812201976776,-4.39453125,-0.5233154296875,0.7021484375,-0.093994140625
0.974,323,1789,829,351,11.0,31.0,12.0,-22.460935592651367,4.33349609375,33.0810546875,-0.6549072265625,0.5775146484375,-0.0238037109375
0.979,324,2195,834,349,11.0,31.0,12.0,-22.460935592651367,4.33349609375,33.0810546875,-0.7197265625,0.405029296875,0.08056640625
0.994,324,2480,860,354,11.0,31.0,12.0,-29.235837936401367,-2.38037109375,43.640132904052734,-0.7197265625,0.405029296875,0.08056640625
1.010,330,2949,830,360,11.0,31.0,12.0,-20.446775436401367,-15.624999046325684,46.142574310302734,-0.806640625,0.2677001953125,0.1602783203125
1.013,327,3147,846,363,11.0,31.0,12.0,-20.446775436401367,-15.624999046325684,46.142574310302734,-0.88720703125,0.3597412109375,0.13818359375
1.017,324,3147,865,408,10.0,32.0,12.0,-14.709471702575684,-20.141599655151367,44.311519622802734,-0.88720703125,0.3597412109375,0.13818359375
1.030,330,3147,853,646,10.0,32.0,12.0,-28.137205123901367,-22.827146530151367,48.583980560302734,-1.022216796875,0.446533203125,-0.0357666015625
1.038,328,3147,799,813,10.0,32.0,12.0,-28.137205123901367,-22.827146530151367,48.583980560302734,-1.053955078125,0.4129638671875,-0.102294921875
1.047,328,3147,713,841,10.0,32.0,12.0,-42.053218841552734,-22.583005905151367,56.152339935302734,-1.053955078125,0.4129638671875,-0.102294921875
1.075,318,3147,656,1236,10.0,32.0,12.0,-61.401363372802734,-29.113767623901367,71.96044921875,-0.970703125,0.34033203125,-0.200927734375
1.076,319,3147,614,1604,10.0,32.0,12.0,-61.401363372802734,-29.113767623901367,71.96044921875,-0.64208984375,0.1900634765625,-0.1912841796875
1.076,316,3147,600,1954,10.0,32.0,12.0,-61.279293060302734,-38.6962890625,70.73974609375,-0.64208984375,0.1900634765625,-0.1912841796875
1.098,348,3147,738,2610,10.0,32.0,12.0,-6.774901866912842,-68.4814453125,11.108397483825684,0.4334716796875,-0.3282470703125,0.193603515625
1.098,354,3147,837,3012,10.0,32.0,12.0,-6.774901866912842,-68.4814453125,11.108397483825684,0.8377685546875,-0.7265625,0.4383544921875
1.112,369,3147,1067,3147,10.0,32.0,12.0,59.326168060302734,-78.857421875,-46.386714935302734,0.8377685546875,-0.7265625,0.4383544921875
1.121,373,3147,1262,3147,10.0,29.0,13.0,148.62060546875,-35.70556640625,-132.6904296875,0.3330078125,0.0909423828125,0.2874755859375
1.128,372,3147,1445,3147,10.0,29.0,13.0,148.62060546875,-35.70556640625,-132.6904296875,-0.6861572265625,1.69970703125,0.5208740234375
1.137,382,3147,1653,3147,10.0,29.0,13.0,88.07372283935547,-16.7236328125,-114.01366424560547,-0.6861572265625,1.69970703125,0.5208740234375
1.165,388,3147,2087,3147,10.0,29.0,13.0,-149.35302734375,17.63916015625,-48.889156341552734,-2.189453125,2.8026123046875,0.608642578125
1.165,405,3147,2710,3147,10.0,29.0,13.0,-149.35302734375,17.63916015625,-48.889156341552734,-2.7947998046875,1.9757080078125,0.5147705078125
1.178,409,3147,2954,3147,10.0,29.0,13.0,-240.17332458496094,30.151365280151367,-54.443355560302734,-2.7947998046875,1.9757080078125,0.5147705078125
1.187,430,3147,3032,3147,10.0,29.0,13.0,-182.12889099121094,-1.9531248807907104,-74.3408203125,-2.86767578125,-1.00634765625,0.00927734375
1.188,498,3147,3045,3147,10.0,29.0,13.0,-182.12889099121094,-1.9531248807907104,-74.3408203125,-2.1873779296875,-1.4239501953125,-0.3360595703125
1.211,521,3147,3048,3147,10.0,29.0,13.0,-23.681638717651367,3.967284917831421,-90.08788299560547,-2.1873779296875,-1.4239501953125,-0.3360595703125
1.218,495,3147,3093,3147,10.0,29.0,13.0,115.29540252685547,-11.657713890075684,-78.30810546875,-2.137939453125,1.096435546875,0.3731689453125
1.219,484,3147,2832,3147,10.0,27.0,14.0,124.26757049560547,-31.677244186401367,-41.748043060302734,-2.137939453125,1.096435546875,0.3731689453125
1.226,444,3147,2541,3147,10.0,27.0,14.0,37.353515625,-11.169432640075684,-12.084959983825684,-2.059326171875,0.917724609375,0.4024658203125
1.240,401,3147,2397,3147,10.0,27.0,14.0,-41.015621185302734,23.925779342651367,4.69970703125,-1.508544921875,-0.289306640625,0.1717529296875
1.248,403,3147,2201,3147,10.0,27.0,14.0,-57.983394622802734,41.381832122802734,18.06640625,-1.508544921875,-0.289306640625,0.1717529296875
1.256,391,3147,1978,3147,10.0,27.0,14.0,-26.855466842651367,35.400390625,35.2783203125,-1.1563720703125,-0.396484375,0.016845703125
1.279,473,3147,1521,2727,10.0,27.0,14.0,21.057126998901367,9.033203125,60.302730560302734,-0.28564453125,0.2144775390625,0.360595703125
1.279,661,3147,923,2076,10.0,27.0,14.0,57.861324310302734,-20.629880905151367,84.22850799560547,-0.28564453125,0.2144775390625,0.360595703125
1.286,521,3147,1202,2130,10.0,27.0,14.0,69.3359375,-27.893064498901367,87.70751190185547,0.1204833984375,0.3377685546875,0.5037841796875
1.300,464,3147,1050,1476,10.0,27.0,14.0,62.255855560302734,-6.591796398162842,64.27001953125,0.1800537109375,0.3125,0.287353515625
1.326,418,3147,1243,1042,12.0,31.0,10.0,52.673336029052734,23.803709030151367,24.963376998901367,0.1800537109375,0.3125,0.287353515625
1.327,575,3147,943,759,12.0,31.0,10.0,47.119136810302734,47.546382904052734,-15.441893577575684,-0.0145263671875,0.4176025390625,0.1405029296875
1.330,495,3147,1056,493,12.0,31.0,10.0,42.053218841552734,56.335445404052734,-43.640132904052734,-0.39306640625,0.5489501953125,0.037841796875
1.338,369,3147,1163,430,12.0,31.0,10.0,33.02001953125,49.438472747802734,-52.978511810302734,-0.39306640625,0.5489501953125,0.037841796875
1.346,355,3147,1143,411,12.0,31.0,10.0,20.568845748901367,37.59765625,-47.729488372802734,-0.5103759765625,0.5477294921875,0.0616455078125
1.360,338,3147,1095,434,12.0,31.0,10.0,4.45556640625,31.616209030151367,-36.31591796875,-0.768310546875,0.3043212890625,0.01123046875
1.383,336,3147,1054,493,12.0,31.0,10.0,-14.709471702575684,29.235837936401367,-23.803709030151367,-0.768310546875,0.3043212890625,0.01123046875
1.383,338,3147,1063,578,12.0,31.0,10.0,-29.785154342651367,23.071287155151367,-12.023924827575684,-0.8658447265625,0.0909423828125,0.0185546875
1.390,328,3147,1093,815,12.0,31.0,10.0,-32.53173828125,13.366698265075684,-1.4038084745407104,-0.9639892578125,-0.1512451171875,-0.007080078125
1.401,336,3147,1120,958,12.0,31.0,10.0,-23.193357467651367,3.723144292831421,7.873534679412842,-0.9639892578125,-0.1512451171875,-0.007080078125
1.426,344,3147,1122,1070,11.0,31.0,16.0,-8.36181640625,-4.39453125,13.916014671325684,-1.0069580078125,-0.069580078125,0.0162353515625
1.427,334,3147,1143,1155,11.0,31.0,16.0,3.417968511581421,-10.742186546325684,15.563963890075684,-1.0369873046875,0.08642578125,0.058349609375
1.429,351,3147,1112,1199,11.0,31.0,16.0,7.812499523162842,-14.282225608825684,15.075682640075684,-1.059814453125,0.255859375,0.09033203125
1.437,468,3147,1024,1183,11.0,31.0,16.0,6.591796398162842,-14.160155296325684,15.441893577575684,-1.072509765625,0.3883056640625,0.0919189453125
1.445,576,3147,942,1132,11.0,31.0,16.0,1.0986328125,-11.779784202575684,17.4560546875,-1.06787109375,0.44775390625,0.0771484375
1.459,484,3147,1018,1074,11.0,31.0,16.0,-7.324218273162842,-9.765625,20.629880905151367,-1.050537109375,0.4486083984375,0.066162109375
1.470,571,3147,944,978,11.0,31.0,16.0,-15.319823265075684,-9.6435546875,25.024412155151367,-1.0335693359375,0.423583984375,0.067626953125
1.485,543,3147,933,844,11.0,31.0,16.0,-21.301267623901367,-10.742186546325684,31.005857467651367,-1.0201416015625,0.383056640625,0.0679931640625
1.489,478,3147,864,456,11.0,31.0,16.0,-24.841306686401367,-12.023924827575684,38.818359375,-1.00537109375,0.32470703125,0.053466796875
1.497,361,3147,846,359,11.0,31.0,16.0,-26.184080123901367,-13.977049827575684,48.706050872802734,-0.98388671875,0.2572021484375,0.040771484375
1.505,331,3114,753,344,7.0,31.0,14.0,-25.878904342651367,-17.9443359375,59.753414154052734,-0.9437255859375,0.2091064453125,0.0498046875
1.532,414,2833,586,334,7.0,31.0,14.0,-22.888181686401367,-24.414060592651367,70.1904296875,-0.8731689453125,0.1900634765625,0.062255859375
1.533,370,2772,493,319,7.0,31.0,14.0,-17.2119140625,-30.883787155151367,78.857421875,-0.7646484375,0.191162109375,0.0592041015625
1.535,342,2921,549,332,7.0,31.0,14.0,-13.549803733825684,-36.1328125,86.30370330810547,-0.6324462890625,0.2149658203125,0.1083984375
1.550,331,3147,546,465,7.0,31.0,14.0,-15.930174827575684,-43.579097747802734,92.59032440185547,-0.525146484375,0.2618408203125,0.2718505859375
1.558,315,3147,561,986,7.0,31.0,14.0,-18.24951171875,-56.579586029052734,93.81102752685547,-0.3255615234375,0.15283203125,0.375
1.565,318,3147,590,1478,7.0,31.0,14.0,-6.774901866912842,-68.29833984375,82.21434783935547,0.13671875,-0.103271484375,0.2030029296875
1.591,328,3147,815,2415,7.0,31.0,14.0,22.216794967651367,-74.462890625,51.818843841552734,0.8250732421875,-0.27734375,0.0089111328125
1.591,354,3147,1156,2925,7.0,31.0,14.0,61.462398529052734,-78.79638671875,-1.5869139432907104,1.4140625,-0.4227294921875,0.116943359375
1.596,371,3147,1456,3147,7.0,31.0,14.0,103.27147674560547,-72.1435546875,-69.091796875,1.4461669921875,-0.2205810546875,0.271484375
1.609,604,3147,321,573,8.0,31.0,19.0,109.49706268310547,-46.630855560302734,-120.42235565185547,0.6954345703125,0.671142578125,0.2210693359375
1.626,402,3147,1689,3147,8.0,31.0,19.0,37.7197265625,-13.183592796325684,-127.13622283935547,-0.6663818359375,1.8995361328125,0.177734375
1.641,416,3147,2005,3147,8.0,31.0,19.0,-75.37841796875,15.686034202575684,-94.72655487060547,-1.8070068359375,2.7559814453125,0.29931640625
1.644,428,3147,2645,3147,8.0,31.0,19.0,-181.76268005371094,31.188962936401367,-67.0166015625,-2.4522705078125,2.5906982421875,0.462646484375
1.649,430,3147,3147,3147,8.0,31.0,19.0,-276.611328125,24.169919967651367,-60.058589935302734,-3.055419921875,1.574951171875,0.8118896484375
1.657,601,3147,416,3147,8.0,31.0,19.0,-311.95068359375,-5.065917491912842,-55.419918060302734,-3.5194091796875,-0.0645751953125,1.079833984375
1.669,564,3147,3147,3147,8.0,31.0,19.0,-216.79685974121094,-7.812499523162842,-56.335445404052734,-3.094482421875,-1.7166748046875,0.423828125
1.690,437,3147,3147,3147,8.0,31.0,19.0,-18.24951171875,20.935056686401367,-53.955074310302734,-1.9097900390625,-1.528564453125,-0.27685546875
1.691,431,3147,3147,3147,8.0,31.0,19.0,129.39453125,3.601073980331421,-33.75244140625,-1.2362060546875,0.1705322265625,0.0001220703125
1.699,428,3147,2937,3147,8.0,31.0,19.0,135.80322265625,-33.69140625,-13.122557640075684,-1.4981689453125,1.3106689453125,0.491455078125
1.708,424,3147,2765,3147,15.0,28.0,8.0,57.434078216552734,-19.287109375,-4.82177734375,-2.0126953125,1.355224609375,0.6082763671875
1.742,438,3147,2544,3147,15.0,28.0,8.0,-21.728513717651367,25.756834030151367,-3.784179449081421,-2.100830078125,0.861572265625,0.50634765625
1.743,404,3147,2350,3147,15.0,28.0,8.0,-51.696773529052734,57.312007904052734,-3.967284917831421,-1.7852783203125,0.3765869140625,0.3079833984375
1.743,406,3147,2221,3147,15.0,28.0,8.0,-32.53173828125,58.288570404052734,-0.6713866591453552,-1.3592529296875,-0.0440673828125,0.1046142578125
1.750,481,3147,1994,3147,15.0,28.0,8.0,15.869139671325684,31.860349655151367,11.413573265075684,-1.0009765625,-0.2203369140625,0.180419921875
1.759,424,3147,1742,3147,15.0,28.0,8.0,66.7724609375,-1.5258787870407104,31.311033248901367,-0.705078125,-0.0028076171875,0.491943359375
1.767,418,3147,1552,2995,15.0,28.0,8.0,92.46825408935547,-14.038084983825684,46.081539154052734,-0.409912109375,0.33056640625,0.671142578125
1.793,402,3147,1506,2748,15.0,28.0,8.0,92.46825408935547,-14.038084983825684,46.081539154052734,-0.1583251953125,0.4813232421875,0.5899658203125
1.793,378,3147,1531,2007,15.0,28.0,8.0,63.720699310302734,24.047849655151367,27.832029342651367,-0.04443359375,0.42333984375,0.3555908203125
1.797,382,3147,1506,1650,15.0,28.0,8.0,43.823238372802734,49.865718841552734,4.0283203125,-0.0814208984375,0.252685546875,0.1029052734375
1.805,371,3147,1467,1323,12.0,30.0,11.0,43.823238372802734,49.865718841552734,4.0283203125,-0.168701171875,0.084716796875,-0.0611572265625
1.833,359,3147,1439,861,12.0,30.0,11.0,26.855466842651367,68.90869140625,-31.433103561401367,-0.2744140625,0.014892578125,-0.10107421875
1.833,354,3147,1348,697,12.0,30.0,11.0,30.944822311401367,57.983394622802734,-35.5224609375,-0.4364013671875,0.0498046875,-0.077392578125
1.846,348,3147,1323,588,12.0,30.0,11.0,39.4287109375,44.433589935302734,-32.2265625,-0.6251220703125,0.1617431640625,-0.033203125
1.851,342,3147,1189,481,12.0,30.0,11.0,41.748043060302734,33.50830078125,-24.230955123901367,-0.755615234375,0.260498046875,0.011962890625
1.863,344,3147,1163,579,12.0,30.0,11.0,34.11865234375,26.123044967651367,-14.404295921325684,-0.7764892578125,0.2752685546875,0.026123046875
1.867,338,3147,1173,678,12.0,30.0,11.0,22.766111373901367,21.057126998901367,-4.82177734375,-0.742431640625,0.2576904296875,0.047607421875
1.880,338,3147,1160,794,12.0,30.0,11.0,15.319823265075684,15.502928733825684,3.723144292831421,-0.74853515625,0.2880859375,0.1092529296875
1.896,332,3147,1160,868,12.0,30.0,11.0,11.230467796325684,9.6435546875,10.559081077575684,-0.7979736328125,0.3157958984375,0.1505126953125
1.897,328,3147,1126,954,15.0,29.0,17.0,11.230467796325684,9.6435546875,10.559081077575684,-0.8504638671875,0.305908203125,0.12060546875
1.913,328,3147,1122,1012,15.0,29.0,17.0,0.1831054538488388,3.662109136581421,19.53125,-0.882568359375,0.2996826171875,0.0831298828125
1.918,328,3147,1098,1054,15.0,29.0,17.0,-4.150390625,-0.6103515625,22.827146530151367,-0.9051513671875,0.3055419921875,0.078857421875
1.935,330,3147,1095,1101,15.0,29.0,17.0,-4.150390625,-0.6103515625,22.827146530151367,-0.9351806640625,0.3291015625,0.0926513671875
1.940,334,3147,1147,1160,15.0,29.0,17.0,-2.38037109375,-8.23974609375,24.475095748901367,-0.9691162109375,0.3734130859375,0.117431640625
1.952,331,3147,1183,1151,15.0,29.0,17.0,-1.15966796875,-9.765625,24.414060592651367,-1.0001220703125,0.4019775390625,0.13818359375
1.956,332,3147,1207,1104,15.0,29.0,17.0,-1.15966796875,-9.765625,24.414060592651367,-1.020751953125,0.3927001953125,0.138916015625
1.975,347,3147,1229,1001,15.0,29.0,17.0,-0.4882812201976776,-11.108397483825684,26.794431686401367,-1.0167236328125,0.3624267578125,0.12548828125
1.978,347,3147,1260,865,15.0,29.0,17.0,0.0610351525247097,-13.122557640075684,30.029294967651367,-1.001220703125,0.3402099609375,0.1212158203125
1.999,346,3147,1313,702,15.0,29.0,17.0,0.0610351525247097,-13.122557640075684,30.029294967651367,-0.9927978515625,0.3287353515625,0.119140625
2.001,348,3147,1351,499,10.0,29.0,18.0,5.798339366912842,-23.681638717651367,37.59765625,-0.978271484375,0.3212890625,0.086181640625
2.008,346,3147,1294,529,10.0,29.0,18.0,10.253905296325684,-30.151365280151367,42.114253997802734,-0.927978515625,0.2999267578125,0.031982421875
2.018,344,3147,1243,621,10.0,29.0,18.0,10.253905296325684,-30.151365280151367,42.114253997802734,-0.804931640625,0.2713623046875,-0.0263671875
2.039,338,3147,1156,873,10.0,29.0,18.0,7.629394054412842,-37.9638671875,51.452632904052734,-0.6138916015625,0.3067626953125,-0.0174560546875
2.040,336,3147,1081,1155,10.0,29.0,18.0,0.54931640625,-40.283199310302734,49.072261810302734,-0.392578125,0.3385009765625,0.12646484375
2.047,344,3147,1098,1610,10.0,29.0,18.0,0.54931640625,-40.283199310302734,49.072261810302734,-0.1075439453125,0.2857666015625,0.239501953125
2.060,360,3147,1386,2281,10.0,29.0,18.0,16.41845703125,-45.288082122802734,8.9111328125,0.292724609375,0.17724609375,0.2474365234375
2.068,373,3147,1434,2664,10.0,29.0,18.0,48.339839935302734,-51.452632904052734,-32.8369140625,0.8082275390625,-0.1771240234375,0.2586669921875
2.076,364,3147,1636,3095,10.0,29.0,18.0,48.339839935302734,-51.452632904052734,-32.8369140625,1.2535400390625,-0.5328369140625,0.1685791015625
2.090,378,3147,1791,3147,10.0,29.0,18.0,113.70848846435547,-23.864744186401367,-126.09862518310547,1.158447265625,-0.26416015625,0.031005859375
2.107,377,3147,1904,3147,13.0,29.0,13.0,74.27978515625,6.774901866912842,-132.87353515625,0.1212158203125,0.6279296875,-0.043212890625
2.109,414,3147,2026,3147,13.0,29.0,13.0,74.27978515625,6.774901866912842,-132.87353515625,0.1212158203125,0.6279296875,-0.043212890625
2.120,411,3147,2717,3147,13.0,29.0,13.0,-138.36669921875,14.038084983825684,-61.157222747802734,-2.2099609375,3.0609130859375,0.203857421875
2.136,442,3147,3147,3147,13.0,29.0,13.0,-138.36669921875,14.038084983825684,-61.157222747802734,-2.6531982421875,2.5291748046875,0.6558837890625
2.137,833,3147,3147,3147,13.0,29.0,13.0,-263.5498046875,-6.225585460662842,-44.555660247802734,-2.6531982421875,2.5291748046875,0.6558837890625
2.151,944,3147,3147,3147,13.0,29.0,13.0,-308.7158203125,-8.48388671875,-86.30370330810547,-3.237060546875,-1.2203369140625,0.8148193359375
2.162,874,3147,3147,3147,13.0,29.0,13.0,-308.7158203125,-8.48388671875,-86.30370330810547,-2.5743408203125,-1.986328125,0.10546875
2.167,899,3147,3147,3147,13.0,29.0,13.0,-148.193359375,25.085447311401367,-101.62352752685547,-2.5743408203125,-1.986328125,0.10546875
2.180,895,3147,3147,3147,13.0,29.0,13.0,161.07176208496094,-3.112792730331421,-57.556148529052734,-1.5169677734375,0.53125,0.4063720703125
2.188,883,3147,3147,3147,13.0,29.0,13.0,161.07176208496094,-3.112792730331421,-57.556148529052734,-1.9959716796875,1.570068359375,0.6307373046875
2.210,790,3147,3147,3147,15.0,26.0,10.0,120.30028533935547,-21.240232467651367,-21.179197311401367,-1.9959716796875,1.570068359375,0.6307373046875
2.211,551,3147,3147,3147,15.0,26.0,10.0,-74.951171875,65.4296875,-4.82177734375,-1.9737548828125,0.3294677734375,0.0045166015625
2.221,467,3147,3147,3147,15.0,26.0,10.0,-74.951171875,65.4296875,-4.82177734375,-1.609375,-0.22802734375,-0.0572509765625
2.226,404,3147,3128,3147,15.0,26.0,10.0,-68.78662109375,58.349605560302734,-3.723144292831421,-1.609375,-0.22802734375,-0.0572509765625
2.244,391,3147,2805,3147,15.0,26.0,10.0,25.512693405151367,-13.305663108825684,32.28759765625,-0.927490234375,-0.048583984375,0.4195556640625
2.249,389,3147,2559,2880,15.0,26.0,10.0,25.512693405151367,-13.305663108825684,32.28759765625,-0.57568359375,0.162841796875,0.5882568359375
2.257,382,3147,2292,2492,15.0,26.0,10.0,53.222652435302734,-20.996091842651367,51.330562591552734,-0.57568359375,0.162841796875,0.5882568359375
2.271,373,3147,1943,1753,15.0,26.0,10.0,64.27001953125,4.638671875,52.612300872802734,0.0269775390625,0.0032958984375,0.44384765625
2.278,371,3147,1914,1422,15.0,26.0,10.0,64.27001953125,4.638671875,52.612300872802734,0.1092529296875,-0.1893310546875,0.2646484375
2.286,364,3147,1878,1122,15.0,26.0,10.0,70.1904296875,22.094724655151367,36.865234375,0.1092529296875,-0.1893310546875,0.2646484375
2.305,357,3147,1761,646,13.0,31.0,13.0,85.57128143310547,51.147457122802734,-4.638671875,-0.262939453125,-0.0325927734375,-0.0643310546875
2.313,351,3147,1727,411,13.0,31.0,13.0,85.57128143310547,51.147457122802734,-4.638671875,-0.4432373046875,0.150146484375,-0.171630859375
2.317,347,3147,1662,387,13.0,31.0,13.0,77.63671875,50.659175872802734,-16.6015625,-0.4432373046875,0.150146484375,-0.171630859375
2.341,348,3147,1575,481,13.0,31.0,13.0,61.035152435302734,40.466304779052734,-16.9677734375,-0.5826416015625,0.441650390625,-0.1107177734375
2.344,346,3147,1524,568,13.0,31.0,13.0,41.564937591552734,26.672361373901367,-7.934569835662842,-0.5826416015625,0.441650390625,-0.1107177734375
2.347,342,3147,1426,658,13.0,31.0,13.0,22.094724655151367,16.11328125,5.554198741912842,-0.65283203125,0.5128173828125,-0.0760498046875
2.360,338,3147,1306,787,13.0,31.0,13.0,0.4272460639476776,8.30078125,19.04296875,-0.7906494140625,0.36865234375,0.03076171875
2.382,336,3147,1282,902,13.0,31.0,13.0,-23.132322311401367,2.868652105331421,28.198240280151367,-0.7906494140625,0.36865234375,0.03076171875
2.382,336,3147,1266,1039,13.0,31.0,13.0,-40.527339935302734,1.15966796875,31.066892623901367,-0.8145751953125,0.250732421875,0.0592041015625
2.408,344,3147,1312,1243,12.0,31.0,15.0,-46.936031341552734,0.0,28.808591842651367,-0.828369140625,0.1976318359375,0.1612548828125
2.408,348,3147,1384,1375,12.0,31.0,15.0,-42.785640716552734,-1.4648436307907104,22.644041061401367,-0.828369140625,0.1976318359375,0.1612548828125
2.409,348,3147,1467,1476,12.0,31.0,15.0,-30.761716842651367,-2.38037109375,14.892577171325684,-0.8675537109375,0.25048828125,0.1878662109375
2.426,352,3147,1575,1632,12.0,31.0,15.0,-18.37158203125,-3.479003667831421,8.6669921875,-1.0062255859375,0.3836669921875,0.2259521484375
2.429,355,3147,1559,1689,12.0,31.0,15.0,-12.695311546325684,-5.859374523162842,5.615233898162842,-1.0062255859375,0.3836669921875,0.2259521484375
2.444,352,3147,1595,1705,12.0,31.0,15.0,-15.258788108825684,-8.4228515625,6.225585460662842,-1.0718994140625,0.3900146484375,0.2183837890625
2.451,353,3147,1575,1719,12.0,31.0,15.0,-22.399900436401367,-8.6669921875,10.803221702575684,-1.15869140625,0.2972412109375,0.12841796875
2.459,351,3147,1503,1694,12.0,31.0,15.0,-28.747556686401367,-7.751464366912842,19.34814453125,-1.15869140625,0.2972412109375,0.12841796875
2.467,348,3147,1478,1648,12.0,31.0,15.0,-30.334470748901367,-9.21630859375,31.249998092651367,-1.1649169921875,0.2161865234375,0.0780029296875
2.485,353,3147,1422,1422,12.0,31.0,15.0,-26.367185592651367,-14.953612327575684,45.166011810302734,-1.1588134765625,0.1514892578125,0.0936279296875
2.489,348,3147,1323,1159,11.0,30.0,10.0,-18.85986328125,-25.451658248901367,59.875484466552734,-1.1588134765625,0.1514892578125,0.0936279296875
2.509,348,3147,1018,1014,11.0,30.0,10.0,-10.314940452575684,-37.04833984375,74.951171875,-1.1531982421875,0.1409912109375,0.1258544921875
2.510,328,3147,748,826,11.0,30.0,10.0,-2.929687261581421,-45.654293060302734,90.45409393310547,-0.9276123046875,0.04345703125,0.081298828125
2.518,324,3147,644,794,11.0,30.0,10.0,2.01416015625,-52.185054779052734,105.40770721435547,-0.9276123046875,0.04345703125,0.081298828125
2.527,321,3147,574,811,11.0,30.0,10.0,7.141112804412842,-59.020992279052734,115.35643768310547,-0.7066650390625,0.0738525390625,0.087158203125
2.547,315,3147,533,1109,11.0,30.0,10.0,17.27294921875,-64.208984375,114.68505096435547,-0.4818115234375,0.2047119140625,0.116455078125
2.549,315,3147,527,1455,11.0,30.0,10.0,25.695798873901367,-64.94140625,102.47801971435547,-0.24658203125,0.4183349609375,0.2314453125
2.557,319,3147,616,1846,11.0,30.0,10.0,23.986814498901367,-63.293453216552734,78.857421875,0.1201171875,0.4114990234375,0.419921875
2.570,348,3147,1038,2668,11.0,30.0,10.0,23.925779342651367,-57.922359466552734,42.541500091552734,0.6851806640625,0.165771484375,0.448486328125
2.579,363,3147,1241,3055,11.0,30.0,10.0,38.75732421875,-47.912593841552734,-6.774901866912842,1.2958984375,-0.212890625,0.33203125
2.590,363,3147,1443,3147,9.0,31.0,17.0,64.453125,-30.639646530151367,-65.0634765625,1.4844970703125,-0.6629638671875,0.0650634765625
2.611,364,3147,1623,3147,9.0,31.0,17.0,77.45361328125,-1.9531248807907104,-108.45946502685547,0.837158203125,-0.3485107421875,-0.2249755859375
2.612,371,3147,1769,3147,9.0,31.0,17.0,44.006343841552734,17.51708984375,-107.36083221435547,-0.4229736328125,1.0404052734375,-0.172119140625
2.617,385,3147,1968,3147,9.0,31.0,17.0,-29.907224655151367,14.892577171325684,-66.89453125,-1.5086669921875,2.5792236328125,0.1298828125
2.631,411,3147,2525,3147,9.0,31.0,17.0,-114.68505096435547,5.493163585662842,-36.376953125,-2.0712890625,3.120361328125,0.5369873046875
2.656,416,3147,3051,3147,9.0,31.0,17.0,-203.79637145996094,-4.5166015625,-45.593257904052734,-2.6636962890625,2.609130859375,1.12744140625
2.659,434,3147,3147,3147,9.0,31.0,17.0,-269.83642578125,-26.855466842651367,-63.171382904052734,-3.2708740234375,1.19921875,1.5908203125
2.662,431,3147,3121,3147,9.0,31.0,17.0,-247.43650817871094,-21.972654342651367,-78.06396484375,-2.9522705078125,-1.3062744140625,0.8192138671875
2.668,418,3147,3084,3147,9.0,31.0,17.0,-82.76366424560547,32.89794921875,-87.09716033935547,-2.1187744140625,-2.3277587890625,-0.5162353515625
2.676,428,3147,3055,3147,9.0,31.0,17.0,106.32323455810547,28.381345748901367,-59.082027435302734,-1.5989990234375,-0.8031005859375,-0.4775390625
2.695,402,3147,3031,3147,12.0,26.0,13.0,160.0341796875,-39.48974609375,-16.6015625,-1.5643310546875,0.986328125,0.345947265625
2.699,401,3147,3006,3147,12.0,26.0,13.0,97.04589080810547,-52.551265716552734,1.4648436307907104,-1.8770751953125,1.8316650390625,0.74169921875
2.716,439,3147,2861,3147,12.0,26.0,13.0,-2.50244140625,-1.5869139432907104,-3.662109136581421,-1.936767578125,1.509521484375,0.769775390625
2.720,413,3147,2600,3147,12.0,26.0,13.0,-66.5283203125,58.349605560302734,-20.202634811401367,-1.72998046875,0.7041015625,0.5838623046875
2.729,404,3147,2437,3147,12.0,26.0,13.0,-64.75830078125,89.11132049560547,-35.09521484375,-1.441162109375,0.0731201171875,0.21630859375
2.736,391,3147,2306,3147,12.0,26.0,13.0,-21.118162155151367,74.0966796875,-35.70556640625,-1.151611328125,-0.2554931640625,0.004150390625
2.756,388,3147,1973,3147,12.0,26.0,13.0,34.7900390625,27.282712936401367,-17.27294921875,-0.88330078125,-0.135986328125,0.19189453125
2.764,378,3147,1683,2876,12.0,26.0,13.0,75.439453125,-9.3994140625,7.568358898162842,-0.572998046875,0.228271484375,0.5032958984375
2.766,426,3147,1518,2527,12.0,26.0,13.0,78.06396484375,-11.535643577575684,21.789548873901367,-0.2506103515625,0.3848876953125,0.6190185546875
2.781,808,3147,1243,1920,12.0,29.0,17.0,51.818843841552734,9.46044921875,21.118162155151367,-0.0443115234375,0.2276611328125,0.4971923828125
2.789,794,3147,748,1353,12.0,29.0,17.0,28.686521530151367,34.36279296875,10.070799827575684,0.002685546875,-0.044677734375,0.2554931640625
2.818,424,3147,834,1129,12.0,29.0,17.0,28.442380905151367,53.161617279052734,-7.141112804412842,-0.074951171875,-0.1986083984375,0.02392578125
2.820,423,3147,1282,840,12.0,29.0,17.0,39.9169921875,60.119625091552734,-25.390623092651367,-0.2271728515625,-0.116455078125,-0.088134765625
2.821,361,3147,1268,693,12.0,29.0,17.0,42.358394622802734,55.541988372802734,-37.90283203125,-0.3865966796875,0.0938720703125,-0.095947265625
2.827,348,3147,1302,649,12.0,29.0,17.0,34.5458984375,47.241207122802734,-40.405269622802734,-0.522216796875,0.29296875,-0.0689697265625
2.840,336,3147,1306,642,12.0,29.0,17.0,24.780271530151367,38.75732421875,-33.0810546875,-0.62646484375,0.397216796875,-0.0235595703125
2.852,337,3147,1282,737,12.0,29.0,17.0,14.038084983825684,29.113767623901367,-20.263669967651367,-0.7032470703125,0.37890625,0.029296875
2.857,343,3147,1294,785,12.0,29.0,17.0,1.8920897245407104,17.822265625,-7.751464366912842,-0.7646484375,0.2960205078125,0.105712890625
2.877,348,3147,1239,890,12.0,29.0,17.0,-8.72802734375,6.896972179412842,0.6103515625,-0.826171875,0.198486328125,0.158203125
2.879,348,3147,1219,975,14.0,29.0,8.0,-15.624999046325684,1.6479490995407104,4.39453125,-0.881103515625,0.135986328125,0.137939453125
2.886,348,3147,1202,1078,14.0,29.0,8.0,-19.10400390625,1.4038084745407104,5.920409679412842,-0.913818359375,0.1505126953125,0.1109619140625
2.901,351,3147,1213,1204,14.0,29.0,8.0,-18.1884765625,0.7324218153953552,6.713866710662842,-0.9365234375,0.22607421875,0.1353759765625
2.911,354,3147,1222,1251,14.0,29.0,8.0,-11.840819358825684,-1.7700194120407104,6.774901866912842,-0.9681396484375,0.31494140625,0.19140625
2.923,356,3147,1266,1281,14.0,29.0,8.0,-3.906249761581421,-4.82177734375,6.958007335662842,-1.005126953125,0.3739013671875,0.2408447265625
2.930,361,3147,1316,1251,14.0,29.0,8.0,0.6713866591453552,-7.507323741912842,8.7890625,-1.0264892578125,0.3819580078125,0.259765625
2.939,363,3147,1348,1216,14.0,29.0,8.0,1.03759765625,-9.521484375,12.634276390075684,-1.0218505859375,0.326416015625,0.248046875
2.955,354,3147,1429,1159,14.0,29.0,8.0,0.7934569716453552,-10.559081077575684,18.24951171875,-1.0052490234375,0.2315673828125,0.198974609375
2.960,354,3147,1502,907,14.0,29.0,8.0,2.50244140625,-11.596678733825684,26.672361373901367,-1.0057373046875,0.1488037109375,0.13720703125
2.968,359,3147,1496,689,14.0,29.0,8.0,3.906249761581421,-14.892577171325684,39.4287109375,-1.0335693359375,0.0865478515625,0.0906982421875
2.976,354,3147,1483,484,14.0,29.0,13.0,3.234863042831421,-20.874021530151367,56.884761810302734,-1.06591796875,0.036865234375,0.05859375
2.990,360,2985,1331,371,14.0,29.0,13.0,1.9531248807907104,-28.991697311401367,77.57568359375,-1.081787109375,0.0042724609375,0.0433349609375
2.999,352,2843,1149,369,14.0,29.0,13.0,3.112792730331421,-38.818359375,99.36522674560547,-1.0850830078125,0.0023193359375,0.02197265625
3.023,327,2769,832,361,14.0,29.0,13.0,6.042479991912842,-48.767086029052734,120.78856658935547,-1.0416259765625,0.0224609375,-0.017333984375
3.023,318,3147,519,345,14.0,29.0,13.0,7.080077648162842,-57.434078216552734,139.22119140625,-0.8458251953125,0.0435791015625,-0.035888671875
3.029,316,3147,473,623,14.0,29.0,13.0,7.385253429412842,-63.720699310302734,147.8271484375,-0.4373779296875,0.085205078125,0.03857421875
3.036,316,3147,509,1091,14.0,29.0,13.0,7.385253429412842,-63.720699310302734,147.8271484375,0.07763671875,0.2587890625,0.28662109375
3.057,336,3147,1076,2137,14.0,29.0,13.0,22.644041061401367,-75.0732421875,94.66551971435547,0.6663818359375,0.407958984375,0.528076171875
3.062,348,3147,1348,2608,14.0,29.0,13.0,46.874996185302734,-73.2421875,23.437498092651367,1.4359130859375,0.1986083984375,0.553955078125
3.067,359,3147,1580,3071,14.0,29.0,13.0,46.874996185302734,-73.2421875,23.437498092651367,1.99951171875,-0.3934326171875,0.1690673828125
3.081,373,3147,1796,3147,10.0,31.0,13.0,101.01317596435547,-5.920409679412842,-137.6953125,1.6856689453125,-0.243408203125,-0.269287109375
3.089,414,3147,1908,3147,10.0,31.0,13.0,70.86181640625,21.667478561401367,-153.99169921875,0.2618408203125,1.1925048828125,-0.2774658203125
3.102,387,3147,2032,3147,10.0,31.0,13.0,70.86181640625,21.667478561401367,-153.99169921875,-1.4835205078125,2.880859375,-0.0360107421875
3.128,410,3147,2912,3147,10.0,31.0,13.0,-139.09912109375,5.737304210662842,-76.904296875,-2.5286865234375,3.5997314453125,0.4459228515625
3.128,678,3147,3147,3147,10.0,31.0,13.0,-280.3955078125,-3.784179449081421,-61.584468841552734,-3.1312255859375,2.719482421875,1.1329345703125
3.128,744,3147,3147,3147,10.0,31.0,13.0,-280.3955078125,-3.784179449081421,-61.584468841552734,-3.4986572265625,0.2618408203125,1.63134765625
3.141,689,3147,3147,3147,10.0,31.0,13.0,-282.77587890625,-9.033203125,-104.00389862060547,-3.32666015625,-2.5069580078125,0.7999267578125
3.148,667,3147,3147,3147,10.0,31.0,13.0,-28.076169967651367,38.51318359375,-113.95262908935547,-2.568359375,-2.79443359375,-0.4869384765625
3.160,567,3147,3147,3147,10.0,31.0,13.0,-28.076169967651367,38.51318359375,-113.95262908935547,-1.4422607421875,-0.758544921875,-0.251708984375
3.171,441,3147,3147,3147,13.0,26.0,11.0,202.57566833496094,-37.04833984375,-25.695798873901367,-1.1038818359375,1.0782470703125,0.5760498046875
3.178,442,3147,3147,3147,13.0,26.0,11.0,117.55370330810547,-33.38623046875,-11.352538108825684,-1.76904296875,1.7401123046875,0.744384765625
3.187,506,3147,3103,3147,13.0,26.0,11.0,117.55370330810547,-33.38623046875,-11.352538108825684,-2.197265625,1.35888671875,0.519287109375
3.201,430,3147,2965,3147,13.0,26.0,11.0,-62.377925872802734,80.32225799560547,-18.24951171875,-2.0372314453125,0.58251953125,0.2091064453125
3.228,426,3147,2758,3147,13.0,26.0,11.0,-69.51904296875,82.39745330810547,-14.282225608825684,-1.6505126953125,-0.0438232421875,-0.056396484375
3.228,402,3147,2601,3147,13.0,26.0,11.0,-69.51904296875,82.39745330810547,-14.282225608825684,-1.25732421875,-0.290771484375,0.0491943359375
3.231,409,3147,2273,3147,13.0,26.0,11.0,36.2548828125,-7.751464366912842,38.63525390625,-0.8896484375,-0.1326904296875,0.438232421875
3.239,401,3147,2058,3020,13.0,26.0,11.0,36.2548828125,-7.751464366912842,38.63525390625,-0.521240234375,0.139404296875,0.6845703125
3.247,545,3147,1798,2668,13.0,26.0,11.0,77.63671875,-29.541013717651367,61.462398529052734,-0.521240234375,0.139404296875,0.6845703125
3.262,383,3147,1616,2127,13.0,26.0,11.0,60.241695404052734,5.187987804412842,55.786128997802734,0.027587890625,0.1328125,0.5224609375
3.268,386,3147,1602,1861,14.0,31.0,12.0,60.241695404052734,5.187987804412842,55.786128997802734,0.078369140625,0.0013427734375,0.2940673828125
3.276,371,3147,1634,1521,14.0,31.0,12.0,44.006343841552734,34.66796875,33.5693359375,0.078369140625,0.0013427734375,0.2940673828125
3.290,356,3147,1443,996,14.0,31.0,12.0,55.114742279052734,66.40625,-14.099120140075684,-0.31689453125,0.0543212890625,-0.041015625
3.298,354,3147,1383,818,14.0,31.0,12.0,55.114742279052734,66.40625,-14.099120140075684,-0.4979248046875,0.1636962890625,-0.13427734375
3.306,354,3147,1316,601,14.0,31.0,12.0,53.283687591552734,61.645503997802734,-24.475095748901367,-0.4979248046875,0.1636962890625,-0.13427734375
3.335,348,3147,1303,404,14.0,31.0,12.0,33.14208984375,38.57421875,-14.221190452575684,-0.63134765625,0.4073486328125,-0.1107177734375
3.335,343,3147,1267,372,14.0,31.0,12.0,33.14208984375,38.57421875,-14.221190452575684,-0.689208984375,0.450927734375,-0.0535888671875
3.336,327,3147,1268,364,14.0,31.0,12.0,22.216794967651367,28.198240280151367,-3.540038824081421,-0.689208984375,0.450927734375,-0.0535888671875
3.350,338,3147,1198,369,14.0,31.0,12.0,-9.70458984375,14.160155296325684,17.822265625,-0.7939453125,0.33447265625,0.10400390625
3.363,338,3147,1216,391,14.0,31.0,12.0,-9.70458984375,14.160155296325684,17.822265625,-0.844482421875,0.2698974609375,0.1546630859375
3.368,338,3147,1233,407,12.0,27.0,13.0,-21.179197311401367,8.9111328125,24.047849655151367,-0.844482421875,0.2698974609375,0.1546630859375
3.381,346,3147,1243,373,12.0,27.0,13.0,-10.681151390075684,1.4038084745407104,20.874021530151367,-0.8955078125,0.34765625,0.26611328125
3.389,346,3147,1251,373,12.0,27.0,13.0,-10.681151390075684,1.4038084745407104,20.874021530151367,-0.917724609375,0.388427734375,0.2855224609375
3.396,347,3147,1278,373,12.0,27.0,13.0,-0.0610351525247097,1.7700194120407104,13.854979515075684,-0.917724609375,0.388427734375,0.2855224609375
3.410,344,3094,1294,364,12.0,27.0,13.0,11.474608421325684,4.150390625,6.225585460662842,-0.9744873046875,0.349365234375,0.25927734375
3.430,347,2991,1330,371,12.0,27.0,13.0,11.474608421325684,4.150390625,6.225585460662842,-0.954833984375,0.2916259765625,0.2398681640625
3.430,348,3022,1355,373,12.0,27.0,13.0,15.686034202575684,0.7934569716453552,7.507323741912842,-0.954833984375,0.2916259765625,0.2398681640625
3.452,347,2944,1341,371,12.0,27.0,13.0,26.245115280151367,-8.72802734375,15.502928733825684,-0.8978271484375,0.21240234375,0.1236572265625
3.452,354,2882,1357,375,12.0,27.0,13.0,26.245115280151367,-8.72802734375,15.502928733825684,-0.89599609375,0.2183837890625,0.044677734375
3.467,354,2820,1385,375,12.0,27.0,13.0,28.015134811401367,-11.840819358825684,22.888181686401367,-0.89599609375,0.2183837890625,0.044677734375
3.470,355,2648,1399,376,9.0,31.0,10.0,24.230955123901367,-14.465331077575684,33.0810546875,-0.9400634765625,0.2589111328125,-0.036865234375
3.479,356,2561,1381,374,9.0,31.0,10.0,15.563963890075684,-18.06640625,45.654293060302734,-0.9400634765625,0.2589111328125,-0.036865234375
3.486,351,2587,1345,375,9.0,31.0,10.0,5.310058116912842,-22.888181686401367,59.204097747802734,-0.966796875,0.261962890625,-0.0169677734375
3.500,352,2854,1026,364,9.0,31.0,10.0,-3.356933355331421,-28.137205123901367,72.57080078125,-0.8697509765625,0.2265625,-0.0399169921875
3.508,346,3147,855,369,9.0,31.0,10.0,-10.070799827575684,-33.26416015625,84.89989471435547,-0.8697509765625,0.2265625,-0.0399169921875
3.521,330,3147,766,564,9.0,31.0,10.0,-17.2119140625,-38.14697265625,94.54344940185547,-0.6475830078125,0.2115478515625,-0.03271484375
3.533,346,3147,1014,1415,9.0,31.0,10.0,-25.390623092651367,-44.555660247802734,95.76415252685547,0.187255859375,0.112060546875,0.2593994140625
3.538,361,3147,1280,2021,9.0,31.0,10.0,-26.489255905151367,-52.062984466552734,79.28466796875,0.187255859375,0.112060546875,0.2593994140625
3.553,360,3147,1386,2440,9.0,31.0,10.0,-7.263183116912842,-58.715816497802734,40.344234466552734,0.7685546875,0.02294921875,0.2982177734375
3.571,363,3147,1611,3147,9.0,31.0,10.0,29.846189498901367,-56.213375091552734,-19.34814453125,1.6024169921875,-0.6212158203125,0.07861328125
3.573,372,3147,1703,3147,9.0,31.0,15.0,64.02587890625,-30.273435592651367,-82.76366424560547,1.6024169921875,-0.6212158203125,0.07861328125
3.577,385,3147,1823,3147,9.0,31.0,15.0,63.232418060302734,3.234863042831421,-116.45507049560547,0.7474365234375,0.201416015625,0.0521240234375
3.590,391,3147,2080,3147,9.0,31.0,15.0,8.544921875,11.291502952575684,-105.52977752685547,-2.1566162109375,3.1644287109375,0.34912109375
3.598,401,3147,2419,3147,9.0,31.0,15.0,-78.369140625,-4.69970703125,-67.3828125,-2.1566162109375,3.1644287109375,0.34912109375
3.607,410,3147,2973,3147,9.0,31.0,15.0,-176.14744567871094,-21.484373092651367,-40.893550872802734,-2.651123046875,3.165283203125,0.7501220703125
3.637,548,3147,3147,3147,9.0,31.0,15.0,-265.68603515625,-25.634763717651367,-44.067378997802734,-3.160888671875,-0.60400390625,1.115234375
3.637,446,3147,3147,3147,9.0,31.0,15.0,-277.89306640625,-22.460935592651367,-62.683101654052734,-3.160888671875,-0.60400390625,1.115234375
3.638,423,3147,3147,3147,9.0,31.0,15.0,-157.3486328125,-1.4038084745407104,-80.50536346435547,-3.004638671875,-2.21728515625,0.2581787109375
3.654,411,3147,3092,3147,9.0,31.0,15.0,29.602048873901367,18.9208984375,-67.3828125,-1.2005615234375,0.193359375,0.2755126953125
3.680,413,3147,3022,3147,9.0,31.0,15.0,142.7001953125,-12.451170921325684,-29.602048873901367,-1.2005615234375,0.193359375,0.2755126953125
3.681,423,3147,2990,3147,15.0,28.0,13.0,140.2587890625,-47.912593841552734,-10.742186546325684,-1.484619140625,1.623779296875,0.84619140625
3.683,462,3147,2848,3147,15.0,28.0,13.0,69.9462890625,-16.9677734375,-12.878417015075684,-2.09912109375,1.8035888671875,0.7060546875
3.688,480,3147,2713,3147,15.0,28.0,13.0,-12.451170921325684,45.349117279052734,-20.080564498901367,-2.1417236328125,1.023681640625,0.3553466796875
3.697,479,3147,2581,3147,15.0,28.0,13.0,-50.231929779052734,74.76806640625,-25.024412155151367,-1.8392333984375,0.199462890625,0.088623046875
3.710,430,3147,2317,3147,15.0,28.0,13.0,-29.479978561401367,59.265132904052734,-17.578125,-1.476806640625,-0.19287109375,-0.037109375
3.718,403,3147,2145,3147,15.0,28.0,13.0,21.789548873901367,20.202634811401367,5.859374523162842,-1.120361328125,-0.1297607421875,0.17626953125
3.740,424,3147,1904,2781,15.0,28.0,13.0,66.7724609375,-12.878417015075684,34.912109375,-0.7464599609375,0.1497802734375,0.5406494140625
3.741,390,3147,1492,2076,15.0,28.0,13.0,82.27538299560547,-19.287109375,53.955074310302734,-0.34326171875,0.29443359375,0.6806640625
3.748,386,3147,1518,1675,15.0,28.0,13.0,71.35009765625,-3.356933355331421,54.992671966552734,0.0155029296875,0.211669921875,0.572998046875
3.760,388,3147,1506,1357,15.0,28.0,13.0,54.504390716552734,20.263669967651367,37.841796875,0.196533203125,-0.008056640625,0.39208984375
3.780,499,3147,1204,666,14.0,27.0,16.0,50.231929779052734,46.264644622802734,6.896972179412842,0.1072998046875,-0.1634521484375,0.163330078125
3.780,364,3147,1206,376,14.0,27.0,16.0,53.710933685302734,67.07763671875,-25.390623092651367,-0.1512451171875,-0.09228515625,-0.04296875
3.786,414,3011,1097,363,14.0,27.0,16.0,50.415035247802734,71.77734375,-43.273921966552734,-0.3681640625,0.0799560546875,-0.1463623046875
3.800,377,2842,1070,359,14.0,27.0,16.0,44.006343841552734,60.974117279052734,-41.748043060302734,-0.439453125,0.26611328125,-0.1396484375
3.808,360,2901,1063,361,14.0,27.0,16.0,41.198726654052734,42.480464935302734,-28.503416061401367,-0.472412109375,0.4549560546875,-0.057861328125
3.816,337,3072,1050,360,14.0,27.0,16.0,34.7900390625,25.878904342651367,-13.366698265075684,-0.5997314453125,0.5439453125,0.0120849609375
3.842,332,3147,1038,359,14.0,27.0,16.0,16.66259765625,16.357421875,-0.54931640625,-0.75048828125,0.4832763671875,0.0406494140625
3.842,332,3147,1034,384,14.0,27.0,16.0,-7.507323741912842,11.291502952575684,9.1552734375,-0.8355712890625,0.364013671875,0.0426025390625
3.847,332,3147,1034,431,14.0,27.0,16.0,-23.803709030151367,6.042479991912842,14.038084983825684,-0.861328125,0.2786865234375,0.0616455078125
3.876,334,3147,1097,536,12.0,31.0,15.0,-25.756834030151367,0.0610351525247097,13.671874046325684,-0.84765625,0.2481689453125,0.1107177734375
3.881,338,3147,1103,593,12.0,31.0,15.0,-17.822265625,-3.295898199081421,10.803221702575684,-0.8314208984375,0.2838134765625,0.169189453125
3.881,336,3147,1109,673,12.0,31.0,15.0,-8.60595703125,-2.50244140625,8.30078125,-0.8446044921875,0.3624267578125,0.2205810546875
3.890,344,3147,1112,774,12.0,31.0,15.0,-3.662109136581421,0.0,6.958007335662842,-0.8828125,0.4114990234375,0.263671875
3.899,338,3147,1131,827,12.0,31.0,15.0,-3.784179449081421,1.6479490995407104,6.347655773162842,-0.9329833984375,0.398681640625,0.287109375
3.906,343,3147,1149,883,12.0,31.0,15.0,-5.737304210662842,1.7700194120407104,6.713866710662842,-0.97705078125,0.358642578125,0.2781982421875
3.920,338,3147,1201,900,12.0,31.0,15.0,-7.812499523162842,0.6103515625,8.544921875,-1.0072021484375,0.311279296875,0.2352294921875
3.942,338,3147,1214,879,12.0,31.0,15.0,-9.58251953125,-1.4648436307907104,11.413573265075684,-1.0303955078125,0.254638671875,0.171875
3.943,344,3147,1224,858,12.0,31.0,15.0,-9.6435546875,-4.33349609375,15.502928733825684,-1.050048828125,0.2047119140625,0.108154296875
3.951,347,3147,1251,749,12.0,31.0,15.0,-6.347655773162842,-8.056640625,21.850584030151367,-1.0595703125,0.175537109375,0.057861328125
3.961,347,3147,1236,578,12.0,30.0,16.0,0.3662109076976776,-13.000487327575684,31.127927780151367,-1.070556640625,0.1778564453125,0.0341796875
3.980,347,3147,1251,402,12.0,30.0,16.0,7.629394054412842,-19.95849609375,43.151851654052734,-1.0946044921875,0.1968994140625,0.043212890625
3.981,346,3057,1234,371,12.0,30.0,16.0,13.061522483825684,-28.503416061401367,56.884761810302734,-1.1007080078125,0.201904296875,0.068115234375
3.989,344,3099,1078,371,12.0,30.0,16.0,16.4794921875,-36.92626953125,70.98388671875,-1.0478515625,0.16552734375,0.085205078125
4.003,333,3147,894,365,12.0,30.0,16.0,18.85986328125,-44.189449310302734,83.67919158935547,-0.8775634765625,0.1207275390625,0.029052734375
4.010,328,3147,645,600,12.0,30.0,16.0,18.12744140625,-50.659175872802734,92.34618377685547,-0.5828857421875,0.1873779296875,-0.0447998046875
4.019,323,3147,661,891,12.0,30.0,16.0,13.244627952575684,-58.776851654052734,90.51512908935547,-0.2623291015625,0.3421630859375,0.0430908203125
4.026,327,3147,766,1428,12.0,30.0,16.0,8.72802734375,-66.83349609375,70.068359375,0.03662109375,0.4150390625,0.29931640625
4.046,347,3147,1355,2362,12.0,30.0,16.0,13.000487327575684,-67.81005859375,29.235837936401367,0.52734375,0.3040771484375,0.54443359375
4.049,354,3147,1506,2756,12.0,30.0,16.0,31.738279342651367,-56.762691497802734,-29.357908248901367,1.41796875,-0.2655029296875,0.5404052734375
4.057,359,3147,1711,3147,10.0,29.0,16.0,62.438961029052734,-26.428220748901367,-96.37450408935547,2.0341796875,-0.838623046875,0.0714111328125
4.085,371,3147,1904,3147,10.0,29.0,16.0,78.369140625,6.103515148162842,-137.451171875,1.44921875,-0.42919921875,-0.34619140625
4.087,382,3147,2005,3147,10.0,29.0,16.0,46.386714935302734,11.779784202575684,-127.50243377685547,-0.2261962890625,1.273193359375,-0.2711181640625
4.087,391,3147,2202,3147,10.0,29.0,16.0,-38.0859375,8.4228515625,-85.69335174560547,-1.8172607421875,3.3199462890625,0.0130615234375
4.101,518,3147,3147,3147,10.0,29.0,16.0,-173.95018005371094,14.770506858825684,-60.241695404052734,-2.626708984375,3.915283203125,0.3751220703125
4.116,761,3147,3147,3147,10.0,29.0,16.0,-334.7778015136719,10.986327171325684,-72.08251953125,-3.16357421875,2.470947265625,0.996826171875
4.118,737,3147,3147,3147,10.0,29.0,16.0,-417.9687194824219,-11.352538108825684,-103.39354705810547,-3.6016845703125,-0.579345703125,1.3687744140625
4.136,661,3147,3147,3147,10.0,29.0,16.0,-304.8095703125,1.7089842557907104,-138.671875,-3.3956298828125,-3.1785888671875,0.4814453125
4.172,548,3147,3147,3147,10.0,29.0,16.0,-25.512693405151367,36.1328125,-139.16015625,-2.260986328125,-2.6807861328125,-0.295654296875
4.173,490,3147,3147,3147,10.0,29.0,16.0,-25.512693405151367,36.1328125,-139.16015625,-1.337890625,-0.14892578125,0.2332763671875
4.173,419,3147,3147,3147,15.0,27.0,9.0,210.57127380371094,-22.644041061401367,-39.6728515625,-1.56640625,1.6551513671875,0.7109375
4.173,404,3147,3147,3147,15.0,27.0,9.0,80.2001953125,19.287109375,-8.9111328125,-2.1026611328125,1.7071533203125,0.4578857421875
4.189,401,3147,3099,3147,15.0,27.0,9.0,80.2001953125,19.287109375,-8.9111328125,-2.2069091796875,0.614990234375,-0.0364990234375
4.191,395,3147,2787,3147,15.0,27.0,9.0,-91.97997283935547,66.22314453125,8.11767578125,-1.9144287109375,-0.3104248046875,-0.21142578125
4.200,391,3147,2599,3147,15.0,27.0,9.0,-49.072261810302734,13.061522483825684,27.648923873901367,-1.47314453125,-0.479736328125,0.0726318359375
4.208,391,3147,2409,3147,15.0,27.0,9.0,-49.072261810302734,13.061522483825684,27.648923873901367,-1.0672607421875,-0.15673828125,0.4169921875
4.220,376,3147,2039,3003,15.0,27.0,9.0,61.645503997802734,-27.343748092651367,63.110347747802734,-0.680419921875,0.184326171875,0.5531005859375
4.228,365,3147,1756,2605,15.0,27.0,9.0,68.84765625,-14.038084983825684,65.5517578125,-0.2701416015625,0.2982177734375,0.5560302734375
4.251,360,3147,1470,2296,15.0,27.0,9.0,68.84765625,-14.038084983825684,65.5517578125,0.10498046875,0.2247314453125,0.4957275390625
4.251,351,3147,1109,1730,15.0,28.0,16.0,50.476070404052734,15.808104515075684,39.61181640625,0.28759765625,0.1048583984375,0.3885498046875
4.258,343,3147,1173,1476,15.0,28.0,16.0,52.429195404052734,35.94970703125,15.686034202575684,0.168212890625,0.0572509765625,0.2408447265625
4.268,338,3147,1211,1242,15.0,28.0,16.0,52.429195404052734,35.94970703125,15.686034202575684,-0.1376953125,0.11767578125,0.1026611328125
4.298,332,3147,1183,782,15.0,28.0,16.0,52.490230560302734,55.664058685302734,-18.37158203125,-0.4246826171875,0.2120361328125,-0.0362548828125
4.299,313,3147,1138,705,15.0,28.0,16.0,35.46142578125,46.813961029052734,-20.202634811401367,-0.5771484375,0.28564453125,-0.135986328125
4.299,328,3147,1095,692,15.0,28.0,16.0,35.46142578125,46.813961029052734,-20.202634811401367,-0.6353759765625,0.3450927734375,-0.08056640625
4.310,328,3147,1024,684,15.0,28.0,16.0,4.0283203125,19.34814453125,-0.8544921278953552,-0.69677734375,0.370361328125,0.0245361328125
4.319,326,3147,984,723,15.0,28.0,16.0,-3.662109136581421,11.413573265075684,10.986327171325684,-0.763427734375,0.3265380859375,0.0816650390625
4.328,328,3147,958,761,15.0,28.0,16.0,-3.662109136581421,11.413573265075684,10.986327171325684,-0.8369140625,0.2464599609375,0.1260986328125
4.357,324,3147,913,820,15.0,28.0,16.0,-16.357421875,3.234863042831421,22.155759811401367,-0.904541015625,0.1812744140625,0.16845703125
4.358,324,3147,883,888,11.0,27.0,11.0,-15.075682640075684,-1.15966796875,22.583005905151367,-0.9298095703125,0.1795654296875,0.197021484375
4.358,324,3147,869,952,11.0,27.0,11.0,-15.075682640075684,-1.15966796875,22.583005905151367,-0.9298095703125,0.1795654296875,0.197021484375
4.380,327,3147,922,1043,11.0,27.0,11.0,-0.4882812201976776,-5.432128429412842,17.7001953125,-0.8775634765625,0.3475341796875,0.2890625
4.406,328,3147,947,1091,11.0,27.0,11.0,-0.4882812201976776,-5.432128429412842,17.7001953125,-0.8846435546875,0.3995361328125,0.3028564453125
4.406,327,3147,971,1122,11.0,27.0,11.0,5.493163585662842,-4.0283203125,13.000487327575684,-0.8846435546875,0.3995361328125,0.3028564453125
4.407,333,3147,1012,1167,11.0,27.0,11.0,7.690429210662842,-3.112792730331421,9.46044921875,-0.9337158203125,0.3328857421875,0.1806640625
4.419,338,3147,1065,1188,11.0,27.0,11.0,7.690429210662842,-3.112792730331421,9.46044921875,-0.93896484375,0.25341796875,0.1177978515625
4.421,342,3147,1081,1184,11.0,27.0,11.0,8.48388671875,-6.652831554412842,12.329100608825684,-0.93896484375,0.25341796875,0.1177978515625
4.440,351,3147,1173,1233,11.0,27.0,11.0,13.427733421325684,-18.73779296875,24.108884811401367,-0.9404296875,0.181396484375,0.0894775390625
4.457,347,3147,1199,1182,11.0,27.0,11.0,13.427733421325684,-18.73779296875,24.108884811401367,-0.9681396484375,0.197265625,0.097900390625
4.458,359,3147,1201,1074,12.0,28.0,14.0,15.136717796325684,-25.024412155151367,33.0810546875,-0.9681396484375,0.197265625,0.097900390625
4.461,411,3147,1010,829,12.0,28.0,14.0,8.72802734375,-36.19384765625,61.218257904052734,-1.0797119140625,0.2137451171875,0.02880859375
4.468,430,3147,905,740,12.0,28.0,14.0,8.72802734375,-36.19384765625,61.218257904052734,-1.114501953125,0.1800537109375,0.0020751953125
4.476,423,3147,682,625,12.0,28.0,14.0,-0.9765624403953552,-41.687007904052734,80.87157440185547,-1.114501953125,0.1800537109375,0.0020751953125
4.494,383,3147,315,572,12.0,28.0,14.0,-18.310546875,-56.457515716552734,114.19676971435547,-0.866943359375,0.154052734375,0.08349609375
4.506,318,3147,508,902,12.0,28.0,14.0,-18.310546875,-56.457515716552734,114.19676971435547,-0.5340576171875,0.2462158203125,0.1876220703125
4.507,315,3147,458,1225,12.0,28.0,14.0,-17.63916015625,-65.61279296875,116.51610565185547,-0.5340576171875,0.2462158203125,0.1876220703125
4.522,322,3147,679,1996,12.0,28.0,14.0,0.0610351525247097,-79.65087890625,72.3876953125,0.3343505859375,0.1307373046875,0.4244384765625
4.529,348,3147,917,2551,12.0,28.0,14.0,0.0610351525247097,-79.65087890625,72.3876953125,1.0836181640625,-0.1982421875,0.33984375
4.538,348,3147,1120,3095,12.0,28.0,14.0,29.357908248901367,-70.1904296875,26.184080123901367,1.0836181640625,-0.1982421875,0.33984375
4.569,356,3147,1466,3147,9.0,28.0,19.0,84.83885955810547,-11.596678733825684,-95.39794158935547,1.83056640625,-0.665771484375,0.150146484375
4.570,348,3147,1607,3147,9.0,28.0,19.0,84.83885955810547,-11.596678733825684,-95.39794158935547,0.56494140625,0.41259765625,0.08837890625
4.570,364,3147,1733,3147,9.0,28.0,19.0,73.73046875,27.648923873901367,-128.72314453125,0.56494140625,0.41259765625,0.08837890625
4.581,384,3147,2158,3147,9.0,28.0,19.0,12.023924827575684,45.898433685302734,-108.21532440185547,-2.1915283203125,3.5103759765625,0.338623046875
4.598,398,3147,2797,3147,9.0,28.0,19.0,-79.28466796875,45.898433685302734,-63.049312591552734,-2.1915283203125,3.5103759765625,0.338623046875
4.598,400,3147,3088,3147,9.0,28.0,19.0,-188.29344177246094,34.912109375,-45.715328216552734,-2.9281005859375,3.5391845703125,0.8055419921875
4.616,406,3147,2948,3147,9.0,28.0,19.0,-298.33984375,-2.868652105331421,-52.185054779052734,-3.1544189453125,-1.443603515625,0.8115234375
4.619,396,3147,2861,3147,9.0,28.0,19.0,-310.36376953125,-17.578125,-78.18603515625,-3.1544189453125,-1.443603515625,0.8115234375
4.627,388,3147,2691,3147,9.0,28.0,19.0,-125.85448455810547,25.695798873901367,-102.35594940185547,-2.667724609375,-2.935791015625,-0.53564453125
4.640,398,3147,2567,3147,12.0,27.0,15.0,115.11229705810547,11.779784202575684,-69.580078125,-1.5435791015625,1.0836181640625,0.5380859375
4.659,419,3147,2561,3147,12.0,27.0,15.0,212.89060974121094,-53.222652435302734,-14.709471702575684,-1.5435791015625,1.0836181640625,0.5380859375
4.660,508,3147,2435,3147,12.0,27.0,15.0,165.77146911621094,-46.203609466552734,10.864256858825684,-1.751220703125,2.363037109375,0.825439453125
4.671,411,3147,2386,3147,12.0,27.0,15.0,45.043941497802734,23.376462936401367,5.310058116912842,-1.8714599609375,0.7633056640625,0.1754150390625
4.679,402,3147,2293,3147,12.0,27.0,15.0,-55.236812591552734,80.26123046875,-17.4560546875,-1.8714599609375,0.7633056640625,0.1754150390625
4.699,400,3147,2180,3147,12.0,27.0,15.0,-66.95556640625,78.43017578125,-27.893064498901367,-1.552001953125,-0.1689453125,-0.0870361328125
4.701,391,3147,1844,3147,12.0,27.0,15.0,-10.437010765075684,35.7666015625,-16.29638671875,-0.7608642578125,-0.09521484375,0.4801025390625
4.708,376,3147,1585,3147,12.0,27.0,15.0,53.222652435302734,1.5869139432907104,2.01416015625,-0.7608642578125,-0.09521484375,0.4801025390625
4.719,361,3147,1326,2921,12.0,27.0,15.0,80.38329315185547,-5.310058116912842,18.06640625,-0.4393310546875,0.2269287109375,0.6239013671875
4.730,359,3147,963,2133,12.0,27.0,15.0,64.3310546875,4.7607421875,29.907224655151367,0.01025390625,0.083740234375,0.340087890625
4.739,356,3147,854,1755,11.0,29.0,18.0,33.99658203125,18.00537109375,34.36279296875,0.01025390625,0.083740234375,0.340087890625
4.762,359,3147,894,1417,11.0,29.0,18.0,22.705076217651367,29.174802780151367,28.137205123901367,0.0625,-0.0963134765625,0.14208984375
4.762,375,3147,922,806,11.0,29.0,18.0,33.50830078125,41.687007904052734,9.46044921875,-0.169677734375,0.0589599609375,0.0638427734375
4.769,347,3147,966,593,11.0,29.0,18.0,44.616695404052734,53.527828216552734,-16.357421875,-0.169677734375,0.0589599609375,0.0638427734375
4.781,354,3147,987,485,11.0,29.0,18.0,43.334957122802734,58.105464935302734,-36.56005859375,-0.3751220703125,0.257080078125,0.09033203125
4.805,336,3147,1009,442,11.0,29.0,18.0,33.447265625,54.443355560302734,-42.663570404052734,-0.6483154296875,0.4239501953125,0.0748291015625
4.805,344,3147,1055,539,11.0,29.0,18.0,22.216794967651367,43.884273529052734,-35.82763671875,-0.6483154296875,0.4239501953125,0.0748291015625
4.807,338,3147,1079,653,11.0,29.0,18.0,13.122557640075684,31.738279342651367,-21.545408248901367,-0.7286376953125,0.385986328125,0.0364990234375
4.826,342,3147,1123,726,11.0,29.0,18.0,4.08935546875,20.507810592651367,-5.859374523162842,-0.767822265625,0.2979736328125,-0.0023193359375
4.829,344,3147,1134,767,11.0,29.0,18.0,-6.164550304412842,8.9111328125,5.859374523162842,-0.8040771484375,0.1976318359375,-0.0076904296875
4.838,344,3147,1109,829,12.0,28.0,13.0,-13.000487327575684,-1.4038084745407104,12.329100608825684,-0.8477783203125,0.143310546875,0.0372314453125
4.865,337,3147,1083,917,12.0,28.0,13.0,-11.962889671325684,-7.690429210662842,15.380858421325684,-0.89697265625,0.171630859375,0.122802734375
4.865,342,3147,1093,962,12.0,28.0,13.0,-5.554198741912842,-9.21630859375,15.991209983825684,-0.9600830078125,0.267333984375,0.2144775390625
4.868,347,3147,1101,977,12.0,28.0,13.0,-0.4272460639476776,-7.324218273162842,14.282225608825684,-1.0345458984375,0.367919921875,0.294921875
4.883,347,3147,1131,944,12.0,28.0,13.0,-0.4882812201976776,-4.0283203125,11.413573265075684,-1.0819091796875,0.4151611328125,0.34521484375
4.889,347,3147,1146,906,12.0,28.0,13.0,-3.662109136581421,-1.03759765625,9.1552734375,-1.0606689453125,0.391357421875,0.329345703125
4.914,348,3147,1163,853,12.0,28.0,13.0,-4.69970703125,0.30517578125,8.7890625,-1.0003662109375,0.3326416015625,0.2723388671875
4.914,349,3147,1155,669,12.0,28.0,13.0,-0.2441406100988388,-0.8544921278953552,10.375975608825684,-0.9547119140625,0.2813720703125,0.202880859375
4.919,363,3147,1185,537,12.0,28.0,13.0,8.72802734375,-3.967284917831421,13.732909202575684,-0.936279296875,0.2454833984375,0.12646484375
4.935,385,3147,1173,408,12.0,28.0,13.0,17.76123046875,-9.3994140625,19.71435546875,-0.9271240234375,0.230712890625,0.0792236328125
4.941,388,3058,1199,365,9.0,28.0,19.0,22.949216842651367,-16.66259765625,28.198240280151367,-0.92041015625,0.22509765625,0.072265625
4.949,370,2912,1204,369,9.0,28.0,19.0,23.437498092651367,-23.498533248901367,38.26904296875,-0.9256591796875,0.2132568359375,0.085693359375
4.971,363,2788,1220,370,9.0,28.0,19.0,20.935056686401367,-29.052732467651367,49.316402435302734,-0.9415283203125,0.2000732421875,0.08642578125
4.971,364,2785,1091,321,9.0,28.0,19.0,17.333984375,-33.75244140625,61.462398529052734,-0.9613037109375,0.2010498046875,0.050048828125
4.978,390,2927,864,355,9.0,28.0,19.0,11.535643577575684,-38.4521484375,75.25634765625,-0.949462890625,0.202392578125,-0.0064697265625
4.987,410,3147,656,346,9.0,28.0,19.0,1.03759765625,-43.334957122802734,90.14891815185547,-0.8292236328125,0.1884765625,-0.0418701171875
5.005,400,3147,522,605,9.0,28.0,19.0,-12.939452171325684,-48.034664154052734,102.23387908935547,-0.572998046875,0.211669921875,0.02783203125
5.009,323,3147,604,1136,9.0,28.0,19.0,-22.521970748901367,-53.527828216552734,103.08837127685547,-0.2554931640625,0.2381591796875,0.2327880859375
5.018,336,3147,754,1664,9.0,28.0,19.0,-18.61572265625,-58.471675872802734,85.69335174560547,0.0992431640625,0.1849365234375,0.416015625
5.131,344,3147,1243,2544,8.0,28.0,18.0,-0.4882812201976776,-59.265132904052734,50.964351654052734,0.68701171875,0.0201416015625,0.4755859375
5.132,346,3147,1419,3089,8.0,28.0,18.0,25.756834030151367,-47.302242279052734,-0.2441406100988388,1.5390625,-0.4344482421875,0.373291015625
5.132,353,3147,1550,3147,8.0,28.0,18.0,50.659175872802734,-8.6669921875,-63.598628997802734,1.87646484375,-0.7252197265625,0.0447998046875
5.133,371,3147,1791,3147,8.0,28.0,18.0,51.147457122802734,34.423828125,-111.51122283935547,0.9278564453125,-0.1195068359375,-0.0841064453125
5.133,371,3147,1954,3147,8.0,28.0,18.0,11.657713890075684,43.762203216552734,-114.44091033935547,-0.8983154296875,1.4886474609375,0.1064453125
5.133,382,3147,2124,3147,8.0,28.0,18.0,-54.260250091552734,32.40966796875,-77.1484375,-2.2852783203125,3.2667236328125,0.2989501953125
5.133,393,3147,2944,3147,8.0,28.0,18.0,-144.8974609375,20.935056686401367,-47.912593841552734,-2.769287109375,3.5704345703125,0.557373046875
5.133,385,3147,3107,3147,8.0,28.0,18.0,-247.86375427246094,4.08935546875,-55.725093841552734,-2.9283447265625,1.9635009765625,1.040771484375
5.133,398,3147,2981,3147,8.0,28.0,18.0,-280.21240234375,-15.930174827575684,-85.14403533935547,-3.0899658203125,-0.6075439453125,1.2420654296875
5.133,401,3147,2904,3147,8.0,28.0,18.0,-163.63523864746094,-8.056640625,-112.60985565185547,-2.963134765625,-2.5146484375,0.41162109375
5.133,401,3147,2874,3147,11.0,29.0,17.0,45.471187591552734,12.573241233825684,-103.75975799560547,-2.1077880859375,-1.9442138671875,-0.214599609375
5.145,400,3147,2833,3147,11.0,29.0,17.0,184.69236755371094,-5.859374523162842,-61.401363372802734,-1.4456787109375,0.327392578125,0.2530517578125
5.151,391,3147,2797,3147,11.0,29.0,17.0,169.61668395996094,-16.845703125,-23.925779342651367,-1.673828125,1.911376953125,0.6123046875
5.159,391,3147,2750,3147,11.0,29.0,17.0,55.969234466552734,24.047849655151367,-7.812499523162842,-2.008056640625,1.7567138671875,0.402587890625
5.173,390,3147,2658,3147,11.0,29.0,17.0,-44.799800872802734,62.561031341552734,-7.995604991912842,-1.9962158203125,0.5853271484375,0.09228515625
5.180,385,3147,2419,3147,11.0,29.0,17.0,-65.36865234375,54.199214935302734,-5.187987804412842,-1.7445068359375,-0.2359619140625,-0.0015869140625
5.190,383,3147,2263,3147,11.0,29.0,17.0,-26.245115280151367,20.080564498901367,12.207030296325684,-1.4334716796875,-0.350830078125,0.156005859375
5.197,375,3147,2083,3147,11.0,29.0,17.0,22.888181686401367,-4.5166015625,36.92626953125,-1.14013671875,-0.0965576171875,0.3690185546875
5.212,363,3147,1730,3147,11.0,29.0,17.0,54.687496185302734,-13.427733421325684,59.265132904052734,-0.772216796875,0.1768798828125,0.4971923828125
5.219,360,3147,1499,2840,11.0,29.0,17.0,65.24658203125,-14.770506858825684,71.6552734375,-0.2991943359375,0.294921875,0.5655517578125
5.226,354,3147,1382,2357,11.0,28.0,12.0,63.720699310302734,-6.835937023162842,67.44384765625,0.128662109375,0.2698974609375,0.5535888671875
5.242,356,3147,1323,1789,11.0,28.0,12.0,59.570308685302734,14.831542015075684,44.616695404052734,0.2958984375,0.118896484375,0.4207763671875
5.252,346,3147,1248,1390,11.0,28.0,12.0,56.823726654052734,44.311519622802734,9.6435546875,0.134033203125,-0.0357666015625,0.195556640625
5.257,347,3147,1169,920,11.0,28.0,12.0,53.161617279052734,64.94140625,-21.972654342651367,-0.2003173828125,-0.005859375,0.0269775390625
5.275,342,3147,1118,468,11.0,28.0,12.0,46.508785247802734,65.61279296875,-36.4990234375,-0.4716796875,0.1510009765625,-0.0394287109375
5.279,331,3147,1105,364,11.0,28.0,12.0,39.794921875,53.466793060302734,-33.8134765625,-0.57568359375,0.3463134765625,-0.0482177734375
5.287,333,3106,1039,360,11.0,28.0,12.0,39.794921875,53.466793060302734,-33.8134765625,-0.6282958984375,0.5107421875,-0.0157470703125
5.314,332,2919,1064,355,11.0,28.0,12.0,23.254392623901367,28.198240280151367,-10.498045921325684,-0.7301025390625,0.5322265625,-0.0078125
5.314,330,2739,1010,360,11.0,28.0,12.0,9.46044921875,21.362302780151367,0.1831054538488388,-0.8206787109375,0.3980712890625,-0.0223388671875
5.316,332,2827,1054,359,11.0,28.0,12.0,9.46044921875,21.362302780151367,0.1831054538488388,-0.848876953125,0.2308349609375,-0.029541015625
5.330,334,2965,1055,351,11.0,29.0,8.0,-6.530761241912842,9.033203125,15.808104515075684,-0.8485107421875,0.1473388671875,0.0137939453125
5.340,331,3042,1038,359,11.0,29.0,8.0,-4.2724609375,1.5869139432907104,18.9208984375,-0.851806640625,0.156005859375,0.1231689453125
5.346,332,3098,1012,357,11.0,29.0,8.0,-4.2724609375,1.5869139432907104,18.9208984375,-0.854736328125,0.2291259765625,0.231201171875
5.377,334,3147,999,360,11.0,29.0,8.0,2.01416015625,-5.0048828125,15.747069358825684,-0.86572265625,0.3326416015625,0.28466796875
5.377,336,3147,1018,363,11.0,29.0,8.0,3.173827886581421,-3.479003667831421,11.535643577575684,-0.8843994140625,0.410888671875,0.2816162109375
5.377,336,3147,1038,377,11.0,29.0,8.0,3.173827886581421,-3.479003667831421,11.535643577575684,-0.8983154296875,0.4364013671875,0.2259521484375
5.390,347,3147,1082,455,11.0,29.0,8.0,4.57763671875,-1.220703125,5.187987804412842,-0.9114990234375,0.4285888671875,0.1519775390625
5.399,354,3147,1097,481,11.0,29.0,8.0,6.835937023162842,-4.21142578125,5.371093273162842,-0.9266357421875,0.41064453125,0.101318359375
5.417,348,3147,1123,462,11.0,29.0,8.0,6.835937023162842,-4.21142578125,5.371093273162842,-0.9395751953125,0.384765625,0.08154296875
5.422,351,3147,1131,431,11.0,29.0,8.0,8.85009765625,-12.145995140075684,10.925292015075684,-0.9468994140625,0.3502197265625,0.07666015625
5.429,356,3147,1139,382,12.0,31.0,13.0,6.896972179412842,-15.563963890075684,16.2353515625,-0.95068359375,0.308349609375,0.0721435546875
5.437,364,3147,1149,371,12.0,31.0,13.0,6.896972179412842,-15.563963890075684,16.2353515625,-0.9534912109375,0.25830078125,0.0682373046875
5.450,347,3014,1162,371,12.0,31.0,13.0,1.0986328125,-23.864744186401367,33.203125,-0.95654296875,0.20947265625,0.0673828125
5.481,346,2863,1188,371,12.0,31.0,13.0,-0.1220703050494194,-29.418943405151367,44.555660247802734,-0.9654541015625,0.185791015625,0.068603515625
5.481,345,2870,1159,371,12.0,31.0,13.0,-0.1220703050494194,-29.418943405151367,44.555660247802734,-0.98193359375,0.1785888671875,0.0711669921875
5.481,348,2951,1011,344,12.0,31.0,13.0,4.57763671875,-42.480464935302734,70.3125,-0.9658203125,0.1588134765625,0.038818359375
5.489,338,3104,830,364,12.0,31.0,13.0,4.57763671875,-42.480464935302734,70.3125,-0.846923828125,0.180419921875,-0.0223388671875
5.497,327,3147,695,458,12.0,31.0,13.0,7.446288585662842,-47.119136810302734,83.98436737060547,-0.846923828125,0.180419921875,-0.0223388671875
5.516,329,3147,689,1173,12.0,31.0,13.0,-8.36181640625,-55.358882904052734,96.06932830810547,-0.226318359375,0.27197265625,0.2637939453125
5.519,337,3147,996,1826,12.0,31.0,13.0,-8.36181640625,-55.358882904052734,96.06932830810547,0.3343505859375,0.1708984375,0.5126953125
5.527,348,3147,1243,2398,8.0,31.0,12.0,-17.578125,-58.593746185302734,75.439453125,0.3343505859375,0.1708984375,0.5126953125
5.541,354,3147,1487,3147,8.0,31.0,12.0,24.658201217651367,-33.38623046875,-43.212886810302734,2.0101318359375,-0.6802978515625,0.272705078125
5.549,360,3147,1677,3147,8.0,31.0,12.0,24.658201217651367,-33.38623046875,-43.212886810302734,1.8251953125,-0.8515625,0.060791015625
5.557,363,3147,1762,3147,8.0,31.0,12.0,49.804683685302734,5.554198741912842,-110.04637908935547,1.8251953125,-0.8515625,0.060791015625
5.588,373,3147,1948,3147,8.0,31.0,12.0,5.981444835662842,32.65380859375,-105.28563690185547,-1.5635986328125,2.5572509765625,0.052978515625
5.588,382,3147,2190,3147,8.0,31.0,12.0,5.981444835662842,32.65380859375,-105.28563690185547,-2.5548095703125,3.9166259765625,0.1812744140625
5.588,402,3147,2801,3147,8.0,31.0,12.0,-77.57568359375,17.4560546875,-62.316890716552734,-2.5548095703125,3.9166259765625,0.1812744140625
5.600,411,3147,3147,3147,8.0,31.0,12.0,-328.0639343261719,-20.874021530151367,-75.25634765625,-3.3599853515625,1.0872802734375,1.16162109375
5.622,408,3147,3147,3147,8.0,31.0,12.0,-328.0639343261719,-20.874021530151367,-75.25634765625,-3.3590087890625,-2.0255126953125,0.8603515625
5.622,401,3147,3090,3147,8.0,31.0,12.0,-326.6601257324219,-24.780271530151367,-105.77391815185547,-3.3590087890625,-2.0255126953125,0.8603515625
5.626,401,3147,3000,3147,12.0,29.0,12.0,-132.6904296875,12.634276390075684,-121.88719940185547,-2.6075439453125,-3.1385498046875,-0.130859375
5.640,399,3147,2932,3147,12.0,29.0,12.0,119.44579315185547,7.873534679412842,-88.74510955810547,-1.4420166015625,1.19970703125,0.5421142578125
5.648,398,3147,2939,3147,12.0,29.0,12.0,220.15379333496094,-44.677730560302734,-32.71484375,-1.4420166015625,1.19970703125,0.5421142578125
5.656,398,3147,2911,3147,12.0,29.0,12.0,148.193359375,-37.353515625,1.15966796875,-1.808837890625,2.1468505859375,0.65673828125
5.684,390,3147,2756,3147,12.0,29.0,12.0,13.488768577575684,25.512693405151367,4.94384765625,-1.85205078125,0.3165283203125,0.0762939453125
5.695,387,3147,2638,3147,12.0,29.0,12.0,-70.25146484375,66.0400390625,-5.615233898162842,-1.85205078125,0.3165283203125,0.0762939453125
5.696,388,3147,2490,3147,12.0,29.0,12.0,-66.162109375,51.086421966552734,-4.150390625,-1.5489501953125,-0.3018798828125,-0.0054931640625
5.708,382,3147,2225,3147,12.0,29.0,12.0,-12.207030296325684,9.1552734375,15.930174827575684,-0.8934326171875,-0.010986328125,0.4932861328125
5.708,378,3147,1997,3147,12.0,29.0,12.0,42.480464935302734,-18.6767578125,41.992183685302734,-0.8934326171875,-0.010986328125,0.4932861328125
5.728,369,3147,1772,3027,14.0,28.0,10.0,69.091796875,-22.766111373901367,61.767574310302734,-0.5445556640625,0.22119140625,0.5689697265625
5.749,359,3147,1575,2279,14.0,28.0,10.0,66.22314453125,-14.221190452575684,69.091796875,0.1563720703125,0.175537109375,0.4404296875
5.750,351,3147,1580,2058,14.0,28.0,10.0,51.147457122802734,0.6713866591453552,61.157222747802734,0.1563720703125,0.175537109375,0.4404296875
5.750,354,3147,1562,1757,14.0,28.0,10.0,41.442867279052734,22.460935592651367,38.4521484375,0.2071533203125,0.0655517578125,0.3192138671875
5.760,359,3147,1452,1294,14.0,28.0,10.0,41.381832122802734,47.546382904052734,8.48388671875,-0.329345703125,0.1259765625,0.0325927734375
5.768,355,3147,1413,1025,14.0,28.0,10.0,40.344234466552734,63.232418060302734,-16.357421875,-0.329345703125,0.1259765625,0.0325927734375
5.798,354,3147,1343,832,14.0,28.0,10.0,30.273435592651367,63.049312591552734,-27.893064498901367,-0.5531005859375,0.273193359375,-0.0582275390625
5.798,348,3147,1255,574,14.0,28.0,10.0,14.892577171325684,52.246089935302734,-26.306150436401367,-0.73583984375,0.4080810546875,-0.0791015625
5.805,351,3147,1199,473,14.0,28.0,10.0,3.662109136581421,38.26904296875,-17.63916015625,-0.73583984375,0.4080810546875,-0.0791015625
5.807,348,3147,1228,399,14.0,28.0,10.0,1.220703125,25.268552780151367,-5.859374523162842,-0.849365234375,0.396484375,-0.038330078125
5.826,343,3147,1172,369,10.0,27.0,9.0,1.4648436307907104,13.366698265075684,7.019042491912842,-0.8941650390625,0.26611328125,0.1514892578125
5.828,334,3075,1107,363,10.0,27.0,9.0,-1.7700194120407104,4.8828125,17.39501953125,-0.8941650390625,0.26611328125,0.1514892578125
5.836,334,2978,1101,364,10.0,27.0,9.0,-7.263183116912842,0.9155272841453552,23.925779342651367,-0.887451171875,0.195556640625,0.21435546875
5.850,330,2948,1012,360,10.0,27.0,9.0,-10.009765625,-0.6713866591453552,27.954099655151367,-0.890869140625,0.175048828125,0.2664794921875
5.858,331,2891,968,360,10.0,27.0,9.0,-5.676269054412842,-2.3193359375,30.395505905151367,-0.890869140625,0.175048828125,0.2664794921875
5.866,334,2899,973,360,10.0,27.0,9.0,4.7607421875,-4.8828125,30.456541061401367,-0.8629150390625,0.2357177734375,0.286376953125
5.895,336,2916,959,356,10.0,27.0,9.0,15.258788108825684,-7.019042491912842,28.015134811401367,-0.777099609375,0.4014892578125,0.3135986328125
5.895,338,2932,984,359,10.0,27.0,9.0,21.179197311401367,-7.690429210662842,24.414060592651367,-0.777099609375,0.4014892578125,0.3135986328125
5.896,346,3016,1004,360,10.0,27.0,9.0,22.888181686401367,-7.263183116912842,21.179197311401367,-0.7630615234375,0.4578857421875,0.2862548828125
5.911,404,3146,1014,354,10.0,27.0,9.0,22.033689498901367,-6.408690929412842,19.71435546875,-0.82373046875,0.4737548828125,0.146728515625
5.927,401,3147,1051,360,9.0,28.0,11.0,18.5546875,-5.920409679412842,20.385740280151367,-0.82373046875,0.4737548828125,0.146728515625
5.927,354,3147,1055,357,9.0,28.0,11.0,12.145995140075684,-5.859374523162842,22.460935592651367,-0.8336181640625,0.4100341796875,0.0667724609375
5.940,344,3147,1085,531,9.0,28.0,11.0,4.150390625,-7.141112804412842,24.475095748901367,-0.8026123046875,0.39453125,0.0198974609375
5.949,342,3147,1085,605,9.0,28.0,11.0,-3.906249761581421,-9.82666015625,24.169919967651367,-0.76123046875,0.4263916015625,0.040771484375
5.957,345,3147,1085,661,9.0,28.0,11.0,-12.207030296325684,-10.986327171325684,21.545408248901367,-0.7642822265625,0.4503173828125,0.0924072265625
5.971,356,3147,934,883,9.0,28.0,11.0,-22.338865280151367,-9.6435546875,20.751951217651367,-0.8121337890625,0.4287109375,0.142822265625
5.998,346,3147,830,1201,9.0,28.0,11.0,-33.203125,-8.9111328125,25.695798873901367,-0.81298828125,0.3157958984375,0.17822265625
5.998,336,3147,883,1577,9.0,28.0,11.0,-39.9169921875,-12.023924827575684,33.38623046875,-0.656982421875,0.1522216796875,0.1700439453125
6.045,365,3147,1346,2381,9.0,28.0,11.0,-35.400390625,-21.850584030151367,34.3017578125,-0.2528076171875,0.0020751953125,0.161865234375
6.047,382,3147,1499,2859,9.0,28.0,11.0,-10.498045921325684,-36.92626953125,14.953612327575684,0.4312744140625,-0.22216796875,0.19873046875
6.047,359,3147,1611,3147,11.0,31.0,9.0,36.43798828125,-45.043941497802734,-33.3251953125,1.171875,-0.746826171875,0.2208251953125
6.047,364,3147,1865,3147,11.0,31.0,9.0,99.24315643310547,-29.602048873901367,-97.10692596435547,1.42138671875,-1.185302734375,0.119140625
6.047,371,3147,1900,3147,11.0,31.0,9.0,150.69580078125,1.3427733182907104,-135.8642578125,0.6246337890625,-0.4306640625,0.090576171875
6.047,373,3147,2070,3147,11.0,31.0,9.0,130.67626953125,13.977049827575684,-123.84032440185547,-1.017333984375,1.4718017578125,0.206787109375
6.060,382,3147,2350,3147,11.0,31.0,9.0,21.423337936401367,2.50244140625,-75.927734375,-2.3836669921875,3.3125,0.189453125
6.069,401,3147,2927,3147,11.0,31.0,9.0,-120.91063690185547,-14.831542015075684,-30.578611373901367,-2.8798828125,3.758544921875,0.07568359375
6.093,404,3147,3147,3147,11.0,31.0,9.0,-238.09812927246094,-31.005857467651367,-16.11328125,-3.0137939453125,2.3902587890625,0.269287109375
6.094,414,3147,3147,3147,11.0,31.0,9.0,-284.48486328125,-44.128414154052734,-31.677244186401367,-2.869384765625,-0.3961181640625,0.5863037109375
6.104,390,3147,3147,3147,11.0,31.0,9.0,-211.73094177246094,-32.53173828125,-68.17626953125,-2.34814453125,-2.7474365234375,0.414306640625
6.107,400,3147,3147,3147,11.0,31.0,9.0,-24.353025436401367,-19.83642578125,-83.86229705810547,-1.5897216796875,-2.232666015625,0.38671875
6.134,391,3147,3147,3147,12.0,24.0,12.0,144.04296875,-39.48974609375,-58.898921966552734,-1.2294921875,0.1722412109375,0.839111328125
6.134,391,3147,3147,3147,12.0,24.0,12.0,155.2734375,-36.68212890625,-29.174802780151367,-1.61669921875,1.7301025390625,0.933837890625
6.143,388,3147,3147,3147,12.0,24.0,12.0,48.034664154052734,16.9677734375,-15.869139671325684,-1.9637451171875,1.524658203125,0.54150390625
6.150,388,3147,3028,3147,12.0,24.0,12.0,-42.114253997802734,66.89453125,-15.502928733825684,-1.9609375,0.5264892578125,0.103515625
6.159,389,3147,2872,3147,12.0,24.0,12.0,-51.696773529052734,64.697265625,-12.145995140075684,-1.8057861328125,-0.0994873046875,-0.081787109375
6.167,388,3147,2645,3147,12.0,24.0,12.0,-12.451170921325684,24.353025436401367,3.540038824081421,-1.599853515625,-0.0621337890625,0.0870361328125
6.184,381,3147,2292,3126,12.0,24.0,12.0,24.230955123901367,-8.9111328125,26.428220748901367,-1.3544921875,0.174072265625,0.3934326171875
6.196,375,3147,2087,2484,12.0,24.0,12.0,37.7197265625,-12.451170921325684,48.461910247802734,-1.060302734375,0.1839599609375,0.5479736328125
6.197,371,3147,1794,1744,12.0,24.0,12.0,39.00146484375,-0.2441406100988388,66.650390625,-0.718017578125,-0.0677490234375,0.4984130859375
6.210,354,3147,1691,766,11.0,29.0,15.0,46.691890716552734,7.995604991912842,78.61328125,-0.30517578125,-0.451171875,0.33740234375
6.219,348,2992,1616,390,11.0,29.0,15.0,70.556640625,13.610838890075684,76.47705078125,0.0548095703125,-0.61181640625,0.17236328125
6.234,342,1900,1351,375,11.0,29.0,15.0,99.12108612060547,25.817869186401367,49.926753997802734,0.1226806640625,-0.350830078125,0.0892333984375
6.240,324,598,1003,338,11.0,29.0,15.0,105.65184783935547,45.471187591552734,6.042479991912842,-0.1171875,0.0577392578125,0.0262451171875
6.248,318,454,934,334,11.0,29.0,15.0,85.87645721435547,62.316890716552734,-28.808591842651367,-0.347900390625,0.3939208984375,0.0028076171875
6.257,313,501,998,328,11.0,29.0,15.0,62.377925872802734,62.133785247802734,-37.4755859375,-0.3665771484375,0.68896484375,0.1258544921875
6.271,314,527,841,324,11.0,29.0,15.0,53.161617279052734,46.569820404052734,-27.160642623901367,-0.4390869140625,0.9091796875,0.2562255859375
6.279,310,564,687,324,11.0,29.0,15.0,45.288082122802734,28.808591842651367,-16.357421875,-0.662353515625,0.8795166015625,0.2559814453125
6.334,310,562,694,324,11.0,29.0,15.0,13.916014671325684,16.357421875,-14.831542015075684,-0.772705078125,0.5841064453125,0.167236328125
6.334,310,553,695,323,11.0,29.0,15.0,-25.817869186401367,8.97216796875,-15.563963890075684,-0.7601318359375,0.2872314453125,0.0599365234375
6.334,315,600,731,327,12.0,29.0,13.0,-43.151851654052734,1.5869139432907104,-9.70458984375,-0.72802734375,0.1578369140625,-0.033203125
6.334,310,591,723,327,12.0,29.0,13.0,-38.2080078125,-6.347655773162842,0.4882812201976776,-0.677978515625,0.1512451171875,-0.0955810546875
6.338,310,526,757,324,12.0,29.0,13.0,-27.038572311401367,-10.437010765075684,9.6435546875,-0.659912109375,0.1795654296875,-0.1107177734375
6.339,300,601,774,323,12.0,29.0,13.0,-16.17431640625,-10.925292015075684,16.78466796875,-0.6607666015625,0.20654296875,-0.0513916015625
6.352,315,695,811,330,12.0,29.0,13.0,-4.82177734375,-12.695311546325684,22.277830123901367,-0.644775390625,0.2508544921875,0.0869140625
6.361,316,922,883,332,12.0,29.0,13.0,7.019042491912842,-17.51708984375,24.291990280151367,-0.64013671875,0.3101806640625,0.2408447265625
6.369,318,1255,932,338,12.0,29.0,13.0,16.05224609375,-21.301267623901367,21.606443405151367,-0.67724609375,0.357177734375,0.3270263671875
6.376,318,1377,963,333,12.0,29.0,13.0,17.76123046875,-20.812986373901367,17.333984375,-0.7501220703125,0.3992919921875,0.340087890625
6.405,322,1766,1004,338,12.0,29.0,13.0,9.82666015625,-17.51708984375,16.17431640625,-0.827880859375,0.438720703125,0.316650390625
6.405,323,2012,1047,346,12.0,29.0,13.0,-6.225585460662842,-14.892577171325684,18.00537109375,-0.88232421875,0.439208984375,0.2408447265625
6.407,327,2221,1051,348,11.0,27.0,17.0,-6.225585460662842,-14.892577171325684,18.00537109375,-0.9110107421875,0.4312744140625,0.14013671875
6.439,328,2621,1117,360,11.0,27.0,17.0,-33.8134765625,-17.88330078125,18.5546875,-0.9273681640625,0.4420166015625,0.0943603515625
6.440,334,2911,1170,371,11.0,27.0,17.0,-37.4755859375,-20.446775436401367,15.747069358825684,-0.9683837890625,0.42724609375,0.065185546875
6.440,336,3056,1214,357,11.0,27.0,17.0,-37.4755859375,-20.446775436401367,15.747069358825684,-1.0557861328125,0.352294921875,0.014404296875
6.451,336,3147,1160,521,11.0,27.0,17.0,-52.734371185302734,-24.658201217651367,21.179197311401367,-1.107421875,0.23876953125,-0.0286865234375
6.459,334,3147,1129,730,11.0,27.0,17.0,-57.800289154052734,-30.029294967651367,34.423828125,-1.010009765625,0.1844482421875,-0.04150390625
6.467,336,3147,1138,1000,11.0,27.0,17.0,-57.800289154052734,-30.029294967651367,34.423828125,-0.650390625,0.1121826171875,0.03369140625
6.481,348,3147,1374,1716,11.0,27.0,17.0,-32.65380859375,-49.255367279052734,34.1796875,-0.0101318359375,-0.15283203125,0.137451171875
6.504,354,3147,1527,2104,11.0,27.0,17.0,9.521484375,-54.931636810302734,-4.39453125,0.78076171875,-0.68212890625,0.2000732421875
6.505,346,3147,1666,2507,11.0,27.0,17.0,9.521484375,-54.931636810302734,-4.39453125,1.3123779296875,-1.1024169921875,0.2996826171875
6.518,373,3147,1914,3128,13.0,26.0,21.0,119.87303924560547,-27.832029342651367,-102.41698455810547,0.9659423828125,-0.63720703125,0.5855712890625
6.531,374,3147,2076,3147,13.0,26.0,21.0,119.81200408935547,-8.30078125,-109.00878143310547,-0.2646484375,0.911865234375,0.9271240234375
6.543,383,3147,2260,3147,13.0,26.0,21.0,119.81200408935547,-8.30078125,-109.00878143310547,-1.49658203125,2.674560546875,0.7896728515625
6.543,376,3147,3040,3147,13.0,26.0,21.0,-74.76806640625,29.724119186401367,-46.020503997802734,-2.1529541015625,3.2691650390625,0.302978515625
6.549,402,3147,3147,3147,13.0,26.0,21.0,-175.23191833496094,24.108884811401367,-38.02490234375,-2.374267578125,2.3680419921875,0.0460205078125
6.556,493,3147,3147,3147,13.0,26.0,21.0,-175.23191833496094,24.108884811401367,-38.02490234375,-2.613037109375,0.8504638671875,0.1337890625
6.570,591,3147,3147,3147,13.0,26.0,21.0,-165.52732849121094,-32.65380859375,-69.2138671875,-3.0262451171875,-0.9302978515625,0.2728271484375
6.579,675,3147,3147,3147,13.0,26.0,21.0,-66.162109375,-36.9873046875,-83.80126190185547,-2.783935546875,-2.111572265625,0.104736328125
6.604,710,3147,3147,3147,13.0,26.0,21.0,-66.162109375,-36.9873046875,-83.80126190185547,-1.9158935546875,-1.2088623046875,0.2677001953125
6.606,658,3147,3147,3147,16.0,25.0,18.0,130.2490234375,-42.114253997802734,-41.076656341552734,-1.558837890625,0.6646728515625,0.876220703125
6.609,642,3147,3147,3147,16.0,25.0,18.0,83.12987518310547,-25.146482467651367,-9.27734375,-1.775634765625,1.29443359375,0.9637451171875
6.617,555,3147,3147,3147,16.0,25.0,18.0,83.12987518310547,-25.146482467651367,-9.27734375,-1.775634765625,1.29443359375,0.9637451171875
6.643,401,3147,3147,3147,16.0,25.0,18.0,-62.805171966552734,58.105464935302734,6.774901866912842,-1.810302734375,0.0052490234375,0.2637939453125
6.643,388,3147,3010,3147,16.0,25.0,18.0,-62.805171966552734,58.105464935302734,6.774901866912842,-1.492919921875,-0.223388671875,0.109130859375
6.647,390,3147,2831,3147,16.0,25.0,18.0,-37.9638671875,40.893550872802734,18.49365234375,-1.492919921875,-0.223388671875,0.109130859375
6.661,387,3147,2493,2554,16.0,25.0,18.0,51.940914154052734,-6.103515148162842,46.997066497802734,-0.82763671875,0.2025146484375,0.308837890625
6.668,383,3147,2284,2192,16.0,25.0,18.0,51.940914154052734,-6.103515148162842,46.997066497802734,-0.50390625,0.25244140625,0.37548828125
6.677,376,3147,2073,1742,16.0,25.0,18.0,71.1669921875,0.4272460639476776,47.241207122802734,-0.50390625,0.25244140625,0.37548828125
6.708,371,3147,1769,763,16.0,25.0,18.0,62.438961029052734,23.864744186401367,29.663084030151367,0.00537109375,0.2376708984375,0.357177734375
6.709,362,3147,1715,424,12.0,28.0,11.0,62.438961029052734,23.864744186401367,29.663084030151367,0.016357421875,0.13671875,0.216064453125
6.709,363,2818,1715,413,12.0,28.0,11.0,51.696773529052734,39.4287109375,13.427733421325684,0.016357421875,0.13671875,0.216064453125
6.721,348,2130,1622,387,12.0,28.0,11.0,32.04345703125,63.720699310302734,-22.094724655151367,-0.3741455078125,0.030517578125,-0.0570068359375
6.730,348,1927,1548,391,12.0,28.0,11.0,32.04345703125,63.720699310302734,-22.094724655151367,-0.4991455078125,0.1422119140625,-0.0965576171875
6.752,347,1782,1534,385,12.0,28.0,11.0,18.1884765625,58.166500091552734,-27.099607467651367,-0.4991455078125,0.1422119140625,-0.0965576171875
6.752,346,1700,1480,375,12.0,28.0,11.0,0.9765624403953552,33.14208984375,-6.896972179412842,-0.60546875,0.3763427734375,-0.0191650390625
6.758,344,1646,1483,374,12.0,28.0,11.0,0.9765624403953552,33.14208984375,-6.896972179412842,-0.6942138671875,0.3909912109375,0.063720703125
6.767,343,1607,1490,375,12.0,28.0,11.0,-4.0283203125,22.766111373901367,9.3994140625,-0.6942138671875,0.3909912109375,0.063720703125
6.780,338,1774,1447,371,12.0,28.0,11.0,-26.733396530151367,3.356933355331421,31.677244186401367,-0.826171875,0.1790771484375,0.19091796875
6.789,338,1874,1439,375,12.0,28.0,11.0,-26.733396530151367,3.356933355331421,31.677244186401367,-0.85302734375,0.12451171875,0.230224609375
6.797,344,2032,1435,376,12.0,29.0,12.0,-31.738279342651367,-3.417968511581421,35.64453125,-0.85302734375,0.12451171875,0.230224609375
6.810,344,2235,1422,375,12.0,29.0,12.0,-14.526366233825684,-14.160155296325684,30.822751998901367,-0.8919677734375,0.2510986328125,0.2899169921875
6.819,344,2312,1437,379,12.0,29.0,12.0,-14.526366233825684,-14.160155296325684,30.822751998901367,-0.8939208984375,0.4097900390625,0.3533935546875
6.828,343,2375,1437,382,12.0,29.0,12.0,5.310058116912842,-17.63916015625,21.911619186401367,-0.8939208984375,0.4097900390625,0.3533935546875
6.860,345,2468,1466,375,12.0,29.0,12.0,20.080564498901367,-17.2119140625,11.169432640075684,-0.8895263671875,0.4937744140625,0.364013671875
6.861,346,2456,1441,382,12.0,29.0,12.0,23.986814498901367,-12.268065452575684,2.746581792831421,-0.8895263671875,0.4937744140625,0.364013671875
6.861,328,2571,1506,376,12.0,29.0,12.0,19.4091796875,-5.615233898162842,-0.6103515625,-0.8828125,0.4217529296875,0.3167724609375
6.866,345,2571,1524,382,12.0,29.0,12.0,13.427733421325684,-0.6103515625,-0.6713866591453552,-0.8931884765625,0.33349609375,0.25048828125
6.885,346,2561,1550,376,12.0,29.0,12.0,10.070799827575684,0.7324218153953552,0.4882812201976776,-0.9482421875,0.267578125,0.126953125
6.888,346,2507,1548,382,12.0,29.0,12.0,7.263183116912842,-1.4038084745407104,2.807616949081421,-0.9482421875,0.267578125,0.126953125
6.914,346,2514,1529,383,13.0,29.0,17.0,2.44140625,-5.371093273162842,7.141112804412842,-0.982421875,0.25439453125,0.0909423828125
6.914,345,2543,1453,372,13.0,29.0,17.0,-3.845214605331421,-9.3994140625,13.610838890075684,-0.9835205078125,0.1923828125,0.03759765625
6.918,346,2605,1396,376,13.0,29.0,17.0,-9.58251953125,-13.244627952575684,20.812986373901367,-0.9835205078125,0.1923828125,0.03759765625
6.932,344,2627,1359,373,13.0,29.0,17.0,-12.878417015075684,-17.333984375,25.878904342651367,-0.9383544921875,0.226318359375,0.07470703125
6.959,342,2660,1292,364,13.0,29.0,17.0,-12.451170921325684,-20.812986373901367,27.221677780151367,-0.901123046875,0.3043212890625,0.167236328125
6.959,342,2662,1224,345,13.0,29.0,17.0,-10.925292015075684,-21.362302780151367,26.306150436401367,-0.8919677734375,0.3641357421875,0.2471923828125
6.959,338,2689,1231,359,13.0,29.0,17.0,-13.122557640075684,-18.9208984375,27.343748092651367,-0.8885498046875,0.3582763671875,0.294921875
6.971,336,2807,1143,359,13.0,29.0,17.0,-19.287109375,-15.808104515075684,33.02001953125,-0.8359375,0.1966552734375,0.2706298828125
6.979,332,2905,1120,361,13.0,29.0,17.0,-25.817869186401367,-13.793944358825684,41.809078216552734,-0.8359375,0.1966552734375,0.2706298828125
6.987,333,3089,1085,361,13.0,29.0,17.0,-28.442380905151367,-15.441893577575684,50.659175872802734,-0.77001953125,0.1456298828125,0.1900634765625
7.016,332,3147,1079,537,10.0,28.0,19.0,-24.108884811401367,-23.010251998901367,56.640621185302734,-0.5347900390625,0.153564453125,0.0936279296875
7.016,334,3147,1123,830,10.0,28.0,19.0,-11.413573265075684,-35.0341796875,57.495113372802734,-0.5347900390625,0.153564453125,0.0936279296875
7.017,344,3147,1306,1262,10.0,28.0,19.0,4.45556640625,-48.217769622802734,50.964351654052734,-0.3153076171875,0.1629638671875,0.048095703125
7.033,354,3147,1638,1960,10.0,28.0,19.0,18.798828125,-59.204097747802734,31.799314498901367,0.5469970703125,-0.0738525390625,0.3546142578125
7.054,361,3147,1753,2364,10.0,28.0,19.0,34.60693359375,-59.875484466552734,-7.080077648162842,0.5469970703125,-0.0738525390625,0.3546142578125
7.054,361,3147,1852,2722,10.0,28.0,19.0,57.250972747802734,-37.2314453125,-62.805171966552734,0.78125,-0.2950439453125,0.5291748046875
7.060,373,3147,2073,3147,10.0,28.0,19.0,75.1953125,6.530761241912842,-111.14501190185547,0.495361328125,-0.1964111328125,0.466552734375
7.069,381,3147,2215,3147,10.0,28.0,19.0,64.8193359375,41.381832122802734,-127.19725799560547,-0.219970703125,0.4849853515625,0.3631591796875
7.076,379,3147,2379,3147,10.0,28.0,19.0,22.521970748901367,44.494625091552734,-104.85839080810547,-1.04638671875,1.5621337890625,0.228271484375
7.091,398,3147,3057,3147,13.0,27.0,15.0,-32.04345703125,28.198240280151367,-67.138671875,-1.60107421875,2.2674560546875,0.1029052734375
7.099,423,3147,3147,3147,13.0,27.0,15.0,-91.06444549560547,9.033203125,-51.757808685302734,-1.856201171875,2.10888671875,0.1650390625
7.117,568,3147,3147,3147,13.0,27.0,15.0,-147.0947265625,-8.11767578125,-61.401363372802734,-2.0406494140625,1.4959716796875,0.3267822265625
7.121,679,3147,3147,3147,13.0,27.0,15.0,-170.65428161621094,-23.742673873901367,-69.580078125,-2.4744873046875,0.57568359375,0.6318359375
7.129,721,3147,3147,3147,13.0,27.0,15.0,-149.658203125,-32.40966796875,-76.47705078125,-2.8917236328125,-0.98828125,0.686279296875
7.137,782,3147,3147,3147,13.0,27.0,15.0,-75.86669921875,-13.916014671325684,-90.39305877685547,-2.4273681640625,-1.87890625,0.181396484375
7.170,802,3147,3147,3147,13.0,27.0,15.0,42.114253997802734,0.54931640625,-86.12059783935547,-1.6015625,-0.744384765625,0.1329345703125
7.171,785,3147,3147,3147,13.0,27.0,15.0,105.95702362060547,-12.939452171325684,-57.800289154052734,-1.477783203125,0.8216552734375,0.58349609375
7.171,737,3147,3147,3147,13.0,27.0,15.0,54.565425872802734,-0.7934569716453552,-34.1796875,-1.734130859375,1.05908203125,0.6651611328125
7.177,679,3147,3147,3147,13.0,27.0,15.0,-29.174802780151367,36.62109375,-25.146482467651367,-1.8333740234375,0.4290771484375,0.4842529296875
7.189,548,3147,3147,3147,18.0,25.0,13.0,-55.480953216552734,47.546382904052734,-18.49365234375,-1.645263671875,-0.1021728515625,0.3330078125
7.198,431,3147,3147,3147,18.0,25.0,13.0,-25.024412155151367,31.555173873901367,-7.568358898162842,-1.3240966796875,-0.1654052734375,0.289306640625
7.221,391,3147,3104,3147,18.0,25.0,13.0,17.51708984375,16.845703125,5.432128429412842,-1.0550537109375,0.0501708984375,0.34912109375
7.221,373,3147,2790,2820,18.0,25.0,13.0,43.151851654052734,13.549803733825684,15.930174827575684,-0.8431396484375,0.2066650390625,0.403076171875
7.228,385,3147,2622,2519,18.0,25.0,13.0,50.720211029052734,14.343260765075684,23.681638717651367,-0.6295166015625,0.2371826171875,0.4212646484375
7.238,382,3147,2456,2137,18.0,25.0,13.0,45.654293060302734,14.282225608825684,29.235837936401367,-0.4371337890625,0.2086181640625,0.4119873046875
7.260,379,3147,2203,1527,18.0,25.0,13.0,33.203125,18.6767578125,30.456541061401367,-0.3271484375,0.13720703125,0.348876953125
7.261,371,3147,2032,1173,18.0,25.0,13.0,22.033689498901367,30.578611373901367,26.550291061401367,-0.3209228515625,0.029296875,0.23779296875
7.284,364,3147,1865,858,18.0,25.0,13.0,17.578125,43.762203216552734,19.4091796875,-0.394775390625,-0.0426025390625,0.1400146484375
7.284,361,3147,1753,409,18.0,25.0,13.0,19.1650390625,50.537105560302734,12.268065452575684,-0.531494140625,-0.0606689453125,0.078125
7.288,359,2859,1715,403,12.0,28.0,15.0,22.399900436401367,50.476070404052734,7.324218273162842,-0.688232421875,-0.052490234375,0.0264892578125
7.298,356,2552,1681,402,12.0,28.0,15.0,19.1650390625,47.363277435302734,5.187987804412842,-0.798095703125,-0.0006103515625,-0.020751953125
7.323,346,2254,1609,376,12.0,28.0,15.0,8.85009765625,43.884273529052734,5.859374523162842,-0.8538818359375,0.0545654296875,-0.072021484375
7.324,347,2035,1548,383,12.0,28.0,15.0,2.563476324081421,38.9404296875,10.864256858825684,-0.8538818359375,0.0887451171875,-0.091796875
7.326,346,1750,1492,375,12.0,28.0,15.0,6.958007335662842,30.090330123901367,21.667478561401367,-0.8079833984375,0.126708984375,-0.0396728515625
7.340,338,1540,1359,363,12.0,28.0,15.0,17.2119140625,19.287109375,35.64453125,-0.748046875,0.1708984375,0.050048828125
7.356,338,1506,1266,362,12.0,28.0,15.0,24.230955123901367,10.681151390075684,47.790523529052734,-0.7132568359375,0.2176513671875,0.1390380859375
7.363,334,1313,1175,360,12.0,28.0,15.0,23.986814498901367,4.5166015625,55.053707122802734,-0.729736328125,0.291015625,0.239013671875
7.370,332,1211,1131,355,12.0,28.0,15.0,18.73779296875,-0.4272460639476776,56.335445404052734,-0.76806640625,0.3905029296875,0.3238525390625
7.388,331,1278,1155,359,12.0,28.0,15.0,12.939452171325684,-2.624511480331421,51.208492279052734,-0.7882080078125,0.4669189453125,0.3446044921875
7.388,331,1294,1123,359,12.0,29.0,12.0,10.253905296325684,-1.15966796875,40.832515716552734,-0.7899169921875,0.5006103515625,0.3128662109375
7.399,332,1434,1184,356,12.0,29.0,12.0,10.864256858825684,1.6479490995407104,29.174802780151367,-0.7916259765625,0.5145263671875,0.2784423828125
7.410,331,1494,1222,359,12.0,29.0,12.0,13.244627952575684,3.173827886581421,19.8974609375,-0.7996826171875,0.5064697265625,0.263427734375
7.427,334,1531,1260,360,12.0,29.0,12.0,13.244627952575684,3.173827886581421,19.8974609375,-0.8204345703125,0.450927734375,0.24560546875
7.429,336,1669,1320,361,12.0,29.0,12.0,16.7236328125,2.13623046875,7.202147960662842,-0.8609619140625,0.3741455078125,0.2110595703125
7.438,334,1762,1331,363,12.0,29.0,12.0,15.930174827575684,0.8544921278953552,2.868652105331421,-0.8988037109375,0.321533203125,0.170654296875
7.446,336,1821,1348,361,12.0,29.0,12.0,15.930174827575684,0.8544921278953552,2.868652105331421,-0.9178466796875,0.301025390625,0.12255859375
7.465,334,1941,1374,359,12.0,29.0,12.0,7.934569835662842,-2.868652105331421,1.15966796875,-0.9212646484375,0.30419921875,0.0885009765625
7.468,336,2023,1383,363,12.0,29.0,12.0,2.44140625,-5.065917491912842,2.685546636581421,-0.909912109375,0.3062744140625,0.0830078125
7.476,336,2122,1398,367,12.0,29.0,12.0,2.44140625,-5.065917491912842,2.685546636581421,-0.89599609375,0.28564453125,0.0787353515625
7.495,337,2156,1397,364,12.0,31.0,11.0,-3.295898199081421,-8.9111328125,6.591796398162842,-0.8892822265625,0.2579345703125,0.0760498046875
7.498,326,2272,1387,370,12.0,31.0,11.0,-4.7607421875,-11.718749046325684,10.498045921325684,-0.888671875,0.241455078125,0.0909423828125
7.506,342,2348,1398,373,12.0,31.0,11.0,-4.7607421875,-11.718749046325684,10.498045921325684,-0.89306640625,0.228271484375,0.1053466796875
7.528,338,2449,1387,373,12.0,31.0,11.0,-11.657713890075684,-16.66259765625,23.620603561401367,-0.9031982421875,0.221435546875,0.1092529296875
7.529,338,2472,1397,375,12.0,31.0,11.0,-18.310546875,-17.27294921875,33.69140625,-0.9212646484375,0.221923828125,0.11962890625
7.536,344,2567,1377,373,12.0,31.0,11.0,-18.310546875,-17.27294921875,33.69140625,-0.94921875,0.2078857421875,0.1201171875
7.550,344,2662,1310,369,12.0,31.0,11.0,-33.87451171875,-17.9443359375,61.157222747802734,-0.9730224609375,0.15869140625,0.087646484375
7.565,338,2905,1173,373,12.0,31.0,11.0,-37.17041015625,-22.644041061401367,76.96533203125,-0.9512939453125,0.1107177734375,0.05615234375
7.567,321,3147,1004,344,12.0,31.0,11.0,-37.17041015625,-22.644041061401367,76.96533203125,-0.817138671875,0.096435546875,0.098876953125
7.579,343,3147,975,853,6.0,28.0,17.0,-29.296873092651367,-53.466793060302734,93.93309783935547,-0.48388671875,0.0762939453125,0.1990966796875
7.594,338,3147,1129,1306,6.0,28.0,17.0,-11.352538108825684,-67.9931640625,78.18603515625,0.048583984375,0.0338134765625,0.2476806640625
7.596,356,3147,1404,1809,6.0,28.0,17.0,-11.352538108825684,-67.9931640625,78.18603515625,0.67529296875,-0.0220947265625,0.307373046875
7.610,359,3147,1711,2560,6.0,28.0,17.0,46.264644622802734,-57.617183685302734,-20.874021530151367,1.2076416015625,-0.1805419921875,0.4757080078125
7.634,364,3147,1824,2916,6.0,28.0,17.0,61.035152435302734,-25.146482467651367,-82.45848846435547,1.1824951171875,-0.2088623046875,0.5179443359375
7.634,371,3147,1915,3147,6.0,28.0,17.0,61.035152435302734,-25.146482467651367,-82.45848846435547,0.31494140625,0.2857666015625,0.2882080078125
7.639,375,3147,2089,3147,6.0,28.0,17.0,10.803221702575684,39.85595703125,-111.20604705810547,-0.9248046875,1.345703125,0.0699462890625
7.648,385,3147,2330,3147,6.0,28.0,17.0,10.803221702575684,39.85595703125,-111.20604705810547,-1.7625732421875,2.3056640625,0.0775146484375
7.663,390,3147,2765,3147,6.0,28.0,17.0,-42.175289154052734,30.151365280151367,-72.44873046875,-1.7625732421875,2.3056640625,0.0775146484375
7.670,526,3147,3147,3147,6.0,28.0,17.0,-169.86082458496094,-13.671874046325684,-42.236324310302734,-2.2469482421875,1.76611328125,0.3555908203125
7.678,628,3147,3147,3147,11.0,29.0,15.0,-169.86082458496094,-13.671874046325684,-42.236324310302734,-2.6109619140625,0.6370849609375,0.5401611328125
7.686,619,3147,3147,3147,11.0,29.0,15.0,-211.60887145996094,-17.15087890625,-45.471187591552734,-2.6109619140625,0.6370849609375,0.5401611328125
7.700,689,3147,3147,3147,11.0,29.0,15.0,-103.39354705810547,-3.662109136581421,-61.279293060302734,-2.75244140625,-2.010986328125,0.2713623046875
7.769,711,3147,3147,3147,11.0,29.0,15.0,-103.39354705810547,-3.662109136581421,-61.279293060302734,-1.5418701171875,-0.9354248046875,0.1849365234375
7.769,728,3147,3147,3147,11.0,29.0,15.0,31.677244186401367,0.9155272841453552,-49.011226654052734,-1.5418701171875,-0.9354248046875,0.1849365234375
7.770,658,3147,3147,3147,11.0,29.0,15.0,83.98436737060547,-27.770994186401367,0.7934569716453552,-1.5640869140625,1.315673828125,0.7750244140625
7.770,597,3147,3147,3147,11.0,29.0,15.0,83.98436737060547,-27.770994186401367,0.7934569716453552,-1.9097900390625,0.8603515625,0.4969482421875
7.771,519,3147,3147,3147,11.0,29.0,15.0,4.21142578125,18.4326171875,4.69970703125,-1.9097900390625,0.8603515625,0.4969482421875
7.772,388,3147,3086,3147,11.0,29.0,15.0,-31.249998092651367,46.874996185302734,12.878417015075684,-1.585205078125,0.0408935546875,0.1046142578125
7.772,391,3147,2909,3147,11.0,29.0,15.0,-31.249998092651367,46.874996185302734,12.878417015075684,-1.24072265625,-0.0360107421875,0.1082763671875
7.776,390,3147,2749,3147,15.0,28.0,18.0,4.5166015625,16.05224609375,26.794431686401367,-1.24072265625,-0.0360107421875,0.1082763671875
7.789,383,3147,2504,3147,15.0,28.0,18.0,70.73974609375,-14.404295921325684,44.250484466552734,-0.6571044921875,0.2808837890625,0.523681640625
7.798,376,3147,2303,2974,15.0,28.0,18.0,70.73974609375,-14.404295921325684,44.250484466552734,-0.452392578125,0.4786376953125,0.5806884765625
7.812,375,3147,2161,2684,15.0,28.0,18.0,79.16259765625,2.868652105331421,37.53662109375,-0.452392578125,0.4786376953125,0.5806884765625
7.835,371,3147,1894,2115,15.0,28.0,18.0,43.395992279052734,39.73388671875,8.85009765625,-0.2283935546875,0.47119140625,0.4168701171875
7.836,365,3147,1826,1742,15.0,28.0,18.0,43.395992279052734,39.73388671875,8.85009765625,-0.27392578125,0.31494140625,0.2506103515625
7.836,364,3147,1774,1386,15.0,28.0,18.0,27.038572311401367,53.466793060302734,-6.042479991912842,-0.27392578125,0.31494140625,0.2506103515625
7.852,363,3147,1638,829,15.0,28.0,18.0,23.864744186401367,64.27001953125,-16.90673828125,-0.41162109375,-0.03173828125,0.032470703125
7.858,359,3147,1582,586,15.0,28.0,18.0,26.306150436401367,67.19970703125,-24.047849655151367,-0.41162109375,-0.03173828125,0.032470703125
7.870,357,3147,1550,398,15.0,28.0,18.0,25.085447311401367,62.683101654052734,-28.198240280151367,-0.5086669921875,-0.0733642578125,-0.0379638671875
7.879,348,3027,1474,382,13.0,28.0,10.0,22.094724655151367,54.321285247802734,-27.343748092651367,-0.7957763671875,0.101318359375,-0.0361328125
7.887,349,2820,1452,383,13.0,28.0,10.0,22.521970748901367,45.104976654052734,-21.301267623901367,-0.7957763671875,0.101318359375,-0.0361328125
7.896,348,2654,1434,378,13.0,28.0,10.0,25.939939498901367,36.19384765625,-11.901854515075684,-0.9136962890625,0.1656494140625,-0.0089111328125
7.914,347,2504,1437,372,13.0,28.0,10.0,28.442380905151367,26.672361373901367,-1.2817381620407104,-0.90673828125,0.17626953125,0.1031494140625
7.917,346,2492,1399,372,13.0,28.0,10.0,29.113767623901367,17.51708984375,7.995604991912842,-0.90673828125,0.17626953125,0.1031494140625
7.936,346,2418,1370,372,13.0,28.0,10.0,29.296873092651367,11.230467796325684,14.709471702575684,-0.8660888671875,0.1822509765625,0.1138916015625
7.946,344,2314,1313,364,13.0,28.0,10.0,28.686521530151367,7.873534679412842,19.95849609375,-0.81005859375,0.2955322265625,0.1363525390625
7.948,344,2337,1260,365,13.0,28.0,10.0,25.573728561401367,5.432128429412842,23.803709030151367,-0.81005859375,0.2955322265625,0.1363525390625
7.955,342,2347,1251,362,13.0,28.0,10.0,20.874021530151367,3.479003667831421,24.719236373901367,-0.7930908203125,0.3458251953125,0.163818359375
7.973,342,2514,1278,363,12.0,30.0,16.0,17.63916015625,2.13623046875,22.277830123901367,-0.8162841796875,0.397216796875,0.1630859375
7.978,344,2559,1312,371,12.0,30.0,16.0,17.333984375,0.4882812201976776,17.88330078125,-0.8162841796875,0.397216796875,0.1630859375
7.985,346,2584,1341,371,12.0,30.0,16.0,19.59228515625,-2.44140625,13.488768577575684,-0.8524169921875,0.437255859375,0.1502685546875
7.999,344,2627,1375,369,12.0,30.0,16.0,21.728513717651367,-5.920409679412842,10.009765625,-0.9129638671875,0.4700927734375,0.1201171875
8.008,344,2668,1386,372,12.0,30.0,16.0,20.141599655151367,-8.23974609375,7.873534679412842,-0.9129638671875,0.4700927734375,0.1201171875
8.021,344,2673,1411,373,12.0,30.0,16.0,14.221190452575684,-9.33837890625,7.934569835662842,-0.9195556640625,0.409912109375,0.0887451171875
8.037,344,2738,1428,371,12.0,30.0,16.0,7.019042491912842,-10.498045921325684,10.009765625,-0.921142578125,0.2742919921875,0.066650390625
8.038,344,2758,1440,375,12.0,30.0,16.0,0.9155272841453552,-12.695311546325684,12.878417015075684,-0.921142578125,0.2742919921875,0.066650390625
8.046,344,2748,1443,375,12.0,30.0,16.0,-3.417968511581421,-16.2353515625,15.441893577575684,-0.928466796875,0.2432861328125,0.0843505859375
8.059,343,2733,1455,371,12.0,30.0,16.0,-5.798339366912842,-20.324705123901367,17.63916015625,-0.9583740234375,0.2537841796875,0.089111328125
8.075,344,2681,1481,375,10.0,30.0,13.0,-6.286620616912842,-24.291990280151367,20.385740280151367,-0.9583740234375,0.2537841796875,0.089111328125
8.076,344,2585,1455,361,10.0,30.0,13.0,-5.859374523162842,-28.320310592651367,24.780271530151367,-0.969482421875,0.2919921875,0.0811767578125
8.089,342,2442,1411,372,10.0,30.0,13.0,-6.347655773162842,-32.1044921875,31.066892623901367,-0.9715576171875,0.3236083984375,0.078125
8.097,343,2372,1386,374,10.0,30.0,13.0,-8.97216796875,-35.5224609375,39.00146484375,-0.9569091796875,0.3172607421875,0.0826416015625
8.106,338,2341,1357,373,10.0,30.0,13.0,-13.183592796325684,-38.6962890625,48.706050872802734,-0.928955078125,0.2822265625,0.10009765625
8.119,338,2562,1207,364,10.0,30.0,13.0,-17.4560546875,-42.541500091552734,60.180660247802734,-0.8880615234375,0.2232666015625,0.1234130859375
8.135,334,2801,1149,363,10.0,30.0,13.0,-19.71435546875,-46.936031341552734,71.59423828125,-0.803955078125,0.16064453125,0.109375
8.142,334,3147,1120,371,10.0,30.0,13.0,-18.06640625,-51.696773529052734,80.2001953125,-0.6199951171875,0.1431884765625,0.1021728515625
8.150,347,3147,1306,1134,10.0,30.0,13.0,-10.375975608825684,-57.983394622802734,81.29882049560547,-0.275390625,0.141357421875,0.152099609375
8.159,348,3147,1550,1715,10.0,30.0,13.0,4.45556640625,-63.354488372802734,66.5283203125,0.211181640625,0.105712890625,0.19873046875
8.178,356,3147,1662,2207,8.0,30.0,13.0,21.545408248901367,-62.438961029052734,31.127927780151367,0.84033203125,-0.1044921875,0.2607421875
8.179,371,3147,1852,2989,8.0,30.0,13.0,31.738279342651367,-45.654293060302734,-22.033689498901367,1.4573974609375,-0.4176025390625,0.30517578125
8.188,373,3147,1959,3147,8.0,30.0,13.0,29.602048873901367,-8.72802734375,-77.2705078125,1.530029296875,-0.33544921875,0.305419921875
8.196,375,3147,2032,3147,8.0,30.0,13.0,12.084959983825684,24.475095748901367,-110.29051971435547,0.5052490234375,0.3988037109375,0.2647705078125
8.209,378,3147,2412,3147,8.0,30.0,13.0,-16.4794921875,26.306150436401367,-103.45458221435547,-1.1217041015625,1.7767333984375,0.32177734375
8.217,400,3147,2921,3147,8.0,30.0,13.0,-52.307125091552734,6.774901866912842,-71.96044921875,-2.15185546875,2.9808349609375,0.5142822265625
8.232,506,3147,3147,3147,8.0,30.0,13.0,-116.21092987060547,-6.713866710662842,-59.814449310302734,-2.4228515625,2.9400634765625,0.5892333984375
8.249,721,3147,3147,3147,8.0,30.0,13.0,-199.34080505371094,-5.859374523162842,-70.9228515625,-2.5771484375,1.677001953125,0.67529296875
8.250,723,3147,3147,3147,8.0,30.0,13.0,-231.87254333496094,-1.8920897245407104,-86.12059783935547,-3.0887451171875,-0.40087890625,0.7421875
8.255,751,3147,3147,3147,8.0,30.0,13.0,-160.5224609375,12.023924827575684,-107.84911346435547,-3.2777099609375,-2.250732421875,0.239501953125
8.286,793,3147,3147,3147,14.0,28.0,14.0,-2.01416015625,30.334470748901367,-113.09813690185547,-2.3016357421875,-2.01611328125,-0.2132568359375
8.286,763,3147,3147,3147,14.0,28.0,14.0,135.68115234375,3.295898199081421,-78.0029296875,-1.4095458984375,0.0732421875,0.3240966796875
8.287,753,3147,3147,3147,14.0,28.0,14.0,142.27294921875,-30.334470748901367,-30.761716842651367,-1.5792236328125,1.5582275390625,0.8614501953125
8.300,642,3147,3147,3147,14.0,28.0,14.0,39.00146484375,5.920409679412842,-6.896972179412842,-1.9720458984375,1.3406982421875,0.5989990234375
8.308,525,3147,3147,3147,14.0,28.0,14.0,-52.856441497802734,60.791011810302734,-4.45556640625,-1.9962158203125,0.369140625,0.151123046875
8.316,399,3147,3147,3147,14.0,28.0,14.0,-61.584468841552734,60.852046966552734,0.0,-1.713134765625,-0.2144775390625,-0.034423828125
8.329,388,3147,2864,3147,14.0,28.0,14.0,-17.822265625,20.751951217651367,16.4794921875,-1.3468017578125,-0.16064453125,0.079833984375
8.351,387,3147,2674,3059,14.0,28.0,14.0,25.634763717651367,-9.58251953125,35.94970703125,-1.03955078125,0.1416015625,0.3367919921875
8.351,382,3147,2376,2691,14.0,28.0,14.0,46.752925872802734,-10.131834983825684,47.729488372802734,-0.7681884765625,0.2978515625,0.4674072265625
8.360,375,3147,2032,2035,12.0,28.0,14.0,50.842281341552734,2.13623046875,50.292964935302734,-0.4638671875,0.2642822265625,0.4449462890625
8.367,369,3147,1867,1611,12.0,28.0,14.0,50.109859466552734,9.21630859375,45.776363372802734,-0.1368408203125,0.1773681640625,0.4212646484375
8.382,363,3147,1798,1178,12.0,28.0,14.0,50.903316497802734,17.27294921875,32.1044921875,0.0897216796875,0.0611572265625,0.35009765625
8.396,359,3147,1697,508,12.0,28.0,14.0,53.405757904052734,36.62109375,9.27734375,0.05859375,-0.0469970703125,0.222412109375
8.398,354,3065,1629,383,12.0,28.0,14.0,52.062984466552734,57.250972747802734,-14.648436546325684,-0.1802978515625,-0.0621337890625,0.1053466796875
8.406,351,2821,1595,390,12.0,28.0,14.0,40.344234466552734,64.8193359375,-30.029294967651367,-0.4202880859375,0.0244140625,-0.0234375
8.419,344,2440,1462,376,12.0,28.0,14.0,22.888181686401367,59.570308685302734,-32.5927734375,-0.566650390625,0.2071533203125,-0.0899658203125
8.429,344,2430,1450,382,12.0,28.0,14.0,9.8876953125,48.828121185302734,-24.658201217651367,-0.6197509765625,0.3828125,-0.07958984375
8.449,346,2428,1422,381,12.0,28.0,14.0,2.685546636581421,39.794921875,-12.512206077575684,-0.6473388671875,0.4501953125,-0.0731201171875
8.452,338,2473,1427,374,12.0,28.0,14.0,-3.784179449081421,32.2265625,0.0,-0.70458984375,0.4068603515625,-0.030517578125
8.458,344,2541,1441,379,10.0,28.0,11.0,-12.573241233825684,22.277830123901367,10.925292015075684,-0.7762451171875,0.2781982421875,0.0653076171875
8.468,344,2677,1434,382,10.0,28.0,11.0,-18.798828125,11.474608421325684,18.9208984375,-0.829833984375,0.1630859375,0.15771484375
8.483,338,2801,1348,373,10.0,28.0,11.0,-17.63916015625,2.868652105331421,23.986814498901367,-0.8558349609375,0.1505126953125,0.247314453125
8.488,344,2940,1331,377,10.0,28.0,11.0,-13.854979515075684,-1.3427733182907104,26.428220748901367,-0.8660888671875,0.2064208984375,0.2999267578125
8.496,342,3048,1336,382,10.0,28.0,11.0,-12.573241233825684,-0.30517578125,25.878904342651367,-0.8780517578125,0.28662109375,0.2996826171875
8.509,344,3120,1398,375,10.0,28.0,11.0,-12.084959983825684,2.3193359375,22.216794967651367,-0.8983154296875,0.3734130859375,0.2860107421875
8.518,344,3147,1450,383,10.0,28.0,11.0,-9.1552734375,3.356933355331421,15.991209983825684,-0.9237060546875,0.4246826171875,0.24169921875
8.526,345,3147,1483,386,10.0,28.0,11.0,-3.112792730331421,3.112792730331421,8.9111328125,-0.952392578125,0.4346923828125,0.1656494140625
8.539,344,3147,1533,387,10.0,28.0,11.0,3.540038824081421,1.4648436307907104,3.723144292831421,-0.9803466796875,0.42626953125,0.1083984375
8.557,344,3147,1540,402,10.0,28.0,11.0,7.812499523162842,-1.5869139432907104,1.6479490995407104,-0.9979248046875,0.3978271484375,0.09619140625
8.558,346,3147,1531,371,11.0,30.0,18.0,7.812499523162842,-1.5869139432907104,1.6479490995407104,-0.998291015625,0.3460693359375,0.1103515625
8.569,346,3147,1497,378,11.0,30.0,18.0,6.530761241912842,-7.568358898162842,5.737304210662842,-0.9881591796875,0.27587890625,0.115966796875
8.587,344,3147,1467,379,11.0,30.0,18.0,4.33349609375,-9.82666015625,11.108397483825684,-0.984619140625,0.21044921875,0.1116943359375
8.590,338,3146,1439,376,11.0,30.0,18.0,4.33349609375,-9.82666015625,11.108397483825684,-0.988525390625,0.1749267578125,0.1168212890625
8.599,344,3101,1377,373,11.0,30.0,18.0,0.9155272841453552,-16.29638671875,27.038572311401367,-0.9786376953125,0.1600341796875,0.130859375
8.608,338,3064,1336,375,11.0,30.0,18.0,-0.7324218153953552,-19.10400390625,35.46142578125,-0.9537353515625,0.1619873046875,0.141357421875
8.622,342,3033,1308,375,11.0,30.0,18.0,-0.7324218153953552,-19.10400390625,35.46142578125,-0.9283447265625,0.1890869140625,0.1578369140625
