time,compression0,compression1,compression2,compression3,magn_x,magn_y,magn_z,gyro_x,gyro_y,gyro_z,accel_x,accel_y,accel_z
0.002,306,373,546,319,0.0,36.0,14.0,4.150390625,-4.45556640625,-7.080077648162842,-0.968994140625,0.6302490234375,-0.3233642578125
0.010,308,360,543,321,0.0,36.0,14.0,3.540038824081421,-5.493163585662842,-8.36181640625,-0.968994140625,0.6302490234375,-0.3233642578125
0.019,307,402,540,321,0.0,36.0,14.0,1.4038084745407104,-6.591796398162842,-9.6435546875,-0.978515625,0.6173095703125,-0.3089599609375
0.032,308,378,548,321,0.0,36.0,14.0,-1.5869139432907104,-7.446288585662842,-10.986327171325684,-0.968994140625,0.579833984375,-0.2938232421875
0.040,308,404,537,319,0.0,36.0,12.0,-2.746581792831421,-7.141112804412842,-12.634276390075684,-0.9571533203125,0.5435791015625,-0.286865234375
0.066,306,402,519,321,0.0,36.0,12.0,-0.30517578125,-5.676269054412842,-14.160155296325684,-0.953369140625,0.533935546875,-0.2794189453125
0.066,306,409,513,318,0.0,36.0,12.0,2.929687261581421,-4.638671875,-14.953612327575684,-0.9417724609375,0.5335693359375,-0.2685546875
0.070,306,401,513,321,0.0,36.0,12.0,4.5166015625,-4.45556640625,-15.502928733825684,-0.922607421875,0.5279541015625,-0.259521484375
0.078,306,400,513,318,0.0,36.0,12.0,5.554198741912842,-4.638671875,-15.686034202575684,-0.9036865234375,0.5377197265625,-0.25732421875
0.097,306,433,495,321,0.0,36.0,12.0,5.554198741912842,-4.57763671875,-15.136717796325684,-0.879638671875,0.5740966796875,-0.2735595703125
0.100,306,385,493,321,0.0,36.0,12.0,1.4038084745407104,-3.906249761581421,-13.854979515075684,-0.8519287109375,0.5977783203125,-0.294921875
0.108,306,400,481,316,0.0,36.0,12.0,-7.690429210662842,-2.685546636581421,-12.512206077575684,-0.8336181640625,0.5772705078125,-0.29248046875
0.122,306,387,466,321,0.0,36.0,12.0,-16.78466796875,-1.220703125,-11.047362327575684,-0.8277587890625,0.5340576171875,-0.27392578125
0.130,306,418,479,317,0.0,36.0,12.0,-21.240232467651367,-0.1220703050494194,-9.27734375,-0.8258056640625,0.4888916015625,-0.2579345703125
0.138,306,425,455,316,0.0,36.0,13.0,-20.629880905151367,0.3662109076976776,-7.629394054412842,-0.8248291015625,0.447021484375,-0.245361328125
0.168,305,438,455,321,0.0,36.0,13.0,-16.6015625,0.6103515625,-6.286620616912842,-0.81884765625,0.41943359375,-0.2332763671875
0.169,308,411,454,298,0.0,36.0,13.0,-11.535643577575684,0.7934569716453552,-5.126952648162842,-0.7977294921875,0.41552734375,-0.2197265625
0.170,305,455,454,318,0.0,36.0,13.0,-7.690429210662842,0.8544921278953552,-4.5166015625,-0.7667236328125,0.427001953125,-0.20556640625
0.182,300,461,466,318,0.0,36.0,13.0,-6.347655773162842,0.8544921278953552,-4.638671875,-0.741943359375,0.4354248046875,-0.19580078125
0.195,306,445,470,318,0.0,36.0,13.0,-7.141112804412842,0.6713866591453552,-4.8828125,-0.732421875,0.4322509765625,-0.194580078125
0.203,305,548,470,318,0.0,36.0,13.0,-9.1552734375,0.30517578125,-4.57763671875,-0.73388671875,0.4169921875,-0.196044921875
0.213,306,531,470,319,0.0,36.0,13.0,-11.230467796325684,-0.1220703050494194,-3.601073980331421,-0.74072265625,0.395263671875,-0.191650390625
0.220,304,480,463,321,0.0,36.0,13.0,-11.657713890075684,-0.6103515625,-2.44140625,-0.7467041015625,0.37744140625,-0.183837890625
0.228,308,469,465,318,0.0,36.0,13.0,-10.131834983825684,-1.0986328125,-1.4648436307907104,-0.741943359375,0.3701171875,-0.1810302734375
0.242,306,468,473,316,0.0,36.0,14.0,-7.690429210662842,-1.6479490995407104,-0.9765624403953552,-0.7249755859375,0.373291015625,-0.1839599609375
0.266,306,465,479,318,0.0,36.0,14.0,-6.164550304412842,-2.25830078125,-1.220703125,-0.70458984375,0.380615234375,-0.186767578125
0.267,306,465,475,318,0.0,36.0,14.0,-6.225585460662842,-2.868652105331421,-2.624511480331421,-0.6934814453125,0.3798828125,-0.1829833984375
0.272,306,479,470,321,0.0,36.0,14.0,-7.385253429412842,-3.540038824081421,-4.8828125,-0.698974609375,0.3643798828125,-0.1722412109375
0.283,306,495,466,321,0.0,36.0,14.0,-7.873534679412842,-4.08935546875,-7.080077648162842,-0.715087890625,0.3433837890625,-0.1607666015625
0.288,302,487,466,318,0.0,36.0,14.0,-6.225585460662842,-4.45556640625,-8.48388671875,-0.732177734375,0.3314208984375,-0.1522216796875
0.303,304,521,464,318,0.0,36.0,14.0,-2.929687261581421,-5.0048828125,-8.9111328125,-0.7415771484375,0.331787109375,-0.1436767578125
0.315,306,498,464,318,0.0,36.0,14.0,0.0610351525247097,-5.981444835662842,-8.6669921875,-0.73876953125,0.335693359375,-0.13525390625
0.318,304,518,466,318,0.0,36.0,14.0,1.5869139432907104,-7.324218273162842,-8.36181640625,-0.726806640625,0.3387451171875,-0.13232421875
0.332,304,497,478,317,0.0,36.0,10.0,2.44140625,-8.4228515625,-8.30078125,-0.7109375,0.346923828125,-0.1387939453125
0.340,306,495,478,318,0.0,36.0,10.0,2.929687261581421,-9.33837890625,-8.4228515625,-0.6976318359375,0.3563232421875,-0.1517333984375
0.348,306,493,479,318,0.0,36.0,10.0,2.624511480331421,-10.253905296325684,-8.6669921875,-0.6920166015625,0.3546142578125,-0.1632080078125
0.376,304,508,479,316,0.0,36.0,10.0,1.8310545682907104,-11.047362327575684,-9.033203125,-0.6910400390625,0.3443603515625,-0.1632080078125
0.377,292,512,473,318,0.0,36.0,10.0,0.9765624403953552,-11.779784202575684,-9.58251953125,-0.6845703125,0.3321533203125,-0.151123046875
0.379,307,437,475,316,0.0,36.0,10.0,-0.1220703050494194,-12.451170921325684,-10.498045921325684,-0.67236328125,0.3192138671875,-0.1412353515625
0.392,306,430,467,321,0.0,36.0,10.0,-0.54931640625,-12.817381858825684,-12.207030296325684,-0.6636962890625,0.3074951171875,-0.1416015625
0.401,306,540,468,321,0.0,36.0,10.0,0.30517578125,-13.061522483825684,-14.221190452575684,-0.6624755859375,0.298828125,-0.1434326171875
0.408,304,473,470,318,0.0,36.0,10.0,2.0751953125,-13.610838890075684,-15.991209983825684,-0.6656494140625,0.3009033203125,-0.1392822265625
0.430,307,433,481,317,0.0,36.0,10.0,3.540038824081421,-14.526366233825684,-16.9677734375,-0.6722412109375,0.313232421875,-0.127685546875
0.431,306,406,495,321,0.0,36.0,11.0,3.906249761581421,-15.747069358825684,-17.39501953125,-0.6820068359375,0.30615234375,-0.1060791015625
0.438,306,424,497,321,0.0,36.0,11.0,3.906249761581421,-17.02880859375,-17.27294921875,-0.6895751953125,0.27197265625,-0.0970458984375
0.453,306,388,498,318,0.0,36.0,11.0,5.554198741912842,-17.51708984375,-16.357421875,-0.685546875,0.236083984375,-0.12255859375
0.476,306,404,512,318,0.0,36.0,11.0,8.1787109375,-17.27294921875,-14.099120140075684,-0.65966796875,0.2081298828125,-0.156982421875
0.477,307,416,525,324,0.0,36.0,11.0,9.58251953125,-17.15087890625,-10.864256858825684,-0.60498046875,0.1925048828125,-0.1751708984375
0.482,307,423,537,318,0.0,36.0,11.0,9.521484375,-17.4560546875,-7.751464366912842,-0.53076171875,0.17626953125,-0.182373046875
0.490,306,430,548,321,0.0,36.0,11.0,6.591796398162842,-17.51708984375,-6.286620616912842,-0.4627685546875,0.135498046875,-0.1829833984375
0.504,306,442,542,318,0.0,36.0,11.0,6.591796398162842,-17.51708984375,-6.286620616912842,-0.4161376953125,0.070556640625,-0.1251220703125
0.512,306,803,497,332,0.0,36.0,11.0,-11.840819358825684,-18.1884765625,-11.718749046325684,-0.4124755859375,-0.0081787109375,0.01416015625
0.520,310,1970,508,323,0.0,36.0,11.0,-15.258788108825684,-22.155759811401367,-14.892577171325684,-0.464599609375,0.0230712890625,0.1348876953125
0.528,310,3147,536,473,3.0,34.0,11.0,-15.258788108825684,-22.155759811401367,-14.892577171325684,-0.5247802734375,0.3028564453125,0.16455078125
0.542,315,3147,551,1441,3.0,34.0,11.0,23.132322311401367,-36.56005859375,6.347655773162842,-0.8055419921875,0.9739990234375,0.2322998046875
0.550,313,3147,561,1703,3.0,34.0,11.0,57.250972747802734,-47.058101654052734,32.89794921875,-0.9820556640625,1.5047607421875,0.3009033203125
0.572,314,3147,601,1983,3.0,34.0,11.0,57.250972747802734,-47.058101654052734,32.89794921875,-0.6484375,1.2254638671875,0.153076171875
0.573,314,3147,706,2295,3.0,34.0,11.0,-34.48486328125,-58.410640716552734,6.225585460662842,-0.2261962890625,0.6729736328125,-0.0518798828125
0.581,316,3147,749,2576,3.0,34.0,11.0,-112.36571502685547,-50.659175872802734,-38.57421875,-0.1669921875,0.6033935546875,-0.1658935546875
0.591,318,3147,746,2726,3.0,34.0,11.0,-112.36571502685547,-50.659175872802734,-38.57421875,-0.6923828125,0.8653564453125,-0.2142333984375
0.605,321,3147,746,3059,3.0,34.0,11.0,-133.1787109375,-19.775390625,-64.75830078125,-1.644287109375,0.88134765625,-0.3466796875
0.611,322,3147,763,3147,3.0,34.0,11.0,-122.68065643310547,2.25830078125,-55.908199310302734,-2.49853515625,0.5728759765625,-0.4906005859375
0.618,315,3147,841,3147,3.0,34.0,11.0,-122.68065643310547,2.25830078125,-55.908199310302734,-2.9400634765625,0.3057861328125,-0.468017578125
0.632,324,3147,766,3113,5.0,32.0,15.0,-65.24658203125,11.596678733825684,-6.103515148162842,-3.0125732421875,0.3497314453125,-0.4337158203125
0.640,317,3147,762,2981,5.0,32.0,15.0,-6.835937023162842,7.080077648162842,30.517576217651367,-2.510986328125,0.1705322265625,-0.5428466796875
0.653,316,3147,777,2898,5.0,32.0,15.0,-6.835937023162842,7.080077648162842,30.517576217651367,-1.5814208984375,-0.2327880859375,-0.500732421875
0.676,319,3147,816,2929,5.0,32.0,15.0,64.63623046875,-3.295898199081421,24.230955123901367,-1.0518798828125,0.2601318359375,-0.1868896484375
0.677,321,3147,738,2909,5.0,32.0,15.0,98.69384002685547,-8.4228515625,-4.08935546875,-1.2513427734375,1.5330810546875,-0.028076171875
0.679,315,3147,787,2785,5.0,32.0,15.0,98.69384002685547,-8.4228515625,-4.08935546875,-1.635009765625,2.1109619140625,-0.1478271484375
0.695,316,3147,788,2619,5.0,32.0,15.0,2.807616949081421,13.977049827575684,-28.686521530151367,-1.7462158203125,1.512939453125,-0.35791015625
0.710,318,3147,775,2410,5.0,32.0,15.0,-45.776363372802734,27.832029342651367,-26.184080123901367,-1.6668701171875,0.6219482421875,-0.429931640625
0.710,318,3147,767,2175,5.0,32.0,15.0,-45.776363372802734,27.832029342651367,-26.184080123901367,-1.6668701171875,0.6219482421875,-0.429931640625
0.722,316,3147,728,1435,3.0,33.0,12.0,-8.6669921875,18.73779296875,-8.7890625,-1.3916015625,0.1380615234375,-0.2242431640625
0.730,316,3147,706,917,3.0,33.0,12.0,-8.6669921875,18.73779296875,-8.7890625,-1.1331787109375,0.109130859375,-0.1566162109375
0.738,315,3147,660,332,3.0,33.0,12.0,15.563963890075684,4.21142578125,-2.197265625,-1.1331787109375,0.109130859375,-0.1566162109375
0.752,313,1613,632,316,3.0,33.0,12.0,54.199214935302734,-11.047362327575684,-14.038084983825684,-0.49365234375,-0.197021484375,-0.2708740234375
0.765,308,989,620,330,3.0,33.0,12.0,54.199214935302734,-11.047362327575684,-14.038084983825684,-0.2510986328125,-0.1787109375,-0.3934326171875
0.780,310,733,605,323,3.0,33.0,12.0,80.01708984375,-1.6479490995407104,-30.639646530151367,-0.2510986328125,-0.1787109375,-0.3934326171875
0.782,293,532,596,323,3.0,33.0,12.0,76.84326171875,10.070799827575684,-46.264644622802734,-0.4063720703125,0.278076171875,-0.0172119140625
0.794,308,508,620,321,3.0,33.0,12.0,76.84326171875,10.070799827575684,-46.264644622802734,-0.6649169921875,0.5716552734375,0.1561279296875
0.798,308,465,588,321,3.0,33.0,12.0,59.936519622802734,4.638671875,-40.222164154052734,-0.6649169921875,0.5716552734375,0.1561279296875
0.812,306,439,567,324,3.0,33.0,12.0,26.000974655151367,0.7934569716453552,-18.12744140625,-0.7855224609375,0.8935546875,0.1875
0.820,306,479,573,321,4.0,32.0,20.0,26.000974655151367,0.7934569716453552,-18.12744140625,-0.728515625,0.6650390625,0.144775390625
0.828,307,479,578,318,4.0,32.0,20.0,2.44140625,2.685546636581421,-10.192870140075684,-0.728515625,0.6650390625,0.144775390625
0.842,308,481,591,321,4.0,32.0,20.0,-21.850584030151367,2.197265625,-13.854979515075684,-0.6102294921875,0.13671875,0.012939453125
0.850,307,466,594,321,4.0,32.0,20.0,-21.850584030151367,2.197265625,-13.854979515075684,-0.609375,0.1439208984375,-0.0706787109375
0.858,308,457,607,321,4.0,32.0,20.0,-13.610838890075684,-1.2817381620407104,-17.7001953125,-0.609375,0.1439208984375,-0.0706787109375
0.880,307,495,607,319,4.0,32.0,20.0,-5.859374523162842,-8.1787109375,-15.258788108825684,-0.625732421875,0.067626953125,-0.158935546875
0.881,308,482,604,318,4.0,32.0,20.0,-5.859374523162842,-8.1787109375,-15.258788108825684,-0.628173828125,0.0279541015625,-0.19384765625
0.888,308,496,598,323,4.0,32.0,20.0,-1.4648436307907104,-7.202147960662842,-11.413573265075684,-0.628173828125,0.0279541015625,-0.19384765625
0.903,306,512,591,318,4.0,32.0,20.0,10.620116233825684,-2.929687261581421,-4.57763671875,-0.6441650390625,0.078125,-0.2515869140625
0.912,307,518,598,321,4.0,32.0,20.0,10.620116233825684,-2.929687261581421,-4.57763671875,-0.6473388671875,0.1446533203125,-0.25244140625
0.918,307,497,594,323,4.0,33.0,14.0,14.892577171325684,-2.685546636581421,-2.50244140625,-0.6473388671875,0.1446533203125,-0.25244140625
0.932,308,495,590,317,4.0,33.0,14.0,20.263669967651367,-3.173827886581421,-2.0751953125,-0.6441650390625,0.2706298828125,-0.2186279296875
0.940,306,481,588,321,4.0,33.0,14.0,25.390623092651367,-3.967284917831421,-2.563476324081421,-0.6441650390625,0.2706298828125,-0.2186279296875
0.948,308,487,591,321,4.0,33.0,14.0,28.625486373901367,-5.493163585662842,-2.44140625,-0.64453125,0.309326171875,-0.1754150390625
0.962,306,466,584,321,4.0,33.0,14.0,29.296873092651367,-7.568358898162842,-0.9765624403953552,-0.684326171875,0.3267822265625,-0.04931640625
0.983,306,470,577,316,4.0,33.0,14.0,27.832029342651367,-9.765625,1.6479490995407104,-0.684326171875,0.3267822265625,-0.04931640625
0.990,308,508,582,296,4.0,33.0,14.0,25.085447311401367,-11.474608421325684,5.0048828125,-0.712646484375,0.339111328125,-0.01123046875
0.992,308,521,571,323,4.0,33.0,14.0,21.179197311401367,-12.451170921325684,8.36181640625,-0.7464599609375,0.34765625,0.00146484375
1.022,308,495,561,318,4.0,33.0,14.0,15.441893577575684,-13.183592796325684,11.108397483825684,-0.7464599609375,0.34765625,0.00146484375
1.023,308,512,551,321,4.0,33.0,14.0,7.751464366912842,-14.160155296325684,13.916014671325684,-0.7447509765625,0.3436279296875,-0.0010986328125
1.024,308,617,568,321,5.0,30.0,13.0,-1.2817381620407104,-15.319823265075684,17.39501953125,-0.6468505859375,0.201416015625,-0.034423828125
1.030,310,689,548,324,5.0,30.0,13.0,-10.192870140075684,-15.930174827575684,20.568845748901367,-0.6468505859375,0.201416015625,-0.034423828125
1.038,306,1071,562,328,5.0,30.0,13.0,-14.282225608825684,-16.2353515625,21.362302780151367,-0.5487060546875,0.02734375,-0.01953125
1.052,310,2837,579,334,5.0,30.0,13.0,-7.080077648162842,-16.6015625,18.37158203125,-0.4315185546875,0.06005859375,0.18603515625
1.061,310,3147,600,578,5.0,30.0,13.0,14.648436546325684,-18.6767578125,13.549803733825684,-0.4315185546875,0.06005859375,0.18603515625
1.084,313,3147,601,992,5.0,30.0,13.0,41.625972747802734,-26.245115280151367,12.573241233825684,-0.567138671875,0.531982421875,0.3670654296875
1.085,315,3147,634,1466,5.0,30.0,13.0,50.170894622802734,-38.39111328125,14.953612327575684,-0.208984375,0.3897705078125,0.212646484375
1.090,318,3147,694,1636,5.0,30.0,13.0,20.446775436401367,-46.874996185302734,9.521484375,-0.208984375,0.3897705078125,0.212646484375
1.103,321,3147,793,1860,5.0,30.0,13.0,-23.559568405151367,-50.720211029052734,-7.324218273162842,0.21484375,0.0775146484375,0.1949462890625
1.113,344,3147,922,2490,5.0,30.0,13.0,-39.1845703125,-53.344722747802734,-29.602048873901367,-0.2716064453125,0.5654296875,0.0760498046875
1.127,328,3147,1003,2992,4.0,31.0,22.0,-34.7900390625,-48.278804779052734,-53.405757904052734,-0.2716064453125,0.5654296875,0.0760498046875
1.128,332,3147,1076,3147,4.0,31.0,22.0,-34.5458984375,-24.536130905151367,-73.54736328125,-1.1839599609375,0.843505859375,-0.3289794921875
1.142,337,3147,1148,3147,4.0,31.0,22.0,-43.945308685302734,9.27734375,-80.62743377685547,-2.10791015625,1.0452880859375,-0.6341552734375
1.150,334,3147,1186,3147,4.0,31.0,22.0,-68.78662109375,26.184080123901367,-69.88525390625,-2.7540283203125,1.092529296875,-0.699951171875
1.186,329,3147,1170,3147,4.0,31.0,22.0,-93.68895721435547,17.4560546875,-46.874996185302734,-3.207275390625,0.7847900390625,-0.5972900390625
1.216,328,3147,1010,3147,4.0,31.0,22.0,-94.05516815185547,-2.746581792831421,-22.216794967651367,-3.2969970703125,0.050048828125,-0.431884765625
1.217,329,3147,1043,3147,4.0,31.0,22.0,-58.532711029052734,-17.4560546875,-3.723144292831421,-2.56298828125,-0.6390380859375,-0.38134765625
1.217,328,3147,1067,3147,4.0,31.0,22.0,13.610838890075684,-20.996091842651367,4.69970703125,-1.462158203125,-0.3004150390625,-0.3250732421875
1.217,327,3147,1039,3147,4.0,31.0,22.0,82.39745330810547,-19.287109375,3.295898199081421,-1.1719970703125,1.103759765625,-0.115966796875
1.224,326,3147,1032,2984,8.0,31.0,16.0,71.71630859375,-13.732909202575684,-5.126952648162842,-1.5726318359375,1.6761474609375,-0.0125732421875
1.233,326,3147,996,2795,8.0,31.0,16.0,-9.70458984375,1.220703125,-16.17431640625,-1.8427734375,0.8428955078125,-0.063232421875
1.234,324,3147,882,2464,8.0,31.0,16.0,-61.584468841552734,18.5546875,-19.04296875,-1.84130859375,0.06201171875,-0.0970458984375
1.242,321,3147,840,2213,8.0,31.0,16.0,-50.109859466552734,25.695798873901367,-7.385253429412842,-1.6864013671875,0.0218505859375,-0.11669921875
1.248,316,3147,801,1955,8.0,31.0,16.0,-20.996091842651367,21.606443405151367,9.765625,-1.452880859375,0.28076171875,-0.1688232421875
1.262,317,3147,758,1184,8.0,31.0,16.0,-6.225585460662842,13.549803733825684,21.057126998901367,-1.2042236328125,0.41748046875,-0.2330322265625
1.270,316,3147,725,540,8.0,31.0,16.0,-3.234863042831421,6.652831554412842,25.268552780151367,-0.9835205078125,0.4439697265625,-0.2342529296875
1.290,316,2724,684,328,8.0,31.0,16.0,-3.356933355331421,1.2817381620407104,24.230955123901367,-0.754638671875,0.29052734375,-0.1689453125
1.292,313,947,636,319,8.0,31.0,16.0,0.4272460639476776,0.1220703050494194,15.686034202575684,-0.50390625,-0.020751953125,-0.2193603515625
1.300,310,707,632,324,8.0,31.0,16.0,17.27294921875,8.23974609375,0.6713866591453552,-0.3226318359375,-0.1734619140625,-0.330078125
1.308,311,632,625,324,9.0,31.0,15.0,35.33935546875,18.06640625,-13.427733421325684,-0.3095703125,-0.0499267578125,-0.21240234375
1.339,310,586,590,319,9.0,31.0,15.0,34.66796875,18.61572265625,-21.728513717651367,-0.474609375,0.172607421875,0.0562744140625
1.341,308,559,582,318,9.0,31.0,15.0,17.51708984375,12.023924827575684,-24.536130905151367,-0.664306640625,0.38671875,0.23291015625
1.342,310,479,588,319,9.0,31.0,15.0,-4.69970703125,5.676269054412842,-21.057126998901367,-0.76611328125,0.5550537109375,0.250732421875
1.352,308,481,586,317,9.0,31.0,15.0,-22.338865280151367,3.662109136581421,-10.742186546325684,-0.7772216796875,0.575927734375,0.1766357421875
1.360,306,465,589,323,9.0,31.0,15.0,-31.127927780151367,5.371093273162842,2.197265625,-0.712646484375,0.4000244140625,0.095458984375
1.368,308,462,596,321,9.0,31.0,15.0,-27.832029342651367,8.7890625,11.840819358825684,-0.64111328125,0.1885986328125,0.0260009765625
1.393,308,473,594,318,9.0,31.0,15.0,-11.901854515075684,11.779784202575684,15.869139671325684,-0.611083984375,0.1248779296875,-0.0352783203125
1.394,308,447,591,318,9.0,31.0,15.0,2.13623046875,11.230467796325684,15.075682640075684,-0.61328125,0.153076171875,-0.0823974609375
1.398,306,456,591,319,9.0,31.0,15.0,0.6713866591453552,8.23974609375,10.070799827575684,-0.646484375,0.16748046875,-0.1131591796875
1.412,306,493,590,321,7.0,29.0,12.0,-10.498045921325684,6.774901866912842,3.295898199081421,-0.69287109375,0.160400390625,-0.1173095703125
1.424,306,441,582,318,7.0,29.0,12.0,-20.568845748901367,7.568358898162842,-1.5258787870407104,-0.73193359375,0.1407470703125,-0.09912109375
1.428,306,432,588,321,7.0,29.0,12.0,-24.719236373901367,8.23974609375,-2.44140625,-0.757080078125,0.1209716796875,-0.076904296875
1.443,307,458,582,321,7.0,29.0,12.0,-21.728513717651367,6.958007335662842,0.54931640625,-0.7628173828125,0.1162109375,-0.0601806640625
1.450,306,428,588,321,7.0,29.0,12.0,-12.573241233825684,3.601073980331421,5.310058116912842,-0.748779296875,0.121826171875,-0.044677734375
1.458,308,490,582,318,7.0,29.0,12.0,0.1220703050494194,-0.30517578125,9.09423828125,-0.7216796875,0.138916015625,-0.0323486328125
1.472,308,462,590,319,7.0,29.0,12.0,13.183592796325684,-3.479003667831421,10.375975608825684,-0.6922607421875,0.185546875,-0.0245361328125
1.495,306,479,603,318,7.0,29.0,12.0,23.071287155151367,-5.798339366912842,9.46044921875,-0.6654052734375,0.2593994140625,-0.0186767578125
1.496,305,473,601,318,7.0,29.0,12.0,26.184080123901367,-7.385253429412842,7.446288585662842,-0.64111328125,0.334228515625,-0.0107421875
1.502,306,481,591,324,7.0,29.0,12.0,21.362302780151367,-8.6669921875,5.371093273162842,-0.62109375,0.3759765625,0.0069580078125
1.511,306,501,598,318,7.0,32.0,13.0,10.681151390075684,-9.8876953125,4.08935546875,-0.608154296875,0.3660888671875,0.0322265625
1.518,306,509,586,318,7.0,32.0,13.0,-0.9765624403953552,-11.291502952575684,4.21142578125,-0.602294921875,0.3143310546875,0.058349609375
1.539,306,500,591,319,7.0,32.0,13.0,-8.544921875,-13.122557640075684,6.469726085662842,-0.591796875,0.240234375,0.08203125
1.540,306,484,591,323,7.0,32.0,13.0,-10.498045921325684,-15.686034202575684,11.047362327575684,-0.5562744140625,0.1331787109375,0.1014404296875
1.554,306,487,575,319,7.0,32.0,13.0,-7.995604991912842,-18.9208984375,15.502928733825684,-0.488037109375,0.0032958984375,0.0980224609375
1.562,306,572,545,321,7.0,32.0,13.0,-2.13623046875,-21.484373092651367,17.7001953125,-0.385498046875,-0.09814453125,0.06201171875
1.570,307,632,562,327,7.0,32.0,13.0,8.9111328125,-22.521970748901367,17.02880859375,-0.272216796875,-0.1724853515625,0.0015869140625
1.578,308,1115,570,321,7.0,32.0,13.0,28.015134811401367,-22.399900436401367,13.671874046325684,-0.1925048828125,-0.1961669921875,-0.0548095703125
1.598,310,3147,588,331,7.0,32.0,13.0,53.527828216552734,-23.071287155151367,11.230467796325684,-0.166015625,-0.0543212890625,-0.048828125
1.601,313,3147,617,761,7.0,32.0,13.0,76.171875,-26.367185592651367,14.099120140075684,-0.4744873046875,0.501953125,0.0556640625
1.609,313,3147,627,1014,3.0,29.0,18.0,76.171875,-26.367185592651367,14.099120140075684,-0.9515380859375,1.0484619140625,0.2098388671875
1.631,316,3147,652,1575,3.0,29.0,18.0,81.84813690185547,-44.799800872802734,43.884273529052734,-0.8140869140625,0.716552734375,0.189697265625
1.633,318,3147,740,1640,3.0,29.0,18.0,33.0810546875,-53.405757904052734,40.161128997802734,-0.061767578125,0.03125,0.0870361328125
1.645,324,3147,919,1941,3.0,29.0,18.0,33.0810546875,-53.405757904052734,40.161128997802734,0.4200439453125,0.072265625,-0.0169677734375
1.652,327,3147,1120,2586,3.0,29.0,18.0,5.187987804412842,-55.969234466552734,-2.929687261581421,-0.02783203125,0.52392578125,-0.072021484375
1.667,330,3147,1175,2936,3.0,29.0,18.0,-23.254392623901367,-39.97802734375,-38.2080078125,-1.1129150390625,0.57080078125,0.0203857421875
1.669,330,3147,1272,3147,3.0,29.0,18.0,-23.254392623901367,-39.97802734375,-38.2080078125,-2.05712890625,0.4620361328125,0.14501953125
1.700,334,3147,1395,3147,3.0,29.0,18.0,-100.52489471435547,11.474608421325684,-85.63231658935547,-2.700439453125,0.834228515625,0.14501953125
1.701,337,3147,1416,3147,3.0,29.0,18.0,-79.77294921875,21.667478561401367,-57.067867279052734,-3.21630859375,1.068359375,-0.0804443359375
1.702,334,3147,1294,3147,3.0,29.0,18.0,-79.77294921875,21.667478561401367,-57.067867279052734,-3.4398193359375,0.5458984375,-0.3260498046875
1.712,328,3147,1123,3147,9.0,28.0,18.0,-13.793944358825684,13.916014671325684,8.23974609375,-2.8475341796875,-0.2811279296875,-0.538818359375
1.721,325,3147,1146,3147,9.0,28.0,18.0,29.785154342651367,4.45556640625,25.207517623901367,-1.6549072265625,-0.395263671875,-0.606201171875
1.732,316,3147,1169,3147,9.0,28.0,18.0,29.785154342651367,4.45556640625,25.207517623901367,-1.112548828125,0.9326171875,-0.3822021484375
1.742,324,3147,1081,3147,9.0,28.0,18.0,86.66991424560547,-6.652831554412842,12.695311546325684,-1.50927734375,2.10107421875,-0.16943359375
1.755,324,3147,1025,3147,9.0,28.0,18.0,7.324218273162842,1.7089842557907104,-16.4794921875,-2.009521484375,1.558837890625,-0.103271484375
1.758,323,3147,963,3112,9.0,28.0,18.0,7.324218273162842,1.7089842557907104,-16.4794921875,-2.09814453125,0.3729248046875,-0.071044921875
1.779,322,3147,906,2707,9.0,28.0,18.0,-64.39208984375,22.705076217651367,-42.480464935302734,-1.9066162109375,-0.1561279296875,-0.0528564453125
1.780,321,3147,860,2445,9.0,28.0,18.0,-10.314940452575684,18.9208984375,-26.855466842651367,-1.668212890625,0.023193359375,-0.0152587890625
1.801,321,3147,813,2220,9.0,28.0,18.0,-10.314940452575684,18.9208984375,-26.855466842651367,-1.4312744140625,0.356201171875,-0.0255126953125
1.802,316,3147,642,1452,8.0,28.0,15.0,37.29248046875,4.94384765625,5.371093273162842,-1.1903076171875,0.4383544921875,-0.0771484375
1.810,315,3147,614,913,8.0,28.0,15.0,27.160642623901367,2.0751953125,16.66259765625,-0.9371337890625,0.314697265625,-0.099365234375
1.819,313,3147,603,330,8.0,28.0,15.0,27.160642623901367,2.0751953125,16.66259765625,-0.6385498046875,0.0438232421875,-0.0986328125
1.834,310,1272,586,327,8.0,28.0,15.0,16.78466796875,9.27734375,18.24951171875,-0.36572265625,-0.3016357421875,-0.169921875
1.840,310,671,571,323,8.0,28.0,15.0,16.78466796875,9.27734375,18.24951171875,-0.22705078125,-0.3756103515625,-0.2850341796875
1.848,307,543,582,324,8.0,28.0,15.0,29.296873092651367,20.202634811401367,4.8828125,-0.22705078125,-0.3756103515625,-0.2850341796875
1.862,307,491,588,317,8.0,28.0,15.0,38.14697265625,31.555173873901367,-21.301267623901367,-0.473876953125,0.267333984375,0.0679931640625
1.870,306,498,568,321,8.0,28.0,15.0,38.14697265625,31.555173873901367,-21.301267623901367,-0.72900390625,0.529541015625,0.2772216796875
1.878,307,481,574,321,8.0,28.0,15.0,5.432128429412842,20.874021530151367,-27.648923873901367,-0.72900390625,0.529541015625,0.2772216796875
1.905,306,455,562,318,8.0,28.0,15.0,-50.415035247802734,11.108397483825684,-10.803221702575684,-0.8077392578125,0.5469970703125,0.136962890625
1.906,306,467,569,321,7.0,29.0,18.0,-50.415035247802734,11.108397483825684,-10.803221702575684,-0.6956787109375,0.3814697265625,0.0316162109375
1.908,306,431,574,316,7.0,29.0,18.0,-44.006343841552734,15.686034202575684,4.7607421875,-0.6956787109375,0.3814697265625,0.0316162109375
1.922,306,411,573,324,7.0,29.0,18.0,-4.82177734375,19.4091796875,17.63916015625,-0.509521484375,0.235107421875,-0.110107421875
1.940,305,437,578,316,7.0,29.0,18.0,-4.82177734375,19.4091796875,17.63916015625,-0.4659423828125,0.2440185546875,-0.172119140625
1.943,306,439,571,318,7.0,29.0,18.0,-1.5869139432907104,16.54052734375,14.160155296325684,-0.4659423828125,0.2440185546875,-0.172119140625
1.952,306,442,570,318,7.0,29.0,18.0,-35.400390625,12.695311546325684,-1.03759765625,-0.5609130859375,0.1163330078125,-0.150390625
1.968,306,470,566,318,7.0,29.0,18.0,-35.400390625,12.695311546325684,-1.03759765625,-0.6483154296875,0.0382080078125,-0.1134033203125
1.968,306,462,566,299,7.0,29.0,18.0,-44.738765716552734,13.610838890075684,-5.0048828125,-0.6483154296875,0.0382080078125,-0.1134033203125
1.982,305,426,567,321,7.0,29.0,18.0,-19.8974609375,13.000487327575684,2.685546636581421,-0.702880859375,0.0164794921875,-0.04248046875
2.007,306,432,562,317,7.0,29.0,18.0,-19.8974609375,13.000487327575684,2.685546636581421,-0.686767578125,0.0528564453125,-0.0235595703125
2.007,304,431,559,316,6.0,30.0,14.0,-0.0610351525247097,9.58251953125,9.09423828125,-0.686767578125,0.0528564453125,-0.0235595703125
2.012,306,464,561,323,6.0,30.0,14.0,29.235837936401367,0.8544921278953552,14.282225608825684,-0.6732177734375,0.2105712890625,-0.0306396484375
2.021,305,467,553,317,6.0,30.0,14.0,29.235837936401367,0.8544921278953552,14.282225608825684,-0.6619873046875,0.29443359375,-0.05126953125
2.028,306,461,546,317,6.0,30.0,14.0,33.447265625,-2.3193359375,13.061522483825684,-0.6619873046875,0.29443359375,-0.05126953125
2.046,306,475,553,319,6.0,30.0,14.0,26.672361373901367,-4.638671875,7.873534679412842,-0.6221923828125,0.3665771484375,-0.072509765625
2.050,306,479,549,318,6.0,30.0,14.0,26.672361373901367,-4.638671875,7.873534679412842,-0.6044921875,0.358642578125,-0.059814453125
2.058,300,497,553,318,6.0,30.0,14.0,18.1884765625,-4.82177734375,5.981444835662842,-0.6044921875,0.358642578125,-0.059814453125
2.074,306,548,564,318,6.0,30.0,14.0,6.103515148162842,-5.371093273162842,5.371093273162842,-0.5411376953125,0.203125,0.0274658203125
2.081,306,584,551,321,6.0,30.0,14.0,-6.530761241912842,-6.713866710662842,5.554198741912842,-0.5411376953125,0.203125,0.0274658203125
2.090,304,519,562,318,6.0,30.0,14.0,-13.488768577575684,-8.72802734375,6.164550304412842,-0.4949951171875,0.077392578125,0.067626953125
2.118,307,548,540,318,8.0,30.0,13.0,-10.253905296325684,-11.535643577575684,6.469726085662842,-0.3709716796875,-0.1546630859375,0.1390380859375
2.123,306,678,548,321,8.0,30.0,13.0,1.7700194120407104,-15.197752952575684,5.432128429412842,-0.3709716796875,-0.1546630859375,0.1390380859375
2.128,308,761,561,323,8.0,30.0,13.0,17.02880859375,-19.34814453125,3.662109136581421,-0.235595703125,-0.1390380859375,0.12548828125
2.132,310,2647,593,304,8.0,30.0,13.0,29.602048873901367,-22.644041061401367,1.2817381620407104,0.1048583984375,0.0494384765625,0.094970703125
2.147,311,3121,625,323,8.0,30.0,13.0,38.0859375,-25.085447311401367,-2.0751953125,0.1048583984375,0.0494384765625,0.094970703125
2.148,296,3147,631,462,8.0,30.0,13.0,47.546382904052734,-29.846189498901367,-2.746581792831421,-0.23779296875,0.6058349609375,0.314208984375
2.163,316,3147,757,723,8.0,30.0,13.0,56.091304779052734,-41.503902435302734,5.0048828125,-0.371826171875,0.438720703125,0.1202392578125
2.171,319,3147,927,966,8.0,30.0,13.0,34.423828125,-53.833003997802734,8.6669921875,-0.371826171875,0.438720703125,0.1202392578125
2.179,323,3147,1063,1393,8.0,30.0,13.0,-5.859374523162842,-62.194820404052734,-3.967284917831421,-0.062744140625,0.260498046875,0.05029296875
2.192,329,3147,1198,1733,8.0,32.0,15.0,-19.1650390625,-62.683101654052734,-27.282712936401367,-1.3604736328125,1.0325927734375,-0.2200927734375
2.211,329,3147,1282,1904,8.0,32.0,15.0,-31.799314498901367,-45.532222747802734,-56.274410247802734,-1.3604736328125,1.0325927734375,-0.2200927734375
2.211,331,3147,1357,1987,8.0,32.0,15.0,-72.20458984375,-16.05224609375,-80.74950408935547,-2.294189453125,0.730712890625,-0.320068359375
2.222,346,3147,1474,2221,8.0,32.0,15.0,-104.98046112060547,6.835937023162842,-81.84813690185547,-3.2530517578125,0.19384765625,-0.273681640625
2.230,337,3147,1488,2394,8.0,32.0,15.0,-104.49217987060547,10.498045921325684,-55.664058685302734,-3.2530517578125,0.19384765625,-0.273681640625
2.246,332,3147,1312,2254,8.0,32.0,15.0,-73.2421875,1.220703125,-20.812986373901367,-3.32080078125,-0.345458984375,-0.2374267578125
2.252,332,3147,1280,2258,8.0,32.0,15.0,-15.686034202575684,-9.70458984375,13.549803733825684,-1.650390625,-0.1715087890625,-0.2572021484375
2.260,338,3147,1317,2287,8.0,32.0,15.0,48.339839935302734,-15.747069358825684,41.625972747802734,-1.650390625,-0.1715087890625,-0.2572021484375
2.268,332,3147,1283,2258,8.0,32.0,15.0,92.34618377685547,-15.441893577575684,49.560543060302734,-1.0836181640625,1.074951171875,0.0697021484375
2.288,332,3147,1216,2139,8.0,32.0,15.0,77.880859375,-7.446288585662842,33.8134765625,-1.38427734375,1.8199462890625,0.276611328125
2.290,331,3147,1160,1966,8.0,31.0,18.0,4.5166015625,11.169432640075684,4.33349609375,-1.763916015625,1.1884765625,0.16748046875
2.313,328,3147,1093,1800,8.0,31.0,18.0,-46.386714935302734,30.761716842651367,-17.4560546875,-1.917724609375,0.38232421875,0.0052490234375
2.313,323,3147,975,1445,8.0,31.0,18.0,-35.5224609375,38.39111328125,-17.9443359375,-1.909423828125,0.1234130859375,-0.1368408203125
2.320,316,3147,890,1186,8.0,31.0,18.0,-5.432128429412842,35.58349609375,-6.347655773162842,-1.8525390625,0.21484375,-0.2015380859375
2.331,322,3147,859,917,8.0,31.0,18.0,9.82666015625,28.320310592651367,6.347655773162842,-1.733642578125,0.3740234375,-0.22509765625
2.349,318,3147,724,336,8.0,31.0,18.0,8.7890625,20.202634811401367,19.83642578125,-1.5543212890625,0.4326171875,-0.24609375
2.350,318,2568,660,327,8.0,31.0,18.0,5.859374523162842,14.526366233825684,34.7900390625,-1.3399658203125,0.3824462890625,-0.230712890625
2.358,315,1320,601,316,8.0,31.0,18.0,8.48388671875,12.634276390075684,46.203609466552734,-0.9859619140625,0.2032470703125,-0.20068359375
2.372,310,564,568,316,8.0,31.0,18.0,9.033203125,13.854979515075684,43.945308685302734,-0.5426025390625,-0.09033203125,-0.220947265625
2.380,312,400,582,326,8.0,31.0,18.0,11.230467796325684,18.98193359375,23.315427780151367,-0.296875,-0.193359375,-0.2171630859375
2.392,310,407,576,318,7.0,31.0,14.0,20.690916061401367,23.559568405151367,-5.249022960662842,-0.390625,0.1412353515625,0.0318603515625
2.403,309,399,567,317,7.0,31.0,14.0,14.587401390075684,15.991209983825684,-24.963376998901367,-0.6368408203125,0.649169921875,0.443359375
2.410,306,359,548,318,7.0,31.0,14.0,-18.5546875,2.3193359375,-29.846189498901367,-0.794189453125,0.84765625,0.5244140625
2.423,308,398,539,318,7.0,31.0,14.0,-52.429195404052734,2.197265625,-23.742673873901367,-0.79541015625,0.661376953125,0.2822265625
2.433,309,387,527,318,7.0,31.0,14.0,-63.964839935302734,13.671874046325684,-8.30078125,-0.74951171875,0.3231201171875,0.1138916015625
2.440,306,430,519,319,7.0,31.0,14.0,-48.950191497802734,21.179197311401367,12.634276390075684,-0.721923828125,0.0811767578125,0.0089111328125
2.459,306,391,519,321,7.0,31.0,14.0,-19.4091796875,20.874021530151367,30.944822311401367,-0.62451171875,0.0704345703125,-0.15087890625
2.462,306,430,512,319,7.0,31.0,14.0,1.15966796875,18.6767578125,38.87939453125,-0.458984375,0.119873046875,-0.31689453125
2.471,304,437,506,318,7.0,31.0,14.0,-0.30517578125,19.10400390625,32.1044921875,-0.3648681640625,0.031005859375,-0.3980712890625
2.478,307,497,523,317,7.0,31.0,14.0,-13.122557640075684,21.850584030151367,15.991209983825684,-0.41064453125,-0.112060546875,-0.35986328125
2.498,306,495,525,317,6.0,31.0,15.0,-17.15087890625,24.291990280151367,1.9531248807907104,-0.5345458984375,-0.1593017578125,-0.2486572265625
2.517,308,491,526,317,6.0,31.0,15.0,-5.920409679412842,25.024412155151367,-2.50244140625,-0.6578369140625,-0.0914306640625,-0.147705078125
2.520,306,464,527,317,6.0,31.0,15.0,10.986327171325684,24.353025436401367,1.7700194120407104,-0.7257080078125,0.0458984375,-0.09716796875
2.522,308,468,531,316,6.0,31.0,15.0,21.789548873901367,23.193357467651367,8.7890625,-0.73095703125,0.188720703125,-0.0740966796875
2.530,306,458,536,318,6.0,31.0,15.0,24.230955123901367,21.545408248901367,13.854979515075684,-0.6982421875,0.30322265625,-0.0535888671875
2.538,306,496,539,318,6.0,31.0,15.0,21.606443405151367,19.10400390625,15.563963890075684,-0.641357421875,0.3748779296875,-0.050537109375
2.557,306,499,540,321,6.0,31.0,15.0,15.319823265075684,16.05224609375,14.099120140075684,-0.5845947265625,0.3973388671875,-0.0660400390625
2.560,308,497,547,318,6.0,31.0,15.0,6.225585460662842,13.549803733825684,10.070799827575684,-0.561767578125,0.385009765625,-0.07373046875
2.569,307,499,549,317,6.0,31.0,15.0,-3.234863042831421,12.145995140075684,4.638671875,-0.575439453125,0.357666015625,-0.0633544921875
2.582,306,513,548,316,6.0,31.0,17.0,-10.070799827575684,11.352538108825684,-0.1831054538488388,-0.597900390625,0.32177734375,-0.03369140625
2.590,307,509,548,317,6.0,31.0,17.0,-13.000487327575684,10.314940452575684,-3.112792730331421,-0.6094970703125,0.2906494140625,0.005859375
2.622,306,518,548,321,6.0,31.0,17.0,-13.061522483825684,8.60595703125,-3.662109136581421,-0.6051025390625,0.28564453125,0.0467529296875
2.623,306,514,553,318,6.0,31.0,17.0,-14.160155296325684,6.225585460662842,-2.746581792831421,-0.5833740234375,0.290771484375,0.0845947265625
2.623,308,508,553,318,6.0,31.0,17.0,-18.9208984375,3.295898199081421,-1.4038084745407104,-0.5478515625,0.2738037109375,0.1015625
2.629,306,512,554,318,6.0,31.0,17.0,-25.024412155151367,0.2441406100988388,-0.0610351525247097,-0.4990234375,0.225830078125,0.0888671875
2.642,306,497,546,318,6.0,31.0,17.0,-28.991697311401367,-2.807616949081421,1.6479490995407104,-0.43212890625,0.1571044921875,0.063720703125
2.658,306,495,539,318,6.0,31.0,17.0,-29.479978561401367,-5.859374523162842,3.112792730331421,-0.3565673828125,0.090576171875,0.05517578125
2.660,306,472,536,318,6.0,31.0,17.0,-25.939939498901367,-8.85009765625,2.929687261581421,-0.292724609375,0.0538330078125,0.076904296875
2.672,307,519,526,316,6.0,31.0,17.0,-18.73779296875,-11.962889671325684,0.7324218153953552,-0.2144775390625,0.0579833984375,0.121826171875
2.680,306,536,531,318,6.0,29.0,14.0,-10.742186546325684,-15.258788108825684,-2.563476324081421,-0.0953369140625,0.076171875,0.1773681640625
2.688,304,518,514,321,6.0,29.0,14.0,-3.417968511581421,-19.04296875,-5.981444835662842,0.0189208984375,0.0751953125,0.2366943359375
2.702,306,416,533,316,6.0,29.0,14.0,3.845214605331421,-25.268552780151367,-8.9111328125,0.101806640625,-0.023681640625,0.3497314453125
2.728,308,617,562,322,6.0,29.0,14.0,12.390135765075684,-36.80419921875,-11.535643577575684,0.1510009765625,-0.1943359375,0.5115966796875
2.728,309,1444,601,323,6.0,29.0,14.0,28.198240280151367,-49.682613372802734,-15.441893577575684,0.1146240234375,-0.371337890625,0.5009765625
2.732,316,3147,721,846,6.0,29.0,14.0,48.950191497802734,-50.170894622802734,-19.8974609375,-0.097900390625,-0.249267578125,0.1058349609375
2.742,318,3147,735,1105,6.0,29.0,14.0,66.162109375,-30.578611373901367,-7.873534679412842,-0.933837890625,0.7183837890625,-0.247314453125
2.755,322,3147,869,1377,6.0,29.0,14.0,66.162109375,-30.578611373901367,-7.873534679412842,-1.434326171875,1.3182373046875,-0.2869873046875
2.763,328,3147,1127,2035,6.0,29.0,14.0,16.66259765625,-16.4794921875,48.828121185302734,-0.976806640625,0.61328125,-0.11962890625
2.770,331,3147,1211,2445,6.0,29.0,14.0,-43.212886810302734,-48.461910247802734,22.460935592651367,-0.9486083984375,0.04150390625,0.0233154296875
2.778,334,3147,1289,2697,7.0,29.0,14.0,-43.212886810302734,-48.461910247802734,22.460935592651367,-1.791015625,0.210205078125,-0.2349853515625
2.793,338,3147,1422,3095,7.0,29.0,14.0,0.3662109076976776,-49.072261810302734,-27.709959030151367,-2.598388671875,0.51904296875,-0.6312255859375
2.800,344,3147,1521,3147,7.0,29.0,14.0,7.202147960662842,-16.54052734375,-21.850584030151367,-2.8350830078125,0.9921875,-0.6612548828125
2.831,348,3147,1590,3147,7.0,29.0,14.0,7.202147960662842,-16.54052734375,-21.850584030151367,-2.8363037109375,1.3297119140625,-0.42626953125
2.832,347,3147,1527,3147,7.0,29.0,14.0,-18.49365234375,-1.0986328125,25.634763717651367,-2.8018798828125,0.9556884765625,-0.1614990234375
2.832,343,3147,1283,3147,7.0,29.0,14.0,-35.400390625,-8.72802734375,34.66796875,-2.5335693359375,0.175048828125,0.0494384765625
2.838,338,3147,1199,3056,7.0,29.0,14.0,-35.400390625,-8.72802734375,34.66796875,-1.7640380859375,-0.2451171875,0.0379638671875
2.858,334,3147,1222,2974,7.0,29.0,14.0,23.498533248901367,-4.39453125,21.850584030151367,-0.9896240234375,0.388671875,-0.058837890625
2.862,334,3147,1189,2874,7.0,29.0,14.0,63.415523529052734,6.164550304412842,4.0283203125,-1.0374755859375,1.5032958984375,-0.1212158203125
2.869,325,3147,1139,2727,7.0,29.0,14.0,63.415523529052734,6.164550304412842,4.0283203125,-1.6468505859375,1.6373291015625,-0.21435546875
2.882,330,3147,1055,2477,8.0,29.0,17.0,-25.268552780151367,23.498533248901367,-20.751951217651367,-2.043701171875,0.7216796875,-0.2679443359375
2.890,328,3147,1014,2384,8.0,29.0,17.0,-65.185546875,26.550291061401367,-21.057126998901367,-2.0623779296875,-0.0794677734375,-0.2027587890625
2.898,328,3147,974,2277,8.0,29.0,17.0,-65.185546875,26.550291061401367,-21.057126998901367,-1.89208984375,-0.2020263671875,-0.10107421875
2.932,324,3147,844,1914,8.0,29.0,17.0,-3.723144292831421,5.554198741912842,11.657713890075684,-1.65966796875,0.114013671875,-0.0281982421875
2.947,322,3147,772,1659,8.0,29.0,17.0,26.977537155151367,-5.249022960662842,31.127927780151367,-1.3896484375,0.3504638671875,0.005615234375
2.983,321,3147,683,1251,8.0,29.0,17.0,26.977537155151367,-5.249022960662842,31.127927780151367,-1.115234375,0.3370361328125,0.0294189453125
2.986,316,3147,678,551,8.0,29.0,17.0,42.419429779052734,-12.329100608825684,49.072261810302734,-0.799560546875,0.2904052734375,0.0396728515625
2.986,316,2939,619,329,8.0,29.0,17.0,50.720211029052734,-10.314940452575684,43.395992279052734,-0.458984375,0.2454833984375,-0.0416259765625
2.986,315,2295,642,328,8.0,29.0,17.0,50.720211029052734,-10.314940452575684,43.395992279052734,-0.458984375,0.2454833984375,-0.0416259765625
2.987,314,800,644,327,8.0,29.0,17.0,56.579586029052734,7.141112804412842,-2.990722417831421,-0.236083984375,0.30712890625,-0.395263671875
2.987,294,725,586,302,4.0,31.0,14.0,56.579586029052734,7.141112804412842,-2.990722417831421,-0.300537109375,0.4066162109375,-0.3477783203125
2.989,294,621,658,322,4.0,31.0,14.0,41.870113372802734,18.85986328125,-31.249998092651367,-0.300537109375,0.4066162109375,-0.3477783203125
3.002,309,594,644,318,4.0,31.0,14.0,-6.347655773162842,11.962889671325684,-52.856441497802734,-0.741943359375,0.627197265625,0.166259765625
3.011,308,526,601,321,4.0,31.0,14.0,-6.347655773162842,11.962889671325684,-52.856441497802734,-0.8502197265625,0.640380859375,0.2655029296875
3.035,308,501,559,318,4.0,31.0,14.0,-30.944822311401367,0.4882812201976776,-43.579097747802734,-0.8502197265625,0.640380859375,0.2655029296875
3.036,306,440,567,321,4.0,31.0,14.0,-63.110347747802734,-5.981444835662842,-12.329100608825684,-0.666748046875,0.0799560546875,-0.0118408203125
3.051,308,445,567,316,4.0,31.0,14.0,-63.110347747802734,-5.981444835662842,-12.329100608825684,-0.5377197265625,-0.1806640625,-0.08251953125
3.051,308,481,572,318,4.0,31.0,14.0,-48.828121185302734,0.6713866591453552,-1.5869139432907104,-0.5377197265625,-0.1806640625,-0.08251953125
3.072,308,473,576,316,4.0,31.0,14.0,8.4228515625,9.521484375,-0.3662109076976776,-0.4127197265625,-0.1192626953125,-0.041748046875
3.073,308,461,579,318,7.0,30.0,15.0,8.4228515625,9.521484375,-0.3662109076976776,-0.4453125,0.0594482421875,0.008056640625
3.078,307,532,578,318,7.0,30.0,15.0,22.949216842651367,7.690429210662842,-7.629394054412842,-0.4453125,0.0594482421875,0.008056640625
3.092,308,506,576,321,7.0,30.0,15.0,18.73779296875,3.906249761581421,-17.7001953125,-0.55908203125,0.3138427734375,0.0762939453125
3.124,308,493,576,318,7.0,30.0,15.0,18.73779296875,3.906249761581421,-17.7001953125,-0.5889892578125,0.337158203125,0.0948486328125
3.159,306,510,585,321,7.0,30.0,15.0,11.291502952575684,2.38037109375,-16.41845703125,-0.5889892578125,0.337158203125,0.0948486328125
3.160,308,536,584,318,7.0,30.0,15.0,1.7089842557907104,-3.723144292831421,-5.187987804412842,-0.5958251953125,0.2816162109375,0.119140625
3.160,308,605,580,321,7.0,30.0,15.0,1.7089842557907104,-3.723144292831421,-5.187987804412842,-0.5745849609375,0.2388916015625,0.1201171875
3.160,308,648,588,322,7.0,30.0,15.0,3.356933355331421,-7.263183116912842,0.4272460639476776,-0.5745849609375,0.2388916015625,0.1201171875
3.160,308,603,591,318,7.0,30.0,15.0,14.892577171325684,-12.573241233825684,3.967284917831421,-0.4951171875,0.1724853515625,0.0457763671875
3.172,308,731,600,322,7.0,30.0,15.0,14.892577171325684,-12.573241233825684,3.967284917831421,-0.4527587890625,0.140625,-0.0322265625
3.173,309,820,627,323,5.0,31.0,19.0,16.7236328125,-13.610838890075684,2.197265625,-0.4527587890625,0.140625,-0.0322265625
3.182,310,1428,658,323,5.0,31.0,19.0,16.845703125,-13.732909202575684,0.0610351525247097,-0.302490234375,0.0616455078125,-0.1123046875
3.190,310,2240,649,323,5.0,31.0,19.0,19.1650390625,-13.854979515075684,-0.3662109076976776,-0.302490234375,0.0616455078125,-0.1123046875
3.200,312,2833,660,332,5.0,31.0,19.0,24.780271530151367,-15.075682640075684,1.7089842557907104,-0.24658203125,0.15576171875,-0.0360107421875
3.212,318,3147,794,627,5.0,31.0,19.0,34.85107421875,-18.798828125,6.896972179412842,-0.604736328125,0.6995849609375,0.1922607421875
3.255,321,3147,962,897,5.0,31.0,19.0,42.907711029052734,-26.000974655151367,14.648436546325684,-0.604736328125,0.6995849609375,0.1922607421875
3.257,323,3147,1134,1120,5.0,31.0,19.0,29.541013717651367,-36.07177734375,16.845703125,-0.4786376953125,0.453369140625,0.1849365234375
3.258,331,3147,1343,1805,5.0,31.0,19.0,-0.7934569716453552,-47.973628997802734,8.056640625,-0.140625,0.0562744140625,0.43310546875
3.259,334,3147,1422,2186,5.0,31.0,19.0,-12.329100608825684,-57.556148529052734,-5.493163585662842,-0.140625,0.0562744140625,0.43310546875
3.259,338,3147,1497,2421,5.0,31.0,19.0,2.746581792831421,-57.312007904052734,-18.00537109375,-0.6209716796875,0.33056640625,0.288330078125
3.268,346,3147,1572,2708,7.0,29.0,17.0,12.817381858825684,-38.2080078125,-33.87451171875,-1.3037109375,0.4095458984375,-0.0921630859375
3.281,347,3147,1638,2985,7.0,29.0,17.0,-0.1220703050494194,-7.385253429412842,-50.659175872802734,-2.153076171875,0.522705078125,-0.392333984375
3.289,347,3147,1666,3120,7.0,29.0,17.0,-16.90673828125,12.695311546325684,-52.734371185302734,-2.153076171875,0.522705078125,-0.392333984375
3.297,348,3147,1683,3147,7.0,29.0,17.0,-17.76123046875,13.916014671325684,-34.3017578125,-2.4342041015625,0.7298583984375,-0.4022216796875
3.312,346,3147,1611,3147,7.0,29.0,17.0,-14.099120140075684,4.0283203125,-8.48388671875,-2.66748046875,0.534912109375,-0.353271484375
3.319,342,3147,1476,3147,7.0,29.0,17.0,-14.831542015075684,-6.225585460662842,11.535643577575684,-2.7174072265625,0.0511474609375,-0.23828125
3.339,336,3147,1395,2918,7.0,29.0,17.0,-1.4648436307907104,-9.521484375,25.268552780151367,-2.2396240234375,-0.208251953125,-0.2874755859375
3.342,318,3147,1472,2798,7.0,29.0,17.0,33.99658203125,-7.385253429412842,28.564451217651367,-1.3511962890625,0.229248046875,-0.388916015625
3.359,334,3147,1476,2684,7.0,29.0,17.0,67.44384765625,-8.7890625,16.11328125,-0.9835205078125,1.3245849609375,-0.224609375
3.360,334,3147,1478,2507,7.0,29.0,17.0,54.687496185302734,-12.634276390075684,-6.774901866912842,-1.3565673828125,1.8568115234375,0.0545654296875
3.372,332,3147,1415,2167,3.0,27.0,17.0,-10.375975608825684,-6.591796398162842,-30.700681686401367,-1.7823486328125,1.146240234375,0.2021484375
3.379,330,3147,1390,2000,3.0,27.0,17.0,-62.499996185302734,9.8876953125,-42.663570404052734,-1.9117431640625,0.111083984375,0.1871337890625
3.387,328,3147,1317,1794,3.0,27.0,17.0,-55.175777435302734,23.376462936401367,-33.63037109375,-1.84619140625,-0.2998046875,0.0906982421875
3.401,327,3147,1189,1331,3.0,27.0,17.0,-15.502928733825684,24.597166061401367,-10.437010765075684,-1.685302734375,-0.0816650390625,0.0018310546875
3.409,324,3147,1081,988,3.0,27.0,17.0,14.648436546325684,15.502928733825684,12.878417015075684,-1.476806640625,0.2252197265625,-0.0831298828125
3.417,323,3147,972,668,3.0,27.0,17.0,24.780271530151367,5.615233898162842,28.564451217651367,-1.2625732421875,0.346923828125,-0.1461181640625
3.440,318,2643,780,342,3.0,27.0,17.0,26.428220748901367,2.13623046875,35.82763671875,-1.0225830078125,0.3592529296875,-0.1732177734375
3.441,316,2076,720,323,3.0,27.0,17.0,24.719236373901367,4.08935546875,33.87451171875,-0.74609375,0.285400390625,-0.174560546875
3.448,315,1266,697,330,3.0,27.0,17.0,18.4326171875,8.056640625,20.629880905151367,-0.485107421875,0.1439208984375,-0.18701171875
3.462,308,538,644,321,3.0,27.0,17.0,13.000487327575684,14.465331077575684,-0.1220703050494194,-0.2984619140625,0.0328369140625,-0.2032470703125
3.476,313,465,618,321,5.0,29.0,16.0,8.9111328125,20.507810592651367,-19.1650390625,-0.2587890625,0.051513671875,-0.110107421875
3.478,307,532,601,299,5.0,29.0,16.0,0.30517578125,20.141599655151367,-29.968259811401367,-0.390380859375,0.194091796875,0.038818359375
3.492,308,500,630,318,5.0,29.0,16.0,-13.549803733825684,15.258788108825684,-31.799314498901367,-0.613037109375,0.382568359375,0.1220703125
3.500,308,441,687,317,5.0,29.0,16.0,-29.541013717651367,10.620116233825684,-25.573728561401367,-0.7662353515625,0.4720458984375,0.13427734375
3.508,308,454,593,316,5.0,29.0,16.0,-39.61181640625,8.056640625,-15.014647483825684,-0.79541015625,0.3944091796875,0.1070556640625
3.523,308,461,578,317,5.0,29.0,16.0,-36.07177734375,7.568358898162842,-5.371093273162842,-0.74755859375,0.2449951171875,0.0933837890625
3.543,306,419,578,318,5.0,29.0,16.0,-20.202634811401367,8.056640625,-0.4272460639476776,-0.6715087890625,0.1451416015625,0.0745849609375
3.544,306,433,573,316,5.0,29.0,16.0,-1.2817381620407104,8.36181640625,-1.2817381620407104,-0.6103515625,0.13427734375,0.0631103515625
3.551,307,391,584,316,5.0,29.0,16.0,8.7890625,6.591796398162842,-5.187987804412842,-0.5716552734375,0.1685791015625,0.076171875
3.563,306,433,588,317,5.0,29.0,16.0,7.324218273162842,3.417968511581421,-8.6669921875,-0.552490234375,0.2371826171875,0.066650390625
3.575,304,431,590,317,3.0,29.0,18.0,-0.30517578125,0.7324218153953552,-10.681151390075684,-0.572509765625,0.2784423828125,0.0496826171875
3.588,306,473,575,321,3.0,29.0,18.0,-9.27734375,-0.8544921278953552,-11.718749046325684,-0.65185546875,0.2249755859375,0.0576171875
3.590,308,483,574,296,3.0,29.0,18.0,-12.207030296325684,-1.5869139432907104,-11.352538108825684,-0.728515625,0.166748046875,0.06689453125
3.597,306,497,571,321,3.0,29.0,18.0,-7.263183116912842,-3.112792730331421,-8.85009765625,-0.736572265625,0.19140625,0.0506591796875
3.611,306,493,571,316,3.0,29.0,18.0,-2.868652105331421,-5.493163585662842,-5.737304210662842,-0.68798828125,0.2523193359375,0.0263671875
3.619,306,525,575,321,3.0,29.0,18.0,-3.540038824081421,-7.629394054412842,-4.33349609375,-0.6348876953125,0.2923583984375,0.0167236328125
3.644,306,513,570,316,3.0,29.0,18.0,-7.385253429412842,-9.46044921875,-5.065917491912842,-0.605224609375,0.3067626953125,0.013916015625
3.645,307,526,570,319,3.0,29.0,18.0,-12.023924827575684,-12.145995140075684,-6.958007335662842,-0.5875244140625,0.2823486328125,0.013671875
3.649,307,549,567,321,3.0,29.0,18.0,-16.4794921875,-16.11328125,-8.72802734375,-0.572509765625,0.1973876953125,0.0225830078125
3.657,306,540,559,318,3.0,29.0,18.0,-17.2119140625,-20.01953125,-9.46044921875,-0.5615234375,0.0797119140625,0.0350341796875
3.679,306,533,562,315,7.0,29.0,13.0,-9.46044921875,-21.911619186401367,-8.056640625,-0.5269775390625,-0.028076171875,0.0413818359375
3.684,291,495,561,318,7.0,29.0,13.0,6.286620616912842,-20.935056686401367,-4.33349609375,-0.429443359375,-0.11669921875,0.0203857421875
3.697,308,648,561,318,7.0,29.0,13.0,26.855466842651367,-17.27294921875,0.4882812201976776,-0.242431640625,-0.210693359375,-0.0367431640625
3.703,314,1074,592,316,7.0,29.0,13.0,49.499507904052734,-13.305663108825684,4.5166015625,-0.0386962890625,-0.279541015625,-0.097412109375
3.709,311,2430,625,330,7.0,29.0,13.0,70.25146484375,-13.488768577575684,5.187987804412842,0.0294189453125,-0.2044677734375,-0.0589599609375
3.717,313,3147,620,639,7.0,29.0,13.0,84.04540252685547,-19.47021484375,5.126952648162842,-0.1922607421875,0.0860595703125,0.1192626953125
3.747,316,3147,673,1268,7.0,29.0,13.0,103.57665252685547,-27.648923873901367,13.122557640075684,-0.6705322265625,0.7620849609375,0.3389892578125
3.748,299,3147,721,1437,7.0,29.0,13.0,118.04198455810547,-41.137691497802734,24.780271530151367,-0.7667236328125,1.180419921875,0.3690185546875
3.748,321,3147,772,1615,7.0,29.0,13.0,72.6318359375,-61.279293060302734,16.357421875,-0.4356689453125,0.7452392578125,0.3299560546875
3.765,328,3147,1134,2230,6.0,25.0,15.0,-18.49365234375,-78.369140625,-12.817381858825684,-0.32421875,0.3175048828125,0.4903564453125
3.784,338,3147,1434,2578,6.0,25.0,15.0,-81.72606658935547,-82.21434783935547,-40.527339935302734,-0.6763916015625,0.4306640625,0.4874267578125
3.785,348,3147,1540,2859,6.0,25.0,15.0,-81.72606658935547,-82.21434783935547,-40.527339935302734,-1.2879638671875,0.2435302734375,-0.037353515625
3.792,351,3147,1596,3147,6.0,25.0,15.0,-130.18798828125,-20.507810592651367,-66.40625,-1.7916259765625,-0.4588623046875,-0.553955078125
3.799,354,3147,1704,3147,6.0,25.0,15.0,-106.62841033935547,26.306150436401367,-53.955074310302734,-2.1162109375,-0.57177734375,-0.624267578125
3.807,356,3147,1806,3147,6.0,25.0,15.0,-106.62841033935547,26.306150436401367,-53.955074310302734,-2.349365234375,0.23486328125,-0.4002685546875
3.821,359,3147,1838,3147,6.0,25.0,15.0,-6.164550304412842,16.845703125,12.878417015075684,-2.587646484375,0.8895263671875,-0.0533447265625
3.830,354,3147,1664,3147,6.0,25.0,15.0,-10.986327171325684,-17.39501953125,32.8369140625,-2.762939453125,0.5968017578125,0.1712646484375
3.849,357,3147,1429,3147,6.0,25.0,15.0,-10.986327171325684,-17.39501953125,32.8369140625,-2.4393310546875,-0.0535888671875,0.074951171875
3.851,354,3147,1501,3147,6.0,25.0,15.0,20.507810592651367,-15.136717796325684,38.02490234375,-1.5474853515625,-0.0357666015625,-0.1806640625
3.859,356,3147,1540,3147,6.0,25.0,18.0,72.265625,1.8920897245407104,31.311033248901367,-0.9873046875,0.9307861328125,-0.1732177734375
3.868,359,3147,1574,3147,6.0,25.0,18.0,72.265625,1.8920897245407104,31.311033248901367,-1.2137451171875,1.5906982421875,0.0537109375
3.890,359,3147,1569,3147,6.0,25.0,18.0,14.831542015075684,6.713866710662842,-3.906249761581421,-1.630859375,1.0474853515625,0.19091796875
3.890,336,3147,1534,3147,6.0,25.0,18.0,-43.457027435302734,10.803221702575684,-22.827146530151367,-1.8106689453125,0.21484375,0.1680908203125
3.898,354,3147,1529,3110,6.0,25.0,18.0,-43.457027435302734,10.803221702575684,-22.827146530151367,-1.8143310546875,-0.0980224609375,0.0809326171875
3.911,351,3147,1456,2593,6.0,25.0,18.0,-14.770506858825684,18.310546875,-16.7236328125,-1.7154541015625,0.0574951171875,0.03955078125
3.919,348,3147,1317,2341,6.0,25.0,18.0,7.751464366912842,13.488768577575684,-3.051757574081421,-1.524658203125,0.3074951171875,0.0205078125
3.927,342,3147,1148,2113,6.0,25.0,18.0,7.751464366912842,13.488768577575684,-3.051757574081421,-1.2877197265625,0.360107421875,-0.0130615234375
3.955,327,3147,871,1550,6.0,25.0,18.0,6.530761241912842,6.530761241912842,17.02880859375,-1.0550537109375,0.2752685546875,-0.0423583984375
3.955,327,3147,748,1248,6.0,25.0,18.0,6.530761241912842,9.70458984375,23.803709030151367,-0.8443603515625,0.175048828125,-0.0302734375
3.958,324,3147,694,648,7.0,29.0,26.0,6.530761241912842,9.70458984375,23.803709030151367,-0.64599609375,-0.0074462890625,0.015625
3.971,317,2428,630,334,7.0,29.0,26.0,28.320310592651367,16.845703125,12.939452171325684,-0.4752197265625,-0.251953125,-0.0562744140625
3.992,317,1656,625,333,7.0,29.0,26.0,28.320310592651367,16.845703125,12.939452171325684,-0.3984375,-0.3072509765625,-0.1910400390625
3.993,316,904,594,324,7.0,29.0,26.0,51.208492279052734,25.634763717651367,-2.50244140625,-0.3984375,-0.3072509765625,-0.1910400390625
4.001,313,587,575,321,7.0,29.0,26.0,82.76366424560547,34.1796875,-11.962889671325684,-0.5716552734375,0.2015380859375,0.0462646484375
4.010,310,499,567,321,7.0,29.0,26.0,82.76366424560547,34.1796875,-11.962889671325684,-0.71484375,0.379638671875,0.11328125
4.017,310,487,566,323,7.0,29.0,26.0,71.96044921875,29.907224655151367,-9.3994140625,-0.71484375,0.379638671875,0.11328125
4.034,308,481,574,323,7.0,29.0,26.0,24.536130905151367,24.841306686401367,-1.6479490995407104,-0.8525390625,0.4979248046875,0.039306640625
4.054,308,571,567,323,7.0,29.0,26.0,24.536130905151367,24.841306686401367,-1.6479490995407104,-0.7823486328125,0.404541015625,0.0167236328125
4.056,291,574,571,323,7.0,29.0,26.0,0.2441406100988388,19.6533203125,2.624511480331421,-0.7823486328125,0.404541015625,0.0167236328125
4.066,306,533,568,321,5.0,28.0,21.0,-13.305663108825684,12.084959983825684,0.2441406100988388,-0.6376953125,0.130126953125,0.0247802734375
4.077,308,532,563,321,5.0,28.0,21.0,-13.305663108825684,12.084959983825684,0.2441406100988388,-0.56982421875,-0.002685546875,0.041259765625
4.104,310,519,559,300,5.0,28.0,21.0,-7.385253429412842,8.85009765625,-4.69970703125,-0.56982421875,-0.002685546875,0.041259765625
4.108,308,533,561,316,5.0,28.0,21.0,17.51708984375,9.33837890625,-12.573241233825684,-0.5548095703125,0.133544921875,0.026123046875
4.115,308,546,579,318,5.0,28.0,21.0,17.51708984375,9.33837890625,-12.573241233825684,-0.56640625,0.268310546875,0.012939453125
4.121,308,585,588,318,5.0,28.0,21.0,22.338865280151367,10.375975608825684,-10.925292015075684,-0.56640625,0.268310546875,0.012939453125
4.125,308,628,601,321,5.0,28.0,21.0,10.192870140075684,7.019042491912842,1.4038084745407104,-0.5875244140625,0.342529296875,-0.027587890625
4.137,310,607,586,323,5.0,28.0,21.0,10.192870140075684,7.019042491912842,1.4038084745407104,-0.5657958984375,0.294921875,-0.0452880859375
4.158,309,592,586,318,5.0,28.0,21.0,1.2817381620407104,3.784179449081421,6.958007335662842,-0.5657958984375,0.294921875,-0.0452880859375
4.165,308,518,600,321,6.0,25.0,18.0,-3.417968511581421,-2.868652105331421,8.7890625,-0.4185791015625,0.09521484375,-0.0428466796875
4.170,312,559,607,318,6.0,25.0,18.0,-3.417968511581421,-2.868652105331421,8.7890625,-0.3438720703125,0.0482177734375,-0.04638671875
4.179,315,620,620,321,6.0,25.0,18.0,6.652831554412842,-5.676269054412842,6.652831554412842,-0.3438720703125,0.0482177734375,-0.04638671875
4.218,315,832,816,325,6.0,25.0,18.0,27.893064498901367,-10.314940452575684,4.5166015625,-0.2650146484375,0.0985107421875,0.0035400390625
4.220,315,1390,816,312,6.0,25.0,18.0,27.893064498901367,-10.314940452575684,4.5166015625,-0.25732421875,0.1522216796875,0.0908203125
4.223,321,2158,710,342,6.0,25.0,18.0,26.733396530151367,-12.451170921325684,2.807616949081421,-0.25732421875,0.1522216796875,0.0908203125
4.223,322,2638,799,334,6.0,25.0,18.0,9.521484375,-18.73779296875,-0.0610351525247097,-0.680908203125,0.71630859375,0.3330078125
4.224,328,2963,1026,354,6.0,25.0,18.0,9.521484375,-18.73779296875,-0.0610351525247097,-0.7127685546875,0.7080078125,0.3143310546875
4.228,332,3102,1183,359,6.0,25.0,18.0,-1.4648436307907104,-27.648923873901367,0.7324218153953552,-0.7127685546875,0.7080078125,0.3143310546875
4.259,347,3147,1523,523,6.0,25.0,18.0,-68.84765625,-50.231929779052734,-7.873534679412842,-0.238037109375,0.0338134765625,0.4322509765625
4.261,360,3147,1772,733,8.0,28.0,17.0,-68.84765625,-50.231929779052734,-7.873534679412842,-0.28271484375,0.0880126953125,0.3358154296875
4.265,364,3147,1934,860,8.0,28.0,17.0,-75.13427734375,-54.382320404052734,-16.9677734375,-0.28271484375,0.0880126953125,0.3358154296875
4.273,371,3147,2110,1043,8.0,28.0,17.0,-79.345703125,-18.06640625,-58.715816497802734,-0.9840087890625,0.156982421875,-0.147705078125
4.280,375,3147,2161,1183,8.0,28.0,17.0,-79.345703125,-18.06640625,-58.715816497802734,-1.5799560546875,-0.1728515625,-0.3214111328125
4.295,377,3147,2266,1478,8.0,28.0,17.0,-93.13964080810547,11.779784202575684,-77.392578125,-1.5799560546875,-0.1728515625,-0.3214111328125
4.309,382,3147,2445,1678,8.0,28.0,17.0,-57.128902435302734,27.221677780151367,-39.24560546875,-2.6395263671875,0.568359375,-0.3133544921875
4.310,365,3147,2532,1868,8.0,28.0,17.0,-57.128902435302734,27.221677780151367,-39.24560546875,-2.9349365234375,0.4073486328125,-0.2001953125
4.318,383,3147,2448,1848,8.0,28.0,17.0,-45.349117279052734,8.85009765625,-5.737304210662842,-2.9349365234375,0.4073486328125,-0.2001953125
4.332,376,3147,2203,1681,8.0,28.0,17.0,-43.762203216552734,-3.967284917831421,14.648436546325684,-2.234619140625,-0.2835693359375,-0.1455078125
4.340,375,3147,2292,1678,8.0,28.0,17.0,-19.8974609375,-2.929687261581421,29.052732467651367,-2.234619140625,-0.2835693359375,-0.1455078125
4.371,375,3147,2347,1598,8.0,27.0,25.0,32.77587890625,5.126952648162842,39.36767578125,-1.385009765625,0.420654296875,-0.203125
4.372,377,3147,2316,1380,8.0,27.0,25.0,71.8994140625,7.629394054412842,35.82763671875,-1.701416015625,1.343505859375,0.1962890625
4.373,376,3147,2287,1172,8.0,27.0,25.0,41.809078216552734,6.713866710662842,12.878417015075684,-1.701416015625,1.343505859375,0.1962890625
4.379,376,3147,2213,966,8.0,27.0,25.0,-25.024412155151367,13.854979515075684,-16.357421875,-1.9556884765625,0.50048828125,0.1728515625
4.401,376,3147,2100,731,8.0,27.0,25.0,-49.011226654052734,25.207517623901367,-28.503416061401367,-1.7802734375,-0.1114501953125,-0.0391845703125
4.402,371,3147,2035,542,8.0,27.0,25.0,-25.146482467651367,29.724119186401367,-19.04296875,-1.7802734375,-0.1114501953125,-0.0391845703125
4.416,371,3147,1954,415,8.0,27.0,25.0,5.981444835662842,24.841306686401367,-2.25830078125,-1.59912109375,0.1170654296875,-0.0889892578125
4.423,363,2721,1791,393,8.0,27.0,25.0,20.568845748901367,15.686034202575684,10.986327171325684,-1.152587890625,0.27197265625,-0.127197265625
4.430,359,2281,1648,388,8.0,27.0,25.0,20.751951217651367,8.9111328125,20.141599655151367,-1.152587890625,0.27197265625,-0.127197265625
4.439,351,1826,1374,378,8.0,27.0,25.0,19.34814453125,6.958007335662842,26.733396530151367,-0.830810546875,0.1585693359375,-0.076904296875
4.464,338,1010,1143,359,9.0,28.0,22.0,21.362302780151367,7.507323741912842,28.137205123901367,-0.2259521484375,-0.14599609375,-0.2176513671875
4.465,327,694,1000,344,9.0,28.0,22.0,28.015134811401367,12.695311546325684,17.88330078125,-0.2259521484375,-0.14599609375,-0.2176513671875
4.469,323,607,922,334,9.0,28.0,22.0,35.82763671875,25.634763717651367,-1.2817381620407104,-0.1656494140625,-0.067138671875,-0.3167724609375
4.483,315,551,826,323,9.0,28.0,22.0,33.0810546875,35.888671875,-16.29638671875,-0.495849609375,0.4132080078125,0.089111328125
4.502,315,485,710,324,9.0,28.0,22.0,15.991209983825684,32.8369140625,-21.423337936401367,-0.495849609375,0.4132080078125,0.089111328125
4.503,312,518,669,319,9.0,28.0,22.0,-9.09423828125,21.606443405151367,-19.34814453125,-0.720947265625,0.58056640625,0.2791748046875
4.512,310,588,691,319,9.0,28.0,22.0,-34.97314453125,12.023924827575684,-11.962889671325684,-0.7266845703125,0.446533203125,0.22412109375
4.521,309,578,666,315,9.0,28.0,22.0,-53.466793060302734,9.1552734375,-2.990722417831421,-0.7266845703125,0.446533203125,0.22412109375
4.529,307,466,683,318,9.0,28.0,22.0,-59.448238372802734,11.962889671325684,4.0283203125,-0.628662109375,0.233154296875,0.0936279296875
4.542,310,431,648,321,7.0,28.0,20.0,-53.833003997802734,13.916014671325684,8.544921875,-0.555419921875,0.0633544921875,0.0059814453125
4.567,311,481,659,319,7.0,28.0,20.0,-41.870113372802734,10.864256858825684,9.765625,-0.5390625,-0.056396484375,-0.0189208984375
4.567,310,479,673,319,7.0,28.0,20.0,-27.160642623901367,5.187987804412842,7.629394054412842,-0.5928955078125,-0.098876953125,-0.0177001953125
4.573,310,482,700,318,7.0,28.0,20.0,-11.108397483825684,1.8920897245407104,3.845214605331421,-0.6915283203125,-0.040283203125,-0.0328369140625
4.580,313,497,684,318,7.0,28.0,20.0,1.7700194120407104,2.0751953125,0.4882812201976776,-0.7762451171875,0.07275390625,-0.0382080078125
4.595,308,498,661,318,7.0,28.0,20.0,5.798339366912842,3.295898199081421,-0.7324218153953552,-0.8077392578125,0.1729736328125,-0.010498046875
4.611,308,513,650,319,7.0,28.0,20.0,0.4882812201976776,3.112792730331421,-0.0610351525247097,-0.794921875,0.2178955078125,0.027587890625
4.612,308,523,646,318,7.0,28.0,20.0,-8.7890625,0.9765624403953552,0.9155272841453552,-0.7598876953125,0.203125,0.045166015625
4.618,310,490,644,318,7.0,28.0,20.0,-14.404295921325684,-2.624511480331421,1.4038084745407104,-0.715087890625,0.1572265625,0.036865234375
4.633,309,517,634,321,7.0,28.0,20.0,-12.634276390075684,-6.408690929412842,1.220703125,-0.6668701171875,0.1234130859375,0.0147705078125
4.640,310,586,660,318,7.0,27.0,19.0,-5.981444835662842,-9.27734375,0.4882812201976776,-0.6285400390625,0.1290283203125,-0.01220703125
4.648,310,573,648,321,7.0,27.0,19.0,-0.0610351525247097,-10.986327171325684,-0.30517578125,-0.6043701171875,0.1536865234375,-0.0341796875
4.669,306,526,654,321,7.0,27.0,19.0,1.3427733182907104,-12.329100608825684,-0.8544921278953552,-0.586669921875,0.1453857421875,-0.04833984375
4.670,314,592,678,321,7.0,27.0,19.0,-0.9765624403953552,-13.305663108825684,-0.7934569716453552,-0.5758056640625,0.0849609375,-0.06494140625
4.678,315,677,808,326,7.0,27.0,19.0,-1.5869139432907104,-13.732909202575684,0.0610351525247097,-0.5650634765625,0.003662109375,-0.0960693359375
4.692,319,780,987,327,7.0,27.0,19.0,3.051757574081421,-14.038084983825684,1.5869139432907104,-0.507568359375,-0.0928955078125,-0.12646484375
4.705,324,1794,955,342,7.0,27.0,19.0,11.718749046325684,-15.808104515075684,2.624511480331421,-0.3985595703125,-0.1875,-0.1102294921875
4.712,326,2460,871,344,7.0,27.0,19.0,23.376462936401367,-19.53125,2.563476324081421,-0.369384765625,-0.1087646484375,-0.0335693359375
4.722,323,3147,913,531,7.0,27.0,19.0,38.87939453125,-24.414060592651367,6.530761241912842,-0.5767822265625,0.2998046875,0.14794921875
4.734,327,3147,1065,778,7.0,27.0,19.0,52.124019622802734,-32.28759765625,18.49365234375,-0.83203125,0.693115234375,0.3525390625
4.739,332,3147,1198,992,6.0,26.0,26.0,43.701168060302734,-41.870113372802734,28.320310592651367,-0.720703125,0.574951171875,0.394287109375
4.752,348,3147,1616,1262,6.0,26.0,26.0,14.526366233825684,-49.255367279052734,25.451658248901367,-0.3236083984375,0.2034912109375,0.3653564453125
4.771,359,3147,1867,1560,6.0,26.0,26.0,-6.774901866912842,-56.640621185302734,12.756346702575684,-0.096923828125,0.0677490234375,0.3031005859375
4.772,364,3147,2032,1973,6.0,26.0,26.0,-11.962889671325684,-59.448238372802734,-4.39453125,-0.1800537109375,0.2596435546875,0.12744140625
4.782,371,3147,2191,2486,6.0,26.0,26.0,-20.568845748901367,-47.668453216552734,-22.827146530151367,-0.534912109375,0.4703369140625,-0.1048583984375
4.790,373,3147,2247,2710,6.0,26.0,26.0,-41.625972747802734,-21.240232467651367,-40.405269622802734,-1.1478271484375,0.32177734375,-0.2462158203125
4.807,371,3147,2374,3008,6.0,26.0,26.0,-62.499996185302734,6.530761241912842,-49.499507904052734,-1.8096923828125,0.0946044921875,-0.17919921875
4.812,385,3147,2554,3147,6.0,26.0,26.0,-68.17626953125,17.4560546875,-39.24560546875,-2.3211669921875,0.2578125,-0.0230712890625
4.822,382,3147,2626,3147,6.0,26.0,26.0,-59.936519622802734,8.4228515625,-13.671874046325684,-2.67333984375,0.433349609375,0.0433349609375
4.829,382,3147,2554,3147,6.0,26.0,26.0,-45.654293060302734,-5.737304210662842,12.145995140075684,-2.8865966796875,0.1658935546875,0.0411376953125
4.842,376,3147,2195,3147,8.0,26.0,16.0,-18.310546875,-11.535643577575684,31.555173873901367,-2.7125244140625,-0.19287109375,-0.0672607421875
4.850,372,3147,2273,3147,8.0,26.0,16.0,24.963376998901367,-8.72802734375,43.701168060302734,-1.9266357421875,-0.1937255859375,-0.3011474609375
4.873,373,3147,2372,3147,8.0,26.0,16.0,71.35009765625,-4.94384765625,44.067378997802734,-1.2073974609375,0.566162109375,-0.2843017578125
4.874,376,3147,2347,3140,8.0,26.0,16.0,90.57616424560547,-6.286620616912842,31.860349655151367,-1.23828125,1.522705078125,0.0023193359375
4.880,375,3147,2348,2989,8.0,26.0,16.0,45.349117279052734,-6.530761241912842,7.568358898162842,-1.61474609375,1.4261474609375,0.1929931640625
4.891,373,3147,2287,2744,8.0,26.0,16.0,-29.785154342651367,2.685546636581421,-19.47021484375,-1.809814453125,0.5474853515625,0.2086181640625
4.913,371,3147,2190,2397,8.0,26.0,16.0,-58.044429779052734,15.136717796325684,-31.066892623901367,-1.7979736328125,-0.1016845703125,0.0908203125
4.914,371,3147,2122,2133,8.0,26.0,16.0,-32.53173828125,20.385740280151367,-23.376462936401367,-1.7060546875,-0.1644287109375,-0.00732421875
4.918,373,3147,2021,1894,8.0,26.0,16.0,3.662109136581421,16.05224609375,-7.751464366912842,-1.550048828125,0.13916015625,-0.0230712890625
4.933,360,3147,1850,1382,11.0,26.0,21.0,18.85986328125,7.751464366912842,4.2724609375,-1.3350830078125,0.34423828125,-0.020263671875
4.949,360,3147,1762,1050,11.0,26.0,21.0,13.366698265075684,2.50244140625,9.46044921875,-1.099853515625,0.3055419921875,0.011474609375
4.950,356,3147,1627,706,11.0,26.0,21.0,6.408690929412842,2.38037109375,10.681151390075684,-0.838134765625,0.14453125,0.0323486328125
4.978,346,2807,1320,371,11.0,26.0,21.0,9.033203125,5.371093273162842,8.85009765625,-0.5689697265625,-0.0191650390625,0.0059814453125
4.979,338,2244,1236,362,11.0,26.0,21.0,21.240232467651367,11.596678733825684,2.868652105331421,-0.336669921875,-0.077880859375,-0.153076171875
4.979,334,1627,1131,364,11.0,26.0,21.0,36.9873046875,22.705076217651367,-6.225585460662842,-0.192626953125,-0.0064697265625,-0.344482421875
4.993,328,1004,1085,345,11.0,26.0,21.0,41.442867279052734,31.494138717651367,-14.587401390075684,-0.213623046875,0.11083984375,-0.3045654296875
5.001,327,841,1063,342,11.0,26.0,21.0,26.855466842651367,29.846189498901367,-19.4091796875,-0.377197265625,0.1834716796875,-0.0965576171875
5.013,322,631,980,327,11.0,26.0,21.0,26.855466842651367,29.846189498901367,-19.4091796875,-0.5677490234375,0.2362060546875,0.0545654296875
5.022,316,533,725,323,11.0,26.0,21.0,-12.145995140075684,16.357421875,-18.310546875,-0.7020263671875,0.3134765625,0.1160888671875
5.030,308,458,603,324,9.0,28.0,17.0,-20.01953125,13.549803733825684,-11.230467796325684,-0.7513427734375,0.352783203125,0.1500244140625
5.038,313,460,533,323,9.0,28.0,17.0,-20.01953125,13.549803733825684,-11.230467796325684,-0.7493896484375,0.326904296875,0.1527099609375
5.054,309,547,551,321,9.0,28.0,17.0,-21.850584030151367,11.291502952575684,3.173827886581421,-0.7132568359375,0.266845703125,0.1259765625
5.062,310,469,559,323,9.0,28.0,17.0,-23.986814498901367,9.27734375,3.540038824081421,-0.6728515625,0.1781005859375,0.1253662109375
5.078,308,442,578,323,9.0,28.0,17.0,-23.986814498901367,9.27734375,3.540038824081421,-0.66943359375,0.0926513671875,0.1761474609375
5.082,310,465,586,323,9.0,28.0,17.0,-28.198240280151367,1.8310545682907104,-4.7607421875,-0.6905517578125,0.052734375,0.205078125
5.091,310,513,607,322,9.0,28.0,17.0,-19.8974609375,-0.8544921278953552,-6.042479991912842,-0.708251953125,0.0638427734375,0.174560546875
5.098,310,536,617,324,9.0,28.0,17.0,-19.8974609375,-0.8544921278953552,-6.042479991912842,-0.7122802734375,0.0858154296875,0.1348876953125
5.116,313,592,607,321,9.0,28.0,17.0,-3.723144292831421,-3.112792730331421,-0.3662109076976776,-0.71044921875,0.0933837890625,0.101806640625
5.120,306,606,631,323,9.0,28.0,17.0,-1.0986328125,-5.065917491912842,2.807616949081421,-0.6951904296875,0.0948486328125,0.060791015625
5.129,310,705,695,326,7.0,27.0,18.0,-1.0986328125,-5.065917491912842,2.807616949081421,-0.6588134765625,0.0888671875,0.028076171875
5.142,316,668,816,324,7.0,27.0,18.0,1.5258787870407104,-9.58251953125,5.065917491912842,-0.606689453125,0.0799560546875,0.009765625
5.151,317,882,922,328,7.0,27.0,18.0,4.94384765625,-12.023924827575684,4.45556640625,-0.5545654296875,0.0870361328125,-0.0030517578125
5.183,321,1146,986,332,7.0,27.0,18.0,4.94384765625,-12.023924827575684,4.45556640625,-0.532470703125,0.115966796875,-0.00830078125
5.187,307,2192,1034,345,7.0,27.0,18.0,15.258788108825684,-17.333984375,4.69970703125,-0.584716796875,0.1737060546875,0.0125732421875
5.192,327,2622,1083,347,7.0,27.0,18.0,21.362302780151367,-20.324705123901367,8.544921875,-0.7166748046875,0.2847900390625,0.07666015625
5.201,313,2990,1156,331,7.0,27.0,18.0,21.362302780151367,-20.324705123901367,8.544921875,-0.799560546875,0.3621826171875,0.14794921875
5.205,331,3147,1289,439,7.0,27.0,18.0,26.977537155151367,-24.902341842651367,15.624999046325684,-0.799560546875,0.3621826171875,0.14794921875
5.220,337,3147,1516,869,7.0,27.0,18.0,14.587401390075684,-39.6728515625,20.629880905151367,-0.5498046875,0.1279296875,0.2025146484375
5.220,347,3147,1669,1071,7.0,27.0,18.0,14.587401390075684,-39.6728515625,20.629880905151367,-0.3814697265625,-0.0350341796875,0.1658935546875
5.227,354,3147,1843,1258,9.0,26.0,23.0,5.493163585662842,-46.325679779052734,15.930174827575684,-0.3814697265625,-0.0350341796875,0.1658935546875
5.241,369,3147,2197,1557,9.0,26.0,23.0,9.33837890625,-50.109859466552734,5.676269054412842,-0.1669921875,-0.1358642578125,0.08349609375
5.249,373,3147,2391,1969,9.0,26.0,23.0,9.33837890625,-50.109859466552734,5.676269054412842,-0.1800537109375,0.066650390625,0.1077880859375
5.258,376,3147,2458,2293,9.0,26.0,23.0,16.05224609375,-48.034664154052734,1.03759765625,-0.1800537109375,0.066650390625,0.1077880859375
5.274,385,3147,2638,2723,9.0,26.0,23.0,17.63916015625,-29.785154342651367,-7.629394054412842,-0.8270263671875,0.645751953125,-0.1707763671875
5.287,364,3147,2748,3095,9.0,26.0,23.0,17.63916015625,-29.785154342651367,-7.629394054412842,-1.257568359375,0.7154541015625,-0.2408447265625
5.288,388,3147,2824,3147,9.0,26.0,23.0,-7.080077648162842,-13.244627952575684,-8.72802734375,-1.257568359375,0.7154541015625,-0.2408447265625
5.301,390,3147,2930,3147,9.0,26.0,23.0,-48.828121185302734,-8.36181640625,6.347655773162842,-2.1361083984375,0.51953125,0.04833984375
5.318,391,3147,2996,3147,9.0,26.0,23.0,-48.828121185302734,-8.36181640625,6.347655773162842,-2.455322265625,0.197021484375,0.2435302734375
5.321,401,3147,3001,3147,9.0,26.0,23.0,-44.006343841552734,-14.465331077575684,11.291502952575684,-2.455322265625,0.197021484375,0.2435302734375
5.331,390,3147,2824,3147,5.0,27.0,22.0,-29.235837936401367,-14.282225608825684,8.1787109375,-2.47607421875,0.078125,0.43603515625
5.339,390,3147,2665,3147,5.0,27.0,22.0,-10.498045921325684,-5.859374523162842,6.896972179412842,-2.47607421875,0.078125,0.43603515625
5.347,393,3147,2710,3147,5.0,27.0,22.0,12.145995140075684,7.690429210662842,11.474608421325684,-1.8304443359375,0.176025390625,0.1768798828125
5.361,387,3147,2789,3147,5.0,27.0,22.0,37.41455078125,24.047849655151367,13.793944358825684,-1.150390625,1.2633056640625,-0.0523681640625
5.386,383,3147,2788,3147,5.0,27.0,22.0,49.194332122802734,34.5458984375,7.385253429412842,-1.150390625,1.2633056640625,-0.0523681640625
5.387,382,3147,2778,3147,5.0,27.0,22.0,19.10400390625,37.841796875,-8.6669921875,-1.7864990234375,1.286865234375,0.0711669921875
5.391,387,3147,2684,2886,5.0,27.0,22.0,-42.053218841552734,40.832515716552734,-28.808591842651367,-2.2093505859375,-0.107177734375,0.1224365234375
5.400,387,3147,2605,2622,5.0,27.0,22.0,-75.13427734375,41.442867279052734,-38.9404296875,-2.2093505859375,-0.107177734375,0.1224365234375
5.408,385,3147,2519,2386,5.0,27.0,22.0,-51.879878997802734,35.888671875,-30.517576217651367,-1.9703369140625,-0.294189453125,0.043212890625
5.421,382,3147,2344,1792,10.0,26.0,20.0,-2.990722417831421,27.832029342651367,-12.451170921325684,-1.42041015625,0.1754150390625,-0.032470703125
5.429,374,3147,2213,1409,10.0,26.0,20.0,32.89794921875,20.751951217651367,3.417968511581421,-1.42041015625,0.1754150390625,-0.032470703125
5.437,373,3147,2061,1067,10.0,26.0,20.0,43.029781341552734,14.953612327575684,14.587401390075684,-1.1998291015625,0.3446044921875,-0.0198974609375
5.459,361,3099,1627,383,10.0,26.0,20.0,37.29248046875,12.023924827575684,21.484373092651367,-0.74609375,0.246337890625,-0.044921875
5.483,351,2328,1336,374,10.0,26.0,20.0,30.273435592651367,14.038084983825684,23.193357467651367,-0.74609375,0.246337890625,-0.044921875
5.483,344,1079,1115,361,10.0,26.0,20.0,26.306150436401367,20.935056686401367,17.578125,-0.4384765625,0.0438232421875,-0.13916015625
5.510,322,418,867,332,10.0,26.0,20.0,29.541013717651367,32.5927734375,4.94384765625,-0.2178955078125,-0.0205078125,-0.4051513671875
5.510,318,416,714,322,10.0,26.0,20.0,38.57421875,44.799800872802734,-9.33837890625,-0.2178955078125,-0.0205078125,-0.4051513671875
5.512,313,415,619,324,10.0,26.0,20.0,34.423828125,46.691890716552734,-19.1650390625,-0.3927001953125,0.1702880859375,-0.2396240234375
5.527,312,424,553,319,10.0,26.0,20.0,12.145995140075684,36.1328125,-21.667478561401367,-0.8233642578125,0.5050048828125,0.2523193359375
5.530,311,361,561,302,4.0,29.0,25.0,-11.657713890075684,23.498533248901367,-15.380858421325684,-0.8233642578125,0.5050048828125,0.2523193359375
5.531,313,344,576,323,4.0,29.0,25.0,-26.733396530151367,18.5546875,-2.50244140625,-0.8062744140625,0.4775390625,0.29736328125
5.541,310,401,531,318,4.0,29.0,25.0,-31.982419967651367,21.484373092651367,10.070799827575684,-0.64892578125,0.0721435546875,0.1954345703125
5.549,308,385,504,318,4.0,29.0,25.0,-24.353025436401367,26.855466842651367,17.4560546875,-0.64892578125,0.0721435546875,0.1954345703125
5.557,309,391,509,323,4.0,29.0,25.0,-4.33349609375,30.151365280151367,19.53125,-0.5885009765625,0.0185546875,0.097900390625
5.571,308,418,519,318,4.0,29.0,25.0,14.465331077575684,28.625486373901367,18.00537109375,-0.542724609375,0.1185302734375,0.022705078125
5.595,307,457,508,317,4.0,29.0,25.0,15.014647483825684,22.827146530151367,14.282225608825684,-0.556396484375,0.1920166015625,0.0067138671875
5.596,308,455,482,317,4.0,29.0,25.0,-2.25830078125,16.6015625,9.521484375,-0.6031494140625,0.15673828125,0.02490234375
5.608,306,441,481,319,4.0,29.0,25.0,-21.179197311401367,13.732909202575684,5.187987804412842,-0.6474609375,0.0833740234375,0.03125
5.609,308,428,481,317,4.0,29.0,25.0,-29.113767623901367,13.916014671325684,3.417968511581421,-0.677978515625,0.0457763671875,0.032958984375
5.628,307,480,495,313,7.0,28.0,17.0,-26.184080123901367,13.244627952575684,4.7607421875,-0.6846923828125,0.044677734375,0.056640625
5.645,308,470,506,318,7.0,28.0,17.0,-17.822265625,10.131834983825684,7.446288585662842,-0.6688232421875,0.0806884765625,0.074462890625
5.646,308,487,509,296,7.0,28.0,17.0,-7.324218273162842,5.981444835662842,9.09423828125,-0.6444091796875,0.1614990234375,0.0596923828125
5.648,309,510,509,316,7.0,28.0,17.0,1.9531248807907104,2.38037109375,8.60595703125,-0.62646484375,0.25439453125,0.0299072265625
5.661,306,499,514,317,7.0,28.0,17.0,5.249022960662842,-0.2441406100988388,6.774901866912842,-0.6180419921875,0.3089599609375,0.0028076171875
5.669,309,465,521,316,7.0,28.0,17.0,1.4038084745407104,-2.3193359375,5.065917491912842,-0.612548828125,0.306884765625,-0.0111083984375
5.677,308,473,536,318,7.0,28.0,17.0,-5.371093273162842,-4.57763671875,4.638671875,-0.6015625,0.2655029296875,-0.010009765625
5.705,310,478,540,317,7.0,28.0,17.0,-11.047362327575684,-7.568358898162842,5.920409679412842,-0.5771484375,0.20849609375,-0.0064697265625
5.705,308,481,539,319,7.0,28.0,17.0,-15.136717796325684,-10.681151390075684,8.36181640625,-0.522705078125,0.1348876953125,-0.0123291015625
5.710,309,470,540,321,7.0,28.0,17.0,-18.06640625,-12.756346702575684,10.437010765075684,-0.4332275390625,0.03466796875,-0.0260009765625
5.726,310,551,548,321,8.0,26.0,25.0,-16.4794921875,-13.549803733825684,10.803221702575684,-0.3223876953125,-0.09228515625,-0.0328369140625
5.736,310,600,636,324,8.0,26.0,25.0,-6.469726085662842,-14.404295921325684,8.85009765625,-0.1983642578125,-0.23095703125,-0.040283203125
5.738,315,1095,684,316,8.0,26.0,25.0,11.596678733825684,-15.991209983825684,4.638671875,-0.1151123046875,-0.2945556640625,-0.0440673828125
5.751,316,3147,694,619,8.0,26.0,25.0,30.639646530151367,-18.798828125,-0.2441406100988388,-0.0723876953125,-0.1611328125,0.031982421875
5.759,322,3147,883,1118,8.0,26.0,25.0,39.12353515625,-22.583005905151367,-3.723144292831421,-0.298095703125,0.3294677734375,0.2103271484375
5.767,332,3147,1183,1353,8.0,26.0,25.0,40.588375091552734,-28.808591842651367,3.723144292831421,-0.8115234375,0.925048828125,0.46923828125
5.801,359,3147,1656,1602,8.0,26.0,25.0,30.334470748901367,-38.57421875,22.277830123901367,-0.9063720703125,0.699951171875,0.4520263671875
5.802,365,3147,1899,1742,8.0,26.0,25.0,-2.0751953125,-45.471187591552734,29.113767623901367,-0.443603515625,-0.080078125,0.2081298828125
5.802,375,3147,2215,2308,8.0,26.0,25.0,-18.24951171875,-50.354000091552734,18.61572265625,-0.225341796875,-0.1458740234375,0.1719970703125
5.812,376,3147,2379,2899,8.0,26.0,17.0,3.906249761581421,-52.307125091552734,3.479003667831421,-0.721435546875,0.499267578125,0.0843505859375
5.820,383,3147,2505,3147,8.0,26.0,17.0,14.831542015075684,-35.94970703125,-12.573241233825684,-1.54541015625,0.8466796875,-0.1656494140625
5.838,385,3147,2608,3147,8.0,26.0,17.0,-12.512206077575684,-3.723144292831421,-25.512693405151367,-2.230224609375,0.65380859375,-0.2509765625
5.846,387,3147,2746,3147,8.0,26.0,17.0,-44.433589935302734,19.775390625,-23.193357467651367,-2.6163330078125,0.5074462890625,-0.1893310546875
5.852,388,3147,2788,3147,8.0,26.0,17.0,-50.720211029052734,22.460935592651367,-2.563476324081421,-2.77490234375,0.3699951171875,-0.1729736328125
5.858,386,3147,2654,3147,8.0,26.0,17.0,-29.113767623901367,13.000487327575684,22.705076217651367,-2.803955078125,0.0828857421875,-0.1834716796875
5.877,381,3147,2345,3147,8.0,26.0,17.0,9.3994140625,2.13623046875,42.968746185302734,-2.482666015625,-0.1121826171875,-0.2747802734375
5.879,378,3147,2437,3147,8.0,26.0,17.0,48.278804779052734,-4.2724609375,52.978511810302734,-1.6949462890625,0.02734375,-0.4078369140625
5.908,373,3147,2519,3147,8.0,26.0,17.0,75.68359375,-5.310058116912842,46.020503997802734,-1.09521484375,0.7967529296875,-0.2906494140625
5.908,375,3147,2571,3147,8.0,26.0,17.0,74.40185546875,-3.845214605331421,25.451658248901367,-1.2218017578125,1.5794677734375,-0.01171875
5.910,371,3147,2552,3147,8.0,30.0,17.0,25.207517623901367,0.9765624403953552,0.30517578125,-1.611572265625,1.3779296875,0.1422119140625
5.919,372,3147,2492,3147,8.0,30.0,17.0,-36.7431640625,10.925292015075684,-21.179197311401367,-1.7900390625,0.53564453125,0.1429443359375
5.939,371,3147,2367,2765,8.0,30.0,17.0,-52.368160247802734,20.996091842651367,-29.357908248901367,-1.7794189453125,-0.051513671875,0.0419921875
5.947,369,3147,2275,2504,8.0,30.0,17.0,-21.240232467651367,24.108884811401367,-21.606443405151367,-1.6881103515625,-0.0791015625,-0.0213623046875
5.948,364,3147,2137,2213,8.0,30.0,17.0,17.7001953125,18.61572265625,-6.408690929412842,-1.5213623046875,0.2061767578125,-0.0411376953125
5.962,361,3147,1892,1733,8.0,30.0,17.0,36.7431640625,11.169432640075684,5.493163585662842,-1.28955078125,0.41455078125,-0.107421875
5.970,356,3147,1693,1372,8.0,30.0,17.0,33.63037109375,7.324218273162842,11.169432640075684,-1.0474853515625,0.4344482421875,-0.1580810546875
5.978,348,3147,1441,922,8.0,30.0,17.0,20.996091842651367,5.798339366912842,13.244627952575684,-0.8072509765625,0.343994140625,-0.1151123046875
6.000,334,3101,1129,364,8.0,30.0,17.0,9.033203125,4.94384765625,10.131834983825684,-0.58837890625,0.1719970703125,-0.072265625
6.000,328,2384,1054,334,8.0,30.0,17.0,2.868652105331421,8.60595703125,-1.2817381620407104,-0.42529296875,0.0120849609375,-0.144775390625
6.013,328,1569,948,354,8.0,30.0,24.0,4.69970703125,19.71435546875,-16.845703125,-0.334228515625,-0.016845703125,-0.2904052734375
6.022,323,794,895,338,8.0,30.0,24.0,9.33837890625,32.3486328125,-28.747556686401367,-0.3504638671875,0.0517578125,-0.3045654296875
6.037,315,687,846,331,8.0,30.0,24.0,8.4228515625,36.07177734375,-32.5927734375,-0.4757080078125,0.1640625,-0.117919921875
6.039,299,494,684,328,8.0,30.0,24.0,2.25830078125,29.479978561401367,-28.747556686401367,-0.6275634765625,0.30322265625,0.06298828125
6.052,306,468,513,323,8.0,30.0,24.0,-6.286620616912842,20.01953125,-20.080564498901367,-0.7237548828125,0.37548828125,0.127685546875
6.060,308,445,513,318,8.0,30.0,24.0,-17.2119140625,12.939452171325684,-9.58251953125,-0.7490234375,0.3271484375,0.1427001953125
6.068,309,481,497,321,8.0,30.0,24.0,-23.315427780151367,8.7890625,0.4882812201976776,-0.7154541015625,0.22314453125,0.1512451171875
6.082,308,445,490,318,8.0,30.0,24.0,-17.08984375,7.019042491912842,7.629394054412842,-0.665283203125,0.1337890625,0.144775390625
6.119,308,462,487,319,8.0,30.0,24.0,-1.4038084745407104,6.652831554412842,10.253905296325684,-0.6268310546875,0.08984375,0.13525390625
6.120,308,454,497,323,8.0,30.0,24.0,13.549803733825684,6.652831554412842,8.36181640625,-0.5966796875,0.09033203125,0.1048583984375
6.125,307,482,490,318,7.0,29.0,19.0,19.287109375,7.141112804412842,2.25830078125,-0.5909423828125,0.129638671875,0.056396484375
6.138,289,519,508,321,7.0,29.0,19.0,14.343260765075684,7.751464366912842,-5.065917491912842,-0.609619140625,0.191650390625,0.041259765625
6.141,307,513,512,321,7.0,29.0,19.0,14.343260765075684,7.751464366912842,-5.065917491912842,-0.636474609375,0.245361328125,0.0601806640625
6.144,308,501,526,323,7.0,29.0,19.0,-5.798339366912842,2.807616949081421,-8.23974609375,-0.653076171875,0.25927734375,0.07763671875
6.150,309,464,533,318,7.0,29.0,19.0,-9.46044921875,-2.44140625,-3.234863042831421,-0.649658203125,0.21630859375,0.06787109375
6.158,306,513,543,321,7.0,29.0,19.0,-9.46044921875,-2.44140625,-3.234863042831421,-0.6260986328125,0.1500244140625,0.0164794921875
6.172,309,548,582,322,7.0,29.0,19.0,0.8544921278953552,-8.48388671875,6.591796398162842,-0.591796875,0.1046142578125,-0.052490234375
6.180,309,653,567,323,7.0,29.0,19.0,3.845214605331421,-9.27734375,8.4228515625,-0.5531005859375,0.07470703125,-0.095947265625
6.210,310,806,619,323,7.0,29.0,19.0,3.845214605331421,-9.27734375,8.4228515625,-0.5238037109375,0.048095703125,-0.0977783203125
6.210,315,1306,777,327,7.0,29.0,19.0,0.1831054538488388,-13.061522483825684,6.164550304412842,-0.5028076171875,0.0400390625,-0.06591796875
6.210,313,1757,707,332,7.0,28.0,18.0,-0.1220703050494194,-16.11328125,4.0283203125,-0.4864501953125,0.09033203125,-0.01171875
6.226,316,2375,644,332,7.0,28.0,18.0,-0.1220703050494194,-16.11328125,4.0283203125,-0.56396484375,0.29345703125,0.0784912109375
6.238,315,3147,644,421,7.0,28.0,18.0,9.521484375,-25.573728561401367,11.779784202575684,-0.730712890625,0.5404052734375,0.1663818359375
6.241,316,3147,780,761,7.0,28.0,18.0,14.038084983825684,-33.5693359375,24.658201217651367,-0.7635498046875,0.5301513671875,0.2042236328125
6.248,321,3147,986,1101,7.0,28.0,18.0,14.038084983825684,-33.5693359375,24.658201217651367,-0.48876953125,0.206298828125,0.2122802734375
6.262,336,3147,1434,1569,7.0,28.0,18.0,7.141112804412842,-54.138179779052734,31.860349655151367,-0.158935546875,-0.130859375,0.29638671875
6.270,357,3147,1855,1813,7.0,28.0,18.0,16.11328125,-67.87109375,20.507810592651367,-0.086181640625,-0.173583984375,0.39111328125
6.285,371,3147,2321,2226,7.0,28.0,18.0,16.11328125,-67.87109375,20.507810592651367,-0.0816650390625,0.0853271484375,0.2822265625
6.308,376,3147,2555,2840,7.0,28.0,18.0,24.658201217651367,-58.349605560302734,-18.9208984375,-0.11474609375,0.5224609375,-0.0318603515625
6.308,371,3147,2636,3147,7.0,28.0,18.0,-5.554198741912842,-22.583005905151367,-41.503902435302734,-0.4757080078125,0.751708984375,-0.2357177734375
6.311,377,3147,2707,3147,4.0,29.0,18.0,-5.554198741912842,-22.583005905151367,-41.503902435302734,-1.1885986328125,0.65771484375,-0.1456298828125
6.340,388,3147,2916,3147,4.0,29.0,18.0,-57.983394622802734,27.893064498901367,-51.940914154052734,-1.92333984375,0.708740234375,-0.054443359375
6.343,387,3147,3008,3147,4.0,29.0,18.0,-56.091304779052734,20.690916061401367,-33.75244140625,-2.4598388671875,0.764892578125,-0.09814453125
6.347,388,3147,3055,3147,4.0,29.0,18.0,-56.091304779052734,20.690916061401367,-33.75244140625,-2.9266357421875,0.3953857421875,-0.1444091796875
6.352,385,3147,2991,3147,4.0,29.0,18.0,-29.968259811401367,-4.150390625,-0.6103515625,-3.1650390625,-0.099365234375,-0.1375732421875
6.360,385,3147,2781,3147,4.0,29.0,18.0,-29.968259811401367,-4.150390625,-0.6103515625,-2.789794921875,-0.3299560546875,-0.220947265625
6.368,384,3147,2760,3147,4.0,29.0,18.0,0.6713866591453552,-3.479003667831421,11.047362327575684,-2.789794921875,-0.3299560546875,-0.220947265625
6.383,383,3147,2876,3147,4.0,29.0,18.0,66.2841796875,5.981444835662842,25.512693405151367,-1.052001953125,0.988525390625,-0.332763671875
6.391,382,3147,2886,3147,4.0,29.0,18.0,66.2841796875,5.981444835662842,25.512693405151367,-1.2154541015625,1.7734375,0.0228271484375
6.410,382,3147,2875,3147,11.0,27.0,18.0,53.771968841552734,4.0283203125,10.864256858825684,-1.2154541015625,1.7734375,0.0228271484375
6.412,383,3147,2799,2753,11.0,27.0,18.0,-79.77294921875,15.930174827575684,-39.12353515625,-2.0399169921875,0.2452392578125,0.3685302734375
6.420,382,3147,2708,2435,11.0,27.0,18.0,-79.77294921875,15.930174827575684,-39.12353515625,-2.0281982421875,-0.2728271484375,0.232421875
6.429,375,3147,2605,2165,11.0,27.0,18.0,-75.37841796875,27.587888717651367,-42.602535247802734,-2.0281982421875,-0.2728271484375,0.232421875
6.444,376,3147,2505,1850,11.0,27.0,18.0,-23.864744186401367,33.69140625,-27.343748092651367,-1.8291015625,-0.2041015625,0.0347900390625
6.452,371,3147,2299,1209,11.0,27.0,18.0,31.188962936401367,28.137205123901367,1.7700194120407104,-1.3004150390625,0.3055419921875,-0.1083984375
6.459,362,3147,2100,867,11.0,27.0,18.0,31.188962936401367,28.137205123901367,1.7700194120407104,-1.3004150390625,0.3055419921875,-0.1083984375
6.468,359,3147,1864,495,11.0,27.0,18.0,22.338865280151367,20.690916061401367,8.85009765625,-1.0623779296875,0.318115234375,-0.1424560546875
6.481,342,2503,1318,371,11.0,27.0,18.0,12.573241233825684,16.9677734375,14.282225608825684,-0.5609130859375,0.090087890625,-0.228759765625
6.490,332,1561,1083,352,11.0,27.0,18.0,12.756346702575684,18.12744140625,17.822265625,-0.5609130859375,0.090087890625,-0.228759765625
6.511,324,830,906,345,10.0,29.0,19.0,19.95849609375,21.911619186401367,15.808104515075684,-0.36279296875,0.013427734375,-0.272705078125
6.512,313,472,739,324,10.0,29.0,19.0,25.878904342651367,28.625486373901367,6.225585460662842,-0.2822265625,0.0787353515625,-0.3614501953125
6.519,315,481,617,323,10.0,29.0,19.0,24.719236373901367,36.19384765625,-6.652831554412842,-0.2822265625,0.0787353515625,-0.3614501953125
6.529,310,424,548,321,10.0,29.0,19.0,15.197752952575684,37.04833984375,-16.7236328125,-0.44970703125,0.2596435546875,-0.1373291015625
6.553,308,390,582,318,10.0,29.0,19.0,1.7089842557907104,29.602048873901367,-20.751951217651367,-0.78369140625,0.6171875,0.3062744140625
6.553,306,455,578,318,10.0,29.0,19.0,-11.962889671325684,21.240232467651367,-17.08984375,-0.78369140625,0.6171875,0.3062744140625
6.557,308,456,568,318,10.0,29.0,19.0,-26.062009811401367,17.02880859375,-6.164550304412842,-0.763916015625,0.577880859375,0.3465576171875
6.571,307,411,526,318,10.0,29.0,19.0,-37.04833984375,16.4794921875,7.019042491912842,-0.6207275390625,0.04736328125,0.1832275390625
6.579,306,375,519,317,10.0,29.0,19.0,-36.0107421875,16.78466796875,16.11328125,-0.6207275390625,0.04736328125,0.1832275390625
6.587,306,401,523,321,10.0,29.0,19.0,-19.95849609375,15.808104515075684,18.9208984375,-0.6160888671875,-0.0970458984375,0.0750732421875
6.615,308,390,519,319,9.0,29.0,19.0,0.0610351525247097,13.305663108825684,17.2119140625,-0.6402587890625,-0.0089111328125,-0.0335693359375
6.615,307,383,501,318,9.0,29.0,19.0,10.009765625,10.192870140075684,13.488768577575684,-0.6402587890625,-0.0089111328125,-0.0335693359375
6.623,305,378,495,318,9.0,29.0,19.0,6.469726085662842,7.263183116912842,9.27734375,-0.6531982421875,0.05419921875,-0.02197265625
6.631,306,388,460,316,9.0,29.0,19.0,-3.356933355331421,5.615233898162842,5.0048828125,-0.681640625,0.0509033203125,-0.0079345703125
6.653,307,413,437,321,9.0,29.0,19.0,-10.864256858825684,5.310058116912842,2.13623046875,-0.681640625,0.0509033203125,-0.0079345703125
6.656,306,424,455,319,9.0,29.0,19.0,-12.207030296325684,4.7607421875,1.8310545682907104,-0.6707763671875,0.0328369140625,-0.009521484375
6.661,304,418,441,318,9.0,29.0,19.0,-7.385253429412842,2.563476324081421,3.417968511581421,-0.621337890625,0.1026611328125,-0.041748046875
6.669,308,423,456,318,9.0,29.0,19.0,2.44140625,-0.9155272841453552,5.126952648162842,-0.621337890625,0.1026611328125,-0.041748046875
6.677,306,401,464,316,9.0,29.0,19.0,12.573241233825684,-4.08935546875,5.737304210662842,-0.609375,0.1943359375,-0.0623779296875
6.691,306,393,461,316,9.0,29.0,19.0,16.9677734375,-5.676269054412842,5.065917491912842,-0.5966796875,0.27783203125,-0.0767822265625
6.717,308,430,462,317,7.0,29.0,16.0,13.549803733825684,-5.981444835662842,3.662109136581421,-0.5797119140625,0.314453125,-0.0771484375
6.717,308,414,472,316,7.0,29.0,16.0,4.638671875,-6.652831554412842,2.50244140625,-0.55712890625,0.2960205078125,-0.0650634765625
6.724,306,539,473,316,7.0,29.0,16.0,-5.920409679412842,-8.30078125,2.38037109375,-0.509765625,0.2327880859375,-0.0439453125
6.735,305,661,501,321,7.0,29.0,16.0,-14.099120140075684,-10.437010765075684,3.173827886581421,-0.4195556640625,0.1153564453125,-0.0234375
6.740,310,683,591,326,7.0,29.0,16.0,-14.343260765075684,-12.878417015075684,3.906249761581421,-0.2938232421875,-0.03759765625,-0.012939453125
6.765,316,1874,683,328,7.0,29.0,16.0,-3.173827886581421,-15.930174827575684,3.540038824081421,0.021484375,-0.123046875,0.0875244140625
6.766,313,2798,579,336,7.0,29.0,16.0,14.709471702575684,-20.568845748901367,1.8310545682907104,0.021484375,-0.123046875,0.0875244140625
6.768,314,3147,653,345,7.0,29.0,16.0,28.503416061401367,-27.160642623901367,-1.220703125,-0.07958984375,0.248046875,0.2921142578125
6.783,337,3147,1478,614,7.0,29.0,16.0,37.04833984375,-36.43798828125,2.44140625,-0.5458984375,0.782958984375,0.5819091796875
6.790,359,3147,1931,806,9.0,30.0,17.0,31.494138717651367,-48.522945404052734,12.756346702575684,-0.6907958984375,0.5322265625,0.62744140625
6.799,372,3147,2579,1228,9.0,30.0,17.0,7.751464366912842,-59.509273529052734,6.408690929412842,-0.2210693359375,-0.1170654296875,0.3966064453125
6.823,383,3147,2919,1634,9.0,30.0,17.0,-1.7700194120407104,-68.90869140625,-23.376462936401367,0.129150390625,0.1512451171875,0.2208251953125
6.823,387,3147,2970,1941,9.0,30.0,17.0,10.498045921325684,-67.138671875,-57.312007904052734,-0.380126953125,1.037353515625,-0.1231689453125
6.829,388,3147,3064,2178,9.0,30.0,17.0,5.981444835662842,-37.29248046875,-74.951171875,-1.4696044921875,1.27783203125,-0.5382080078125
6.868,390,3147,3147,2541,9.0,30.0,17.0,-65.3076171875,19.8974609375,-38.0859375,-3.0037841796875,0.0992431640625,-0.2066650390625
6.869,390,3147,3147,2626,9.0,30.0,17.0,-70.49560546875,9.3994140625,-5.432128429412842,-3.1973876953125,-0.359619140625,-0.02001953125
6.869,388,3147,3046,2407,9.0,30.0,17.0,-40.405269622802734,-4.150390625,16.05224609375,-3.1953125,-0.513916015625,-0.08203125
6.881,385,3147,2853,2178,9.0,30.0,17.0,7.324218273162842,-7.568358898162842,31.555173873901367,-2.6583251953125,-0.3748779296875,-0.306396484375
6.889,385,3147,2943,2161,8.0,30.0,18.0,56.701656341552734,-3.417968511581421,42.663570404052734,-1.619140625,0.1820068359375,-0.531494140625
6.897,385,3147,2984,2111,8.0,30.0,18.0,85.32714080810547,-0.6103515625,38.2080078125,-1.134765625,1.178466796875,-0.3509521484375
6.922,385,3147,2981,1973,8.0,30.0,18.0,57.800289154052734,-3.540038824081421,18.49365234375,-1.502197265625,1.626953125,0.027587890625
6.923,364,3147,2954,1819,8.0,30.0,18.0,-19.775390625,-2.0751953125,-4.45556640625,-1.87255859375,0.95361328125,0.1971435546875
6.927,383,3147,2927,1546,8.0,30.0,18.0,-75.25634765625,8.72802734375,-17.7001953125,-1.93115234375,0.0531005859375,0.17529296875
6.941,378,3147,2785,1170,8.0,30.0,18.0,-63.415523529052734,20.01953125,-14.160155296325684,-1.8104248046875,-0.298583984375,0.04296875
6.959,378,3147,2657,966,8.0,30.0,18.0,-15.747069358825684,23.437498092651367,-0.4272460639476776,-1.619873046875,-0.08544921875,-0.048828125
6.975,375,3147,2464,787,8.0,30.0,18.0,19.83642578125,17.02880859375,13.000487327575684,-1.3775634765625,0.271728515625,-0.056396484375
6.975,369,3147,2204,401,8.0,30.0,18.0,27.648923873901367,6.713866710662842,20.751951217651367,-1.1298828125,0.408203125,-0.0517578125
6.980,360,3121,2005,388,8.0,30.0,18.0,21.301267623901367,0.9765624403953552,22.399900436401367,-0.906982421875,0.362060546875,-0.05908203125
6.987,356,2489,1662,378,6.0,31.0,19.0,17.578125,2.685546636581421,20.01953125,-0.6839599609375,0.2655029296875,-0.087890625
7.002,332,1359,1160,360,6.0,31.0,19.0,20.080564498901367,9.33837890625,14.770506858825684,-0.4720458984375,0.16162109375,-0.1346435546875
7.025,328,841,1071,348,6.0,31.0,19.0,23.925779342651367,19.10400390625,6.103515148162842,-0.2828369140625,0.076416015625,-0.234130859375
7.026,322,642,891,334,6.0,31.0,19.0,23.376462936401367,30.517576217651367,-4.150390625,-0.1912841796875,0.0516357421875,-0.3277587890625
7.031,313,523,693,324,6.0,31.0,19.0,12.695311546325684,36.7431640625,-11.474608421325684,-0.2581787109375,0.1114501953125,-0.2266845703125
7.041,313,441,629,327,6.0,31.0,19.0,-7.202147960662842,31.555173873901367,-13.427733421325684,-0.4400634765625,0.20166015625,0.0150146484375
7.056,308,473,513,322,6.0,31.0,19.0,-25.024412155151367,20.202634811401367,-10.620116233825684,-0.637451171875,0.2803955078125,0.177001953125
7.066,306,439,465,317,6.0,31.0,19.0,-33.3251953125,11.596678733825684,-3.723144292831421,-0.74462890625,0.3455810546875,0.2305908203125
7.081,308,447,507,321,6.0,31.0,19.0,-33.69140625,7.446288585662842,5.432128429412842,-0.7474365234375,0.369140625,0.2308349609375
7.085,308,472,533,317,6.0,31.0,19.0,-28.198240280151367,6.286620616912842,12.695311546325684,-0.705078125,0.3560791015625,0.1966552734375
7.096,308,409,537,319,8.0,27.0,17.0,-20.812986373901367,6.347655773162842,14.831542015075684,-0.6568603515625,0.3231201171875,0.1529541015625
7.103,306,371,568,319,8.0,27.0,17.0,-18.49365234375,5.615233898162842,10.986327171325684,-0.6011962890625,0.2515869140625,0.1043701171875
7.128,308,361,578,321,8.0,27.0,17.0,-24.230955123901367,4.45556640625,2.38037109375,-0.58642578125,0.157470703125,0.05859375
7.131,293,383,601,319,8.0,27.0,17.0,-33.14208984375,3.540038824081421,-6.958007335662842,-0.6400146484375,0.081298828125,0.050537109375
7.137,308,411,600,321,8.0,27.0,17.0,-38.39111328125,2.25830078125,-12.023924827575684,-0.712158203125,0.0458984375,0.0606689453125
7.147,292,431,576,318,8.0,27.0,17.0,-37.109375,0.2441406100988388,-11.230467796325684,-0.7586669921875,0.0535888671875,0.0491943359375
7.170,304,461,573,318,8.0,27.0,17.0,-31.188962936401367,-2.44140625,-6.408690929412842,-0.763916015625,0.072021484375,0.01708984375
7.172,306,500,582,318,8.0,27.0,17.0,-24.291990280151367,-5.371093273162842,-0.9155272841453552,-0.7391357421875,0.0732421875,-0.026123046875
7.197,308,526,578,321,8.0,27.0,17.0,-16.9677734375,-7.812499523162842,3.112792730331421,-0.700439453125,0.060791015625,-0.069091796875
7.204,310,578,582,321,7.0,30.0,13.0,-9.09423828125,-9.6435546875,4.8828125,-0.661376953125,0.0557861328125,-0.0972900390625
7.228,308,620,567,321,7.0,30.0,13.0,-1.0986328125,-10.803221702575684,4.2724609375,-0.6414794921875,0.0872802734375,-0.1011962890625
7.234,306,605,582,318,7.0,30.0,13.0,5.859374523162842,-11.962889671325684,2.3193359375,-0.646484375,0.159912109375,-0.0755615234375
7.238,308,691,671,327,7.0,30.0,13.0,10.620116233825684,-13.916014671325684,0.3662109076976776,-0.6630859375,0.2303466796875,-0.029541015625
7.243,310,775,644,323,7.0,30.0,13.0,13.122557640075684,-17.02880859375,-0.8544921278953552,-0.6558837890625,0.2491455078125,0.021728515625
7.249,316,936,683,326,7.0,30.0,13.0,12.939452171325684,-21.057126998901367,-1.6479490995407104,-0.579833984375,0.19580078125,0.0452880859375
7.251,316,1755,751,319,7.0,30.0,13.0,11.718749046325684,-25.207517623901367,-2.01416015625,-0.4508056640625,0.1180419921875,0.04833984375
7.253,323,2364,765,324,7.0,30.0,13.0,16.90673828125,-29.418943405151367,-0.6713866591453552,-0.408935546875,0.158447265625,0.0966796875
7.263,321,2965,922,338,7.0,30.0,13.0,16.90673828125,-29.418943405151367,-0.6713866591453552,-0.4788818359375,0.3065185546875,0.172119140625
7.272,336,3147,1424,555,7.0,30.0,13.0,45.410152435302734,-41.992183685302734,13.854979515075684,-0.434814453125,0.331787109375,0.240478515625
7.281,352,3147,1775,800,8.0,29.0,23.0,35.15625,-50.170894622802734,15.319823265075684,-0.10595703125,0.08740234375,0.3070068359375
7.290,364,3147,2287,1103,8.0,29.0,23.0,35.15625,-50.170894622802734,15.319823265075684,0.27099609375,-0.1859130859375,0.36474609375
7.302,376,3147,2830,1575,8.0,29.0,23.0,3.417968511581421,-66.89453125,-16.54052734375,0.3631591796875,-0.02197265625,0.3453369140625
7.310,376,3147,2935,2032,8.0,29.0,23.0,11.413573265075684,-60.913082122802734,-38.75732421875,0.065673828125,0.5947265625,0.16552734375
7.333,386,3147,3000,2259,8.0,29.0,23.0,11.413573265075684,-60.913082122802734,-38.75732421875,-0.6927490234375,1.0997314453125,-0.072509765625
7.333,390,3147,3125,2684,8.0,29.0,23.0,-10.742186546325684,-2.0751953125,-65.0634765625,-1.679931640625,1.1063232421875,-0.1959228515625
7.341,398,3147,3147,2968,8.0,29.0,23.0,-41.870113372802734,13.671874046325684,-55.297847747802734,-2.465576171875,0.706298828125,-0.1934814453125
7.349,398,3147,3147,3113,8.0,29.0,23.0,-41.870113372802734,13.671874046325684,-55.297847747802734,-2.931640625,0.02685546875,-0.176513671875
7.368,437,3147,3147,3147,8.0,29.0,23.0,-53.527828216552734,-9.94873046875,-15.563963890075684,-3.180419921875,-0.545166015625,-0.11669921875
7.371,398,3147,3147,3147,8.0,29.0,23.0,-14.770506858825684,-22.277830123901367,0.7934569716453552,-3.226318359375,-0.537109375,0.0208740234375
7.378,398,3147,3077,3094,9.0,28.0,18.0,-14.770506858825684,-22.277830123901367,0.7934569716453552,-2.606689453125,-0.1748046875,-0.1158447265625
7.398,390,3147,3120,2941,9.0,28.0,18.0,87.70751190185547,-17.578125,38.87939453125,-1.4422607421875,0.47265625,-0.3626708984375
7.401,387,3147,3147,2803,9.0,28.0,18.0,94.72655487060547,-6.347655773162842,34.5458984375,-0.906494140625,1.3443603515625,-0.16796875
7.411,389,3147,3147,2591,9.0,28.0,18.0,94.72655487060547,-6.347655773162842,34.5458984375,-1.2650146484375,1.54248046875,0.236328125
7.435,389,3147,3147,2280,9.0,28.0,18.0,-29.357908248901367,6.347655773162842,-19.34814453125,-1.78662109375,0.8192138671875,0.4383544921875
7.436,398,3147,3140,2104,9.0,28.0,18.0,-73.3642578125,20.141599655151367,-38.330078125,-2.0465087890625,0.0360107421875,0.4090576171875
7.438,388,3147,3102,1846,9.0,28.0,18.0,-73.3642578125,20.141599655151367,-38.330078125,-2.026123046875,-0.214111328125,0.24072265625
7.452,385,3147,2992,1494,9.0,28.0,18.0,-19.4091796875,33.87451171875,-18.24951171875,-1.8299560546875,-0.145751953125,0.0386962890625
7.471,379,3147,2922,1222,9.0,28.0,18.0,8.9111328125,29.663084030151367,-3.295898199081421,-1.591796875,-0.0426025390625,-0.064453125
7.473,377,3147,2797,992,9.0,28.0,18.0,8.9111328125,29.663084030151367,-3.295898199081421,-1.366943359375,0.1002197265625,-0.06787109375
7.483,371,3147,2489,540,9.0,29.0,20.0,24.047849655151367,12.878417015075684,17.4560546875,-1.126953125,0.224365234375,-0.048828125
7.490,370,3147,2257,398,9.0,29.0,20.0,24.047849655151367,12.878417015075684,17.4560546875,-0.8392333984375,0.2672119140625,-0.033447265625
7.499,360,2598,1920,385,9.0,29.0,20.0,24.414060592651367,9.6435546875,25.207517623901367,-0.8392333984375,0.2672119140625,-0.033447265625
7.512,338,1470,1373,359,9.0,29.0,20.0,23.620603561401367,21.667478561401367,18.5546875,-0.2451171875,0.1290283203125,-0.1761474609375
7.536,330,878,1231,351,9.0,29.0,20.0,23.620603561401367,21.667478561401367,18.5546875,-0.1224365234375,0.0816650390625,-0.326416015625
7.542,327,697,1012,337,9.0,29.0,20.0,21.362302780151367,32.04345703125,4.0283203125,-0.1224365234375,0.0816650390625,-0.326416015625
7.572,316,514,675,328,9.0,29.0,20.0,7.934569835662842,40.649410247802734,-20.690916061401367,-0.327880859375,0.1673583984375,-0.224365234375
7.574,310,470,599,300,9.0,29.0,20.0,7.934569835662842,40.649410247802734,-20.690916061401367,-0.5828857421875,0.242431640625,0.0184326171875
7.581,308,428,455,302,9.0,29.0,20.0,-4.638671875,31.433103561401367,-22.277830123901367,-0.5828857421875,0.242431640625,0.0184326171875
7.588,306,479,431,321,9.0,29.0,20.0,-10.131834983825684,21.301267623901367,-17.51708984375,-0.745849609375,0.340576171875,0.1690673828125
7.593,304,499,487,299,7.0,29.0,19.0,-13.549803733825684,15.319823265075684,0.6713866591453552,-0.68310546875,0.3597412109375,0.2369384765625
7.598,310,518,527,321,7.0,29.0,19.0,-13.549803733825684,15.319823265075684,0.6713866591453552,-0.68310546875,0.3597412109375,0.2369384765625
7.613,308,479,539,321,7.0,29.0,19.0,-16.90673828125,16.17431640625,6.408690929412842,-0.609130859375,0.2401123046875,0.22412109375
7.639,306,507,548,323,7.0,29.0,19.0,-17.9443359375,15.075682640075684,3.662109136581421,-0.5499267578125,-0.0003662109375,0.17822265625
7.675,308,499,535,299,7.0,29.0,19.0,-17.9443359375,15.075682640075684,3.662109136581421,-0.58642578125,-0.0634765625,0.123779296875
7.696,308,495,553,300,7.0,29.0,19.0,-17.08984375,13.061522483825684,-2.0751953125,-0.58642578125,-0.0634765625,0.123779296875
7.707,306,466,588,318,7.0,29.0,19.0,-5.737304210662842,8.36181640625,-5.737304210662842,-0.7177734375,0.064208984375,0.090087890625
7.718,292,512,582,302,7.0,29.0,19.0,-5.737304210662842,8.36181640625,-5.737304210662842,-0.746826171875,0.1282958984375,0.0748291015625
7.752,308,562,578,327,7.0,29.0,19.0,-1.2817381620407104,4.45556640625,-1.8920897245407104,-0.746826171875,0.1282958984375,0.0748291015625
7.753,309,605,593,324,6.0,26.0,16.0,-0.7324218153953552,-2.807616949081421,6.958007335662842,-0.70166015625,0.1282958984375,0.0155029296875
7.753,308,559,588,330,6.0,26.0,16.0,-0.7324218153953552,-2.807616949081421,6.958007335662842,-0.651611328125,0.1168212890625,-0.0145263671875
7.754,306,620,548,317,6.0,26.0,16.0,0.2441406100988388,-4.94384765625,8.48388671875,-0.651611328125,0.1168212890625,-0.0145263671875
7.755,291,582,548,318,6.0,26.0,16.0,1.7700194120407104,-6.652831554412842,7.873534679412842,-0.6048583984375,0.11181640625,-0.0321044921875
7.758,310,603,601,321,6.0,26.0,16.0,2.25830078125,-7.812499523162842,6.042479991912842,-0.5157470703125,0.1170654296875,-0.06103515625
7.758,287,654,660,316,6.0,26.0,16.0,0.2441406100988388,-8.36181640625,4.2724609375,-0.5157470703125,0.1170654296875,-0.06103515625
7.759,293,859,683,317,6.0,26.0,16.0,-3.723144292831421,-9.70458984375,3.417968511581421,-0.454833984375,0.0731201171875,-0.0286865234375
7.760,315,1861,651,334,6.0,26.0,16.0,-6.347655773162842,-13.671874046325684,3.601073980331421,-0.3028564453125,-0.0142822265625,0.11767578125
7.761,317,2381,644,334,6.0,26.0,16.0,-1.8920897245407104,-19.59228515625,5.126952648162842,-0.3028564453125,-0.0142822265625,0.11767578125
7.761,316,3079,748,338,6.0,26.0,16.0,18.73779296875,-26.428220748901367,10.131834983825684,-0.4259033203125,0.23388671875,0.2275390625
7.778,334,3147,1494,400,10.0,28.0,20.0,48.400875091552734,-35.7666015625,20.324705123901367,-0.2564697265625,0.2509765625,0.3486328125
7.780,365,3147,2078,746,10.0,28.0,20.0,56.640621185302734,-47.607418060302734,27.893064498901367,-0.2564697265625,0.2509765625,0.3486328125
7.787,371,3147,2610,1038,10.0,28.0,20.0,37.17041015625,-59.448238372802734,21.240232467651367,0.3251953125,-0.1160888671875,0.3388671875
7.801,378,3147,2959,1623,10.0,28.0,20.0,19.10400390625,-65.7958984375,-3.112792730331421,0.534912109375,0.064453125,0.2059326171875
7.809,382,3147,3024,1718,10.0,28.0,20.0,11.901854515075684,-53.833003997802734,-35.888671875,-0.010009765625,0.7694091796875,-0.1463623046875
7.823,383,3147,3112,1920,10.0,28.0,20.0,-2.197265625,-18.6767578125,-61.767574310302734,-1.0286865234375,1.106201171875,-0.434814453125
7.844,389,3147,3147,2167,10.0,28.0,20.0,-28.137205123901367,18.37158203125,-72.6318359375,-2.0745849609375,0.91650390625,-0.4149169921875
7.844,391,3147,3147,2303,10.0,28.0,20.0,-56.335445404052734,31.433103561401367,-63.110347747802734,-2.7799072265625,0.6807861328125,-0.22900390625
7.848,418,3147,3147,2424,10.0,28.0,20.0,-74.03564453125,15.624999046325684,-37.9638671875,-3.124755859375,0.094970703125,-0.031494140625
7.862,391,3147,3147,2287,10.0,28.0,20.0,-68.42041015625,-7.202147960662842,-15.624999046325684,-3.302734375,-0.72314453125,0.1243896484375
7.883,390,3147,3147,2190,10.0,29.0,17.0,-29.113767623901367,-15.624999046325684,4.94384765625,-3.1029052734375,-0.967041015625,0.124755859375
7.884,383,3147,3147,2178,10.0,29.0,17.0,35.94970703125,-8.7890625,33.87451171875,-2.15576171875,-0.4908447265625,-0.1588134765625
7.891,387,3147,3147,2141,10.0,29.0,17.0,92.89550018310547,2.868652105331421,56.884761810302734,-1.2669677734375,0.6033935546875,-0.2376708984375
7.900,386,3147,3147,2087,10.0,29.0,17.0,95.39794158935547,5.920409679412842,57.434078216552734,-1.302734375,1.471923828125,0.058349609375
7.908,385,3147,3147,1960,10.0,29.0,17.0,29.907224655151367,5.676269054412842,35.82763671875,-1.676025390625,1.22216796875,0.267333984375
7.921,382,3147,3106,1641,10.0,29.0,17.0,-40.832515716552734,13.427733421325684,9.3994140625,-1.8388671875,0.4459228515625,0.263916015625
7.933,378,3147,3035,1430,10.0,29.0,17.0,-54.687496185302734,25.207517623901367,-2.3193359375,-1.825439453125,0.019287109375,0.11474609375
7.938,376,3147,2936,1143,10.0,29.0,17.0,-27.526853561401367,33.69140625,0.9155272841453552,-1.713623046875,0.0220947265625,-0.0675048828125
7.955,371,3147,2683,689,10.0,29.0,17.0,-2.746581792831421,34.60693359375,6.652831554412842,-1.5616455078125,0.177734375,-0.16943359375
7.960,371,3147,2514,495,10.0,29.0,17.0,2.807616949081421,28.442380905151367,10.375975608825684,-1.38330078125,0.31689453125,-0.1796875
7.978,362,3144,2345,396,11.0,26.0,18.0,-4.21142578125,19.6533203125,14.648436546325684,-1.183349609375,0.3228759765625,-0.145263671875
7.981,351,2392,1762,369,11.0,26.0,18.0,-10.253905296325684,13.610838890075684,19.59228515625,-0.9456787109375,0.217041015625,-0.114501953125
7.990,338,2089,1434,359,11.0,26.0,18.0,-4.7607421875,12.390135765075684,23.132322311401367,-0.6705322265625,0.074951171875,-0.1435546875
7.998,328,1083,1175,354,11.0,26.0,18.0,10.742186546325684,15.136717796325684,22.277830123901367,-0.4295654296875,-0.0242919921875,-0.2149658203125
8.011,319,600,922,330,11.0,26.0,18.0,27.160642623901367,21.118162155151367,14.587401390075684,-0.2650146484375,-0.0009765625,-0.3214111328125
8.024,315,456,700,324,11.0,26.0,18.0,35.2783203125,28.747556686401367,3.967284917831421,-0.2027587890625,0.1112060546875,-0.382568359375
8.408,307,453,470,318,11.0,26.0,18.0,2.13623046875,25.634763717651367,-8.23974609375,-0.5101318359375,0.39892578125,0.0775146484375
8.409,308,513,493,318,11.0,26.0,18.0,-25.573728561401367,15.808104515075684,-6.835937023162842,-0.721923828125,0.4500732421875,0.2789306640625
8.409,304,416,514,318,11.0,26.0,18.0,-41.748043060302734,9.46044921875,-0.6103515625,-0.8345947265625,0.4461669921875,0.31103515625
8.409,306,391,493,321,8.0,28.0,19.0,-40.344234466552734,8.4228515625,7.568358898162842,-0.8306884765625,0.41455078125,0.26025390625
8.409,308,423,480,318,8.0,28.0,19.0,-27.648923873901367,10.681151390075684,13.061522483825684,-0.7659912109375,0.337646484375,0.22705078125
8.409,306,419,461,316,8.0,28.0,19.0,-13.610838890075684,12.817381858825684,13.366698265075684,-0.69091796875,0.2371826171875,0.1966552734375
8.409,306,418,485,318,8.0,28.0,19.0,-4.94384765625,13.061522483825684,9.3994140625,-0.6319580078125,0.187255859375,0.1304931640625
8.409,308,419,508,321,8.0,28.0,19.0,-5.737304210662842,10.742186546325684,3.845214605331421,-0.6103515625,0.2044677734375,0.065185546875
8.409,310,444,508,321,8.0,28.0,19.0,-16.9677734375,6.958007335662842,-0.7324218153953552,-0.6260986328125,0.1990966796875,0.0269775390625
8.409,306,418,522,317,8.0,28.0,19.0,-31.616209030151367,3.967284917831421,-2.990722417831421,-0.669677734375,0.1478271484375,0.01171875
8.409,291,381,525,298,8.0,28.0,19.0,-39.1845703125,1.7700194120407104,-1.9531248807907104,-0.6981201171875,0.0823974609375,0.0208740234375
8.409,307,423,531,318,8.0,28.0,19.0,-36.43798828125,-1.3427733182907104,1.7089842557907104,-0.690185546875,0.0133056640625,0.041015625
8.409,306,411,537,299,8.0,28.0,19.0,-28.015134811401367,-5.310058116912842,5.737304210662842,-0.6494140625,-0.0479736328125,0.0487060546875
8.411,308,426,521,317,10.0,31.0,15.0,-19.04296875,-8.23974609375,8.23974609375,-0.5875244140625,-0.085205078125,0.03271484375
8.411,307,428,526,318,10.0,31.0,15.0,-10.559081077575684,-9.033203125,7.751464366912842,-0.5203857421875,-0.080322265625,-0.0047607421875
8.411,306,447,519,299,10.0,31.0,15.0,-2.685546636581421,-8.36181640625,4.82177734375,-0.4549560546875,-0.0423583984375,-0.046142578125
8.411,308,442,497,316,10.0,31.0,15.0,2.929687261581421,-8.056640625,1.03759765625,-0.404541015625,-0.0123291015625,-0.0697021484375
8.411,305,487,481,321,10.0,31.0,15.0,6.103515148162842,-9.27734375,-1.8310545682907104,-0.3724365234375,-0.006103515625,-0.07177734375
8.411,306,586,516,324,10.0,31.0,15.0,9.58251953125,-11.901854515075684,-2.807616949081421,-0.3333740234375,-0.0042724609375,-0.0753173828125
8.411,310,887,631,321,10.0,31.0,15.0,14.160155296325684,-15.319823265075684,-2.807616949081421,-0.275390625,0.018310546875,-0.0775146484375
8.411,314,1929,628,329,10.0,31.0,15.0,18.9208984375,-20.01953125,-3.295898199081421,-0.195068359375,0.0343017578125,-0.0087890625
8.411,312,3147,591,328,10.0,31.0,15.0,21.118162155151367,-26.916501998901367,-4.7607421875,-0.0924072265625,0.068359375,0.1220703125
8.411,316,3147,755,976,7.0,25.0,20.0,26.733396530151367,-33.99658203125,-4.33349609375,-0.370849609375,0.46484375,0.365478515625
8.412,317,3147,971,1146,7.0,25.0,20.0,49.011226654052734,-46.386714935302734,6.225585460662842,-0.784912109375,0.8663330078125,0.5970458984375
8.412,332,3147,1390,1316,7.0,25.0,20.0,62.805171966552734,-65.185546875,14.343260765075684,-0.5389404296875,0.552734375,0.468017578125
8.412,361,3147,2505,1996,7.0,25.0,20.0,32.5927734375,-80.62743377685547,-3.723144292831421,-0.0098876953125,0.073974609375,0.260498046875
8.412,373,3147,2766,2306,7.0,25.0,20.0,-21.057126998901367,-82.64159393310547,-37.90283203125,0.113525390625,0.30029296875,0.197021484375
8.412,376,3147,2843,2567,7.0,25.0,20.0,-60.668941497802734,-57.128902435302734,-65.0634765625,-0.3433837890625,0.9189453125,-0.1658935546875
8.412,378,3147,2962,3093,7.0,25.0,20.0,-85.08300018310547,-7.202147960662842,-75.439453125,-1.1834716796875,0.9241943359375,-0.5848388671875
8.412,377,3147,3015,3147,7.0,25.0,20.0,-97.65624237060547,35.15625,-69.82421875,-2.107666015625,0.51318359375,-0.482177734375
8.412,376,3147,3084,3147,7.0,25.0,20.0,-103.02733612060547,38.87939453125,-53.222652435302734,-2.7890625,0.2294921875,-0.103271484375
8.412,385,3147,3147,3147,7.0,25.0,20.0,-104.49217987060547,9.09423828125,-32.04345703125,-3.1429443359375,-0.240478515625,0.1270751953125
8.412,388,3147,3147,3147,12.0,26.0,16.0,-78.43017578125,-19.95849609375,-12.084959983825684,-3.2935791015625,-0.67578125,0.232666015625
8.412,385,3147,3015,3147,12.0,26.0,16.0,-15.197752952575684,-28.625486373901367,13.366698265075684,-2.939697265625,-0.7271728515625,0.1290283203125
8.412,396,3147,3012,3147,12.0,26.0,16.0,62.622066497802734,-18.98193359375,43.395992279052734,-1.9232177734375,-0.3638916015625,-0.221435546875
8.412,385,3147,3071,3147,12.0,26.0,16.0,122.37548065185547,-2.990722417831421,60.119625091552734,-1.1702880859375,0.6956787109375,-0.2545166015625
8.413,387,3147,3110,3147,12.0,26.0,16.0,122.37548065185547,-2.990722417831421,60.119625091552734,-1.3282470703125,1.645263671875,0.0599365234375
8.413,387,3147,3054,2850,12.0,26.0,16.0,37.04833984375,5.981444835662842,27.954099655151367,-1.7664794921875,1.3568115234375,0.2706298828125
8.425,385,3147,2993,2534,12.0,26.0,16.0,-52.490230560302734,13.610838890075684,-1.7089842557907104,-1.9779052734375,0.4493408203125,0.2740478515625
8.428,385,3147,2877,2281,12.0,26.0,16.0,-52.490230560302734,13.610838890075684,-1.7089842557907104,-1.968505859375,-0.0401611328125,0.1265869140625
8.463,382,3147,2634,1999,12.0,26.0,16.0,-33.87451171875,29.602048873901367,-5.126952648162842,-1.8232421875,-0.0635986328125,-0.041015625
8.463,375,3147,2473,1681,12.0,26.0,16.0,2.0751953125,26.550291061401367,7.202147960662842,-1.5985107421875,0.1177978515625,-0.1175537109375
8.464,373,3147,2328,1302,11.0,27.0,21.0,2.0751953125,26.550291061401367,7.202147960662842,-1.3489990234375,0.3240966796875,-0.1153564453125
8.475,363,3147,1970,623,11.0,27.0,21.0,10.437010765075684,10.253905296325684,18.06640625,-1.1121826171875,0.361328125,-0.07275390625
8.481,356,3147,1719,375,11.0,27.0,21.0,0.4272460639476776,7.873534679412842,19.53125,-0.87255859375,0.2685546875,-0.0347900390625
8.494,338,2381,1302,353,11.0,27.0,21.0,0.4272460639476776,7.873534679412842,19.53125,-0.6131591796875,0.1104736328125,-0.0665283203125
8.502,323,1095,951,329,11.0,27.0,21.0,17.63916015625,22.338865280151367,15.563963890075684,-0.3843994140625,-0.0699462890625,-0.1971435546875
8.510,318,749,691,325,11.0,27.0,21.0,37.29248046875,34.7900390625,8.6669921875,-0.247314453125,-0.1173095703125,-0.377197265625
8.518,312,562,625,321,11.0,27.0,21.0,37.29248046875,34.7900390625,8.6669921875,-0.23974609375,0.0174560546875,-0.4078369140625
8.539,307,487,519,319,11.0,27.0,21.0,42.907711029052734,45.288082122802734,-2.01416015625,-0.3756103515625,0.22216796875,-0.20947265625
8.559,313,413,461,316,11.0,27.0,21.0,12.573241233825684,36.62109375,-5.920409679412842,-0.6129150390625,0.3704833984375,0.0706787109375
8.570,310,456,466,321,11.0,27.0,21.0,12.573241233825684,36.62109375,-5.920409679412842,-0.8192138671875,0.4522705078125,0.2762451171875
8.573,308,421,482,321,10.0,26.0,15.0,-29.479978561401367,19.83642578125,-3.295898199081421,-0.8599853515625,0.461669921875,0.3485107421875
8.573,308,481,437,300,10.0,26.0,15.0,-23.803709030151367,18.9208984375,3.845214605331421,-0.7723388671875,0.3707275390625,0.3270263671875
8.579,306,506,455,318,10.0,26.0,15.0,-23.803709030151367,18.9208984375,3.845214605331421,-0.6702880859375,0.2247314453125,0.2578125
8.602,306,487,433,318,10.0,26.0,15.0,-2.38037109375,19.8974609375,7.751464366912842,-0.6011962890625,0.1220703125,0.15087890625
8.603,308,501,430,318,10.0,26.0,15.0,-2.38037109375,18.1884765625,4.150390625,-0.5709228515625,0.1109619140625,0.0574951171875
8.609,305,526,428,317,10.0,26.0,15.0,-2.38037109375,18.1884765625,4.150390625,-0.5709228515625,0.1109619140625,0.0574951171875
8.623,306,481,404,316,10.0,26.0,15.0,-14.709471702575684,12.329100608825684,-0.6103515625,-0.644775390625,0.1351318359375,0.0205078125
8.630,306,466,383,318,10.0,26.0,15.0,-14.709471702575684,12.329100608825684,-0.6103515625,-0.6695556640625,0.165771484375,0.0052490234375
8.639,305,456,372,316,10.0,26.0,15.0,-16.05224609375,9.09423828125,0.0610351525247097,-0.6695556640625,0.165771484375,0.0052490234375
8.662,306,464,404,318,9.0,32.0,17.0,-14.709471702575684,4.08935546875,3.356933355331421,-0.67236328125,0.1629638671875,-0.0074462890625
8.662,302,479,389,318,9.0,32.0,17.0,-14.709471702575684,4.08935546875,3.356933355331421,-0.677001953125,0.1058349609375,0.0159912109375
8.676,305,470,388,318,9.0,32.0,17.0,-16.7236328125,1.4648436307907104,2.624511480331421,-0.677001953125,0.1058349609375,0.0159912109375
8.683,306,465,385,318,9.0,32.0,17.0,-18.310546875,-3.540038824081421,-4.21142578125,-0.6392822265625,0.096435546875,0.058349609375
8.697,306,464,385,318,9.0,32.0,17.0,-18.310546875,-3.540038824081421,-4.21142578125,-0.6181640625,0.1475830078125,0.057861328125
8.702,304,458,364,316,9.0,32.0,17.0,-15.502928733825684,-4.82177734375,-7.019042491912842,-0.6181640625,0.1475830078125,0.057861328125
8.712,306,484,382,318,9.0,32.0,17.0,-7.934569835662842,-8.056640625,-6.530761241912842,-0.515625,0.200439453125,0.068359375
8.721,306,484,410,318,9.0,32.0,17.0,-7.934569835662842,-8.056640625,-6.530761241912842,-0.4052734375,0.1776123046875,0.056640625
8.728,307,481,404,318,9.0,32.0,17.0,-6.774901866912842,-11.047362327575684,-4.7607421875,-0.4052734375,0.1776123046875,0.056640625
