time,compression0,compression1,compression2,compression3,magn_x,magn_y,magn_z,gyro_x,gyro_y,gyro_z,accel_x,accel_y,accel_z
0.011,306,308,418,617,-4.0,35.0,15.0,-4.39453125,-4.45556640625,-1.3427733182907104,-0.955322265625,0.5064697265625,-0.2923583984375
0.012,308,308,445,603,-4.0,35.0,15.0,-4.5166015625,-4.2724609375,-1.6479490995407104,-0.934814453125,0.4813232421875,-0.2838134765625
0.013,308,308,464,600,-4.0,35.0,15.0,-3.051757574081421,-4.21142578125,-2.685546636581421,-0.9122314453125,0.4693603515625,-0.2813720703125
0.022,307,308,486,587,-4.0,35.0,15.0,-1.15966796875,-4.33349609375,-3.906249761581421,-0.889892578125,0.46728515625,-0.2791748046875
0.030,308,308,523,582,-4.0,35.0,15.0,0.4272460639476776,-4.8828125,-5.554198741912842,-0.87158203125,0.47705078125,-0.2767333984375
0.038,308,308,535,589,-4.0,35.0,15.0,1.4038084745407104,-5.859374523162842,-7.873534679412842,-0.86328125,0.489013671875,-0.2691650390625
0.059,307,307,548,571,-4.0,35.0,15.0,1.7089842557907104,-7.263183116912842,-10.559081077575684,-0.8629150390625,0.4862060546875,-0.251953125
0.060,308,308,548,599,-4.0,35.0,14.0,2.3193359375,-8.85009765625,-13.183592796325684,-0.8670654296875,0.4759521484375,-0.24072265625
0.068,308,308,564,605,-4.0,35.0,14.0,4.2724609375,-10.131834983825684,-15.136717796325684,-0.868896484375,0.48046875,-0.2408447265625
0.082,308,308,553,590,-4.0,35.0,14.0,6.408690929412842,-11.108397483825684,-16.2353515625,-0.867919921875,0.48486328125,-0.238525390625
0.101,307,308,548,607,-4.0,35.0,14.0,6.774901866912842,-11.901854515075684,-17.333984375,-0.867919921875,0.4705810546875,-0.234130859375
0.101,306,307,540,593,-4.0,35.0,14.0,6.591796398162842,-12.451170921325684,-18.9208984375,-0.8719482421875,0.44921875,-0.2291259765625
0.116,307,308,536,598,-4.0,35.0,14.0,7.324218273162842,-13.000487327575684,-20.629880905151367,-0.8795166015625,0.4190673828125,-0.217529296875
0.120,306,308,512,598,-4.0,35.0,14.0,9.1552734375,-13.793944358825684,-22.033689498901367,-0.887939453125,0.3861083984375,-0.2127685546875
0.128,308,309,336,481,-4.0,35.0,14.0,11.657713890075684,-14.160155296325684,-22.827146530151367,-0.888916015625,0.3929443359375,-0.2293701171875
0.142,306,306,509,616,-4.0,35.0,14.0,12.634276390075684,-13.305663108825684,-22.888181686401367,-0.8837890625,0.424560546875,-0.2401123046875
0.163,308,306,498,376,-4.0,35.0,14.0,10.253905296325684,-11.840819358825684,-22.399900436401367,-0.88330078125,0.4342041015625,-0.2257080078125
0.165,308,309,317,322,-4.0,34.0,12.0,6.042479991912842,-10.437010765075684,-21.667478561401367,-0.8848876953125,0.4166259765625,-0.2001953125
0.178,308,307,338,532,-4.0,34.0,12.0,2.868652105331421,-9.21630859375,-20.202634811401367,-0.88232421875,0.3790283203125,-0.1778564453125
0.180,289,307,318,318,-4.0,34.0,12.0,1.6479490995407104,-8.23974609375,-17.39501953125,-0.8709716796875,0.3433837890625,-0.1627197265625
0.196,308,306,338,338,-4.0,34.0,12.0,1.8310545682907104,-7.263183116912842,-13.671874046325684,-0.8553466796875,0.33251953125,-0.155517578125
0.202,308,308,497,552,-4.0,34.0,12.0,1.6479490995407104,-6.408690929412842,-10.070799827575684,-0.8497314453125,0.342041015625,-0.1611328125
0.217,307,308,497,584,-4.0,34.0,12.0,0.9155272841453552,-5.859374523162842,-7.263183116912842,-0.85595703125,0.3642578125,-0.1822509765625
0.224,308,307,349,362,-4.0,34.0,12.0,0.2441406100988388,-6.042479991912842,-5.126952648162842,-0.8609619140625,0.3887939453125,-0.203369140625
0.232,309,308,346,347,-4.0,34.0,12.0,-0.7324218153953552,-6.713866710662842,-3.479003667831421,-0.860107421875,0.408203125,-0.21142578125
0.240,308,308,323,323,-4.0,34.0,12.0,-2.0751953125,-7.202147960662842,-2.929687261581421,-0.8577880859375,0.423583984375,-0.2108154296875
0.266,307,308,316,316,-4.0,34.0,12.0,-3.234863042831421,-7.568358898162842,-3.356933355331421,-0.8533935546875,0.429931640625,-0.2044677734375
0.267,287,307,329,324,-2.0,33.0,17.0,-3.662109136581421,-8.30078125,-4.45556640625,-0.849365234375,0.42626953125,-0.1944580078125
0.270,307,308,325,324,-2.0,33.0,17.0,-3.356933355331421,-9.27734375,-5.920409679412842,-0.8489990234375,0.4173583984375,-0.186279296875
0.278,308,308,324,321,-2.0,33.0,17.0,-2.624511480331421,-10.375975608825684,-7.446288585662842,-0.8541259765625,0.4031982421875,-0.1839599609375
0.302,306,308,323,323,-2.0,33.0,17.0,-1.220703125,-11.413573265075684,-8.6669921875,-0.8675537109375,0.3885498046875,-0.1876220703125
0.302,307,307,322,323,-2.0,33.0,17.0,0.4882812201976776,-12.268065452575684,-9.27734375,-0.8831787109375,0.3779296875,-0.18994140625
0.308,308,307,345,337,-2.0,33.0,17.0,1.8920897245407104,-12.939452171325684,-9.46044921875,-0.89306640625,0.3709716796875,-0.18798828125
0.323,307,308,334,334,-2.0,33.0,17.0,2.685546636581421,-13.244627952575684,-9.6435546875,-0.893310546875,0.37060546875,-0.1844482421875
0.330,307,306,338,383,-2.0,33.0,17.0,3.112792730331421,-13.244627952575684,-9.94873046875,-0.887451171875,0.3770751953125,-0.1796875
0.338,308,308,338,338,-2.0,33.0,17.0,3.112792730331421,-13.244627952575684,-9.94873046875,-0.880859375,0.3861083984375,-0.1756591796875
0.367,308,309,586,601,0.0,33.0,19.0,2.746581792831421,-13.305663108825684,-11.352538108825684,-0.8758544921875,0.3902587890625,-0.174072265625
0.368,310,307,377,382,0.0,33.0,19.0,2.3193359375,-13.610838890075684,-12.268065452575684,-0.8758544921875,0.392578125,-0.1728515625
0.368,307,308,385,344,0.0,33.0,19.0,2.3193359375,-13.610838890075684,-12.268065452575684,-0.8779296875,0.3983154296875,-0.171875
0.382,306,308,359,351,0.0,33.0,19.0,1.0986328125,-14.099120140075684,-13.610838890075684,-0.8760986328125,0.4029541015625,-0.1715087890625
0.390,308,308,631,617,0.0,33.0,19.0,-0.7324218153953552,-14.343260765075684,-14.099120140075684,-0.8699951171875,0.4007568359375,-0.1689453125
0.408,308,308,466,454,0.0,33.0,19.0,-0.7324218153953552,-14.343260765075684,-14.099120140075684,-0.865234375,0.389892578125,-0.16357421875
0.412,306,308,401,378,0.0,33.0,19.0,-7.019042491912842,-14.648436546325684,-15.136717796325684,-0.871826171875,0.376953125,-0.153564453125
0.420,307,307,364,364,0.0,33.0,19.0,-9.58251953125,-14.038084983825684,-15.563963890075684,-0.8880615234375,0.36767578125,-0.1417236328125
0.429,307,307,509,398,0.0,33.0,19.0,-9.58251953125,-14.038084983825684,-15.563963890075684,-0.9039306640625,0.363525390625,-0.1400146484375
0.442,308,308,689,346,0.0,33.0,19.0,-10.192870140075684,-12.329100608825684,-14.953612327575684,-0.915283203125,0.3575439453125,-0.1414794921875
0.450,306,306,531,513,1.0,32.0,12.0,-10.009765625,-11.596678733825684,-13.916014671325684,-0.9202880859375,0.3465576171875,-0.141845703125
0.471,308,307,800,682,1.0,32.0,12.0,-10.009765625,-11.596678733825684,-13.916014671325684,-0.921142578125,0.33544921875,-0.1419677734375
0.472,307,308,802,512,1.0,32.0,12.0,-9.33837890625,-10.375975608825684,-11.657713890075684,-0.9180908203125,0.3194580078125,-0.1370849609375
0.480,308,308,814,725,1.0,32.0,12.0,-8.48388671875,-10.192870140075684,-10.192870140075684,-0.9090576171875,0.2994384765625,-0.1297607421875
0.490,308,308,824,731,1.0,32.0,12.0,-8.48388671875,-10.192870140075684,-10.192870140075684,-0.89306640625,0.28125,-0.1231689453125
0.510,306,308,377,466,1.0,32.0,12.0,-7.690429210662842,-9.82666015625,-5.615233898162842,-0.8680419921875,0.2607421875,-0.1148681640625
0.512,308,308,766,481,1.0,32.0,12.0,-8.11767578125,-9.46044921875,-2.929687261581421,-0.837890625,0.244384765625,-0.1085205078125
0.518,308,306,874,682,1.0,32.0,12.0,-8.11767578125,-9.46044921875,-2.929687261581421,-0.81201171875,0.240478515625,-0.10107421875
0.541,308,307,890,802,1.0,32.0,12.0,-5.554198741912842,-8.6669921875,1.6479490995407104,-0.7940673828125,0.2508544921875,-0.0931396484375
0.541,308,307,349,344,1.0,32.0,12.0,-3.906249761581421,-7.507323741912842,3.967284917831421,-0.77587890625,0.2763671875,-0.0968017578125
0.548,308,308,382,376,0.0,32.0,18.0,-3.906249761581421,-7.507323741912842,3.967284917831421,-0.749267578125,0.286865234375,-0.1129150390625
0.571,308,308,334,327,0.0,32.0,18.0,-5.676269054412842,-5.371093273162842,10.192870140075684,-0.7191162109375,0.266357421875,-0.13720703125
0.572,308,306,332,332,0.0,32.0,18.0,-5.676269054412842,-5.371093273162842,10.192870140075684,-0.7015380859375,0.25537109375,-0.156982421875
0.578,307,306,345,330,0.0,32.0,18.0,-6.225585460662842,-5.0048828125,13.427733421325684,-0.7015380859375,0.25537109375,-0.156982421875
0.593,308,308,336,336,0.0,32.0,18.0,-9.8876953125,-3.784179449081421,17.9443359375,-0.6483154296875,0.279052734375,-0.16357421875
0.666,307,308,328,330,0.0,32.0,18.0,-9.8876953125,-3.784179449081421,17.9443359375,-0.584716796875,0.2969970703125,-0.118408203125
0.667,308,306,499,499,0.0,32.0,18.0,-17.51708984375,-2.990722417831421,17.02880859375,-0.584716796875,0.2969970703125,-0.118408203125
0.667,308,310,321,372,0.0,32.0,18.0,-33.0810546875,-12.084959983825684,2.25830078125,-0.3759765625,0.3468017578125,0.0087890625
0.667,306,308,316,3147,0.0,32.0,18.0,-33.0810546875,-12.084959983825684,2.25830078125,-0.2559814453125,0.2877197265625,0.0562744140625
0.667,306,306,336,319,0.0,32.0,18.0,-30.212400436401367,-27.770994186401367,-12.390135765075684,-0.2559814453125,0.2877197265625,0.0562744140625
0.667,310,383,313,317,0.0,30.0,21.0,0.7934569716453552,-65.7958984375,-48.034664154052734,-0.339599609375,0.293701171875,0.0904541015625
0.683,792,308,578,605,0.0,30.0,21.0,0.7934569716453552,-65.7958984375,-48.034664154052734,-0.65771484375,0.5126953125,0.1405029296875
0.684,2832,3147,307,333,0.0,30.0,21.0,16.78466796875,-80.99364471435547,-57.128902435302734,-0.65771484375,0.5126953125,0.1405029296875
0.691,555,3147,3058,2748,0.0,30.0,21.0,14.160155296325684,-86.85301971435547,-49.133296966552734,-1.3115234375,1.0291748046875,-0.033447265625
0.697,383,3147,3147,3147,0.0,30.0,21.0,14.160155296325684,-86.85301971435547,-49.133296966552734,-1.566650390625,0.958740234375,-0.0843505859375
0.725,3141,3147,567,323,0.0,30.0,21.0,2.746581792831421,-74.5849609375,-43.701168060302734,-1.566650390625,0.958740234375,-0.0843505859375
0.725,3147,3147,634,1625,0.0,30.0,21.0,-10.559081077575684,-54.565425872802734,-39.1845703125,-1.8082275390625,0.748779296875,-0.02392578125
0.728,3147,3147,295,327,0.0,30.0,21.0,-28.015134811401367,-9.1552734375,-24.047849655151367,-2.4676513671875,-0.0400390625,-0.1717529296875
0.738,447,3147,3147,3147,0.0,30.0,21.0,-28.015134811401367,-9.1552734375,-24.047849655151367,-2.1357421875,-0.35498046875,-0.4422607421875
0.740,470,3147,3147,3147,0.0,30.0,21.0,-24.230955123901367,11.352538108825684,-16.66259765625,-2.1357421875,-0.35498046875,-0.4422607421875
0.752,3147,3147,308,315,2.0,29.0,22.0,-6.347655773162842,27.160642623901367,-4.08935546875,-1.1934814453125,0.619384765625,-0.2127685546875
0.777,497,3147,3147,3147,2.0,29.0,22.0,-6.347655773162842,27.160642623901367,-4.08935546875,-1.46875,0.7628173828125,0.098388671875
0.777,992,3147,3147,3144,2.0,29.0,22.0,-18.4326171875,23.803709030151367,-8.30078125,-1.46875,0.7628173828125,0.098388671875
0.788,553,3147,3139,2792,2.0,29.0,22.0,-39.12353515625,22.949216842651367,-15.930174827575684,-1.710205078125,0.1512451171875,0.0506591796875
0.790,533,3147,2940,2504,2.0,29.0,22.0,-38.63525390625,24.719236373901367,-16.4794921875,-1.710205078125,0.1512451171875,0.0506591796875
0.798,404,3147,2955,2160,2.0,29.0,22.0,-15.441893577575684,24.902341842651367,-8.60595703125,-1.575927734375,0.31396484375,-0.099365234375
0.817,404,3147,1897,316,2.0,29.0,22.0,4.57763671875,24.353025436401367,-1.0986328125,-1.1661376953125,0.5609130859375,-0.2880859375
0.820,2504,3147,309,1184,2.0,29.0,22.0,10.070799827575684,25.085447311401367,0.6713866591453552,-1.1661376953125,0.5609130859375,-0.2880859375
0.828,466,3147,308,400,2.0,29.0,22.0,6.408690929412842,25.573728561401367,-2.624511480331421,-0.978759765625,0.6021728515625,-0.2337646484375
0.842,2156,3115,2102,519,1.0,30.0,17.0,-1.5869139432907104,24.536130905151367,-9.21630859375,-0.755615234375,0.517578125,-0.10693359375
0.850,473,2448,1914,308,1.0,30.0,17.0,-12.329100608825684,23.193357467651367,-17.02880859375,-0.755615234375,0.517578125,-0.10693359375
0.858,468,1891,1527,697,1.0,30.0,17.0,-23.376462936401367,23.071287155151367,-23.864744186401367,-0.636474609375,0.38720703125,-0.192138671875
0.879,1529,1385,652,308,1.0,30.0,17.0,-31.738279342651367,24.902341842651367,-28.015134811401367,-0.448486328125,0.1302490234375,-0.373291015625
0.880,1318,1031,605,491,1.0,30.0,17.0,-36.376953125,27.282712936401367,-28.930662155151367,-0.448486328125,0.1302490234375,-0.373291015625
0.888,472,794,991,370,1.0,30.0,17.0,-37.353515625,27.282712936401367,-26.672361373901367,-0.48388671875,0.05224609375,-0.2718505859375
0.902,849,546,684,336,1.0,30.0,17.0,-35.888671875,23.376462936401367,-23.315427780151367,-0.642578125,-0.114501953125,0.0693359375
0.919,753,607,306,308,1.0,30.0,17.0,-31.982419967651367,17.76123046875,-20.690916061401367,-0.642578125,-0.114501953125,0.0693359375
0.920,427,625,559,308,1.0,30.0,17.0,-24.169919967651367,13.977049827575684,-17.7001953125,-0.681640625,-0.1053466796875,0.1234130859375
0.932,600,628,409,370,1.0,30.0,17.0,-13.427733421325684,12.512206077575684,-12.145995140075684,-0.639892578125,0.111328125,0.1805419921875
0.941,572,758,308,308,5.0,33.0,23.0,-2.624511480331421,10.314940452575684,-4.8828125,-0.639892578125,0.111328125,0.1805419921875
0.948,378,787,306,318,5.0,33.0,23.0,6.896972179412842,6.347655773162842,0.7934569716453552,-0.5947265625,0.140380859375,0.226806640625
0.962,310,308,308,308,5.0,33.0,23.0,15.441893577575684,2.624511480331421,4.150390625,-0.542724609375,0.194580078125,0.224365234375
0.982,725,710,308,308,5.0,33.0,23.0,21.972654342651367,0.4882812201976776,6.713866710662842,-0.542724609375,0.194580078125,0.224365234375
0.982,306,308,310,309,5.0,33.0,23.0,22.888181686401367,-0.4882812201976776,8.9111328125,-0.5577392578125,0.1917724609375,0.1898193359375
0.992,984,922,307,308,5.0,33.0,23.0,18.798828125,-0.4882812201976776,10.498045921325684,-0.6488037109375,0.1214599609375,0.0225830078125
1.003,1170,1103,308,307,5.0,33.0,23.0,15.991209983825684,-0.1220703050494194,13.183592796325684,-0.6488037109375,0.1214599609375,0.0225830078125
1.020,1336,1508,308,308,5.0,33.0,23.0,17.88330078125,-1.03759765625,18.9208984375,-0.7041015625,0.1519775390625,-0.0697021484375
1.022,313,308,316,315,5.0,33.0,23.0,22.644041061401367,-3.723144292831421,26.611326217651367,-0.7672119140625,0.21240234375,-0.1483154296875
1.030,1550,2260,308,308,5.0,33.0,23.0,26.550291061401367,-6.958007335662842,33.0810546875,-0.8226318359375,0.265869140625,-0.1937255859375
1.038,1602,2525,308,308,3.0,32.0,21.0,26.367185592651367,-10.498045921325684,35.888671875,-0.84375,0.2930908203125,-0.175048828125
1.052,1757,3061,306,306,3.0,32.0,21.0,24.047849655151367,-15.258788108825684,35.5224609375,-0.8089599609375,0.308837890625,-0.114990234375
1.060,1840,3147,306,308,3.0,32.0,21.0,23.254392623901367,-21.484373092651367,33.935546875,-0.7322998046875,0.3128662109375,-0.0665283203125
1.085,1918,3147,308,310,3.0,32.0,21.0,22.705076217651367,-27.465818405151367,32.3486328125,-0.6473388671875,0.2818603515625,-0.0411376953125
1.086,2071,3147,308,329,3.0,32.0,21.0,17.9443359375,-32.1044921875,30.029294967651367,-0.5567626953125,0.1754150390625,-0.04150390625
1.090,2153,3147,314,307,3.0,32.0,21.0,9.8876953125,-35.2783203125,26.428220748901367,-0.4488525390625,0.060791015625,-0.026123046875
1.098,750,3147,2080,809,3.0,32.0,21.0,3.540038824081421,-38.9404296875,22.888181686401367,-0.364990234375,0.041748046875,0.0416259765625
1.126,2541,3147,308,310,3.0,32.0,21.0,2.563476324081421,-45.532222747802734,19.287109375,-0.315185546875,0.0560302734375,0.11376953125
1.127,2736,3147,308,310,3.0,32.0,21.0,8.48388671875,-54.809566497802734,12.756346702575684,-0.3011474609375,0.123779296875,0.16162109375
1.128,2941,3147,310,308,3.0,32.0,21.0,20.629880905151367,-60.180660247802734,5.371093273162842,-0.4378662109375,0.43505859375,0.12109375
1.142,3147,3147,2818,3147,1.0,29.0,26.0,30.029294967651367,-55.236812591552734,2.13623046875,-0.7615966796875,0.907958984375,-0.0213623046875
1.150,3147,3147,305,3147,1.0,29.0,26.0,22.827146530151367,-41.625972747802734,1.4038084745407104,-1.1951904296875,1.1109619140625,-0.1956787109375
1.168,3147,3147,1787,316,1.0,29.0,26.0,0.6713866591453552,-24.047849655151367,-0.1831054538488388,-1.6810302734375,1.00390625,-0.282470703125
1.188,3147,3147,2233,1769,1.0,29.0,26.0,-22.705076217651367,-10.925292015075684,-1.8310545682907104,-2.1485595703125,0.7464599609375,-0.2076416015625
1.189,3147,3147,307,313,1.0,29.0,26.0,-37.59765625,-7.385253429412842,-2.197265625,-2.442626953125,0.35302734375,-0.0384521484375
1.189,3147,3147,308,317,1.0,29.0,26.0,-38.57421875,-7.690429210662842,-1.0986328125,-2.4681396484375,0.08056640625,-0.0032958984375
1.202,607,3147,3147,3147,1.0,29.0,26.0,-22.155759811401367,-3.112792730331421,2.807616949081421,-2.046630859375,0.0640869140625,-0.21435546875
1.210,2888,3147,336,338,1.0,29.0,26.0,1.2817381620407104,6.835937023162842,7.629394054412842,-1.302978515625,0.347900390625,-0.38671875
1.229,980,347,3147,3147,1.0,29.0,26.0,11.108397483825684,15.686034202575684,5.798339366912842,-0.9334716796875,0.7767333984375,-0.3114013671875
1.238,1370,3147,2453,3147,2.0,30.0,21.0,-4.94384765625,20.446775436401367,-6.347655773162842,-1.2496337890625,0.8709716796875,-0.0302734375
1.240,1233,3147,2563,3147,2.0,30.0,21.0,-32.65380859375,22.644041061401367,-20.385740280151367,-1.80517578125,0.5413818359375,0.2208251953125
1.248,2683,3147,307,310,2.0,30.0,21.0,-41.076656341552734,22.949216842651367,-23.254392623901367,-2.04296875,0.2119140625,0.2452392578125
1.262,512,1739,308,308,2.0,30.0,21.0,-21.301267623901367,21.057126998901367,-12.817381858825684,-1.86669921875,0.1910400390625,0.0931396484375
1.270,2912,3147,308,2268,2.0,30.0,21.0,6.652831554412842,18.73779296875,0.4272460639476776,-1.5091552734375,0.311767578125,-0.0943603515625
1.289,505,3147,2848,1968,2.0,30.0,21.0,23.498533248901367,18.85986328125,6.958007335662842,-1.1910400390625,0.382568359375,-0.2186279296875
1.292,2504,3147,334,390,2.0,30.0,21.0,27.954099655151367,22.155759811401367,6.591796398162842,-0.9552001953125,0.4837646484375,-0.2315673828125
1.300,578,3147,2292,816,2.0,30.0,21.0,23.437498092651367,26.489255905151367,2.685546636581421,-0.7921142578125,0.6146240234375,-0.15380859375
1.310,794,3147,1918,499,2.0,30.0,21.0,10.559081077575684,28.686521530151367,-5.126952648162842,-0.6939697265625,0.63916015625,-0.078857421875
1.329,376,2471,1997,479,2.0,30.0,21.0,-6.652831554412842,27.709959030151367,-16.7236328125,-0.627197265625,0.5047607421875,-0.099365234375
1.330,371,2162,1754,442,4.0,30.0,20.0,-21.423337936401367,26.245115280151367,-27.709959030151367,-0.5697021484375,0.3240966796875,-0.2440185546875
1.338,491,1978,620,307,4.0,30.0,20.0,-30.395505905151367,26.855466842651367,-32.77587890625,-0.5208740234375,0.2073974609375,-0.3736572265625
1.352,1370,1374,310,334,4.0,30.0,20.0,-34.24072265625,27.770994186401367,-31.127927780151367,-0.5093994140625,0.1627197265625,-0.38330078125
1.360,562,1074,308,308,4.0,30.0,20.0,-34.24072265625,26.977537155151367,-25.573728561401367,-0.523681640625,0.1494140625,-0.2708740234375
1.368,873,784,484,310,4.0,30.0,20.0,-32.16552734375,24.230955123901367,-20.263669967651367,-0.5579833984375,0.101318359375,-0.07080078125
1.392,733,462,308,318,4.0,30.0,20.0,-28.991697311401367,20.01953125,-17.822265625,-0.6025390625,0.037353515625,0.1148681640625
1.393,666,591,308,306,4.0,30.0,20.0,-25.085447311401367,15.930174827575684,-16.90673828125,-0.6082763671875,0.042724609375,0.2034912109375
1.398,636,733,308,308,4.0,30.0,20.0,-21.789548873901367,13.366698265075684,-15.014647483825684,-0.5811767578125,0.138916015625,0.2366943359375
1.412,625,661,308,308,4.0,30.0,20.0,-20.751951217651367,10.620116233825684,-11.352538108825684,-0.547119140625,0.217041015625,0.281494140625
1.431,323,324,464,376,4.0,30.0,20.0,-20.690916061401367,6.164550304412842,-7.507323741912842,-0.5123291015625,0.1741943359375,0.300048828125
1.431,668,678,308,315,0.0,32.0,19.0,-18.06640625,2.13623046875,-5.0048828125,-0.48193359375,0.0595703125,0.2564697265625
1.442,834,737,306,308,0.0,32.0,19.0,-11.657713890075684,0.4272460639476776,-2.563476324081421,-0.4705810546875,-0.020751953125,0.1705322265625
1.450,1024,980,308,307,0.0,32.0,19.0,-2.44140625,-0.4272460639476776,1.4038084745407104,-0.4755859375,-0.038818359375,0.081787109375
1.463,1236,1440,308,308,0.0,32.0,19.0,6.286620616912842,-2.197265625,6.591796398162842,-0.4898681640625,0.0042724609375,-0.00146484375
1.472,1504,2124,308,307,0.0,32.0,19.0,12.145995140075684,-4.57763671875,12.451170921325684,-0.5338134765625,0.1087646484375,-0.0750732421875
1.496,1610,2391,306,308,0.0,32.0,19.0,14.587401390075684,-7.507323741912842,18.85986328125,-0.603515625,0.2120361328125,-0.11669921875
1.496,1665,2734,307,308,0.0,32.0,19.0,14.587401390075684,-7.507323741912842,18.85986328125,-0.6492919921875,0.256591796875,-0.1102294921875
1.502,308,308,346,334,0.0,32.0,19.0,16.66259765625,-18.00537109375,28.503416061401367,-0.656494140625,0.261962890625,-0.0361328125
1.510,308,308,328,328,0.0,32.0,19.0,21.362302780151367,-27.954099655151367,28.625486373901367,-0.6339111328125,0.2056884765625,0.0379638671875
1.518,313,310,1078,3147,0.0,32.0,19.0,21.362302780151367,-27.954099655151367,28.625486373901367,-0.580078125,0.0743408203125,0.050537109375
1.533,2249,3147,308,316,2.0,29.0,26.0,38.4521484375,-48.156734466552734,20.996091842651367,-0.5572509765625,-0.019287109375,0.0460205078125
1.540,2384,3147,307,1848,2.0,29.0,26.0,48.583980560302734,-54.321285247802734,20.507810592651367,-0.5968017578125,0.0130615234375,0.0416259765625
1.548,2498,3147,306,384,2.0,29.0,26.0,48.583980560302734,-54.321285247802734,20.507810592651367,-0.6240234375,0.162109375,0.0069580078125
1.562,2668,3147,2167,2777,2.0,29.0,26.0,66.7724609375,-60.729976654052734,32.5927734375,-0.6572265625,0.4173583984375,-0.0679931640625
1.576,614,3147,306,2993,2.0,29.0,26.0,70.37353515625,-56.396480560302734,36.31591796875,-0.803466796875,0.7178955078125,-0.1412353515625
1.578,378,3147,3147,3147,2.0,29.0,26.0,70.37353515625,-56.396480560302734,36.31591796875,-1.0469970703125,0.9488525390625,-0.1881103515625
1.601,499,3147,3147,3147,2.0,29.0,26.0,46.325679779052734,-38.2080078125,27.404783248901367,-1.3817138671875,1.0103759765625,-0.2655029296875
1.601,3147,3147,799,346,2.0,29.0,26.0,25.695798873901367,-28.259275436401367,18.12744140625,-1.743408203125,0.898193359375,-0.298583984375
1.608,3147,3147,308,3147,2.0,29.0,26.0,25.695798873901367,-28.259275436401367,18.12744140625,-1.9864501953125,0.715576171875,-0.1754150390625
1.625,3147,3147,2110,3147,0.0,30.0,25.0,-4.150390625,-21.484373092651367,0.9765624403953552,-2.0792236328125,0.510009765625,0.0203857421875
1.636,3147,3147,644,1516,0.0,30.0,25.0,-7.019042491912842,-19.95849609375,-5.249022960662842,-2.05078125,0.33642578125,0.080810546875
1.638,3147,3147,720,1681,0.0,30.0,25.0,-7.019042491912842,-19.95849609375,-5.249022960662842,-1.7415771484375,0.322021484375,-0.10693359375
1.652,3147,3147,323,307,0.0,30.0,25.0,-4.69970703125,5.432128429412842,-13.244627952575684,-1.2025146484375,0.5242919921875,-0.279052734375
1.660,3147,3147,724,1222,0.0,30.0,25.0,-12.695311546325684,17.76123046875,-18.61572265625,-0.9678955078125,0.762939453125,-0.17822265625
1.668,3147,3147,827,2937,0.0,30.0,25.0,-12.695311546325684,17.76123046875,-18.61572265625,-1.2740478515625,0.7093505859375,0.118896484375
1.696,751,3147,2874,3147,0.0,30.0,25.0,-50.781246185302734,23.376462936401367,-35.09521484375,-1.7335205078125,0.309814453125,0.33837890625
1.709,773,3147,2777,2925,0.0,30.0,25.0,-50.781246185302734,23.376462936401367,-35.09521484375,-1.9097900390625,-0.0308837890625,0.303955078125
1.709,458,3147,2993,2591,0.0,30.0,25.0,-50.109859466552734,23.742673873901367,-31.494138717651367,-1.9097900390625,-0.0308837890625,0.303955078125
1.712,382,3147,2859,2156,0.0,30.0,25.0,3.723144292831421,23.742673873901367,-2.44140625,-1.466552734375,0.3448486328125,-0.068115234375
1.721,378,3147,2708,1826,2.0,29.0,23.0,3.723144292831421,23.742673873901367,-2.44140625,-1.1759033203125,0.552734375,-0.1546630859375
1.738,373,3147,2504,1453,2.0,29.0,23.0,14.709471702575684,25.329587936401367,4.45556640625,-0.9940185546875,0.5196533203125,-0.17138671875
1.739,364,3147,2333,869,2.0,29.0,23.0,10.314940452575684,29.235837936401367,3.479003667831421,-0.9940185546875,0.5196533203125,-0.17138671875
1.751,360,2728,2083,526,2.0,29.0,23.0,1.4648436307907104,32.89794921875,-5.432128429412842,-0.72607421875,0.4046630859375,-0.1640625
1.759,351,2407,1960,546,2.0,29.0,23.0,1.4648436307907104,32.89794921875,-5.432128429412842,-0.570068359375,0.379150390625,-0.25537109375
1.767,346,2150,1796,499,2.0,29.0,23.0,-3.295898199081421,31.372068405151367,-12.817381858825684,-0.570068359375,0.379150390625,-0.25537109375
1.781,334,1704,1504,461,2.0,29.0,23.0,-22.705076217651367,28.747556686401367,-31.799314498901367,-0.486328125,0.337158203125,-0.4168701171875
1.802,324,1292,1294,462,2.0,29.0,23.0,-22.705076217651367,28.747556686401367,-31.799314498901367,-0.5025634765625,0.2587890625,-0.348388671875
1.803,518,1018,309,377,2.0,29.0,23.0,-31.555173873901367,24.475095748901367,-34.5458984375,-0.5025634765625,0.2587890625,-0.348388671875
1.815,750,598,308,308,2.0,29.0,23.0,-36.19384765625,18.24951171875,-32.958984375,-0.5797119140625,0.0732421875,0.0018310546875
1.825,316,499,607,361,3.0,32.0,21.0,-35.46142578125,12.817381858825684,-29.235837936401367,-0.5797119140625,0.0732421875,0.0018310546875
1.837,313,307,464,485,3.0,32.0,21.0,-29.479978561401367,10.253905296325684,-23.498533248901367,-0.638916015625,0.0283203125,0.13037109375
1.841,310,430,389,527,3.0,32.0,21.0,-21.118162155151367,9.765625,-16.05224609375,-0.669677734375,0.077880859375,0.2508544921875
1.855,309,536,388,372,3.0,32.0,21.0,-12.878417015075684,8.72802734375,-7.812499523162842,-0.669677734375,0.077880859375,0.2508544921875
1.857,315,636,385,364,3.0,32.0,21.0,-6.652831554412842,4.57763671875,-0.8544921278953552,-0.6151123046875,0.0968017578125,0.290283203125
1.873,313,660,438,371,3.0,32.0,21.0,-1.7089842557907104,-1.4648436307907104,2.929687261581421,-0.456298828125,0.0714111328125,0.217041015625
1.881,318,698,546,369,3.0,32.0,21.0,2.563476324081421,-5.187987804412842,4.8828125,-0.456298828125,0.0714111328125,0.217041015625
1.904,369,793,654,364,3.0,32.0,21.0,5.187987804412842,-5.798339366912842,6.958007335662842,-0.4251708984375,0.090576171875,0.158447265625
1.905,382,1560,1026,402,3.0,32.0,21.0,5.859374523162842,-4.94384765625,9.09423828125,-0.4827880859375,0.1158447265625,0.0433349609375
1.925,1253,1927,599,388,3.0,32.0,21.0,6.774901866912842,-4.33349609375,11.596678733825684,-0.4827880859375,0.1158447265625,0.0433349609375
1.926,1055,2384,660,359,0.0,31.0,18.0,9.765625,-5.310058116912842,15.808104515075684,-0.5699462890625,0.1798095703125,-0.0313720703125
1.941,667,2965,308,308,0.0,31.0,18.0,13.854979515075684,-7.751464366912842,22.521970748901367,-0.6905517578125,0.2615966796875,-0.1517333984375
1.941,1580,3147,310,287,0.0,31.0,18.0,15.930174827575684,-10.986327171325684,29.174802780151367,-0.6905517578125,0.2615966796875,-0.1517333984375
1.947,1702,3147,307,308,0.0,31.0,18.0,16.11328125,-16.29638671875,32.71484375,-0.6929931640625,0.2886962890625,-0.0870361328125
1.961,1904,3147,307,308,0.0,31.0,18.0,17.578125,-24.414060592651367,32.65380859375,-0.6339111328125,0.1729736328125,0.05810546875
1.969,2007,3147,307,309,0.0,31.0,18.0,20.385740280151367,-31.921384811401367,28.259275436401367,-0.6339111328125,0.1729736328125,0.05810546875
1.977,2130,3147,308,310,0.0,31.0,18.0,23.498533248901367,-36.19384765625,22.521970748901367,-0.63623046875,0.09033203125,0.113037109375
2.005,2375,3147,307,314,0.0,31.0,18.0,29.052732467651367,-39.794921875,20.385740280151367,-0.571044921875,0.0181884765625,0.0909423828125
2.006,2541,3147,307,287,0.0,31.0,18.0,38.4521484375,-45.593257904052734,22.338865280151367,-0.571044921875,0.0181884765625,0.0909423828125
2.007,2708,3147,308,308,0.0,31.0,18.0,53.161617279052734,-51.574703216552734,27.221677780151367,-0.5059814453125,0.15966796875,-0.0234375
2.036,2992,3147,308,308,-1.0,28.0,20.0,70.068359375,-52.917476654052734,33.3251953125,-0.591796875,0.55029296875,-0.1802978515625
2.045,3125,3147,306,314,-1.0,28.0,20.0,71.77734375,-47.424312591552734,36.43798828125,-0.8187255859375,1.0166015625,-0.2584228515625
2.045,3147,3147,1331,306,-1.0,28.0,20.0,48.156734466552734,-35.70556640625,31.921384811401367,-1.1981201171875,1.2276611328125,-0.2774658203125
2.052,3147,3147,2268,2481,-1.0,28.0,20.0,13.610838890075684,-21.423337936401367,19.83642578125,-2.0362548828125,0.7318115234375,-0.0074462890625
2.061,3147,3147,306,3147,-1.0,28.0,20.0,-13.671874046325684,-12.145995140075684,6.713866710662842,-2.0362548828125,0.7318115234375,-0.0074462890625
2.068,3147,3147,1112,338,-1.0,28.0,20.0,-22.949216842651367,-10.681151390075684,-1.8310545682907104,-2.2503662109375,0.3270263671875,0.196533203125
2.082,3147,3147,496,313,-1.0,28.0,20.0,-11.718749046325684,-8.48388671875,-4.94384765625,-1.8660888671875,0.1265869140625,-0.1221923828125
2.090,3147,3147,308,308,-1.0,28.0,20.0,10.742186546325684,1.7700194120407104,-2.38037109375,-1.8660888671875,0.1265869140625,-0.1221923828125
2.107,3147,3147,317,344,-1.0,28.0,20.0,28.137205123901367,15.136717796325684,2.25830078125,-1.1737060546875,0.4195556640625,-0.329833984375
2.112,614,3147,3147,3147,1.0,29.0,21.0,26.062009811401367,23.498533248901367,0.8544921278953552,-1.24951171875,0.789306640625,0.08984375
2.120,1815,3147,1828,3147,1.0,29.0,21.0,0.2441406100988388,25.329587936401367,-9.033203125,-1.24951171875,0.789306640625,0.08984375
2.144,3147,3147,321,375,1.0,29.0,21.0,-34.11865234375,25.085447311401367,-19.34814453125,-1.7305908203125,0.398193359375,0.2694091796875
2.144,731,3147,2887,3147,1.0,29.0,21.0,-46.813961029052734,26.123044967651367,-18.1884765625,-1.891357421875,0.0545654296875,0.1759033203125
2.151,465,3147,2944,2861,1.0,29.0,21.0,-25.207517623901367,27.954099655151367,-4.2724609375,-1.7225341796875,0.1226806640625,-0.052490234375
2.159,442,3147,2840,2514,1.0,29.0,21.0,7.812499523162842,29.052732467651367,9.765625,-1.4404296875,0.438720703125,-0.201416015625
2.172,710,3147,2310,1974,1.0,29.0,21.0,22.277830123901367,30.212400436401367,11.779784202575684,-1.2078857421875,0.7093505859375,-0.2076416015625
2.180,2424,3147,307,308,1.0,29.0,21.0,12.145995140075684,32.77587890625,3.173827886581421,-1.017822265625,0.7591552734375,-0.166748046875
2.188,434,3147,2286,1201,1.0,29.0,21.0,-6.958007335662842,35.888671875,-8.48388671875,-0.8436279296875,0.60205078125,-0.139892578125
2.217,360,3147,2087,514,1.0,29.0,21.0,-17.39501953125,37.353515625,-17.9443359375,-0.7120361328125,0.4552001953125,-0.10986328125
2.217,355,2837,1982,473,0.0,31.0,24.0,-16.6015625,34.36279296875,-23.681638717651367,-0.60986328125,0.38623046875,-0.114990234375
2.218,351,2715,1829,494,0.0,31.0,24.0,-12.939452171325684,29.052732467651367,-27.160642623901367,-0.5296630859375,0.3382568359375,-0.2283935546875
2.232,344,2130,1632,447,0.0,31.0,24.0,-12.634276390075684,27.160642623901367,-30.273435592651367,-0.5015869140625,0.298583984375,-0.367919921875
2.254,406,1840,307,307,0.0,31.0,24.0,-17.39501953125,27.343748092651367,-32.65380859375,-0.5423583984375,0.2762451171875,-0.3896484375
2.255,526,1454,818,332,0.0,31.0,24.0,-24.902341842651367,24.414060592651367,-31.982419967651367,-0.6016845703125,0.26806640625,-0.287841796875
2.262,1108,1117,308,308,0.0,31.0,24.0,-31.616209030151367,18.12744140625,-28.442380905151367,-0.614013671875,0.1961669921875,-0.13037109375
2.270,944,934,868,373,0.0,31.0,24.0,-33.69140625,11.718749046325684,-25.939939498901367,-0.6005859375,0.078857421875,0.0291748046875
2.281,417,829,706,359,0.0,31.0,24.0,-29.357908248901367,7.690429210662842,-25.390623092651367,-0.59619140625,0.0234375,0.1529541015625
2.292,765,706,316,315,0.0,31.0,24.0,-21.484373092651367,6.469726085662842,-24.169919967651367,-0.585693359375,0.0626220703125,0.216796875
2.316,766,830,308,308,0.0,31.0,24.0,-13.854979515075684,6.713866710662842,-19.83642578125,-0.5531005859375,0.154052734375,0.2374267578125
2.316,802,1029,308,308,2.0,32.0,17.0,-8.7890625,5.371093273162842,-13.061522483825684,-0.5074462890625,0.21533203125,0.245361328125
2.322,996,1254,308,308,2.0,32.0,17.0,-6.896972179412842,1.15966796875,-7.019042491912842,-0.4659423828125,0.192626953125,0.226806640625
2.330,1201,1552,308,306,2.0,32.0,17.0,-7.568358898162842,-3.540038824081421,-3.234863042831421,-0.4412841796875,0.085693359375,0.1646728515625
2.338,470,1882,802,336,2.0,32.0,17.0,-7.446288585662842,-6.286620616912842,-0.3662109076976776,-0.43115234375,-0.0313720703125,0.06689453125
2.352,1516,2756,306,308,2.0,32.0,17.0,-4.21142578125,-7.629394054412842,3.967284917831421,-0.4344482421875,-0.0587158203125,-0.0443115234375
2.365,1569,3147,306,307,2.0,32.0,17.0,1.4038084745407104,-10.314940452575684,10.437010765075684,-0.466064453125,0.0406494140625,-0.11279296875
2.368,1659,3147,306,308,2.0,32.0,17.0,6.958007335662842,-16.29638671875,18.1884765625,-0.5245361328125,0.19921875,-0.0985107421875
2.382,390,3147,1838,1065,2.0,32.0,17.0,11.291502952575684,-25.085447311401367,24.780271530151367,-0.553466796875,0.279296875,-0.0338134765625
2.390,523,3147,1813,1453,2.0,32.0,17.0,15.624999046325684,-34.60693359375,26.916501998901367,-0.51318359375,0.1773681640625,0.03515625
2.415,689,3147,1848,1783,2.0,32.0,17.0,22.766111373901367,-43.395992279052734,23.925779342651367,-0.4759521484375,0.0458984375,0.1246337890625
2.418,365,3147,2407,2225,0.0,31.0,22.0,32.89794921875,-51.452632904052734,19.95849609375,-0.474365234375,0.0697021484375,0.2032470703125
2.424,411,3147,2605,2552,0.0,31.0,22.0,40.832515716552734,-58.410640716552734,15.014647483825684,-0.4654541015625,0.180419921875,0.259765625
2.428,419,3147,2884,2899,0.0,31.0,22.0,42.297359466552734,-61.828609466552734,6.286620616912842,-0.5089111328125,0.355224609375,0.30078125
2.460,3084,3147,308,306,0.0,31.0,22.0,40.710445404052734,-57.006832122802734,-1.4038084745407104,-0.7330322265625,0.662841796875,0.1859130859375
2.461,3147,3147,3057,308,0.0,31.0,22.0,37.9638671875,-42.541500091552734,0.0610351525247097,-1.1175537109375,0.914794921875,-0.0894775390625
2.462,2959,3147,1173,3147,0.0,31.0,22.0,31.494138717651367,-24.658201217651367,9.46044921875,-1.55078125,0.82666015625,-0.358642578125
2.477,3147,3147,308,308,0.0,31.0,22.0,24.353025436401367,-13.183592796325684,20.01953125,-1.8880615234375,0.5452880859375,-0.39111328125
2.480,3147,3147,308,3147,0.0,31.0,22.0,17.578125,-12.756346702575684,27.404783248901367,-2.0789794921875,0.207275390625,-0.1824951171875
2.488,1294,3147,3144,3147,0.0,31.0,22.0,14.038084983825684,-15.197752952575684,29.296873092651367,-2.138427734375,0.052978515625,-0.0009765625
2.520,310,308,354,346,1.0,28.0,24.0,19.34814453125,-10.498045921325684,28.320310592651367,-2.012939453125,0.2681884765625,0.017578125
2.520,3147,3147,310,3147,1.0,28.0,24.0,27.282712936401367,0.9765624403953552,25.939939498901367,-1.6468505859375,0.5921630859375,-0.13818359375
2.520,3147,3147,359,324,1.0,28.0,24.0,23.681638717651367,14.770506858825684,17.2119140625,-1.1934814453125,0.9080810546875,-0.3623046875
2.532,308,308,316,310,1.0,28.0,24.0,0.54931640625,25.573728561401367,-1.0986328125,-0.9893798828125,1.1016845703125,-0.510009765625
2.540,306,308,308,309,1.0,28.0,24.0,-36.43798828125,29.663084030151367,-25.878904342651367,-1.1231689453125,1.0142822265625,-0.4638671875
2.551,356,310,308,308,1.0,28.0,24.0,-70.1904296875,26.123044967651367,-48.522945404052734,-1.55029296875,0.7286376953125,-0.1875
2.562,493,490,315,336,1.0,28.0,24.0,-83.86229705810547,17.578125,-57.678218841552734,-2.0177001953125,0.3648681640625,0.12451171875
2.570,479,487,337,343,1.0,28.0,24.0,-75.37841796875,9.82666015625,-49.133296966552734,-2.09423828125,-0.00634765625,0.295654296875
2.578,488,507,324,327,1.0,28.0,24.0,-48.278804779052734,8.30078125,-30.151365280151367,-1.7601318359375,-0.1419677734375,0.3170166015625
2.592,607,754,331,3147,1.0,28.0,24.0,-11.962889671325684,13.488768577575684,-10.681151390075684,-1.31884765625,0.1077880859375,0.2513427734375
2.600,2599,3147,360,315,0.0,30.0,20.0,14.587401390075684,22.155759811401367,3.234863042831421,-0.9766845703125,0.404541015625,0.1468505859375
2.624,307,308,388,330,0.0,30.0,20.0,14.587401390075684,22.155759811401367,3.234863042831421,-0.80078125,0.4881591796875,0.0096435546875
2.625,364,1591,2255,1344,0.0,30.0,20.0,25.207517623901367,37.41455078125,5.371093273162842,-0.730224609375,0.4688720703125,-0.1279296875
2.630,321,895,2118,2554,0.0,30.0,20.0,20.324705123901367,37.4755859375,-2.929687261581421,-0.651123046875,0.3746337890625,-0.2811279296875
2.640,324,952,1967,1934,0.0,30.0,20.0,20.324705123901367,37.4755859375,-2.929687261581421,-0.55712890625,0.2852783203125,-0.4459228515625
2.653,308,1308,1602,636,0.0,30.0,20.0,-7.446288585662842,31.982419967651367,-26.489255905151367,-0.5191650390625,0.288330078125,-0.52587890625
2.670,307,318,316,330,0.0,30.0,20.0,-26.306150436401367,28.625486373901367,-33.0810546875,-0.5279541015625,0.2830810546875,-0.4775390625
2.671,309,308,548,871,0.0,30.0,20.0,-26.306150436401367,28.625486373901367,-33.0810546875,-0.52587890625,0.18408203125,-0.322998046875
2.688,307,306,899,579,0.0,30.0,20.0,-46.874996185302734,18.9208984375,-31.982419967651367,-0.5301513671875,0.0595703125,-0.1173095703125
2.695,306,305,778,441,0.0,30.0,20.0,-41.503902435302734,16.05224609375,-26.550291061401367,-0.5535888671875,0.0135498046875,0.0670166015625
2.703,307,305,669,423,2.0,33.0,19.0,-41.503902435302734,16.05224609375,-26.550291061401367,-0.561767578125,0.05615234375,0.2108154296875
2.723,307,307,582,630,2.0,33.0,19.0,-19.04296875,14.221190452575684,-9.33837890625,-0.540283203125,0.1246337890625,0.30908203125
2.723,306,308,578,660,2.0,33.0,19.0,-12.817381858825684,11.535643577575684,-4.08935546875,-0.5040283203125,0.1732177734375,0.36328125
2.728,308,307,586,666,2.0,33.0,19.0,-12.817381858825684,11.535643577575684,-4.08935546875,-0.458740234375,0.1751708984375,0.388916015625
2.743,308,308,762,702,2.0,33.0,19.0,-13.061522483825684,2.13623046875,-1.5869139432907104,-0.4124755859375,0.1102294921875,0.3463134765625
2.758,306,308,860,827,2.0,33.0,19.0,-11.535643577575684,0.8544921278953552,0.1831054538488388,-0.3831787109375,0.06640625,0.2265625
2.759,308,308,1034,1220,2.0,33.0,19.0,-11.535643577575684,0.8544921278953552,0.1831054538488388,-0.3848876953125,0.0531005859375,0.11669921875
2.773,308,308,315,317,2.0,33.0,19.0,-1.3427733182907104,1.220703125,9.8876953125,-0.4400634765625,0.0408935546875,0.0205078125
2.780,308,307,315,1067,2.0,33.0,19.0,4.08935546875,-1.4038084745407104,17.51708984375,-0.53515625,0.1036376953125,-0.083984375
2.788,308,309,1531,2469,2.0,33.0,19.0,4.08935546875,-1.4038084745407104,17.51708984375,-0.6156005859375,0.2049560546875,-0.1544189453125
2.802,334,328,1701,2448,3.0,30.0,14.0,13.671874046325684,-11.840819358825684,31.677244186401367,-0.6595458984375,0.2987060546875,-0.136474609375
2.825,333,400,1328,1276,3.0,30.0,14.0,16.845703125,-21.850584030151367,32.89794921875,-0.670166015625,0.3597412109375,-0.03515625
2.825,308,310,932,3020,3.0,30.0,14.0,16.845703125,-21.850584030151367,32.89794921875,-0.670166015625,0.3597412109375,-0.03515625
2.833,307,313,2320,3147,3.0,30.0,14.0,18.4326171875,-41.687007904052734,18.5546875,-0.5772705078125,0.15283203125,0.0814208984375
2.841,378,3147,2374,1979,3.0,30.0,14.0,18.4326171875,-41.687007904052734,18.5546875,-0.54345703125,0.110595703125,0.1065673828125
2.848,2541,3147,308,311,3.0,30.0,14.0,20.202634811401367,-45.776363372802734,10.192870140075684,-0.54345703125,0.110595703125,0.1065673828125
2.867,632,289,3101,2601,3.0,30.0,14.0,19.1650390625,-46.569820404052734,4.33349609375,-0.5350341796875,0.360595703125,0.0198974609375
2.870,3000,3147,307,308,3.0,30.0,14.0,19.1650390625,-46.569820404052734,4.33349609375,-0.74658203125,0.5750732421875,-0.170166015625
2.879,3147,3147,355,3147,3.0,30.0,14.0,17.9443359375,-39.00146484375,6.164550304412842,-0.74658203125,0.5750732421875,-0.170166015625
2.892,683,3147,3147,3147,3.0,30.0,14.0,-0.4272460639476776,-19.775390625,6.164550304412842,-1.42578125,0.72705078125,-0.39599609375
2.901,728,3147,3147,3147,0.0,29.0,20.0,-0.4272460639476776,-19.775390625,6.164550304412842,-1.727294921875,0.8541259765625,-0.2838134765625
2.942,800,3147,3147,3147,0.0,29.0,20.0,-16.9677734375,-16.29638671875,5.249022960662842,-1.727294921875,0.8541259765625,-0.2838134765625
2.943,864,3147,3147,3147,0.0,29.0,20.0,-46.752925872802734,-18.1884765625,-6.347655773162842,-2.1474609375,0.4921875,0.0677490234375
2.944,838,3147,3147,3147,0.0,29.0,20.0,-46.752925872802734,-18.1884765625,-6.347655773162842,-2.2132568359375,0.295166015625,0.111572265625
2.944,800,3147,3147,3147,0.0,29.0,20.0,-42.480464935302734,-11.901854515075684,-15.502928733825684,-2.2132568359375,0.295166015625,0.111572265625
2.952,706,3147,3147,3147,0.0,29.0,20.0,-15.197752952575684,12.145995140075684,-19.6533203125,-1.33251953125,0.3870849609375,-0.2379150390625
2.970,702,3147,3147,3147,0.0,29.0,20.0,-15.197752952575684,12.145995140075684,-19.6533203125,-0.96728515625,0.634765625,-0.2796630859375
2.971,679,3147,3147,3147,0.0,29.0,20.0,-13.488768577575684,20.080564498901367,-21.728513717651367,-0.96728515625,0.634765625,-0.2796630859375
2.993,617,3147,3147,3147,0.0,29.0,20.0,-46.569820404052734,21.850584030151367,-32.04345703125,-1.7615966796875,0.32275390625,0.25537109375
2.993,541,3147,3147,3147,0.0,29.0,20.0,-46.569820404052734,21.850584030151367,-32.04345703125,-2.06689453125,-0.064697265625,0.3380126953125
2.998,433,3147,3147,3147,5.0,30.0,22.0,-54.077144622802734,19.83642578125,-28.320310592651367,-2.06689453125,-0.064697265625,0.3380126953125
3.012,361,3147,3125,2749,5.0,30.0,22.0,1.3427733182907104,21.362302780151367,8.85009765625,-1.6435546875,0.0965576171875,0.0272216796875
3.029,370,3147,2978,2337,5.0,30.0,22.0,1.3427733182907104,21.362302780151367,8.85009765625,-1.2889404296875,0.4232177734375,-0.08056640625
3.030,364,3147,2810,2024,5.0,30.0,22.0,30.090330123901367,25.512693405151367,22.094724655151367,-1.2889404296875,0.4232177734375,-0.08056640625
3.042,363,3147,2486,1012,5.0,30.0,22.0,37.78076171875,30.578611373901367,23.620603561401367,-0.8099365234375,0.642578125,-0.1572265625
3.050,361,3137,2347,601,5.0,30.0,22.0,30.212400436401367,34.7900390625,15.747069358825684,-0.8099365234375,0.642578125,-0.1572265625
3.060,348,2491,2203,838,5.0,30.0,22.0,16.41845703125,36.80419921875,2.624511480331421,-0.6944580078125,0.5880126953125,-0.1953125
3.072,640,2076,1615,587,5.0,30.0,22.0,-0.4882812201976776,36.376953125,-11.779784202575684,-0.528564453125,0.3475341796875,-0.36376953125
3.080,355,1719,1613,473,5.0,30.0,22.0,-18.49365234375,35.2783203125,-23.559568405151367,-0.528564453125,0.3475341796875,-0.36376953125
3.092,336,1328,1370,456,5.0,30.0,22.0,-33.50830078125,34.85107421875,-28.747556686401367,-0.5250244140625,0.2564697265625,-0.44189453125
3.102,342,702,923,349,5.0,31.0,18.0,-41.748043060302734,32.5927734375,-26.794431686401367,-0.54345703125,0.03759765625,-0.186767578125
3.110,313,308,342,336,5.0,31.0,18.0,-43.090816497802734,26.855466842651367,-21.667478561401367,-0.54345703125,0.03759765625,-0.186767578125
3.132,545,314,396,410,5.0,31.0,18.0,-39.12353515625,20.263669967651367,-16.90673828125,-0.5694580078125,-0.0076904296875,0.029296875
3.132,306,308,310,324,5.0,31.0,18.0,-30.578611373901367,15.808104515075684,-12.573241233825684,-0.5927734375,0.1090087890625,0.22998046875
3.140,308,308,317,330,5.0,31.0,18.0,-20.446775436401367,13.549803733825684,-8.056640625,-0.5927734375,0.1090087890625,0.22998046875
3.153,308,306,328,555,5.0,31.0,18.0,-12.512206077575684,11.169432640075684,-3.479003667831421,-0.5499267578125,0.2196044921875,0.264404296875
3.172,308,308,310,313,5.0,31.0,18.0,-8.60595703125,6.408690929412842,-0.6103515625,-0.4315185546875,0.1907958984375,0.3040771484375
3.173,308,306,324,485,5.0,31.0,18.0,-7.690429210662842,-0.0610351525247097,-0.9765624403953552,-0.4315185546875,0.1907958984375,0.3040771484375
3.178,308,308,316,338,5.0,31.0,18.0,-6.408690929412842,-5.065917491912842,-3.173827886581421,-0.3814697265625,0.0872802734375,0.2183837890625
3.199,306,308,321,490,5.0,31.0,18.0,-3.479003667831421,-7.385253429412842,-4.57763671875,-0.386962890625,-0.052001953125,0.0223388671875
3.201,293,307,625,628,5.0,31.0,18.0,1.7089842557907104,-8.48388671875,-3.173827886581421,-0.386962890625,-0.052001953125,0.0223388671875
3.208,308,306,326,888,5.0,31.0,18.0,9.521484375,-10.009765625,1.5258787870407104,-0.413330078125,-0.0244140625,-0.0325927734375
3.235,308,310,313,313,5.0,31.0,18.0,17.578125,-12.329100608825684,7.751464366912842,-0.5618896484375,0.2098388671875,-0.1197509765625
3.235,1516,2636,308,308,5.0,31.0,18.0,23.071287155151367,-14.343260765075684,14.282225608825684,-0.5618896484375,0.2098388671875,-0.1197509765625
3.239,1568,2579,315,315,5.0,31.0,18.0,24.475095748901367,-16.54052734375,20.324705123901367,-0.6719970703125,0.349609375,-0.1527099609375
3.252,307,695,310,310,5.0,31.0,18.0,21.606443405151367,-21.362302780151367,22.949216842651367,-0.693115234375,0.3111572265625,-0.0185546875
3.277,2028,3147,1665,1641,5.0,31.0,18.0,16.78466796875,-29.785154342651367,19.71435546875,-0.693115234375,0.3111572265625,-0.0185546875
3.277,308,307,322,316,5.0,31.0,18.0,14.404295921325684,-38.51318359375,11.962889671325684,-0.59619140625,0.166748046875,0.0528564453125
3.281,479,306,308,310,5.0,31.0,18.0,16.05224609375,-44.616695404052734,5.249022960662842,-0.5458984375,0.078369140625,0.121337890625
3.289,2047,3147,308,2032,2.0,31.0,20.0,19.04296875,-47.546382904052734,3.662109136581421,-0.51953125,0.0123291015625,0.179931640625
3.297,678,3147,2504,2258,2.0,31.0,20.0,19.1650390625,-47.729488372802734,5.737304210662842,-0.490478515625,0.0274658203125,0.2811279296875
3.311,2760,3147,321,1255,2.0,31.0,20.0,17.63916015625,-46.203609466552734,9.8876953125,-0.5408935546875,0.2083740234375,0.37060546875
3.319,3147,3147,306,308,2.0,31.0,20.0,18.49365234375,-41.076656341552734,15.930174827575684,-0.7740478515625,0.4920654296875,0.268798828125
3.336,3147,3147,309,308,2.0,31.0,20.0,22.460935592651367,-29.357908248901367,24.536130905151367,-1.1925048828125,0.7611083984375,-0.033447265625
3.341,3147,3147,309,316,2.0,31.0,20.0,27.770994186401367,-14.770506858825684,33.14208984375,-1.6400146484375,0.8466796875,-0.24072265625
3.349,3147,3147,308,308,2.0,31.0,20.0,27.954099655151367,-6.164550304412842,36.376953125,-2.0233154296875,0.6365966796875,-0.210693359375
3.358,3147,3147,308,310,2.0,31.0,20.0,24.047849655151367,-3.967284917831421,31.066892623901367,-2.282958984375,0.3629150390625,-0.125732421875
3.384,829,3147,3147,3147,2.0,31.0,20.0,23.681638717651367,-1.8310545682907104,22.094724655151367,-2.308837890625,0.3245849609375,-0.106201171875
3.384,750,3147,3147,3147,2.0,31.0,20.0,29.174802780151367,2.746581792831421,16.6015625,-2.0048828125,0.4722900390625,-0.2171630859375
3.387,695,3147,3147,3147,4.0,29.0,19.0,31.005857467651367,8.9111328125,11.535643577575684,-1.4425048828125,0.699951171875,-0.41259765625
3.401,644,3147,3147,3147,4.0,29.0,19.0,16.17431640625,14.770506858825684,0.4272460639476776,-1.02490234375,0.927734375,-0.52490234375
3.413,855,3147,2813,3147,4.0,29.0,19.0,-16.90673828125,18.85986328125,-17.76123046875,-0.9927978515625,0.9200439453125,-0.4658203125
3.440,512,356,326,323,4.0,29.0,19.0,-56.701656341552734,20.202634811401367,-37.841796875,-1.297607421875,0.6641845703125,-0.19873046875
3.441,309,3147,3147,3147,4.0,29.0,19.0,-83.74022674560547,18.6767578125,-49.743648529052734,-1.7705078125,0.35791015625,0.1318359375
3.443,473,3147,3147,3147,4.0,29.0,19.0,-87.28026580810547,15.380858421325684,-45.593257904052734,-2.056640625,0.0419921875,0.3408203125
3.447,306,306,3039,3063,4.0,29.0,19.0,-66.40625,13.305663108825684,-27.099607467651367,-1.9522705078125,-0.1339111328125,0.3421630859375
3.461,578,3147,2340,2344,4.0,29.0,19.0,-28.381345748901367,15.441893577575684,-4.2724609375,-1.6015625,-0.0821533203125,0.1754150390625
3.477,501,3147,2765,2135,4.0,29.0,19.0,7.446288585662842,21.545408248901367,12.023924827575684,-1.2552490234375,0.178466796875,0.0072021484375
3.477,382,3147,2627,1759,4.0,29.0,19.0,26.550291061401367,28.076169967651367,17.9443359375,-1.006103515625,0.4931640625,-0.099853515625
3.491,333,1533,2386,2671,5.0,27.0,23.0,27.587888717651367,31.372068405151367,14.526366233825684,-0.836669921875,0.6697998046875,-0.166259765625
3.499,347,2379,2170,1047,5.0,27.0,23.0,15.686034202575684,30.212400436401367,3.601073980331421,-0.71923828125,0.6673583984375,-0.2122802734375
3.507,338,2048,1985,1079,5.0,27.0,23.0,-2.990722417831421,26.245115280151367,-11.596678733825684,-0.6202392578125,0.5074462890625,-0.3106689453125
3.521,338,2080,1719,653,5.0,27.0,23.0,-22.155759811401367,23.620603561401367,-25.451658248901367,-0.553955078125,0.3328857421875,-0.439697265625
3.543,336,2137,1533,546,5.0,27.0,23.0,-36.2548828125,23.498533248901367,-31.616209030151367,-0.5450439453125,0.23876953125,-0.4716796875
3.544,359,1691,1328,442,5.0,27.0,23.0,-40.771480560302734,22.644041061401367,-28.991697311401367,-0.574951171875,0.1708984375,-0.364501953125
3.551,1026,963,568,364,5.0,27.0,23.0,-36.2548828125,20.324705123901367,-22.277830123901367,-0.603515625,0.1270751953125,-0.193603515625
3.560,853,684,315,308,5.0,27.0,23.0,-28.076169967651367,17.7001953125,-16.90673828125,-0.5872802734375,0.093017578125,-0.005615234375
3.572,658,430,309,308,5.0,27.0,23.0,-21.118162155151367,13.977049827575684,-15.624999046325684,-0.5394287109375,0.0550537109375,0.1771240234375
3.581,308,308,575,514,5.0,30.0,14.0,-17.39501953125,9.27734375,-16.845703125,-0.504638671875,0.0738525390625,0.2969970703125
3.589,306,308,519,478,5.0,30.0,14.0,-15.258788108825684,4.82177734375,-17.15087890625,-0.47412109375,0.151123046875,0.348388671875
3.605,306,306,327,321,5.0,30.0,14.0,-13.061522483825684,0.9155272841453552,-14.648436546325684,-0.43798828125,0.19921875,0.373291015625
3.611,307,308,323,324,5.0,30.0,14.0,-9.27734375,-2.563476324081421,-10.070799827575684,-0.3985595703125,0.156982421875,0.3497314453125
3.625,308,307,642,318,5.0,30.0,14.0,-4.21142578125,-4.45556640625,-5.676269054412842,-0.3717041015625,0.0438232421875,0.2642822265625
3.644,308,308,883,841,5.0,30.0,14.0,-4.21142578125,-4.45556640625,-5.676269054412842,-0.3665771484375,-0.058837890625,0.1636962890625
3.644,306,308,317,1527,5.0,30.0,14.0,2.685546636581421,-2.929687261581421,1.7700194120407104,-0.374755859375,-0.0615234375,0.075927734375
3.649,308,308,327,329,5.0,30.0,14.0,3.784179449081421,-2.0751953125,7.873534679412842,-0.4246826171875,0.035400390625,0.0147705078125
3.657,473,582,784,346,5.0,30.0,14.0,3.784179449081421,-2.0751953125,7.873534679412842,-0.5289306640625,0.17041015625,-0.0242919921875
3.681,378,398,913,898,5.0,30.0,14.0,4.39453125,-3.784179449081421,22.888181686401367,-0.6236572265625,0.264404296875,-0.02392578125
3.681,391,411,328,334,7.0,28.0,16.0,5.310058116912842,-8.30078125,25.756834030151367,-0.6551513671875,0.302490234375,0.053955078125
3.687,1838,3147,316,561,7.0,28.0,16.0,5.310058116912842,-8.30078125,25.756834030151367,-0.620361328125,0.265625,0.1531982421875
3.701,2104,3147,310,324,7.0,28.0,16.0,9.521484375,-24.780271530151367,16.2353515625,-0.587646484375,0.160400390625,0.1932373046875
3.709,2268,3147,310,316,7.0,28.0,16.0,12.756346702575684,-28.747556686401367,9.58251953125,-0.6168212890625,0.0599365234375,0.170166015625
3.717,2428,3147,317,344,7.0,28.0,16.0,12.756346702575684,-28.747556686401367,9.58251953125,-0.6741943359375,0.0177001953125,0.1097412109375
3.750,2727,3147,518,1243,7.0,28.0,16.0,22.094724655151367,-26.855466842651367,11.474608421325684,-0.7293701171875,0.130126953125,-0.0029296875
3.750,966,3147,1936,2753,7.0,28.0,16.0,30.151365280151367,-23.376462936401367,19.775390625,-0.8162841796875,0.339111328125,-0.14599609375
3.750,2777,3147,498,1143,7.0,28.0,16.0,30.151365280151367,-23.376462936401367,19.775390625,-0.9627685546875,0.5118408203125,-0.25537109375
3.761,308,308,3147,3147,7.0,28.0,16.0,37.7197265625,-14.221190452575684,25.390623092651367,-1.19091796875,0.659912109375,-0.310791015625
3.769,3147,3147,307,497,7.0,28.0,16.0,29.968259811401367,-10.803221702575684,19.4091796875,-1.450927734375,0.7872314453125,-0.2828369140625
3.784,710,3147,3147,3147,5.0,31.0,21.0,29.968259811401367,-10.803221702575684,19.4091796875,-1.6551513671875,0.7474365234375,-0.1751708984375
3.791,3147,3147,306,1273,5.0,31.0,21.0,3.967284917831421,-11.291502952575684,2.929687261581421,-1.84521484375,0.5836181640625,-0.074462890625
3.799,849,3147,3147,3147,5.0,31.0,21.0,1.7700194120407104,-8.9111328125,-3.479003667831421,-2.03515625,0.44482421875,-0.0654296875
3.807,794,3147,3147,3147,5.0,31.0,21.0,1.7700194120407104,-8.9111328125,-3.479003667831421,-2.068603515625,0.34375,-0.1580810546875
3.821,3147,3147,1050,2567,5.0,31.0,21.0,12.390135765075684,4.21142578125,-1.0986328125,-1.7203369140625,0.3560791015625,-0.3218994140625
3.829,3147,3147,306,344,5.0,31.0,21.0,7.873534679412842,9.6435546875,0.4272460639476776,-1.1717529296875,0.573974609375,-0.4345703125
3.849,3147,3147,307,324,5.0,31.0,21.0,7.873534679412842,9.6435546875,0.4272460639476776,-1.1717529296875,0.573974609375,-0.4345703125
3.852,938,3147,2851,3147,5.0,31.0,21.0,-38.87939453125,12.451170921325684,-20.202634811401367,-1.1480712890625,0.775390625,-0.1470947265625
3.859,514,3147,3147,3147,5.0,31.0,21.0,-38.87939453125,12.451170921325684,-20.202634811401367,-1.6412353515625,0.440673828125,0.1478271484375
3.872,442,3147,3147,3147,5.0,31.0,21.0,-62.744136810302734,10.314940452575684,-35.7666015625,-1.6412353515625,0.440673828125,0.1478271484375
3.889,383,3147,3121,2746,4.0,28.0,22.0,-41.381832122802734,6.408690929412842,-29.052732467651367,-1.865966796875,-0.1080322265625,0.23291015625
3.889,381,3147,3000,2526,4.0,28.0,22.0,-41.381832122802734,6.408690929412842,-29.052732467651367,-1.5638427734375,0.0146484375,0.082275390625
3.897,383,3147,2828,2275,4.0,28.0,22.0,-6.225585460662842,7.873534679412842,-12.268065452575684,-1.5638427734375,0.0146484375,0.082275390625
3.911,371,3147,2532,1732,4.0,28.0,22.0,28.076169967651367,15.197752952575684,8.4228515625,-1.01904296875,0.4957275390625,-0.0865478515625
3.919,363,3147,2388,1251,4.0,28.0,22.0,28.076169967651367,15.197752952575684,8.4228515625,-0.84375,0.53125,-0.14794921875
3.927,360,3147,2295,802,4.0,28.0,22.0,24.291990280151367,18.85986328125,7.812499523162842,-0.84375,0.53125,-0.14794921875
3.954,363,2948,2008,439,4.0,28.0,22.0,2.38037109375,23.315427780151367,-9.82666015625,-0.6549072265625,0.411376953125,-0.2587890625
3.954,598,2461,1853,455,4.0,28.0,22.0,2.38037109375,23.315427780151367,-9.82666015625,-0.610107421875,0.3433837890625,-0.324951171875
3.958,357,2347,1730,467,4.0,28.0,22.0,-12.695311546325684,24.230955123901367,-19.47021484375,-0.610107421875,0.3433837890625,-0.324951171875
3.973,346,1739,1413,441,4.0,31.0,23.0,-32.65380859375,24.047849655151367,-23.193357467651367,-0.6016845703125,0.198974609375,-0.2088623046875
3.986,342,1348,1170,402,4.0,31.0,23.0,-32.65380859375,24.047849655151367,-23.193357467651367,-0.59814453125,0.09716796875,-0.052490234375
3.987,360,1003,968,378,4.0,31.0,23.0,-34.60693359375,21.545408248901367,-18.98193359375,-0.59814453125,0.09716796875,-0.052490234375
4.002,775,644,307,309,4.0,31.0,23.0,-31.372068405151367,16.54052734375,-14.038084983825684,-0.55615234375,-0.0225830078125,0.221435546875
4.011,682,588,306,309,4.0,31.0,23.0,-31.372068405151367,16.54052734375,-14.038084983825684,-0.555419921875,0.0289306640625,0.2725830078125
4.018,309,321,673,636,4.0,31.0,23.0,-26.611326217651367,13.793944358825684,-13.305663108825684,-0.555419921875,0.0289306640625,0.2725830078125
4.031,693,738,308,318,4.0,31.0,23.0,-15.991209983825684,3.845214605331421,-8.36181640625,-0.5194091796875,0.162109375,0.265625
4.058,738,852,308,307,4.0,31.0,23.0,-15.991209983825684,3.845214605331421,-8.36181640625,-0.4833984375,0.166259765625,0.18994140625
4.059,793,964,308,294,4.0,31.0,23.0,-10.070799827575684,-2.624511480331421,-5.859374523162842,-0.4833984375,0.166259765625,0.18994140625
4.061,1012,1067,310,307,4.0,31.0,23.0,-2.990722417831421,-7.019042491912842,-3.662109136581421,-0.4720458984375,0.1058349609375,-0.0377197265625
4.070,363,871,1188,960,5.0,30.0,16.0,3.173827886581421,-7.995604991912842,-0.9155272841453552,-0.4720458984375,0.1058349609375,-0.0377197265625
4.077,479,1686,1094,378,5.0,30.0,16.0,7.873534679412842,-7.324218273162842,3.051757574081421,-0.50439453125,0.101806640625,-0.07958984375
4.102,1474,2275,309,308,5.0,30.0,16.0,11.901854515075684,-7.446288585662842,8.9111328125,-0.613037109375,0.2349853515625,-0.027587890625
4.102,1503,2665,387,316,5.0,30.0,16.0,14.587401390075684,-9.27734375,14.587401390075684,-0.613037109375,0.2349853515625,-0.027587890625
4.107,532,2803,1523,423,5.0,30.0,16.0,14.160155296325684,-12.939452171325684,16.90673828125,-0.6239013671875,0.259521484375,0.0321044921875
4.122,598,3147,327,308,5.0,30.0,16.0,11.779784202575684,-17.88330078125,16.11328125,-0.6328125,0.156982421875,0.1246337890625
4.129,376,3147,2032,780,5.0,30.0,16.0,11.779784202575684,-23.193357467651367,14.831542015075684,-0.6328125,0.156982421875,0.1246337890625
4.137,308,309,2221,3147,5.0,30.0,16.0,15.869139671325684,-28.076169967651367,13.854979515075684,-0.647216796875,0.045166015625,0.1199951171875
4.160,308,308,2581,3147,5.0,30.0,16.0,21.972654342651367,-32.2265625,13.366698265075684,-0.6226806640625,0.01953125,0.130126953125
4.169,306,306,2754,1781,5.0,30.0,16.0,27.770994186401367,-36.0107421875,14.526366233825684,-0.6226806640625,0.01953125,0.130126953125
4.171,2591,3147,307,316,7.0,31.0,20.0,32.470703125,-37.78076171875,17.7001953125,-0.5814208984375,0.1107177734375,0.0888671875
4.181,952,3147,308,313,7.0,31.0,20.0,35.64453125,-34.66796875,22.033689498901367,-0.657958984375,0.307373046875,-0.184326171875
4.196,2864,3147,656,2787,7.0,31.0,20.0,34.97314453125,-27.587888717651367,25.573728561401367,-0.657958984375,0.307373046875,-0.184326171875
4.197,3147,3147,308,309,7.0,31.0,20.0,31.677244186401367,-19.83642578125,26.000974655151367,-0.831298828125,0.3551025390625,-0.2994384765625
4.211,3147,3147,2631,3147,7.0,31.0,20.0,30.029294967651367,-14.282225608825684,22.338865280151367,-1.5345458984375,0.8154296875,-0.1629638671875
4.219,3147,3147,310,308,7.0,31.0,20.0,27.526853561401367,-13.671874046325684,16.90673828125,-1.5345458984375,0.8154296875,-0.1629638671875
4.227,898,3147,3147,3147,7.0,31.0,20.0,20.01953125,-17.27294921875,11.169432640075684,-1.7705078125,0.83544921875,-0.021240234375
4.244,938,3147,3147,3147,7.0,31.0,20.0,14.648436546325684,-19.34814453125,5.187987804412842,-2.155517578125,0.4539794921875,0.0087890625
4.264,927,3147,3147,3147,7.0,31.0,20.0,16.845703125,-15.747069358825684,1.5869139432907104,-2.155517578125,0.4539794921875,0.0087890625
4.264,3147,3147,944,3147,7.0,31.0,20.0,23.376462936401367,-7.873534679412842,3.051757574081421,-2.064208984375,0.28466796875,-0.1075439453125
4.271,785,315,3147,3147,4.0,30.0,25.0,28.381345748901367,1.3427733182907104,7.019042491912842,-1.06005859375,0.57275390625,-0.357177734375
4.280,385,342,3147,3147,4.0,30.0,25.0,23.132322311401367,10.070799827575684,7.324218273162842,-1.06005859375,0.57275390625,-0.357177734375
4.291,308,3147,3147,3147,4.0,30.0,25.0,3.540038824081421,17.2119140625,0.2441406100988388,-0.9478759765625,0.78369140625,-0.2825927734375
4.301,334,2848,3147,3147,4.0,30.0,25.0,-26.550291061401367,21.118162155151367,-13.244627952575684,-1.289794921875,0.68017578125,-0.0438232421875
4.310,401,3147,3147,3147,4.0,30.0,25.0,-51.635738372802734,20.568845748901367,-25.024412155151367,-1.777099609375,0.3580322265625,0.1995849609375
4.317,306,3147,3147,2984,4.0,30.0,25.0,-54.626461029052734,17.51708984375,-24.963376998901367,-1.9998779296875,0.0760498046875,0.26806640625
4.331,372,3147,3147,2345,4.0,30.0,25.0,-32.89794921875,15.502928733825684,-12.634276390075684,-1.8626708984375,0.0413818359375,0.1575927734375
4.340,308,3147,3147,2020,4.0,30.0,25.0,-0.9155272841453552,16.41845703125,2.01416015625,-1.5479736328125,0.1943359375,-0.0174560546875
4.361,323,2367,3064,2884,4.0,30.0,25.0,21.179197311401367,19.22607421875,10.681151390075684,-1.2327880859375,0.3968505859375,-0.12255859375
4.362,363,3147,2657,1003,4.0,30.0,25.0,26.855466842651367,22.033689498901367,13.000487327575684,-0.9793701171875,0.5145263671875,-0.150390625
4.369,308,323,2601,3147,6.0,32.0,21.0,22.216794967651367,24.963376998901367,10.925292015075684,-0.800537109375,0.5042724609375,-0.1685791015625
4.377,308,319,2458,3008,6.0,32.0,21.0,12.939452171325684,28.808591842651367,4.08935546875,-0.68994140625,0.4686279296875,-0.2103271484375
4.392,345,346,2188,2464,6.0,32.0,21.0,-0.6713866591453552,31.127927780151367,-7.385253429412842,-0.6236572265625,0.42236328125,-0.2572021484375
4.404,308,306,2012,2382,6.0,32.0,21.0,-17.2119140625,30.700681686401367,-19.8974609375,-0.5975341796875,0.386962890625,-0.32763671875
4.407,348,1779,1757,551,6.0,32.0,21.0,-30.944822311401367,29.357908248901367,-27.770994186401367,-0.59130859375,0.37646484375,-0.369140625
4.421,330,1155,1419,532,6.0,32.0,21.0,-38.330078125,26.123044967651367,-29.602048873901367,-0.603515625,0.3031005859375,-0.2969970703125
4.429,333,927,1182,391,6.0,32.0,21.0,-40.588375091552734,20.507810592651367,-27.893064498901367,-0.6318359375,0.1917724609375,-0.1492919921875
4.437,338,312,308,479,6.0,32.0,21.0,-40.649410247802734,15.075682640075684,-25.268552780151367,-0.6175537109375,0.083984375,0.0
4.462,651,404,308,308,6.0,32.0,21.0,-38.57421875,11.901854515075684,-22.888181686401367,-0.57470703125,0.015869140625,0.1075439453125
4.463,308,304,317,316,6.0,32.0,21.0,-32.40966796875,11.047362327575684,-19.59228515625,-0.5565185546875,0.0506591796875,0.170166015625
4.467,308,308,559,564,6.0,30.0,19.0,-24.536130905151367,9.8876953125,-14.465331077575684,-0.5540771484375,0.13134765625,0.2252197265625
4.481,307,308,318,324,6.0,30.0,19.0,-18.61572265625,6.347655773162842,-9.033203125,-0.5445556640625,0.1689453125,0.2840576171875
4.489,307,308,317,336,6.0,30.0,19.0,-14.953612327575684,1.220703125,-5.371093273162842,-0.5126953125,0.139404296875,0.301513671875
4.510,308,308,371,731,6.0,30.0,19.0,-13.122557640075684,-2.746581792831421,-4.21142578125,-0.4664306640625,0.0723876953125,0.2486572265625
4.511,308,308,816,811,6.0,30.0,19.0,-12.084959983825684,-4.0283203125,-4.21142578125,-0.4365234375,0.0123291015625,0.1695556640625
4.519,308,306,707,1048,6.0,30.0,19.0,-10.009765625,-4.5166015625,-3.295898199081421,-0.431884765625,-0.012451171875,0.1070556640625
4.527,306,307,1157,754,6.0,30.0,19.0,-5.859374523162842,-6.286620616912842,-0.30517578125,-0.4375,-0.0018310546875,0.060546875
4.542,308,308,317,323,6.0,30.0,19.0,0.6103515625,-9.27734375,4.69970703125,-0.479736328125,0.0419921875,0.007568359375
4.567,308,306,318,316,6.0,30.0,19.0,9.3994140625,-12.817381858825684,12.329100608825684,-0.565185546875,0.1328125,-0.065185546875
4.568,360,353,310,295,6.0,30.0,19.0,18.24951171875,-17.578125,21.118162155151367,-0.624755859375,0.2320556640625,-0.099609375
4.572,834,3147,308,308,5.0,32.0,18.0,22.644041061401367,-25.329587936401367,26.367185592651367,-0.61083984375,0.294921875,-0.0250244140625
4.588,2003,3147,307,308,5.0,32.0,18.0,22.827146530151367,-35.46142578125,24.169919967651367,-0.54638671875,0.260986328125,0.1038818359375
4.588,2178,3147,313,537,5.0,32.0,18.0,22.583005905151367,-44.311519622802734,14.709471702575684,-0.515625,0.12548828125,0.2132568359375
4.619,2456,3147,308,310,5.0,32.0,18.0,24.841306686401367,-48.706050872802734,3.601073980331421,-0.5682373046875,0.0123291015625,0.2476806640625
4.619,594,3147,307,308,5.0,32.0,18.0,30.090330123901367,-48.950191497802734,-2.197265625,-0.63818359375,0.0462646484375,0.1796875
4.620,2799,3147,306,313,5.0,32.0,18.0,35.888671875,-46.386714935302734,1.2817381620407104,-0.6912841796875,0.254638671875,0.0301513671875
4.631,3057,3147,1864,731,5.0,32.0,18.0,38.39111328125,-40.588375091552734,11.291502952575684,-0.781494140625,0.483642578125,-0.130615234375
4.639,3082,3147,308,310,5.0,32.0,18.0,33.38623046875,-30.883787155151367,19.6533203125,-0.9759521484375,0.604736328125,-0.1942138671875
4.647,1634,3147,307,306,5.0,32.0,18.0,21.423337936401367,-18.310546875,21.423337936401367,-1.3231201171875,0.6512451171875,-0.1966552734375
4.667,3147,3147,761,1862,4.0,31.0,17.0,8.23974609375,-6.591796398162842,18.6767578125,-1.7000732421875,0.6370849609375,-0.1527099609375
4.669,2850,3147,1775,3042,4.0,31.0,17.0,-1.220703125,-0.9155272841453552,15.808104515075684,-1.9312744140625,0.585693359375,-0.0302734375
4.677,1855,3147,2089,3147,4.0,31.0,17.0,-4.5166015625,-1.5258787870407104,13.061522483825684,-2.0296630859375,0.4312744140625,0.0675048828125
4.692,3147,3147,508,582,4.0,31.0,17.0,0.6103515625,-0.9765624403953552,8.9111328125,-2.0364990234375,0.2728271484375,-0.00634765625
4.706,793,3147,3147,3147,4.0,31.0,17.0,12.390135765075684,4.2724609375,6.652831554412842,-1.8463134765625,0.26513671875,-0.222900390625
4.707,705,3147,3147,3147,4.0,31.0,17.0,20.324705123901367,9.6435546875,8.23974609375,-1.4163818359375,0.45068359375,-0.4256591796875
4.721,319,3147,306,3147,4.0,31.0,17.0,12.939452171325684,12.390135765075684,7.385253429412842,-1.0533447265625,0.74462890625,-0.4951171875
4.730,2890,3147,1682,3059,4.0,31.0,17.0,-11.779784202575684,13.488768577575684,-1.0986328125,-1.0291748046875,0.833740234375,-0.3641357421875
4.737,330,313,3147,3147,4.0,31.0,17.0,-39.306640625,13.000487327575684,-14.648436546325684,-1.3238525390625,0.640869140625,-0.073486328125
4.751,497,2162,3147,3147,4.0,31.0,17.0,-50.109859466552734,9.6435546875,-25.024412155151367,-1.7353515625,0.3272705078125,0.194091796875
4.771,430,3147,3147,3147,4.0,30.0,19.0,-38.330078125,5.0048828125,-24.963376998901367,-1.92578125,0.114013671875,0.279296875
4.772,323,383,3147,3147,4.0,30.0,19.0,-38.330078125,5.0048828125,-24.963376998901367,-1.7689208984375,0.0941162109375,0.1844482421875
4.786,306,316,3094,3147,4.0,30.0,19.0,10.070799827575684,5.249022960662842,-1.9531248807907104,-1.44677734375,0.18408203125,0.0316162109375
4.796,306,946,2809,3147,4.0,30.0,19.0,24.475095748901367,9.82666015625,5.737304210662842,-1.1715087890625,0.334716796875,-0.05078125
4.805,306,304,2627,3147,4.0,30.0,19.0,24.475095748901367,9.82666015625,5.737304210662842,-0.9835205078125,0.46875,-0.0648193359375
4.811,371,2945,2489,1531,4.0,30.0,19.0,22.277830123901367,18.9208984375,3.417968511581421,-0.863525390625,0.5167236328125,-0.0906982421875
4.819,306,308,2391,2799,4.0,30.0,19.0,10.375975608825684,22.705076217651367,-5.0048828125,-0.80810546875,0.4920654296875,-0.153564453125
4.827,308,310,2195,2599,4.0,30.0,19.0,10.375975608825684,22.705076217651367,-5.0048828125,-0.7635498046875,0.3914794921875,-0.268798828125
4.843,491,2260,1667,523,4.0,30.0,19.0,-17.39501953125,23.010251998901367,-24.230955123901367,-0.7076416015625,0.318115234375,-0.386962890625
4.850,308,319,1770,1750,4.0,30.0,19.0,-25.329587936401367,20.874021530151367,-27.465818405151367,-0.65576171875,0.330322265625,-0.3931884765625
4.874,331,645,1603,759,8.0,35.0,16.0,-25.329587936401367,20.874021530151367,-27.465818405151367,-0.6202392578125,0.31640625,-0.2625732421875
4.874,1199,1039,328,309,8.0,35.0,16.0,-27.099607467651367,12.329100608825684,-23.864744186401367,-0.62060546875,0.2432861328125,-0.1036376953125
4.879,334,590,976,383,8.0,35.0,16.0,-22.338865280151367,10.314940452575684,-20.751951217651367,-0.626708984375,0.176025390625,0.0325927734375
4.887,785,521,308,308,8.0,35.0,16.0,-22.338865280151367,10.314940452575684,-20.751951217651367,-0.60595703125,0.114501953125,0.169677734375
4.909,308,310,624,525,8.0,35.0,16.0,-20.385740280151367,4.150390625,-18.24951171875,-0.5704345703125,0.0728759765625,0.261962890625
4.911,307,521,316,323,8.0,35.0,16.0,-24.230955123901367,-0.30517578125,-18.4326171875,-0.52734375,0.09423828125,0.3028564453125
4.917,445,593,322,307,8.0,35.0,16.0,-24.230955123901367,-0.30517578125,-18.4326171875,-0.481689453125,0.1258544921875,0.3111572265625
4.931,310,310,322,321,8.0,35.0,16.0,-23.071287155151367,-6.225585460662842,-11.413573265075684,-0.43896484375,0.10595703125,0.2603759765625
4.939,306,307,621,642,8.0,35.0,16.0,-14.648436546325684,-6.164550304412842,-5.187987804412842,-0.404541015625,0.0404052734375,0.1497802734375
4.947,336,574,679,706,8.0,35.0,16.0,-14.648436546325684,-6.164550304412842,-5.187987804412842,-0.3956298828125,-0.0408935546875,0.0462646484375
4.977,307,308,922,869,8.0,29.0,14.0,2.868652105331421,-6.347655773162842,3.784179449081421,-0.4061279296875,-0.08740234375,0.0028076171875
4.977,373,1134,1091,540,8.0,29.0,14.0,10.375975608825684,-10.314940452575684,6.774901866912842,-0.4193115234375,-0.058349609375,0.001220703125
4.978,371,423,313,313,8.0,29.0,14.0,10.375975608825684,-10.314940452575684,6.774901866912842,-0.4193115234375,-0.058349609375,0.001220703125
4.991,1188,2100,309,308,8.0,29.0,14.0,27.954099655151367,-18.49365234375,14.038084983825684,-0.5406494140625,0.241943359375,-0.021240234375
4.999,310,308,1289,1691,8.0,29.0,14.0,27.954099655151367,-18.49365234375,14.038084983825684,-0.5672607421875,0.3544921875,-0.028076171875
5.023,306,306,1590,2273,8.0,29.0,14.0,29.357908248901367,-21.057126998901367,18.9208984375,-0.5672607421875,0.3544921875,-0.028076171875
5.023,318,307,313,310,8.0,29.0,14.0,19.287109375,-33.26416015625,19.10400390625,-0.5626220703125,0.21630859375,0.154052734375
5.029,2164,3147,2005,688,8.0,29.0,14.0,19.287109375,-33.26416015625,19.10400390625,-0.5850830078125,0.1219482421875,0.180908203125
5.037,307,307,2538,3147,8.0,29.0,14.0,20.568845748901367,-40.10009765625,15.563963890075684,-0.5850830078125,0.1219482421875,0.180908203125
5.051,2599,3147,2557,830,8.0,28.0,23.0,23.803709030151367,-41.625972747802734,6.469726085662842,-0.6148681640625,0.118896484375,0.1689453125
5.059,376,3147,2955,2053,8.0,28.0,23.0,23.803709030151367,-41.625972747802734,6.469726085662842,-0.6376953125,0.2327880859375,0.1241455078125
5.078,307,308,2950,2337,8.0,28.0,23.0,20.507810592651367,-40.710445404052734,6.774901866912842,-0.6376953125,0.2327880859375,0.1241455078125
5.081,605,3147,3147,2870,8.0,28.0,23.0,20.690916061401367,-32.8369140625,17.822265625,-0.99755859375,0.459228515625,-0.1328125
5.089,601,3147,3147,3106,8.0,28.0,23.0,20.690916061401367,-32.8369140625,17.822265625,-1.3245849609375,0.50830078125,-0.1802978515625
5.098,753,3147,3147,3147,8.0,28.0,23.0,20.751951217651367,-25.756834030151367,18.06640625,-1.3245849609375,0.50830078125,-0.1802978515625
5.127,882,3147,3147,3147,8.0,28.0,23.0,17.2119140625,-20.141599655151367,12.756346702575684,-1.8167724609375,0.5357666015625,0.048583984375
5.127,927,3147,3147,3147,8.0,28.0,23.0,17.2119140625,-20.141599655151367,12.756346702575684,-1.9639892578125,0.4271240234375,0.1365966796875
5.128,966,3147,3147,3147,8.0,28.0,23.0,12.512206077575684,-19.04296875,8.60595703125,-1.9639892578125,0.4271240234375,0.1365966796875
5.141,883,3147,3147,3147,8.0,28.0,23.0,17.63916015625,1.2817381620407104,3.479003667831421,-2.009521484375,0.3975830078125,-0.010986328125
5.149,830,3147,3147,3147,5.0,28.0,23.0,17.63916015625,1.2817381620407104,3.479003667831421,-1.613525390625,0.503173828125,-0.2471923828125
5.157,765,3147,3147,3147,5.0,28.0,23.0,23.254392623901367,13.671874046325684,6.286620616912842,-1.613525390625,0.503173828125,-0.2471923828125
5.183,739,3147,3147,3147,5.0,28.0,23.0,-2.01416015625,24.780271530151367,-5.859374523162842,-1.062744140625,0.8961181640625,-0.4425048828125
5.183,784,3147,3147,3147,5.0,28.0,23.0,-2.01416015625,24.780271530151367,-5.859374523162842,-1.39892578125,0.740478515625,-0.1732177734375
5.191,737,3147,3147,3147,5.0,28.0,23.0,-31.372068405151367,21.118162155151367,-23.742673873901367,-1.39892578125,0.740478515625,-0.1732177734375
5.201,644,3147,3147,2874,5.0,28.0,23.0,-51.452632904052734,13.000487327575684,-38.57421875,-2.1002197265625,0.0130615234375,0.3489990234375
5.225,523,3147,3147,2417,5.0,28.0,23.0,-47.668453216552734,4.21142578125,-38.818359375,-2.1002197265625,0.0130615234375,0.3489990234375
5.228,438,3147,3147,2057,5.0,28.0,23.0,-20.629880905151367,-0.6103515625,-24.169919967651367,-1.9178466796875,-0.05322265625,0.3035888671875
5.231,377,3147,3048,1523,5.0,28.0,23.0,13.122557640075684,1.8920897245407104,-6.164550304412842,-1.2554931640625,0.2664794921875,0.076416015625
5.240,377,3147,2925,1209,5.0,28.0,23.0,34.97314453125,10.375975608825684,5.371093273162842,-1.2554931640625,0.2664794921875,0.076416015625
5.247,361,3147,2750,751,4.0,30.0,19.0,39.1845703125,20.507810592651367,8.7890625,-1.000244140625,0.4515380859375,0.01953125
5.261,361,2691,2465,508,4.0,30.0,19.0,30.456541061401367,29.235837936401367,4.39453125,-0.708984375,0.518310546875,-0.1856689453125
5.283,353,2235,2233,532,4.0,30.0,19.0,14.465331077575684,34.5458984375,-6.896972179412842,-0.708984375,0.518310546875,-0.1856689453125
5.283,347,1985,2087,417,4.0,30.0,19.0,-4.39453125,35.70556640625,-20.874021530151367,-0.6219482421875,0.3834228515625,-0.393798828125
5.293,344,1264,1775,418,4.0,30.0,19.0,-20.324705123901367,33.69140625,-31.372068405151367,-0.55126953125,0.257568359375,-0.5098876953125
5.299,333,860,1499,505,4.0,30.0,19.0,-29.663084030151367,29.174802780151367,-34.60693359375,-0.55126953125,0.257568359375,-0.5098876953125
5.307,1172,654,324,354,4.0,30.0,19.0,-32.470703125,23.071287155151367,-31.982419967651367,-0.54443359375,0.188720703125,-0.341796875
5.329,308,308,725,546,4.0,30.0,19.0,-31.005857467651367,17.9443359375,-26.611326217651367,-0.5213623046875,0.0953369140625,0.10205078125
5.329,310,308,316,316,4.0,30.0,19.0,-27.770994186401367,14.709471702575684,-20.874021530151367,-0.5213623046875,0.0953369140625,0.10205078125
5.337,312,309,521,482,4.0,30.0,19.0,-24.902341842651367,12.939452171325684,-16.357421875,-0.5042724609375,0.0780029296875,0.2701416015625
5.351,308,309,347,482,2.0,30.0,15.0,-21.850584030151367,12.084959983825684,-12.756346702575684,-0.4644775390625,0.103271484375,0.4268798828125
5.359,306,428,360,401,2.0,30.0,15.0,-17.63916015625,9.765625,-9.1552734375,-0.4644775390625,0.103271484375,0.4268798828125
5.386,306,482,390,364,2.0,30.0,15.0,-12.878417015075684,5.432128429412842,-5.065917491912842,-0.4228515625,0.0897216796875,0.42724609375
5.389,307,578,472,334,2.0,30.0,15.0,-8.7890625,2.0751953125,-1.220703125,-0.3431396484375,-0.01318359375,0.2308349609375
5.391,316,562,636,306,2.0,30.0,15.0,-6.225585460662842,1.5258787870407104,1.9531248807907104,-0.3431396484375,-0.01318359375,0.2308349609375
5.397,317,614,766,345,2.0,30.0,15.0,-4.0283203125,1.4648436307907104,5.249022960662842,-0.3544921875,-0.0338134765625,0.1328125
5.420,1129,1013,1123,354,2.0,30.0,15.0,0.4882812201976776,-0.4882812201976776,8.97216796875,-0.36767578125,-0.008544921875,0.03662109375
5.421,1442,1794,308,308,2.0,30.0,15.0,7.934569835662842,-4.7607421875,12.145995140075684,-0.36767578125,-0.008544921875,0.03662109375
5.435,1557,2458,308,308,2.0,30.0,15.0,16.90673828125,-9.033203125,14.526366233825684,-0.4073486328125,0.0528564453125,-0.0196533203125
5.441,1746,3147,314,308,5.0,31.0,20.0,24.658201217651367,-12.145995140075684,19.47021484375,-0.531982421875,0.18359375,-0.0755615234375
5.449,1874,3147,307,308,5.0,31.0,20.0,28.259275436401367,-15.930174827575684,27.770994186401367,-0.6572265625,0.296142578125,-0.0638427734375
5.457,2009,3147,308,313,5.0,31.0,20.0,26.977537155151367,-23.193357467651367,33.5693359375,-0.6990966796875,0.2796630859375,0.0631103515625
5.487,306,307,324,315,5.0,31.0,20.0,25.268552780151367,-34.7900390625,31.555173873901367,-0.647216796875,0.108154296875,0.21484375
5.488,404,3147,2587,1775,5.0,31.0,20.0,32.28759765625,-46.081539154052734,23.498533248901367,-0.600341796875,-0.082275390625,0.2564697265625
5.488,447,3147,2757,2153,5.0,31.0,20.0,50.476070404052734,-53.039546966552734,16.9677734375,-0.6416015625,-0.0682373046875,0.201416015625
5.501,1185,3147,3084,2608,5.0,31.0,20.0,67.138671875,-54.809566497802734,16.90673828125,-0.7308349609375,0.1878662109375,0.048828125
5.509,3130,3147,306,2386,5.0,31.0,20.0,68.4814453125,-48.645015716552734,21.606443405151367,-0.8626708984375,0.52099609375,-0.1561279296875
5.527,3147,3147,307,308,5.0,31.0,20.0,52.124019622802734,-34.60693359375,25.634763717651367,-1.038330078125,0.63330078125,-0.3056640625
5.531,3147,3147,634,327,5.0,31.0,20.0,29.846189498901367,-18.6767578125,26.855466842651367,-1.2821044921875,0.58447265625,-0.3360595703125
5.543,797,3147,3147,3147,4.0,25.0,25.0,15.869139671325684,-7.995604991912842,27.160642623901367,-1.5538330078125,0.5579833984375,-0.196533203125
5.547,2886,3147,324,315,4.0,25.0,25.0,10.131834983825684,-5.310058116912842,26.916501998901367,-1.7647705078125,0.5823974609375,0.0225830078125
5.561,3147,3147,313,461,4.0,25.0,25.0,6.469726085662842,-6.530761241912842,24.902341842651367,-1.89599609375,0.6102294921875,0.1910400390625
5.569,3147,3147,607,1557,4.0,25.0,25.0,3.356933355331421,-4.8828125,19.95849609375,-1.995849609375,0.5604248046875,0.16064453125
5.592,3147,3147,2918,3147,4.0,25.0,25.0,5.554198741912842,2.990722417831421,13.183592796325684,-1.9945068359375,0.510498046875,-0.0794677734375
5.593,684,3147,3147,3147,4.0,25.0,25.0,11.230467796325684,12.939452171325684,7.446288585662842,-1.6827392578125,0.57275390625,-0.3604736328125
5.599,654,3147,3147,3147,4.0,25.0,25.0,7.202147960662842,18.6767578125,1.15966796875,-1.2337646484375,0.7696533203125,-0.5228271484375
5.607,679,3147,3147,3147,4.0,25.0,25.0,-13.366698265075684,19.59228515625,-10.498045921325684,-1.0750732421875,0.913818359375,-0.4197998046875
5.635,658,3147,3147,3147,4.0,25.0,25.0,-41.931148529052734,17.08984375,-26.733396530151367,-1.3638916015625,0.748046875,-0.065185546875
5.636,590,3147,3147,3147,4.0,25.0,25.0,-59.570308685302734,12.268065452575684,-38.87939453125,-1.796875,0.3251953125,0.28564453125
5.638,487,3147,3147,2833,5.0,29.0,20.0,-52.612300872802734,8.056640625,-37.90283203125,-1.95263671875,0.007080078125,0.3907470703125
5.652,417,3147,3130,2306,5.0,29.0,20.0,-26.306150436401367,7.934569835662842,-25.268552780151367,-1.7679443359375,-0.0374755859375,0.266845703125
5.660,415,3147,2996,1914,5.0,29.0,20.0,1.4038084745407104,12.939452171325684,-10.864256858825684,-1.46337890625,0.1041259765625,0.086669921875
5.668,423,3147,2831,1584,5.0,29.0,20.0,17.08984375,20.01953125,-1.4648436307907104,-1.2283935546875,0.3236083984375,-0.03173828125
5.693,374,3147,2584,869,5.0,29.0,20.0,20.874021530151367,24.902341842651367,1.7700194120407104,-1.058837890625,0.442138671875,-0.12060546875
5.693,361,3147,2419,479,5.0,29.0,20.0,20.202634811401367,26.428220748901367,-1.0986328125,-0.925537109375,0.4547119140625,-0.229736328125
5.698,356,2699,2238,461,5.0,29.0,20.0,17.39501953125,24.780271530151367,-8.85009765625,-0.81298828125,0.4840087890625,-0.3319091796875
5.713,338,2065,1945,433,5.0,29.0,20.0,8.11767578125,20.935056686401367,-20.01953125,-0.6905517578125,0.513916015625,-0.4393310546875
5.727,332,1613,1750,519,5.0,29.0,20.0,-6.591796398162842,18.49365234375,-32.1044921875,-0.5849609375,0.5103759765625,-0.4942626953125
5.728,331,1163,1516,376,5.0,29.0,20.0,-20.812986373901367,16.7236328125,-42.053218841552734,-0.544677734375,0.4205322265625,-0.3875732421875
5.754,985,597,889,334,6.0,29.0,27.0,-29.235837936401367,13.916014671325684,-46.569820404052734,-0.5479736328125,0.289306640625,-0.1949462890625
5.755,369,518,310,315,6.0,29.0,27.0,-30.029294967651367,11.535643577575684,-44.677730560302734,-0.5245361328125,0.161865234375,0.01171875
5.758,306,430,564,347,6.0,29.0,27.0,-26.733396530151367,9.94873046875,-39.55078125,-0.48388671875,0.0311279296875,0.2115478515625
5.772,364,465,308,308,6.0,29.0,27.0,-22.888181686401367,8.7890625,-33.69140625,-0.4609375,-0.05615234375,0.35107421875
5.795,328,593,324,327,6.0,29.0,27.0,-18.4326171875,7.690429210662842,-27.099607467651367,-0.4560546875,-0.085693359375,0.43408203125
5.798,304,607,338,329,6.0,29.0,27.0,-13.061522483825684,4.82177734375,-19.83642578125,-0.4423828125,-0.06884765625,0.47314453125
5.802,307,620,391,334,6.0,29.0,27.0,-8.6669921875,1.3427733182907104,-12.634276390075684,-0.3902587890625,-0.021728515625,0.4224853515625
5.810,305,548,439,333,6.0,29.0,27.0,-5.920409679412842,0.2441406100988388,-7.019042491912842,-0.342041015625,-0.0201416015625,0.309814453125
5.818,318,666,567,330,6.0,29.0,27.0,-4.69970703125,0.30517578125,-2.990722417831421,-0.33935546875,-0.083740234375,0.1983642578125
5.835,357,845,811,332,6.0,29.0,19.0,-2.01416015625,-0.6713866591453552,1.5258787870407104,-0.349853515625,-0.115966796875,0.0963134765625
5.842,354,1074,1123,372,6.0,29.0,19.0,5.615233898162842,-3.417968511581421,7.690429210662842,-0.3446044921875,-0.0848388671875,0.024658203125
5.848,346,1722,1500,385,6.0,29.0,19.0,15.808104515075684,-7.202147960662842,13.854979515075684,-0.3477783203125,-0.0103759765625,-0.0242919921875
5.863,1535,2637,308,308,6.0,29.0,19.0,24.475095748901367,-10.192870140075684,19.53125,-0.4381103515625,0.1375732421875,-0.0770263671875
5.870,1920,3114,308,308,6.0,29.0,19.0,27.526853561401367,-12.451170921325684,26.367185592651367,-0.5882568359375,0.3267822265625,-0.104736328125
5.878,2035,3147,306,309,6.0,29.0,19.0,23.010251998901367,-16.845703125,30.761716842651367,-0.67822265625,0.400634765625,-0.053466796875
5.896,1100,3147,308,310,6.0,29.0,19.0,13.549803733825684,-26.000974655151367,27.404783248901367,-0.646484375,0.302734375,0.0673828125
5.901,398,3147,2443,1313,6.0,29.0,19.0,5.615233898162842,-36.31591796875,18.5546875,-0.5599365234375,0.1126708984375,0.1697998046875
5.908,388,3147,2648,1711,6.0,29.0,19.0,6.164550304412842,-40.649410247802734,11.535643577575684,-0.5601806640625,0.030029296875,0.2327880859375
5.922,2912,3147,308,316,6.0,29.0,19.0,12.390135765075684,-39.1845703125,10.864256858825684,-0.6400146484375,0.0770263671875,0.2471923828125
5.937,411,3147,3147,2695,6.0,29.0,22.0,17.822265625,-35.5224609375,15.624999046325684,-0.7708740234375,0.2117919921875,0.1563720703125
5.938,508,3147,3147,3101,6.0,29.0,22.0,22.705076217651367,-29.357908248901367,23.681638717651367,-0.9852294921875,0.40087890625,-0.0537109375
5.953,3147,3147,3147,314,6.0,29.0,22.0,24.414060592651367,-21.362302780151367,29.724119186401367,-1.258544921875,0.4454345703125,-0.26123046875
5.974,784,3147,3147,3147,6.0,29.0,22.0,22.644041061401367,-15.197752952575684,30.334470748901367,-1.53955078125,0.480224609375,-0.3187255859375
5.975,3147,3147,308,3147,6.0,29.0,22.0,19.71435546875,-13.977049827575684,28.686521530151367,-1.7440185546875,0.5501708984375,-0.218505859375
5.985,3147,3147,308,315,6.0,29.0,22.0,13.366698265075684,-15.624999046325684,25.756834030151367,-1.89599609375,0.5386962890625,-0.0511474609375
6.000,944,3147,3147,3147,6.0,29.0,22.0,8.36181640625,-14.099120140075684,20.690916061401367,-2.0078125,0.4991455078125,0.048095703125
6.000,946,3147,1331,346,6.0,29.0,22.0,8.36181640625,-14.099120140075684,20.690916061401367,-2.0118408203125,0.466064453125,0.057861328125
6.012,3147,3147,388,1502,6.0,29.0,22.0,18.73779296875,1.220703125,12.878417015075684,-1.7955322265625,0.465087890625,-0.0694580078125
6.020,794,3147,3147,3147,6.0,29.0,22.0,23.071287155151367,9.58251953125,8.36181640625,-1.356201171875,0.598388671875,-0.2769775390625
6.037,788,3147,3147,3147,0.0,29.0,22.0,23.071287155151367,9.58251953125,8.36181640625,-1.0460205078125,0.844482421875,-0.38818359375
6.042,794,3147,3147,3147,0.0,29.0,22.0,-8.11767578125,19.83642578125,-15.563963890075684,-1.1561279296875,0.899169921875,-0.287109375
6.051,765,3147,3147,3147,0.0,29.0,22.0,-36.4990234375,19.71435546875,-31.188962936401367,-1.616455078125,0.6104736328125,0.00927734375
6.058,713,3147,3147,3147,0.0,29.0,22.0,-36.4990234375,19.71435546875,-31.188962936401367,-2.034423828125,0.1959228515625,0.269287109375
6.082,555,3147,3147,2671,0.0,29.0,22.0,-48.156734466552734,13.061522483825684,-31.433103561401367,-2.0924072265625,-0.053466796875,0.323974609375
6.083,766,3147,3129,2350,0.0,29.0,22.0,-20.751951217651367,12.634276390075684,-15.930174827575684,-1.84814453125,-0.05810546875,0.207763671875
6.102,761,3147,722,1689,0.0,29.0,22.0,-20.751951217651367,12.634276390075684,-15.930174827575684,-1.5006103515625,0.1456298828125,0.0611572265625
6.103,423,3147,2807,1278,0.0,29.0,22.0,30.090330123901367,20.751951217651367,4.8828125,-1.1485595703125,0.387451171875,-0.0609130859375
6.110,378,3147,2713,707,0.0,29.0,22.0,33.38623046875,24.902341842651367,5.798339366912842,-0.8489990234375,0.534912109375,-0.1641845703125
6.118,361,3003,2554,619,0.0,29.0,22.0,33.38623046875,24.902341842651367,5.798339366912842,-0.6329345703125,0.565185546875,-0.2562255859375
6.140,336,869,2341,1143,4.0,29.0,17.0,3.356933355331421,29.052732467651367,-12.573241233825684,-0.495361328125,0.4371337890625,-0.38525390625
6.140,344,1925,2054,600,4.0,29.0,17.0,-17.333984375,30.151365280151367,-26.611326217651367,-0.4635009765625,0.312255859375,-0.48974609375
6.148,337,1615,1850,445,4.0,29.0,17.0,-17.333984375,30.151365280151367,-26.611326217651367,-0.5009765625,0.265625,-0.469970703125
6.162,356,917,1400,388,4.0,29.0,17.0,-37.65869140625,26.428220748901367,-37.65869140625,-0.5330810546875,0.2117919921875,-0.3265380859375
6.170,346,673,1104,364,4.0,29.0,17.0,-38.6962890625,21.728513717651367,-35.33935546875,-0.5343017578125,0.13525390625,-0.10107421875
6.181,891,593,830,336,4.0,29.0,17.0,-38.6962890625,21.728513717651367,-35.33935546875,-0.527099609375,0.0443115234375,0.12841796875
6.205,307,306,737,578,4.0,29.0,17.0,-34.1796875,15.014647483825684,-26.245115280151367,-0.5289306640625,-0.025634765625,0.2880859375
6.205,310,591,660,346,4.0,29.0,17.0,-26.306150436401367,14.953612327575684,-19.8974609375,-0.534423828125,-0.03955078125,0.367919921875
6.208,308,590,540,332,4.0,29.0,17.0,-26.306150436401367,14.953612327575684,-19.8974609375,-0.53515625,0.0087890625,0.420654296875
6.222,336,638,508,330,4.0,29.0,17.0,-5.859374523162842,9.8876953125,-5.554198741912842,-0.5074462890625,0.071533203125,0.4451904296875
6.240,338,630,582,330,3.0,30.0,19.0,-5.859374523162842,9.8876953125,-5.554198741912842,-0.4376220703125,0.0848388671875,0.3870849609375
6.240,388,667,594,323,3.0,30.0,19.0,-1.15966796875,4.57763671875,-0.6713866591453552,-0.4376220703125,0.0848388671875,0.3870849609375
6.252,351,793,883,336,3.0,30.0,19.0,-1.3427733182907104,0.7934569716453552,2.685546636581421,-0.3271484375,0.012939453125,0.16162109375
6.260,400,1111,317,308,3.0,30.0,19.0,-1.3427733182907104,0.7934569716453552,2.685546636581421,-0.3023681640625,-0.0234375,0.0865478515625
6.268,418,1604,1185,364,3.0,30.0,19.0,-0.7934569716453552,-1.0986328125,5.493163585662842,-0.3023681640625,-0.0234375,0.0865478515625
6.287,1593,2715,306,308,3.0,30.0,19.0,9.27734375,-7.019042491912842,16.4794921875,-0.4095458984375,0.062744140625,-0.0631103515625
6.309,599,3147,1686,416,3.0,30.0,19.0,9.27734375,-7.019042491912842,16.4794921875,-0.57666015625,0.2257080078125,-0.103759765625
6.310,1877,3147,1843,614,3.0,30.0,19.0,16.6015625,-9.521484375,26.611326217651367,-0.57666015625,0.2257080078125,-0.103759765625
6.312,2063,3147,308,308,3.0,30.0,19.0,23.742673873901367,-26.977537155151367,36.9873046875,-0.6649169921875,0.259765625,0.0775146484375
6.320,2191,3147,308,313,3.0,30.0,19.0,23.742673873901367,-26.977537155151367,36.9873046875,-0.6025390625,0.0885009765625,0.1270751953125
6.328,750,3147,2072,1790,5.0,29.0,22.0,26.367185592651367,-42.358394622802734,29.602048873901367,-0.6025390625,0.0885009765625,0.1270751953125
6.347,2578,3147,310,308,5.0,29.0,22.0,48.706050872802734,-62.255855560302734,14.892577171325684,-0.647705078125,0.173828125,0.1395263671875
6.351,2736,3147,1069,2976,5.0,29.0,22.0,48.706050872802734,-62.255855560302734,14.892577171325684,-0.7591552734375,0.4189453125,0.03955078125
6.358,2882,3147,2964,3139,5.0,29.0,22.0,52.307125091552734,-59.143062591552734,13.793944358825684,-0.7591552734375,0.4189453125,0.03955078125
6.372,3134,3147,308,321,5.0,29.0,22.0,29.296873092651367,-26.672361373901367,19.775390625,-1.216552734375,0.4189453125,-0.3311767578125
6.381,3147,3147,307,308,5.0,29.0,22.0,29.296873092651367,-26.672361373901367,19.775390625,-1.526611328125,0.300537109375,-0.3177490234375
6.411,3147,3147,308,678,5.0,29.0,22.0,16.05224609375,-12.878417015075684,22.216794967651367,-1.526611328125,0.300537109375,-0.3177490234375
6.411,754,3147,3147,3147,5.0,29.0,22.0,7.751464366912842,-6.103515148162842,29.602048873901367,-1.900146484375,0.421630859375,0.1416015625
6.412,2213,3147,3147,308,5.0,29.0,22.0,7.751464366912842,-6.103515148162842,29.602048873901367,-1.9879150390625,0.410400390625,0.2803955078125
6.420,3147,3147,308,739,5.0,29.0,22.0,3.540038824081421,-1.0986328125,29.907224655151367,-1.9879150390625,0.410400390625,0.2803955078125
6.432,3147,3147,2435,3147,1.0,29.0,24.0,12.145995140075684,21.972654342651367,24.414060592651367,-1.63671875,0.5238037109375,-0.0904541015625
6.452,1934,3147,936,314,1.0,29.0,24.0,12.145995140075684,21.972654342651367,24.414060592651367,-1.2001953125,0.7818603515625,-0.41455078125
6.453,818,3147,2937,3147,1.0,29.0,24.0,14.892577171325684,31.799314498901367,18.12744140625,-1.2001953125,0.7818603515625,-0.41455078125
6.462,499,3147,3014,3147,1.0,29.0,24.0,2.746581792831421,35.7666015625,5.737304210662842,-1.2835693359375,0.876953125,-0.3394775390625
6.470,3147,3147,315,338,1.0,29.0,24.0,-24.047849655151367,33.38623046875,-11.840819358825684,-1.2835693359375,0.876953125,-0.3394775390625
6.478,3121,3147,331,455,1.0,29.0,24.0,-51.147457122802734,26.367185592651367,-27.770994186401367,-1.70263671875,0.4615478515625,-0.04150390625
6.492,2963,3147,331,3147,1.0,29.0,24.0,-61.096187591552734,18.61572265625,-32.53173828125,-1.828369140625,-0.0592041015625,0.1241455078125
6.515,1085,3147,973,316,1.0,29.0,24.0,-48.095699310302734,14.160155296325684,-23.132322311401367,-1.828369140625,-0.0592041015625,0.1241455078125
6.516,479,3147,2859,2645,1.0,29.0,24.0,-21.362302780151367,14.099120140075684,-8.1787109375,-1.57568359375,0.0408935546875,0.0518798828125
6.522,369,3147,2674,2003,2.0,30.0,22.0,2.197265625,16.9677734375,2.624511480331421,-1.095947265625,0.487060546875,-0.0518798828125
6.535,363,3147,2526,1397,2.0,30.0,22.0,13.366698265075684,20.751951217651367,6.286620616912842,-1.095947265625,0.487060546875,-0.0518798828125
6.547,361,3147,2370,897,2.0,30.0,22.0,15.686034202575684,24.169919967651367,3.295898199081421,-0.9443359375,0.5274658203125,-0.1356201171875
6.552,351,2880,2065,473,2.0,30.0,22.0,14.038084983825684,25.085447311401367,-4.5166015625,-0.71630859375,0.3934326171875,-0.321044921875
6.560,344,2416,1904,458,2.0,30.0,22.0,7.934569835662842,23.071287155151367,-13.549803733825684,-0.71630859375,0.3934326171875,-0.321044921875
6.568,336,2167,1785,479,2.0,30.0,22.0,-3.295898199081421,22.033689498901367,-20.01953125,-0.614990234375,0.364990234375,-0.41796875
6.582,330,1653,1447,406,2.0,30.0,22.0,-17.51708984375,22.521970748901367,-22.644041061401367,-0.55517578125,0.2545166015625,-0.2684326171875
6.590,327,1157,1206,430,2.0,30.0,22.0,-30.700681686401367,21.240232467651367,-23.193357467651367,-0.55517578125,0.2545166015625,-0.2684326171875
6.617,323,844,1012,359,2.0,30.0,22.0,-37.2314453125,18.12744140625,-22.644041061401367,-0.5723876953125,0.1556396484375,-0.110595703125
6.618,322,522,307,308,2.0,30.0,22.0,-36.4990234375,13.549803733825684,-21.179197311401367,-0.531982421875,0.0269775390625,0.216552734375
6.620,675,590,307,308,5.0,26.0,20.0,-32.1044921875,7.934569835662842,-20.01953125,-0.531982421875,0.0269775390625,0.216552734375
6.628,574,600,308,308,5.0,26.0,20.0,-26.550291061401367,3.784179449081421,-18.61572265625,-0.5399169921875,0.0709228515625,0.29052734375
6.655,332,497,441,324,5.0,26.0,20.0,-21.850584030151367,1.5869139432907104,-15.197752952575684,-0.5462646484375,0.19140625,0.3194580078125
6.655,318,533,481,328,5.0,26.0,20.0,-19.1650390625,-1.0986328125,-10.131834983825684,-0.5462646484375,0.19140625,0.3194580078125
6.658,418,666,497,330,5.0,26.0,20.0,-18.12744140625,-4.5166015625,-5.798339366912842,-0.4969482421875,0.1385498046875,0.24755859375
6.672,324,671,779,334,5.0,26.0,20.0,-17.578125,-6.286620616912842,-4.2724609375,-0.428955078125,0.036376953125,0.1400146484375
6.680,318,841,858,346,5.0,26.0,20.0,-16.41845703125,-6.286620616912842,-4.2724609375,-0.3824462890625,-0.0360107421875,0.0550537109375
6.688,324,1093,1074,356,5.0,26.0,20.0,-12.451170921325684,-6.835937023162842,-2.685546636581421,-0.361572265625,-0.0333251953125,0.026123046875
6.720,330,2105,1548,363,5.0,26.0,20.0,-4.69970703125,-8.60595703125,0.7324218153953552,-0.3662109375,0.0340576171875,0.0338134765625
6.721,334,2519,1732,387,5.0,26.0,20.0,4.21142578125,-10.009765625,4.57763671875,-0.43896484375,0.1553955078125,0.016845703125
6.728,343,2784,1877,398,5.0,30.0,16.0,9.6435546875,-10.070799827575684,9.1552734375,-0.5667724609375,0.29638671875,-0.0457763671875
6.733,349,3147,2128,567,5.0,30.0,16.0,8.1787109375,-11.169432640075684,13.610838890075684,-0.655029296875,0.3399658203125,-0.0806884765625
6.739,360,3147,2290,858,5.0,30.0,16.0,1.8310545682907104,-16.29638671875,14.343260765075684,-0.6531982421875,0.253662109375,-0.02783203125
6.764,371,3147,2435,1250,5.0,30.0,16.0,-1.2817381620407104,-24.414060592651367,9.6435546875,-0.6053466796875,0.098876953125,0.0445556640625
6.764,375,3147,2683,1861,5.0,30.0,16.0,3.845214605331421,-31.249998092651367,2.13623046875,-0.62109375,0.009521484375,0.13818359375
6.771,389,3147,2828,2111,5.0,30.0,16.0,12.145995140075684,-35.58349609375,-2.197265625,-0.69091796875,0.0194091796875,0.251220703125
6.778,959,3147,308,307,5.0,30.0,16.0,17.2119140625,-38.87939453125,-0.54931640625,-0.7430419921875,0.0758056640625,0.338623046875
6.792,3099,3147,308,3080,5.0,30.0,16.0,21.240232467651367,-41.015621185302734,6.286620616912842,-0.7940673828125,0.2322998046875,0.3389892578125
6.800,473,3147,3147,3147,5.0,30.0,16.0,28.991697311401367,-39.306640625,17.08984375,-0.908935546875,0.435302734375,0.165283203125
6.821,619,3147,3147,3147,5.0,30.0,16.0,38.0859375,-32.40966796875,28.015134811401367,-1.0772705078125,0.614501953125,-0.08447265625
6.822,3147,3147,308,313,1.0,29.0,20.0,41.015621185302734,-23.437498092651367,33.02001953125,-1.3116455078125,0.692626953125,-0.3013916015625
6.830,777,3147,3147,3147,1.0,29.0,20.0,35.5224609375,-16.11328125,28.930662155151367,-1.5938720703125,0.6785888671875,-0.3790283203125
6.839,2922,3147,306,308,1.0,29.0,20.0,22.460935592651367,-13.610838890075684,19.287109375,-1.7833251953125,0.5645751953125,-0.2822265625
6.859,3147,3147,1443,3147,1.0,29.0,20.0,8.97216796875,-14.282225608825684,7.812499523162842,-1.9017333984375,0.4287109375,-0.161865234375
6.860,2328,3147,1742,3147,1.0,29.0,20.0,4.08935546875,-12.390135765075684,-2.3193359375,-1.9683837890625,0.385986328125,-0.1019287109375
6.870,902,3147,3147,3147,1.0,29.0,20.0,5.187987804412842,-7.019042491912842,-7.873534679412842,-1.8729248046875,0.387939453125,-0.1029052734375
6.882,808,3147,3147,3147,1.0,29.0,20.0,5.0048828125,0.2441406100988388,-9.70458984375,-1.52490234375,0.4371337890625,-0.1827392578125
6.890,787,3147,3147,3147,1.0,29.0,20.0,-1.6479490995407104,7.934569835662842,-12.268065452575684,-1.1048583984375,0.5948486328125,-0.2523193359375
6.898,788,3147,3147,3147,1.0,29.0,20.0,-17.39501953125,14.953612327575684,-19.04296875,-0.9871826171875,0.7279052734375,-0.1767578125
6.927,758,3147,3147,3147,6.0,30.0,17.0,-39.00146484375,19.6533203125,-29.418943405151367,-1.29931640625,0.5994873046875,0.0689697265625
6.928,702,3147,3147,3147,6.0,30.0,17.0,-54.626461029052734,20.446775436401367,-36.9873046875,-1.7584228515625,0.2537841796875,0.30908203125
6.928,614,3147,3147,3147,6.0,30.0,17.0,-51.086421966552734,18.85986328125,-33.5693359375,-1.95556640625,-0.0689697265625,0.352783203125
6.942,376,3147,3147,3000,6.0,30.0,17.0,-26.428220748901367,17.76123046875,-19.34814453125,-1.81005859375,-0.1395263671875,0.2177734375
6.962,373,3147,3139,2610,6.0,30.0,17.0,5.493163585662842,18.73779296875,-2.807616949081421,-1.5242919921875,0.0614013671875,0.0543212890625
6.963,371,3147,2990,2238,6.0,30.0,17.0,26.489255905151367,21.606443405151367,8.7890625,-1.2510986328125,0.3238525390625,-0.048095703125
6.972,361,3147,2659,1323,6.0,30.0,17.0,31.860349655151367,25.573728561401367,13.488768577575684,-1.02734375,0.4537353515625,-0.114990234375
6.984,360,3147,2538,758,6.0,30.0,17.0,28.442380905151367,29.907224655151367,11.901854515075684,-0.8538818359375,0.49462890625,-0.14892578125
6.988,359,3147,2361,473,6.0,30.0,17.0,20.446775436401367,31.738279342651367,4.33349609375,-0.708251953125,0.4932861328125,-0.18701171875
7.002,364,2600,2063,434,6.0,30.0,17.0,6.896972179412842,31.127927780151367,-8.36181640625,-0.609619140625,0.4385986328125,-0.278564453125
7.032,1878,2257,1695,473,0.0,28.0,16.0,-10.620116233825684,31.127927780151367,-21.362302780151367,-0.574951171875,0.3800048828125,-0.3751220703125
7.034,490,1798,1184,308,0.0,28.0,16.0,-25.451658248901367,31.005857467651367,-28.686521530151367,-0.57763671875,0.3038330078125,-0.38818359375
7.035,323,1191,1336,385,0.0,28.0,16.0,-32.470703125,28.625486373901367,-29.296873092651367,-0.5941162109375,0.228759765625,-0.295654296875
7.040,321,744,1097,401,0.0,28.0,16.0,-33.26416015625,24.536130905151367,-25.268552780151367,-0.5908203125,0.1820068359375,-0.142333984375
7.048,315,536,860,360,0.0,28.0,16.0,-31.249998092651367,20.629880905151367,-20.629880905151367,-0.5673828125,0.1044921875,0.0281982421875
7.063,307,306,631,342,0.0,28.0,16.0,-28.991697311401367,17.7001953125,-17.7001953125,-0.562744140625,0.031005859375,0.1812744140625
7.070,406,497,308,308,0.0,28.0,16.0,-26.428220748901367,15.136717796325684,-15.319823265075684,-0.5802001953125,0.0155029296875,0.285400390625
7.079,491,508,308,308,0.0,28.0,16.0,-21.484373092651367,11.901854515075684,-11.840819358825684,-0.5888671875,0.0384521484375,0.356201171875
7.125,442,576,361,308,0.0,28.0,16.0,-14.404295921325684,7.324218273162842,-7.385253429412842,-0.5679931640625,0.069091796875,0.378173828125
7.164,531,713,308,306,0.0,28.0,16.0,-7.202147960662842,3.051757574081421,-2.929687261581421,-0.5091552734375,0.1015625,0.3026123046875
7.165,634,735,308,308,5.0,30.0,18.0,-3.112792730331421,1.03759765625,0.9765624403953552,-0.442138671875,0.070556640625,0.176513671875
7.165,390,844,599,313,5.0,30.0,18.0,-2.563476324081421,0.0,3.784179449081421,-0.411376953125,-0.0330810546875,0.07421875
7.165,975,1129,802,342,5.0,30.0,18.0,-1.220703125,-2.13623046875,6.225585460662842,-0.40673828125,-0.0975341796875,0.0113525390625
7.165,373,1821,1070,351,5.0,30.0,18.0,-1.220703125,-2.13623046875,6.225585460662842,-0.4254150390625,-0.0655517578125,-0.0233154296875
7.165,1501,2697,306,308,5.0,30.0,18.0,13.793944358825684,-8.9111328125,16.357421875,-0.5078125,0.072021484375,-0.0552978515625
7.165,785,3082,1183,364,5.0,30.0,18.0,20.385740280151367,-12.023924827575684,24.047849655151367,-0.630859375,0.238037109375,-0.0802001953125
7.172,780,3147,1276,559,5.0,30.0,18.0,20.385740280151367,-12.023924827575684,24.047849655151367,-0.7227783203125,0.337890625,-0.0447998046875
7.182,1983,3147,537,308,5.0,30.0,18.0,16.29638671875,-23.498533248901367,28.015134811401367,-0.7274169921875,0.33837890625,0.053955078125
7.195,2135,3147,308,310,5.0,30.0,18.0,11.535643577575684,-33.14208984375,21.057126998901367,-0.639892578125,0.22705078125,0.1441650390625
7.199,389,3147,2058,1627,5.0,30.0,18.0,11.535643577575684,-33.14208984375,21.057126998901367,-0.5762939453125,0.0826416015625,0.16162109375
7.228,2566,3147,308,308,4.0,30.0,17.0,13.366698265075684,-40.405269622802734,3.601073980331421,-0.6097412109375,0.0059814453125,0.131103515625
7.228,2717,3147,310,348,4.0,30.0,17.0,16.41845703125,-39.00146484375,3.417968511581421,-0.6951904296875,0.067138671875,0.078857421875
7.229,2874,3147,308,308,4.0,30.0,17.0,16.41845703125,-39.00146484375,3.417968511581421,-0.7998046875,0.2579345703125,-0.012451171875
7.245,3095,3147,310,308,4.0,30.0,17.0,21.118162155151367,-30.334470748901367,20.141599655151367,-0.9305419921875,0.400634765625,-0.1317138671875
7.252,3147,3147,308,315,4.0,30.0,17.0,21.728513717651367,-23.681638717651367,28.259275436401367,-1.1063232421875,0.4603271484375,-0.2061767578125
7.269,722,3147,2742,3147,4.0,30.0,17.0,21.728513717651367,-23.681638717651367,28.259275436401367,-1.351318359375,0.591796875,-0.183837890625
7.272,3147,3147,865,2990,4.0,30.0,17.0,17.27294921875,-11.474608421325684,33.3251953125,-1.614501953125,0.710693359375,-0.0899658203125
7.280,3147,3147,3147,3147,4.0,30.0,17.0,7.873534679412842,-7.934569835662842,29.602048873901367,-1.7908935546875,0.69921875,0.042236328125
7.289,1330,3147,313,336,4.0,30.0,17.0,7.873534679412842,-7.934569835662842,29.602048873901367,-1.90087890625,0.53466796875,0.10107421875
7.302,808,3147,2612,1943,4.0,28.0,18.0,-4.2724609375,-0.9155272841453552,13.122557640075684,-1.943115234375,0.367919921875,-0.0172119140625
7.310,3147,3147,1010,2578,4.0,28.0,18.0,4.08935546875,6.591796398162842,7.080077648162842,-1.763671875,0.35693359375,-0.264404296875
7.330,3147,3147,306,1651,4.0,28.0,18.0,4.08935546875,6.591796398162842,7.080077648162842,-1.3682861328125,0.5205078125,-0.4693603515625
7.332,3147,3147,1443,2965,4.0,28.0,18.0,0.2441406100988388,13.488768577575684,-0.3662109076976776,-1.0703125,0.785888671875,-0.504150390625
7.340,564,3147,3147,3147,4.0,28.0,18.0,-25.207517623901367,12.451170921325684,-11.535643577575684,-1.1417236328125,0.87353515625,-0.30615234375
7.354,539,3147,3147,3147,4.0,28.0,18.0,-25.207517623901367,12.451170921325684,-11.535643577575684,-1.5364990234375,0.6146240234375,0.0382080078125
7.372,849,3147,2695,3147,4.0,28.0,18.0,-70.12939453125,8.4228515625,-34.1796875,-1.9075927734375,0.1507568359375,0.2911376953125
7.372,540,3147,3057,3147,4.0,28.0,18.0,-70.12939453125,8.4228515625,-34.1796875,-1.9449462890625,-0.1793212890625,0.329833984375
7.378,537,3147,2941,3000,4.0,28.0,18.0,-58.471675872802734,7.202147960662842,-29.357908248901367,-1.9449462890625,-0.1793212890625,0.329833984375
7.392,400,3147,2837,2253,4.0,28.0,18.0,7.446288585662842,12.634276390075684,1.220703125,-1.34228515625,0.201416015625,0.0694580078125
7.400,371,3147,2728,1967,2.0,30.0,22.0,7.446288585662842,12.634276390075684,1.220703125,-1.029052734375,0.4879150390625,-0.0286865234375
7.408,428,3147,2465,1463,2.0,30.0,22.0,22.705076217651367,18.24951171875,11.962889671325684,-1.029052734375,0.4879150390625,-0.0286865234375
7.436,533,3147,2119,430,2.0,30.0,22.0,10.620116233825684,29.907224655151367,7.507323741912842,-0.6964111328125,0.52978515625,-0.1865234375
7.436,2072,3012,1700,418,2.0,30.0,22.0,10.620116233825684,29.907224655151367,7.507323741912842,-0.6273193359375,0.477783203125,-0.281982421875
7.439,495,2557,1608,416,2.0,30.0,22.0,-3.601073980331421,30.456541061401367,-3.112792730331421,-0.6273193359375,0.477783203125,-0.281982421875
7.470,349,2087,1669,411,2.0,30.0,22.0,-29.113767623901367,24.658201217651367,-21.972654342651367,-0.5689697265625,0.35888671875,-0.4232177734375
7.472,401,1683,1386,400,2.0,30.0,22.0,-29.113767623901367,24.658201217651367,-21.972654342651367,-0.6309814453125,0.2520751953125,-0.3212890625
7.472,619,1313,1120,363,2.0,30.0,22.0,-35.94970703125,19.6533203125,-25.756834030151367,-0.6309814453125,0.2520751953125,-0.3212890625
7.485,391,751,898,346,2.0,30.0,22.0,-34.5458984375,9.1552734375,-22.033689498901367,-0.6236572265625,0.0223388671875,-0.00390625
7.490,319,571,757,332,2.0,30.0,22.0,-34.5458984375,9.1552734375,-22.033689498901367,-0.5777587890625,-0.051513671875,0.153564453125
7.498,317,537,661,328,4.0,30.0,21.0,-29.296873092651367,5.554198741912842,-19.8974609375,-0.5777587890625,-0.051513671875,0.153564453125
7.512,351,308,308,614,4.0,30.0,21.0,-13.732909202575684,2.01416015625,-14.526366233825684,-0.576171875,0.056396484375,0.3243408203125
7.535,308,306,418,625,4.0,30.0,21.0,-13.732909202575684,2.01416015625,-14.526366233825684,-0.585693359375,0.1611328125,0.377685546875
7.537,329,654,360,306,4.0,30.0,21.0,-5.493163585662842,-0.0610351525247097,-9.3994140625,-0.585693359375,0.1611328125,0.377685546875
7.546,574,813,308,308,4.0,30.0,21.0,0.54931640625,-5.798339366912842,-2.25830078125,-0.5225830078125,0.1722412109375,0.2730712890625
7.550,657,846,308,308,4.0,30.0,21.0,0.54931640625,-5.798339366912842,-2.25830078125,-0.469482421875,0.06591796875,0.1424560546875
7.572,808,951,308,308,4.0,30.0,21.0,0.3662109076976776,-6.774901866912842,-1.5258787870407104,-0.469482421875,0.06591796875,0.1424560546875
7.572,1014,1653,308,308,4.0,30.0,21.0,11.413573265075684,-11.962889671325684,0.7324218153953552,-0.394775390625,-0.05810546875,-0.0460205078125
7.580,338,2117,1214,382,4.0,30.0,21.0,11.413573265075684,-11.962889671325684,0.7324218153953552,-0.430908203125,0.0460205078125,-0.0718994140625
7.588,334,2638,1440,388,4.0,30.0,21.0,23.010251998901367,-16.357421875,5.371093273162842,-0.430908203125,0.0460205078125,-0.0718994140625
7.602,361,3147,1635,433,6.0,30.0,19.0,32.65380859375,-20.263669967651367,12.573241233825684,-0.6865234375,0.3836669921875,-0.02392578125
7.610,383,3147,1753,646,6.0,30.0,19.0,35.09521484375,-23.681638717651367,18.4326171875,-0.6865234375,0.3836669921875,-0.02392578125
7.618,348,3147,1970,907,6.0,30.0,19.0,29.357908248901367,-28.503416061401367,18.5546875,-0.7030029296875,0.401123046875,0.046142578125
7.650,2166,3147,332,479,6.0,30.0,19.0,21.484373092651367,-35.46142578125,12.817381858825684,-0.55322265625,0.0728759765625,0.1318359375
7.650,2337,3147,308,310,6.0,30.0,19.0,20.080564498901367,-41.809078216552734,4.5166015625,-0.55322265625,0.0728759765625,0.1318359375
7.651,2000,3147,648,1815,6.0,30.0,19.0,24.230955123901367,-45.471187591552734,-2.0751953125,-0.590087890625,0.0050048828125,0.172607421875
7.662,2803,3147,308,323,6.0,30.0,19.0,25.634763717651367,-46.447750091552734,-5.432128429412842,-0.6248779296875,0.0382080078125,0.235595703125
7.679,3020,3147,324,2757,6.0,30.0,19.0,24.230955123901367,-45.166011810302734,-5.615233898162842,-0.6248779296875,0.0382080078125,0.235595703125
7.680,455,3147,3147,3147,6.0,30.0,19.0,28.137205123901367,-41.137691497802734,-1.0986328125,-0.755126953125,0.2418212890625,0.1455078125
7.692,684,3147,3147,3147,6.0,30.0,23.0,35.09521484375,-32.28759765625,9.21630859375,-1.278076171875,0.647216796875,-0.159912109375
7.700,708,3147,3147,3147,6.0,30.0,23.0,33.99658203125,-20.507810592651367,20.996091842651367,-1.278076171875,0.647216796875,-0.159912109375
7.709,841,3147,3147,3147,6.0,30.0,23.0,25.390623092651367,-10.253905296325684,27.832029342651367,-1.5751953125,0.6357421875,-0.1715087890625
7.722,920,3147,3147,3147,6.0,30.0,23.0,14.038084983825684,-5.554198741912842,28.198240280151367,-1.891357421875,0.402099609375,0.0084228515625
7.740,958,3147,3147,3147,6.0,30.0,23.0,3.356933355331421,-6.103515148162842,22.644041061401367,-1.891357421875,0.402099609375,0.0084228515625
7.743,3147,3147,694,1689,6.0,30.0,23.0,1.15966796875,-5.615233898162842,13.061522483825684,-1.9698486328125,0.4271240234375,-0.0548095703125
7.753,963,3147,3147,3147,6.0,30.0,23.0,5.371093273162842,-1.4648436307907104,3.845214605331421,-1.6435546875,0.660888671875,-0.259521484375
7.762,1066,3147,3023,3147,6.0,30.0,23.0,4.82177734375,4.5166015625,-3.356933355331421,-1.6435546875,0.660888671875,-0.259521484375
7.780,999,3147,3000,3147,6.0,30.0,23.0,-6.103515148162842,10.742186546325684,-10.986327171325684,-1.240478515625,0.7110595703125,-0.346923828125
7.782,1108,3147,2841,3147,6.0,30.0,23.0,-26.245115280151367,15.869139671325684,-21.362302780151367,-1.2086181640625,0.662109375,-0.076171875
7.790,713,3147,3147,3147,6.0,27.0,20.0,-51.208492279052734,18.9208984375,-33.8134765625,-1.2086181640625,0.662109375,-0.076171875
7.798,656,3147,3147,3147,6.0,27.0,20.0,-71.22802734375,19.1650390625,-43.579097747802734,-1.6865234375,0.3460693359375,0.235107421875
7.812,465,3147,3147,3147,6.0,27.0,20.0,-72.32666015625,16.90673828125,-42.114253997802734,-2.0423583984375,-0.0244140625,0.4010009765625
7.820,430,3147,3147,3014,6.0,27.0,20.0,-49.255367279052734,14.587401390075684,-28.076169967651367,-2.002685546875,-0.187744140625,0.3310546875
7.843,378,3147,3078,2551,6.0,27.0,20.0,-13.427733421325684,15.563963890075684,-10.498045921325684,-1.7022705078125,-0.0660400390625,0.1444091796875
7.843,351,3147,2723,1892,6.0,27.0,20.0,14.404295921325684,19.71435546875,2.13623046875,-1.3472900390625,0.2532958984375,0.00390625
7.850,373,3147,2557,1457,6.0,27.0,20.0,22.460935592651367,24.902341842651367,7.446288585662842,-1.036376953125,0.5062255859375,-0.07470703125
7.858,361,3147,2407,793,6.0,27.0,20.0,15.319823265075684,29.724119186401367,5.432128429412842,-0.823486328125,0.5406494140625,-0.1402587890625
7.887,388,2875,2127,417,6.0,27.0,20.0,2.624511480331421,31.555173873901367,-2.685546636581421,-0.6932373046875,0.438720703125,-0.193603515625
7.887,369,2443,1936,413,6.0,27.0,20.0,-10.375975608825684,29.479978561401367,-13.671874046325684,-0.596435546875,0.3074951171875,-0.293701171875
7.889,345,2119,1735,385,6.0,31.0,23.0,-21.545408248901367,27.832029342651367,-22.705076217651367,-0.5430908203125,0.2578125,-0.4224853515625
7.897,1514,1683,308,310,6.0,31.0,23.0,-30.578611373901367,28.259275436401367,-26.306150436401367,-0.5421142578125,0.2554931640625,-0.4505615234375
7.911,1157,1083,310,308,6.0,31.0,23.0,-36.92626953125,28.930662155151367,-24.841306686401367,-0.54736328125,0.214111328125,-0.340087890625
7.919,899,867,308,321,6.0,31.0,23.0,-40.161128997802734,27.954099655151367,-21.911619186401367,-0.5545654296875,0.1314697265625,-0.129150390625
7.927,346,508,642,307,6.0,31.0,23.0,-39.73388671875,25.146482467651367,-19.83642578125,-0.5858154296875,0.041259765625,0.0992431640625
7.963,321,414,371,391,6.0,31.0,23.0,-34.24072265625,21.789548873901367,-18.00537109375,-0.614501953125,-0.003173828125,0.2537841796875
7.967,346,571,313,310,6.0,31.0,23.0,-25.390623092651367,18.798828125,-14.892577171325684,-0.62353515625,0.0301513671875,0.3604736328125
7.967,308,505,314,310,6.0,31.0,23.0,-17.27294921875,14.038084983825684,-11.047362327575684,-0.6219482421875,0.0931396484375,0.4747314453125
7.974,327,539,313,308,6.0,31.0,23.0,-13.305663108825684,6.835937023162842,-7.751464366912842,-0.60546875,0.13671875,0.510009765625
7.999,313,600,318,322,6.0,31.0,23.0,-11.901854515075684,1.5258787870407104,-4.33349609375,-0.544189453125,0.12353515625,0.4224853515625
7.999,312,543,310,318,9.0,28.0,25.0,-9.58251953125,0.4882812201976776,-1.220703125,-0.4664306640625,0.04541015625,0.26025390625
8.001,417,642,409,324,9.0,28.0,25.0,-5.493163585662842,1.3427733182907104,1.3427733182907104,-0.4229736328125,-0.0400390625,0.0986328125
8.009,601,759,310,315,9.0,28.0,25.0,-0.1831054538488388,0.7934569716453552,4.7607421875,-0.4107666015625,-0.07666015625,-0.009765625
8.017,317,871,778,346,9.0,28.0,25.0,6.835937023162842,-2.197265625,9.70458984375,-0.4080810546875,-0.0419921875,-0.06201171875
8.049,816,2001,361,308,9.0,28.0,25.0,14.343260765075684,-6.591796398162842,15.075682640075684,-0.4251708984375,0.0379638671875,-0.0706787109375
8.050,330,2510,1201,378,9.0,28.0,25.0,20.629880905151367,-10.375975608825684,20.202634811401367,-0.515625,0.151611328125,-0.069091796875
8.050,329,2810,1427,376,9.0,28.0,25.0,24.963376998901367,-13.061522483825684,25.451658248901367,-0.668701171875,0.28369140625,-0.0760498046875
8.063,336,3147,1658,687,9.0,28.0,25.0,25.390623092651367,-17.27294921875,27.648923873901367,-0.789306640625,0.3590087890625,-0.040771484375
8.069,338,3147,1891,721,9.0,28.0,25.0,21.484373092651367,-25.817869186401367,23.071287155151367,-0.7816162109375,0.3084716796875,0.0599365234375
8.086,346,3147,2053,1239,9.0,28.0,25.0,18.310546875,-36.865234375,13.427733421325684,-0.6575927734375,0.13330078125,0.1260986328125
8.098,490,3147,2180,1623,5.0,28.0,24.0,22.705076217651367,-44.921871185302734,4.5166015625,-0.590576171875,-0.019287109375,0.1416015625
8.099,496,3147,310,1808,5.0,28.0,24.0,31.677244186401367,-47.729488372802734,1.4648436307907104,-0.620361328125,-0.061767578125,0.1461181640625
8.110,2568,3147,2627,2156,5.0,28.0,24.0,34.85107421875,-47.119136810302734,3.234863042831421,-0.6087646484375,-0.03271484375,0.1702880859375
8.121,2948,3147,306,315,5.0,28.0,24.0,32.89794921875,-44.250484466552734,6.896972179412842,-0.6102294921875,0.12060546875,0.1671142578125
8.129,2487,3147,310,3120,5.0,28.0,24.0,33.26416015625,-37.04833984375,13.427733421325684,-0.74560546875,0.3836669921875,0.013916015625
8.151,2957,3147,509,1170,5.0,28.0,24.0,30.517576217651367,-25.756834030151367,21.850584030151367,-0.9515380859375,0.6055908203125,-0.172119140625
8.153,3147,3147,310,388,5.0,28.0,24.0,20.141599655151367,-15.197752952575684,27.954099655151367,-1.2274169921875,0.7366943359375,-0.2227783203125
8.159,832,3147,3147,3147,5.0,28.0,24.0,8.11767578125,-8.97216796875,29.357908248901367,-1.581787109375,0.7679443359375,-0.102783203125
8.167,888,3147,2357,3147,5.0,28.0,24.0,8.11767578125,-8.97216796875,29.357908248901367,-1.887939453125,0.5989990234375,0.0743408203125
8.188,3147,3147,309,315,5.0,31.0,21.0,-5.187987804412842,-6.591796398162842,20.690916061401367,-2.1065673828125,0.3924560546875,0.111328125
8.190,944,3147,3147,3147,5.0,31.0,21.0,1.4038084745407104,-1.0986328125,14.709471702575684,-2.2197265625,0.28125,0.012451171875
8.204,864,3147,3147,3147,5.0,31.0,21.0,1.4038084745407104,-1.0986328125,14.709471702575684,-2.036865234375,0.2783203125,-0.1829833984375
8.211,3147,3147,3147,3147,5.0,31.0,21.0,23.498533248901367,11.718749046325684,14.099120140075684,-1.5101318359375,0.4791259765625,-0.4052734375
8.222,750,3147,3147,3147,5.0,31.0,21.0,17.02880859375,14.465331077575684,10.192870140075684,-1.074951171875,0.789794921875,-0.4715576171875
8.228,751,3147,3147,3147,5.0,31.0,21.0,17.02880859375,14.465331077575684,10.192870140075684,-1.1832275390625,0.86083984375,-0.2452392578125
8.252,698,3147,3147,3147,5.0,31.0,21.0,-39.36767578125,13.244627952575684,-17.822265625,-1.677978515625,0.497314453125,0.135498046875
8.252,644,3147,3147,3147,5.0,31.0,21.0,-52.734371185302734,9.3994140625,-25.085447311401367,-2.0179443359375,0.0574951171875,0.3525390625
8.258,521,3147,3147,3147,5.0,31.0,21.0,-52.734371185302734,9.3994140625,-25.085447311401367,-1.947509765625,-0.0589599609375,0.3062744140625
8.273,383,3147,3147,2689,5.0,31.0,21.0,-1.4648436307907104,5.371093273162842,-2.0751953125,-1.6156005859375,0.0809326171875,0.1107177734375
8.290,371,3147,3064,2266,3.0,28.0,22.0,24.719236373901367,9.1552734375,8.6669921875,-1.2559814453125,0.3165283203125,-0.048583984375
8.290,373,3147,2877,1954,3.0,28.0,22.0,24.719236373901367,9.1552734375,8.6669921875,-0.980712890625,0.5418701171875,-0.1002197265625
8.301,364,3147,2552,912,3.0,28.0,22.0,22.949216842651367,18.61572265625,6.713866710662842,-0.820068359375,0.634033203125,-0.108642578125
8.311,411,3147,2379,437,3.0,28.0,22.0,7.202147960662842,21.118162155151367,-3.417968511581421,-0.7630615234375,0.6046142578125,-0.123291015625
8.317,376,2851,2257,432,3.0,28.0,22.0,7.202147960662842,21.118162155151367,-3.417968511581421,-0.74462890625,0.4718017578125,-0.193603515625
8.335,364,2238,1934,406,3.0,28.0,22.0,-25.817869186401367,21.301267623901367,-25.268552780151367,-0.733642578125,0.3109130859375,-0.31640625
8.355,376,1861,1704,406,3.0,28.0,22.0,-34.7900390625,21.667478561401367,-28.686521530151367,-0.7061767578125,0.2108154296875,-0.3748779296875
8.355,345,1343,1437,439,3.0,28.0,22.0,-34.7900390625,21.667478561401367,-28.686521530151367,-0.645751953125,0.15283203125,-0.328369140625
8.361,318,799,934,361,3.0,28.0,22.0,-32.71484375,21.118162155151367,-19.47021484375,-0.5743408203125,0.1099853515625,-0.1878662109375
8.369,361,465,321,330,3.0,28.0,22.0,-28.076169967651367,19.6533203125,-15.197752952575684,-0.554443359375,0.0732421875,0.021728515625
8.377,318,378,442,321,6.0,28.0,17.0,-28.076169967651367,19.6533203125,-15.197752952575684,-0.554443359375,0.0732421875,0.021728515625
8.397,313,464,315,321,6.0,28.0,17.0,-27.587888717651367,15.380858421325684,-14.831542015075684,-0.6268310546875,0.0460205078125,0.291259765625
8.400,313,467,316,307,6.0,28.0,17.0,-27.587888717651367,15.380858421325684,-14.831542015075684,-0.6339111328125,0.1220703125,0.3504638671875
8.407,313,413,308,327,6.0,28.0,17.0,-28.381345748901367,13.549803733825684,-13.549803733825684,-0.6339111328125,0.1220703125,0.3504638671875
8.421,330,572,308,308,6.0,28.0,17.0,-20.812986373901367,5.126952648162842,-3.295898199081421,-0.5291748046875,0.2100830078125,0.3466796875
8.429,313,454,318,307,6.0,28.0,17.0,-20.812986373901367,5.126952648162842,-3.295898199081421,-0.4150390625,0.1190185546875,0.2301025390625
8.437,344,587,306,308,6.0,28.0,17.0,-16.41845703125,0.8544921278953552,0.0610351525247097,-0.4150390625,0.1190185546875,0.2301025390625
8.458,316,594,308,308,6.0,28.0,17.0,-13.427733421325684,-5.0048828125,-2.807616949081421,-0.3297119140625,-0.054931640625,0.0491943359375
8.460,346,600,307,307,6.0,28.0,17.0,-13.427733421325684,-5.0048828125,-2.807616949081421,-0.34228515625,-0.03173828125,0.0009765625
8.467,506,853,308,308,6.0,28.0,17.0,-9.46044921875,-8.60595703125,-3.234863042831421,-0.34228515625,-0.03173828125,0.0009765625
8.482,934,1560,310,308,9.0,29.0,19.0,-0.1831054538488388,-15.258788108825684,1.5869139432907104,-0.379638671875,0.069580078125,0.0015869140625
8.498,1173,2266,308,306,9.0,29.0,19.0,-0.1831054538488388,-15.258788108825684,1.5869139432907104,-0.4429931640625,0.1070556640625,0.0037841796875
8.498,1399,2916,309,308,9.0,29.0,19.0,4.08935546875,-17.02880859375,5.554198741912842,-0.4429931640625,0.1070556640625,0.0037841796875
8.511,1757,3147,834,371,9.0,29.0,19.0,20.690916061401367,-21.118162155151367,16.9677734375,-0.71826171875,0.2666015625,-0.01025390625
8.532,1375,3147,895,605,9.0,29.0,19.0,20.690916061401367,-21.118162155151367,16.9677734375,-0.7122802734375,0.2294921875,0.0623779296875
8.533,2119,3147,721,291,9.0,29.0,19.0,24.230955123901367,-27.648923873901367,16.66259765625,-0.7122802734375,0.2294921875,0.0623779296875
8.563,2530,3147,308,1860,9.0,29.0,19.0,20.080564498901367,-44.189449310302734,1.2817381620407104,-0.578369140625,0.0845947265625,0.3076171875
8.564,1306,3147,2587,2127,9.0,29.0,19.0,21.728513717651367,-46.508785247802734,-2.685546636581421,-0.578369140625,0.0845947265625,0.3076171875
8.572,2281,3147,790,2726,9.0,29.0,19.0,24.475095748901367,-42.114253997802734,0.6713866591453552,-0.8114013671875,0.253662109375,0.3638916015625
8.581,576,3147,3147,3147,2.0,30.0,20.0,24.475095748901367,-42.114253997802734,0.6713866591453552,-1.014892578125,0.5433349609375,0.195068359375
8.591,713,3147,3147,3147,2.0,30.0,20.0,27.404783248901367,-35.58349609375,9.6435546875,-1.014892578125,0.5433349609375,0.195068359375
8.602,864,3147,3147,3147,2.0,30.0,20.0,25.878904342651367,-7.324218273162842,26.123044967651367,-1.7078857421875,0.7005615234375,-0.21484375
8.610,934,3147,3147,3147,2.0,30.0,20.0,25.878904342651367,-7.324218273162842,26.123044967651367,-2.099609375,0.432373046875,-0.173095703125
8.618,995,3147,3147,3147,2.0,30.0,20.0,17.4560546875,1.4038084745407104,25.268552780151367,-2.099609375,0.432373046875,-0.173095703125
8.632,927,3147,3147,3147,2.0,30.0,20.0,18.5546875,2.197265625,12.817381858825684,-2.2686767578125,0.2947998046875,-0.1109619140625
8.640,860,3147,3147,3147,2.0,30.0,20.0,18.5546875,2.197265625,12.817381858825684,-1.867431640625,0.5072021484375,-0.2218017578125
