time,compression0,compression1,compression2,compression3,magn_x,magn_y,magn_z,gyro_x,gyro_y,gyro_z,accel_x,accel_y,accel_z
0.003,315,3147,1529,1064,-1.0,29.0,20.0,-1.7089842557907104,-18.1884765625,0.6713866591453552,-0.8719482421875,0.18505859375,-0.169921875
0.020,314,3147,1536,1041,-1.0,29.0,20.0,-1.7089842557907104,-21.362302780151367,3.723144292831421,-0.7967529296875,0.199951171875,-0.1622314453125
0.036,315,3147,1572,1112,-1.0,29.0,20.0,-9.58251953125,-21.789548873901367,4.5166015625,-0.7288818359375,0.2127685546875,-0.1331787109375
0.036,315,3147,1548,1198,-1.0,29.0,20.0,-9.58251953125,-21.789548873901367,4.5166015625,-0.6448974609375,0.19384765625,-0.1077880859375
0.046,315,3147,1583,1560,-1.0,29.0,20.0,-27.099607467651367,-21.850584030151367,2.563476324081421,-0.5450439453125,0.1361083984375,-0.0950927734375
0.054,314,3147,1604,1711,-1.0,29.0,20.0,-30.639646530151367,-23.010251998901367,5.249022960662842,-0.4342041015625,0.0531005859375,-0.082275390625
0.063,315,3147,1592,1834,-1.0,29.0,20.0,-30.639646530151367,-23.010251998901367,5.249022960662842,-0.2877197265625,-0.035888671875,-0.0736083984375
0.076,316,3147,1676,2290,-3.0,33.0,26.0,-11.657713890075684,-31.311033248901367,21.301267623901367,-0.119140625,-0.0780029296875,-0.06591796875
0.158,315,3147,1715,2565,-3.0,33.0,26.0,10.253905296325684,-39.306640625,26.855466842651367,0.0057373046875,0.0421142578125,0.0001220703125
0.158,321,3147,1743,2692,-3.0,33.0,26.0,10.253905296325684,-39.306640625,26.855466842651367,0.0518798828125,0.305908203125,0.068115234375
0.160,323,3147,1861,2868,-3.0,33.0,26.0,22.644041061401367,-63.598628997802734,19.10400390625,-0.02294921875,0.5572509765625,0.05712890625
0.160,317,3147,1882,3133,-3.0,33.0,26.0,14.770506858825684,-75.74462890625,9.521484375,-0.3231201171875,0.6629638671875,0.04931640625
0.160,316,3147,1954,3147,-3.0,33.0,26.0,14.770506858825684,-75.74462890625,9.521484375,-0.9656982421875,0.57666015625,0.1253662109375
0.160,318,3147,2039,3147,-3.0,33.0,26.0,27.954099655151367,-81.78710174560547,8.9111328125,-1.85498046875,0.2860107421875,0.1563720703125
0.160,316,3147,2063,3147,-3.0,33.0,26.0,27.770994186401367,-69.51904296875,12.573241233825684,-2.5367431640625,-0.131591796875,0.1156005859375
0.160,321,3147,2058,3147,-3.0,33.0,26.0,27.770994186401367,-69.51904296875,12.573241233825684,-2.818115234375,-0.3140869140625,0.14013671875
0.166,317,3147,2005,3147,-3.0,33.0,26.0,-17.39501953125,-14.465331077575684,29.235837936401367,-2.751953125,-0.0404052734375,0.175048828125
0.178,316,3147,1971,3147,-2.0,26.0,24.0,-17.39501953125,-14.465331077575684,29.235837936401367,-2.1689453125,0.28466796875,0.0478515625
0.200,316,3147,1985,3147,-2.0,26.0,24.0,-36.1328125,21.362302780151367,42.968746185302734,-2.1689453125,0.28466796875,0.0478515625
0.200,321,3147,2001,3147,-2.0,26.0,24.0,-24.047849655151367,53.161617279052734,28.442380905151367,-0.98388671875,0.998291015625,-0.5283203125
0.215,316,3147,1968,3147,-2.0,26.0,24.0,-24.047849655151367,53.161617279052734,28.442380905151367,-1.42919921875,0.9881591796875,-0.5460205078125
0.216,316,3147,1951,3147,-2.0,26.0,24.0,-11.474608421325684,38.75732421875,2.0751953125,-1.42919921875,0.9881591796875,-0.5460205078125
0.227,316,3147,1971,3147,-2.0,26.0,24.0,-13.122557640075684,3.967284917831421,-23.498533248901367,-2.064208984375,0.2091064453125,-0.1844482421875
0.238,315,3147,1914,3147,-2.0,26.0,24.0,-13.122557640075684,3.967284917831421,-23.498533248901367,-1.86767578125,0.294189453125,-0.0626220703125
0.243,316,3147,1904,3147,-2.0,26.0,24.0,-1.6479490995407104,-1.2817381620407104,-13.854979515075684,-1.86767578125,0.294189453125,-0.0626220703125
0.256,315,3147,1852,3147,-2.0,26.0,24.0,4.5166015625,2.990722417831421,-1.5869139432907104,-1.245849609375,0.50634765625,0.050048828125
0.264,308,3147,1792,3147,-2.0,26.0,24.0,4.5166015625,2.990722417831421,-1.5869139432907104,-1.019287109375,0.4732666015625,-0.0201416015625
0.272,313,3147,1761,3147,-2.0,29.0,22.0,3.234863042831421,13.244627952575684,-3.295898199081421,-1.019287109375,0.4732666015625,-0.0201416015625
0.301,315,3147,1686,2207,-2.0,29.0,22.0,-9.70458984375,33.5693359375,-12.084959983825684,-0.84033203125,0.1790771484375,-0.0621337890625
0.302,313,3147,1632,1648,-2.0,29.0,22.0,-9.70458984375,33.5693359375,-12.084959983825684,-0.780029296875,-0.009765625,-0.0267333984375
0.302,315,3147,1597,917,-2.0,29.0,22.0,-20.080564498901367,36.7431640625,-16.4794921875,-0.780029296875,-0.009765625,-0.0267333984375
0.316,313,2422,1557,349,-2.0,29.0,22.0,-18.37158203125,33.0810546875,-23.498533248901367,-0.6064453125,-0.2296142578125,-0.041259765625
0.330,308,1963,1546,349,-2.0,29.0,22.0,-18.37158203125,33.0810546875,-23.498533248901367,-0.5372314453125,-0.187255859375,0.0421142578125
0.340,310,1598,1516,346,-2.0,29.0,22.0,-7.873534679412842,29.968259811401367,-25.512693405151367,-0.5372314453125,-0.187255859375,0.0421142578125
0.346,308,975,1437,334,-2.0,29.0,22.0,6.774901866912842,22.583005905151367,-21.179197311401367,-0.493896484375,-0.14306640625,0.12890625
0.354,307,673,1375,333,-2.0,29.0,22.0,6.774901866912842,22.583005905151367,-21.179197311401367,-0.463134765625,-0.0797119140625,0.0133056640625
0.362,308,416,1323,334,-2.0,29.0,22.0,13.000487327575684,25.268552780151367,-17.7001953125,-0.463134765625,-0.0797119140625,0.0133056640625
0.376,308,453,1341,324,-1.0,32.0,22.0,13.427733421325684,30.517576217651367,-11.474608421325684,-0.4053955078125,0.1929931640625,-0.1007080078125
0.385,309,579,1370,326,-1.0,32.0,22.0,13.916014671325684,36.1328125,0.7324218153953552,-0.4053955078125,0.1929931640625,-0.1007080078125
0.403,308,567,1380,328,-1.0,32.0,22.0,20.751951217651367,40.649410247802734,15.014647483825684,-0.4393310546875,0.3441162109375,-0.1339111328125
0.406,309,572,1398,324,-1.0,32.0,22.0,27.770994186401367,39.794921875,21.789548873901367,-0.8291015625,0.5367431640625,-0.15478515625
0.414,308,551,1413,328,-1.0,32.0,22.0,27.709959030151367,31.555173873901367,18.9208984375,-0.8291015625,0.5367431640625,-0.15478515625
0.423,310,553,1422,326,-1.0,32.0,22.0,21.789548873901367,19.1650390625,10.192870140075684,-0.9715576171875,0.5635986328125,-0.18359375
0.450,308,574,1452,324,-1.0,32.0,22.0,12.695311546325684,7.446288585662842,0.54931640625,-0.8829345703125,0.5518798828125,-0.17822265625
0.455,308,619,1483,328,-1.0,32.0,22.0,3.295898199081421,-1.03759765625,-5.432128429412842,-0.8829345703125,0.5518798828125,-0.17822265625
0.461,308,680,1449,314,-1.0,32.0,22.0,-5.187987804412842,-6.652831554412842,-7.324218273162842,-0.710693359375,0.47021484375,-0.1295166015625
0.467,313,1146,1518,332,-2.0,28.0,24.0,-12.145995140075684,-10.803221702575684,-6.591796398162842,-0.4930419921875,0.1761474609375,-0.0496826171875
0.474,311,1529,1541,338,-2.0,28.0,24.0,-15.502928733825684,-13.671874046325684,-4.33349609375,-0.4930419921875,0.1761474609375,-0.0496826171875
0.482,313,2205,1557,334,-2.0,28.0,24.0,-15.136717796325684,-14.831542015075684,-0.7324218153953552,-0.4713134765625,0.035400390625,-0.044677734375
0.506,310,3147,1569,360,-2.0,28.0,24.0,-12.207030296325684,-13.427733421325684,4.57763671875,-0.6297607421875,-0.0426025390625,-0.1256103515625
0.506,311,3147,1615,837,-2.0,28.0,24.0,-9.033203125,-9.521484375,11.535643577575684,-0.6297607421875,-0.0426025390625,-0.1256103515625
0.512,313,3147,1669,1330,-2.0,28.0,24.0,-8.7890625,-5.554198741912842,19.4091796875,-0.689453125,0.020751953125,-0.1795654296875
0.532,315,3147,1704,2104,-2.0,28.0,24.0,-14.404295921325684,-5.371093273162842,25.878904342651367,-0.38916015625,0.147216796875,-0.124267578125
0.554,315,3147,1732,2633,-2.0,28.0,24.0,-26.306150436401367,-11.352538108825684,27.709959030151367,-0.38916015625,0.147216796875,-0.124267578125
0.555,316,3147,1774,3107,-2.0,28.0,24.0,-38.57421875,-22.460935592651367,24.536130905151367,-0.1170654296875,-0.024658203125,0.018310546875
0.556,316,3147,1931,3147,-2.0,28.0,24.0,-37.29248046875,-35.64453125,21.362302780151367,0.4744873046875,-0.0955810546875,0.30908203125
0.564,315,3147,1973,3147,-5.0,29.0,17.0,-13.122557640075684,-51.513668060302734,22.155759811401367,0.4744873046875,-0.0955810546875,0.30908203125
0.572,316,3147,2065,3147,-5.0,29.0,17.0,23.803709030151367,-71.1669921875,23.193357467651367,0.438232421875,0.33056640625,0.261474609375
0.586,316,3147,2174,3147,-5.0,29.0,17.0,51.757808685302734,-88.98925018310547,18.1884765625,-1.216796875,1.278564453125,-0.006591796875
0.613,321,3147,2244,3147,-5.0,29.0,17.0,66.34521484375,-93.07860565185547,11.291502952575684,-1.216796875,1.278564453125,-0.006591796875
0.614,319,3147,2268,3147,-5.0,29.0,17.0,72.20458984375,-79.345703125,4.39453125,-2.441162109375,0.867431640625,-0.1590576171875
0.616,321,3147,2280,3147,-5.0,29.0,17.0,57.434078216552734,-58.898921966552734,-5.554198741912842,-3.3089599609375,0.001953125,-0.20166015625
0.624,314,3147,2203,3147,-5.0,29.0,17.0,28.869626998901367,-40.344234466552734,-5.920409679412842,-3.6026611328125,-0.290283203125,-0.2327880859375
0.636,318,3147,2213,3147,-5.0,29.0,17.0,2.624511480331421,-21.545408248901367,10.314940452575684,-3.1907958984375,-0.0369873046875,-0.3009033203125
0.649,321,3147,2233,3147,-5.0,29.0,17.0,-29.235837936401367,1.5258787870407104,25.085447311401367,-1.937255859375,0.2447509765625,-0.1575927734375
0.654,318,3147,2271,3147,-5.0,29.0,17.0,-53.161617279052734,26.916501998901367,25.573728561401367,-0.99462890625,0.6533203125,0.046630859375
0.663,321,3147,2222,3147,-4.0,25.0,23.0,-41.931148529052734,44.494625091552734,13.977049827575684,-1.257568359375,0.9456787109375,-0.0216064453125
0.676,317,3147,2213,3147,-4.0,25.0,23.0,-16.845703125,43.151851654052734,-2.38037109375,-1.9290771484375,0.655029296875,-0.150146484375
0.684,316,3147,2167,3147,-4.0,25.0,23.0,4.33349609375,28.625486373901367,-9.033203125,-2.1796875,0.4246826171875,-0.2049560546875
0.692,314,3147,2122,3147,-4.0,25.0,23.0,23.620603561401367,14.648436546325684,-3.723144292831421,-1.984375,0.53125,-0.2379150390625
0.710,316,3147,2028,3147,-4.0,25.0,23.0,27.282712936401367,6.530761241912842,0.0,-1.6524658203125,0.57763671875,-0.206298828125
0.714,315,3147,1970,3147,-4.0,25.0,23.0,16.6015625,4.39453125,-2.746581792831421,-1.39404296875,0.465087890625,-0.1240234375
0.722,315,3147,1881,3147,-4.0,25.0,23.0,5.798339366912842,7.690429210662842,-6.042479991912842,-1.190673828125,0.3865966796875,-0.1165771484375
0.750,310,3147,1815,2884,-4.0,25.0,23.0,-0.1831054538488388,15.563963890075684,-6.469726085662842,-0.9749755859375,0.3963623046875,-0.1534423828125
0.751,314,3147,1785,2150,-4.0,25.0,23.0,-6.225585460662842,24.353025436401367,-7.629394054412842,-0.7994384765625,0.3382568359375,-0.13134765625
0.752,310,3147,1733,1278,-4.0,25.0,23.0,-14.038084983825684,29.785154342651367,-12.939452171325684,-0.67333984375,0.1600341796875,-0.08203125
0.766,310,2074,1629,349,-3.0,28.0,22.0,-20.01953125,28.625486373901367,-23.376462936401367,-0.5615234375,-0.1063232421875,-0.029052734375
0.774,309,1313,1604,346,-3.0,28.0,22.0,-15.197752952575684,22.460935592651367,-35.70556640625,-0.4871826171875,-0.2371826171875,-0.0181884765625
0.782,309,1003,1572,332,-3.0,28.0,22.0,0.7324218153953552,15.502928733825684,-42.541500091552734,-0.43310546875,-0.1700439453125,0.0106201171875
0.809,306,414,1478,323,-3.0,28.0,22.0,10.620116233825684,8.9111328125,-42.236324310302734,-0.407470703125,-0.1488037109375,0.0721435546875
0.813,310,390,1416,332,-3.0,28.0,22.0,8.48388671875,6.225585460662842,-39.48974609375,-0.4251708984375,-0.1923828125,0.0704345703125
0.813,307,420,1336,324,-3.0,28.0,22.0,0.4272460639476776,10.925292015075684,-34.423828125,-0.4522705078125,-0.108154296875,-0.0108642578125
0.826,309,354,1243,322,-3.0,28.0,22.0,-10.681151390075684,20.324705123901367,-24.353025436401367,-0.5035400390625,0.1175537109375,-0.1163330078125
0.834,306,360,1251,321,-3.0,28.0,22.0,-20.141599655151367,29.724119186401367,-10.375975608825684,-0.5400390625,0.3048095703125,-0.154541015625
0.856,312,378,1386,322,-3.0,28.0,22.0,-22.399900436401367,35.21728515625,2.563476324081421,-0.4969482421875,0.35986328125,-0.0751953125
0.857,310,361,1401,321,-3.0,28.0,22.0,-17.88330078125,33.63037109375,8.72802734375,-0.4493408203125,0.316650390625,0.0792236328125
0.865,310,363,1429,323,-4.0,28.0,22.0,-9.09423828125,25.451658248901367,5.371093273162842,-0.4813232421875,0.2474365234375,0.1585693359375
0.872,310,353,1447,322,-4.0,28.0,22.0,0.6713866591453552,15.686034202575684,-4.150390625,-0.5977783203125,0.2933349609375,0.12353515625
0.889,310,400,1492,318,-4.0,28.0,22.0,8.23974609375,7.995604991912842,-10.925292015075684,-0.747314453125,0.438720703125,0.029541015625
0.895,307,406,1518,323,-4.0,28.0,22.0,12.451170921325684,2.929687261581421,-9.70458984375,-0.8424072265625,0.551025390625,-0.07373046875
0.916,311,401,1533,323,-4.0,28.0,22.0,11.901854515075684,-0.4272460639476776,-3.417968511581421,-0.8544921875,0.5528564453125,-0.125732421875
0.917,310,555,1600,323,-4.0,28.0,22.0,8.1787109375,-4.0283203125,3.051757574081421,-0.8092041015625,0.4281005859375,-0.114013671875
0.924,311,673,1604,323,-4.0,28.0,22.0,4.08935546875,-8.11767578125,7.263183116912842,-0.725341796875,0.224365234375,-0.06591796875
0.932,314,720,1629,330,-4.0,28.0,22.0,1.2817381620407104,-11.840819358825684,8.48388671875,-0.611083984375,0.01171875,-0.05126953125
0.963,315,1387,1650,328,-4.0,28.0,22.0,4.2724609375,-15.258788108825684,6.774901866912842,-0.502197265625,-0.12158203125,-0.076171875
0.963,313,2155,1733,334,-4.0,28.0,22.0,15.441893577575684,-18.5546875,5.249022960662842,-0.4346923828125,-0.1025390625,-0.106201171875
0.965,315,3107,1782,351,-3.0,28.0,22.0,29.357908248901367,-20.080564498901367,7.263183116912842,-0.4918212890625,0.098876953125,-0.1346435546875
0.976,315,3147,1867,1213,-3.0,28.0,22.0,38.0859375,-18.798828125,13.488768577575684,-0.7203369140625,0.3680419921875,-0.164794921875
0.984,316,3147,1918,1794,-3.0,28.0,22.0,34.66796875,-15.808104515075684,21.301267623901367,-0.888671875,0.4407958984375,-0.20458984375
0.992,315,3147,1960,2306,-3.0,28.0,22.0,14.709471702575684,-13.549803733825684,26.245115280151367,-0.7052001953125,0.2183837890625,-0.1485595703125
1.017,316,3147,1989,3146,-3.0,28.0,22.0,-7.568358898162842,-16.7236328125,26.611326217651367,-0.186279296875,-0.18212890625,-0.008056640625
1.017,321,3147,2102,3147,-3.0,28.0,22.0,-8.48388671875,-27.343748092651367,24.169919967651367,0.437744140625,-0.3929443359375,0.02880859375
1.022,319,3147,2166,3147,-3.0,28.0,22.0,4.5166015625,-43.273921966552734,20.996091842651367,0.8194580078125,-0.121337890625,0.086181640625
1.036,318,3147,2240,3147,-3.0,28.0,22.0,16.4794921875,-63.415523529052734,15.258788108825684,0.498779296875,0.4564208984375,0.2652587890625
1.045,321,3147,2257,3147,-3.0,28.0,22.0,35.09521484375,-81.11571502685547,3.173827886581421,-0.5157470703125,0.9805908203125,0.311279296875
1.065,318,3147,2293,3147,-3.0,28.0,22.0,57.495113372802734,-85.87645721435547,-10.620116233825684,-1.6976318359375,1.2418212890625,0.120361328125
1.066,323,3147,2247,3147,-4.0,27.0,23.0,62.438961029052734,-76.23291015625,-19.22607421875,-2.6680908203125,0.79638671875,-0.0328369140625
1.074,322,3147,2308,3147,-4.0,27.0,23.0,45.837398529052734,-57.556148529052734,-19.04296875,-3.226806640625,0.0,-0.0806884765625
1.083,321,3147,2249,3147,-4.0,27.0,23.0,45.837398529052734,-57.556148529052734,-19.04296875,-3.4033203125,-0.2344970703125,-0.146240234375
1.096,319,3147,2290,3147,-4.0,27.0,23.0,-1.8920897245407104,-8.30078125,10.009765625,-2.997314453125,-0.1279296875,-0.2047119140625
1.120,321,3147,2334,3147,-4.0,27.0,23.0,-35.94970703125,16.4794921875,17.333984375,-1.8260498046875,0.139404296875,-0.159423828125
1.121,322,3147,2306,3147,-4.0,27.0,23.0,-35.94970703125,16.4794921875,17.333984375,-1.1142578125,0.640869140625,-0.056396484375
1.126,321,3147,2293,3147,-4.0,27.0,23.0,-60.607906341552734,53.466793060302734,1.7089842557907104,-1.53173828125,0.7625732421875,-0.101318359375
1.134,321,3147,2293,3147,-4.0,27.0,23.0,-38.26904296875,50.354000091552734,-5.859374523162842,-2.0858154296875,0.4715576171875,-0.183349609375
1.145,321,3147,2273,3147,-4.0,27.0,23.0,-38.26904296875,50.354000091552734,-5.859374523162842,-2.1302490234375,0.4342041015625,-0.2069091796875
1.160,314,3147,2217,3147,-2.0,25.0,23.0,0.2441406100988388,24.841306686401367,-1.2817381620407104,-1.8038330078125,0.5472412109375,-0.21826171875
1.176,319,3147,2190,3147,-2.0,25.0,23.0,5.371093273162842,17.08984375,-2.624511480331421,-1.4620361328125,0.519775390625,-0.1815185546875
1.176,318,3147,2117,3147,-2.0,25.0,23.0,5.371093273162842,17.08984375,-2.624511480331421,-1.2462158203125,0.45703125,-0.1417236328125
1.186,316,3147,2021,3147,-2.0,25.0,23.0,3.784179449081421,17.578125,-10.681151390075684,-1.0814208984375,0.4398193359375,-0.15673828125
1.200,313,3147,1954,2891,-2.0,25.0,23.0,-0.30517578125,21.728513717651367,-12.512206077575684,-0.91943359375,0.390380859375,-0.1595458984375
1.202,315,3147,1890,2340,-2.0,25.0,23.0,-0.30517578125,21.728513717651367,-12.512206077575684,-0.797607421875,0.2432861328125,-0.1038818359375
1.226,316,3147,1870,1034,-2.0,25.0,23.0,-16.90673828125,22.277830123901367,-20.141599655151367,-0.6959228515625,-0.02978515625,-0.0228271484375
1.227,315,2944,1862,356,-2.0,25.0,23.0,-16.6015625,17.51708984375,-26.489255905151367,-0.5823974609375,-0.29443359375,-0.0078125
1.232,315,1862,1838,347,-2.0,25.0,23.0,-16.6015625,17.51708984375,-26.489255905151367,-0.4649658203125,-0.3555908203125,-0.0194091796875
1.250,313,963,1786,334,-2.0,25.0,23.0,13.549803733825684,10.559081077575684,-32.2265625,-0.3599853515625,-0.2117919921875,0.022216796875
1.261,310,438,1739,325,-5.0,29.0,24.0,22.644041061401367,7.751464366912842,-28.076169967651367,-0.3173828125,-0.00732421875,0.0482177734375
1.262,306,473,1694,328,-5.0,29.0,24.0,22.644041061401367,7.751464366912842,-28.076169967651367,-0.35302734375,0.0789794921875,0.0360107421875
1.276,308,371,1588,327,-5.0,29.0,24.0,-11.413573265075684,6.774901866912842,-28.381345748901367,-0.432373046875,0.0703125,0.00341796875
1.284,308,347,1561,324,-5.0,29.0,24.0,-36.7431640625,10.742186546325684,-25.756834030151367,-0.504638671875,0.10400390625,-0.028564453125
1.292,308,373,1557,324,-5.0,29.0,24.0,-36.7431640625,10.742186546325684,-25.756834030151367,-0.504638671875,0.10400390625,-0.028564453125
1.306,306,383,1604,323,-5.0,29.0,24.0,-34.66796875,20.324705123901367,-2.13623046875,-0.53515625,0.312744140625,-0.05126953125
1.324,308,441,1613,324,-5.0,29.0,24.0,-34.66796875,20.324705123901367,-2.13623046875,-0.551513671875,0.3780517578125,-0.000244140625
1.324,306,465,1638,324,-5.0,29.0,24.0,-18.37158203125,19.6533203125,6.713866710662842,-0.551513671875,0.3780517578125,-0.000244140625
1.339,308,625,1656,328,-5.0,29.0,24.0,-2.624511480331421,4.45556640625,5.310058116912842,-0.679931640625,0.3880615234375,0.0709228515625
1.344,308,620,1675,323,-5.0,29.0,24.0,-2.624511480331421,4.45556640625,5.310058116912842,-0.7310791015625,0.3477783203125,0.0413818359375
1.354,310,711,1705,323,-1.0,28.0,26.0,0.8544921278953552,-3.601073980331421,1.3427733182907104,-0.7310791015625,0.3477783203125,0.0413818359375
1.366,310,1011,1718,329,-1.0,28.0,26.0,14.648436546325684,-11.169432640075684,2.197265625,-0.77978515625,0.191162109375,-0.0391845703125
1.381,313,1317,1750,334,-1.0,28.0,26.0,14.648436546325684,-11.169432640075684,2.197265625,-0.7657470703125,0.076171875,-0.0631103515625
1.382,310,1559,1828,338,-1.0,28.0,26.0,23.437498092651367,-12.023924827575684,7.995604991912842,-0.7657470703125,0.076171875,-0.0631103515625
1.396,310,2493,1867,345,-1.0,28.0,26.0,28.991697311401367,-9.033203125,21.362302780151367,-0.758544921875,-0.07421875,-0.146240234375
1.404,315,3000,1915,346,-1.0,28.0,26.0,28.991697311401367,-9.033203125,21.362302780151367,-0.7548828125,0.0399169921875,-0.218505859375
1.428,310,3147,1931,656,-1.0,28.0,26.0,24.291990280151367,-5.676269054412842,27.587888717651367,-0.7548828125,0.0399169921875,-0.218505859375
1.428,313,3147,1983,1506,-1.0,28.0,26.0,-10.681151390075684,-7.812499523162842,27.404783248901367,-0.5850830078125,0.360595703125,-0.185546875
1.434,313,3147,1987,2188,-1.0,28.0,26.0,-10.681151390075684,-7.812499523162842,27.404783248901367,-0.34423828125,0.251953125,-0.028564453125
1.442,316,3147,2012,2725,-1.0,28.0,26.0,-24.841306686401367,-15.014647483825684,22.338865280151367,-0.34423828125,0.251953125,-0.028564453125
1.464,313,3147,2129,3147,-1.0,28.0,24.0,4.7607421875,-35.2783203125,22.583005905151367,0.7947998046875,-0.1966552734375,0.019287109375
1.464,318,3147,2247,3147,-1.0,28.0,24.0,4.7607421875,-35.2783203125,22.583005905151367,1.1214599609375,0.1488037109375,0.0235595703125
1.472,318,3147,2330,3147,-1.0,28.0,24.0,23.803709030151367,-52.551265716552734,22.888181686401367,1.1214599609375,0.1488037109375,0.0235595703125
1.489,319,3147,2361,3147,-1.0,28.0,24.0,65.91796875,-98.87694549560547,-14.465331077575684,-0.8736572265625,1.1041259765625,0.1221923828125
1.494,319,3147,2404,3147,-1.0,28.0,24.0,65.91796875,-98.87694549560547,-14.465331077575684,-2.301025390625,0.82421875,0.0694580078125
1.502,323,3147,2432,3147,-1.0,28.0,24.0,82.94676971435547,-108.27635955810547,-36.865234375,-2.301025390625,0.82421875,0.0694580078125
1.529,323,3147,2435,3147,-1.0,28.0,24.0,68.2373046875,-97.90038299560547,-38.87939453125,-3.576171875,-0.45361328125,0.1927490234375
1.530,323,3147,2469,3147,-1.0,28.0,24.0,31.188962936401367,-71.22802734375,-20.263669967651367,-3.576171875,-0.45361328125,0.1927490234375
1.532,319,3147,2409,3147,-1.0,28.0,24.0,-2.807616949081421,-38.02490234375,11.779784202575684,-3.3990478515625,-0.4013671875,0.430419921875
1.546,318,3147,2467,3147,-5.0,29.0,22.0,-24.230955123901367,-0.0610351525247097,40.527339935302734,-1.218505859375,0.5947265625,0.1610107421875
1.556,316,3147,2449,3147,-5.0,29.0,22.0,-41.320796966552734,41.381832122802734,45.410152435302734,-1.218505859375,0.5947265625,0.1610107421875
1.576,318,3147,2416,3147,-5.0,29.0,22.0,-42.236324310302734,72.08251953125,28.198240280151367,-1.2332763671875,1.056884765625,-0.1707763671875
1.576,318,3147,2409,3147,-5.0,29.0,22.0,-25.085447311401367,75.74462890625,5.0048828125,-2.251953125,0.505615234375,-0.5606689453125
1.584,316,3147,2354,3147,-5.0,29.0,22.0,-8.60595703125,55.541988372802734,-9.58251953125,-2.251953125,0.505615234375,-0.5606689453125
1.594,318,3147,2321,3147,-5.0,29.0,22.0,-0.0610351525247097,28.503416061401367,-11.352538108825684,-2.103271484375,0.5478515625,-0.4130859375
1.606,315,3147,2233,3147,-5.0,29.0,22.0,-3.967284917831421,7.995604991912842,-10.620116233825684,-1.3719482421875,0.2919921875,-0.022216796875
1.614,316,3147,2220,3147,-5.0,29.0,22.0,-12.634276390075684,0.7934569716453552,-13.366698265075684,-1.3719482421875,0.2919921875,-0.022216796875
1.632,310,3147,2165,3147,-5.0,29.0,22.0,-13.854979515075684,5.493163585662842,-14.831542015075684,-1.1658935546875,0.1690673828125,0.020751953125
1.636,313,3147,2048,2962,-5.0,29.0,22.0,-9.8876953125,16.17431640625,-10.925292015075684,-0.8265380859375,0.2003173828125,0.05859375
1.645,316,3147,2041,2445,-5.0,27.0,29.0,-8.9111328125,27.099607467651367,-5.432128429412842,-0.8265380859375,0.2003173828125,0.05859375
1.652,308,3147,1981,1722,-5.0,27.0,29.0,-11.169432640075684,34.0576171875,-3.417968511581421,-0.7564697265625,0.1536865234375,0.095947265625
1.680,315,2890,1967,348,-5.0,27.0,29.0,-10.620116233825684,34.24072265625,-7.080077648162842,-0.6544189453125,-0.1849365234375,-0.060546875
1.681,313,1746,1941,351,-5.0,27.0,29.0,0.6713866591453552,28.442380905151367,-16.7236328125,-0.6544189453125,-0.1849365234375,-0.060546875
1.685,299,1091,1855,334,-5.0,27.0,29.0,20.01953125,20.141599655151367,-28.320310592651367,-0.5341796875,-0.1507568359375,-0.159912109375
1.737,310,369,1795,323,-5.0,27.0,29.0,31.555173873901367,10.559081077575684,-35.2783203125,-0.3641357421875,0.144287109375,-0.0499267578125
1.737,310,360,1759,322,-5.0,27.0,29.0,28.930662155151367,2.01416015625,-36.865234375,-0.3641357421875,0.144287109375,-0.0499267578125
1.738,308,389,1656,326,-5.0,27.0,29.0,13.732909202575684,-0.30517578125,-36.4990234375,-0.3734130859375,0.1458740234375,-0.0748291015625
1.739,308,410,1646,323,-5.0,27.0,29.0,-12.390135765075684,4.8828125,-33.8134765625,-0.5089111328125,0.23388671875,-0.1151123046875
1.740,308,402,1632,323,-5.0,27.0,29.0,-40.405269622802734,13.305663108825684,-25.634763717651367,-0.5089111328125,0.23388671875,-0.1151123046875
1.743,307,414,1624,324,-2.0,27.0,23.0,-59.509273529052734,20.01953125,-13.732909202575684,-0.5555419921875,0.288330078125,-0.0382080078125
1.760,310,430,1627,323,-2.0,27.0,23.0,-65.185546875,21.057126998901367,-4.150390625,-0.5802001953125,0.3065185546875,0.1455078125
1.779,310,430,1629,324,-2.0,27.0,23.0,-55.053707122802734,13.916014671325684,0.3662109076976776,-0.5802001953125,0.3065185546875,0.1455078125
1.779,311,402,1629,323,-2.0,27.0,23.0,-34.66796875,2.38037109375,-0.54931640625,-0.570556640625,0.27099609375,0.13232421875
1.790,313,364,1641,324,-2.0,27.0,23.0,-18.6767578125,-6.164550304412842,-5.493163585662842,-0.6339111328125,0.3214111328125,0.0389404296875
1.796,311,493,1613,322,-2.0,27.0,23.0,-13.427733421325684,-9.70458984375,-10.253905296325684,-0.6339111328125,0.3214111328125,0.0389404296875
1.807,309,593,1623,327,-2.0,27.0,23.0,-13.793944358825684,-10.986327171325684,-9.70458984375,-0.6761474609375,0.3013916015625,0.0147705078125
1.818,310,725,1684,328,-2.0,27.0,23.0,-12.451170921325684,-11.901854515075684,-3.356933355331421,-0.6514892578125,0.017578125,0.0216064453125
1.839,313,1026,1732,332,-2.0,27.0,23.0,-6.530761241912842,-12.573241233825684,4.5166015625,-0.6514892578125,0.017578125,0.0216064453125
1.841,313,1387,1794,334,-2.0,27.0,23.0,3.601073980331421,-12.207030296325684,11.169432640075684,-0.638671875,-0.1627197265625,-0.007080078125
1.848,315,2504,1900,348,-2.0,28.0,26.0,17.39501953125,-10.620116233825684,18.06640625,-0.694580078125,-0.194091796875,-0.11767578125
1.864,316,3147,1973,371,-2.0,28.0,26.0,33.99658203125,-8.544921875,27.648923873901367,-0.694580078125,-0.194091796875,-0.11767578125
1.866,316,3147,2035,883,-2.0,28.0,26.0,45.471187591552734,-6.530761241912842,39.24560546875,-0.744140625,0.0628662109375,-0.20849609375
1.877,317,3147,2060,1892,-2.0,28.0,26.0,36.4990234375,-4.8828125,46.813961029052734,-0.739501953125,0.36669921875,-0.2271728515625
1.885,317,3147,2070,2477,-2.0,28.0,26.0,4.7607421875,-5.737304210662842,46.630855560302734,-0.5308837890625,0.37744140625,-0.0006103515625
1.893,318,3147,2183,2968,-2.0,28.0,26.0,-17.27294921875,-11.596678733825684,39.48974609375,-0.024169921875,0.06640625,0.2061767578125
1.914,316,3147,2306,3147,-2.0,28.0,26.0,-5.554198741912842,-20.141599655151367,28.198240280151367,0.5926513671875,-0.066650390625,0.131103515625
1.915,317,3147,2341,3147,-2.0,28.0,26.0,18.6767578125,-32.71484375,16.9677734375,0.926513671875,0.2147216796875,0.055908203125
1.939,321,3147,2456,3147,-2.0,28.0,26.0,37.7197265625,-54.626461029052734,3.723144292831421,0.5596923828125,0.6824951171875,0.1058349609375
1.940,321,3147,2437,3147,-6.0,27.0,24.0,57.189937591552734,-79.65087890625,-11.169432640075684,-0.498779296875,1.0128173828125,0.1055908203125
1.945,321,3147,2484,3147,-6.0,27.0,24.0,74.52392578125,-92.83446502685547,-18.798828125,-1.90234375,0.8526611328125,0.0362548828125
1.953,316,3147,2552,3147,-6.0,27.0,24.0,74.5849609375,-86.12059783935547,-18.24951171875,-3.1021728515625,0.1600341796875,-0.006103515625
1.968,321,3147,2432,3147,-6.0,27.0,24.0,52.856441497802734,-63.964839935302734,-12.207030296325684,-3.6912841796875,-0.3834228515625,0.13916015625
1.979,323,3147,2440,3147,-6.0,27.0,24.0,26.611326217651367,-34.85107421875,4.39453125,-3.7315673828125,-0.2772216796875,0.3319091796875
1.983,323,3147,2465,3147,-6.0,27.0,24.0,4.21142578125,-2.624511480331421,25.268552780151367,-2.688720703125,0.05029296875,0.1744384765625
1.998,325,3147,2443,3147,-6.0,27.0,24.0,-26.550291061401367,34.1796875,31.860349655151367,-1.282470703125,0.5758056640625,-0.046875
2.044,323,3147,2356,3147,-6.0,27.0,24.0,-48.706050872802734,75.37841796875,8.11767578125,-1.8450927734375,0.5806884765625,-0.261474609375
2.045,321,3147,2337,3147,-6.0,27.0,24.0,-31.433103561401367,62.316890716552734,-0.30517578125,-2.2957763671875,0.3309326171875,-0.303466796875
2.045,321,3147,2344,3147,-6.0,28.0,27.0,-6.164550304412842,39.9169921875,-0.9765624403953552,-2.21875,0.564208984375,-0.3111572265625
2.046,321,3147,2284,3147,-6.0,28.0,27.0,10.498045921325684,16.78466796875,-3.967284917831421,-1.806640625,0.6868896484375,-0.29736328125
2.057,317,3147,2190,3147,-6.0,28.0,27.0,12.145995140075684,1.0986328125,-11.840819358825684,-1.4149169921875,0.5028076171875,-0.2425537109375
2.068,317,3147,2195,3147,-6.0,28.0,27.0,9.33837890625,-3.479003667831421,-17.7001953125,-1.160400390625,0.3240966796875,-0.1787109375
2.093,318,3147,2160,2991,-6.0,28.0,27.0,7.446288585662842,-0.3662109076976776,-17.2119140625,-0.9564208984375,0.2484130859375,-0.1011962890625
2.094,317,3147,2087,2136,-6.0,28.0,27.0,5.493163585662842,5.676269054412842,-13.854979515075684,-0.7723388671875,0.18115234375,-0.004150390625
2.097,316,3147,2007,1597,-6.0,28.0,27.0,1.3427733182907104,12.145995140075684,-12.145995140075684,-0.665283203125,0.055908203125,0.1009521484375
2.104,315,3147,2003,465,-6.0,28.0,27.0,-3.967284917831421,16.90673828125,-13.061522483825684,-0.6131591796875,-0.17724609375,0.142578125
2.117,316,1503,1915,346,-6.0,28.0,27.0,-0.9765624403953552,19.83642578125,-17.27294921875,-0.5802001953125,-0.344482421875,0.0308837890625
2.144,315,996,1925,342,-6.0,28.0,27.0,10.314940452575684,20.629880905151367,-24.291990280151367,-0.5191650390625,-0.2542724609375,-0.05224609375
2.145,312,551,1895,344,-6.0,24.0,22.0,16.845703125,15.686034202575684,-30.456541061401367,-0.415283203125,-0.02392578125,0.018310546875
2.147,308,354,1815,323,-6.0,24.0,22.0,15.136717796325684,7.507323741912842,-34.912109375,-0.356689453125,0.1199951171875,0.0628662109375
2.155,308,348,1746,327,-6.0,24.0,22.0,5.310058116912842,4.0283203125,-38.39111328125,-0.3602294921875,0.1737060546875,0.0048828125
2.163,306,400,1730,323,-6.0,24.0,22.0,-15.197752952575684,7.934569835662842,-37.9638671875,-0.4078369140625,0.201416015625,-0.0460205078125
2.184,308,406,1704,323,-6.0,24.0,22.0,-38.51318359375,14.587401390075684,-30.578611373901367,-0.465576171875,0.2142333984375,-0.0343017578125
2.185,309,401,1715,327,-6.0,24.0,22.0,-49.804683685302734,20.141599655151367,-17.578125,-0.4930419921875,0.24658203125,0.011962890625
2.194,310,401,1719,324,-6.0,24.0,22.0,-47.607418060302734,22.705076217651367,-4.0283203125,-0.521728515625,0.3057861328125,0.0738525390625
2.207,308,416,1704,323,-6.0,24.0,22.0,-38.02490234375,19.71435546875,4.638671875,-0.5733642578125,0.316650390625,0.106689453125
2.215,308,407,1669,324,-6.0,24.0,22.0,-24.963376998901367,11.596678733825684,5.554198741912842,-0.6239013671875,0.2550048828125,0.0965576171875
2.223,310,462,1686,323,-6.0,24.0,22.0,-13.183592796325684,2.3193359375,1.4648436307907104,-0.66259765625,0.219970703125,0.0833740234375
2.249,310,606,1713,328,-4.0,27.0,23.0,-3.662109136581421,-4.82177734375,-0.9765624403953552,-0.702392578125,0.279541015625,0.058349609375
2.249,312,644,1748,328,-4.0,27.0,23.0,5.249022960662842,-9.46044921875,1.220703125,-0.7156982421875,0.344970703125,0.0211181640625
2.253,313,788,1775,330,-4.0,27.0,23.0,10.681151390075684,-12.634276390075684,5.737304210662842,-0.681884765625,0.2825927734375,0.0001220703125
2.267,313,1323,1867,328,-4.0,27.0,23.0,10.681151390075684,-13.977049827575684,9.70458984375,-0.6358642578125,0.1171875,-0.0177001953125
2.284,314,1735,1912,338,-4.0,27.0,23.0,8.97216796875,-12.573241233825684,13.854979515075684,-0.62451171875,-0.0360107421875,-0.0655517578125
2.285,313,2320,1925,344,-4.0,27.0,23.0,10.375975608825684,-9.09423828125,20.507810592651367,-0.6959228515625,-0.0762939453125,-0.1392822265625
2.299,313,3147,1954,464,-4.0,27.0,23.0,12.939452171325684,-5.187987804412842,29.785154342651367,-0.8170166015625,0.0274658203125,-0.2130126953125
2.305,315,3147,1963,963,-4.0,27.0,23.0,6.958007335662842,-3.601073980331421,37.7197265625,-0.859130859375,0.1937255859375,-0.2100830078125
2.314,314,3147,2035,1346,-4.0,27.0,23.0,-9.58251953125,-5.798339366912842,39.4287109375,-0.7757568359375,0.2742919921875,-0.0821533203125
2.327,315,3147,2143,2217,-2.0,25.0,26.0,-22.094724655151367,-10.070799827575684,34.3017578125,-0.537353515625,0.15087890625,0.069091796875
2.354,316,3147,2197,2750,-2.0,25.0,26.0,-18.12744140625,-14.709471702575684,25.024412155151367,-0.1356201171875,-0.0147705078125,0.082275390625
2.355,316,3147,2247,3076,-2.0,25.0,26.0,-18.12744140625,-14.709471702575684,25.024412155151367,0.3690185546875,0.0394287109375,0.016357421875
2.357,317,3147,2341,3147,-2.0,25.0,26.0,27.832029342651367,-41.442867279052734,5.371093273162842,0.6795654296875,0.3306884765625,-0.0128173828125
2.365,321,3147,2414,3147,-2.0,25.0,26.0,57.373043060302734,-69.39697265625,-3.417968511581421,0.320556640625,0.701171875,-0.023681640625
2.374,321,3147,2440,3147,-2.0,25.0,26.0,57.373043060302734,-69.39697265625,-3.417968511581421,-0.698974609375,0.9244384765625,-0.0323486328125
2.388,323,3147,2530,3147,-2.0,25.0,26.0,78.0029296875,-100.58592987060547,-18.1884765625,-1.8736572265625,0.7158203125,0.0201416015625
2.395,323,3147,2494,3147,-2.0,25.0,26.0,58.532711029052734,-90.63719940185547,-20.202634811401367,-2.6666259765625,0.0599365234375,0.2080078125
2.403,323,3147,2517,3147,-2.0,25.0,26.0,58.532711029052734,-90.63719940185547,-20.202634811401367,-2.9239501953125,-0.382568359375,0.4560546875
2.417,323,3147,2435,3147,-2.0,25.0,26.0,8.9111328125,-35.888671875,4.150390625,-2.854736328125,-0.29052734375,0.5811767578125
2.425,324,3147,2392,3147,-4.0,25.0,25.0,-4.21142578125,0.4272460639476776,21.423337936401367,-2.5072021484375,0.0302734375,0.4658203125
2.434,322,3147,2395,3147,-4.0,25.0,25.0,-4.21142578125,0.4272460639476776,21.423337936401367,-1.757080078125,0.32421875,0.0802001953125
2.454,322,3147,2318,3147,-4.0,25.0,25.0,-44.006343841552734,71.83837890625,27.038572311401367,-1.27294921875,0.6009521484375,-0.31689453125
2.455,324,3147,2314,3147,-4.0,25.0,25.0,-57.067867279052734,85.38817596435547,19.287109375,-1.6597900390625,0.69287109375,-0.4273681640625
2.466,324,3147,2370,3147,-4.0,25.0,25.0,-57.067867279052734,85.38817596435547,19.287109375,-2.2093505859375,0.5283203125,-0.327392578125
2.477,323,3147,2347,3147,-4.0,25.0,25.0,-42.724605560302734,52.368160247802734,11.657713890075684,-2.251708984375,0.56884765625,-0.2093505859375
2.488,323,3147,2317,3147,-4.0,25.0,25.0,-22.399900436401367,26.550291061401367,5.187987804412842,-1.901611328125,0.73681640625,-0.204833984375
2.493,323,3147,2275,3147,-4.0,25.0,25.0,-22.399900436401367,26.550291061401367,5.187987804412842,-1.4739990234375,0.634765625,-0.2359619140625
2.507,322,3147,2217,3147,-4.0,25.0,25.0,12.817381858825684,-3.173827886581421,-22.033689498901367,-1.1519775390625,0.408447265625,-0.2139892578125
2.515,321,3147,2167,3101,-4.0,25.0,25.0,20.690916061401367,-4.33349609375,-28.991697311401367,-0.960205078125,0.3004150390625,-0.1358642578125
2.523,319,3147,2162,2677,-3.0,29.0,27.0,20.690916061401367,-4.33349609375,-28.991697311401367,-0.8607177734375,0.2236328125,-0.033935546875
2.537,316,3147,2074,1846,-3.0,29.0,27.0,10.864256858825684,5.859374523162842,-26.855466842651367,-0.797119140625,0.06298828125,0.034423828125
2.557,315,3147,2035,1138,-3.0,29.0,27.0,-0.4272460639476776,11.962889671325684,-23.925779342651367,-0.711669921875,-0.18994140625,0.1007080078125
2.557,313,3147,2018,361,-3.0,29.0,27.0,-0.4272460639476776,11.962889671325684,-23.925779342651367,-0.711669921875,-0.18994140625,0.1007080078125
2.568,313,1490,1905,347,-3.0,29.0,27.0,-0.4272460639476776,21.789548873901367,-18.98193359375,-0.6077880859375,-0.41064453125,0.0357666015625
2.580,315,957,1840,338,-3.0,29.0,27.0,-0.4272460639476776,21.789548873901367,-18.98193359375,-0.5133056640625,-0.2203369140625,0.0562744140625
2.594,313,600,1861,338,-3.0,29.0,27.0,7.446288585662842,23.071287155151367,-17.08984375,-0.5133056640625,-0.2203369140625,0.0562744140625
2.597,313,376,1848,324,-3.0,29.0,27.0,5.432128429412842,13.854979515075684,-19.10400390625,-0.3604736328125,0.09814453125,0.232421875
2.606,310,315,1860,324,-3.0,29.0,27.0,5.432128429412842,13.854979515075684,-19.10400390625,-0.4102783203125,0.148193359375,0.180908203125
2.614,312,361,1842,327,-3.0,29.0,27.0,-0.7934569716453552,12.634276390075684,-23.071287155151367,-0.4102783203125,0.148193359375,0.180908203125
2.627,309,402,1837,323,-4.0,28.0,27.0,-12.207030296325684,23.864744186401367,-13.427733421325684,-0.5914306640625,0.4993896484375,-0.0045166015625
2.635,313,348,1846,323,-4.0,28.0,27.0,-12.207030296325684,23.864744186401367,-13.427733421325684,-0.572021484375,0.4495849609375,-0.0355224609375
2.661,310,347,1865,323,-4.0,28.0,27.0,-24.291990280151367,26.977537155151367,-5.065917491912842,-0.572021484375,0.4495849609375,-0.0355224609375
2.661,311,375,1914,328,-4.0,28.0,27.0,-31.982419967651367,22.277830123901367,5.065917491912842,-0.544189453125,0.32861328125,-0.060302734375
2.665,310,462,1914,332,-4.0,28.0,27.0,-31.982419967651367,22.277830123901367,5.065917491912842,-0.542724609375,0.250732421875,-0.0877685546875
2.673,308,508,1925,327,-4.0,28.0,27.0,-29.296873092651367,13.793944358825684,3.540038824081421,-0.542724609375,0.250732421875,-0.0877685546875
2.703,309,683,1957,329,-4.0,28.0,27.0,-12.390135765075684,-1.15966796875,-3.906249761581421,-0.64697265625,0.2393798828125,-0.070068359375
2.704,310,811,1973,331,-4.0,28.0,27.0,-12.390135765075684,-1.15966796875,-3.906249761581421,-0.692138671875,0.2083740234375,-0.0125732421875
2.706,310,1129,1954,334,-4.0,28.0,27.0,1.15966796875,-5.554198741912842,-2.13623046875,-0.692138671875,0.2083740234375,-0.0125732421875
2.718,310,1669,1987,346,-4.0,28.0,27.0,23.742673873901367,-10.681151390075684,5.920409679412842,-0.7449951171875,0.008056640625,0.0347900390625
2.725,312,2135,2005,347,-3.0,29.0,24.0,23.742673873901367,-10.681151390075684,5.920409679412842,-0.8450927734375,-0.0069580078125,-0.0037841796875
2.733,310,2576,2010,348,-3.0,29.0,24.0,32.28759765625,-9.8876953125,13.061522483825684,-0.8450927734375,-0.0069580078125,-0.0037841796875
2.769,313,3147,2016,562,-3.0,29.0,24.0,25.451658248901367,-3.662109136581421,27.404783248901367,-0.900634765625,0.0928955078125,-0.12646484375
2.769,313,3147,2058,998,-3.0,29.0,24.0,25.451658248901367,-3.662109136581421,27.404783248901367,-0.7872314453125,0.1484375,-0.1441650390625
2.769,314,3147,2076,1411,-3.0,29.0,24.0,5.554198741912842,-1.2817381620407104,29.724119186401367,-0.7872314453125,0.1484375,-0.1441650390625
2.778,313,3147,2135,2178,-3.0,29.0,24.0,-15.624999046325684,-0.54931640625,29.235837936401367,-0.510986328125,0.208740234375,-0.00634765625
2.786,316,3147,2178,2587,-3.0,29.0,24.0,-29.785154342651367,-2.868652105331421,25.817869186401367,-0.510986328125,0.208740234375,-0.00634765625
2.805,318,3147,2303,2746,-3.0,29.0,24.0,-28.930662155151367,-10.192870140075684,20.446775436401367,0.013916015625,-0.001220703125,0.1278076171875
2.808,316,3147,2337,3147,-3.0,29.0,24.0,-9.58251953125,-20.446775436401367,17.88330078125,1.186279296875,0.1357421875,0.1739501953125
2.816,316,3147,2364,3147,-3.0,29.0,24.0,15.441893577575684,-32.28759765625,19.22607421875,1.186279296875,0.1357421875,0.1739501953125
2.823,316,3147,2449,3147,-3.0,25.0,26.0,39.4287109375,-48.339839935302734,14.648436546325684,0.515380859375,0.75,0.082275390625
2.837,321,3147,2563,3147,-3.0,25.0,26.0,72.32666015625,-68.17626953125,-2.50244140625,-2.3751220703125,0.8421630859375,-0.3499755859375
2.860,323,3147,2587,3147,-3.0,25.0,26.0,95.27587127685547,-83.61815643310547,-19.6533203125,-2.3751220703125,0.8421630859375,-0.3499755859375
2.861,324,3147,2658,3147,-3.0,25.0,26.0,84.35057830810547,-86.42577362060547,-23.315427780151367,-3.0615234375,-0.074462890625,-0.1204833984375
2.874,327,3147,2581,3147,-3.0,25.0,26.0,51.391597747802734,-73.1201171875,-10.925292015075684,-3.34912109375,-0.192626953125,0.592041015625
2.875,338,3147,2561,3147,-3.0,25.0,26.0,17.63916015625,-42.419429779052734,15.136717796325684,-3.34912109375,-0.192626953125,0.592041015625
2.886,321,3147,2568,3147,-3.0,25.0,26.0,-15.563963890075684,1.7089842557907104,37.353515625,-2.53564453125,0.0472412109375,0.4637451171875
2.901,321,3147,2426,3147,-3.0,25.0,26.0,-52.917476654052734,51.757808685302734,38.6962890625,-1.3118896484375,0.76318359375,-0.0657958984375
2.905,318,3147,2424,3147,-3.0,25.0,26.0,-69.76318359375,93.13964080810547,28.930662155151367,-1.3118896484375,0.76318359375,-0.0657958984375
2.916,315,3147,2416,3147,-3.0,25.0,26.0,-61.950679779052734,107.36083221435547,20.629880905151367,-1.998046875,0.6539306640625,-0.314453125
2.927,318,3147,2404,3147,-7.0,26.0,27.0,-51.147457122802734,93.07860565185547,17.88330078125,-2.1192626953125,0.7669677734375,-0.36572265625
2.935,318,3147,2361,3147,-7.0,26.0,27.0,-33.02001953125,65.00244140625,17.2119140625,-2.1192626953125,0.7669677734375,-0.36572265625
2.943,319,3147,2325,3147,-7.0,26.0,27.0,-10.498045921325684,35.888671875,6.652831554412842,-1.7449951171875,0.844482421875,-0.4178466796875
2.963,321,3147,2223,3147,-7.0,26.0,27.0,4.5166015625,13.122557640075684,-12.390135765075684,-1.2119140625,0.3583984375,-0.392333984375
2.965,316,3147,2155,3128,-7.0,26.0,27.0,12.695311546325684,-0.2441406100988388,-26.733396530151367,-1.2119140625,0.3583984375,-0.392333984375
2.978,319,3147,2083,2668,-7.0,26.0,27.0,14.343260765075684,-4.150390625,-30.578611373901367,-0.9488525390625,0.2999267578125,-0.296875
2.988,313,3147,2078,1746,-7.0,26.0,27.0,8.056640625,-1.3427733182907104,-29.663084030151367,-0.557861328125,0.069580078125,0.038818359375
3.005,318,3147,2032,683,-7.0,26.0,27.0,-3.540038824081421,3.234863042831421,-30.456541061401367,-0.557861328125,0.069580078125,0.038818359375
3.006,316,2412,1925,359,-7.0,26.0,27.0,-13.183592796325684,6.164550304412842,-33.38623046875,-0.4825439453125,-0.259765625,0.1722412109375
3.018,315,1104,1920,338,-4.0,26.0,24.0,-10.192870140075684,8.23974609375,-35.21728515625,-0.4705810546875,-0.4896240234375,0.177001953125
3.029,314,619,1892,334,-4.0,26.0,24.0,4.08935546875,9.21630859375,-33.447265625,-0.448486328125,-0.4439697265625,0.1771240234375
3.033,310,464,1838,324,-4.0,26.0,24.0,20.568845748901367,7.446288585662842,-27.770994186401367,-0.392578125,-0.241455078125,0.1766357421875
3.047,315,334,1824,323,-4.0,26.0,24.0,33.203125,6.591796398162842,-23.132322311401367,-0.3917236328125,0.03955078125,0.1033935546875
3.065,310,336,1798,324,-4.0,26.0,24.0,26.000974655151367,8.60595703125,-22.216794967651367,-0.39697265625,0.2188720703125,0.0634765625
3.066,308,382,1759,324,-4.0,26.0,24.0,-2.25830078125,13.000487327575684,-21.118162155151367,-0.3934326171875,0.226318359375,0.057373046875
3.084,310,352,1781,323,-4.0,26.0,24.0,-25.512693405151367,20.141599655151367,-15.380858421325684,-0.4141845703125,0.2344970703125,0.0050048828125
3.086,313,354,1775,323,-4.0,26.0,24.0,-30.761716842651367,27.099607467651367,-5.371093273162842,-0.439208984375,0.3154296875,-0.048583984375
3.103,308,321,1805,324,-4.0,26.0,24.0,-26.733396530151367,28.686521530151367,3.784179449081421,-0.5047607421875,0.43408203125,-0.044921875
3.107,310,372,1821,325,-4.0,26.0,24.0,-22.644041061401367,22.766111373901367,7.629394054412842,-0.592529296875,0.4990234375,-0.010009765625
3.118,313,472,1815,329,-5.0,28.0,20.0,-19.22607421875,12.023924827575684,4.150390625,-0.656982421875,0.4801025390625,0.0120849609375
3.125,310,646,1843,330,-5.0,28.0,20.0,-13.854979515075684,1.7089842557907104,-4.0283203125,-0.7130126953125,0.4151611328125,0.0076904296875
3.141,316,737,1862,327,-5.0,28.0,20.0,-5.798339366912842,-5.310058116912842,-9.82666015625,-0.7540283203125,0.35107421875,-0.018310546875
3.145,310,872,1878,328,-5.0,28.0,20.0,1.7089842557907104,-9.8876953125,-9.46044921875,-0.747802734375,0.270263671875,-0.0491943359375
3.169,313,1103,1953,334,-5.0,28.0,20.0,3.967284917831421,-13.732909202575684,-5.126952648162842,-0.7056884765625,0.1219482421875,-0.07080078125
3.169,314,1783,2026,342,-5.0,28.0,20.0,2.25830078125,-15.747069358825684,0.3662109076976776,-0.6734619140625,-0.0748291015625,-0.0802001953125
3.175,315,2207,2047,346,-5.0,28.0,20.0,2.807616949081421,-14.038084983825684,7.324218273162842,-0.7099609375,-0.2198486328125,-0.0830078125
3.198,316,2843,2019,354,-5.0,28.0,20.0,9.09423828125,-9.21630859375,16.9677734375,-0.7994384765625,-0.215576171875,-0.104736328125
3.199,313,3147,2012,1065,-5.0,28.0,20.0,17.2119140625,-4.82177734375,28.564451217651367,-0.8214111328125,-0.085205078125,-0.16064453125
3.208,314,3147,2074,1582,-5.0,28.0,20.0,16.357421875,-3.967284917831421,37.65869140625,-0.731689453125,0.1082763671875,-0.185546875
3.213,315,3147,2105,2093,-5.0,29.0,22.0,1.6479490995407104,-7.568358898162842,38.87939453125,-0.57958984375,0.2581787109375,-0.1134033203125
3.227,317,3147,2158,2728,-5.0,29.0,22.0,-15.014647483825684,-15.869139671325684,31.311033248901367,-0.302001953125,0.2193603515625,0.068359375
3.235,323,3147,2263,3146,-5.0,29.0,22.0,-14.526366233825684,-28.137205123901367,20.812986373901367,0.2841796875,0.0489501953125,0.2283935546875
3.243,318,3147,2347,3147,-5.0,29.0,22.0,9.1552734375,-43.640132904052734,14.404295921325684,0.9954833984375,0.0535888671875,0.22998046875
3.272,318,3147,2430,3147,-5.0,29.0,22.0,41.931148529052734,-61.584468841552734,9.46044921875,1.1563720703125,0.46240234375,0.077392578125
3.272,324,3147,2581,3147,-5.0,29.0,22.0,68.359375,-78.67431640625,-5.187987804412842,0.29541015625,1.0823974609375,-0.169921875
3.273,324,3147,2610,3147,-5.0,29.0,22.0,78.61328125,-88.98925018310547,-28.076169967651367,-1.3372802734375,1.2529296875,-0.2999267578125
3.287,327,3147,2744,3147,-5.0,29.0,22.0,59.631343841552734,-86.97509002685547,-40.0390625,-2.8775634765625,0.3564453125,-0.057861328125
3.310,324,3147,2760,3147,-5.0,29.0,22.0,23.498533248901367,-69.580078125,-28.869626998901367,-3.7198486328125,-0.7344970703125,0.459716796875
3.311,309,3147,2596,3147,-5.0,29.0,22.0,3.723144292831421,-39.24560546875,6.286620616912842,-3.9384765625,-0.67724609375,0.779296875
3.317,327,3147,2570,3147,-4.0,22.0,28.0,0.6713866591453552,-1.6479490995407104,45.715328216552734,-2.8970947265625,-0.0958251953125,0.4322509765625
3.325,323,3147,2599,3147,-4.0,22.0,28.0,-21.728513717651367,39.794921875,53.894039154052734,-1.3125,0.57177734375,0.009765625
3.333,324,3147,2593,3147,-4.0,22.0,28.0,-43.884273529052734,74.3408203125,30.395505905151367,-0.996337890625,1.0882568359375,-0.2342529296875
3.347,325,3147,2541,3147,-4.0,22.0,28.0,-36.0107421875,82.76366424560547,1.03759765625,-1.639892578125,0.763671875,-0.59423828125
3.355,324,3147,2517,3147,-4.0,22.0,28.0,-22.827146530151367,65.185546875,-13.854979515075684,-2.229248046875,0.322265625,-0.7001953125
3.373,323,3147,2449,3147,-4.0,22.0,28.0,-16.9677734375,39.6728515625,-10.559081077575684,-2.308349609375,0.369384765625,-0.456298828125
3.377,318,3147,2340,3147,-4.0,22.0,28.0,-19.53125,19.10400390625,-4.33349609375,-1.99462890625,0.5338134765625,-0.1246337890625
3.385,327,3147,2306,3147,-4.0,22.0,28.0,-26.000974655151367,10.620116233825684,-4.8828125,-1.639892578125,0.4893798828125,0.0230712890625
3.393,317,3147,2229,3010,-4.0,22.0,28.0,-28.991697311401367,13.977049827575684,-9.09423828125,-1.400390625,0.326416015625,0.00390625
3.413,318,3147,2128,2946,-4.0,26.0,22.0,-27.099607467651367,22.766111373901367,-10.253905296325684,-1.1868896484375,0.264892578125,-0.085205078125
3.416,318,3147,2035,2417,-4.0,26.0,22.0,-22.766111373901367,32.1044921875,-8.23974609375,-0.9320068359375,0.2703857421875,-0.1314697265625
3.424,323,3147,2014,1655,-4.0,26.0,22.0,-20.324705123901367,37.53662109375,-7.934569835662842,-0.69921875,0.18603515625,-0.058349609375
3.440,321,2727,1954,356,-4.0,26.0,22.0,-19.71435546875,34.11865234375,-13.366698265075684,-0.530517578125,-0.0479736328125,0.0697021484375
3.445,321,1650,1904,346,-4.0,26.0,22.0,-12.939452171325684,22.888181686401367,-24.169919967651367,-0.4326171875,-0.3043212890625,0.1004638671875
3.453,318,974,1927,342,-4.0,26.0,22.0,4.45556640625,10.986327171325684,-34.66796875,-0.3927001953125,-0.3385009765625,0.054931640625
3.480,313,413,1828,324,-4.0,26.0,22.0,22.521970748901367,2.44140625,-37.41455078125,-0.365478515625,-0.2264404296875,0.0455322265625
3.481,310,356,1770,324,-4.0,26.0,22.0,31.982419967651367,-0.7934569716453552,-34.48486328125,-0.4139404296875,-0.0264892578125,-0.008544921875
3.483,306,388,1744,323,-4.0,26.0,22.0,31.982419967651367,-0.7934569716453552,-34.48486328125,-0.4678955078125,0.2215576171875,-0.1060791015625
3.497,308,378,1689,323,-4.0,26.0,22.0,3.845214605331421,9.3994140625,-25.207517623901367,-0.434814453125,0.3140869140625,-0.1588134765625
3.523,310,375,1676,322,0.0,28.0,20.0,-26.306150436401367,17.2119140625,-18.73779296875,-0.3968505859375,0.2841796875,-0.1629638671875
3.523,309,382,1669,323,0.0,28.0,20.0,-26.306150436401367,17.2119140625,-18.73779296875,-0.4027099609375,0.299072265625,-0.115234375
3.527,308,391,1650,323,0.0,28.0,20.0,-39.97802734375,25.329587936401367,-4.33349609375,-0.4517822265625,0.3402099609375,-0.013671875
3.535,308,391,1677,323,0.0,28.0,20.0,-36.376953125,18.37158203125,-1.5869139432907104,-0.5068359375,0.2734375,0.09716796875
3.543,308,383,1665,323,0.0,28.0,20.0,-36.376953125,18.37158203125,-1.5869139432907104,-0.56982421875,0.1888427734375,0.16650390625
3.557,308,378,1693,323,0.0,28.0,20.0,-14.404295921325684,-0.8544921278953552,-6.469726085662842,-0.6368408203125,0.230712890625,0.1700439453125
3.580,310,390,1697,323,0.0,28.0,20.0,1.5869139432907104,-7.080077648162842,-5.371093273162842,-0.68017578125,0.33837890625,0.123046875
3.581,314,371,1766,322,0.0,28.0,20.0,1.5869139432907104,-7.080077648162842,-5.371093273162842,-0.6773681640625,0.3599853515625,0.080078125
3.592,315,501,1813,321,0.0,28.0,20.0,13.977049827575684,-17.2119140625,2.990722417831421,-0.6182861328125,0.22705078125,0.0665283203125
3.595,315,704,1852,327,0.0,28.0,20.0,16.9677734375,-20.568845748901367,7.202147960662842,-0.5135498046875,-0.0191650390625,0.0518798828125
3.605,316,848,1943,334,-2.0,25.0,27.0,16.9677734375,-20.568845748901367,7.202147960662842,-0.4151611328125,-0.2332763671875,0.0006103515625
3.617,321,2111,2018,338,-2.0,25.0,27.0,44.067378997802734,-17.9443359375,17.02880859375,-0.41650390625,-0.2703857421875,-0.059814453125
3.625,321,2965,2063,354,-2.0,25.0,27.0,61.523433685302734,-13.122557640075684,25.817869186401367,-0.6165771484375,-0.08154296875,-0.105712890625
3.633,321,3147,2060,630,-2.0,25.0,27.0,61.523433685302734,-13.122557640075684,25.817869186401367,-0.9156494140625,0.242919921875,-0.234375
3.647,321,3147,2037,1616,-2.0,25.0,27.0,54.260250091552734,-1.4038084745407104,47.241207122802734,-0.9974365234375,0.463134765625,-0.3291015625
3.655,319,3147,2061,2306,-2.0,25.0,27.0,-1.7089842557907104,-1.7700194120407104,43.518062591552734,-0.779296875,0.39208984375,-0.1641845703125
3.663,323,3147,2113,2869,-2.0,25.0,27.0,-1.7089842557907104,-1.7700194120407104,43.518062591552734,-0.415283203125,0.18505859375,0.1165771484375
3.682,317,3147,2218,3147,-2.0,25.0,27.0,-56.396480560302734,-17.578125,30.029294967651367,0.0908203125,0.0692138671875,0.3189697265625
3.685,315,3147,2287,3147,-2.0,25.0,27.0,-56.396480560302734,-17.578125,30.029294967651367,0.7723388671875,0.0369873046875,0.44677734375
3.693,319,3147,2421,3147,-2.0,25.0,27.0,-30.517576217651367,-32.04345703125,23.498533248901367,0.7723388671875,0.0369873046875,0.44677734375
3.707,324,3147,2662,3147,-2.0,28.0,24.0,32.470703125,-63.476558685302734,-4.82177734375,0.3895263671875,0.5325927734375,0.1539306640625
3.734,323,3147,2738,3147,-2.0,28.0,24.0,32.470703125,-63.476558685302734,-4.82177734375,-1.344970703125,0.734130859375,-0.396484375
3.734,327,3147,2782,3147,-2.0,28.0,24.0,88.13475799560547,-69.82421875,-18.4326171875,-1.344970703125,0.734130859375,-0.396484375
3.737,323,3147,2790,3147,-2.0,28.0,24.0,91.30858612060547,-56.396480560302734,-25.939939498901367,-4.0,-0.009033203125,-0.4324951171875
3.746,329,3147,2630,3147,-2.0,28.0,24.0,91.30858612060547,-56.396480560302734,-25.939939498901367,-4.0,-0.1187744140625,0.423095703125
3.753,324,3147,2622,3147,-2.0,28.0,24.0,27.465818405151367,-50.048824310302734,-2.868652105331421,-4.0,-0.1187744140625,0.423095703125
3.785,323,3147,2568,3147,-2.0,28.0,24.0,-55.419918060302734,3.906249761581421,32.40966796875,-0.7249755859375,0.5216064453125,0.2236328125
3.785,308,3147,2601,3147,-2.0,28.0,24.0,-55.419918060302734,3.906249761581421,32.40966796875,-0.8369140625,0.835205078125,0.1396484375
3.785,327,3147,2559,3147,-2.0,28.0,24.0,-72.81494140625,54.443355560302734,19.34814453125,-0.8369140625,0.835205078125,0.1396484375
3.798,324,3147,2559,3147,-5.0,25.0,27.0,-28.015134811401367,74.3408203125,-4.69970703125,-2.30078125,0.15234375,-0.412353515625
3.807,323,3147,2541,3147,-5.0,25.0,27.0,-28.015134811401367,74.3408203125,-4.69970703125,-2.2867431640625,0.3948974609375,-0.452880859375
3.834,323,3147,2471,3147,-5.0,25.0,27.0,-1.4648436307907104,53.710933685302734,2.44140625,-2.2867431640625,0.3948974609375,-0.452880859375
3.837,319,3147,2356,3147,-5.0,25.0,27.0,-5.554198741912842,16.90673828125,5.126952648162842,-1.530029296875,0.5791015625,-0.113037109375
3.838,318,3147,2298,3147,-5.0,25.0,27.0,-5.554198741912842,16.90673828125,5.126952648162842,-1.3311767578125,0.37451171875,-0.06982421875
3.843,318,3147,2254,3147,-5.0,25.0,27.0,-13.305663108825684,12.634276390075684,-1.3427733182907104,-1.3311767578125,0.37451171875,-0.06982421875
3.857,316,3147,2215,3064,-5.0,25.0,27.0,-6.652831554412842,16.05224609375,-5.371093273162842,-0.892333984375,0.3260498046875,-0.1689453125
3.866,316,3147,2139,2419,-5.0,25.0,27.0,-6.652831554412842,16.05224609375,-5.371093273162842,-0.634033203125,0.322265625,-0.0926513671875
3.886,315,3147,2057,1864,-5.0,25.0,27.0,-0.7934569716453552,16.11328125,-6.713866710662842,-0.634033203125,0.322265625,-0.0926513671875
3.888,318,3147,1996,400,-5.0,25.0,27.0,-2.25830078125,8.30078125,-23.376462936401367,-0.351806640625,-0.12158203125,0.0914306640625
3.895,314,2280,2057,354,-1.0,29.0,24.0,-2.25830078125,8.30078125,-23.376462936401367,-0.3760986328125,-0.3433837890625,0.0301513671875
3.903,313,1362,1980,347,-1.0,29.0,24.0,2.13623046875,4.33349609375,-34.48486328125,-0.3760986328125,-0.3433837890625,0.0301513671875
3.941,310,574,1944,330,-1.0,29.0,24.0,11.901854515075684,3.051757574081421,-40.10009765625,-0.50341796875,0.0577392578125,-0.1602783203125
3.941,310,484,1959,323,-1.0,29.0,24.0,16.78466796875,2.746581792831421,-38.87939453125,-0.50341796875,0.0577392578125,-0.1602783203125
3.941,310,360,1820,304,-1.0,29.0,24.0,6.713866710662842,1.15966796875,-36.7431640625,-0.5267333984375,0.141357421875,-0.0921630859375
3.947,306,404,1838,321,-1.0,29.0,24.0,-12.145995140075684,0.6103515625,-35.400390625,-0.5584716796875,0.0933837890625,-0.0494384765625
3.955,310,411,1801,323,-1.0,29.0,24.0,-23.376462936401367,4.8828125,-30.212400436401367,-0.5584716796875,0.0933837890625,-0.0494384765625
3.963,310,409,1796,323,-1.0,29.0,24.0,-24.536130905151367,12.451170921325684,-20.446775436401367,-0.564453125,0.2489013671875,-0.0718994140625
3.977,310,385,1798,324,-1.0,29.0,24.0,-25.878904342651367,17.51708984375,-11.779784202575684,-0.603515625,0.2998046875,0.105224609375
3.985,310,404,1811,325,-1.0,29.0,24.0,-32.3486328125,15.808104515075684,-8.72802734375,-0.603515625,0.2998046875,0.105224609375
3.993,308,387,1838,324,-2.0,28.0,25.0,-35.2783203125,8.36181640625,-9.521484375,-0.63134765625,0.23291015625,0.200439453125
4.007,308,377,1874,323,-2.0,28.0,25.0,-26.184080123901367,0.3662109076976776,-10.681151390075684,-0.67333984375,0.2581787109375,0.17333984375
4.018,306,512,1874,324,-2.0,28.0,25.0,-9.70458984375,-4.57763671875,-10.192870140075684,-0.67333984375,0.2581787109375,0.17333984375
4.027,308,624,1892,330,-2.0,28.0,25.0,4.33349609375,-7.507323741912842,-7.629394054412842,-0.6771240234375,0.2366943359375,0.1241455078125
4.059,308,815,1969,330,-2.0,28.0,25.0,13.610838890075684,-9.765625,-2.990722417831421,-0.5953369140625,0.0523681640625,-0.0189208984375
4.059,298,917,2028,315,-2.0,28.0,25.0,21.606443405151367,-11.474608421325684,3.662109136581421,-0.5953369140625,0.0523681640625,-0.0189208984375
4.059,311,1419,2076,334,-2.0,28.0,25.0,28.015134811401367,-12.756346702575684,11.230467796325684,-0.54541015625,-0.0458984375,-0.0882568359375
4.068,313,2330,2137,352,-2.0,28.0,25.0,30.822751998901367,-12.756346702575684,18.4326171875,-0.643310546875,-0.0362548828125,-0.1802978515625
4.090,313,2948,2115,349,-2.0,28.0,25.0,31.677244186401367,-10.803221702575684,26.000974655151367,-0.643310546875,-0.0362548828125,-0.1802978515625
4.091,313,3147,2117,642,-2.0,28.0,25.0,32.2265625,-8.544921875,34.5458984375,-0.7994384765625,0.1512451171875,-0.2447509765625
4.098,315,3147,2141,1568,-3.0,24.0,27.0,21.606443405151367,-8.30078125,40.161128997802734,-0.7017822265625,0.358154296875,-0.09814453125
4.105,316,3147,2133,2204,-3.0,24.0,27.0,-6.774901866912842,-10.986327171325684,38.26904296875,-0.7017822265625,0.358154296875,-0.09814453125
4.117,315,3147,2190,2683,-3.0,24.0,27.0,-33.75244140625,-16.54052734375,30.151365280151367,-0.4310302734375,0.22216796875,0.1051025390625
4.129,321,3147,2340,3147,-3.0,24.0,27.0,-36.07177734375,-25.207517623901367,22.216794967651367,0.0213623046875,0.1080322265625,0.2471923828125
4.135,321,3147,2448,3147,-3.0,24.0,27.0,-13.916014671325684,-38.39111328125,17.76123046875,0.6839599609375,0.1090087890625,0.2149658203125
4.158,317,3147,2565,3147,-3.0,24.0,27.0,10.864256858825684,-56.762691497802734,9.8876953125,1.059326171875,0.234130859375,0.1143798828125
4.158,319,3147,2726,3147,-3.0,24.0,27.0,30.700681686401367,-76.416015625,-6.469726085662842,0.456298828125,0.4306640625,0.1119384765625
4.165,324,3147,2800,3147,-3.0,24.0,27.0,64.453125,-91.00341033935547,-23.254392623901367,-1.01806640625,0.5023193359375,0.0360107421875
4.173,322,3147,2863,3147,-3.0,24.0,27.0,103.82079315185547,-93.99413299560547,-27.099607467651367,-2.532958984375,0.2474365234375,-0.2213134765625
4.192,327,3147,2888,3147,-3.0,24.0,27.0,107.60497283935547,-79.52880859375,-17.578125,-3.4312744140625,-0.1488037109375,-0.0972900390625
4.195,321,3147,2766,3147,-5.0,24.0,25.0,71.59423828125,-51.879878997802734,1.5258787870407104,-3.8367919921875,-0.0521240234375,0.626953125
4.204,323,3147,2716,3147,-5.0,24.0,25.0,29.663084030151367,-18.49365234375,28.625486373901367,-3.280029296875,0.1202392578125,0.656494140625
4.218,321,3147,2635,3147,-5.0,24.0,25.0,-23.986814498901367,21.484373092651367,41.992183685302734,-1.697998046875,0.246337890625,0.175048828125
4.229,321,3147,2631,3147,-5.0,24.0,25.0,-75.927734375,64.39208984375,33.50830078125,-0.95849609375,0.675537109375,0.0562744140625
4.233,323,3147,2624,3147,-5.0,24.0,25.0,-76.171875,88.50096893310547,17.51708984375,-1.5115966796875,0.78271484375,-0.1494140625
4.247,322,3147,2619,3147,-5.0,24.0,25.0,-37.29248046875,80.62743377685547,2.50244140625,-2.167724609375,0.61474609375,-0.47216796875
4.257,323,3147,2539,3147,-5.0,24.0,25.0,-0.0610351525247097,55.297847747802734,-6.713866710662842,-2.330078125,0.600830078125,-0.6256103515625
4.268,323,3147,2477,3147,-5.0,24.0,25.0,14.221190452575684,27.587888717651367,-12.939452171325684,-2.060546875,0.6466064453125,-0.472900390625
4.277,318,3147,2375,3147,-5.0,24.0,25.0,6.958007335662842,5.554198741912842,-20.507810592651367,-1.695556640625,0.5113525390625,-0.2408447265625
4.295,318,3147,2333,3147,-6.0,24.0,31.0,-4.94384765625,-4.39453125,-27.770994186401367,-1.4306640625,0.3087158203125,-0.1131591796875
4.295,318,3147,2347,3147,-6.0,24.0,31.0,-12.817381858825684,-1.4648436307907104,-30.700681686401367,-1.2174072265625,0.2418212890625,-0.1024169921875
4.307,316,3147,2183,2001,-6.0,24.0,31.0,-18.12744140625,9.21630859375,-29.174802780151367,-0.9814453125,0.2384033203125,-0.068603515625
4.316,318,3147,2116,1243,-6.0,24.0,31.0,-22.460935592651367,18.98193359375,-27.099607467651367,-0.752685546875,0.1641845703125,0.057861328125
4.334,316,3147,2091,359,-6.0,24.0,31.0,-26.733396530151367,21.728513717651367,-27.282712936401367,-0.5462646484375,-0.0516357421875,0.2205810546875
4.337,315,1388,1994,346,-6.0,24.0,31.0,-26.611326217651367,19.287109375,-29.663084030151367,-0.3863525390625,-0.332763671875,0.2547607421875
4.345,313,588,2012,332,-6.0,24.0,31.0,-16.11328125,17.88330078125,-31.860349655151367,-0.3062744140625,-0.4324951171875,0.1575927734375
4.353,309,439,1955,324,-6.0,24.0,31.0,-4.94384765625,16.17431640625,-30.029294967651367,-0.239990234375,-0.355712890625,0.10986328125
4.367,310,455,1966,328,-6.0,24.0,31.0,-0.54931640625,12.023924827575684,-24.414060592651367,-0.2457275390625,-0.1641845703125,0.0682373046875
4.398,308,416,1927,324,-6.0,24.0,31.0,-1.2817381620407104,9.3994140625,-18.85986328125,-0.306884765625,0.06396484375,0.0155029296875
4.398,308,425,1895,324,-4.0,26.0,29.0,-11.474608421325684,10.009765625,-14.221190452575684,-0.3082275390625,0.1375732421875,-0.0010986328125
4.398,310,391,1854,324,-4.0,26.0,29.0,-24.291990280151367,14.038084983825684,-9.6435546875,-0.2989501953125,0.1009521484375,-0.0247802734375
4.405,310,409,1850,324,-4.0,26.0,29.0,-23.681638717651367,21.728513717651367,-1.3427733182907104,-0.3206787109375,0.149169921875,-0.070068359375
4.414,310,407,1860,324,-4.0,26.0,29.0,-12.573241233825684,29.296873092651367,10.070799827575684,-0.406494140625,0.3306884765625,-0.069091796875
4.427,310,586,1878,324,-4.0,26.0,29.0,-9.21630859375,29.479978561401367,16.54052734375,-0.5494384765625,0.47314453125,0.025634765625
4.436,313,648,1894,330,-4.0,26.0,29.0,-16.05224609375,20.324705123901367,14.160155296325684,-0.6961669921875,0.45751953125,0.1256103515625
4.443,309,778,1954,324,-4.0,26.0,29.0,-17.822265625,7.873534679412842,6.835937023162842,-0.8153076171875,0.387939453125,0.1326904296875
4.457,313,963,1983,332,-4.0,26.0,29.0,-7.995604991912842,-2.50244140625,0.7324218153953552,-0.8670654296875,0.358154296875,0.07958984375
4.471,310,1162,2061,338,-4.0,26.0,29.0,4.5166015625,-10.620116233825684,-1.8920897245407104,-0.8397216796875,0.311279296875,0.02294921875
4.473,314,1474,2114,344,-4.0,26.0,29.0,12.634276390075684,-16.845703125,-2.13623046875,-0.7626953125,0.2049560546875,-0.046875
4.500,310,1983,2162,345,-2.0,25.0,22.0,16.357421875,-20.324705123901367,-0.9765624403953552,-0.681884765625,0.01318359375,-0.141357421875
4.500,321,2565,2105,328,-2.0,25.0,22.0,17.08984375,-20.568845748901367,2.25830078125,-0.6505126953125,-0.1805419921875,-0.2216796875
4.503,315,3095,2167,354,-2.0,25.0,22.0,16.41845703125,-17.822265625,9.033203125,-0.702392578125,-0.1630859375,-0.2457275390625
4.517,308,3147,2139,1071,-2.0,25.0,22.0,14.831542015075684,-14.099120140075684,18.49365234375,-0.81396484375,0.0892333984375,-0.2012939453125
4.527,316,3147,2139,1627,-2.0,25.0,22.0,7.751464366912842,-12.207030296325684,25.268552780151367,-0.8616943359375,0.295654296875,-0.1197509765625
4.542,316,3147,2217,2158,-2.0,25.0,22.0,-8.23974609375,-12.145995140075684,26.062009811401367,-0.713623046875,0.2257080078125,-0.006591796875
4.547,317,3147,2287,2968,-2.0,25.0,22.0,-26.000974655151367,-13.000487327575684,25.512693405151367,-0.362548828125,0.0098876953125,0.1766357421875
4.555,316,3147,2386,3147,-2.0,25.0,22.0,-29.052732467651367,-16.90673828125,29.418943405151367,0.1883544921875,-0.1278076171875,0.3690185546875
4.563,322,3147,2492,3147,-2.0,25.0,22.0,-8.60595703125,-27.404783248901367,34.24072265625,0.7745361328125,-0.086181640625,0.4281005859375
4.577,323,3147,2677,3147,-2.0,25.0,22.0,21.179197311401367,-43.579097747802734,30.578611373901367,0.9178466796875,0.2667236328125,0.3348388671875
4.607,321,3147,2792,3147,-5.0,25.0,29.0,48.950191497802734,-61.218257904052734,12.573241233825684,0.2376708984375,0.7095947265625,0.1591796875
4.608,317,3147,2840,3147,-5.0,25.0,29.0,48.950191497802734,-61.218257904052734,12.573241233825684,-1.0831298828125,0.69775390625,-0.1279296875
4.608,324,3147,2911,3147,-5.0,25.0,29.0,93.62792205810547,-69.51904296875,-24.902341842651367,-2.4508056640625,0.1627197265625,-0.4847412109375
4.616,322,3147,2938,3147,-5.0,25.0,29.0,80.62743377685547,-49.011226654052734,-14.587401390075684,-3.35009765625,-0.2769775390625,-0.3123779296875
4.623,323,3147,2851,3147,-5.0,25.0,29.0,80.62743377685547,-49.011226654052734,-14.587401390075684,-3.81689453125,0.0108642578125,0.5419921875
4.641,321,3147,2723,3147,-5.0,25.0,29.0,7.629394054412842,1.2817381620407104,40.649410247802734,-3.183349609375,0.344482421875,0.6085205078125
4.645,318,3147,2717,3147,-5.0,25.0,29.0,-29.907224655151367,32.77587890625,45.898433685302734,-1.566162109375,0.5762939453125,0.071044921875
4.653,321,3147,2759,3147,-5.0,25.0,29.0,-29.907224655151367,32.77587890625,45.898433685302734,-0.91064453125,0.951171875,-0.1817626953125
4.667,321,3147,2717,3147,-5.0,25.0,29.0,-51.513668060302734,79.40673828125,-5.798339366912842,-1.46533203125,0.6954345703125,-0.4276123046875
4.676,323,3147,2658,3147,-5.0,25.0,29.0,-30.822751998901367,68.05419921875,-20.01953125,-2.0762939453125,0.1875,-0.485107421875
4.683,323,3147,2630,3147,-2.0,25.0,26.0,-30.822751998901367,68.05419921875,-20.01953125,-2.2213134765625,0.17578125,-0.3199462890625
4.704,322,3147,2517,3147,-2.0,25.0,26.0,-13.671874046325684,29.235837936401367,-5.676269054412842,-1.9537353515625,0.416015625,-0.065673828125
4.705,310,3147,2479,3147,-2.0,25.0,26.0,-19.287109375,20.751951217651367,-2.13623046875,-1.5802001953125,0.5013427734375,0.077392578125
4.718,317,3147,2478,3147,-2.0,25.0,26.0,-19.287109375,20.751951217651367,-2.13623046875,-1.3389892578125,0.3951416015625,0.06298828125
4.731,323,3147,2335,3147,-2.0,25.0,26.0,-20.629880905151367,28.869626998901367,-8.85009765625,-1.1981201171875,0.31396484375,-0.04736328125
4.747,318,3147,2326,3147,-2.0,25.0,26.0,-17.822265625,37.78076171875,-7.629394054412842,-1.06591796875,0.30517578125,-0.1473388671875
4.747,321,3147,2178,2760,-2.0,25.0,26.0,-17.822265625,37.78076171875,-7.629394054412842,-0.9073486328125,0.2379150390625,-0.13818359375
4.757,316,3147,2141,1292,-2.0,25.0,26.0,-24.047849655151367,42.724605560302734,-3.662109136581421,-0.6968994140625,0.0657958984375,-0.068603515625
4.765,316,3147,2139,495,-2.0,25.0,26.0,-23.254392623901367,33.203125,-10.375975608825684,-0.4471435546875,-0.2010498046875,-0.038330078125
4.775,315,2268,2089,348,-2.0,25.0,26.0,-23.254392623901367,33.203125,-10.375975608825684,-0.2901611328125,-0.296630859375,-0.108154296875
4.806,313,827,1974,338,-6.0,26.0,27.0,9.033203125,7.690429210662842,-33.26416015625,-0.2620849609375,-0.0897216796875,-0.2060546875
4.809,314,607,1954,330,-6.0,26.0,27.0,19.287109375,-2.3193359375,-40.283199310302734,-0.2967529296875,0.0919189453125,-0.1790771484375
4.809,313,539,1819,308,-6.0,26.0,27.0,19.287109375,-2.3193359375,-40.283199310302734,-0.3883056640625,0.0770263671875,-0.087646484375
4.817,308,384,1770,324,-6.0,26.0,27.0,2.624511480331421,-4.39453125,-43.334957122802734,-0.4893798828125,0.068359375,-0.052734375
4.832,308,385,1746,328,-6.0,26.0,27.0,2.624511480331421,-4.39453125,-43.334957122802734,-0.544677734375,0.1990966796875,-0.052490234375
4.835,310,375,1735,327,-6.0,26.0,27.0,-2.3193359375,5.432128429412842,-34.85107421875,-0.544677734375,0.1990966796875,-0.052490234375
4.847,313,346,1789,323,-6.0,26.0,27.0,-14.892577171325684,21.362302780151367,-6.286620616912842,-0.552734375,0.3265380859375,0.095703125
4.855,310,357,1824,324,-6.0,26.0,27.0,-14.892577171325684,21.362302780151367,-6.286620616912842,-0.5653076171875,0.1112060546875,0.2279052734375
4.863,312,348,1842,324,-6.0,26.0,27.0,-29.235837936401367,19.6533203125,1.4038084745407104,-0.5653076171875,0.1112060546875,0.2279052734375
4.877,310,417,1821,323,-2.0,28.0,26.0,-24.658201217651367,6.591796398162842,5.554198741912842,-0.656005859375,0.0184326171875,0.180419921875
4.885,313,531,1838,330,-2.0,28.0,26.0,-24.658201217651367,6.591796398162842,5.554198741912842,-0.6734619140625,0.188720703125,0.0897216796875
4.911,310,654,1869,332,-2.0,28.0,26.0,-3.540038824081421,1.2817381620407104,6.469726085662842,-0.6734619140625,0.188720703125,0.0897216796875
4.911,310,828,1912,328,-2.0,28.0,26.0,18.49365234375,-4.7607421875,6.774901866912842,-0.70458984375,0.2333984375,0.04638671875
4.916,310,1014,1952,334,-2.0,28.0,26.0,18.49365234375,-4.7607421875,6.774901866912842,-0.685546875,0.1702880859375,0.0072021484375
4.923,313,1260,1996,344,-2.0,28.0,26.0,28.991697311401367,-4.82177734375,10.009765625,-0.685546875,0.1702880859375,0.0072021484375
4.955,312,1908,2072,345,-2.0,28.0,26.0,40.710445404052734,-2.0751953125,18.6767578125,-0.746826171875,0.106201171875,-0.1336669921875
4.955,314,2407,2108,348,-2.0,28.0,26.0,40.710445404052734,-2.0751953125,18.6767578125,-0.8607177734375,0.1097412109375,-0.253173828125
4.956,318,3056,2087,356,-2.0,28.0,26.0,33.50830078125,0.1220703050494194,22.949216842651367,-0.8607177734375,0.1097412109375,-0.253173828125
4.967,316,3147,2093,1081,-2.0,28.0,26.0,0.2441406100988388,-2.44140625,34.423828125,-0.7464599609375,0.05615234375,-0.3675537109375
4.975,319,3147,2106,1704,-4.0,27.0,23.0,0.2441406100988388,-2.44140625,34.423828125,-0.6522216796875,0.1492919921875,-0.2254638671875
4.983,321,3147,2188,2298,-4.0,27.0,23.0,-19.10400390625,-7.141112804412842,40.771480560302734,-0.6522216796875,0.1492919921875,-0.2254638671875
5.014,317,3147,2268,3028,-4.0,27.0,23.0,-38.57421875,-19.1650390625,35.5224609375,-0.0606689453125,0.1612548828125,0.3023681640625
5.014,323,3147,2419,3147,-4.0,27.0,23.0,-38.57421875,-19.1650390625,35.5224609375,0.6673583984375,0.06201171875,0.4345703125
5.014,307,3147,2498,3147,-4.0,27.0,23.0,-28.442380905151367,-31.188962936401367,25.939939498901367,0.6673583984375,0.06201171875,0.4345703125
5.027,318,3147,2745,3147,-4.0,27.0,23.0,43.884273529052734,-70.98388671875,-6.408690929412842,0.8001708984375,0.626220703125,0.067138671875
5.038,318,3147,2859,3147,-4.0,27.0,23.0,43.884273529052734,-70.98388671875,-6.408690929412842,-0.5584716796875,0.8502197265625,-0.333251953125
5.059,321,3147,2927,3147,-4.0,27.0,23.0,92.46825408935547,-89.29442596435547,-30.334470748901367,-0.5584716796875,0.8502197265625,-0.333251953125
5.059,321,3147,2955,3147,-4.0,27.0,23.0,125.42723846435547,-92.40721893310547,-50.048824310302734,-3.493896484375,-0.3309326171875,-0.6204833984375
5.066,322,3147,2973,3147,-4.0,27.0,23.0,98.08348846435547,-80.32225799560547,-53.405757904052734,-3.493896484375,-0.3309326171875,-0.6204833984375
5.073,328,3147,2882,3147,-5.0,26.0,27.0,24.353025436401367,-66.0400390625,-29.724119186401367,-3.8189697265625,-0.453369140625,0.537841796875
5.087,324,3147,2874,3147,-5.0,26.0,27.0,-20.996091842651367,-46.874996185302734,15.502928733825684,-1.9781494140625,0.3106689453125,0.6552734375
5.095,324,3147,2887,3147,-5.0,26.0,27.0,-34.97314453125,-8.85009765625,46.325679779052734,-1.9781494140625,0.3106689453125,0.6552734375
5.115,327,3147,2908,3147,-5.0,26.0,27.0,-53.466793060302734,45.104976654052734,39.794921875,-0.9105224609375,0.81640625,0.268798828125
5.117,327,3147,2866,3147,-5.0,26.0,27.0,-50.292964935302734,85.14403533935547,13.732909202575684,-2.0294189453125,0.4569091796875,-0.602783203125
5.125,324,3147,2830,3147,-5.0,26.0,27.0,-20.385740280151367,85.93749237060547,-7.324218273162842,-2.0294189453125,0.4569091796875,-0.602783203125
5.133,323,3147,2750,3147,-5.0,26.0,27.0,2.807616949081421,58.959957122802734,-12.573241233825684,-2.330810546875,0.32666015625,-0.8040771484375
5.156,318,3147,2645,3147,-5.0,26.0,27.0,4.69970703125,28.198240280151367,-9.521484375,-1.7083740234375,0.4166259765625,-0.1285400390625
5.156,322,3147,2605,3147,-5.0,26.0,27.0,-7.629394054412842,8.60595703125,-9.1552734375,-1.7083740234375,0.4166259765625,-0.1285400390625
5.169,318,3147,2526,3147,-5.0,26.0,27.0,-16.6015625,3.662109136581421,-11.901854515075684,-1.4140625,0.3045654296875,0.072998046875
5.177,316,3147,2416,3147,-3.0,26.0,26.0,-18.1884765625,8.97216796875,-13.061522483825684,-0.9976806640625,0.2249755859375,-0.0673828125
5.185,323,3147,2337,2936,-3.0,26.0,26.0,-18.06640625,19.287109375,-9.27734375,-0.9976806640625,0.2249755859375,-0.0673828125
5.193,321,3147,2210,2421,-3.0,26.0,26.0,-20.629880905151367,29.724119186401367,-3.051757574081421,-0.7861328125,0.169189453125,-0.0751953125
5.220,313,3147,2083,732,-3.0,26.0,26.0,-24.780271530151367,34.3017578125,0.30517578125,-0.4205322265625,-0.1904296875,0.1258544921875
5.220,318,2633,2174,354,-3.0,26.0,26.0,-24.475095748901367,28.381345748901367,-2.44140625,-0.4205322265625,-0.1904296875,0.1258544921875
5.223,316,1761,2178,343,-3.0,26.0,26.0,-9.765625,15.502928733825684,-12.268065452575684,-0.310791015625,-0.34912109375,0.0882568359375
5.237,313,619,2052,333,-3.0,26.0,26.0,14.953612327575684,3.845214605331421,-23.559568405151367,-0.3311767578125,0.041259765625,-0.1102294921875
5.252,310,532,2018,332,-3.0,26.0,26.0,32.77587890625,-1.8310545682907104,-28.259275436401367,-0.3311767578125,0.041259765625,-0.1102294921875
5.253,313,551,1973,327,-3.0,26.0,26.0,27.770994186401367,-2.807616949081421,-27.709959030151367,-0.392578125,0.218017578125,-0.074951171875
5.267,308,387,1815,321,-1.0,28.0,24.0,1.7089842557907104,-0.0610351525247097,-25.756834030151367,-0.40380859375,0.1387939453125,-0.0302734375
5.282,315,420,1811,323,-1.0,28.0,24.0,-19.47021484375,8.23974609375,-18.4326171875,-0.4315185546875,0.0830078125,-0.040771484375
5.283,299,364,1806,324,-1.0,28.0,24.0,-21.240232467651367,19.287109375,-3.356933355331421,-0.5126953125,0.220703125,-0.0894775390625
5.297,310,371,1838,324,-1.0,28.0,24.0,-15.869139671325684,25.451658248901367,11.108397483825684,-0.598388671875,0.3851318359375,-0.08740234375
5.325,313,506,1861,327,-1.0,28.0,24.0,-18.9208984375,20.874021530151367,15.380858421325684,-0.65771484375,0.37060546875,0.0018310546875
5.325,313,578,1869,328,-1.0,28.0,24.0,-24.963376998901367,8.36181640625,10.559081077575684,-0.701904296875,0.2662353515625,0.092041015625
5.327,310,706,1895,326,-1.0,28.0,24.0,-21.057126998901367,-3.417968511581421,4.150390625,-0.756591796875,0.25537109375,0.10302734375
5.335,310,787,1908,331,-1.0,28.0,24.0,-9.58251953125,-9.46044921875,0.1220703050494194,-0.8172607421875,0.3304443359375,0.0626220703125
5.344,313,837,1954,331,-1.0,28.0,24.0,-1.8920897245407104,-11.413573265075684,-1.8920897245407104,-0.8465576171875,0.3419189453125,0.037841796875
5.358,315,936,2019,330,-1.0,28.0,24.0,-1.5869139432907104,-12.084959983825684,-1.8920897245407104,-0.8177490234375,0.2305908203125,0.0433349609375
5.365,313,1129,2053,334,-5.0,26.0,21.0,-2.25830078125,-11.840819358825684,0.9765624403953552,-0.7489013671875,0.0560302734375,0.0328369140625
5.373,316,1383,2093,344,-5.0,26.0,21.0,1.8920897245407104,-10.375975608825684,6.164550304412842,-0.6875,-0.0926513671875,-0.0186767578125
5.394,316,2080,2139,344,-5.0,26.0,21.0,11.413573265075684,-8.9111328125,12.817381858825684,-0.662353515625,-0.1734619140625,-0.0941162109375
5.395,316,2601,2104,346,-5.0,26.0,21.0,23.742673873901367,-8.056640625,21.057126998901367,-0.6820068359375,-0.1561279296875,-0.1666259765625
5.403,316,3147,2100,371,-5.0,26.0,21.0,33.26416015625,-6.042479991912842,31.005857467651367,-0.7032470703125,-0.042724609375,-0.235107421875
5.430,317,3147,2176,1428,-5.0,26.0,21.0,28.503416061401367,-1.3427733182907104,41.198726654052734,-0.7081298828125,0.1573486328125,-0.240478515625
5.430,304,3147,2168,1929,-5.0,26.0,21.0,2.44140625,3.295898199081421,47.973628997802734,-0.68603515625,0.3564453125,-0.1180419921875
5.434,317,3147,2178,2456,-5.0,26.0,21.0,-32.04345703125,2.563476324081421,47.363277435302734,-0.5377197265625,0.28857421875,0.05322265625
5.449,321,3147,2314,3147,-5.0,26.0,21.0,-50.598140716552734,-5.249022960662842,41.137691497802734,-0.1925048828125,0.05126953125,0.21826171875
5.461,324,3147,2456,3147,-5.0,26.0,21.0,-38.75732421875,-16.90673828125,35.58349609375,0.3924560546875,0.037841796875,0.3212890625
5.463,328,3147,2581,3147,-4.0,27.0,33.0,-10.253905296325684,-30.578611373901367,28.930662155151367,1.0059814453125,0.314697265625,0.2860107421875
5.477,322,3147,2662,3147,-4.0,27.0,33.0,15.502928733825684,-49.316402435302734,11.779784202575684,0.990966796875,0.6141357421875,0.14599609375
5.485,321,3147,2847,3147,-4.0,27.0,33.0,46.569820404052734,-71.4111328125,-15.319823265075684,0.049072265625,0.7796630859375,-0.1124267578125
5.493,324,3147,2949,3147,-4.0,27.0,33.0,91.30858612060547,-85.99852752685547,-36.07177734375,-1.4588623046875,0.7750244140625,-0.4053955078125
5.533,327,3147,2949,3147,-4.0,27.0,33.0,116.27196502685547,-87.52440643310547,-40.588375091552734,-2.902587890625,0.3133544921875,-0.4017333984375
5.535,331,3147,2880,3147,-4.0,27.0,33.0,93.44481658935547,-79.4677734375,-29.235837936401367,-3.7969970703125,-0.0789794921875,0.29345703125
5.535,323,3147,2807,3147,-4.0,27.0,33.0,51.269527435302734,-59.814449310302734,2.3193359375,-3.8770751953125,-0.189697265625,0.6290283203125
5.537,323,3147,2854,3147,-4.0,27.0,33.0,5.554198741912842,-26.428220748901367,31.127927780151367,-2.4307861328125,-0.122802734375,0.1158447265625
5.545,323,3147,2851,3147,-4.0,27.0,33.0,-56.335445404052734,16.9677734375,31.799314498901367,-0.8719482421875,0.361083984375,-0.0247802734375
5.561,324,3147,2818,3147,-4.0,27.0,33.0,-89.29442596435547,55.603023529052734,16.41845703125,-0.910400390625,0.6650390625,0.102294921875
5.567,324,3147,2780,3147,-3.0,28.0,22.0,-66.2841796875,69.15283203125,1.03759765625,-1.66943359375,0.479248046875,-0.07568359375
5.575,323,3147,2748,3147,-3.0,28.0,22.0,-28.686521530151367,59.997554779052734,-4.8828125,-2.2054443359375,0.3927001953125,-0.3070068359375
5.583,323,3147,2679,3147,-3.0,28.0,22.0,-6.958007335662842,43.029781341552734,-2.929687261581421,-2.177734375,0.5579833984375,-0.302490234375
5.597,321,3147,2586,3147,-3.0,28.0,22.0,-7.995604991912842,27.038572311401367,-3.234863042831421,-1.8094482421875,0.6058349609375,-0.1785888671875
5.605,321,3147,2552,3147,-3.0,28.0,22.0,-18.6767578125,18.37158203125,-7.141112804412842,-1.483642578125,0.4964599609375,-0.1099853515625
5.627,321,3147,2492,3147,-3.0,28.0,22.0,-26.428220748901367,18.310546875,-10.864256858825684,-1.3035888671875,0.32568359375,-0.08251953125
5.627,321,3147,2340,3147,-3.0,28.0,22.0,-27.770994186401367,23.376462936401367,-11.596678733825684,-1.143798828125,0.2239990234375,-0.098876953125
5.642,318,3147,2328,2864,-3.0,28.0,22.0,-24.047849655151367,30.212400436401367,-8.97216796875,-0.9429931640625,0.1846923828125,-0.0946044921875
5.644,317,3147,2258,2240,-3.0,28.0,22.0,-20.01953125,34.72900390625,-6.225585460662842,-0.76708984375,0.1182861328125,-0.0126953125
5.657,316,3147,2065,666,-1.0,26.0,20.0,-18.85986328125,33.26416015625,-7.141112804412842,-0.62109375,-0.0322265625,0.0924072265625
5.665,315,2445,2035,352,-1.0,26.0,20.0,-15.380858421325684,26.062009811401367,-13.305663108825684,-0.5181884765625,-0.2060546875,0.103271484375
5.673,314,1488,2087,351,-1.0,26.0,20.0,-1.5258787870407104,17.27294921875,-23.071287155151367,-0.4649658203125,-0.27294921875,0.0115966796875
5.687,314,499,1983,330,-1.0,26.0,20.0,15.319823265075684,8.544921875,-30.273435592651367,-0.4093017578125,-0.211669921875,-0.037109375
5.696,310,426,1974,327,-1.0,26.0,20.0,28.137205123901367,1.7700194120407104,-31.249998092651367,-0.41650390625,-0.010009765625,-0.0552978515625
5.703,310,360,1900,323,-1.0,26.0,20.0,31.799314498901367,-0.9765624403953552,-29.541013717651367,-0.4388427734375,0.16455078125,-0.0657958984375
5.734,305,357,1867,324,-1.0,26.0,20.0,17.7001953125,0.3662109076976776,-27.954099655151367,-0.3990478515625,0.17333984375,-0.06884765625
5.734,299,414,1806,328,-1.0,26.0,20.0,-1.5869139432907104,7.141112804412842,-22.766111373901367,-0.3641357421875,0.158935546875,-0.09521484375
5.734,310,480,1823,324,-1.0,26.0,20.0,-1.5869139432907104,7.141112804412842,-22.766111373901367,-0.3614501953125,0.2001953125,-0.105712890625
5.747,309,424,1828,324,-1.0,26.0,20.0,-11.474608421325684,24.475095748901367,-1.15966796875,-0.428955078125,0.28369140625,-0.0406494140625
5.759,310,413,1819,323,-2.0,26.0,24.0,-13.854979515075684,22.888181686401367,5.126952648162842,-0.5294189453125,0.338623046875,0.0760498046875
5.769,313,400,1826,324,-2.0,26.0,24.0,-13.854979515075684,22.888181686401367,5.126952648162842,-0.5806884765625,0.323486328125,0.1590576171875
5.777,313,519,1848,324,-2.0,26.0,24.0,-13.305663108825684,0.9155272841453552,3.784179449081421,-0.6060791015625,0.3037109375,0.1793212890625
5.785,309,644,1855,327,-2.0,26.0,24.0,-7.263183116912842,-5.615233898162842,2.25830078125,-0.6578369140625,0.3115234375,0.15966796875
5.793,310,827,1908,330,-2.0,26.0,24.0,-7.263183116912842,-5.615233898162842,2.25830078125,-0.713623046875,0.27978515625,0.1180419921875
5.807,313,1260,2014,334,-2.0,26.0,24.0,2.38037109375,-6.958007335662842,6.835937023162842,-0.7259521484375,0.182373046875,0.0654296875
5.817,313,1533,2054,346,-2.0,26.0,24.0,8.72802734375,-6.408690929412842,11.352538108825684,-0.692626953125,0.04296875,0.0091552734375
5.833,313,1989,2080,348,-2.0,26.0,24.0,8.72802734375,-6.408690929412842,11.352538108825684,-0.6849365234375,-0.1068115234375,-0.0654296875
5.837,313,3011,2068,349,-2.0,26.0,24.0,30.822751998901367,-4.57763671875,24.108884811401367,-0.774658203125,-0.1363525390625,-0.1744384765625
5.845,315,3147,2074,620,-2.0,26.0,24.0,43.884273529052734,-3.845214605331421,33.75244140625,-0.8878173828125,0.0379638671875,-0.2791748046875
5.853,314,3147,2131,1133,-1.0,26.0,31.0,43.884273529052734,-3.845214605331421,33.75244140625,-0.8951416015625,0.264892578125,-0.266357421875
5.871,317,3147,2172,2102,-1.0,26.0,31.0,9.82666015625,-3.906249761581421,43.212886810302734,-0.7894287109375,0.3897705078125,-0.146240234375
5.875,316,3147,2178,2514,-1.0,26.0,31.0,-27.221677780151367,-2.01416015625,37.2314453125,-0.6192626953125,0.3465576171875,-0.0443115234375
5.883,318,3147,2242,2981,-1.0,26.0,31.0,-27.221677780151367,-2.01416015625,37.2314453125,-0.2626953125,0.1019287109375,0.0762939453125
5.897,318,3147,2443,3147,-1.0,26.0,31.0,-66.71142578125,-8.48388671875,26.428220748901367,0.421630859375,-0.131103515625,0.2637939453125
5.905,318,3147,2532,3147,-1.0,26.0,31.0,-38.87939453125,-23.742673873901367,29.846189498901367,1.1793212890625,0.03076171875,0.3743896484375
5.913,321,3147,2627,3147,-1.0,26.0,31.0,-38.87939453125,-23.742673873901367,29.846189498901367,1.213134765625,0.6478271484375,0.2783203125
5.940,321,3147,2867,3147,-1.0,26.0,31.0,48.095699310302734,-75.3173828125,-21.606443405151367,0.0694580078125,1.0672607421875,0.0208740234375
5.943,322,3147,2929,3147,-1.0,26.0,31.0,104.85839080810547,-93.01757049560547,-59.570308685302734,-1.73828125,0.8785400390625,-0.496337890625
5.949,324,3147,2908,3147,-1.0,26.0,31.0,104.85839080810547,-93.01757049560547,-59.570308685302734,-3.404296875,0.25244140625,-0.829833984375
5.974,325,3147,2858,3147,-5.0,24.0,27.0,96.86278533935547,-73.8525390625,-41.503902435302734,-4.0,-0.205322265625,0.0494384765625
5.981,325,3147,2824,3147,-5.0,24.0,27.0,96.86278533935547,-73.8525390625,-41.503902435302734,-3.6806640625,-0.489990234375,0.699462890625
5.981,323,3147,2833,3147,-5.0,24.0,27.0,26.733396530151367,-59.570308685302734,4.8828125,-3.6806640625,-0.489990234375,0.699462890625
5.987,323,3147,2833,3147,-5.0,24.0,27.0,-75.98876953125,22.949216842651367,34.97314453125,-0.6317138671875,0.60107421875,0.4417724609375
5.995,324,3147,2795,3147,-5.0,24.0,27.0,-75.98876953125,22.949216842651367,34.97314453125,-1.11376953125,0.6492919921875,0.354736328125
6.004,327,3147,2759,3147,-5.0,24.0,27.0,-86.66991424560547,73.30322265625,14.587401390075684,-1.11376953125,0.6492919921875,0.354736328125
6.017,321,3147,2703,3147,-5.0,24.0,27.0,-20.446775436401367,78.91845703125,4.0283203125,-2.3192138671875,0.3419189453125,-0.4967041015625
6.054,324,3147,2608,3147,-5.0,24.0,27.0,-20.446775436401367,78.91845703125,4.0283203125,-2.1356201171875,0.6119384765625,-0.5089111328125
6.054,324,3147,2573,3147,-5.0,24.0,27.0,-7.995604991912842,61.157222747802734,12.573241233825684,-2.1356201171875,0.6119384765625,-0.5089111328125
6.054,321,3147,2510,3147,-5.0,24.0,27.0,-26.428220748901367,33.447265625,1.8310545682907104,-1.4468994140625,0.5098876953125,-0.123291015625
6.055,306,3147,2458,3147,-5.0,25.0,29.0,-26.428220748901367,33.447265625,1.8310545682907104,-1.2755126953125,0.396484375,-0.165771484375
6.145,316,3147,2360,3147,-5.0,25.0,29.0,-23.193357467651367,27.038572311401367,-6.469726085662842,-1.2755126953125,0.396484375,-0.165771484375
6.147,321,3147,2233,2669,-5.0,25.0,29.0,-7.995604991912842,24.353025436401367,-9.58251953125,-0.800048828125,0.3338623046875,-0.2459716796875
6.148,316,3147,2122,1861,-5.0,25.0,29.0,-7.995604991912842,24.353025436401367,-9.58251953125,-0.5147705078125,0.1815185546875,-0.0771484375
6.148,316,3147,2074,932,-5.0,25.0,29.0,-11.230467796325684,23.681638717651367,-10.498045921325684,-0.5147705078125,0.1815185546875,-0.0771484375
6.148,313,2563,2066,330,-5.0,25.0,29.0,-18.49365234375,8.11767578125,-23.437498092651367,-0.2139892578125,-0.4508056640625,0.1146240234375
6.148,314,1792,2060,344,-5.0,25.0,29.0,-18.49365234375,8.11767578125,-23.437498092651367,-0.2864990234375,-0.4361572265625,-0.021484375
6.148,312,1050,2041,344,-5.0,25.0,29.0,0.3662109076976776,0.7934569716453552,-28.930662155151367,-0.2864990234375,-0.4361572265625,-0.021484375
6.148,310,548,1978,332,-5.0,25.0,29.0,23.254392623901367,-0.7324218153953552,-22.827146530151367,-0.4588623046875,0.16943359375,-0.0391845703125
6.164,300,532,1868,308,-5.0,25.0,29.0,23.254392623901367,-0.7324218153953552,-22.827146530151367,-0.51220703125,0.10986328125,0.0562744140625
6.164,309,509,1855,327,-4.0,28.0,27.0,3.356933355331421,-0.30517578125,-23.559568405151367,-0.51220703125,0.10986328125,0.0562744140625
6.214,308,391,1824,334,-4.0,28.0,27.0,-6.530761241912842,16.357421875,-11.230467796325684,-0.576416015625,0.24462890625,-0.0439453125
6.214,309,388,1855,328,-4.0,28.0,27.0,-1.3427733182907104,24.108884811401367,2.01416015625,-0.5794677734375,0.4031982421875,-0.0697021484375
6.214,310,619,1874,313,-4.0,28.0,27.0,-10.620116233825684,23.559568405151367,9.27734375,-0.6153564453125,0.2532958984375,0.124267578125
6.214,310,687,1877,330,-4.0,28.0,27.0,-25.207517623901367,16.29638671875,9.09423828125,-0.6153564453125,0.2532958984375,0.124267578125
6.214,299,787,1838,334,-4.0,28.0,27.0,-27.404783248901367,7.507323741912842,5.798339366912842,-0.66455078125,0.2462158203125,0.11669921875
6.244,313,792,1943,332,-4.0,28.0,27.0,-18.5546875,0.6103515625,2.563476324081421,-0.74853515625,0.3492431640625,0.01708984375
6.245,313,907,2005,336,-4.0,28.0,27.0,-12.268065452575684,-4.0283203125,-0.6713866591453552,-0.74853515625,0.3492431640625,0.01708984375
6.245,307,1067,2024,306,-4.0,28.0,27.0,-11.230467796325684,-6.530761241912842,-3.295898199081421,-0.78564453125,0.278076171875,0.011962890625
6.253,313,1255,2050,344,-3.0,29.0,22.0,-7.995604991912842,-7.019042491912842,-2.807616949081421,-0.7822265625,0.155029296875,-0.00537109375
6.266,313,1714,2113,338,-3.0,29.0,22.0,-1.7089842557907104,-5.737304210662842,0.8544921278953552,-0.77587890625,-0.059814453125,-0.0894775390625
6.288,313,2122,2113,348,-3.0,29.0,22.0,3.723144292831421,-2.746581792831421,6.591796398162842,-0.77587890625,-0.059814453125,-0.0894775390625
6.295,316,2584,2078,338,-3.0,29.0,22.0,5.981444835662842,1.6479490995407104,14.343260765075684,-0.8499755859375,-0.0350341796875,-0.1444091796875
6.296,316,3147,2030,714,-3.0,29.0,22.0,4.0283203125,6.530761241912842,23.681638717651367,-0.939208984375,0.056640625,-0.179931640625
6.305,316,3147,2100,1199,-3.0,29.0,22.0,-1.7700194120407104,9.27734375,32.71484375,-0.9384765625,0.1011962890625,-0.180419921875
6.312,316,3147,2139,1727,-3.0,29.0,22.0,-8.72802734375,7.324218273162842,40.832515716552734,-0.7921142578125,0.1046142578125,-0.1478271484375
6.358,319,3147,2172,2668,-3.0,29.0,22.0,-16.845703125,1.3427733182907104,45.166011810302734,-0.5579833984375,0.154541015625,-0.0374755859375
6.358,300,3147,2281,3147,-3.0,29.0,22.0,-25.146482467651367,-6.347655773162842,40.283199310302734,-0.1610107421875,0.1878662109375,0.114013671875
6.363,318,3147,2359,3147,-4.0,26.0,25.0,-26.062009811401367,-15.808104515075684,27.099607467651367,0.5408935546875,0.210693359375,0.2257080078125
6.363,321,3147,2530,3147,-4.0,26.0,25.0,-14.709471702575684,-31.005857467651367,11.840819358825684,1.2493896484375,0.34716796875,0.20751953125
6.364,318,3147,2581,3147,-4.0,26.0,25.0,4.45556640625,-54.687496185302734,-3.662109136581421,1.263916015625,0.5556640625,0.109619140625
6.391,318,3147,2721,3147,-4.0,26.0,25.0,35.15625,-82.39745330810547,-22.277830123901367,0.2265625,0.58837890625,0.03125
6.392,323,3147,2932,3147,-4.0,26.0,25.0,94.66551971435547,-97.71727752685547,-34.36279296875,-1.3839111328125,0.7261962890625,-0.2896728515625
6.394,321,3147,2996,3147,-4.0,26.0,25.0,142.51708984375,-90.69823455810547,-32.16552734375,-2.9237060546875,0.628173828125,-0.490478515625
6.408,321,3147,3027,3147,-4.0,26.0,25.0,115.41747283935547,-74.462890625,-26.611326217651367,-3.73046875,-0.0863037109375,-0.026611328125
6.416,317,3147,2877,3147,-4.0,26.0,25.0,46.142574310302734,-56.884761810302734,-15.563963890075684,-3.851806640625,-0.3409423828125,0.5687255859375
6.424,325,3147,2887,3147,-4.0,26.0,25.0,-2.50244140625,-30.639646530151367,7.873534679412842,-3.1807861328125,-0.1256103515625,0.4725341796875
6.447,323,3147,2898,3147,-4.0,26.0,25.0,-40.649410247802734,6.042479991912842,22.644041061401367,-1.732177734375,0.1640625,0.15625
6.448,324,3147,2901,3147,-2.0,27.0,28.0,-76.35498046875,46.142574310302734,20.263669967651367,-1.09619140625,0.5078125,0.161376953125
6.454,324,3147,2866,3147,-2.0,27.0,28.0,-75.01220703125,72.8759765625,13.000487327575684,-1.5799560546875,0.564697265625,0.023193359375
6.463,322,3147,2837,3147,-2.0,27.0,28.0,-42.907711029052734,74.15771484375,8.056640625,-2.0999755859375,0.5340576171875,-0.2982177734375
6.476,321,3147,2698,3147,-2.0,27.0,28.0,-12.512206077575684,57.800289154052734,7.324218273162842,-2.166748046875,0.656005859375,-0.49951171875
6.484,318,3147,2616,3147,-2.0,27.0,28.0,2.685546636581421,35.15625,3.417968511581421,-1.9058837890625,0.660400390625,-0.4642333984375
6.492,318,3147,2578,3147,-2.0,27.0,28.0,6.652831554412842,13.854979515075684,-5.859374523162842,-1.62890625,0.457275390625,-0.3345947265625
6.506,318,3147,2435,3147,-2.0,27.0,28.0,9.765625,-0.30517578125,-14.038084983825684,-1.44580078125,0.31640625,-0.252685546875
6.521,316,3147,2335,3147,-2.0,27.0,28.0,12.512206077575684,-5.432128429412842,-16.6015625,-1.267822265625,0.3375244140625,-0.2535400390625
6.522,316,3147,2296,2825,-2.0,27.0,28.0,10.070799827575684,-2.746581792831421,-14.648436546325684,-1.021240234375,0.3868408203125,-0.2283935546875
6.549,309,3147,2137,1386,-2.0,27.0,28.0,1.8920897245407104,2.990722417831421,-13.366698265075684,-0.7490234375,0.288818359375,-0.08935546875
6.549,310,3147,2047,359,-7.0,30.0,25.0,-9.82666015625,6.286620616912842,-15.930174827575684,-0.4891357421875,-0.0137939453125,0.12060546875
6.553,312,2273,2100,347,-7.0,30.0,25.0,-17.51708984375,6.347655773162842,-20.996091842651367,-0.3023681640625,-0.4007568359375,0.2427978515625
6.566,310,694,2024,331,-7.0,30.0,25.0,-10.803221702575684,6.774901866912842,-24.719236373901367,-0.2509765625,-0.5953369140625,0.2081298828125
6.574,308,434,1989,333,-7.0,30.0,25.0,7.080077648162842,7.873534679412842,-23.254392623901367,-0.3211669921875,-0.3453369140625,0.1021728515625
6.587,308,424,1927,323,-7.0,30.0,25.0,19.4091796875,6.164550304412842,-20.080564498901367,-0.4306640625,0.076904296875,0.045654296875
6.602,308,388,1850,324,-7.0,30.0,25.0,10.375975608825684,1.8310545682907104,-21.728513717651367,-0.4903564453125,0.2076416015625,0.0816650390625
6.604,308,384,1766,326,-7.0,30.0,25.0,-10.375975608825684,1.5258787870407104,-22.766111373901367,-0.48193359375,0.1541748046875,0.0638427734375
6.612,308,363,1770,323,-7.0,30.0,25.0,-19.10400390625,10.131834983825684,-15.380858421325684,-0.4195556640625,0.1395263671875,-0.053466796875
6.626,313,390,1775,323,-7.0,30.0,25.0,-14.038084983825684,23.742673873901367,-2.50244140625,-0.38818359375,0.2322998046875,-0.1492919921875
6.650,310,398,1787,324,-7.0,30.0,25.0,-10.070799827575684,31.921384811401367,7.995604991912842,-0.442138671875,0.3526611328125,-0.1015625
6.651,312,387,1785,323,-4.0,27.0,26.0,-15.441893577575684,27.282712936401367,10.620116233825684,-0.5433349609375,0.35302734375,0.03515625
6.656,313,385,1837,323,-4.0,27.0,26.0,-17.51708984375,13.549803733825684,5.065917491912842,-0.6361083984375,0.3203125,0.1204833984375
6.664,313,390,1855,323,-4.0,27.0,26.0,-5.737304210662842,0.0,-2.929687261581421,-0.686279296875,0.3890380859375,0.1353759765625
6.675,312,372,1863,321,-4.0,27.0,26.0,10.559081077575684,-9.033203125,-7.019042491912842,-0.681884765625,0.4805908203125,0.1240234375
6.752,310,473,1877,323,-4.0,27.0,26.0,19.47021484375,-14.160155296325684,-6.530761241912842,-0.62451171875,0.4588623046875,0.103271484375
6.752,310,806,1941,324,-4.0,27.0,26.0,18.85986328125,-16.7236328125,-3.906249761581421,-0.53271484375,0.2900390625,0.08154296875
6.752,313,1091,1954,315,-4.0,27.0,26.0,13.244627952575684,-17.333984375,0.0,-0.4481201171875,0.0042724609375,0.0546875
6.752,314,2070,2100,344,-4.0,27.0,26.0,10.070799827575684,-15.014647483825684,5.920409679412842,-0.421142578125,-0.2740478515625,0.0078125
6.752,315,2867,2156,352,-4.0,27.0,26.0,17.7001953125,-8.60595703125,17.4560546875,-0.5308837890625,-0.357177734375,-0.0772705078125
6.752,315,3147,2113,702,-4.0,27.0,26.0,34.48486328125,1.7700194120407104,37.29248046875,-0.7711181640625,-0.1243896484375,-0.2403564453125
6.752,313,3147,2172,1768,-4.0,29.0,25.0,33.203125,11.535643577575684,57.373043060302734,-0.899658203125,0.243896484375,-0.3431396484375
6.758,316,3147,2167,2563,-4.0,29.0,25.0,-12.512206077575684,11.962889671325684,64.51416015625,-0.689697265625,0.37255859375,-0.1202392578125
6.767,318,3147,2284,3090,-4.0,29.0,25.0,-12.512206077575684,11.962889671325684,64.51416015625,-0.1243896484375,0.207275390625,0.2867431640625
6.779,318,3147,2473,3147,-4.0,29.0,25.0,-79.52880859375,-7.324218273162842,49.804683685302734,0.590576171875,0.0531005859375,0.515869140625
6.792,321,3147,2569,3147,-4.0,29.0,25.0,-50.842281341552734,-15.319823265075684,41.992183685302734,1.1121826171875,0.1566162109375,0.487548828125
6.793,319,3147,2651,3147,-4.0,29.0,25.0,-50.842281341552734,-15.319823265075684,41.992183685302734,0.9642333984375,0.6160888671875,0.2506103515625
6.813,321,3147,2902,3147,-4.0,29.0,25.0,22.888181686401367,-45.410152435302734,-11.047362327575684,-0.23828125,0.9700927734375,0.0147705078125
6.814,323,3147,2946,3147,-4.0,29.0,25.0,78.91845703125,-62.316890716552734,-40.161128997802734,-2.0020751953125,0.50830078125,-0.5072021484375
6.822,328,3147,2968,3147,-4.0,29.0,25.0,78.91845703125,-62.316890716552734,-40.161128997802734,-3.436279296875,-0.103271484375,-1.003662109375
6.836,318,3147,2919,3147,-5.0,25.0,31.0,107.17772674560547,-50.231929779052734,-16.90673828125,-4.0,0.022216796875,-0.2249755859375
6.864,323,3147,2876,3147,-5.0,25.0,31.0,32.04345703125,-42.602535247802734,24.536130905151367,-3.7432861328125,0.0665283203125,0.471435546875
6.864,322,3147,2851,3147,-5.0,25.0,31.0,32.04345703125,-42.602535247802734,24.536130905151367,-2.0029296875,0.1671142578125,0.3486328125
6.866,321,3147,2837,3147,-5.0,25.0,31.0,-91.24755096435547,31.066892623901367,46.508785247802734,-0.5972900390625,0.6402587890625,0.35205078125
6.874,321,3147,2813,3147,-5.0,25.0,31.0,-89.47753143310547,78.9794921875,26.611326217651367,-0.912353515625,0.7674560546875,0.2122802734375
6.882,322,3147,2820,3147,-5.0,25.0,31.0,-89.47753143310547,78.9794921875,26.611326217651367,-1.7587890625,0.553955078125,-0.1363525390625
6.896,318,3147,2760,3147,-5.0,25.0,31.0,-18.5546875,75.5615234375,1.9531248807907104,-2.1837158203125,0.4578857421875,-0.4708251953125
6.904,318,3147,2710,3147,-5.0,25.0,31.0,-3.295898199081421,49.804683685302734,3.234863042831421,-2.0626220703125,0.580810546875,-0.538330078125
6.919,319,3147,2619,3147,-5.0,25.0,31.0,-3.295898199081421,49.804683685302734,3.234863042831421,-1.7322998046875,0.587890625,-0.3829345703125
6.926,321,3147,2504,3147,-5.0,25.0,31.0,-2.38037109375,11.535643577575684,-5.859374523162842,-1.5067138671875,0.4781494140625,-0.2720947265625
6.934,318,3147,2432,3147,-3.0,27.0,27.0,-1.5869139432907104,4.150390625,-12.268065452575684,-1.3829345703125,0.356201171875,-0.2330322265625
6.977,314,3147,2359,3147,-3.0,27.0,27.0,-1.5869139432907104,4.150390625,-12.268065452575684,-1.22900390625,0.3489990234375,-0.2198486328125
6.978,316,3147,2275,2833,-3.0,27.0,27.0,2.13623046875,4.82177734375,-11.474608421325684,-0.987060546875,0.4241943359375,-0.185546875
6.978,315,3147,2202,2039,-3.0,27.0,27.0,2.44140625,8.6669921875,-10.803221702575684,-0.724853515625,0.365478515625,-0.0841064453125
6.978,316,3147,2156,1275,-3.0,27.0,27.0,2.44140625,8.6669921875,-10.803221702575684,-0.724853515625,0.365478515625,-0.0841064453125
7.006,313,3130,2142,356,-3.0,27.0,27.0,-5.187987804412842,8.30078125,-25.329587936401367,-0.301025390625,-0.3524169921875,0.1260986328125
7.006,299,2005,2035,348,-3.0,27.0,27.0,-5.187987804412842,8.30078125,-25.329587936401367,-0.314453125,-0.464599609375,0.0396728515625
7.007,310,1239,1997,346,-3.0,27.0,27.0,0.6103515625,6.958007335662842,-31.433103561401367,-0.314453125,-0.464599609375,0.0396728515625
7.026,307,561,1968,324,-3.0,27.0,27.0,15.014647483825684,-1.8310545682907104,-29.357908248901367,-0.37744140625,0.1888427734375,-0.0316162109375
7.026,309,453,1908,323,-3.0,27.0,27.0,15.014647483825684,-1.8310545682907104,-29.357908248901367,-0.4071044921875,0.123046875,0.0677490234375
7.033,308,376,1849,324,-2.0,27.0,25.0,-9.21630859375,-11.474608421325684,-33.38623046875,-0.4071044921875,0.123046875,0.0677490234375
7.060,306,414,1824,327,-2.0,27.0,25.0,-15.563963890075684,-0.30517578125,-21.240232467651367,-0.460693359375,0.1708984375,-0.064697265625
7.060,308,434,1786,324,-2.0,27.0,25.0,-15.563963890075684,-0.30517578125,-21.240232467651367,-0.4534912109375,0.35888671875,-0.1304931640625
7.062,308,402,1800,324,-2.0,27.0,25.0,3.112792730331421,13.000487327575684,-5.310058116912842,-0.4534912109375,0.35888671875,-0.1304931640625
7.076,310,430,1846,324,-2.0,27.0,25.0,-9.3994140625,15.563963890075684,4.33349609375,-0.598388671875,0.3453369140625,0.1468505859375
7.086,310,572,1855,323,-2.0,27.0,25.0,-9.3994140625,15.563963890075684,4.33349609375,-0.688720703125,0.235107421875,0.22021484375
7.100,310,630,1865,323,-2.0,27.0,25.0,-22.033689498901367,7.080077648162842,1.03759765625,-0.688720703125,0.235107421875,0.22021484375
7.106,310,744,1894,327,-2.0,27.0,25.0,-0.7934569716453552,-5.310058116912842,-1.2817381620407104,-0.753173828125,0.2783203125,0.071533203125
7.114,310,834,1899,329,-2.0,27.0,25.0,-0.7934569716453552,-5.310058116912842,-1.2817381620407104,-0.7291259765625,0.2470703125,0.0137939453125
7.123,313,996,1908,328,-2.0,27.0,25.0,10.437010765075684,-8.6669921875,0.30517578125,-0.7291259765625,0.2470703125,0.0137939453125
7.136,308,1380,1978,336,-2.0,28.0,26.0,15.624999046325684,-8.60595703125,9.82666015625,-0.6195068359375,0.0311279296875,-0.0045166015625
7.145,315,1773,2050,346,-2.0,28.0,26.0,15.624999046325684,-8.60595703125,9.82666015625,-0.6282958984375,-0.0242919921875,-0.01611328125
7.155,315,2317,2087,351,-2.0,28.0,26.0,17.63916015625,-4.2724609375,17.15087890625,-0.6282958984375,-0.0242919921875,-0.01611328125
7.167,315,3147,2093,356,-2.0,28.0,26.0,20.568845748901367,9.8876953125,37.4755859375,-0.88818359375,0.097900390625,-0.11083984375
7.174,316,3147,2128,894,-2.0,28.0,26.0,20.568845748901367,9.8876953125,37.4755859375,-0.86767578125,0.1287841796875,-0.13232421875
7.182,315,3147,2178,1534,-2.0,28.0,26.0,10.070799827575684,17.7001953125,49.133296966552734,-0.86767578125,0.1287841796875,-0.13232421875
7.202,319,3147,2320,2560,-2.0,28.0,26.0,-15.441893577575684,23.620603561401367,57.861324310302734,-0.343994140625,0.1390380859375,0.1016845703125
7.204,318,3147,2392,3112,-2.0,28.0,26.0,-35.21728515625,23.254392623901367,60.119625091552734,-0.343994140625,0.1390380859375,0.1016845703125
7.212,318,3147,2424,3147,-2.0,28.0,26.0,-29.968259811401367,12.268065452575684,53.894039154052734,0.3116455078125,0.076416015625,0.1849365234375
7.227,318,3147,2580,3147,-3.0,27.0,29.0,-7.812499523162842,-11.291502952575684,39.9169921875,1.4716796875,0.5914306640625,0.02685546875
7.241,319,3147,2653,3147,-3.0,27.0,29.0,21.423337936401367,-45.410152435302734,14.465331077575684,1.4716796875,0.5914306640625,0.02685546875
7.243,321,3147,2760,3147,-3.0,27.0,29.0,45.898433685302734,-84.96092987060547,-27.954099655151367,0.64697265625,1.02490234375,-0.2615966796875
7.265,318,3147,2966,3147,-3.0,27.0,29.0,65.61279296875,-118.04198455810547,-69.091796875,-2.6644287109375,0.683349609375,-0.9447021484375
7.266,324,3147,3008,3147,-3.0,27.0,29.0,106.07909393310547,-120.05614471435547,-75.5615234375,-2.6644287109375,0.683349609375,-0.9447021484375
7.272,324,3147,3040,3147,-3.0,27.0,29.0,110.10741424560547,-98.81591033935547,-52.673336029052734,-3.7685546875,0.0889892578125,-0.4791259765625
7.286,322,3147,2833,3147,-3.0,27.0,29.0,39.55078125,-85.20507049560547,-20.385740280151367,-3.3111572265625,-0.423095703125,1.2528076171875
7.294,321,3147,2869,3147,-3.0,27.0,29.0,-14.404295921325684,-65.673828125,19.95849609375,-3.3111572265625,-0.423095703125,1.2528076171875
7.311,318,3147,2861,3147,-3.0,27.0,29.0,-34.11865234375,-17.4560546875,41.625972747802734,-1.692626953125,0.096923828125,0.7073974609375
7.317,321,3147,2821,3147,-3.0,27.0,29.0,-55.175777435302734,47.180171966552734,32.28759765625,-1.37646484375,0.662109375,-0.008056640625
7.324,322,3147,2781,3147,-4.0,26.0,29.0,-53.527828216552734,92.59032440185547,14.526366233825684,-1.37646484375,0.662109375,-0.008056640625
7.332,323,3147,2769,3147,-4.0,26.0,29.0,-28.015134811401367,95.64208221435547,3.662109136581421,-2.0311279296875,0.556884765625,-0.4468994140625
7.346,316,3147,2633,3147,-4.0,26.0,29.0,-8.544921875,71.96044921875,4.57763671875,-1.937744140625,0.6448974609375,-0.504638671875
7.367,317,3147,2590,3147,-4.0,26.0,29.0,-7.995604991912842,46.997066497802734,8.1787109375,-1.937744140625,0.6448974609375,-0.504638671875
7.367,318,3147,2527,3147,-4.0,26.0,29.0,-17.88330078125,30.090330123901367,5.676269054412842,-1.645263671875,0.517822265625,-0.2305908203125
7.377,318,3147,2415,3147,-4.0,26.0,29.0,-21.850584030151367,20.202634811401367,0.0610351525247097,-1.2940673828125,0.3900146484375,-0.101806640625
7.384,316,3147,2337,3147,-4.0,26.0,29.0,-15.869139671325684,14.831542015075684,-3.540038824081421,-1.2940673828125,0.3900146484375,-0.101806640625
7.392,315,3147,2280,3044,-4.0,26.0,29.0,-6.164550304412842,15.197752952575684,-3.723144292831421,-1.06103515625,0.468994140625,-0.1778564453125
7.407,315,3147,2233,1544,-4.0,26.0,29.0,-0.7934569716453552,19.6533203125,-3.967284917831421,-0.5902099609375,0.1783447265625,-0.055908203125
7.415,316,3147,2180,739,-4.0,26.0,29.0,-4.2724609375,22.583005905151367,-8.97216796875,-0.5902099609375,0.1783447265625,-0.055908203125
7.422,313,2902,2184,359,-3.0,28.0,22.0,-13.732909202575684,19.775390625,-19.775390625,-0.374267578125,-0.26416015625,0.05810546875
7.436,313,1022,2074,336,-3.0,28.0,22.0,-15.502928733825684,14.099120140075684,-30.273435592651367,-0.2708740234375,-0.557861328125,0.0260009765625
7.452,308,531,2023,334,-3.0,28.0,22.0,-1.2817381620407104,10.620116233825684,-33.50830078125,-0.302978515625,-0.3302001953125,-0.08642578125
7.470,293,378,1929,324,-3.0,28.0,22.0,6.103515148162842,4.82177734375,-33.38623046875,-0.3580322265625,0.0660400390625,-0.0614013671875
7.470,304,418,1798,325,-3.0,28.0,22.0,-10.986327171325684,-3.845214605331421,-36.80419921875,-0.4256591796875,0.1439208984375,0.0634765625
7.474,308,444,1739,323,-3.0,28.0,22.0,-28.747556686401367,-4.638671875,-37.04833984375,-0.494140625,0.12646484375,0.08447265625
7.482,308,416,1719,321,-3.0,28.0,22.0,-23.681638717651367,6.469726085662842,-25.573728561401367,-0.465576171875,0.219482421875,-0.0196533203125
7.499,308,400,1761,323,-3.0,28.0,22.0,-7.019042491912842,21.362302780151367,-9.82666015625,-0.4033203125,0.3480224609375,-0.1102294921875
7.510,308,416,1769,323,-3.0,28.0,22.0,-0.4272460639476776,28.686521530151367,-0.1831054538488388,-0.4105224609375,0.4041748046875,-0.067626953125
7.512,308,423,1798,323,-3.0,28.0,22.0,-9.3994140625,22.888181686401367,2.38037109375,-0.47119140625,0.3197021484375,0.08447265625
7.526,309,369,1816,323,-5.0,26.0,26.0,-18.49365234375,9.3994140625,0.9765624403953552,-0.539306640625,0.147216796875,0.2137451171875
7.535,310,401,1840,324,-5.0,26.0,26.0,-10.192870140075684,-1.15966796875,-0.4882812201976776,-0.59814453125,0.084716796875,0.2203369140625
7.542,310,591,1850,328,-5.0,26.0,26.0,13.244627952575684,-4.39453125,1.5258787870407104,-0.644287109375,0.2001953125,0.1358642578125
7.574,311,865,1929,332,-5.0,26.0,26.0,33.8134765625,-3.845214605331421,6.469726085662842,-0.6785888671875,0.3345947265625,0.0458984375
7.574,297,1129,1970,332,-5.0,26.0,26.0,41.870113372802734,-4.21142578125,11.474608421325684,-0.681640625,0.357666015625,-0.0068359375
7.574,310,1359,2039,345,-5.0,26.0,26.0,38.4521484375,-6.347655773162842,15.014647483825684,-0.64111328125,0.2589111328125,-0.0296630859375
7.586,314,2258,2117,342,-5.0,26.0,26.0,27.526853561401367,-7.080077648162842,17.63916015625,-0.6263427734375,0.130859375,-0.047119140625
7.597,314,2842,2142,353,-5.0,26.0,26.0,15.930174827575684,-3.417968511581421,22.033689498901367,-0.7352294921875,0.1058349609375,-0.0919189453125
7.602,313,3147,2131,531,-5.0,26.0,26.0,6.835937023162842,3.540038824081421,29.113767623901367,-0.919921875,0.1778564453125,-0.1922607421875
7.616,310,3147,2207,1383,-7.0,28.0,25.0,-7.629394054412842,8.85009765625,35.70556640625,-0.9814453125,0.2012939453125,-0.26708984375
7.624,315,3147,2217,1840,-7.0,28.0,25.0,-31.494138717651367,9.27734375,39.73388671875,-0.8616943359375,0.205078125,-0.1673583984375
7.632,316,3147,2170,2312,-7.0,28.0,25.0,-49.438472747802734,6.347655773162842,40.283199310302734,-0.700439453125,0.226806640625,0.01513671875
7.647,319,3147,2281,2984,-7.0,28.0,25.0,-49.255367279052734,1.5258787870407104,33.8134765625,-0.48974609375,0.1854248046875,0.1092529296875
7.654,316,3147,2388,3147,-7.0,28.0,25.0,-39.794921875,-7.446288585662842,20.507810592651367,-0.0968017578125,0.11474609375,0.11181640625
7.675,316,3147,2407,3147,-7.0,28.0,25.0,-27.770994186401367,-24.353025436401367,6.286620616912842,0.431884765625,0.0228271484375,0.0028076171875
7.676,318,3147,2559,3147,-7.0,28.0,25.0,-3.540038824081421,-51.696773529052734,-3.051757574081421,0.771728515625,0.0377197265625,-0.1502685546875
7.684,321,3147,2668,3147,-7.0,28.0,25.0,36.07177734375,-85.99852752685547,-10.864256858825684,0.4744873046875,0.359619140625,-0.2000732421875
7.692,322,3147,2765,3147,-7.0,28.0,25.0,80.62743377685547,-111.99950408935547,-20.935056686401367,-0.518798828125,0.847900390625,-0.2154541015625
7.716,323,3147,2901,3147,-7.0,28.0,25.0,121.52098846435547,-111.81639862060547,-23.986814498901367,-1.7838134765625,1.1739501953125,-0.26220703125
7.716,316,3147,2936,3147,-9.0,23.0,28.0,122.19237518310547,-90.45409393310547,-22.827146530151367,-2.9490966796875,0.741455078125,-0.0792236328125
7.722,321,3147,2954,3147,-9.0,23.0,28.0,63.598628997802734,-68.7255859375,-22.277830123901367,-3.5562744140625,-0.139892578125,0.45751953125
7.736,323,3147,2861,3147,-9.0,23.0,28.0,3.784179449081421,-48.095699310302734,-8.60595703125,-3.532958984375,-0.2825927734375,0.6739501953125
7.745,321,3147,2891,3147,-9.0,23.0,28.0,-22.705076217651367,-18.73779296875,13.427733421325684,-2.6229248046875,0.00927734375,0.238525390625
7.752,321,3147,2932,3147,-9.0,23.0,28.0,-45.898433685302734,18.6767578125,20.874021530151367,-1.448486328125,0.341796875,0.0230712890625
7.781,323,3147,2918,3147,-9.0,23.0,28.0,-61.218257904052734,49.560543060302734,12.756346702575684,-1.3150634765625,0.6019287109375,0.134033203125
7.781,322,3147,2890,3147,-9.0,23.0,28.0,-41.259761810302734,56.701656341552734,2.0751953125,-1.7735595703125,0.574951171875,-0.0067138671875
7.782,310,3147,2866,3147,-9.0,23.0,28.0,-4.39453125,41.870113372802734,-2.929687261581421,-2.022705078125,0.6126708984375,-0.2950439453125
7.796,317,3147,2697,3147,-9.0,23.0,28.0,17.822265625,22.888181686401367,-2.868652105331421,-1.9112548828125,0.634033203125,-0.410400390625
7.805,317,3147,2600,3147,-9.0,23.0,28.0,17.822265625,10.925292015075684,-5.065917491912842,-1.6678466796875,0.4874267578125,-0.2652587890625
7.816,317,3147,2586,3147,-3.0,26.0,25.0,9.6435546875,5.798339366912842,-9.1552734375,-1.4720458984375,0.29833984375,-0.05078125
7.826,316,3147,2484,3147,-3.0,26.0,25.0,5.981444835662842,4.8828125,-10.620116233825684,-1.3023681640625,0.2669677734375,0.0169677734375
7.834,316,3147,2422,3147,-3.0,26.0,25.0,6.042479991912842,9.27734375,-7.385253429412842,-1.105224609375,0.368408203125,-0.0506591796875
7.842,314,3147,2333,2867,-3.0,26.0,25.0,2.563476324081421,18.1884765625,-1.9531248807907104,-0.9078369140625,0.384521484375,-0.07763671875
7.856,308,3147,2180,1400,-3.0,26.0,25.0,-7.141112804412842,27.038572311401367,1.3427733182907104,-0.7437744140625,0.2406005859375,-0.00244140625
7.880,313,3147,2161,562,-3.0,26.0,25.0,-20.751951217651367,29.357908248901367,-0.7934569716453552,-0.547119140625,-0.061279296875,0.1170654296875
7.881,315,2824,2215,354,-3.0,26.0,25.0,-26.977537155151367,22.766111373901367,-10.131834983825684,-0.3482666015625,-0.3681640625,0.1434326171875
7.886,313,1202,2119,336,-3.0,26.0,25.0,-15.014647483825684,13.488768577575684,-22.216794967651367,-0.2379150390625,-0.3890380859375,0.04052734375
7.894,311,736,2131,334,-3.0,26.0,25.0,4.5166015625,7.629394054412842,-28.198240280151367,-0.24560546875,-0.041015625,-0.0313720703125
7.904,310,504,2074,330,-3.0,26.0,25.0,4.5166015625,7.629394054412842,-28.198240280151367,-0.3233642578125,0.2425537109375,-0.0023193359375
7.920,308,438,1864,327,-8.0,26.0,23.0,-8.4228515625,1.7089842557907104,-30.822751998901367,-0.41064453125,0.220458984375,0.03369140625
7.924,308,411,1865,327,-8.0,26.0,23.0,-24.047849655151367,6.408690929412842,-26.672361373901367,-0.4835205078125,0.17626953125,-0.0091552734375
7.932,306,384,1895,324,-8.0,26.0,23.0,-24.047849655151367,6.408690929412842,-26.672361373901367,-0.4930419921875,0.267822265625,-0.107177734375
7.946,306,383,1896,324,-8.0,26.0,23.0,-4.08935546875,26.916501998901367,2.990722417831421,-0.493896484375,0.4114990234375,-0.1402587890625
7.955,308,401,1914,328,-8.0,26.0,23.0,-5.371093273162842,27.343748092651367,9.521484375,-0.54638671875,0.4337158203125,-0.0386962890625
7.962,308,593,1941,327,-8.0,26.0,23.0,-5.371093273162842,27.343748092651367,9.521484375,-0.606201171875,0.259033203125,0.0980224609375
7.992,308,750,1935,327,-8.0,26.0,23.0,-29.785154342651367,5.432128429412842,-0.3662109076976776,-0.6483154296875,0.0733642578125,0.1468505859375
7.992,307,763,1920,328,-8.0,26.0,23.0,-16.90673828125,-1.8310545682907104,-4.39453125,-0.691162109375,0.0894775390625,0.103515625
7.992,310,826,1943,329,-8.0,26.0,23.0,-16.90673828125,-1.8310545682907104,-4.39453125,-0.731689453125,0.2227783203125,0.0433349609375
8.006,310,1302,2047,342,-3.0,25.0,25.0,15.136717796325684,-6.408690929412842,-0.1220703050494194,-0.74853515625,0.3062744140625,0.0284423828125
8.021,310,1521,2091,346,-3.0,25.0,25.0,15.991209983825684,-8.1787109375,4.2724609375,-0.7357177734375,0.2889404296875,0.03515625
8.024,298,1792,2137,336,-3.0,25.0,25.0,15.991209983825684,-8.1787109375,4.2724609375,-0.7401123046875,0.20361328125,0.01953125
8.036,312,2432,2176,352,-3.0,25.0,25.0,8.056640625,-4.69970703125,15.075682640075684,-0.8157958984375,0.116455078125,-0.0343017578125
8.044,313,2928,2201,360,-3.0,25.0,25.0,2.50244140625,2.01416015625,23.010251998901367,-0.9114990234375,0.0960693359375,-0.1058349609375
8.052,314,3147,2190,578,-3.0,25.0,25.0,2.50244140625,2.01416015625,23.010251998901367,-0.90673828125,0.0921630859375,-0.13916015625
8.066,315,3147,2218,1613,-3.0,25.0,25.0,-21.362302780151367,16.29638671875,43.090816497802734,-0.7596435546875,0.0426025390625,-0.0782470703125
8.098,313,3147,2330,2218,-3.0,25.0,25.0,-36.7431640625,19.59228515625,50.598140716552734,-0.54833984375,0.094970703125,0.0665283203125
8.099,315,3147,2364,2769,-3.0,25.0,25.0,-36.7431640625,19.59228515625,50.598140716552734,-0.1253662109375,0.1666259765625,0.16845703125
8.099,317,3147,2418,3147,-3.0,25.0,25.0,-36.865234375,6.958007335662842,33.203125,0.77685546875,0.031494140625,0.2518310546875
8.104,316,3147,2505,3147,-3.0,28.0,29.0,-24.353025436401367,-17.15087890625,15.930174827575684,1.5911865234375,0.0328369140625,0.263671875
8.121,316,3147,2597,3147,-3.0,28.0,29.0,-24.353025436401367,-17.15087890625,15.930174827575684,1.5911865234375,0.0328369140625,0.263671875
8.127,321,3147,2788,3147,-3.0,28.0,29.0,60.668941497802734,-87.64647674560547,-28.747556686401367,-0.1552734375,0.7965087890625,-0.2265625
8.135,318,3147,2896,3147,-3.0,28.0,29.0,60.668941497802734,-87.64647674560547,-28.747556686401367,-1.9144287109375,0.88330078125,-0.691162109375
8.142,321,3147,2945,3147,-3.0,28.0,29.0,130.0048828125,-107.23876190185547,-45.593257904052734,-1.9144287109375,0.88330078125,-0.691162109375
8.156,321,3147,3003,3147,-3.0,28.0,29.0,107.72704315185547,-76.416015625,-25.512693405151367,-3.9954833984375,0.0877685546875,0.120361328125
8.164,321,3147,2844,3147,-3.0,28.0,29.0,107.72704315185547,-76.416015625,-25.512693405151367,-3.88720703125,-0.262939453125,1.0499267578125
8.186,321,3147,2850,3147,-3.0,28.0,29.0,11.108397483825684,-65.73486328125,-4.2724609375,-3.88720703125,-0.262939453125,1.0499267578125
8.187,321,3147,2887,3147,-3.0,28.0,29.0,-52.185054779052734,4.8828125,28.381345748901367,-1.2200927734375,0.44482421875,0.3441162109375
8.199,318,3147,2888,3147,-3.0,28.0,29.0,-52.185054779052734,4.8828125,28.381345748901367,-1.09228515625,0.60791015625,0.2525634765625
8.202,321,3147,2888,3147,-4.0,21.0,29.0,-68.7255859375,53.100582122802734,12.390135765075684,-1.09228515625,0.60791015625,0.2525634765625
8.217,319,3147,2857,3147,-4.0,21.0,29.0,-23.498533248901367,69.76318359375,-0.9765624403953552,-2.0701904296875,0.4674072265625,-0.3421630859375
8.225,321,3147,2828,3147,-4.0,21.0,29.0,-23.498533248901367,69.76318359375,-0.9765624403953552,-1.9837646484375,0.5804443359375,-0.44775390625
8.232,319,3147,2723,3147,-4.0,21.0,29.0,-5.493163585662842,51.513668060302734,5.920409679412842,-1.9837646484375,0.5804443359375,-0.44775390625
8.246,318,3147,2598,3147,-4.0,21.0,29.0,-12.695311546325684,24.047849655151367,1.9531248807907104,-1.4539794921875,0.4100341796875,-0.1376953125
8.254,318,3147,2561,3147,-4.0,21.0,29.0,-12.695311546325684,24.047849655151367,1.9531248807907104,-1.302490234375,0.33056640625,-0.0631103515625
8.262,316,3147,2465,3147,-4.0,21.0,29.0,-12.207030296325684,18.61572265625,-2.746581792831421,-1.302490234375,0.33056640625,-0.0631103515625
8.289,315,3147,2354,3147,-4.0,21.0,29.0,-9.33837890625,24.108884811401367,0.7324218153953552,-0.906982421875,0.417236328125,-0.1065673828125
8.289,314,3147,2247,2463,-4.0,21.0,29.0,-9.33837890625,24.108884811401367,0.7324218153953552,-0.70068359375,0.312744140625,-0.0325927734375
8.293,316,3147,2195,1682,-4.0,21.0,29.0,-13.488768577575684,30.761716842651367,2.929687261581421,-0.70068359375,0.312744140625,-0.0325927734375
8.306,316,3147,2217,629,-7.0,29.0,25.0,-21.606443405151367,28.503416061401367,-4.94384765625,-0.4166259765625,-0.27685546875,0.0499267578125
8.314,315,2965,2194,348,-7.0,29.0,25.0,-21.606443405151367,28.503416061401367,-4.94384765625,-0.4000244140625,-0.4005126953125,-0.0888671875
8.328,315,1900,2118,345,-7.0,29.0,25.0,-11.108397483825684,19.53125,-15.319823265075684,-0.4000244140625,-0.4005126953125,-0.0888671875
8.336,313,1120,2100,334,-7.0,29.0,25.0,7.019042491912842,12.207030296325684,-23.376462936401367,-0.4053955078125,0.19384765625,-0.1759033203125
8.344,311,705,2018,342,-7.0,29.0,25.0,12.207030296325684,5.371093273162842,-28.015134811401367,-0.4053955078125,0.19384765625,-0.1759033203125
8.352,308,590,1955,332,-7.0,29.0,25.0,-5.859374523162842,-2.25830078125,-34.0576171875,-0.419677734375,0.2197265625,-0.0062255859375
8.366,307,512,1838,327,-7.0,29.0,25.0,-24.841306686401367,-3.295898199081421,-37.59765625,-0.4814453125,0.1787109375,0.041015625
8.393,309,493,1830,327,-7.0,29.0,25.0,-22.033689498901367,5.920409679412842,-29.296873092651367,-0.4814453125,0.1787109375,0.041015625
8.393,310,537,1870,326,-7.0,29.0,25.0,-5.554198741912842,18.61572265625,-12.207030296325684,-0.48193359375,0.3685302734375,-0.0018310546875
8.396,310,772,1891,328,-7.0,29.0,25.0,2.197265625,25.634763717651367,2.3193359375,-0.6043701171875,0.371337890625,0.1412353515625
8.412,308,790,1899,330,-5.0,29.0,22.0,-6.652831554412842,23.193357467651367,7.873534679412842,-0.6043701171875,0.371337890625,0.1412353515625
8.413,310,867,1908,308,-5.0,29.0,22.0,-17.51708984375,14.404295921325684,6.347655773162842,-0.705078125,0.2203369140625,0.1650390625
8.439,313,1120,1973,330,-5.0,29.0,22.0,-14.038084983825684,4.8828125,3.540038824081421,-0.7747802734375,0.28076171875,-0.0091552734375
8.439,313,1278,2032,336,-5.0,29.0,22.0,-1.03759765625,-2.929687261581421,2.0751953125,-0.7747802734375,0.28076171875,-0.0091552734375
8.442,312,1462,2070,338,-5.0,29.0,22.0,6.958007335662842,-8.72802734375,0.7324218153953552,-0.7537841796875,0.3465576171875,-0.041015625
8.456,310,1792,2133,345,-5.0,29.0,22.0,7.019042491912842,-11.718749046325684,-0.54931640625,-0.708984375,0.2342529296875,-0.0296630859375
8.464,315,2178,2180,348,-5.0,29.0,22.0,3.295898199081421,-12.145995140075684,-0.7934569716453552,-0.708984375,0.2342529296875,-0.0296630859375
8.472,315,2516,2207,356,-5.0,29.0,22.0,-1.03759765625,-10.437010765075684,0.9765624403953552,-0.7410888671875,0.1016845703125,-0.0379638671875
8.494,309,3147,2188,364,-5.0,29.0,22.0,-3.479003667831421,-6.164550304412842,6.164550304412842,-0.8577880859375,0.0244140625,-0.114501953125
8.495,302,3147,2158,832,-5.0,29.0,22.0,-6.103515148162842,0.4882812201976776,14.831542015075684,-0.8577880859375,0.0244140625,-0.114501953125
8.502,316,3147,2195,1435,-7.0,27.0,27.0,-13.183592796325684,7.446288585662842,25.451658248901367,-0.8555908203125,0.0609130859375,-0.111328125
8.516,318,3147,2214,2228,-7.0,27.0,27.0,-21.789548873901367,12.145995140075684,35.21728515625,-0.63427734375,0.063232421875,-0.07177734375
8.524,316,3147,2233,2704,-7.0,27.0,27.0,-27.343748092651367,12.451170921325684,39.4287109375,-0.63427734375,0.063232421875,-0.07177734375
8.532,316,3147,2275,3107,-7.0,27.0,27.0,-28.625486373901367,7.446288585662842,33.99658203125,-0.3515625,0.0723876953125,-0.02099609375
8.548,317,3147,2388,3147,-7.0,27.0,27.0,-23.681638717651367,-3.784179449081421,21.789548873901367,0.1533203125,0.0926513671875,0.0257568359375
8.554,316,3147,2481,3147,-7.0,27.0,27.0,-11.108397483825684,-22.888181686401367,10.559081077575684,0.7877197265625,0.22216796875,0.0584716796875
8.562,318,3147,2581,3147,-7.0,27.0,27.0,6.835937023162842,-49.926753997802734,-0.1831054538488388,1.047607421875,0.48388671875,0.0797119140625
8.576,318,3147,2707,3147,-7.0,27.0,27.0,27.404783248901367,-80.13916015625,-18.5546875,0.3438720703125,0.714111328125,0.1248779296875
8.596,321,3147,2833,3147,-7.0,27.0,27.0,69.88525390625,-103.51561737060547,-38.57421875,-0.9732666015625,0.901123046875,-0.0303955078125
