time,compression0,compression1,compression2,compression3,magn_x,magn_y,magn_z,gyro_x,gyro_y,gyro_z,accel_x,accel_y,accel_z
0.012,311,2703,1266,385,-1.0,34.0,23.0,-47.058101654052734,3.417968511581421,9.09423828125,-0.4483642578125,0.2734375,-0.261962890625
0.030,310,3094,1359,416,-1.0,34.0,23.0,-63.354488372802734,-2.990722417831421,-0.7934569716453552,-0.1326904296875,0.179443359375,-0.120849609375
0.030,317,3147,1447,684,-1.0,34.0,23.0,-70.61767578125,-15.991209983825684,-10.498045921325684,0.2532958984375,0.10693359375,0.0322265625
0.042,321,3147,1596,1217,-1.0,34.0,23.0,-67.9931640625,-33.63037109375,-22.766111373901367,0.5028076171875,0.1348876953125,0.092529296875
0.050,324,3147,1772,1769,-1.0,34.0,23.0,-61.889644622802734,-53.710933685302734,-41.503902435302734,0.376708984375,0.35107421875,-0.0367431640625
0.063,324,3147,1918,2286,-1.0,34.0,23.0,-54.382320404052734,-75.62255859375,-61.828609466552734,-0.2791748046875,0.6199951171875,-0.3489990234375
0.072,332,3147,2037,3120,-1.0,34.0,23.0,-46.386714935302734,-96.49657440185547,-70.25146484375,-1.220458984375,0.8341064453125,-0.60009765625
0.081,332,3147,2012,3147,-1.0,34.0,23.0,-45.898433685302734,-109.74120330810547,-58.593746185302734,-2.062744140625,1.0560302734375,-0.5682373046875
0.088,334,3147,1999,3147,-1.0,34.0,23.0,-54.870601654052734,-109.86327362060547,-35.94970703125,-2.673828125,0.8865966796875,-0.284423828125
0.102,338,3147,2047,3147,-1.0,34.0,23.0,-63.293453216552734,-96.06932830810547,-20.935056686401367,-3.003662109375,0.169921875,0.0006103515625
0.110,338,3147,1987,3147,0.0,30.0,19.0,-53.894039154052734,-68.42041015625,-15.380858421325684,-2.916259765625,-0.283935546875,0.0914306640625
0.136,334,3147,1943,3147,0.0,30.0,19.0,-20.507810592651367,-37.04833984375,-10.498045921325684,-2.1378173828125,-0.203125,0.0985107421875
0.136,334,3147,1968,3147,0.0,30.0,19.0,18.73779296875,-20.629880905151367,-13.488768577575684,-1.1199951171875,0.2705078125,0.0692138671875
0.140,336,3147,2032,3147,0.0,30.0,19.0,47.546382904052734,-20.629880905151367,-30.639646530151367,-0.79296875,0.969970703125,-0.14501953125
0.150,336,3147,2068,3147,0.0,30.0,19.0,45.959468841552734,-22.705076217651367,-50.537105560302734,-1.2772216796875,1.2017822265625,-0.474365234375
0.166,336,3147,2072,3147,0.0,30.0,19.0,8.056640625,-18.4326171875,-57.739253997802734,-1.86572265625,0.737548828125,-0.575439453125
0.171,336,3147,2047,3147,0.0,30.0,19.0,-29.235837936401367,-9.09423828125,-45.898433685302734,-2.024169921875,0.24462890625,-0.3812255859375
0.180,334,3147,1997,3147,0.0,30.0,19.0,-29.235837936401367,-9.09423828125,-45.898433685302734,-1.8092041015625,0.205078125,-0.1170654296875
0.193,331,3147,1934,2769,0.0,30.0,19.0,-21.728513717651367,11.047362327575684,5.432128429412842,-1.44482421875,0.3251953125,0.119873046875
0.200,330,3147,1852,2442,0.0,30.0,19.0,-5.249022960662842,23.437498092651367,24.475095748901367,-1.1302490234375,0.290771484375,0.2705078125
0.208,330,3147,1809,2161,-4.0,30.0,19.0,-5.249022960662842,23.437498092651367,24.475095748901367,-0.87451171875,0.209716796875,0.266845703125
0.223,323,3147,1757,1490,-4.0,30.0,19.0,19.22607421875,39.12353515625,29.113767623901367,-0.64306640625,0.177978515625,0.148193359375
0.236,324,3147,1757,1093,-4.0,30.0,19.0,24.414060592651367,32.1044921875,11.047362327575684,-0.479736328125,0.12744140625,0.0067138671875
0.238,306,313,1794,3147,-4.0,30.0,19.0,24.414060592651367,32.1044921875,11.047362327575684,-0.43408203125,0.049072265625,-0.0770263671875
0.252,323,2659,1798,426,-4.0,30.0,19.0,17.7001953125,12.512206077575684,-24.597166061401367,-0.51220703125,-0.03466796875,-0.1329345703125
0.272,321,1969,1838,401,-4.0,30.0,19.0,19.47021484375,9.6435546875,-25.329587936401367,-0.582763671875,-0.1202392578125,-0.202392578125
0.273,323,1801,1829,387,-4.0,30.0,19.0,19.47021484375,9.6435546875,-25.329587936401367,-0.5345458984375,-0.1688232421875,-0.2347412109375
0.283,321,1362,1801,371,-4.0,30.0,19.0,20.935056686401367,12.207030296325684,-10.070799827575684,-0.447509765625,-0.1165771484375,-0.2176513671875
0.290,318,1233,1739,363,-4.0,30.0,19.0,19.83642578125,14.587401390075684,-0.54931640625,-0.411865234375,0.05029296875,-0.1942138671875
0.298,316,1047,1635,359,-4.0,30.0,19.0,19.83642578125,14.587401390075684,-0.54931640625,-0.3851318359375,0.28125,-0.15087890625
0.312,316,1381,1638,357,-3.0,29.0,20.0,18.9208984375,17.51708984375,17.63916015625,-0.3575439453125,0.50927734375,-0.0445556640625
0.341,317,1643,1675,371,-3.0,29.0,20.0,14.587401390075684,14.953612327575684,22.216794967651367,-0.4185791015625,0.699462890625,0.0833740234375
0.341,316,1902,1697,371,-3.0,29.0,20.0,14.587401390075684,14.953612327575684,22.216794967651367,-0.5787353515625,0.7811279296875,0.0986328125
0.343,316,2178,1653,381,-3.0,29.0,20.0,7.080077648162842,4.57763671875,20.01953125,-0.766357421875,0.679931640625,-0.0289306640625
0.350,316,2286,1722,383,-3.0,29.0,20.0,-4.150390625,3.601073980331421,13.916014671325684,-0.91796875,0.44921875,-0.173828125
0.358,317,2330,1739,387,-3.0,29.0,20.0,-4.150390625,3.601073980331421,13.916014671325684,-0.9912109375,0.2484130859375,-0.2158203125
0.383,314,2428,1729,391,-3.0,29.0,20.0,-26.489255905151367,6.835937023162842,6.225585460662842,-1.0211181640625,0.173828125,-0.163818359375
0.384,316,2482,1715,401,-3.0,29.0,20.0,-20.812986373901367,6.469726085662842,9.521484375,-1.064453125,0.1842041015625,-0.118896484375
0.388,317,2518,1715,401,-3.0,29.0,20.0,-20.812986373901367,6.469726085662842,9.521484375,-1.064453125,0.1842041015625,-0.118896484375
0.402,317,2517,1711,391,-1.0,31.0,16.0,7.324218273162842,5.126952648162842,17.4560546875,-1.098388671875,0.2220458984375,-0.154541015625
0.410,313,2494,1691,400,-1.0,31.0,16.0,7.324218273162842,5.126952648162842,17.4560546875,-1.0548095703125,0.2110595703125,-0.1832275390625
0.418,310,2468,1681,400,-1.0,31.0,16.0,14.587401390075684,4.57763671875,19.34814453125,-1.0548095703125,0.2110595703125,-0.1832275390625
0.449,316,2374,1653,385,-1.0,31.0,16.0,17.9443359375,5.310058116912842,26.184080123901367,-0.963623046875,0.24560546875,-0.220703125
0.449,316,2287,1641,391,-1.0,31.0,16.0,17.9443359375,5.310058116912842,26.184080123901367,-0.9542236328125,0.263427734375,-0.224609375
0.449,314,2269,1588,388,-1.0,31.0,16.0,17.822265625,6.530761241912842,32.65380859375,-0.9542236328125,0.263427734375,-0.224609375
0.462,313,2240,1443,383,-1.0,31.0,16.0,10.864256858825684,11.962889671325684,48.950191497802734,-0.8333740234375,0.231201171875,-0.1632080078125
0.474,310,2333,1398,388,-1.0,31.0,16.0,10.864256858825684,11.962889671325684,48.950191497802734,-0.697509765625,0.2498779296875,-0.0794677734375
0.479,310,2372,1411,385,-1.0,31.0,16.0,1.03759765625,17.76123046875,55.847164154052734,-0.697509765625,0.2498779296875,-0.0794677734375
0.492,315,2479,1478,401,-1.0,31.0,16.0,-21.606443405151367,34.11865234375,58.166500091552734,-0.46533203125,0.43115234375,0.10400390625
0.500,315,2822,1560,406,-2.0,33.0,18.0,-21.606443405151367,34.11865234375,58.166500091552734,-0.22900390625,0.3099365234375,0.1422119140625
0.508,316,3147,1624,465,-2.0,33.0,18.0,-22.644041061401367,36.1328125,50.292964935302734,-0.22900390625,0.3099365234375,0.1422119140625
0.522,323,3147,1786,1225,-2.0,33.0,18.0,2.807616949081421,6.958007335662842,17.27294921875,0.835205078125,-0.0286865234375,0.1595458984375
0.541,323,3147,1874,1826,-2.0,33.0,18.0,2.807616949081421,6.958007335662842,17.27294921875,1.4031982421875,0.1103515625,0.1141357421875
0.541,328,3147,1951,2421,-2.0,33.0,18.0,14.892577171325684,-23.376462936401367,-8.72802734375,1.4031982421875,0.1103515625,0.1141357421875
0.553,333,3147,2021,3147,-2.0,33.0,18.0,20.385740280151367,-108.94774627685547,-75.98876953125,0.759765625,0.5828857421875,-0.6343994140625
0.560,330,3147,2047,3147,-2.0,33.0,18.0,20.385740280151367,-108.94774627685547,-75.98876953125,-0.799560546875,1.178466796875,-1.10498046875
0.575,338,3147,2195,3147,-2.0,33.0,18.0,8.056640625,-128.72314453125,-82.21434783935547,-0.799560546875,1.178466796875,-1.10498046875
0.582,338,3147,2348,3147,-2.0,33.0,18.0,-84.47264862060547,-108.64257049560547,-38.6962890625,-3.8077392578125,1.2322998046875,-0.0413818359375
0.590,344,3147,2418,3147,-2.0,33.0,18.0,-84.47264862060547,-108.64257049560547,-38.6962890625,-4.0,-0.2916259765625,0.675537109375
0.601,346,3147,2286,3147,-1.0,30.0,24.0,-136.77978515625,-93.81102752685547,-39.24560546875,-4.0,-0.2916259765625,0.675537109375
0.612,338,3147,2170,3147,-1.0,30.0,24.0,-103.33251190185547,-58.532711029052734,-29.846189498901367,-2.1175537109375,-0.422119140625,0.1689453125
0.620,336,3147,2207,3147,-1.0,30.0,24.0,1.0986328125,-16.4794921875,-5.065917491912842,-2.1175537109375,-0.422119140625,0.1689453125
0.644,330,3147,2268,3147,-1.0,30.0,24.0,79.345703125,2.197265625,-8.6669921875,-0.687744140625,0.804931640625,-0.1795654296875
0.644,338,3147,2279,3147,-1.0,30.0,24.0,82.21434783935547,-2.50244140625,-40.283199310302734,-1.744873046875,1.122314453125,-0.5911865234375
0.652,336,3147,2238,3147,-1.0,30.0,24.0,21.301267623901367,-9.033203125,-61.401363372802734,-1.744873046875,1.122314453125,-0.5911865234375
0.663,338,3147,2170,3147,-1.0,30.0,24.0,-37.7197265625,-5.798339366912842,-51.940914154052734,-2.208251953125,0.4591064453125,-0.26611328125
0.678,338,3147,2115,3147,-1.0,30.0,24.0,-50.109859466552734,6.042479991912842,-20.935056686401367,-1.8092041015625,0.0802001953125,0.3140869140625
0.682,334,3147,2074,3147,-1.0,30.0,24.0,-33.14208984375,22.766111373901367,13.854979515075684,-1.8092041015625,0.0802001953125,0.3140869140625
0.688,332,3147,1980,3147,-1.0,30.0,24.0,-9.94873046875,44.006343841552734,43.945308685302734,-1.5980224609375,0.0908203125,0.3797607421875
0.703,328,3147,1795,2857,-1.0,29.0,19.0,14.282225608825684,63.171382904052734,66.83349609375,-0.915771484375,0.470947265625,0.020263671875
0.714,324,3147,1754,2343,-1.0,29.0,19.0,39.55078125,69.76318359375,73.6083984375,-0.915771484375,0.470947265625,0.020263671875
0.718,328,3147,1757,1652,-1.0,29.0,19.0,53.527828216552734,61.767574310302734,54.992671966552734,-0.5186767578125,0.59033203125,-0.15234375
0.738,323,3047,1809,424,-1.0,29.0,19.0,45.043941497802734,45.227046966552734,16.05224609375,-0.1942138671875,0.0941162109375,-0.1304931640625
0.748,323,1662,1816,390,-1.0,29.0,19.0,23.437498092651367,28.015134811401367,-24.841306686401367,-0.1942138671875,0.0941162109375,-0.1304931640625
0.749,321,1108,1789,356,-1.0,29.0,19.0,6.774901866912842,13.122557640075684,-49.682613372802734,-0.28759765625,-0.1378173828125,-0.0218505859375
0.767,313,419,1681,332,-1.0,29.0,19.0,3.540038824081421,0.0,-54.565425872802734,-0.4808349609375,-0.2962646484375,-0.214111328125
0.770,308,382,1533,323,-1.0,29.0,19.0,12.145995140075684,-7.995604991912842,-46.874996185302734,-0.4808349609375,-0.2962646484375,-0.214111328125
0.781,308,313,1334,321,-1.0,29.0,19.0,23.254392623901367,-8.30078125,-32.40966796875,-0.4141845703125,-0.1900634765625,-0.4442138671875
0.792,308,322,1173,318,-1.0,28.0,25.0,30.029294967651367,-4.08935546875,-16.41845703125,-0.3072509765625,0.213623046875,-0.3818359375
0.800,308,332,1159,318,-1.0,28.0,25.0,33.99658203125,-0.7934569716453552,-5.310058116912842,-0.3072509765625,0.213623046875,-0.3818359375
0.808,306,371,1182,316,-1.0,28.0,25.0,40.527339935302734,-1.4648436307907104,-0.0610351525247097,-0.3349609375,0.3900146484375,-0.1748046875
0.826,306,359,1213,327,-1.0,28.0,25.0,48.461910247802734,-5.249022960662842,0.54931640625,-0.3837890625,0.514892578125,-0.0145263671875
0.830,308,391,1290,327,-1.0,28.0,25.0,49.987789154052734,-9.94873046875,-2.990722417831421,-0.4794921875,0.630126953125,0.0794677734375
0.852,308,378,1348,327,-1.0,28.0,25.0,41.503902435302734,-13.732909202575684,-7.568358898162842,-0.604248046875,0.704833984375,0.1107177734375
0.852,292,484,1497,330,-1.0,28.0,25.0,26.367185592651367,-14.953612327575684,-9.70458984375,-0.71435546875,0.7047119140625,0.097412109375
0.860,309,551,1519,346,-1.0,28.0,25.0,10.925292015075684,-13.549803733825684,-8.056640625,-0.7833251953125,0.6409912109375,0.0718994140625
0.881,313,738,1533,336,-1.0,28.0,25.0,-1.5869139432907104,-11.474608421325684,-4.08935546875,-0.8006591796875,0.5145263671875,0.0455322265625
0.882,316,1183,1550,363,-1.0,28.0,25.0,-11.169432640075684,-10.192870140075684,-0.2441406100988388,-0.7933349609375,0.3475341796875,0.000244140625
0.890,316,1393,1596,364,-2.0,29.0,19.0,-16.66259765625,-10.192870140075684,1.9531248807907104,-0.8001708984375,0.19580078125,-0.0677490234375
0.898,317,1608,1602,369,-2.0,29.0,19.0,-14.770506858825684,-11.291502952575684,3.540038824081421,-0.8431396484375,0.0977783203125,-0.134521484375
0.912,317,1904,1625,382,-2.0,29.0,19.0,-4.82177734375,-12.451170921325684,7.080077648162842,-0.91455078125,0.052734375,-0.179443359375
0.920,317,2024,1641,387,-2.0,29.0,19.0,8.30078125,-12.695311546325684,14.465331077575684,-0.978759765625,0.0333251953125,-0.2000732421875
0.928,313,2114,1655,388,-2.0,29.0,19.0,18.798828125,-11.291502952575684,24.597166061401367,-0.9913330078125,0.0411376953125,-0.2122802734375
0.951,317,2445,1596,402,-2.0,29.0,19.0,20.568845748901367,-6.347655773162842,34.60693359375,-0.9544677734375,0.1119384765625,-0.181884765625
0.951,318,2798,1588,409,-2.0,29.0,19.0,7.934569835662842,4.638671875,42.480464935302734,-0.90380859375,0.208251953125,-0.0703125
0.958,321,3059,1600,411,-2.0,29.0,19.0,-18.85986328125,19.04296875,46.936031341552734,-0.827392578125,0.18701171875,0.0675048828125
0.988,322,3147,1604,899,-2.0,29.0,19.0,-41.564937591552734,27.160642623901367,47.668453216552734,-0.6248779296875,0.0400390625,0.167724609375
0.989,323,3147,1702,1160,-2.0,29.0,19.0,-36.865234375,22.094724655151367,44.372554779052734,-0.068359375,-0.019287109375,0.25048828125
0.989,327,3147,1735,1555,-5.0,28.0,24.0,-16.11328125,3.784179449081421,34.423828125,0.8240966796875,-0.018798828125,0.3265380859375
1.002,329,3147,1796,2333,-5.0,28.0,24.0,-3.356933355331421,-26.794431686401367,13.244627952575684,1.551513671875,0.000732421875,0.328369140625
1.010,331,3147,1828,2503,-5.0,28.0,24.0,12.695311546325684,-64.27001953125,-16.6015625,1.5604248046875,0.3515625,-0.0001220703125
1.018,334,3147,1838,2928,-5.0,28.0,24.0,35.33935546875,-93.50585174560547,-45.593257904052734,0.56640625,1.073486328125,-0.757080078125
1.034,342,3147,2080,3147,-5.0,28.0,24.0,26.977537155151367,-101.13524627685547,-63.232418060302734,-1.142822265625,1.9404296875,-1.3067626953125
1.053,347,3147,2261,3147,-5.0,28.0,24.0,-36.07177734375,-97.29003143310547,-61.767574310302734,-2.744140625,2.1431884765625,-0.81396484375
1.053,348,3147,2347,3147,-5.0,28.0,24.0,-125.24413299560547,-99.91454315185547,-55.725093841552734,-3.751220703125,0.9100341796875,0.3974609375
1.062,347,3147,2240,3147,-5.0,28.0,24.0,-159.66796875,-96.25243377685547,-50.659175872802734,-4.0,-0.5596923828125,0.9852294921875
1.071,347,3147,2118,3147,-5.0,28.0,24.0,-84.04540252685547,-63.842769622802734,-24.902341842651367,-3.3753662109375,-1.3763427734375,0.629150390625
1.130,343,3147,2032,3147,-5.0,28.0,24.0,34.3017578125,-19.10400390625,1.9531248807907104,-1.5489501953125,-0.847900390625,0.1571044921875
1.131,343,3147,2104,3147,0.0,27.0,21.0,101.74559783935547,6.835937023162842,-5.187987804412842,-0.59326171875,0.8551025390625,-0.3165283203125
1.131,343,3147,2151,3147,0.0,27.0,21.0,70.1904296875,8.48388671875,-37.7197265625,-1.0745849609375,1.4984130859375,-0.554931640625
1.131,344,3147,2170,3147,0.0,27.0,21.0,-23.132322311401367,3.173827886581421,-61.157222747802734,-1.90087890625,0.883056640625,-0.2852783203125
1.131,346,3147,2128,3147,0.0,27.0,21.0,-69.64111328125,8.23974609375,-50.598140716552734,-2.258056640625,0.3927001953125,-0.0059814453125
1.131,338,3147,2131,3147,0.0,27.0,21.0,-54.748531341552734,20.568845748901367,-16.2353515625,-2.05224609375,0.3236083984375,0.1580810546875
1.138,338,3147,2119,3147,0.0,27.0,21.0,-29.663084030151367,32.04345703125,17.51708984375,-1.7027587890625,0.275390625,0.312255859375
1.155,334,3147,2030,2734,0.0,27.0,21.0,-11.230467796325684,44.250484466552734,40.832515716552734,-1.440673828125,0.1824951171875,0.343505859375
1.165,334,3147,1989,2392,0.0,27.0,21.0,9.09423828125,57.312007904052734,55.969234466552734,-1.1610107421875,0.2122802734375,0.18994140625
1.168,331,3147,1890,2075,0.0,27.0,21.0,30.334470748901367,62.133785247802734,57.312007904052734,-0.792236328125,0.34765625,0.0211181640625
1.196,328,3147,1807,1265,0.0,27.0,21.0,37.9638671875,52.917476654052734,35.46142578125,-0.451171875,0.36767578125,-0.06201171875
1.196,328,3147,1775,724,-2.0,33.0,23.0,29.663084030151367,36.68212890625,-1.2817381620407104,-0.2332763671875,0.208251953125,-0.095458984375
1.198,327,2749,1687,383,-2.0,33.0,23.0,18.4326171875,22.766111373901367,-31.982419967651367,-0.189453125,0.0380859375,-0.0950927734375
1.212,308,1112,1604,669,-2.0,33.0,23.0,13.732909202575684,12.329100608825684,-44.738765716552734,-0.31689453125,-0.0794677734375,-0.0789794921875
1.220,317,1051,1622,371,-2.0,33.0,23.0,17.51708984375,4.82177734375,-41.442867279052734,-0.4276123046875,-0.2872314453125,-0.113525390625
1.228,318,859,1652,360,-2.0,33.0,23.0,29.174802780151367,4.33349609375,-28.198240280151367,-0.3985595703125,-0.3304443359375,-0.169921875
1.259,316,618,1607,348,-2.0,33.0,23.0,39.36767578125,9.46044921875,-11.535643577575684,-0.3751220703125,-0.0699462890625,-0.1402587890625
1.260,312,561,1504,331,-2.0,33.0,23.0,31.005857467651367,12.207030296325684,0.8544921278953552,-0.4305419921875,0.14208984375,-0.052001953125
1.260,310,537,1435,329,-2.0,33.0,23.0,9.70458984375,12.573241233825684,6.347655773162842,-0.47607421875,0.2711181640625,-0.015625
1.277,313,531,1464,338,-2.0,33.0,23.0,-2.685546636581421,14.404295921325684,8.6669921875,-0.4852294921875,0.4749755859375,-0.010009765625
1.280,313,551,1533,344,-2.0,33.0,23.0,-3.051757574081421,15.624999046325684,10.498045921325684,-0.494384765625,0.6995849609375,0.009521484375
1.302,313,687,1552,346,0.0,27.0,20.0,0.3662109076976776,12.451170921325684,10.559081077575684,-0.525390625,0.762939453125,0.0369873046875
1.303,316,794,1636,348,0.0,27.0,20.0,0.7934569716453552,5.859374523162842,7.263183116912842,-0.6173095703125,0.604248046875,0.0455322265625
1.310,319,905,1669,360,0.0,27.0,20.0,-2.746581792831421,1.220703125,1.7089842557907104,-0.797119140625,0.381591796875,0.0203857421875
1.318,316,975,1684,361,0.0,27.0,20.0,-2.746581792831421,1.220703125,1.7089842557907104,-0.9898681640625,0.25048828125,-0.0174560546875
1.332,316,1054,1675,361,0.0,27.0,20.0,-5.493163585662842,2.807616949081421,1.3427733182907104,-1.0953369140625,0.2000732421875,-0.048583984375
1.340,318,1134,1676,362,0.0,27.0,20.0,-3.784179449081421,3.540038824081421,6.286620616912842,-1.0888671875,0.1611328125,-0.0706787109375
1.362,318,1091,1681,365,0.0,27.0,20.0,-3.784179449081421,3.540038824081421,6.286620616912842,-1.019287109375,0.123291015625,-0.090087890625
1.363,321,1217,1681,363,0.0,27.0,20.0,7.568358898162842,1.8310545682907104,15.380858421325684,-0.9615478515625,0.1212158203125,-0.1158447265625
1.370,317,1373,1700,364,0.0,27.0,20.0,19.59228515625,0.4882812201976776,19.47021484375,-0.9451904296875,0.1602783203125,-0.1544189453125
1.378,318,1463,1713,375,0.0,27.0,20.0,19.59228515625,0.4882812201976776,19.47021484375,-0.9443359375,0.2159423828125,-0.1849365234375
1.406,319,1682,1718,381,-2.0,28.0,22.0,34.85107421875,-1.0986328125,26.672361373901367,-0.9315185546875,0.2674560546875,-0.174072265625
1.408,321,1719,1733,390,-2.0,28.0,22.0,30.212400436401367,-0.1831054538488388,29.602048873901367,-0.8956298828125,0.2972412109375,-0.1153564453125
1.409,304,1801,1713,376,-2.0,28.0,22.0,30.212400436401367,-0.1831054538488388,29.602048873901367,-0.8370361328125,0.28662109375,-0.026123046875
1.417,321,1969,1741,391,-2.0,28.0,22.0,19.10400390625,3.723144292831421,32.53173828125,-0.8370361328125,0.28662109375,-0.026123046875
1.431,321,2292,1709,390,-2.0,28.0,22.0,-7.141112804412842,20.080564498901367,37.53662109375,-0.7354736328125,0.283447265625,0.06494140625
1.439,318,2418,1705,402,-2.0,28.0,22.0,-7.141112804412842,20.080564498901367,37.53662109375,-0.66259765625,0.3101806640625,-0.013427734375
1.463,321,2612,1715,411,-2.0,28.0,22.0,-11.962889671325684,25.817869186401367,39.00146484375,-0.66259765625,0.3101806640625,-0.013427734375
1.463,323,3147,1669,522,-2.0,28.0,22.0,-5.859374523162842,17.02880859375,35.33935546875,-0.1641845703125,0.1871337890625,-0.0478515625
1.469,324,3147,1703,1005,-2.0,28.0,22.0,-5.859374523162842,17.02880859375,35.33935546875,0.354736328125,0.09814453125,0.119384765625
1.477,324,3147,1755,1450,-2.0,28.0,22.0,3.784179449081421,3.601073980331421,25.695798873901367,0.354736328125,0.09814453125,0.119384765625
1.495,328,3147,1914,2215,-4.0,29.0,26.0,21.606443405151367,-45.898433685302734,-21.728513717651367,1.480224609375,-0.0267333984375,-0.0081787109375
1.501,330,3147,1967,2788,-4.0,29.0,26.0,21.606443405151367,-45.898433685302734,-21.728513717651367,1.11181640625,0.3280029296875,-0.3349609375
1.516,334,3147,2024,3147,-4.0,29.0,26.0,25.634763717651367,-82.76366424560547,-51.086421966552734,1.11181640625,0.3280029296875,-0.3349609375
1.521,344,3147,2244,3147,-4.0,29.0,26.0,10.375975608825684,-114.68505096435547,-72.509765625,-1.96923828125,1.7138671875,-0.780029296875
1.529,345,3147,2409,3147,-4.0,29.0,26.0,10.375975608825684,-114.68505096435547,-72.509765625,-3.24462890625,1.6673583984375,-0.2060546875
1.537,346,3147,2516,3147,-4.0,29.0,26.0,-40.771480560302734,-108.64257049560547,-65.3076171875,-3.24462890625,1.6673583984375,-0.2060546875
1.554,346,3147,2379,3147,-4.0,29.0,26.0,-111.38915252685547,-79.7119140625,-54.443355560302734,-3.89111328125,-0.6878662109375,0.9420166015625
1.575,344,3147,2197,3147,-4.0,29.0,26.0,-111.38915252685547,-79.7119140625,-54.443355560302734,-2.992919921875,-1.0919189453125,0.4625244140625
1.576,338,3147,2162,3147,-4.0,29.0,26.0,-33.8134765625,-41.931148529052734,-32.65380859375,-2.992919921875,-1.0919189453125,0.4625244140625
1.582,338,3147,2233,3147,0.0,28.0,16.0,94.36034393310547,18.49365234375,-15.075682640075684,-0.8150634765625,0.9461669921875,-0.30224609375
1.589,338,3147,2238,3147,0.0,28.0,16.0,94.36034393310547,18.49365234375,-15.075682640075684,-1.4547119140625,1.1917724609375,-0.2783203125
1.599,344,3147,2240,3147,0.0,28.0,16.0,46.630855560302734,25.939939498901367,-24.719236373901367,-1.4547119140625,1.1917724609375,-0.2783203125
1.623,343,3147,2243,3147,0.0,28.0,16.0,-63.415523529052734,38.51318359375,0.7934569716453552,-2.2100830078125,0.2725830078125,0.1683349609375
1.624,338,3147,2243,3147,0.0,28.0,16.0,-63.415523529052734,38.51318359375,0.7934569716453552,-1.9482421875,0.244384765625,0.2052001953125
1.627,338,3147,2207,3147,0.0,28.0,16.0,-47.302242279052734,48.034664154052734,26.123044967651367,-1.9482421875,0.244384765625,0.2052001953125
1.641,336,3147,2039,2651,0.0,28.0,16.0,-22.155759811401367,55.725093841552734,45.776363372802734,-1.4501953125,0.314697265625,0.052001953125
1.649,334,3147,1954,2275,0.0,28.0,16.0,1.2817381620407104,64.0869140625,59.265132904052734,-1.4501953125,0.314697265625,0.052001953125
1.667,330,3147,1914,1864,0.0,28.0,16.0,23.193357467651367,71.35009765625,66.22314453125,-1.1351318359375,0.3358154296875,-0.05126953125
1.671,327,3147,1798,799,0.0,28.0,16.0,38.6962890625,67.7490234375,58.471675872802734,-0.3245849609375,0.19921875,-0.2052001953125
1.679,323,2890,1729,548,-3.0,26.0,24.0,42.724605560302734,48.828121185302734,31.188962936401367,-0.3245849609375,0.19921875,-0.2052001953125
1.687,321,1514,1718,1773,-3.0,26.0,24.0,37.9638671875,22.766111373901367,-5.676269054412842,-0.1121826171875,0.04248046875,-0.183837890625
1.703,316,673,1704,344,-3.0,26.0,24.0,33.02001953125,0.2441406100988388,-35.5224609375,-0.336669921875,-0.23291015625,-0.042236328125
1.709,313,588,1694,330,-3.0,26.0,24.0,37.2314453125,-13.427733421325684,-48.645015716552734,-0.336669921875,-0.23291015625,-0.042236328125
1.733,310,473,1675,327,-3.0,26.0,24.0,52.001949310302734,-16.05224609375,-46.325679779052734,-0.4442138671875,-0.088134765625,-0.0758056640625
1.734,308,425,1501,332,-3.0,26.0,24.0,56.640621185302734,-13.061522483825684,-36.0107421875,-0.4561767578125,0.258544921875,-0.2310791015625
1.739,306,427,1310,329,-3.0,26.0,24.0,34.60693359375,-10.131834983825684,-25.695798873901367,-0.4561767578125,0.258544921875,-0.2310791015625
1.747,307,418,1268,327,-3.0,26.0,24.0,7.507323741912842,-3.845214605331421,-17.333984375,-0.37939453125,0.27294921875,-0.2503662109375
1.770,308,416,1280,321,-3.0,26.0,24.0,-1.220703125,6.164550304412842,-8.6669921875,-0.3929443359375,0.600830078125,-0.068603515625
1.771,308,388,1334,321,-3.0,26.0,24.0,0.3662109076976776,12.512206077575684,-0.8544921278953552,-0.3929443359375,0.600830078125,-0.068603515625
1.777,308,438,1386,330,-3.0,28.0,26.0,-4.2724609375,10.681151390075684,1.0986328125,-0.4617919921875,0.6214599609375,0.054931640625
1.791,310,465,1483,321,-3.0,28.0,26.0,-17.9443359375,3.967284917831421,-4.33349609375,-0.72021484375,0.3763427734375,0.2369384765625
1.804,307,490,1531,323,-3.0,28.0,26.0,-28.076169967651367,-1.7089842557907104,-11.840819358825684,-0.72021484375,0.3763427734375,0.2369384765625
1.812,310,481,1592,328,-3.0,28.0,26.0,-24.353025436401367,-3.417968511581421,-14.953612327575684,-0.820068359375,0.3212890625,0.1973876953125
1.821,312,461,1636,332,-3.0,28.0,26.0,-12.695311546325684,-2.44140625,-12.329100608825684,-0.8909912109375,0.228515625,0.0794677734375
1.831,310,499,1681,328,-3.0,28.0,26.0,-5.981444835662842,-1.220703125,-6.774901866912842,-0.8909912109375,0.228515625,0.0794677734375
1.841,314,562,1704,329,-3.0,28.0,26.0,-6.164550304412842,0.6103515625,-0.1220703050494194,-0.904541015625,0.1065673828125,0.036865234375
1.851,313,669,1742,342,-3.0,28.0,26.0,-6.530761241912842,4.0283203125,7.446288585662842,-0.9083251953125,0.025634765625,-0.0233154296875
1.874,316,814,1762,346,-3.0,28.0,26.0,-3.234863042831421,7.934569835662842,15.380858421325684,-0.9052734375,0.02490234375,-0.0926513671875
1.875,316,1120,1795,360,-3.0,28.0,26.0,3.417968511581421,10.620116233825684,23.071287155151367,-0.9002685546875,0.062744140625,-0.1512451171875
1.881,316,1261,1826,363,-3.0,29.0,19.0,11.413573265075684,11.596678733825684,29.541013717651367,-0.9013671875,0.11865234375,-0.182861328125
1.890,318,1370,1838,369,-3.0,29.0,19.0,18.9208984375,11.901854515075684,34.66796875,-0.9188232421875,0.1971435546875,-0.1875
1.897,318,1557,1840,373,-3.0,29.0,19.0,23.437498092651367,12.817381858825684,38.87939453125,-0.9488525390625,0.27490234375,-0.1737060546875
1.912,318,1878,1828,376,-3.0,29.0,19.0,21.850584030151367,15.258788108825684,42.846675872802734,-0.9703369140625,0.306884765625,-0.1322021484375
1.919,319,2102,1819,384,-3.0,29.0,19.0,13.244627952575684,18.73779296875,46.508785247802734,-0.95703125,0.2579345703125,-0.0985107421875
1.928,319,2114,1838,390,-3.0,29.0,19.0,2.807616949081421,21.240232467651367,49.926753997802734,-0.8983154296875,0.180908203125,-0.11328125
1.941,321,2510,1806,364,-3.0,29.0,19.0,-2.50244140625,21.850584030151367,52.673336029052734,-0.80029296875,0.187255859375,-0.1142578125
1.953,321,2882,1774,385,-3.0,29.0,19.0,-4.5166015625,21.667478561401367,52.795406341552734,-0.656494140625,0.2762451171875,-0.0565185546875
1.957,321,3147,1743,470,-3.0,29.0,19.0,-6.713866710662842,20.996091842651367,49.621578216552734,-0.432861328125,0.336181640625,0.044921875
1.975,323,3147,1766,1160,-4.0,30.0,26.0,-7.080077648162842,16.54052734375,43.029781341552734,-0.0093994140625,0.2767333984375,0.1856689453125
1.979,328,3147,1828,1580,-4.0,30.0,26.0,-2.990722417831421,2.746581792831421,30.273435592651367,0.744873046875,0.0604248046875,0.31689453125
1.987,330,3147,1889,1981,-4.0,30.0,26.0,9.46044921875,-24.658201217651367,6.408690929412842,1.5584716796875,-0.085693359375,0.2938232421875
2.008,336,3147,2014,2859,-4.0,30.0,26.0,33.0810546875,-63.232418060302734,-26.367185592651367,1.7254638671875,0.203125,-0.041015625
2.010,338,3147,2093,3147,-4.0,30.0,26.0,54.260250091552734,-98.20555877685547,-58.715816497802734,0.7125244140625,0.912109375,-0.7276611328125
2.017,346,3147,2310,3147,-4.0,30.0,26.0,44.860836029052734,-112.54882049560547,-83.43505096435547,-1.185546875,1.7567138671875,-1.3040771484375
2.031,351,3147,2668,3147,-4.0,30.0,26.0,-15.075682640075684,-110.04637908935547,-90.63719940185547,-3.0352783203125,1.9794921875,-0.957763671875
2.045,354,3147,2643,3147,-4.0,30.0,26.0,-110.29051971435547,-107.84911346435547,-84.16747283935547,-4.0,0.9251708984375,0.281005859375
2.047,347,3147,2484,3147,-4.0,30.0,26.0,-163.14695739746094,-100.28075408935547,-71.47216796875,-4.0,-0.53759765625,0.976318359375
2.079,347,3147,2295,3147,-4.0,30.0,26.0,-108.27635955810547,-71.2890625,-46.508785247802734,-3.0545654296875,-1.6563720703125,0.78173828125
2.080,348,3147,2280,3147,-1.0,25.0,26.0,12.023924827575684,-31.921384811401367,-20.568845748901367,-1.1195068359375,-1.0469970703125,0.400146484375
2.081,344,3147,2325,3147,-1.0,25.0,26.0,110.83983612060547,1.4038084745407104,-11.901854515075684,-0.55126953125,0.977294921875,-0.186767578125
2.091,346,3147,2320,3147,-1.0,25.0,26.0,95.27587127685547,19.287109375,-24.230955123901367,-1.2685546875,1.52685546875,-0.396484375
2.099,346,3147,2391,3147,-1.0,25.0,26.0,-7.873534679412842,25.817869186401367,-33.75244140625,-2.044921875,0.687744140625,-0.0751953125
2.111,345,3147,2370,3147,-1.0,25.0,26.0,-65.36865234375,38.330078125,-13.427733421325684,-2.2586669921875,0.1578369140625,0.1600341796875
2.121,344,3147,2344,3147,-1.0,25.0,26.0,-58.227535247802734,54.077144622802734,22.888181686401367,-2.0377197265625,0.1485595703125,0.227294921875
2.129,338,3147,2316,3102,-1.0,25.0,26.0,-35.15625,64.5751953125,51.696773529052734,-1.7891845703125,0.2305908203125,0.185302734375
2.137,338,3147,2244,2756,-1.0,25.0,26.0,-10.864256858825684,71.35009765625,68.4814453125,-1.5596923828125,0.3575439453125,0.013671875
2.154,336,3147,2142,1970,-1.0,25.0,26.0,13.977049827575684,73.486328125,73.2421875,-1.1982421875,0.4700927734375,-0.1358642578125
2.159,332,3147,2068,1415,-1.0,25.0,26.0,27.404783248901367,66.58935546875,60.913082122802734,-0.717041015625,0.4111328125,-0.1351318359375
2.180,329,3147,1997,588,-5.0,27.0,24.0,25.756834030151367,51.086421966552734,31.249998092651367,-0.2626953125,0.236572265625,-0.0753173828125
2.181,324,2201,1838,399,-5.0,27.0,24.0,20.935056686401367,31.921384811401367,-5.493163585662842,0.0133056640625,0.115966796875,-0.0333251953125
2.190,323,1398,1826,371,-5.0,27.0,24.0,19.287109375,12.573241233825684,-36.68212890625,0.003662109375,0.08056640625,-0.0423583984375
2.197,322,1014,1861,354,-5.0,27.0,24.0,20.01953125,-4.150390625,-54.321285247802734,-0.19873046875,-0.091552734375,-0.08935546875
2.215,315,632,1810,334,-5.0,27.0,24.0,25.756834030151367,-12.145995140075684,-55.969234466552734,-0.36669921875,-0.2720947265625,-0.125244140625
2.219,312,409,1742,327,-5.0,27.0,24.0,37.353515625,-9.70458984375,-43.823238372802734,-0.4454345703125,-0.130615234375,-0.15087890625
2.227,310,382,1627,327,-5.0,27.0,24.0,38.2080078125,-3.967284917831421,-26.855466842651367,-0.4849853515625,0.099365234375,-0.1688232421875
2.241,308,468,1470,323,-5.0,27.0,24.0,20.812986373901367,0.6713866591453552,-14.709471702575684,-0.47021484375,0.25634765625,-0.16015625
2.249,313,405,1501,323,-5.0,27.0,24.0,5.0048828125,5.615233898162842,-8.056640625,-0.4403076171875,0.421142578125,-0.1151123046875
2.258,308,438,1503,330,-5.0,27.0,24.0,0.30517578125,9.70458984375,-2.990722417831421,-0.451416015625,0.587158203125,-0.0234375
2.278,313,442,1598,330,0.0,27.0,21.0,-2.746581792831421,9.6435546875,0.4882812201976776,-0.5040283203125,0.643798828125,0.083251953125
2.293,313,462,1691,330,0.0,27.0,21.0,-12.390135765075684,5.615233898162842,-0.7934569716453552,-0.5965576171875,0.529052734375,0.1629638671875
2.293,314,482,1753,334,0.0,27.0,21.0,-21.789548873901367,1.7700194120407104,-5.432128429412842,-0.721435546875,0.3701171875,0.176025390625
2.301,313,725,1829,334,0.0,27.0,21.0,-19.775390625,1.220703125,-7.751464366912842,-0.833984375,0.3084716796875,0.1251220703125
2.317,316,725,1878,336,0.0,27.0,21.0,-10.253905296325684,2.50244140625,-5.554198741912842,-0.90673828125,0.315673828125,0.06982421875
2.322,317,765,1899,344,0.0,27.0,21.0,-10.253905296325684,2.50244140625,-5.554198741912842,-0.9451904296875,0.26953125,0.0224609375
2.331,321,938,1922,353,0.0,27.0,21.0,-7.690429210662842,3.540038824081421,2.929687261581421,-0.9586181640625,0.15185546875,-0.040771484375
2.339,318,1206,1946,360,0.0,27.0,21.0,-8.11767578125,3.906249761581421,6.652831554412842,-0.9521484375,0.05908203125,-0.119384765625
2.347,321,1323,1978,371,0.0,27.0,21.0,-8.11767578125,3.906249761581421,6.652831554412842,-0.94384765625,0.0455322265625,-0.187744140625
2.365,322,1605,2007,370,-4.0,27.0,23.0,10.131834983825684,3.295898199081421,16.357421875,-0.94677734375,0.0848388671875,-0.2236328125
2.385,323,1766,2020,375,-4.0,27.0,23.0,20.202634811401367,2.929687261581421,22.583005905151367,-0.95166015625,0.1357421875,-0.220703125
2.386,323,1880,2012,387,-4.0,27.0,23.0,20.202634811401367,2.929687261581421,22.583005905151367,-0.949462890625,0.1824951171875,-0.1767578125
2.391,323,2328,2012,400,-4.0,27.0,23.0,21.850584030151367,5.310058116912842,29.907224655151367,-0.940185546875,0.2176513671875,-0.119384765625
2.404,324,2407,2000,400,-4.0,27.0,23.0,14.526366233825684,8.36181640625,31.555173873901367,-0.9310302734375,0.252685546875,-0.0753173828125
2.407,323,2517,2001,403,-4.0,27.0,23.0,14.526366233825684,8.36181640625,31.555173873901367,-0.9254150390625,0.303955078125,-0.0230712890625
2.424,324,2753,1983,404,-4.0,27.0,23.0,-1.4038084745407104,15.075682640075684,34.3017578125,-0.9073486328125,0.33251953125,0.0152587890625
2.429,324,2961,1983,425,-4.0,27.0,23.0,-5.310058116912842,16.90673828125,35.94970703125,-0.844970703125,0.30859375,0.0218505859375
2.437,324,3147,1961,431,-4.0,27.0,23.0,-5.310058116912842,16.90673828125,35.94970703125,-0.6888427734375,0.23193359375,0.0128173828125
2.453,327,3147,1865,925,-4.0,27.0,23.0,-3.417968511581421,17.578125,44.311519622802734,-0.4005126953125,0.129638671875,0.0296630859375
2.459,324,3147,1855,1269,-7.0,28.0,26.0,2.01416015625,14.038084983825684,46.936031341552734,0.049072265625,0.0643310546875,0.115478515625
2.487,328,3147,1816,1850,-7.0,28.0,26.0,2.01416015625,14.038084983825684,46.936031341552734,0.77099609375,-0.0169677734375,0.204345703125
2.488,330,3147,2012,2398,-7.0,28.0,26.0,18.1884765625,-21.728513717651367,15.441893577575684,1.5308837890625,-0.00341796875,0.1993408203125
2.490,332,3147,2137,2823,-7.0,28.0,26.0,32.89794921875,-57.495113372802734,-21.057126998901367,1.58935546875,0.4334716796875,-0.07373046875
2.498,338,3147,2231,3147,-7.0,28.0,26.0,32.89794921875,-57.495113372802734,-21.057126998901367,0.522216796875,1.1109619140625,-0.664306640625
2.524,344,3147,2456,3147,-7.0,28.0,26.0,46.936031341552734,-112.54882049560547,-96.25243377685547,-1.3011474609375,1.6435546875,-1.1231689453125
2.524,348,3147,2627,3147,-7.0,28.0,26.0,-7.080077648162842,-114.74608612060547,-101.74559783935547,-3.0550537109375,1.6661376953125,-0.8193359375
2.528,351,3147,2785,3147,-7.0,28.0,26.0,-7.080077648162842,-114.74608612060547,-101.74559783935547,-4.0,0.651123046875,0.173095703125
2.542,348,3147,2703,3147,-7.0,28.0,26.0,-129.5166015625,-101.01317596435547,-69.82421875,-4.0,-0.642822265625,0.890625
2.550,348,3147,2581,3147,-7.0,28.0,26.0,-82.70262908935547,-71.533203125,-48.095699310302734,-3.240234375,-1.387939453125,0.7607421875
2.559,347,3147,2504,3147,-1.0,23.0,27.0,-82.70262908935547,-71.533203125,-48.095699310302734,-1.4222412109375,-0.7896728515625,0.3485107421875
2.592,347,3147,2543,3147,-1.0,23.0,27.0,80.87157440185547,2.0751953125,-18.37158203125,-0.6572265625,0.8468017578125,-0.0474853515625
2.592,338,3147,2587,3147,-1.0,23.0,27.0,64.14794921875,19.95849609375,-25.268552780151367,-1.260986328125,1.2791748046875,-0.1866455078125
2.592,344,3147,2561,3147,-1.0,23.0,27.0,64.14794921875,19.95849609375,-25.268552780151367,-2.0013427734375,0.5179443359375,0.0484619140625
2.602,347,3147,2543,3147,-1.0,23.0,27.0,-62.072750091552734,44.555660247802734,-3.356933355331421,-2.2342529296875,0.059326171875,0.1640625
2.610,347,3147,2525,3147,-1.0,23.0,27.0,-55.419918060302734,59.326168060302734,30.883787155151367,-2.0321044921875,0.119384765625,0.1220703125
2.627,346,3147,2492,3147,-1.0,23.0,27.0,-55.419918060302734,59.326168060302734,30.883787155151367,-1.7611083984375,0.28173828125,0.056396484375
2.635,342,3147,2407,3080,-1.0,23.0,27.0,-15.319823265075684,67.44384765625,64.88037109375,-1.5032958984375,0.4241943359375,-0.0465087890625
2.642,342,3147,2334,2748,-1.0,23.0,27.0,9.8876953125,67.44384765625,63.293453216552734,-1.126220703125,0.4725341796875,-0.1163330078125
2.648,338,3147,2272,2347,-1.0,23.0,27.0,9.8876953125,67.44384765625,63.293453216552734,-0.656982421875,0.3524169921875,-0.0885009765625
2.662,332,3147,2186,1323,-5.0,26.0,21.0,31.677244186401367,50.781246185302734,31.066892623901367,-0.2408447265625,0.1832275390625,-0.0338134765625
2.670,328,3147,2076,669,-5.0,26.0,21.0,31.677244186401367,50.781246185302734,31.066892623901367,-0.00390625,0.0828857421875,-0.003173828125
2.696,324,2777,2001,399,-5.0,26.0,21.0,30.273435592651367,35.58349609375,6.408690929412842,-0.00390625,0.0828857421875,-0.003173828125
2.696,309,1602,2024,364,-5.0,26.0,21.0,18.310546875,5.310058116912842,-34.66796875,-0.265869140625,0.00146484375,-0.062744140625
2.701,321,855,2026,348,-5.0,26.0,21.0,18.310546875,5.310058116912842,-34.66796875,-0.450439453125,-0.1600341796875,-0.1075439453125
2.709,318,693,1994,344,-5.0,26.0,21.0,16.78466796875,-2.38037109375,-42.297359466552734,-0.450439453125,-0.1600341796875,-0.1075439453125
2.729,313,456,1855,324,-5.0,26.0,21.0,31.005857467651367,3.173827886581421,-28.015134811401367,-0.587646484375,0.154296875,-0.156494140625
2.730,310,509,1794,323,-5.0,26.0,21.0,31.005857467651367,3.173827886581421,-28.015134811401367,-0.5633544921875,0.21533203125,-0.13330078125
2.744,313,406,1683,324,-5.0,26.0,21.0,15.502928733825684,5.0048828125,-19.04296875,-0.5633544921875,0.21533203125,-0.13330078125
2.752,315,472,1686,323,-1.0,27.0,20.0,-11.596678733825684,13.793944358825684,-5.0048828125,-0.478271484375,0.3529052734375,-0.0333251953125
2.760,313,455,1686,326,-1.0,27.0,20.0,-11.596678733825684,13.793944358825684,-5.0048828125,-0.517822265625,0.50439453125,0.0340576171875
2.768,313,454,1733,324,-1.0,27.0,20.0,-11.108397483825684,17.333984375,2.25830078125,-0.517822265625,0.50439453125,0.0340576171875
2.801,316,487,1838,327,-1.0,27.0,20.0,-10.681151390075684,9.58251953125,1.8310545682907104,-0.704345703125,0.49853515625,0.0709228515625
2.802,313,540,1891,308,-1.0,27.0,20.0,-10.681151390075684,9.58251953125,1.8310545682907104,-0.829345703125,0.338623046875,0.0235595703125
2.802,300,606,1911,328,-1.0,27.0,20.0,-11.840819358825684,3.662109136581421,-3.234863042831421,-0.829345703125,0.338623046875,0.0235595703125
2.812,316,695,1969,332,-1.0,27.0,20.0,0.7324218153953552,2.197265625,-1.7089842557907104,-1.0303955078125,0.1905517578125,-0.043701171875
2.835,316,757,1981,338,-1.0,27.0,20.0,0.7324218153953552,2.197265625,-1.7089842557907104,-1.0347900390625,0.16650390625,-0.041259765625
2.836,316,865,1997,317,-1.0,27.0,20.0,5.126952648162842,3.662109136581421,3.967284917831421,-1.0347900390625,0.16650390625,-0.041259765625
2.843,317,954,2035,313,-1.0,27.0,20.0,1.4038084745407104,6.896972179412842,14.587401390075684,-0.9334716796875,0.09765625,-0.0592041015625
2.854,321,1029,2061,344,-3.0,28.0,23.0,1.4038084745407104,6.896972179412842,14.587401390075684,-0.9000244140625,0.1329345703125,-0.1092529296875
2.859,319,1116,2089,348,-3.0,28.0,23.0,2.807616949081421,8.30078125,19.04296875,-0.9000244140625,0.1329345703125,-0.1092529296875
2.872,321,1357,2102,353,-3.0,28.0,23.0,6.713866710662842,8.7890625,22.521970748901367,-0.88818359375,0.237060546875,-0.1964111328125
2.902,323,1474,2122,356,-3.0,28.0,23.0,8.6669921875,8.48388671875,25.024412155151367,-0.88818359375,0.237060546875,-0.1964111328125
2.903,323,1650,2105,334,-3.0,28.0,23.0,7.324218273162842,8.4228515625,27.587888717651367,-0.8953857421875,0.2119140625,-0.1761474609375
2.903,321,2075,2100,338,-3.0,28.0,23.0,4.5166015625,10.070799827575684,31.860349655151367,-0.881591796875,0.123291015625,-0.0599365234375
2.910,323,2299,2072,371,-3.0,28.0,23.0,1.0986328125,13.793944358825684,37.7197265625,-0.881591796875,0.123291015625,-0.0599365234375
2.918,324,2382,2072,369,-3.0,28.0,23.0,-1.4648436307907104,17.51708984375,43.640132904052734,-0.830810546875,0.13720703125,-0.0316162109375
2.935,324,2716,2004,376,-3.0,28.0,23.0,-1.03759765625,20.01953125,48.767086029052734,-0.7366943359375,0.2681884765625,-0.0291748046875
2.941,324,2981,1960,378,-3.0,28.0,23.0,1.03759765625,22.277830123901367,53.039546966552734,-0.7366943359375,0.2681884765625,-0.0291748046875
2.949,327,3147,1935,525,-3.0,28.0,24.0,2.44140625,24.719236373901367,57.128902435302734,-0.6346435546875,0.2425537109375,-0.0308837890625
2.967,324,3147,1973,1236,-3.0,28.0,24.0,4.82177734375,25.024412155151367,59.692378997802734,0.1275634765625,0.1341552734375,0.173095703125
2.970,328,3147,1974,1693,-3.0,28.0,24.0,11.230467796325684,18.98193359375,56.945796966552734,0.1275634765625,0.1341552734375,0.173095703125
2.978,329,3147,2035,2087,-3.0,28.0,24.0,20.812986373901367,1.8920897245407104,44.982906341552734,0.9910888671875,-0.0400390625,0.293701171875
3.023,332,3147,2176,2840,-3.0,28.0,24.0,32.65380859375,-28.076169967651367,18.61572265625,1.6710205078125,0.4715576171875,-0.10888671875
3.023,338,3147,2296,3147,-3.0,28.0,24.0,52.185054779052734,-65.3076171875,-20.324705123901367,1.6710205078125,0.4715576171875,-0.10888671875
3.023,343,3147,2435,3147,-3.0,28.0,24.0,67.7490234375,-97.59520721435547,-62.561031341552734,0.39794921875,1.2572021484375,-0.7823486328125
3.023,349,3147,2691,3147,-3.0,28.0,24.0,41.748043060302734,-110.41259002685547,-93.44481658935547,-3.3612060546875,1.61962890625,-0.73828125
3.036,355,3147,2833,3147,-3.0,28.0,24.0,-33.203125,-103.39354705810547,-93.93309783935547,-3.3612060546875,1.61962890625,-0.73828125
3.040,348,3147,2741,3147,-3.0,28.0,24.0,-117.37059783935547,-91.49169158935547,-73.66943359375,-4.0,0.7177734375,0.333251953125
3.052,344,3147,2561,3147,-1.0,26.0,29.0,-144.1650390625,-71.35009765625,-46.508785247802734,-2.4893798828125,-1.701171875,0.56103515625
3.060,347,3147,2492,3147,-1.0,26.0,29.0,-85.14403533935547,-38.818359375,-17.88330078125,-2.4893798828125,-1.701171875,0.56103515625
3.068,345,3147,2526,3147,-1.0,26.0,29.0,18.5546875,-7.019042491912842,-1.220703125,-0.557373046875,-0.57666015625,0.3475341796875
3.082,351,3147,2570,3147,-1.0,26.0,29.0,97.83934783935547,18.98193359375,-2.3193359375,-1.470947265625,1.504150390625,-0.5306396484375
3.110,347,3147,2601,3147,-1.0,26.0,29.0,64.5751953125,30.456541061401367,-18.6767578125,-1.470947265625,1.504150390625,-0.5306396484375
3.110,347,3147,2599,3147,-1.0,26.0,29.0,-36.68212890625,29.357908248901367,-27.832029342651367,-2.1494140625,0.6090087890625,-0.2449951171875
3.112,344,3147,2543,3147,-1.0,26.0,29.0,-76.5380859375,32.3486328125,-11.718749046325684,-2.250732421875,0.155517578125,-0.0487060546875
3.120,346,3147,2530,3147,-1.0,26.0,29.0,-53.710933685302734,38.6962890625,15.563963890075684,-1.9595947265625,0.2449951171875,0.0428466796875
3.138,344,3147,2484,3147,-1.0,26.0,29.0,-24.475095748901367,43.334957122802734,35.64453125,-1.688232421875,0.378173828125,0.0767822265625
3.142,342,3147,2415,2810,-1.0,26.0,29.0,-5.249022960662842,49.743648529052734,47.363277435302734,-1.4716796875,0.439697265625,-0.017578125
3.150,337,3147,2337,2435,-4.0,28.0,18.0,9.27734375,54.992671966552734,50.231929779052734,-1.121826171875,0.426025390625,-0.1175537109375
3.158,334,3147,2308,1931,-4.0,28.0,18.0,17.88330078125,50.537105560302734,38.6962890625,-0.662109375,0.3089599609375,-0.127685546875
3.172,330,3147,2135,481,-4.0,28.0,18.0,20.812986373901367,35.15625,12.207030296325684,-0.255859375,0.1771240234375,-0.0972900390625
3.180,323,2421,2026,437,-4.0,28.0,18.0,21.911619186401367,15.197752952575684,-20.01953125,-0.049560546875,0.107177734375,-0.0458984375
3.208,323,1739,2021,390,-4.0,28.0,18.0,21.240232467651367,-3.173827886581421,-45.959468841552734,-0.103759765625,0.055908203125,-0.002197265625
3.208,318,723,2058,322,-4.0,28.0,18.0,20.141599655151367,-15.869139671325684,-58.776851654052734,-0.2867431640625,-0.15283203125,0.0008544921875
3.216,316,564,2014,331,-4.0,28.0,18.0,24.902341842651367,-18.61572265625,-57.434078216552734,-0.41845703125,-0.3082275390625,-0.02294921875
3.219,299,455,1920,324,-4.0,28.0,18.0,36.376953125,-12.512206077575684,-44.067378997802734,-0.4957275390625,-0.1063232421875,-0.0634765625
3.242,310,387,1711,323,-4.0,28.0,18.0,36.1328125,-5.249022960662842,-27.587888717651367,-0.5435791015625,0.1524658203125,-0.1173095703125
3.243,308,371,1610,323,-4.0,28.0,18.0,17.51708984375,-0.30517578125,-17.15087890625,-0.515869140625,0.2803955078125,-0.1529541015625
3.249,310,427,1679,323,-9.0,25.0,25.0,1.03759765625,4.2724609375,-11.901854515075684,-0.45751953125,0.391845703125,-0.144287109375
3.266,308,424,1650,322,-9.0,25.0,25.0,-3.540038824081421,8.7890625,-6.164550304412842,-0.4466552734375,0.528564453125,-0.0982666015625
3.270,310,431,1695,321,-9.0,25.0,25.0,-4.94384765625,10.864256858825684,-0.2441406100988388,-0.492919921875,0.6072998046875,-0.0225830078125
3.278,310,434,1775,323,-9.0,25.0,25.0,-14.221190452575684,9.21630859375,1.5258787870407104,-0.579345703125,0.5360107421875,0.0804443359375
3.307,310,441,1850,321,-9.0,25.0,25.0,-28.930662155151367,5.981444835662842,-0.6713866591453552,-0.6927490234375,0.37451171875,0.1585693359375
3.307,312,418,1900,323,-9.0,25.0,25.0,-34.36279296875,4.57763671875,-2.38037109375,-0.79345703125,0.2850341796875,0.1534423828125
3.309,313,426,1961,323,-9.0,25.0,25.0,-27.282712936401367,4.69970703125,-1.7089842557907104,-0.8724365234375,0.2987060546875,0.0977783203125
3.323,313,472,2012,323,-9.0,25.0,25.0,-18.4326171875,3.662109136581421,-0.1220703050494194,-0.9384765625,0.287109375,0.040283203125
3.330,313,523,2041,330,-9.0,25.0,25.0,-13.061522483825684,1.7089842557907104,1.6479490995407104,-0.982666015625,0.1983642578125,-0.022705078125
3.346,314,526,2074,328,-9.0,25.0,25.0,-8.056640625,1.4038084745407104,4.638671875,-0.998779296875,0.1146240234375,-0.0897216796875
3.353,315,852,2110,334,-1.0,28.0,25.0,-2.563476324081421,2.868652105331421,9.58251953125,-0.9818115234375,0.08203125,-0.1405029296875
3.360,316,960,2131,338,-1.0,28.0,25.0,0.6713866591453552,4.69970703125,15.380858421325684,-0.9415283203125,0.0697021484375,-0.1671142578125
3.368,316,1064,2142,342,-1.0,28.0,25.0,1.7089842557907104,5.737304210662842,20.507810592651367,-0.900634765625,0.065673828125,-0.1767578125
3.383,318,1312,2167,346,-1.0,28.0,25.0,4.69970703125,5.615233898162842,24.475095748901367,-0.8746337890625,0.08935546875,-0.1748046875
3.390,319,1592,2158,351,-1.0,28.0,25.0,10.864256858825684,4.7607421875,28.320310592651367,-0.8690185546875,0.1356201171875,-0.1639404296875
3.409,317,1792,2158,351,-1.0,28.0,25.0,16.54052734375,5.0048828125,33.02001953125,-0.87890625,0.1884765625,-0.141845703125
3.417,322,2160,2178,359,-1.0,28.0,25.0,17.08984375,7.690429210662842,38.57421875,-0.8741455078125,0.232177734375,-0.1043701171875
3.420,321,2319,2171,359,-1.0,28.0,25.0,8.7890625,13.305663108825684,43.823238372802734,-0.825927734375,0.2528076171875,-0.0479736328125
3.429,323,2587,2152,369,-1.0,28.0,25.0,-6.774901866912842,20.446775436401367,47.180171966552734,-0.7247314453125,0.2432861328125,0.0189208984375
3.445,323,3147,2087,509,-4.0,27.0,22.0,-17.08984375,23.681638717651367,47.241207122802734,-0.5413818359375,0.1744384765625,0.086181640625
3.450,326,3147,2039,1009,-4.0,27.0,22.0,-9.521484375,17.333984375,42.419429779052734,-0.1925048828125,0.0631103515625,0.1392822265625
3.458,324,3147,2061,1476,-4.0,27.0,22.0,12.695311546325684,1.0986328125,31.433103561401367,0.39013671875,0.0401611328125,0.138671875
3.472,332,3147,2271,2308,-4.0,27.0,22.0,37.53662109375,-23.193357467651367,13.732909202575684,1.1112060546875,0.2293701171875,0.05908203125
3.480,334,3147,2359,2760,-4.0,27.0,22.0,52.490230560302734,-55.358882904052734,-12.207030296325684,1.5516357421875,0.64111328125,-0.16162109375
3.488,344,3147,2437,3147,-4.0,27.0,22.0,48.950191497802734,-89.90477752685547,-46.691890716552734,1.0692138671875,1.04150390625,-0.5948486328125
3.504,348,3147,2695,3147,-4.0,27.0,22.0,21.179197311401367,-113.52538299560547,-83.06884002685547,-0.431640625,1.294921875,-1.0234375
3.513,354,3147,2840,3147,-4.0,27.0,22.0,-29.541013717651367,-119.68993377685547,-104.37010955810547,-2.3128662109375,1.4954833984375,-0.991455078125
3.518,356,3147,2950,3147,-4.0,27.0,22.0,-99.54833221435547,-118.95751190185547,-103.27147674560547,-3.564453125,0.9063720703125,-0.236572265625
3.551,354,3147,2970,3147,-4.0,27.0,22.0,-156.6162109375,-120.30028533935547,-98.99901580810547,-3.9560546875,-0.5113525390625,0.9576416015625
3.551,348,3147,2793,3147,-1.0,25.0,21.0,-124.20653533935547,-106.01805877685547,-90.63719940185547,-3.7926025390625,-1.2757568359375,1.309814453125
3.551,356,3147,2736,3147,-1.0,25.0,21.0,-17.2119140625,-63.415523529052734,-62.011714935302734,-2.53076171875,-1.1309814453125,0.756103515625
3.562,354,3147,2770,3147,-1.0,25.0,21.0,69.64111328125,-11.352538108825684,-24.597166061401367,-0.9840087890625,-0.21484375,0.365234375
3.570,354,3147,2799,3147,-1.0,25.0,21.0,85.51024627685547,31.127927780151367,6.591796398162842,-0.8577880859375,0.7757568359375,0.11572265625
3.578,348,3147,2795,3147,-1.0,25.0,21.0,85.51024627685547,31.127927780151367,6.591796398162842,-1.7178955078125,0.74267578125,-0.0633544921875
3.592,348,3147,2765,3147,-1.0,25.0,21.0,-44.616695404052734,74.21875,46.020503997802734,-2.3089599609375,0.3370361328125,-0.1314697265625
3.602,347,3147,2756,3147,-1.0,25.0,21.0,-70.80078125,80.50536346435547,63.232418060302734,-2.2767333984375,0.3082275390625,-0.1278076171875
3.614,347,3147,2716,3147,-1.0,25.0,21.0,-70.80078125,80.50536346435547,63.232418060302734,-1.91064453125,0.5174560546875,-0.0572509765625
3.622,346,3147,2645,3147,-1.0,25.0,21.0,-35.21728515625,67.2607421875,65.0634765625,-1.55322265625,0.687255859375,-0.0787353515625
3.630,338,3147,2578,2941,-1.0,25.0,21.0,-4.39453125,60.302730560302734,52.734371185302734,-1.2291259765625,0.7091064453125,-0.1881103515625
3.648,345,3147,2516,2530,-1.0,27.0,25.0,-4.39453125,60.302730560302734,52.734371185302734,-0.8570556640625,0.55615234375,-0.2186279296875
3.652,338,3147,2443,1439,-1.0,27.0,25.0,31.555173873901367,43.457027435302734,24.841306686401367,-0.46142578125,0.3017578125,-0.131103515625
3.662,334,3147,2356,648,-1.0,27.0,25.0,24.719236373901367,29.357908248901367,6.103515148162842,-0.12451171875,0.0255126953125,0.0087890625
3.668,330,2798,2279,388,-1.0,27.0,25.0,24.719236373901367,29.357908248901367,6.103515148162842,-0.0025634765625,-0.1256103515625,0.11865234375
3.682,323,1450,2135,361,-1.0,27.0,25.0,6.958007335662842,3.051757574081421,-27.587888717651367,-0.1435546875,-0.095703125,0.10888671875
3.690,318,927,2172,347,-1.0,27.0,25.0,6.530761241912842,-4.82177734375,-35.888671875,-0.375,-0.119140625,0.02294921875
3.698,318,722,2174,346,-1.0,27.0,25.0,6.530761241912842,-4.82177734375,-35.888671875,-0.51123046875,-0.242431640625,-0.036865234375
3.712,315,548,2102,327,-1.0,27.0,25.0,19.34814453125,2.197265625,-27.160642623901367,-0.5423583984375,-0.1541748046875,-0.08544921875
3.722,310,487,2050,324,-1.0,27.0,25.0,28.991697311401367,12.390135765075684,-11.474608421325684,-0.55615234375,0.12109375,-0.07958984375
3.728,312,382,2005,323,-1.0,27.0,25.0,28.991697311401367,12.390135765075684,-11.474608421325684,-0.569580078125,0.2362060546875,-0.024169921875
3.762,313,403,1863,322,-1.0,28.0,25.0,-3.662109136581421,21.301267623901367,7.141112804412842,-0.574951171875,0.2412109375,-0.00341796875
3.765,313,411,1846,323,-1.0,28.0,25.0,-7.629394054412842,25.451658248901367,12.817381858825684,-0.586181640625,0.36328125,-0.041259765625
3.765,308,407,1874,323,-1.0,28.0,25.0,-7.629394054412842,25.451658248901367,12.817381858825684,-0.58984375,0.570068359375,-0.1009521484375
3.773,313,501,1978,327,-1.0,28.0,25.0,5.065917491912842,20.874021530151367,13.854979515075684,-0.598388671875,0.6795654296875,-0.0926513671875
3.781,315,467,2047,322,-1.0,28.0,25.0,-1.3427733182907104,12.023924827575684,5.187987804412842,-0.6571044921875,0.5948486328125,-0.014404296875
3.788,315,539,2093,331,-1.0,28.0,25.0,-1.3427733182907104,12.023924827575684,5.187987804412842,-0.6571044921875,0.5948486328125,-0.014404296875
3.815,316,748,2142,334,-1.0,28.0,25.0,-11.840819358825684,6.591796398162842,-3.173827886581421,-0.8858642578125,0.3306884765625,0.0648193359375
3.819,318,788,2170,334,-1.0,28.0,25.0,-11.840819358825684,6.591796398162842,-3.173827886581421,-0.9481201171875,0.2574462890625,0.052001953125
3.820,317,998,2174,343,-1.0,28.0,25.0,-11.291502952575684,8.72802734375,2.13623046875,-0.9481201171875,0.2574462890625,0.052001953125
3.832,321,1112,2194,345,0.0,29.0,21.0,-12.695311546325684,13.183592796325684,16.17431640625,-0.9639892578125,0.063720703125,-0.03515625
3.840,322,1411,2218,348,0.0,29.0,21.0,-12.695311546325684,13.183592796325684,16.17431640625,-0.9678955078125,0.0699462890625,-0.13427734375
3.859,321,1641,2260,359,0.0,29.0,21.0,-8.4228515625,16.11328125,21.301267623901367,-0.9678955078125,0.0699462890625,-0.13427734375
3.868,321,1830,2284,359,0.0,29.0,21.0,5.126952648162842,13.061522483825684,24.719236373901367,-0.9716796875,0.18212890625,-0.2711181640625
3.873,323,1954,2290,360,0.0,29.0,21.0,5.126952648162842,13.061522483825684,24.719236373901367,-0.9539794921875,0.2227783203125,-0.2445068359375
3.878,323,2100,2266,361,0.0,29.0,21.0,6.713866710662842,10.864256858825684,26.000974655151367,-0.9539794921875,0.2227783203125,-0.2445068359375
3.892,323,2379,2233,363,0.0,29.0,21.0,1.9531248807907104,16.66259765625,31.311033248901367,-0.913818359375,0.2666015625,-0.1085205078125
3.901,323,2448,2240,370,0.0,29.0,21.0,1.9531248807907104,16.66259765625,31.311033248901367,-0.9315185546875,0.239013671875,-0.032958984375
3.924,319,2631,2220,375,0.0,29.0,21.0,-4.2724609375,23.193357467651367,36.1328125,-0.9315185546875,0.239013671875,-0.032958984375
3.924,324,2851,2194,376,0.0,29.0,21.0,-16.05224609375,35.888671875,52.490230560302734,-0.886474609375,0.1246337890625,0.0633544921875
3.930,324,3140,2183,376,-5.0,30.0,21.0,-16.05224609375,35.888671875,52.490230560302734,-0.644287109375,0.04736328125,0.013671875
3.938,324,3147,2183,620,-5.0,30.0,21.0,-10.253905296325684,35.15625,62.194820404052734,-0.644287109375,0.04736328125,0.013671875
3.963,327,3147,2178,1283,-5.0,30.0,21.0,16.357421875,19.71435546875,64.88037109375,0.1282958984375,0.3367919921875,-0.058349609375
3.964,330,3147,2231,1689,-5.0,30.0,21.0,16.357421875,19.71435546875,64.88037109375,0.7857666015625,0.3258056640625,-0.049072265625
3.968,331,3147,2281,2195,-5.0,30.0,21.0,23.132322311401367,-0.2441406100988388,41.076656341552734,0.7857666015625,0.3258056640625,-0.049072265625
3.982,342,3147,2421,2962,-5.0,30.0,21.0,40.0390625,-84.28954315185547,-52.490230560302734,1.6087646484375,0.4107666015625,-0.1402587890625
3.990,344,3147,2449,3147,-5.0,30.0,21.0,40.0390625,-84.28954315185547,-52.490230560302734,0.556884765625,0.9779052734375,-0.493408203125
3.998,346,3147,2599,3147,-5.0,30.0,21.0,50.598140716552734,-122.25341033935547,-86.97509002685547,0.556884765625,0.9779052734375,-0.493408203125
4.026,356,3147,2879,3147,-5.0,30.0,21.0,38.57421875,-136.8408203125,-102.29491424560547,-2.9716796875,1.816650390625,-0.6290283203125
4.026,363,3147,3000,3147,-5.0,30.0,21.0,-12.939452171325684,-129.33349609375,-102.41698455810547,-2.9716796875,1.816650390625,-0.6290283203125
4.028,359,3147,3042,3147,2.0,24.0,24.0,-93.01757049560547,-113.76952362060547,-96.00829315185547,-3.89013671875,0.5819091796875,0.199951171875
4.042,356,3147,2854,3147,2.0,24.0,24.0,-141.17431640625,-94.78759002685547,-89.66063690185547,-3.4088134765625,-1.345458984375,0.67236328125
4.057,354,3147,2795,3147,2.0,24.0,24.0,-96.19139862060547,-63.049312591552734,-67.87109375,-3.4088134765625,-1.345458984375,0.67236328125
4.067,333,3147,2804,3147,2.0,24.0,24.0,-5.493163585662842,-24.475095748901367,-36.43798828125,-1.7122802734375,-0.8687744140625,0.2701416015625
4.073,347,3147,2832,3147,2.0,24.0,24.0,52.246089935302734,6.958007335662842,-19.47021484375,-1.0986328125,1.24951171875,-0.1114501953125
4.080,349,3147,2828,3147,2.0,24.0,24.0,43.518062591552734,29.235837936401367,-15.014647483825684,-1.0986328125,1.24951171875,-0.1114501953125
4.093,349,3147,2798,3147,2.0,24.0,24.0,-20.690916061401367,44.677730560302734,-8.97216796875,-2.060302734375,0.77783203125,-0.1571044921875
4.102,347,3147,2724,3147,2.0,24.0,24.0,-66.89453125,56.640621185302734,10.131834983825684,-2.2305908203125,0.1390380859375,-0.0234375
4.114,347,3147,2692,3147,2.0,24.0,24.0,-58.959957122802734,63.842769622802734,37.53662109375,-2.2305908203125,0.1390380859375,-0.0234375
4.127,347,3147,2635,3147,2.0,24.0,24.0,-26.977537155151367,63.293453216552734,56.457515716552734,-1.81396484375,0.384033203125,-0.04736328125
4.132,344,3147,2552,2984,-1.0,28.0,25.0,3.601073980331421,57.922359466552734,59.204097747802734,-1.0157470703125,0.7154541015625,-0.2984619140625
4.142,342,3147,2507,2512,-1.0,28.0,25.0,25.390623092651367,48.889156341552734,48.583980560302734,-1.0157470703125,0.7154541015625,-0.2984619140625
4.148,336,3147,2445,1908,-1.0,28.0,25.0,32.71484375,34.7900390625,27.770994186401367,-0.5595703125,0.5289306640625,-0.2236328125
4.165,332,3147,2341,473,-1.0,28.0,25.0,27.770994186401367,19.1650390625,0.7934569716453552,0.0655517578125,0.00390625,0.1097412109375
4.174,328,2541,2287,384,-1.0,28.0,25.0,18.1884765625,7.080077648162842,-25.085447311401367,0.0655517578125,0.00390625,0.1097412109375
4.178,324,1373,2233,361,-1.0,28.0,25.0,8.544921875,-1.03759765625,-42.602535247802734,-0.0452880859375,-0.0570068359375,0.2041015625
4.192,316,788,2235,334,-1.0,28.0,25.0,1.03759765625,-6.530761241912842,-49.194332122802734,-0.526611328125,-0.2882080078125,0.006103515625
4.206,315,605,2209,329,-1.0,28.0,25.0,-1.5869139432907104,-7.873534679412842,-47.119136810302734,-0.526611328125,-0.2882080078125,0.006103515625
4.208,313,437,2204,324,-1.0,28.0,25.0,7.995604991912842,-2.0751953125,-36.43798828125,-0.5745849609375,-0.33447265625,-0.1068115234375
4.228,315,377,2065,322,-1.0,26.0,24.0,25.512693405151367,6.896972179412842,-19.287109375,-0.53271484375,0.2059326171875,-0.0517578125
4.230,313,347,2019,321,-1.0,26.0,24.0,25.329587936401367,10.681151390075684,-4.69970703125,-0.53271484375,0.2059326171875,-0.0517578125
4.238,313,391,1961,322,-1.0,26.0,24.0,5.0048828125,11.291502952575684,3.295898199081421,-0.514404296875,0.291748046875,0.0313720703125
4.252,315,364,1981,318,-1.0,26.0,24.0,-9.521484375,15.441893577575684,8.85009765625,-0.5244140625,0.3902587890625,0.0592041015625
4.269,312,416,2037,322,-1.0,26.0,24.0,-10.375975608825684,20.507810592651367,14.160155296325684,-0.55908203125,0.58203125,0.024658203125
4.269,315,411,2063,323,-1.0,26.0,24.0,-9.27734375,19.59228515625,15.441893577575684,-0.58251953125,0.6932373046875,-0.02099609375
4.285,315,508,2183,324,-1.0,26.0,24.0,-13.732909202575684,11.535643577575684,10.498045921325684,-0.6275634765625,0.5543212890625,-0.0382080078125
4.290,316,601,2217,328,-1.0,26.0,24.0,-15.869139671325684,3.295898199081421,3.479003667831421,-0.71923828125,0.313720703125,-0.0467529296875
4.298,316,735,2230,336,-1.0,26.0,24.0,-8.7890625,-0.3662109076976776,0.0,-0.8450927734375,0.1754150390625,-0.0560302734375
4.319,318,766,2281,338,-1.0,26.0,24.0,1.0986328125,-1.8310545682907104,0.9765624403953552,-0.95751953125,0.1162109375,-0.0615234375
4.331,317,1004,2310,346,-1.0,28.0,22.0,7.263183116912842,-3.479003667831421,4.638671875,-1.00439453125,0.0474853515625,-0.0714111328125
4.332,323,1211,2333,347,-1.0,28.0,22.0,11.474608421325684,-3.906249761581421,10.070799827575684,-0.9857177734375,-0.0174560546875,-0.0772705078125
4.342,322,1473,2357,361,-1.0,28.0,22.0,17.51708984375,-1.6479490995407104,17.51708984375,-0.9453125,-0.021728515625,-0.06640625
4.350,324,1854,2374,364,-1.0,28.0,22.0,26.123044967651367,1.7700194120407104,26.306150436401367,-0.92626953125,0.04345703125,-0.063720703125
4.370,324,2060,2375,369,-1.0,28.0,22.0,33.87451171875,4.57763671875,33.99658203125,-0.93505859375,0.173828125,-0.08447265625
4.372,327,2321,2414,375,-1.0,28.0,22.0,34.48486328125,6.530761241912842,38.51318359375,-0.9462890625,0.322998046875,-0.1046142578125
4.387,324,2330,2410,375,-1.0,28.0,22.0,25.268552780151367,8.4228515625,39.794921875,-0.938720703125,0.395263671875,-0.1009521484375
4.390,327,2471,2396,359,-1.0,28.0,22.0,11.962889671325684,11.779784202575684,40.649410247802734,-0.925048828125,0.371826171875,-0.0614013671875
4.402,328,2970,2349,386,-1.0,28.0,22.0,1.220703125,17.63916015625,44.067378997802734,-0.9224853515625,0.3092041015625,0.000732421875
4.410,328,3147,2341,390,-1.0,28.0,22.0,-6.103515148162842,24.536130905151367,50.109859466552734,-0.8956298828125,0.2271728515625,0.0255126953125
4.433,328,3147,2323,399,-4.0,29.0,19.0,-7.202147960662842,26.733396530151367,57.250972747802734,-0.8050537109375,0.1173095703125,-0.029541015625
4.433,328,3147,2247,841,-4.0,29.0,19.0,5.798339366912842,20.874021530151367,64.0869140625,-0.628662109375,0.06103515625,-0.0972900390625
4.440,329,3147,2261,1143,-4.0,29.0,19.0,23.010251998901367,13.366698265075684,67.7490234375,-0.343017578125,0.2177734375,-0.080810546875
4.450,329,3147,2217,1447,-4.0,29.0,19.0,24.536130905151367,10.681151390075684,61.950679779052734,0.0054931640625,0.5142822265625,0.0064697265625
4.465,330,3147,2238,2060,-4.0,29.0,19.0,8.6669921875,7.812499523162842,39.85595703125,0.4002685546875,0.631591796875,0.1373291015625
4.470,334,3147,2292,2514,-4.0,29.0,19.0,-12.084959983825684,-5.554198741912842,2.0751953125,0.8250732421875,0.4334716796875,0.206298828125
4.478,338,3147,2347,2962,-4.0,29.0,19.0,-13.244627952575684,-34.5458984375,-37.90283203125,1.0322265625,0.231201171875,0.00341796875
4.494,345,3147,2519,3147,-4.0,29.0,19.0,17.88330078125,-72.509765625,-65.7958984375,0.710205078125,0.4019775390625,-0.5010986328125
4.500,347,3147,2673,3147,-4.0,29.0,19.0,46.020503997802734,-103.08837127685547,-80.50536346435547,-0.37353515625,0.9486083984375,-0.990478515625
4.508,356,3147,2843,3147,-4.0,29.0,19.0,26.794431686401367,-116.08885955810547,-87.95165252685547,-2.0433349609375,1.3983154296875,-1.029052734375
4.534,359,3147,2970,3147,-1.0,30.0,25.0,-44.616695404052734,-115.60057830810547,-92.52928924560547,-3.3388671875,0.9490966796875,-0.417724609375
4.535,359,3147,3020,3147,-1.0,30.0,25.0,-121.03270721435547,-111.51122283935547,-94.48241424560547,-3.8626708984375,-0.06640625,0.5552978515625
4.544,354,3147,2899,3147,-1.0,30.0,25.0,-123.59618377685547,-99.36522674560547,-79.77294921875,-3.7591552734375,-0.6683349609375,0.7767333984375
4.552,359,3147,2792,3147,-1.0,30.0,25.0,-50.354000091552734,-73.73046875,-52.062984466552734,-2.3909912109375,-0.7314453125,0.418212890625
4.568,356,3147,2820,3147,-1.0,30.0,25.0,28.442380905151367,-43.823238372802734,-34.48486328125,-0.7686767578125,0.0789794921875,0.2431640625
4.570,351,3147,2869,3147,-1.0,30.0,25.0,64.5751953125,-17.15087890625,-29.479978561401367,-0.6041259765625,1.0040283203125,0.0899658203125
4.582,354,3147,2877,3147,-1.0,30.0,25.0,35.888671875,4.33349609375,-28.564451217651367,-1.4097900390625,0.794921875,0.1143798828125
4.590,352,3147,2847,3147,-1.0,30.0,25.0,-16.7236328125,26.123044967651367,-16.90673828125,-2.1173095703125,0.1689453125,0.185546875
4.602,351,3147,2810,3147,-1.0,30.0,25.0,-41.015621185302734,48.889156341552734,13.061522483825684,-2.279541015625,-0.0250244140625,0.1474609375
4.612,351,3147,2722,3147,-1.0,25.0,24.0,-42.297359466552734,63.598628997802734,45.776363372802734,-2.043701171875,0.13427734375,0.1309814453125
4.626,346,3147,2677,3147,-1.0,25.0,24.0,-33.75244140625,70.25146484375,66.71142578125,-1.750244140625,0.39453125,0.1151123046875
4.639,346,3147,2627,3147,-1.0,25.0,24.0,-18.5546875,75.0732421875,75.13427734375,-1.4765625,0.6124267578125,0.0042724609375
4.642,343,3147,2581,2698,-1.0,25.0,24.0,-1.4648436307907104,77.880859375,70.49560546875,-1.1136474609375,0.65185546875,-0.1051025390625
4.657,344,3147,2505,2210,-1.0,25.0,24.0,7.202147960662842,73.30322265625,51.147457122802734,-0.642333984375,0.451171875,-0.10693359375
4.658,336,3147,2445,1603,-1.0,25.0,24.0,7.812499523162842,59.448238372802734,22.888181686401367,-0.174560546875,0.2088623046875,-0.04345703125
4.675,332,3147,2316,426,-1.0,25.0,24.0,9.94873046875,39.61181640625,-5.310058116912842,0.0921630859375,0.0704345703125,0.02490234375
4.680,327,2419,2233,382,-1.0,25.0,24.0,12.451170921325684,18.12744140625,-26.855466842651367,0.0244140625,0.02587890625,0.023193359375
4.688,327,1816,2186,371,-1.0,25.0,24.0,13.671874046325684,0.2441406100988388,-38.0859375,-0.23974609375,-0.058837890625,-0.0911865234375
4.710,323,944,2290,351,-1.0,25.0,24.0,16.41845703125,-8.72802734375,-39.61181640625,-0.4688720703125,-0.268798828125,-0.1910400390625
4.711,318,759,2233,348,0.0,26.0,24.0,25.573728561401367,-5.859374523162842,-31.005857467651367,-0.570556640625,-0.340087890625,-0.19970703125
4.718,317,601,2127,338,0.0,26.0,24.0,25.573728561401367,-5.859374523162842,-31.005857467651367,-0.5814208984375,-0.1090087890625,-0.156005859375
4.743,315,364,1944,324,0.0,26.0,24.0,36.62109375,12.695311546325684,1.7700194120407104,-0.5689697265625,0.14306640625,-0.0849609375
4.743,313,425,1867,334,0.0,26.0,24.0,14.648436546325684,16.4794921875,8.9111328125,-0.5604248046875,0.281005859375,-0.035888671875
4.748,315,466,1860,334,0.0,26.0,24.0,14.648436546325684,16.4794921875,8.9111328125,-0.5635986328125,0.455322265625,-0.0205078125
4.776,313,513,1935,334,0.0,26.0,24.0,-4.39453125,18.798828125,12.084959983825684,-0.5772705078125,0.631591796875,-0.0185546875
4.777,315,521,2018,338,0.0,26.0,24.0,-1.0986328125,13.610838890075684,11.657713890075684,-0.6248779296875,0.7083740234375,0.0164794921875
4.778,316,523,2089,338,0.0,26.0,24.0,-1.0986328125,13.610838890075684,11.657713890075684,-0.7047119140625,0.6478271484375,0.0728759765625
4.792,321,678,2129,347,0.0,26.0,24.0,4.57763671875,-1.0986328125,3.906249761581421,-0.7882080078125,0.484130859375,0.078125
4.801,318,738,2180,348,0.0,26.0,24.0,6.591796398162842,-3.356933355331421,-0.54931640625,-0.868408203125,0.3372802734375,0.03466796875
4.815,323,894,2207,359,1.0,29.0,21.0,6.591796398162842,-3.356933355331421,-0.54931640625,-0.9337158203125,0.2486572265625,-0.0108642578125
4.822,322,1042,2235,360,1.0,29.0,21.0,4.69970703125,-0.1220703050494194,0.4882812201976776,-0.9661865234375,0.162841796875,-0.0531005859375
4.843,321,1122,2263,363,1.0,29.0,21.0,2.746581792831421,2.929687261581421,5.798339366912842,-0.9700927734375,0.0904541015625,-0.0941162109375
4.843,324,1196,2292,371,1.0,29.0,21.0,2.746581792831421,2.929687261581421,5.798339366912842,-0.9744873046875,0.0794677734375,-0.125
4.852,324,1398,2321,371,1.0,29.0,21.0,6.530761241912842,11.779784202575684,20.385740280151367,-0.9954833984375,0.1207275390625,-0.1341552734375
4.860,324,1519,2330,376,1.0,29.0,21.0,9.3994140625,13.488768577575684,26.245115280151367,-1.0244140625,0.164794921875,-0.12890625
4.876,327,1598,2334,380,1.0,29.0,21.0,9.3994140625,13.488768577575684,26.245115280151367,-1.0394287109375,0.1925048828125,-0.120849609375
4.889,326,1798,2333,383,1.0,29.0,21.0,16.4794921875,11.596678733825684,34.1796875,-1.0224609375,0.2142333984375,-0.111083984375
4.890,327,1805,2320,384,1.0,29.0,21.0,19.95849609375,12.329100608825684,39.61181640625,-0.9822998046875,0.233154296875,-0.089599609375
4.898,327,1948,2316,386,1.0,29.0,21.0,19.95849609375,12.329100608825684,39.61181640625,-0.937744140625,0.2373046875,-0.05126953125
4.912,324,2028,2254,382,-4.0,27.0,20.0,18.98193359375,21.850584030151367,54.138179779052734,-0.8953857421875,0.21923828125,-0.011474609375
4.920,328,2012,2247,393,-4.0,27.0,20.0,13.244627952575684,30.578611373901367,62.866207122802734,-0.81689453125,0.1900634765625,0.005126953125
4.942,323,2188,2194,403,-4.0,27.0,20.0,13.244627952575684,30.578611373901367,62.866207122802734,-0.81689453125,0.1900634765625,0.005126953125
4.945,324,2948,2141,411,-4.0,27.0,20.0,-7.385253429412842,47.180171966552734,72.20458984375,-0.3690185546875,0.278564453125,0.0546875
4.950,327,3147,2155,683,-4.0,27.0,20.0,-7.385253429412842,47.180171966552734,72.20458984375,0.0411376953125,0.255126953125,0.1591796875
4.958,327,3147,2119,1156,-4.0,27.0,20.0,-10.498045921325684,43.273921966552734,63.171382904052734,0.0411376953125,0.255126953125,0.1591796875
4.980,331,3147,2244,1994,-4.0,27.0,20.0,13.000487327575684,-2.25830078125,11.596678733825684,1.7305908203125,-0.142333984375,0.2484130859375
4.983,334,3147,2308,2448,-4.0,27.0,20.0,13.000487327575684,-2.25830078125,11.596678733825684,2.205810546875,0.1207275390625,-0.097900390625
4.994,336,3147,2359,2899,-4.0,27.0,20.0,39.1845703125,-39.97802734375,-28.869626998901367,2.205810546875,0.1207275390625,-0.097900390625
5.002,348,3147,2616,3147,-4.0,27.0,20.0,53.222652435302734,-120.72753143310547,-97.10692596435547,-0.714599609375,1.6378173828125,-1.302978515625
5.010,354,3147,2831,3147,0.0,28.0,23.0,53.222652435302734,-120.72753143310547,-97.10692596435547,-2.7794189453125,2.276123046875,-1.343017578125
5.018,359,3147,2984,3147,0.0,28.0,23.0,0.7324218153953552,-127.74657440185547,-100.21971893310547,-2.7794189453125,2.276123046875,-1.343017578125
5.036,355,3147,2993,3147,0.0,28.0,23.0,-173.52293395996094,-112.12157440185547,-74.8291015625,-4.0,-0.2762451171875,0.9837646484375
5.052,351,3147,2944,3147,0.0,28.0,23.0,-173.52293395996094,-112.12157440185547,-74.8291015625,-3.5924072265625,-1.6444091796875,1.07666015625
5.052,353,3147,2832,3147,0.0,28.0,23.0,-142.4560546875,-86.24266815185547,-59.326168060302734,-3.5924072265625,-1.6444091796875,1.07666015625
5.064,348,3147,2844,3147,0.0,28.0,23.0,93.56688690185547,-0.9765624403953552,-17.2119140625,-0.42041015625,0.4951171875,0.0159912109375
5.071,347,3147,2888,3147,0.0,28.0,23.0,93.56688690185547,-0.9765624403953552,-17.2119140625,-0.882568359375,1.5888671875,-0.5372314453125
5.081,348,3147,2879,3147,0.0,28.0,23.0,110.59569549560547,23.925779342651367,-21.301267623901367,-0.882568359375,1.5888671875,-0.5372314453125
5.092,347,3147,2859,3147,0.0,28.0,23.0,-58.715816497802734,34.7900390625,-13.977049827575684,-2.25244140625,0.1602783203125,-0.069091796875
5.157,347,3147,2830,3147,0.0,28.0,23.0,-58.715816497802734,34.7900390625,-13.977049827575684,-2.1551513671875,0.078125,0.091552734375
5.157,347,3147,2790,3147,0.0,25.0,25.0,-61.645503997802734,43.273921966552734,16.41845703125,-2.1551513671875,0.078125,0.091552734375
5.158,344,3147,2683,3147,0.0,25.0,25.0,-10.681151390075684,53.649898529052734,54.626461029052734,-1.648193359375,0.5428466796875,-0.01513671875
5.159,346,3147,2638,2984,0.0,25.0,25.0,-10.681151390075684,53.649898529052734,54.626461029052734,-1.3441162109375,0.7103271484375,-0.2017822265625
5.159,344,3147,2569,2621,0.0,25.0,25.0,10.986327171325684,55.114742279052734,57.861324310302734,-1.3441162109375,0.7103271484375,-0.2017822265625
5.160,336,3147,2460,1743,0.0,25.0,25.0,23.742673873901367,49.255367279052734,47.729488372802734,-0.3946533203125,0.312744140625,-0.129150390625
5.161,334,3147,2384,989,0.0,25.0,25.0,23.376462936401367,36.19384765625,24.169919967651367,-0.3946533203125,0.312744140625,-0.129150390625
5.169,328,3147,2279,403,0.0,25.0,25.0,19.8974609375,20.935056686401367,-4.39453125,-0.025634765625,0.0439453125,0.0166015625
5.185,323,2247,2202,378,0.0,25.0,25.0,19.8974609375,7.019042491912842,-28.625486373901367,0.056396484375,-0.0234375,0.10400390625
5.191,300,799,2217,347,0.0,25.0,25.0,18.12744140625,-4.150390625,-42.785640716552734,-0.3726806640625,-0.2017822265625,0.0455322265625
5.199,316,695,2212,338,0.0,25.0,25.0,12.878417015075684,-10.192870140075684,-46.752925872802734,-0.3726806640625,-0.2017822265625,0.0455322265625
5.207,313,473,2118,323,-2.0,30.0,20.0,13.793944358825684,-7.324218273162842,-40.954586029052734,-0.5164794921875,-0.3028564453125,-0.0091552734375
5.221,310,364,2028,324,-2.0,30.0,20.0,24.780271530151367,2.44140625,-26.062009811401367,-0.603271484375,0.1829833984375,-0.1292724609375
5.257,308,391,1883,328,-2.0,30.0,20.0,26.000974655151367,9.46044921875,-11.413573265075684,-0.603271484375,0.1829833984375,-0.1292724609375
5.258,299,383,1792,328,-2.0,30.0,20.0,8.056640625,9.765625,-5.676269054412842,-0.597412109375,0.299072265625,-0.147705078125
5.258,308,385,1689,323,-2.0,30.0,20.0,-7.568358898162842,8.30078125,-5.126952648162842,-0.5614013671875,0.371826171875,-0.169189453125
5.260,292,383,1713,327,-2.0,30.0,20.0,-9.21630859375,8.85009765625,-2.197265625,-0.5367431640625,0.49658203125,-0.1773681640625
5.269,306,376,1730,328,-2.0,30.0,20.0,-6.958007335662842,9.765625,2.807616949081421,-0.556396484375,0.5965576171875,-0.1072998046875
5.289,309,388,1855,328,-2.0,30.0,20.0,-10.253905296325684,8.1787109375,5.310058116912842,-0.6082763671875,0.5665283203125,0.02587890625
5.291,296,375,1907,306,-2.0,30.0,20.0,-17.76123046875,4.2724609375,3.540038824081421,-0.6763916015625,0.461669921875,0.129638671875
5.299,309,348,2005,328,-2.0,30.0,20.0,-22.033689498901367,0.30517578125,-0.4272460639476776,-0.762451171875,0.392333984375,0.144775390625
5.313,315,414,2062,328,-2.0,28.0,24.0,-20.568845748901367,-2.13623046875,-2.868652105331421,-0.8564453125,0.361572265625,0.0906982421875
5.322,315,416,2116,330,-2.0,28.0,24.0,-16.90673828125,-2.868652105331421,-1.8920897245407104,-0.9251708984375,0.3170166015625,0.0130615234375
5.332,316,456,2131,334,-2.0,28.0,24.0,-13.488768577575684,-2.3193359375,1.6479490995407104,-0.9501953125,0.230712890625,-0.05859375
5.361,318,606,2195,338,-2.0,28.0,24.0,-11.291502952575684,-0.9155272841453552,6.286620616912842,-0.941162109375,0.1253662109375,-0.1121826171875
5.361,306,731,2228,342,-2.0,28.0,24.0,-9.27734375,1.15966796875,11.291502952575684,-0.9228515625,0.04736328125,-0.1387939453125
5.361,321,906,2178,334,-2.0,28.0,24.0,-5.310058116912842,2.50244140625,15.869139671325684,-0.9122314453125,0.021240234375,-0.1361083984375
5.371,323,1067,2246,364,-2.0,28.0,24.0,2.0751953125,2.3193359375,19.4091796875,-0.9110107421875,0.045654296875,-0.12890625
5.379,324,1156,2260,364,-2.0,28.0,24.0,11.169432640075684,1.4648436307907104,22.888181686401367,-0.9134521484375,0.1158447265625,-0.1341552734375
5.395,324,1441,2275,371,-2.0,28.0,24.0,19.287109375,1.220703125,26.916501998901367,-0.9215087890625,0.21435546875,-0.1334228515625
5.404,325,1679,2272,378,-2.0,26.0,28.0,23.071287155151367,2.01416015625,31.127927780151367,-0.936279296875,0.2835693359375,-0.110107421875
5.410,327,1798,2272,383,-2.0,26.0,28.0,21.240232467651367,4.39453125,35.09521484375,-0.9346923828125,0.2852783203125,-0.075927734375
5.417,327,1899,2268,389,-2.0,26.0,28.0,14.160155296325684,9.58251953125,39.306640625,-0.9051513671875,0.2584228515625,-0.0482177734375
5.431,327,2244,2243,385,-2.0,26.0,28.0,1.0986328125,18.37158203125,44.311519622802734,-0.8834228515625,0.2747802734375,-0.013916015625
5.459,327,2565,2195,402,-2.0,26.0,28.0,-15.319823265075684,28.869626998901367,49.987789154052734,-0.8411865234375,0.3038330078125,0.031982421875
5.460,316,3048,2152,411,-2.0,26.0,28.0,-28.991697311401367,36.31591796875,55.419918060302734,-0.6473388671875,0.2459716796875,0.0777587890625
5.461,315,3147,2155,1132,-2.0,26.0,28.0,-33.69140625,35.82763671875,58.288570404052734,-0.2191162109375,0.130859375,0.154541015625
5.469,328,3147,2131,1627,-2.0,26.0,28.0,-22.521970748901367,24.536130905151367,52.978511810302734,0.4791259765625,0.0595703125,0.24609375
5.477,331,3147,2306,2129,-2.0,26.0,28.0,-3.479003667831421,2.25830078125,29.602048873901367,1.4273681640625,0.0491943359375,0.2418212890625
5.494,337,3147,2379,2876,-2.0,26.0,28.0,7.873534679412842,-31.066892623901367,-17.27294921875,2.0665283203125,0.2728271484375,-0.002197265625
5.499,344,3147,2472,3147,-4.0,26.0,23.0,14.343260765075684,-74.27978515625,-73.79150390625,1.48974609375,0.6922607421875,-0.5277099609375
5.507,346,3147,2632,3147,-4.0,26.0,23.0,16.357421875,-116.39403533935547,-114.62401580810547,-0.3792724609375,1.123291015625,-1.148193359375
5.521,355,3147,2965,3147,-4.0,26.0,23.0,6.103515148162842,-140.5029296875,-119.87303924560547,-2.4696044921875,1.7666015625,-1.2969970703125
5.529,359,3147,3077,3147,-4.0,26.0,23.0,-34.423828125,-149.71923828125,-96.98485565185547,-3.7197265625,1.6810302734375,-0.434326171875
5.538,359,3147,3042,3147,-4.0,26.0,23.0,-98.69384002685547,-153.62548828125,-82.82469940185547,-4.0,0.522216796875,0.9044189453125
5.570,348,3147,2932,3147,-4.0,26.0,23.0,-105.83495330810547,-135.1318359375,-75.1953125,-3.7025146484375,-1.1309814453125,1.176513671875
5.570,348,3147,2899,3147,-4.0,26.0,23.0,-23.315427780151367,-87.70751190185547,-57.739253997802734,-2.033203125,-1.7457275390625,0.788818359375
5.570,334,3147,2938,3147,-4.0,26.0,23.0,88.25682830810547,-30.395505905151367,-35.33935546875,-0.6168212890625,-0.19921875,0.414306640625
5.583,351,3147,2928,3147,-4.0,26.0,23.0,120.48339080810547,16.6015625,-17.578125,-0.798095703125,1.0872802734375,0.085693359375
5.596,351,3147,2891,3147,-4.0,26.0,23.0,35.94970703125,43.395992279052734,-8.60595703125,-1.6087646484375,0.7000732421875,0.1844482421875
5.597,349,3147,2912,3147,-1.0,27.0,25.0,-48.522945404052734,62.316890716552734,11.962889671325684,-2.1314697265625,0.106201171875,0.20654296875
5.612,348,3147,2853,3147,-1.0,27.0,25.0,-63.171382904052734,78.369140625,45.593257904052734,-2.1397705078125,0.14794921875,0.04833984375
5.620,348,3147,2795,3147,-1.0,27.0,25.0,-47.058101654052734,84.47264862060547,69.2138671875,-1.9112548828125,0.4193115234375,-0.070068359375
5.627,347,3147,2723,3147,-1.0,27.0,25.0,-27.648923873901367,82.27538299560547,74.3408203125,-1.6734619140625,0.69287109375,-0.1693115234375
5.641,338,3147,2612,2890,-1.0,27.0,25.0,-5.981444835662842,76.23291015625,67.32177734375,-1.3895263671875,0.8321533203125,-0.2745361328125
5.650,338,3147,2530,2472,-1.0,27.0,25.0,9.09423828125,66.0400390625,52.917476654052734,-0.9691162109375,0.686767578125,-0.2484130859375
5.673,336,3147,2422,1865,-1.0,27.0,25.0,13.000487327575684,50.659175872802734,31.677244186401367,-0.4730224609375,0.3548583984375,-0.103515625
5.673,332,3147,2299,687,-1.0,27.0,25.0,13.366698265075684,33.26416015625,5.859374523162842,-0.0472412109375,0.05029296875,0.043212890625
5.680,330,2683,2217,389,-1.0,27.0,25.0,14.892577171325684,16.17431640625,-18.6767578125,0.1259765625,-0.0587158203125,0.133544921875
5.688,327,2028,2150,374,-1.0,27.0,25.0,18.00537109375,0.30517578125,-36.2548828125,-0.01904296875,-0.005126953125,0.0897216796875
5.701,323,793,2238,342,-2.0,28.0,23.0,20.080564498901367,-10.986327171325684,-45.776363372802734,-0.285400390625,-0.0638427734375,-0.0601806640625
5.712,318,692,2228,338,-2.0,28.0,23.0,19.22607421875,-12.451170921325684,-46.447750091552734,-0.4813232421875,-0.2254638671875,-0.152587890625
5.717,316,559,2166,344,-2.0,28.0,23.0,22.949216842651367,-4.57763671875,-35.94970703125,-0.59521484375,-0.175537109375,-0.154052734375
5.731,313,371,2007,328,-2.0,28.0,23.0,25.878904342651367,4.638671875,-19.83642578125,-0.65673828125,0.0498046875,-0.11572265625
5.739,315,417,1846,336,-2.0,28.0,23.0,16.05224609375,9.09423828125,-8.1787109375,-0.6514892578125,0.2000732421875,-0.07275390625
5.752,309,409,1743,330,-2.0,28.0,23.0,16.05224609375,9.09423828125,-8.1787109375,-0.6025390625,0.2862548828125,-0.04296875
5.774,310,376,1703,328,-2.0,28.0,23.0,-3.234863042831421,13.916014671325684,-0.3662109076976776,-0.579345703125,0.4041748046875,-0.0120849609375
5.774,313,400,1719,330,-2.0,28.0,23.0,-5.310058116912842,16.29638671875,3.295898199081421,-0.5941162109375,0.5238037109375,0.0487060546875
5.783,310,414,1848,330,-2.0,28.0,23.0,-5.310058116912842,16.29638671875,3.295898199081421,-0.6243896484375,0.558349609375,0.1351318359375
5.805,315,409,1974,330,-2.0,28.0,23.0,-8.6669921875,14.038084983825684,9.58251953125,-0.664306640625,0.49755859375,0.189697265625
5.805,313,561,1996,319,-2.0,28.0,23.0,-8.60595703125,12.268065452575684,10.559081077575684,-0.7205810546875,0.417236328125,0.173095703125
5.814,316,620,2078,348,-2.0,28.0,23.0,-8.60595703125,12.268065452575684,10.559081077575684,-0.798095703125,0.36962890625,0.102294921875
5.823,321,711,2133,351,-2.0,28.0,23.0,-5.065917491912842,11.047362327575684,11.291502952575684,-0.8770751953125,0.3123779296875,0.005126953125
5.832,321,862,2190,346,-2.0,28.0,23.0,-3.112792730331421,10.009765625,11.596678733825684,-0.9295654296875,0.2117919921875,-0.099609375
5.837,321,946,2230,363,-2.0,28.0,23.0,-3.112792730331421,10.009765625,11.596678733825684,-0.9603271484375,0.114990234375,-0.1845703125
5.885,323,1318,2266,370,-2.0,28.0,23.0,8.1787109375,9.09423828125,14.770506858825684,-0.9903564453125,0.0712890625,-0.2159423828125
5.885,324,1516,2296,373,-2.0,28.0,23.0,13.916014671325684,8.72802734375,18.61572265625,-1.0263671875,0.080078125,-0.192138671875
5.885,324,1651,2312,382,-2.0,28.0,23.0,13.916014671325684,8.72802734375,18.61572265625,-1.055908203125,0.124755859375,-0.1517333984375
5.885,323,1945,2306,375,-2.0,28.0,23.0,23.620603561401367,9.09423828125,30.944822311401367,-1.060302734375,0.18310546875,-0.124267578125
5.923,324,1933,2321,388,-4.0,30.0,19.0,26.794431686401367,10.864256858825684,39.00146484375,-1.0306396484375,0.21337890625,-0.1048583984375
5.924,326,1957,2284,357,-4.0,30.0,19.0,26.794431686401367,10.864256858825684,39.00146484375,-0.9716796875,0.2054443359375,-0.072021484375
5.924,327,2178,2229,402,-4.0,30.0,19.0,17.2119140625,21.118162155151367,57.006832122802734,-0.8963623046875,0.2109375,-0.0078125
5.924,327,2277,2221,388,-4.0,30.0,19.0,4.638671875,31.372068405151367,64.88037109375,-0.8150634765625,0.267822265625,0.0673828125
5.927,328,2560,2230,414,-4.0,30.0,19.0,4.638671875,31.372068405151367,64.88037109375,-0.6705322265625,0.3104248046875,0.1361083984375
5.941,328,3147,2195,483,-4.0,30.0,19.0,-10.864256858825684,43.579097747802734,67.19970703125,-0.37353515625,0.25390625,0.182373046875
5.949,322,3147,2124,899,-4.0,30.0,19.0,-10.864256858825684,43.579097747802734,67.19970703125,0.1258544921875,0.1358642578125,0.1793212890625
5.969,327,3147,2156,1373,-4.0,30.0,19.0,1.2817381620407104,34.1796875,58.227535247802734,0.1258544921875,0.1358642578125,0.1793212890625
5.971,332,3147,2296,2213,-4.0,30.0,19.0,47.851558685302734,-18.06640625,5.249022960662842,1.745361328125,0.1392822265625,-0.001953125
5.992,334,3147,2330,2698,-4.0,30.0,19.0,47.851558685302734,-18.06640625,5.249022960662842,2.0206298828125,0.3641357421875,-0.31494140625
5.992,324,3147,2389,3144,-4.0,27.0,26.0,59.204097747802734,-59.448238372802734,-44.738765716552734,2.0206298828125,0.3641357421875,-0.31494140625
6.003,348,3147,2744,3147,-4.0,27.0,26.0,39.0625,-126.95311737060547,-109.98534393310547,-1.10009765625,1.3839111328125,-1.2681884765625
6.015,354,3147,2925,3147,-4.0,27.0,26.0,39.0625,-126.95311737060547,-109.98534393310547,-3.100830078125,2.0982666015625,-1.104248046875
6.020,359,3147,3031,3147,-4.0,27.0,26.0,-2.38037109375,-129.69970703125,-100.09764862060547,-3.100830078125,2.0982666015625,-1.104248046875
6.031,356,3147,3056,3147,-4.0,27.0,26.0,-145.93505859375,-125.54930877685547,-78.2470703125,-4.0,-0.411865234375,1.1763916015625
6.039,351,3147,2961,3147,-4.0,27.0,26.0,-145.93505859375,-125.54930877685547,-78.2470703125,-3.3887939453125,-1.5133056640625,1.107421875
6.048,351,3147,2854,3147,-4.0,27.0,26.0,-100.95214080810547,-95.27587127685547,-69.091796875,-3.3887939453125,-1.5133056640625,1.107421875
6.074,348,3147,2916,3147,-4.0,27.0,26.0,102.05077362060547,-5.981444835662842,-33.14208984375,-0.50146484375,0.5604248046875,0.013671875
6.074,348,3147,2950,3147,-4.0,27.0,26.0,102.05077362060547,-5.981444835662842,-33.14208984375,-1.065185546875,1.3006591796875,-0.35498046875
6.077,348,3147,2946,3147,-4.0,27.0,26.0,92.95653533935547,20.202634811401367,-30.395505905151367,-1.065185546875,1.3006591796875,-0.35498046875
6.096,351,3147,2932,3147,-3.0,28.0,26.0,-71.22802734375,44.494625091552734,-2.3193359375,-2.2369384765625,-0.017333984375,0.1016845703125
6.108,348,3147,2911,3147,-3.0,28.0,26.0,-71.22802734375,44.494625091552734,-2.3193359375,-2.1297607421875,-0.0208740234375,0.19384765625
6.109,332,3147,2854,3147,-3.0,28.0,26.0,-78.79638671875,59.875484466552734,34.60693359375,-2.1297607421875,-0.0208740234375,0.19384765625
6.121,345,3147,2746,3147,-3.0,28.0,26.0,-35.15625,78.06396484375,76.66015625,-1.68408203125,0.5687255859375,-0.019287109375
6.129,346,3147,2676,3143,-3.0,28.0,26.0,-35.15625,78.06396484375,76.66015625,-1.3795166015625,0.7674560546875,-0.22998046875
6.154,345,3147,2591,2765,-3.0,28.0,26.0,-5.126952648162842,78.91845703125,76.66015625,-1.3795166015625,0.7674560546875,-0.22998046875
6.176,336,3147,2440,1852,-3.0,28.0,26.0,28.381345748901367,50.964351654052734,33.69140625,-0.4071044921875,0.3780517578125,-0.207763671875
6.180,332,3147,2308,1095,-3.0,28.0,26.0,28.381345748901367,50.964351654052734,33.69140625,0.0091552734375,0.132568359375,-0.0576171875
6.180,328,3147,2210,386,-3.0,28.0,26.0,28.442380905151367,29.174802780151367,1.7089842557907104,0.0091552734375,0.132568359375,-0.0576171875
6.184,322,1499,2195,364,0.0,26.0,27.0,25.573728561401367,8.544921875,-27.099607467651367,-0.0548095703125,0.0594482421875,0.0438232421875
6.215,319,814,2209,338,0.0,26.0,27.0,20.263669967651367,-8.1787109375,-46.936031341552734,-0.0548095703125,0.0594482421875,0.0438232421875
6.215,314,678,2178,334,0.0,26.0,27.0,13.854979515075684,-18.24951171875,-57.006832122802734,-0.331298828125,-0.073974609375,-0.0582275390625
6.216,308,418,2050,321,0.0,26.0,27.0,10.681151390075684,-19.34814453125,-56.884761810302734,-0.6219482421875,-0.048095703125,-0.1497802734375
6.223,308,387,1945,328,0.0,26.0,27.0,10.498045921325684,-13.305663108825684,-45.654293060302734,-0.6219482421875,-0.048095703125,-0.1497802734375
6.233,310,363,1806,334,0.0,26.0,27.0,5.187987804412842,-5.371093273162842,-30.639646530151367,-0.57177734375,0.056640625,-0.140380859375
6.241,308,331,1683,327,0.0,26.0,27.0,-4.57763671875,1.5869139432907104,-19.22607421875,-0.4154052734375,0.2039794921875,-0.025146484375
6.251,306,338,1722,330,0.0,26.0,27.0,-8.72802734375,8.23974609375,-10.253905296325684,-0.4154052734375,0.2039794921875,-0.025146484375
6.257,308,360,1759,332,0.0,26.0,27.0,-6.591796398162842,15.075682640075684,-0.8544921278953552,-0.438720703125,0.3087158203125,0.042236328125
6.276,310,508,1929,336,0.0,26.0,27.0,-4.82177734375,19.775390625,7.080077648162842,-0.658447265625,0.448974609375,0.1719970703125
6.279,312,401,2001,331,-8.0,29.0,22.0,-6.530761241912842,19.34814453125,10.437010765075684,-0.658447265625,0.448974609375,0.1719970703125
6.287,315,418,2078,344,-8.0,29.0,22.0,-7.995604991912842,14.404295921325684,9.58251953125,-0.7628173828125,0.4755859375,0.1490478515625
6.312,315,531,2155,336,-8.0,29.0,22.0,-5.249022960662842,8.11767578125,6.713866710662842,-0.913818359375,0.382080078125,0.0238037109375
6.312,318,625,2205,354,-8.0,29.0,22.0,0.6103515625,2.563476324081421,4.33349609375,-0.913818359375,0.382080078125,0.0238037109375
6.317,321,698,2259,364,-8.0,29.0,22.0,6.347655773162842,-0.3662109076976776,3.662109136581421,-0.96923828125,0.259765625,-0.024169921875
6.332,321,1003,2321,363,-8.0,29.0,22.0,10.742186546325684,0.6713866591453552,4.638671875,-0.9873046875,0.1353759765625,-0.1365966796875
6.346,321,1167,2359,372,-8.0,29.0,22.0,12.451170921325684,4.82177734375,7.629394054412842,-0.9873046875,0.1353759765625,-0.1365966796875
6.347,322,1373,2368,370,-8.0,29.0,22.0,9.82666015625,10.131834983825684,13.366698265075684,-0.9930419921875,0.1358642578125,-0.1632080078125
6.361,321,1404,2379,379,-8.0,29.0,22.0,4.39453125,15.075682640075684,21.301267623901367,-1.0155029296875,0.115478515625,-0.110107421875
6.380,323,1543,2381,389,-8.0,29.0,22.0,0.4272460639476776,19.1650390625,30.090330123901367,-1.0155029296875,0.115478515625,-0.110107421875
6.380,323,1641,2364,389,-2.0,28.0,22.0,0.30517578125,22.460935592651367,38.63525390625,-1.0244140625,0.1326904296875,-0.0751953125
6.392,321,1735,2333,390,-2.0,28.0,22.0,2.50244140625,25.329587936401367,46.691890716552734,-1.03466796875,0.17529296875,-0.056396484375
6.399,321,1695,2306,390,-2.0,28.0,22.0,4.94384765625,28.259275436401367,54.260250091552734,-1.037841796875,0.2088623046875,-0.0538330078125
6.414,323,1681,2268,404,-2.0,28.0,22.0,6.896972179412842,31.555173873901367,62.133785247802734,-1.0167236328125,0.2037353515625,-0.0599365234375
6.425,323,1874,2240,418,-2.0,28.0,22.0,8.85009765625,35.7666015625,71.10595703125,-0.9344482421875,0.1607666015625,-0.066650390625
6.432,323,2167,2207,437,-2.0,28.0,22.0,10.925292015075684,40.832515716552734,80.62743377685547,-0.742431640625,0.1219482421875,-0.0546875
6.437,324,2788,2235,410,-2.0,28.0,22.0,11.291502952575684,46.020503997802734,86.73094940185547,-0.4586181640625,0.1885986328125,0.043212890625
6.451,327,3147,2186,1067,-2.0,28.0,22.0,10.070799827575684,47.363277435302734,83.12987518310547,-0.0919189453125,0.3272705078125,0.1668701171875
6.459,326,3147,2172,1533,-2.0,28.0,22.0,12.145995140075684,36.4990234375,65.673828125,0.4659423828125,0.353759765625,0.2647705078125
6.467,330,3147,2218,2039,-2.0,28.0,22.0,21.423337936401367,9.27734375,33.38623046875,1.3560791015625,0.1441650390625,0.30126953125
6.482,333,3147,2391,2798,-5.0,30.0,21.0,41.748043060302734,-31.249998092651367,-15.197752952575684,2.19873046875,-0.032470703125,0.05810546875
6.489,338,3147,2481,3147,-5.0,30.0,21.0,68.7255859375,-78.9794921875,-67.626953125,1.9783935546875,0.273681640625,-0.5279541015625
6.498,344,3147,2656,3147,-5.0,30.0,21.0,81.90917205810547,-122.80272674560547,-103.88182830810547,0.301513671875,1.063232421875,-1.2430419921875
6.528,357,3147,3022,3147,-5.0,30.0,21.0,54.443355560302734,-144.22607421875,-116.33300018310547,-2.05859375,2.107177734375,-1.6419677734375
6.534,346,3147,3095,3147,-5.0,30.0,21.0,-35.5224609375,-142.02880859375,-104.49217987060547,-3.85498046875,2.2471923828125,-0.952880859375
6.534,355,3147,3073,3147,-5.0,30.0,21.0,-161.56004333496094,-139.58740234375,-90.39305877685547,-4.0,0.9249267578125,0.6591796875
6.696,354,3147,2940,3147,-5.0,30.0,21.0,-195.43455505371094,-123.90135955810547,-78.18603515625,-3.9114990234375,-1.2225341796875,1.2763671875
6.696,344,3147,2890,3147,-5.0,30.0,21.0,-80.32225799560547,-84.71678924560547,-60.607906341552734,-1.8660888671875,-1.9521484375,0.9969482421875
6.697,346,3147,2940,3147,-5.0,30.0,21.0,91.85790252685547,-39.73388671875,-42.419429779052734,-0.2054443359375,-0.007080078125,0.322265625
6.697,351,3147,2965,3147,-5.0,25.0,23.0,170.65428161621094,-1.8920897245407104,-33.87451171875,-0.55810546875,1.6468505859375,-0.484130859375
6.697,348,3147,2941,3147,-5.0,25.0,23.0,76.96533203125,13.366698265075684,-38.87939453125,-1.56640625,1.03466796875,-0.3648681640625
6.697,348,3147,2927,3147,-5.0,25.0,23.0,-49.194332122802734,22.216794967651367,-25.634763717651367,-2.17724609375,-0.08349609375,0.06884765625
6.697,351,3147,2880,3147,-5.0,25.0,23.0,-81.72606658935547,39.6728515625,13.549803733825684,-2.191650390625,-0.2598876953125,0.2479248046875
6.697,348,3147,2827,3147,-5.0,25.0,23.0,-62.072750091552734,55.603023529052734,52.673336029052734,-1.9459228515625,0.0372314453125,0.23828125
6.697,348,3147,2736,3147,-5.0,25.0,23.0,-39.00146484375,67.5048828125,77.81982421875,-1.7210693359375,0.4273681640625,0.12939453125
6.697,344,3147,2632,2929,-5.0,25.0,23.0,-15.014647483825684,76.7822265625,88.07372283935547,-1.484375,0.705810546875,-0.0352783203125
6.697,338,3147,2559,2538,-5.0,25.0,23.0,9.82666015625,79.65087890625,82.09227752685547,-1.0782470703125,0.7335205078125,-0.13525390625
6.697,344,3147,2484,2098,-5.0,25.0,23.0,26.733396530151367,71.533203125,59.997554779052734,-0.5306396484375,0.5391845703125,-0.134033203125
6.697,334,3147,2334,1143,-5.0,25.0,23.0,29.235837936401367,53.955074310302734,26.306150436401367,-0.0430908203125,0.2919921875,-0.1046142578125
6.697,332,3147,2275,470,-5.0,27.0,22.0,22.583005905151367,32.2265625,-10.192870140075684,0.16748046875,0.15478515625,-0.0703125
6.697,328,2480,2186,465,-5.0,27.0,22.0,14.038084983825684,10.437010765075684,-39.48974609375,0.0203857421875,0.156005859375,-0.05859375
6.697,321,1085,2268,371,-5.0,27.0,22.0,6.408690929412842,-7.141112804412842,-57.006832122802734,-0.2939453125,0.0838623046875,-0.103759765625
6.710,316,678,2263,351,-5.0,27.0,22.0,0.4882812201976776,-15.563963890075684,-63.049312591552734,-0.54736328125,-0.1304931640625,-0.1627197265625
6.710,315,599,2141,334,-5.0,27.0,22.0,3.234863042831421,-13.244627952575684,-56.823726654052734,-0.681396484375,-0.19140625,-0.1937255859375
6.722,313,373,2012,328,-5.0,27.0,22.0,12.145995140075684,-6.042479991912842,-40.771480560302734,-0.70751953125,-0.0157470703125,-0.1728515625
6.732,312,379,1912,324,-5.0,27.0,22.0,9.46044921875,-0.6713866591453552,-25.024412155151367,-0.665771484375,0.13623046875,-0.107421875
6.739,310,364,1813,323,-5.0,27.0,22.0,-3.112792730331421,3.295898199081421,-15.441893577575684,-0.601318359375,0.181884765625,-0.039306640625
6.752,314,361,1790,323,-5.0,27.0,22.0,-8.9111328125,8.4228515625,-8.4228515625,-0.5462646484375,0.2635498046875,0.025146484375
6.760,315,361,1840,330,-5.0,27.0,22.0,-6.286620616912842,13.671874046325684,0.1831054538488388,-0.5418701171875,0.3956298828125,0.091796875
6.768,314,347,1906,330,-2.0,29.0,23.0,-2.624511480331421,17.15087890625,8.60595703125,-0.6024169921875,0.5054931640625,0.1400146484375
6.800,316,385,2012,328,-2.0,29.0,23.0,-3.112792730331421,17.76123046875,12.878417015075684,-0.6834716796875,0.55859375,0.146728515625
6.801,315,359,2063,331,-2.0,29.0,23.0,-9.27734375,14.953612327575684,12.023924827575684,-0.74609375,0.52587890625,0.0997314453125
6.801,316,390,2119,330,-2.0,29.0,23.0,-16.90673828125,10.681151390075684,8.6669921875,-0.813720703125,0.4345703125,0.02880859375
6.812,315,402,2158,333,-2.0,29.0,23.0,-20.690916061401367,7.751464366912842,6.286620616912842,-0.9010009765625,0.3504638671875,-0.0303955078125
6.824,316,439,2178,334,-2.0,29.0,23.0,-20.01953125,7.019042491912842,6.225585460662842,-0.974853515625,0.267822265625,-0.0821533203125
6.828,316,551,2197,338,-2.0,29.0,23.0,-17.15087890625,7.751464366912842,7.873534679412842,-1.001953125,0.181396484375,-0.1304931640625
6.843,317,591,2226,344,-2.0,29.0,23.0,-14.587401390075684,9.033203125,10.681151390075684,-0.98974609375,0.1123046875,-0.1558837890625
6.852,317,755,2275,356,-2.0,29.0,23.0,-13.549803733825684,10.437010765075684,14.831542015075684,-0.963134765625,0.0684814453125,-0.14501953125
6.858,318,937,2284,361,-2.0,29.0,23.0,-12.145995140075684,12.268065452575684,19.6533203125,-0.93603515625,0.0487060546875,-0.1241455078125
6.872,319,987,2298,364,-2.0,30.0,20.0,-7.263183116912842,14.465331077575684,24.658201217651367,-0.9140625,0.0704345703125,-0.1190185546875
6.892,319,1189,2296,371,-2.0,30.0,20.0,0.6713866591453552,16.78466796875,30.090330123901367,-0.9036865234375,0.1314697265625,-0.1258544921875
6.892,321,1146,2296,372,-2.0,30.0,20.0,7.995604991912842,18.73779296875,36.43798828125,-0.910888671875,0.18115234375,-0.1282958984375
6.909,321,1198,2293,373,-2.0,30.0,20.0,12.329100608825684,20.446775436401367,43.212886810302734,-0.9334716796875,0.1944580078125,-0.1126708984375
6.910,322,1220,2292,376,-2.0,30.0,20.0,15.075682640075684,22.888181686401367,50.476070404052734,-0.9517822265625,0.19775390625,-0.0758056640625
6.930,323,1450,2293,391,-2.0,30.0,20.0,18.12744140625,26.306150436401367,58.654781341552734,-0.9373779296875,0.2001953125,-0.033203125
6.932,322,1711,2299,430,-2.0,30.0,20.0,20.874021530151367,30.456541061401367,66.5283203125,-0.8714599609375,0.219482421875,-0.0216064453125
6.946,323,1973,2293,458,-2.0,30.0,20.0,21.789548873901367,34.3017578125,71.71630859375,-0.755859375,0.301513671875,-0.0435791015625
6.948,338,2348,2273,481,-2.0,30.0,20.0,18.98193359375,36.4990234375,71.96044921875,-0.568359375,0.40380859375,-0.0411376953125
6.962,323,3147,2192,531,-2.0,30.0,20.0,6.958007335662842,35.64453125,64.8193359375,-0.2637939453125,0.4100341796875,0.0267333984375
6.970,321,3147,2155,987,-5.0,27.0,17.0,-9.8876953125,28.869626998901367,50.964351654052734,0.2132568359375,0.250244140625,0.1646728515625
6.994,328,3147,2258,1498,-5.0,27.0,17.0,-9.8876953125,28.869626998901367,50.964351654052734,0.972412109375,-0.049560546875,0.2724609375
6.994,333,3147,2396,2323,-5.0,27.0,17.0,10.009765625,-18.798828125,0.9765624403953552,1.817626953125,-0.1307373046875,0.1279296875
7.000,334,3147,2473,2821,-5.0,27.0,17.0,47.058101654052734,-60.852046966552734,-37.59765625,1.923095703125,0.3580322265625,-0.3023681640625
7.010,337,3147,2599,3147,-5.0,27.0,17.0,47.058101654052734,-60.852046966552734,-37.59765625,0.6927490234375,1.1141357421875,-0.9127197265625
7.030,354,3147,2955,3147,-5.0,27.0,17.0,44.921871185302734,-132.568359375,-109.13085174560547,-1.4273681640625,1.8759765625,-1.387451171875
7.031,359,3147,3079,3147,-5.0,27.0,17.0,-29.357908248901367,-134.09423828125,-115.60057830810547,-3.3377685546875,2.09130859375,-1.0662841796875
7.038,359,3147,3147,3147,-5.0,27.0,17.0,-29.357908248901367,-134.09423828125,-115.60057830810547,-4.0,0.841552734375,0.2061767578125
7.052,347,3147,3065,3147,-5.0,27.0,17.0,-165.03904724121094,-122.49755096435547,-90.39305877685547,-4.0,-0.800537109375,0.9989013671875
7.060,348,3147,2996,3147,-5.0,27.0,17.0,-79.52880859375,-91.43065643310547,-67.626953125,-2.9437255859375,-1.6705322265625,0.851318359375
7.068,347,3147,2973,3147,-4.0,25.0,25.0,-79.52880859375,-91.43065643310547,-67.626953125,-1.0062255859375,-0.7908935546875,0.4498291015625
7.082,353,3147,3000,3147,-4.0,25.0,25.0,131.8359375,-14.343260765075684,-34.24072265625,-0.561279296875,1.1005859375,-0.2197265625
7.098,352,3147,2981,3147,-4.0,25.0,25.0,88.74510955810547,9.33837890625,-35.64453125,-1.3463134765625,1.3544921875,-0.4398193359375
7.098,332,3147,2985,3147,-4.0,25.0,25.0,88.74510955810547,9.33837890625,-35.64453125,-2.0440673828125,0.352294921875,-0.0546875
7.112,348,3147,2909,3147,-4.0,25.0,25.0,-86.42577362060547,36.31591796875,1.4648436307907104,-2.20751953125,-0.2017822265625,0.2314453125
7.120,347,3147,2874,3147,-4.0,25.0,25.0,-72.32666015625,54.321285247802734,42.053218841552734,-1.999755859375,-0.042724609375,0.263427734375
7.143,348,3147,2798,3147,-4.0,25.0,25.0,-72.32666015625,54.321285247802734,42.053218841552734,-1.7611083984375,0.344970703125,0.1156005859375
7.143,347,3147,2673,3086,-4.0,25.0,25.0,-13.793944358825684,72.1435546875,79.89501953125,-1.5205078125,0.70068359375,-0.126708984375
7.179,344,3147,2578,2689,-4.0,25.0,25.0,12.145995140075684,69.64111328125,71.77734375,-1.1737060546875,0.799072265625,-0.276123046875
7.180,342,3147,2530,2235,-4.0,25.0,25.0,12.145995140075684,69.64111328125,71.77734375,-0.71728515625,0.5657958984375,-0.2530517578125
7.342,334,3147,2310,827,-4.0,28.0,27.0,29.724119186401367,37.4755859375,16.9677734375,-0.2330322265625,0.258056640625,-0.1287841796875
7.343,330,2981,2260,399,-4.0,28.0,27.0,24.902341842651367,18.49365234375,-14.160155296325684,0.087890625,0.0997314453125,0.04296875
7.344,324,1981,2175,376,-4.0,28.0,27.0,24.902341842651367,18.49365234375,-14.160155296325684,0.0755615234375,0.0096435546875,0.1446533203125
7.344,316,554,2186,332,-4.0,28.0,27.0,8.544921875,-9.6435546875,-52.490230560302734,-0.18115234375,-0.1365966796875,0.092529296875
7.344,313,344,2139,300,-4.0,28.0,27.0,8.544921875,-9.6435546875,-52.490230560302734,-0.495849609375,-0.1856689453125,-0.043212890625
7.344,315,371,2058,324,-4.0,28.0,27.0,10.986327171325684,-13.244627952575684,-53.771968841552734,-0.495849609375,-0.1856689453125,-0.043212890625
7.344,315,383,1775,322,-4.0,28.0,27.0,16.29638671875,-6.530761241912842,-31.433103561401367,-0.7369384765625,0.121826171875,-0.2459716796875
7.344,292,376,1555,323,-4.0,28.0,27.0,16.29638671875,-6.530761241912842,-31.433103561401367,-0.6390380859375,0.117919921875,-0.250244140625
7.344,308,334,1397,322,-4.0,28.0,27.0,1.4648436307907104,-1.8920897245407104,-22.521970748901367,-0.6390380859375,0.117919921875,-0.250244140625
7.345,313,324,1366,327,-3.0,27.0,28.0,-0.9765624403953552,14.648436546325684,-11.230467796325684,-0.5062255859375,0.27587890625,-0.174560546875
7.345,304,348,1411,324,-3.0,27.0,28.0,-0.9765624403953552,14.648436546325684,-11.230467796325684,-0.538330078125,0.4287109375,-0.0589599609375
7.345,308,353,1434,319,-3.0,27.0,28.0,4.638671875,21.911619186401367,-2.50244140625,-0.538330078125,0.4287109375,-0.0589599609375
7.345,308,323,1494,327,-3.0,27.0,28.0,-14.099120140075684,23.437498092651367,6.774901866912842,-0.6336669921875,0.4395751953125,0.209716796875
7.345,311,347,1567,327,-3.0,27.0,28.0,-14.099120140075684,23.437498092651367,6.774901866912842,-0.698974609375,0.440673828125,0.239990234375
7.345,308,336,1653,326,-3.0,27.0,28.0,-25.329587936401367,21.301267623901367,6.958007335662842,-0.698974609375,0.440673828125,0.239990234375
7.345,313,388,1727,307,-3.0,27.0,28.0,-23.132322311401367,13.000487327575684,7.019042491912842,-0.853759765625,0.4547119140625,0.09716796875
7.346,313,383,1785,328,-3.0,27.0,28.0,-23.132322311401367,13.000487327575684,7.019042491912842,-0.894775390625,0.351806640625,0.01513671875
7.346,309,462,1787,328,-3.0,27.0,28.0,-19.04296875,5.432128429412842,4.638671875,-0.894775390625,0.351806640625,0.01513671875
7.352,313,364,1878,327,-3.0,27.0,28.0,0.0610351525247097,-5.676269054412842,5.554198741912842,-0.8758544921875,0.17431640625,-0.0897216796875
7.360,308,363,1920,328,-1.0,29.0,24.0,0.0610351525247097,-5.676269054412842,5.554198741912842,-0.8333740234375,0.168212890625,-0.1204833984375
7.373,313,356,1987,330,-1.0,29.0,24.0,9.033203125,-6.225585460662842,10.864256858825684,-0.8333740234375,0.168212890625,-0.1204833984375
7.384,314,402,2047,328,-1.0,29.0,24.0,8.1787109375,-2.44140625,23.864744186401367,-0.7393798828125,0.102294921875,-0.14453125
7.404,315,426,2118,332,-1.0,29.0,24.0,8.1787109375,-2.44140625,23.864744186401367,-0.716064453125,0.0235595703125,-0.1322021484375
7.404,315,465,2170,334,-1.0,29.0,24.0,4.638671875,1.4038084745407104,31.494138717651367,-0.716064453125,0.0235595703125,-0.1322021484375
7.412,321,912,2230,360,-1.0,29.0,24.0,7.995604991912842,10.559081077575684,44.433589935302734,-0.7103271484375,0.0079345703125,-0.09765625
7.420,321,1253,2296,364,-1.0,29.0,24.0,7.995604991912842,10.559081077575684,44.433589935302734,-0.7742919921875,0.1617431640625,-0.0496826171875
7.484,321,1880,2308,385,-1.0,29.0,24.0,13.488768577575684,13.183592796325684,48.156734466552734,-0.7742919921875,0.1617431640625,-0.0496826171875
7.484,328,2361,2268,348,-1.0,29.0,24.0,18.49365234375,14.953612327575684,53.527828216552734,-0.9462890625,0.4898681640625,-0.0137939453125
7.488,327,2727,2217,413,-1.0,29.0,24.0,19.8974609375,18.798828125,61.401363372802734,-0.9462890625,0.4898681640625,-0.0137939453125
7.488,323,3146,2178,437,-7.0,29.0,20.0,10.009765625,26.794431686401367,66.7724609375,-0.9000244140625,0.416015625,-0.0396728515625
7.514,325,3147,2110,1182,-7.0,29.0,20.0,-12.390135765075684,35.82763671875,67.626953125,-0.316650390625,-0.12744140625,0.03271484375
7.515,325,3147,2068,1648,-7.0,29.0,20.0,-27.709959030151367,37.4755859375,68.9697265625,-0.316650390625,-0.12744140625,0.03271484375
7.515,332,3147,2139,2035,-7.0,29.0,20.0,-15.075682640075684,25.085447311401367,67.9931640625,0.410888671875,-0.2935791015625,0.171630859375
7.515,334,3147,2231,2827,-7.0,29.0,20.0,22.033689498901367,-4.82177734375,46.203609466552734,1.9661865234375,0.537353515625,0.140380859375
7.515,338,3147,2314,3147,-7.0,29.0,20.0,62.744136810302734,-53.466793060302734,-10.375975608825684,1.9661865234375,0.537353515625,0.140380859375
7.518,345,3147,2469,3147,-7.0,29.0,20.0,76.23291015625,-107.11669158935547,-83.92333221435547,1.07470703125,1.310546875,-0.47119140625
7.539,351,3147,2935,3147,-7.0,29.0,20.0,47.058101654052734,-135.31494140625,-133.544921875,-2.9747314453125,2.3985595703125,-1.6651611328125
7.540,354,3147,3064,3147,-7.0,29.0,20.0,-12.695311546325684,-132.9345703125,-134.70458984375,-2.9747314453125,2.3985595703125,-1.6651611328125
7.548,354,3147,3072,3147,-7.0,29.0,20.0,-99.67040252685547,-133.23974609375,-111.02294158935547,-4.0,1.357666015625,-0.3935546875
7.562,360,3147,2978,3147,-2.0,24.0,20.0,-162.29246520996094,-140.5029296875,-93.56688690185547,-2.7923583984375,-1.9974365234375,0.93212890625
7.570,355,3147,2981,3147,-2.0,24.0,20.0,-116.51610565185547,-128.2958984375,-83.06884002685547,-2.7923583984375,-1.9974365234375,0.93212890625
7.609,351,3147,2968,3147,-2.0,24.0,20.0,18.98193359375,-93.44481658935547,-69.3359375,-0.7138671875,-0.9169921875,0.7867431640625
7.610,349,3147,2983,3147,-2.0,24.0,20.0,127.74657440185547,-44.311519622802734,-50.842281341552734,-1.141357421875,1.2161865234375,0.1478271484375
7.610,349,3147,2964,3147,-2.0,24.0,20.0,89.66063690185547,-0.1831054538488388,-38.9404296875,-1.141357421875,1.2161865234375,0.1478271484375
7.610,348,3147,2928,3147,-2.0,24.0,20.0,-29.785154342651367,33.0810546875,-20.690916061401367,-1.9658203125,0.04833984375,0.40771484375
7.624,346,3147,2843,3147,-2.0,24.0,20.0,-80.56639862060547,64.94140625,20.324705123901367,-2.107666015625,0.0284423828125,0.1802978515625
7.630,346,3147,2770,3147,-2.0,24.0,20.0,-68.17626953125,85.99852752685547,62.438961029052734,-2.107666015625,0.0284423828125,0.1802978515625
7.647,344,3147,2710,3147,-2.0,24.0,20.0,-45.959468841552734,94.05516815185547,84.16747283935547,-1.8687744140625,0.5313720703125,0.0062255859375
7.652,337,3147,2608,2788,-7.0,28.0,21.0,-22.399900436401367,96.31346893310547,85.26610565185547,-1.593994140625,0.8697509765625,-0.1553955078125
7.661,334,3147,2498,2317,-7.0,28.0,21.0,2.3193359375,92.89550018310547,71.1669921875,-1.1944580078125,0.8509521484375,-0.2091064453125
7.668,332,3147,2409,1569,-7.0,28.0,21.0,17.9443359375,82.27538299560547,49.377437591552734,-0.6771240234375,0.5391845703125,-0.1297607421875
7.712,328,3147,2190,414,-7.0,28.0,21.0,20.751951217651367,66.10107421875,24.169919967651367,-0.152587890625,0.1641845703125,-0.017333984375
7.712,308,2235,2110,385,-7.0,28.0,21.0,15.930174827575684,46.264644622802734,-3.112792730331421,0.18212890625,-0.0709228515625,0.065185546875
7.713,319,855,2167,355,-7.0,28.0,21.0,10.437010765075684,24.047849655151367,-26.306150436401367,0.1600341796875,-0.1103515625,0.0294189453125
7.713,298,533,2165,348,-7.0,28.0,21.0,12.268065452575684,2.929687261581421,-41.137691497802734,-0.101806640625,-0.0916748046875,-0.1375732421875
7.720,314,376,2058,334,-7.0,28.0,21.0,18.12744140625,-11.901854515075684,-48.950191497802734,-0.398681640625,-0.03369140625,-0.2808837890625
7.729,315,365,1982,327,-7.0,28.0,21.0,18.24951171875,-17.76123046875,-47.668453216552734,-0.6004638671875,0.079345703125,-0.3350830078125
7.750,310,376,1826,327,-7.0,28.0,21.0,11.352538108825684,-16.11328125,-38.6962890625,-0.62646484375,0.0963134765625,-0.34033203125
7.752,299,349,1686,327,-7.0,28.0,24.0,6.713866710662842,-8.48388671875,-28.503416061401367,-0.5260009765625,0.0816650390625,-0.28955078125
7.759,308,342,1634,323,-7.0,28.0,24.0,11.230467796325684,2.44140625,-18.9208984375,-0.448974609375,0.171142578125,-0.1640625
7.767,308,359,1666,321,-7.0,28.0,24.0,17.08984375,11.840819358825684,-8.72802734375,-0.4744873046875,0.320556640625,0.024169921875
7.781,309,382,1693,324,-7.0,28.0,24.0,14.953612327575684,16.11328125,0.7324218153953552,-0.564453125,0.4320068359375,0.216552734375
7.795,310,390,1785,326,-7.0,28.0,24.0,4.150390625,15.441893577575684,6.652831554412842,-0.6787109375,0.4703369140625,0.32958984375
7.814,313,388,1880,325,-7.0,28.0,24.0,-7.507323741912842,13.122557640075684,8.97216796875,-0.7857666015625,0.4962158203125,0.29638671875
7.814,312,414,1980,327,-7.0,28.0,24.0,-11.108397483825684,11.108397483825684,9.3994140625,-0.869140625,0.5364990234375,0.1636962890625
7.835,313,446,1997,327,-7.0,28.0,24.0,-7.629394054412842,7.934569835662842,9.033203125,-0.935791015625,0.5032958984375,0.04052734375
7.835,315,437,2018,328,-7.0,28.0,24.0,-3.845214605331421,3.906249761581421,8.11767578125,-0.9893798828125,0.37353515625,-0.0255126953125
7.857,314,456,2054,324,-7.0,28.0,24.0,-0.7934569716453552,2.0751953125,8.056640625,-1.02197265625,0.244873046875,-0.0587158203125
7.857,297,426,2061,327,-3.0,30.0,23.0,2.563476324081421,3.356933355331421,10.375975608825684,-1.022705078125,0.1865234375,-0.0816650390625
7.858,313,478,2054,310,-3.0,30.0,23.0,4.39453125,5.981444835662842,15.136717796325684,-0.9832763671875,0.1741943359375,-0.09423828125
7.871,313,473,2100,327,-3.0,30.0,23.0,2.746581792831421,8.9111328125,21.240232467651367,-0.9183349609375,0.156982421875,-0.0941162109375
7.879,315,535,2127,328,-3.0,30.0,23.0,-0.6103515625,12.390135765075684,28.259275436401367,-0.8548583984375,0.1209716796875,-0.09130859375
7.887,315,624,2153,334,-3.0,30.0,23.0,-2.13623046875,16.78466796875,36.07177734375,-0.8167724609375,0.0748291015625,-0.096435546875
7.928,316,725,2207,338,-3.0,30.0,23.0,-0.6103515625,22.094724655151367,44.677730560302734,-0.8101806640625,0.02978515625,-0.1021728515625
7.929,316,966,2213,351,-3.0,30.0,23.0,3.051757574081421,27.709959030151367,53.527828216552734,-0.8212890625,0.009033203125,-0.10107421875
7.929,318,1085,2217,359,-3.0,30.0,23.0,7.873534679412842,32.65380859375,62.377925872802734,-0.8193359375,0.0250244140625,-0.09619140625
7.931,321,1739,2235,378,-3.0,30.0,23.0,12.023924827575684,36.31591796875,70.61767578125,-0.744140625,0.069091796875,-0.08642578125
7.939,321,2238,2226,401,-3.0,30.0,23.0,11.901854515075684,39.6728515625,75.37841796875,-0.59423828125,0.1766357421875,-0.040283203125
7.950,321,2904,2203,418,-5.0,28.0,21.0,5.371093273162842,42.724605560302734,73.8525390625,-0.4239501953125,0.353515625,0.0289306640625
7.962,323,3147,2076,999,-5.0,28.0,21.0,-2.01416015625,40.344234466552734,66.58935546875,-0.2310791015625,0.4678955078125,0.0501708984375
7.969,327,3147,2087,1483,-5.0,28.0,21.0,-0.1831054538488388,27.526853561401367,55.175777435302734,0.1490478515625,0.406005859375,0.0716552734375
7.982,324,3147,2217,1994,-5.0,28.0,21.0,13.854979515075684,2.685546636581421,34.36279296875,0.9522705078125,0.1676025390625,0.1195068359375
7.992,336,3147,2330,3056,-5.0,28.0,21.0,34.97314453125,-34.66796875,-6.774901866912842,1.78271484375,-0.0169677734375,0.04296875
7.999,334,3147,2428,3147,-5.0,28.0,21.0,55.114742279052734,-80.26123046875,-60.791011810302734,1.658935546875,0.225830078125,-0.251953125
8.022,346,3147,2571,3147,-5.0,28.0,21.0,55.114742279052734,-80.26123046875,-60.791011810302734,0.171875,0.9605712890625,-0.834716796875
8.023,352,3147,2954,3147,-5.0,28.0,21.0,39.1845703125,-135.43701171875,-112.54882049560547,-1.979736328125,1.9967041015625,-1.409912109375
8.036,355,3147,3059,3147,-5.0,28.0,21.0,-26.184080123901367,-134.765625,-99.18212127685547,-3.6368408203125,2.102783203125,-1.0098876953125
8.038,354,3147,3137,3147,-5.0,28.0,21.0,-26.184080123901367,-134.765625,-99.18212127685547,-4.0,0.7021484375,0.4556884765625
8.051,348,3147,2974,3147,-1.0,26.0,26.0,-146.78955078125,-122.07030487060547,-72.20458984375,-4.0,-1.1658935546875,1.145751953125
8.059,347,3147,2908,3147,-1.0,26.0,26.0,-50.903316497802734,-84.65575408935547,-53.588863372802734,-2.236328125,-1.752685546875,0.9327392578125
8.067,346,3147,2840,3147,-1.0,26.0,26.0,-50.903316497802734,-84.65575408935547,-53.588863372802734,-0.5377197265625,-0.0767822265625,0.3665771484375
8.081,347,3147,2932,3147,-1.0,26.0,26.0,138.36669921875,-7.263183116912842,-46.936031341552734,-0.689453125,1.5435791015625,-0.4100341796875
8.089,347,3147,2922,3147,-1.0,26.0,26.0,60.241695404052734,7.812499523162842,-54.077144622802734,-1.6055908203125,1.1666259765625,-0.4031982421875
8.097,344,3147,2899,3147,-1.0,26.0,26.0,60.241695404052734,7.812499523162842,-54.077144622802734,-2.2120361328125,0.152587890625,0.0167236328125
8.123,342,3147,2859,3147,-1.0,26.0,26.0,-87.89061737060547,33.26416015625,-9.09423828125,-2.2451171875,-0.1904296875,0.2159423828125
8.123,346,3147,2810,3147,-1.0,26.0,26.0,-72.93701171875,49.682613372802734,27.709959030151367,-2.0008544921875,0.007568359375,0.2442626953125
8.127,344,3147,2717,3147,-1.0,26.0,26.0,-72.93701171875,49.682613372802734,27.709959030151367,-1.77685546875,0.39013671875,0.156005859375
8.141,338,3147,2580,3064,-1.0,29.0,24.0,-28.686521530151367,72.998046875,64.208984375,-1.534423828125,0.616455078125,-0.01318359375
8.153,334,3147,2494,2599,-1.0,29.0,24.0,-10.314940452575684,77.94189453125,62.072750091552734,-1.1746826171875,0.544677734375,-0.1134033203125
8.163,330,3147,2412,1850,-1.0,29.0,24.0,-10.314940452575684,77.94189453125,62.072750091552734,-0.6781005859375,0.291015625,-0.11181640625
8.171,329,2890,2188,485,-1.0,29.0,24.0,16.357421875,50.964351654052734,17.9443359375,-0.14013671875,0.0687255859375,-0.0595703125
8.179,324,1669,2124,458,-1.0,29.0,24.0,25.634763717651367,23.620603561401367,-16.4794921875,0.173828125,0.017333984375,-0.0018310546875
8.187,315,634,2151,404,-1.0,29.0,24.0,25.634763717651367,23.620603561401367,-16.4794921875,0.093017578125,0.025634765625,0.0224609375
8.201,310,372,2048,346,-1.0,29.0,24.0,23.620603561401367,-18.1884765625,-61.889644622802734,-0.2310791015625,0.0133056640625,-0.003662109375
8.228,310,342,1891,337,-1.0,29.0,24.0,20.751951217651367,-24.719236373901367,-62.377925872802734,-0.541748046875,0.1392822265625,-0.08642578125
8.229,311,364,1750,318,-1.0,29.0,24.0,20.751951217651367,-24.719236373901367,-62.377925872802734,-0.541748046875,0.1392822265625,-0.08642578125
8.231,308,342,1453,318,-1.0,29.0,24.0,-4.39453125,-16.845703125,-32.2265625,-0.5499267578125,0.153076171875,-0.28173828125
8.239,308,371,1380,323,0.0,28.0,22.0,-4.39453125,-16.845703125,-32.2265625,-0.431640625,0.0191650390625,-0.28271484375
8.265,308,359,1369,324,0.0,28.0,22.0,-11.535643577575684,-5.493163585662842,-20.935056686401367,-0.431640625,0.0191650390625,-0.28271484375
8.266,310,404,1341,321,0.0,28.0,22.0,-1.220703125,13.000487327575684,-5.676269054412842,-0.489501953125,0.2364501953125,-0.1207275390625
8.270,308,346,1382,318,0.0,28.0,22.0,-1.220703125,13.000487327575684,-5.676269054412842,-0.5723876953125,0.37255859375,0.0074462890625
8.277,310,371,1429,328,0.0,28.0,22.0,-7.934569835662842,11.596678733825684,-3.112792730331421,-0.5723876953125,0.37255859375,0.0074462890625
8.291,313,371,1548,321,0.0,28.0,22.0,-29.541013717651367,3.295898199081421,-5.920409679412842,-0.6947021484375,0.311279296875,0.2564697265625
8.299,310,361,1624,321,0.0,28.0,22.0,-29.541013717651367,3.295898199081421,-5.920409679412842,-0.75390625,0.298095703125,0.3043212890625
8.307,312,364,1681,321,0.0,28.0,22.0,-24.719236373901367,2.868652105331421,-2.44140625,-0.75390625,0.298095703125,0.3043212890625
8.334,313,362,1770,321,0.0,28.0,22.0,-3.662109136581421,3.417968511581421,10.192870140075684,-0.8553466796875,0.288818359375,0.2308349609375
8.334,315,364,1861,323,0.0,28.0,22.0,-3.662109136581421,3.417968511581421,10.192870140075684,-0.876220703125,0.2296142578125,0.112060546875
8.338,315,419,1899,324,-1.0,28.0,24.0,-0.2441406100988388,2.50244140625,12.634276390075684,-0.876220703125,0.2296142578125,0.112060546875
8.365,314,370,1996,321,-1.0,28.0,24.0,9.58251953125,0.9155272841453552,16.11328125,-0.8515625,0.1575927734375,-0.1065673828125
8.365,313,371,1978,324,-1.0,28.0,24.0,9.58251953125,0.9155272841453552,16.11328125,-0.8330078125,0.1158447265625,-0.1536865234375
8.373,315,383,2093,325,-1.0,28.0,24.0,14.526366233825684,0.54931640625,19.4091796875,-0.8330078125,0.1158447265625,-0.1536865234375
8.382,315,401,2190,323,-1.0,28.0,24.0,25.146482467651367,3.356933355331421,29.663084030151367,-0.8236083984375,0.0438232421875,-0.171630859375
8.390,316,523,2235,330,-1.0,28.0,24.0,25.146482467651367,3.356933355331421,29.663084030151367,-0.826171875,0.041748046875,-0.14599609375
8.398,316,600,2263,330,-1.0,28.0,24.0,29.357908248901367,7.446288585662842,36.865234375,-0.826171875,0.041748046875,-0.14599609375
8.444,318,989,2319,344,-1.0,28.0,24.0,20.935056686401367,22.644041061401367,53.100582122802734,-0.82177734375,0.1624755859375,-0.001953125
8.445,318,1375,2334,359,-1.0,28.0,24.0,20.935056686401367,22.644041061401367,53.100582122802734,-0.8258056640625,0.2408447265625,0.0943603515625
8.445,323,1867,2317,352,-1.0,28.0,24.0,7.263183116912842,32.8369140625,60.241695404052734,-0.8258056640625,0.2408447265625,0.0943603515625
8.445,324,2991,2233,460,-7.0,30.0,19.0,-10.070799827575684,48.461910247802734,76.96533203125,-0.7073974609375,0.1466064453125,0.1151123046875
8.450,322,3147,2133,636,-7.0,30.0,19.0,-10.070799827575684,48.461910247802734,76.96533203125,-0.4462890625,0.0684814453125,0.0709228515625
8.463,324,3147,2037,1175,-7.0,30.0,19.0,-2.3193359375,47.851558685302734,84.16747283935547,-0.4462890625,0.0684814453125,0.0709228515625
8.472,328,3147,2065,2172,-7.0,30.0,19.0,26.916501998901367,18.37158203125,70.25146484375,1.087890625,0.1397705078125,0.1883544921875
8.486,330,3147,2257,2758,-7.0,30.0,19.0,26.916501998901367,18.37158203125,70.25146484375,1.9862060546875,0.3172607421875,0.0877685546875
8.488,336,3147,2330,3147,-7.0,30.0,19.0,39.12353515625,-12.634276390075684,31.494138717651367,1.9862060546875,0.3172607421875,0.0877685546875
8.502,346,3147,2526,3147,-7.0,30.0,19.0,66.7724609375,-112.91503143310547,-98.87694549560547,-0.008544921875,1.349853515625,-1.1820068359375
8.510,351,3147,2877,3147,-7.0,30.0,19.0,66.7724609375,-112.91503143310547,-98.87694549560547,-2.3175048828125,2.0401611328125,-1.7061767578125
8.529,355,3147,3010,3147,-7.0,30.0,19.0,43.029781341552734,-143.24951171875,-131.77490234375,-2.3175048828125,2.0401611328125,-1.7061767578125
8.532,360,3147,3112,3147,-1.0,24.0,28.0,-125.79344940185547,-148.62060546875,-100.15868377685547,-4.0,0.22412109375,0.651123046875
8.540,348,3147,3058,3147,-1.0,24.0,28.0,-125.79344940185547,-148.62060546875,-100.15868377685547,-3.7783203125,-1.602294921875,1.3145751953125
8.548,355,3147,3017,3147,-1.0,24.0,28.0,-142.822265625,-137.20703125,-87.34130096435547,-3.7783203125,-1.602294921875,1.3145751953125
8.565,353,3147,2912,3147,-1.0,24.0,28.0,-42.297359466552734,-97.71727752685547,-67.3828125,-0.287353515625,0.11669921875,0.5672607421875
8.571,352,3147,2943,3147,-1.0,24.0,28.0,81.97020721435547,-46.203609466552734,-45.227046966552734,-0.287353515625,0.11669921875,0.5672607421875
8.578,348,3147,2949,3147,-1.0,24.0,28.0,118.04198455810547,2.25830078125,-28.930662155151367,-0.6015625,1.273681640625,0.0655517578125
8.598,353,3147,2944,3147,-1.0,24.0,28.0,37.4755859375,34.11865234375,-18.49365234375,-2.205810546875,-0.139404296875,0.176513671875
8.600,346,3147,2916,3147,-1.0,24.0,28.0,-48.034664154052734,58.288570404052734,7.812499523162842,-2.205810546875,-0.139404296875,0.176513671875
8.608,354,3147,2863,3147,-1.0,24.0,28.0,-68.42041015625,79.52880859375,49.255367279052734,-2.2672119140625,-0.1219482421875,0.099365234375
8.630,348,3147,2726,3147,-1.0,24.0,28.0,-59.997554779052734,92.77342987060547,83.00780487060547,-1.8453369140625,0.55126953125,0.0631103515625
8.631,347,3147,2636,3147,-1.0,26.0,21.0,-46.203609466552734,103.14940643310547,100.89110565185547,-1.8453369140625,0.55126953125,0.0631103515625
8.639,344,3147,2565,3071,-1.0,26.0,21.0,-22.888181686401367,111.32811737060547,104.06493377685547,-1.5712890625,0.827392578125,-0.1165771484375
