time,compression0,compression1,compression2,compression3,magn_x,magn_y,magn_z,gyro_x,gyro_y,gyro_z,accel_x,accel_y,accel_z
0.004,1852,1860,40,54,-17.0,37.0,35.0,-11.901854515075684,-2.3193359375,15.930174827575684,-0.81640625,0.431396484375,-0.3128662109375
0.013,1838,1848,34,43,-17.0,37.0,35.0,-15.075682640075684,-3.112792730331421,16.29638671875,-0.8485107421875,0.397705078125,-0.3009033203125
0.021,1860,1865,32,41,-17.0,37.0,35.0,-16.78466796875,-4.57763671875,16.11328125,-0.875,0.3590087890625,-0.2962646484375
0.028,1854,1858,26,37,-17.0,37.0,35.0,-15.869139671325684,-6.652831554412842,15.747069358825684,-0.8841552734375,0.343017578125,-0.293701171875
0.042,1856,1865,27,39,-17.0,35.0,32.0,-12.573241233825684,-9.21630859375,15.747069358825684,-0.871337890625,0.3427734375,-0.28271484375
0.057,1875,1880,37,42,-17.0,35.0,32.0,-8.1787109375,-12.145995140075684,15.991209983825684,-0.8477783203125,0.35302734375,-0.275146484375
0.059,1858,1894,28,39,-17.0,35.0,32.0,-3.479003667831421,-15.136717796325684,16.54052734375,-0.8255615234375,0.3880615234375,-0.287109375
0.079,1886,1904,36,39,-17.0,35.0,32.0,0.1220703050494194,-17.51708984375,17.27294921875,-0.8089599609375,0.4354248046875,-0.3094482421875
0.081,1891,1909,23,32,-17.0,35.0,32.0,0.6103515625,-18.9208984375,18.00537109375,-0.8026123046875,0.462158203125,-0.3233642578125
0.088,1850,1856,21,27,-17.0,35.0,32.0,-2.807616949081421,-18.9208984375,18.798828125,-0.8082275390625,0.4591064453125,-0.3170166015625
0.116,1791,1791,19,34,-17.0,35.0,32.0,-9.09423828125,-17.15087890625,20.263669967651367,-0.822021484375,0.4384765625,-0.2962646484375
0.117,1711,1701,2,9,-17.0,35.0,32.0,-15.686034202575684,-13.793944358825684,22.888181686401367,-0.8372802734375,0.407470703125,-0.2713623046875
0.118,1671,1649,15,24,-17.0,35.0,32.0,-21.301267623901367,-9.033203125,27.221677780151367,-0.85009765625,0.367919921875,-0.2464599609375
0.134,1559,1533,26,36,-20.0,37.0,32.0,-25.634763717651367,-2.624511480331421,33.447265625,-0.85693359375,0.332763671875,-0.2293701171875
0.178,1540,1506,43,48,-20.0,37.0,32.0,-29.113767623901367,5.737304210662842,41.503902435302734,-0.8458251953125,0.312255859375,-0.220947265625
0.184,1560,1527,28,41,-20.0,37.0,32.0,-32.53173828125,16.05224609375,51.330562591552734,-0.8048095703125,0.29443359375,-0.212890625
0.198,1712,1709,87,87,-20.0,37.0,32.0,-35.82763671875,27.709959030151367,62.499996185302734,-0.7232666015625,0.2733154296875,-0.166259765625
0.201,2043,2078,154,187,-20.0,37.0,32.0,-40.954586029052734,37.2314453125,72.75390625,-0.5552978515625,0.2227783203125,-0.092529296875
0.201,2492,2453,361,383,-20.0,37.0,32.0,-47.424312591552734,38.39111328125,75.98876953125,-0.35498046875,0.1024169921875,0.0224609375
0.202,3176,3176,981,1172,-20.0,37.0,32.0,-42.480464935302734,28.930662155151367,69.9462890625,-0.17578125,0.02685546875,0.2100830078125
0.202,3176,3176,1701,1967,-20.0,37.0,32.0,-20.812986373901367,10.131834983825684,54.199214935302734,0.15234375,0.059326171875,0.3636474609375
0.216,3176,3176,2530,2992,-20.0,37.0,32.0,1.2817381620407104,-20.141599655151367,21.301267623901367,0.6231689453125,0.1854248046875,0.383544921875
0.222,3176,3176,2716,3176,-20.0,37.0,32.0,14.648436546325684,-62.072750091552734,-25.878904342651367,0.937255859375,0.41748046875,0.337890625
0.230,3176,3176,1170,3176,-18.0,34.0,33.0,20.935056686401367,-102.53905487060547,-71.83837890625,0.7086181640625,0.52001953125,0.1005859375
0.239,661,3176,3176,3176,-18.0,34.0,33.0,13.549803733825684,-120.84960174560547,-102.29491424560547,-0.1531982421875,0.6611328125,-0.419189453125
0.252,656,3176,0,3176,-18.0,34.0,33.0,-11.352538108825684,-111.69432830810547,-107.48290252685547,-1.271484375,1.3369140625,-1.0010986328125
0.284,635,3176,2785,3176,-18.0,34.0,33.0,-47.119136810302734,-90.02684783935547,-94.23827362060547,-2.1458740234375,1.831298828125,-1.2794189453125
0.284,629,3176,0,3176,-18.0,34.0,33.0,-78.91845703125,-69.82421875,-73.91357421875,-2.6861572265625,1.4447021484375,-0.9591064453125
0.284,747,3176,15,3176,-18.0,34.0,33.0,-87.95165252685547,-55.480953216552734,-51.147457122802734,-3.036865234375,0.396240234375,-0.2998046875
0.291,3176,3176,3153,3176,-18.0,34.0,33.0,-58.593746185302734,-44.372554779052734,-27.954099655151367,-2.9793701171875,-0.407470703125,0.1253662109375
0.299,3176,3176,3176,3176,-18.0,34.0,33.0,-0.6103515625,-32.5927734375,-7.019042491912842,-2.0697021484375,-0.4451904296875,0.1224365234375
0.321,3176,3176,3176,3176,-18.0,34.0,33.0,51.452632904052734,-20.324705123901367,0.4882812201976776,-1.0255126953125,0.38525390625,-0.1533203125
0.321,3176,3176,3176,3176,-18.0,34.0,33.0,59.143062591552734,-11.169432640075684,-14.526366233825684,-0.914306640625,1.4130859375,-0.3935546875
0.329,3176,3176,3176,3176,-15.0,34.0,38.0,16.78466796875,-6.225585460662842,-43.090816497802734,-1.449462890625,1.484375,-0.3712158203125
0.342,3176,3176,3176,3176,-15.0,34.0,38.0,-29.235837936401367,-2.01416015625,-61.645503997802734,-1.90185546875,0.9715576171875,-0.22314453125
0.350,3176,3176,3176,3176,-15.0,34.0,38.0,-39.85595703125,3.234863042831421,-57.495113372802734,-1.9342041015625,0.5504150390625,-0.1380615234375
0.359,3176,3176,3176,3176,-15.0,34.0,38.0,-19.8974609375,9.521484375,-39.97802734375,-1.6845703125,0.4388427734375,-0.1824951171875
0.388,3176,3176,3176,3176,-15.0,34.0,38.0,3.112792730331421,16.6015625,-23.498533248901367,-1.3883056640625,0.5357666015625,-0.3349609375
0.389,3176,3176,3176,3176,-15.0,34.0,38.0,11.596678733825684,24.291990280151367,-14.221190452575684,-1.101806640625,0.590576171875,-0.4676513671875
0.389,3176,3176,2412,2757,-15.0,34.0,38.0,8.85009765625,30.273435592651367,-11.047362327575684,-0.8018798828125,0.4591064453125,-0.4571533203125
0.402,3176,3176,819,873,-15.0,34.0,38.0,5.737304210662842,33.26416015625,-10.375975608825684,-0.5430908203125,0.2611083984375,-0.357666015625
0.423,2782,2760,481,519,-15.0,34.0,38.0,5.493163585662842,31.616209030151367,-12.390135765075684,-0.3226318359375,0.0374755859375,-0.1942138671875
0.423,2063,2172,241,253,-15.0,34.0,38.0,6.713866710662842,23.864744186401367,-19.6533203125,-0.1727294921875,-0.1573486328125,-0.044921875
0.432,1387,1445,201,204,-15.0,37.0,35.0,10.986327171325684,14.831542015075684,-32.3486328125,-0.1741943359375,-0.18603515625,0.00244140625
0.441,1226,1267,198,207,-15.0,37.0,35.0,11.901854515075684,7.507323741912842,-46.386714935302734,-0.2791748046875,-0.0587158203125,0.0340576171875
0.449,1085,1104,186,183,-15.0,37.0,35.0,11.901854515075684,7.507323741912842,-46.386714935302734,-0.40234375,0.1026611328125,0.055419921875
0.462,1031,1062,156,163,-15.0,37.0,35.0,-9.033203125,-1.6479490995407104,-60.241695404052734,-0.4989013671875,0.1988525390625,0.003662109375
0.492,978,996,100,107,-15.0,37.0,35.0,-11.169432640075684,-2.38037109375,-57.678218841552734,-0.5411376953125,0.24462890625,-0.110595703125
0.492,928,951,74,80,-15.0,37.0,35.0,-11.169432640075684,-2.38037109375,-57.678218841552734,-0.575439453125,0.2596435546875,-0.2022705078125
0.493,932,969,18,36,-15.0,37.0,35.0,7.202147960662842,2.624511480331421,-28.015134811401367,-0.6636962890625,0.21923828125,-0.1759033203125
0.501,844,861,9,17,-15.0,37.0,35.0,14.282225608825684,5.554198741912842,-8.48388671875,-0.78564453125,0.127197265625,-0.057373046875
0.508,869,873,0,0,-15.0,37.0,35.0,14.282225608825684,5.554198741912842,-8.48388671875,-0.8941650390625,0.0936279296875,0.0389404296875
0.526,823,827,1,3,-16.0,37.0,37.0,26.855466842651367,17.9443359375,26.428220748901367,-0.9569091796875,0.1610107421875,0.0423583984375
0.531,883,871,0,19,-16.0,37.0,37.0,30.700681686401367,26.672361373901367,41.259761810302734,-0.977294921875,0.2247314453125,-0.0338134765625
0.539,882,848,28,28,-16.0,37.0,37.0,30.700681686401367,26.672361373901367,41.259761810302734,-0.98095703125,0.24462890625,-0.123046875
0.552,952,918,19,17,-16.0,37.0,37.0,32.40966796875,43.395992279052734,65.85693359375,-0.9796142578125,0.249755859375,-0.1820068359375
0.560,909,884,31,14,-16.0,37.0,37.0,36.9873046875,49.072261810302734,76.2939453125,-0.9693603515625,0.2445068359375,-0.2216796875
0.568,832,834,50,46,-16.0,37.0,37.0,36.9873046875,49.072261810302734,76.2939453125,-0.9168701171875,0.2685546875,-0.244140625
0.594,886,838,43,51,-16.0,37.0,37.0,56.091304779052734,55.358882904052734,92.77342987060547,-0.845458984375,0.35888671875,-0.242431640625
0.594,918,895,24,46,-16.0,37.0,37.0,57.128902435302734,60.424800872802734,99.48729705810547,-0.729736328125,0.476806640625,-0.2198486328125
0.598,909,883,22,39,-16.0,37.0,37.0,57.128902435302734,60.424800872802734,99.48729705810547,-0.5255126953125,0.5074462890625,-0.17822265625
0.631,966,954,97,100,-16.0,37.0,37.0,19.95849609375,67.9931640625,88.31786346435547,-0.33447265625,0.443115234375,-0.1063232421875
0.631,1065,1043,201,154,-19.0,38.0,34.0,-12.023924827575684,64.3310546875,67.9931640625,-0.1611328125,0.366455078125,0.0247802734375
0.631,1415,1452,253,198,-19.0,38.0,34.0,-49.499507904052734,48.767086029052734,44.067378997802734,0.100341796875,0.1832275390625,0.2186279296875
0.643,3176,3176,1417,1658,-19.0,38.0,34.0,-86.12059783935547,18.6767578125,14.343260765075684,0.4937744140625,-0.07275390625,0.3924560546875
0.652,3176,3176,2461,2846,-19.0,38.0,34.0,-88.86717987060547,-16.845703125,-13.610838890075684,0.5987548828125,0.3837890625,0.2861328125
0.660,3176,3176,3039,3176,-19.0,38.0,34.0,-31.127927780151367,-43.884273529052734,-25.329587936401367,0.2088623046875,1.1605224609375,-0.0654296875
0.673,631,3176,0,3176,-19.0,38.0,34.0,10.681151390075684,-77.57568359375,-46.630855560302734,0.1766357421875,0.895751953125,-0.3360595703125
0.701,597,3176,0,3176,-19.0,38.0,34.0,-31.005857467651367,-134.33837890625,-89.90477752685547,0.6673583984375,0.1502685546875,-0.2718505859375
0.701,636,3176,0,3176,-19.0,38.0,34.0,-31.005857467651367,-134.33837890625,-89.90477752685547,0.570556640625,-0.237060546875,-0.3314208984375
0.703,636,3176,0,3176,-19.0,38.0,34.0,-62.866207122802734,-184.14305114746094,-146.240234375,-0.558349609375,0.26171875,-0.846435546875
0.711,636,3176,0,3176,-19.0,38.0,34.0,-41.137691497802734,-149.71923828125,-140.5029296875,-2.1334228515625,1.4505615234375,-1.188720703125
0.731,636,3176,0,3176,-13.0,34.0,38.0,-41.137691497802734,-149.71923828125,-140.5029296875,-3.43310546875,1.5054931640625,-0.6552734375
0.733,633,3176,0,3176,-13.0,34.0,38.0,-98.51073455810547,-94.36034393310547,-97.65624237060547,-3.983154296875,0.196044921875,0.38671875
0.742,636,3176,0,3176,-13.0,34.0,38.0,-78.18603515625,-72.69287109375,-63.842769622802734,-3.7001953125,-0.6697998046875,0.7603759765625
0.750,633,3176,0,3176,-13.0,34.0,38.0,-78.18603515625,-72.69287109375,-63.842769622802734,-2.452880859375,-0.5010986328125,0.3553466796875
0.764,636,3176,0,3176,-13.0,34.0,38.0,70.6787109375,-7.995604991912842,-5.187987804412842,-1.3203125,0.53955078125,-0.1632080078125
0.773,635,3176,0,3176,-13.0,34.0,38.0,76.2939453125,12.207030296325684,-9.70458984375,-1.4464111328125,1.325927734375,-0.3927001953125
0.810,630,3176,0,3176,-13.0,34.0,38.0,76.2939453125,12.207030296325684,-9.70458984375,-2.0347900390625,1.04150390625,-0.3582763671875
0.810,638,3176,0,3176,-13.0,34.0,38.0,-14.282225608825684,19.47021484375,-22.766111373901367,-2.2342529296875,0.6185302734375,-0.2720947265625
0.810,636,3176,0,3176,-13.0,34.0,38.0,-22.277830123901367,23.925779342651367,-9.765625,-1.9947509765625,0.45458984375,-0.234619140625
0.810,636,3176,0,3176,-13.0,34.0,38.0,-22.277830123901367,23.925779342651367,-9.765625,-1.614013671875,0.469482421875,-0.2440185546875
0.832,644,3176,0,3176,-15.0,35.0,30.0,-2.624511480331421,38.330078125,12.451170921325684,-1.2659912109375,0.5523681640625,-0.31396484375
0.832,636,3176,0,2961,-15.0,35.0,30.0,-2.0751953125,45.959468841552734,17.2119140625,-0.93115234375,0.5057373046875,-0.3709716796875
0.840,629,3176,0,1487,-15.0,35.0,30.0,-2.0751953125,45.959468841552734,17.2119140625,-0.615478515625,0.2156982421875,-0.3016357421875
0.853,2258,2233,322,338,-15.0,35.0,30.0,-6.225585460662842,54.626461029052734,15.502928733825684,-0.322021484375,-0.244140625,-0.073486328125
0.861,1588,1538,280,286,-15.0,35.0,30.0,4.45556640625,50.537105560302734,6.713866710662842,-0.1064453125,-0.5869140625,0.1221923828125
0.869,1213,1107,301,310,-15.0,35.0,30.0,4.45556640625,50.537105560302734,6.713866710662842,-0.0584716796875,-0.5159912109375,0.1824951171875
0.897,1159,996,201,220,-15.0,35.0,30.0,49.194332122802734,33.14208984375,-15.502928733825684,-0.14453125,-0.1527099609375,0.191162109375
0.897,1125,939,182,184,-15.0,35.0,30.0,54.870601654052734,20.568845748901367,-24.658201217651367,-0.291259765625,0.1951904296875,0.12158203125
0.909,1022,992,62,78,-15.0,35.0,30.0,54.870601654052734,20.568845748901367,-24.658201217651367,-0.4154052734375,0.3482666015625,-0.0283203125
0.913,861,860,0,0,-11.0,36.0,40.0,37.17041015625,7.263183116912842,-37.4755859375,-0.4813232421875,0.3819580078125,-0.252685546875
0.935,846,846,0,0,-11.0,36.0,40.0,30.151365280151367,10.864256858825684,-29.663084030151367,-0.497314453125,0.4132080078125,-0.4365234375
0.935,809,822,0,0,-11.0,36.0,40.0,30.151365280151367,10.864256858825684,-29.663084030151367,-0.49755859375,0.3797607421875,-0.4140625
0.943,782,793,0,0,-11.0,36.0,40.0,10.192870140075684,25.207517623901367,6.958007335662842,-0.5684814453125,0.2237548828125,-0.218017578125
0.951,794,793,0,0,-11.0,36.0,40.0,3.479003667831421,33.0810546875,24.108884811401367,-0.724365234375,-0.0067138671875,0.0001220703125
0.959,794,801,0,0,-11.0,36.0,40.0,3.479003667831421,33.0810546875,24.108884811401367,-0.8173828125,-0.1158447265625,0.0902099609375
0.973,827,816,0,0,-11.0,36.0,40.0,30.029294967651367,50.109859466552734,60.119625091552734,-0.7620849609375,0.0101318359375,0.03466796875
0.981,871,869,0,0,-11.0,36.0,40.0,43.640132904052734,54.260250091552734,68.9697265625,-0.6678466796875,0.2003173828125,-0.019287109375
1.002,912,916,0,0,-11.0,36.0,40.0,43.640132904052734,54.260250091552734,68.9697265625,-0.6072998046875,0.3448486328125,0.00439453125
1.003,1004,1017,0,0,-11.0,36.0,40.0,34.72900390625,40.527339935302734,62.866207122802734,-0.572021484375,0.4906005859375,0.048583984375
1.014,1078,1073,0,0,-14.0,37.0,29.0,30.029294967651367,29.296873092651367,57.983394622802734,-0.5611572265625,0.6270751953125,0.0640869140625
1.019,1167,1143,69,86,-14.0,37.0,29.0,30.029294967651367,29.296873092651367,57.983394622802734,-0.5732421875,0.660400390625,0.024658203125
1.044,1300,1185,197,203,-14.0,37.0,29.0,22.460935592651367,18.37158203125,53.466793060302734,-0.6180419921875,0.5992431640625,-0.07421875
1.044,1287,1184,258,274,-14.0,37.0,29.0,15.136717796325684,23.498533248901367,58.532711029052734,-0.696533203125,0.522216796875,-0.1961669921875
1.049,1318,1213,279,281,-14.0,37.0,29.0,15.136717796325684,23.498533248901367,58.532711029052734,-0.79736328125,0.439208984375,-0.2938232421875
1.063,1547,1497,326,333,-14.0,37.0,29.0,-3.967284917831421,49.499507904052734,82.45848846435547,-0.888916015625,0.2945556640625,-0.3221435546875
1.071,1936,1936,483,502,-14.0,37.0,29.0,-18.24951171875,61.950679779052734,90.88134002685547,-0.877197265625,0.0789794921875,-0.2735595703125
1.079,2619,2631,656,698,-14.0,37.0,29.0,-18.24951171875,61.950679779052734,90.88134002685547,-0.661376953125,-0.09619140625,-0.1212158203125
1.102,3176,3176,1416,1632,-14.0,37.0,29.0,-34.5458984375,48.706050872802734,82.88573455810547,-0.128173828125,-0.1287841796875,0.17431640625
1.102,3176,3176,1981,2804,-14.0,37.0,29.0,-22.216794967651367,4.2724609375,54.321285247802734,0.8028564453125,0.0269775390625,0.3909912109375
1.109,3176,3176,1701,3176,-20.0,37.0,32.0,-22.216794967651367,4.2724609375,54.321285247802734,1.5347900390625,0.1397705078125,0.3492431640625
1.123,2222,3176,1725,3176,-20.0,37.0,32.0,-31.616209030151367,-145.8740234375,-63.781734466552734,1.5887451171875,-0.1177978515625,0.1500244140625
1.140,631,3176,0,3176,-20.0,37.0,32.0,-18.37158203125,-187.25584411621094,-106.20116424560547,0.6092529296875,0.2265625,-0.8585205078125
1.148,635,3176,0,3176,-20.0,37.0,32.0,-18.37158203125,-187.25584411621094,-106.20116424560547,-1.3731689453125,1.8095703125,-2.3387451171875
1.153,636,3176,0,3176,-20.0,37.0,32.0,-20.874021530151367,-133.23974609375,-142.2119140625,-2.8348388671875,2.822509765625,-2.2457275390625
1.161,633,3176,0,3176,-20.0,37.0,32.0,-20.874021530151367,-133.23974609375,-142.2119140625,-3.529052734375,2.287841796875,-0.4085693359375
1.169,633,3176,0,3176,-20.0,37.0,32.0,-123.84032440185547,-123.47411346435547,-138.48876953125,-3.529052734375,2.287841796875,-0.4085693359375
1.183,635,3176,0,3176,-20.0,37.0,32.0,-105.89598846435547,-67.44384765625,-73.3642578125,-2.808349609375,-1.548095703125,1.2896728515625
1.205,633,3176,0,3176,-20.0,37.0,32.0,-105.89598846435547,-67.44384765625,-73.3642578125,-1.4195556640625,-0.694091796875,0.42138671875
1.205,631,3176,0,3176,-20.0,37.0,32.0,33.63037109375,-21.423337936401367,-35.7666015625,-1.4195556640625,-0.694091796875,0.42138671875
1.213,636,3176,0,3176,-14.0,34.0,36.0,89.59960174560547,12.695311546325684,-32.40966796875,-1.76611328125,1.4696044921875,-0.712646484375
1.236,636,3176,0,3176,-14.0,34.0,36.0,89.59960174560547,12.695311546325684,-32.40966796875,-2.126220703125,0.8577880859375,-0.460693359375
1.237,618,3176,0,3176,-14.0,34.0,36.0,6.835937023162842,17.76123046875,-39.0625,-2.126220703125,0.8577880859375,-0.460693359375
1.238,635,3176,0,3176,-14.0,34.0,36.0,-41.625972747802734,25.207517623901367,-25.512693405151367,-2.041015625,0.3294677734375,-0.1864013671875
1.260,635,3176,0,3176,-14.0,34.0,36.0,-28.137205123901367,50.048824310302734,15.441893577575684,-1.3848876953125,0.3609619140625,-0.2750244140625
1.262,640,3176,0,2566,-14.0,34.0,36.0,-28.137205123901367,50.048824310302734,15.441893577575684,-1.028564453125,0.4300537109375,-0.4014892578125
1.268,636,3176,0,1103,-14.0,34.0,36.0,-20.874021530151367,60.119625091552734,26.611326217651367,-1.028564453125,0.4300537109375,-0.4014892578125
1.282,2323,2339,368,393,-14.0,34.0,36.0,-13.732909202575684,73.79150390625,25.756834030151367,-0.3748779296875,-0.0888671875,-0.1988525390625
1.306,1605,1540,274,293,-14.0,34.0,36.0,-13.732909202575684,73.79150390625,25.756834030151367,-0.1138916015625,-0.368408203125,0.0137939453125
1.306,1185,1159,268,286,-14.0,34.0,36.0,1.3427733182907104,70.12939453125,14.282225608825684,-0.1138916015625,-0.368408203125,0.0137939453125
1.312,954,862,243,241,-14.0,36.0,34.0,47.668453216552734,45.349117279052734,-18.49365234375,0.00634765625,-0.05419921875,0.2711181640625
1.321,898,842,208,197,-14.0,36.0,34.0,47.668453216552734,45.349117279052734,-18.49365234375,-0.0977783203125,0.222900390625,0.2982177734375
1.350,917,858,184,186,-14.0,36.0,34.0,52.246089935302734,28.869626998901367,-34.36279296875,-0.0977783203125,0.222900390625,0.2982177734375
1.351,886,873,0,0,-14.0,36.0,34.0,25.512693405151367,10.803221702575684,-50.476070404052734,-0.2921142578125,0.6749267578125,-0.10400390625
1.351,779,782,0,0,-14.0,36.0,34.0,25.512693405151367,10.803221702575684,-50.476070404052734,-0.291015625,0.6795654296875,-0.286376953125
1.358,753,767,0,0,-14.0,36.0,34.0,2.929687261581421,8.9111328125,-40.710445404052734,-0.291015625,0.6795654296875,-0.286376953125
1.373,844,855,0,0,-14.0,36.0,34.0,-33.75244140625,12.695311546325684,-7.812499523162842,-0.384033203125,0.0609130859375,-0.1781005859375
1.380,962,901,81,99,-14.0,36.0,34.0,-33.75244140625,12.695311546325684,-7.812499523162842,-0.508544921875,-0.224853515625,0.0086669921875
1.388,989,872,160,170,-14.0,36.0,34.0,-36.68212890625,14.709471702575684,3.234863042831421,-0.508544921875,-0.224853515625,0.0086669921875
1.413,1066,958,282,287,-13.0,34.0,33.0,-26.306150436401367,15.869139671325684,12.512206077575684,-0.7069091796875,-0.1009521484375,0.0198974609375
1.413,1183,1025,282,297,-13.0,34.0,33.0,-5.432128429412842,15.747069358825684,20.141599655151367,-0.7069091796875,-0.1009521484375,0.0198974609375
1.419,1239,1145,314,326,-13.0,34.0,33.0,16.7236328125,13.793944358825684,24.536130905151367,-0.7828369140625,0.1583251953125,-0.07177734375
1.448,1384,1303,326,341,-13.0,34.0,33.0,31.372068405151367,11.047362327575684,26.916501998901367,-1.0164794921875,0.5499267578125,-0.2926025390625
1.449,1464,1404,407,414,-13.0,34.0,33.0,35.21728515625,10.009765625,29.357908248901367,-1.0164794921875,0.5499267578125,-0.2926025390625
1.449,1591,1499,354,373,-13.0,34.0,33.0,27.465818405151367,10.925292015075684,31.677244186401367,-1.1175537109375,0.5574951171875,-0.3927001953125
1.462,1643,1600,451,465,-13.0,34.0,33.0,9.27734375,12.084959983825684,33.8134765625,-1.08203125,0.3953857421875,-0.3968505859375
1.470,1689,1636,473,486,-13.0,34.0,33.0,-10.070799827575684,13.305663108825684,37.841796875,-1.08203125,0.3953857421875,-0.3968505859375
1.485,1658,1611,464,478,-13.0,34.0,33.0,-21.545408248901367,15.686034202575684,44.433589935302734,-1.0751953125,0.3709716796875,-0.4095458984375
1.498,1567,1503,463,478,-13.0,34.0,33.0,-26.000974655151367,18.98193359375,52.124019622802734,-1.1185302734375,0.2296142578125,-0.3475341796875
1.511,1469,1391,440,461,-16.0,38.0,35.0,-27.160642623901367,22.338865280151367,60.424800872802734,-1.1185302734375,0.2296142578125,-0.3475341796875
1.511,1357,1243,418,431,-16.0,38.0,35.0,-24.291990280151367,25.207517623901367,69.9462890625,-1.0906982421875,0.1949462890625,-0.2716064453125
1.522,1160,1063,367,371,-16.0,38.0,35.0,-16.11328125,27.648923873901367,81.11571502685547,-0.9827880859375,0.2235107421875,-0.1846923828125
1.530,1064,1008,354,356,-16.0,38.0,35.0,-3.784179449081421,30.517576217651367,93.44481658935547,-0.9827880859375,0.2235107421875,-0.1846923828125
1.551,996,1004,361,365,-16.0,38.0,35.0,9.3994140625,35.2783203125,106.81151580810547,-0.911376953125,0.2310791015625,-0.1910400390625
1.553,1254,1245,435,438,-16.0,38.0,35.0,18.1884765625,42.297359466552734,120.60546112060547,-0.5712890625,0.176025390625,-0.1126708984375
1.560,1655,1725,529,547,-16.0,38.0,35.0,15.808104515075684,48.156734466552734,130.37109375,-0.5712890625,0.176025390625,-0.1126708984375
1.568,2389,2543,661,697,-16.0,38.0,35.0,-0.9765624403953552,43.884273529052734,128.35693359375,-0.1036376953125,0.0465087890625,0.1453857421875
1.582,3176,3176,1578,1848,-16.0,38.0,35.0,-12.512206077575684,23.742673873901367,110.83983612060547,1.224609375,0.1046142578125,0.4285888671875
1.590,3176,3176,2174,2983,-16.0,38.0,35.0,8.1787109375,-13.488768577575684,76.416015625,1.224609375,0.1046142578125,0.4285888671875
1.613,2249,3176,2056,3176,-18.0,34.0,37.0,42.236324310302734,-67.56591796875,19.34814453125,1.6749267578125,0.3388671875,0.13720703125
1.613,619,3176,3176,3176,-18.0,34.0,37.0,40.0390625,-128.35693359375,-52.673336029052734,1.0411376953125,0.2169189453125,-0.0426025390625
1.620,618,3176,0,3176,-18.0,34.0,37.0,2.868652105331421,-175.78123474121094,-116.45507049560547,1.0411376953125,0.2169189453125,-0.0426025390625
1.628,629,3176,0,3176,-18.0,34.0,37.0,-11.047362327575684,-187.43894958496094,-153.076171875,-0.598388671875,1.0076904296875,-0.816162109375
1.657,636,3176,0,3176,-18.0,34.0,37.0,-17.51708984375,-165.64939880371094,-164.06248474121094,-3.329833984375,2.830078125,-1.21826171875
1.659,612,3176,0,3176,-18.0,34.0,37.0,-73.54736328125,-137.02392578125,-156.982421875,-3.329833984375,2.830078125,-1.21826171875
1.659,632,3176,0,3176,-18.0,34.0,37.0,-142.4560546875,-112.12157440185547,-127.25829315185547,-4.0,1.4586181640625,0.2022705078125
1.672,620,3176,0,3176,-18.0,34.0,37.0,-135.3759765625,-75.5615234375,-78.61328125,-1.4091796875,-1.3018798828125,0.4053955078125
1.680,628,3176,0,3176,-18.0,34.0,37.0,-6.591796398162842,-32.2265625,-24.291990280151367,-1.4091796875,-1.3018798828125,0.4053955078125
1.689,620,3176,0,3176,-18.0,34.0,37.0,125.79344940185547,-11.352538108825684,2.746581792831421,-0.7879638671875,0.78662109375,-0.2279052734375
1.716,616,3176,0,3176,-16.0,34.0,36.0,131.34765625,-12.084959983825684,-18.9208984375,-1.7147216796875,1.4268798828125,-0.4815673828125
1.716,607,3176,0,3176,-16.0,34.0,36.0,56.884761810302734,-17.08984375,-54.992671966552734,-1.7147216796875,1.4268798828125,-0.4815673828125
1.718,612,3176,0,3176,-16.0,34.0,36.0,-5.065917491912842,-20.202634811401367,-69.580078125,-2.025146484375,0.89453125,-0.348876953125
1.732,603,3176,0,3176,-16.0,34.0,36.0,-23.681638717651367,-17.9443359375,-65.49072265625,-1.7093505859375,0.3072509765625,-0.2869873046875
1.759,614,3176,0,3176,-16.0,34.0,36.0,-15.991209983825684,-10.925292015075684,-55.480953216552734,-1.7093505859375,0.3072509765625,-0.2869873046875
1.761,614,3176,0,3176,-16.0,34.0,36.0,-3.662109136581421,-2.868652105331421,-43.334957122802734,-1.47216796875,0.3209228515625,-0.2940673828125
1.763,631,3176,0,1292,-16.0,34.0,36.0,1.7089842557907104,7.934569835662842,-29.663084030151367,-0.939453125,0.3231201171875,-0.2716064453125
1.770,1506,2833,575,729,-16.0,34.0,36.0,-1.9531248807907104,22.399900436401367,-16.845703125,-0.939453125,0.3231201171875,-0.2716064453125
1.779,2045,2143,500,522,-16.0,34.0,36.0,-8.97216796875,36.865234375,-6.652831554412842,-0.6151123046875,-0.0101318359375,-0.0194091796875
1.792,1041,1035,493,502,-13.0,33.0,38.0,-10.192870140075684,46.630855560302734,-1.4038084745407104,-0.04443359375,-0.632568359375,0.5047607421875
1.826,948,958,481,488,-13.0,33.0,38.0,6.103515148162842,50.537105560302734,-3.784179449081421,-0.04443359375,-0.632568359375,0.5047607421875
1.826,873,869,419,426,-13.0,33.0,38.0,35.33935546875,48.217769622802734,-10.620116233825684,0.0428466796875,-0.332275390625,0.5401611328125
1.826,848,855,342,353,-13.0,33.0,38.0,54.992671966552734,39.1845703125,-17.76123046875,-0.1910400390625,0.3087158203125,0.2828369140625
1.830,861,861,322,323,-13.0,33.0,38.0,53.771968841552734,28.076169967651367,-24.230955123901367,-0.1910400390625,0.3087158203125,0.2828369140625
1.840,846,854,301,304,-13.0,33.0,38.0,39.00146484375,20.874021530151367,-26.733396530151367,-0.358642578125,0.4246826171875,-0.033203125
1.856,873,883,245,253,-13.0,33.0,38.0,22.460935592651367,19.287109375,-20.935056686401367,-0.49755859375,0.493408203125,-0.5048828125
1.866,878,889,181,182,-13.0,33.0,38.0,8.11767578125,21.911619186401367,-6.103515148162842,-0.49755859375,0.493408203125,-0.5048828125
1.870,873,882,127,138,-13.0,33.0,38.0,-6.896972179412842,26.184080123901367,11.535643577575684,-0.54248046875,0.3751220703125,-0.48876953125
1.882,860,873,109,115,-13.0,33.0,38.0,-23.376462936401367,30.090330123901367,24.902341842651367,-0.6199951171875,0.18701171875,-0.3719482421875
1.890,827,827,139,139,-15.0,34.0,37.0,-37.78076171875,32.28759765625,32.16552734375,-0.69873046875,0.0146484375,-0.2474365234375
1.898,780,787,223,224,-15.0,34.0,37.0,-44.616695404052734,32.40966796875,34.97314453125,-0.7374267578125,-0.0589599609375,-0.1712646484375
1.921,833,830,294,297,-15.0,34.0,37.0,-39.85595703125,31.066892623901367,35.888671875,-0.726806640625,0.019287109375,-0.13623046875
1.922,886,875,333,331,-15.0,34.0,37.0,-26.123044967651367,28.991697311401367,35.5224609375,-0.712890625,0.1939697265625,-0.1048583984375
1.928,888,887,351,354,-15.0,34.0,37.0,-11.535643577575684,25.512693405151367,33.935546875,-0.706787109375,0.3345947265625,-0.0499267578125
1.942,929,927,431,438,-15.0,34.0,37.0,-1.3427733182907104,21.606443405151367,33.50830078125,-0.6923828125,0.40234375,0.003173828125
1.957,967,964,481,481,-15.0,34.0,37.0,4.2724609375,20.080564498901367,36.07177734375,-0.69287109375,0.4429931640625,0.0252685546875
1.959,1074,1083,500,507,-15.0,34.0,37.0,4.39453125,21.850584030151367,41.259761810302734,-0.7347412109375,0.456787109375,0.01904296875
1.972,1201,1224,529,538,-15.0,34.0,37.0,-1.8920897245407104,27.221677780151367,48.583980560302734,-0.8148193359375,0.431884765625,-0.0333251953125
1.981,1264,1289,516,531,-15.0,34.0,37.0,-12.512206077575684,36.68212890625,58.654781341552734,-0.9151611328125,0.3902587890625,-0.1298828125
1.989,1295,1326,507,516,-17.0,37.0,39.0,-23.559568405151367,50.109859466552734,71.533203125,-1.01904296875,0.34033203125,-0.2384033203125
2.002,1316,1355,476,490,-17.0,37.0,39.0,-32.3486328125,66.22314453125,86.54784393310547,-1.105224609375,0.2587890625,-0.3203125
2.023,1375,1404,473,488,-17.0,37.0,39.0,-37.53662109375,82.76366424560547,102.72216033935547,-1.1412353515625,0.13818359375,-0.323486328125
2.024,1620,1715,497,548,-17.0,37.0,39.0,-38.51318359375,96.92382049560547,119.81200408935547,-1.0673828125,-0.0501708984375,-0.200439453125
2.032,3062,3128,912,955,-17.0,37.0,39.0,-40.0390625,100.15868377685547,133.544921875,-0.684326171875,-0.3138427734375,0.105712890625
2.041,3176,3176,1588,1844,-17.0,37.0,39.0,-42.114253997802734,79.04052734375,134.82666015625,0.142822265625,-0.5042724609375,0.5435791015625
2.051,3176,3176,2524,3008,-17.0,37.0,39.0,-23.132322311401367,26.977537155151367,111.38915252685547,1.257568359375,-0.4736328125,0.6884765625
2.062,3176,3176,3176,3176,-17.0,37.0,39.0,24.475095748901367,-47.851558685302734,56.091304779052734,2.0577392578125,-0.130126953125,0.451904296875
2.070,3176,3176,67,3176,-17.0,37.0,39.0,67.7490234375,-127.38036346435547,-16.11328125,2.0765380859375,0.291748046875,0.158935546875
2.078,636,3176,0,3176,-17.0,37.0,39.0,88.92821502685547,-181.45750427246094,-79.77294921875,0.9873046875,1.1529541015625,-0.74462890625
2.095,630,3176,0,3176,-19.0,36.0,35.0,83.43505096435547,-179.74851989746094,-120.60546112060547,-0.935546875,2.544921875,-2.21044921875
2.101,609,3176,0,3176,-19.0,36.0,35.0,4.45556640625,-152.16064453125,-141.66259765625,-2.3922119140625,3.0614013671875,-2.362060546875
2.126,605,3176,0,3176,-19.0,36.0,35.0,-123.22997283935547,-132.50732421875,-143.37158203125,-3.2864990234375,2.8492431640625,-0.7430419921875
2.126,601,3176,0,3176,-19.0,36.0,35.0,-200.50047302246094,-104.24803924560547,-114.25780487060547,-3.5736083984375,0.88232421875,0.8448486328125
2.131,618,3176,0,3176,-19.0,36.0,35.0,-143.798828125,-58.227535247802734,-62.622066497802734,-2.0948486328125,-1.3221435546875,1.1767578125
2.138,629,3176,0,3176,-19.0,36.0,35.0,38.39111328125,-18.9208984375,-11.840819358825684,-0.6591796875,-0.2967529296875,0.4031982421875
2.164,631,3176,0,3176,-19.0,36.0,35.0,162.23143005371094,-6.469726085662842,-1.03759765625,-0.8126220703125,1.6114501953125,-0.522216796875
2.164,629,3176,0,3176,-19.0,36.0,35.0,124.75585174560547,-6.896972179412842,-36.62109375,-1.4818115234375,1.887939453125,-0.8221435546875
2.169,631,3176,0,3176,-19.0,36.0,35.0,25.390623092651367,-11.169432640075684,-67.2607421875,-2.0086669921875,1.1722412109375,-0.5592041015625
2.185,603,3176,0,3176,-19.0,36.0,35.0,-31.860349655151367,-14.099120140075684,-67.87109375,-2.071533203125,0.6195068359375,-0.2479248046875
2.191,633,3176,0,3176,-13.0,36.0,38.0,-34.24072265625,-8.23974609375,-53.588863372802734,-1.850341796875,0.3912353515625,-0.1881103515625
2.199,620,3176,0,3176,-13.0,36.0,38.0,-18.1884765625,2.50244140625,-38.87939453125,-1.569580078125,0.3114013671875,-0.2515869140625
2.229,629,3176,0,2440,-13.0,36.0,38.0,-7.141112804412842,13.244627952575684,-24.475095748901367,-1.3154296875,0.3848876953125,-0.35205078125
2.229,635,3176,0,1178,-13.0,36.0,38.0,-6.896972179412842,26.489255905151367,-10.253905296325684,-1.0390625,0.385009765625,-0.3978271484375
2.229,669,2518,264,696,-13.0,36.0,38.0,-11.596678733825684,42.053218841552734,1.5869139432907104,-0.732666015625,0.1549072265625,-0.248779296875
2.245,1512,1589,0,433,-13.0,36.0,38.0,-12.939452171325684,53.405757904052734,9.33837890625,-0.4097900390625,-0.2703857421875,0.063720703125
2.252,1112,1117,477,480,-13.0,36.0,38.0,-3.051757574081421,57.250972747802734,9.58251953125,-0.125244140625,-0.648681640625,0.349609375
2.267,976,978,465,469,-13.0,36.0,38.0,21.057126998901367,54.260250091552734,2.44140625,0.02783203125,-0.556640625,0.480712890625
2.274,823,822,349,351,-13.0,36.0,38.0,45.288082122802734,44.006343841552734,-8.1787109375,0.030517578125,-0.1348876953125,0.501953125
2.281,859,858,284,286,-13.0,36.0,38.0,54.382320404052734,29.907224655151367,-21.240232467651367,-0.1204833984375,0.2640380859375,0.4002685546875
2.292,877,875,248,243,-14.0,37.0,33.0,48.828121185302734,18.98193359375,-32.1044921875,-0.296875,0.51806640625,0.1146240234375
2.303,861,871,223,223,-14.0,37.0,33.0,36.62109375,15.075682640075684,-32.89794921875,-0.3564453125,0.622802734375,-0.24365234375
2.311,868,873,158,152,-14.0,37.0,33.0,23.254392623901367,16.78466796875,-21.667478561401367,-0.34521484375,0.5845947265625,-0.475341796875
2.331,859,860,165,164,-14.0,37.0,33.0,8.30078125,20.690916061401367,-4.150390625,-0.390625,0.428466796875,-0.4884033203125
2.333,885,887,159,167,-14.0,37.0,33.0,-9.8876953125,24.108884811401367,11.962889671325684,-0.5146484375,0.22607421875,-0.3343505859375
2.340,907,918,201,199,-14.0,37.0,33.0,-27.343748092651367,26.062009811401367,23.071287155151367,-0.64306640625,0.0440673828125,-0.1773681640625
2.349,901,907,238,238,-14.0,37.0,33.0,-36.68212890625,27.465818405151367,29.541013717651367,-0.7305908203125,-0.04296875,-0.1092529296875
2.369,918,916,282,284,-14.0,37.0,33.0,-33.50830078125,28.442380905151367,34.1796875,-0.7735595703125,0.020263671875,-0.1060791015625
2.371,981,948,312,298,-14.0,37.0,33.0,-20.507810592651367,27.893064498901367,39.00146484375,-0.7880859375,0.1578369140625,-0.1246337890625
2.378,944,943,314,309,-14.0,37.0,33.0,-4.21142578125,25.939939498901367,43.884273529052734,-0.8021240234375,0.294677734375,-0.132080078125
2.401,966,963,338,339,-16.0,36.0,34.0,8.72802734375,23.559568405151367,48.095699310302734,-0.8316650390625,0.402099609375,-0.114990234375
2.401,982,991,334,351,-16.0,36.0,34.0,14.465331077575684,21.423337936401367,51.147457122802734,-0.8638916015625,0.4595947265625,-0.0872802734375
2.408,1009,1018,368,368,-16.0,36.0,34.0,13.610838890075684,20.935056686401367,54.443355560302734,-0.8897705078125,0.4730224609375,-0.0877685546875
2.437,1085,1101,379,381,-16.0,36.0,34.0,8.11767578125,23.193357467651367,59.326168060302734,-0.9090576171875,0.449951171875,-0.139404296875
2.437,1133,1155,380,386,-16.0,36.0,34.0,0.4882812201976776,28.015134811401367,65.673828125,-0.9210205078125,0.4053955078125,-0.22265625
2.439,1153,1172,378,391,-16.0,36.0,34.0,-6.408690929412842,34.72900390625,73.3642578125,-0.9232177734375,0.365478515625,-0.3017578125
2.452,1153,1160,371,377,-16.0,36.0,34.0,-10.925292015075684,43.090816497802734,82.45848846435547,-0.927734375,0.3406982421875,-0.35693359375
2.473,1156,1185,376,372,-16.0,36.0,34.0,-14.648436546325684,52.978511810302734,92.89550018310547,-0.933837890625,0.3074951171875,-0.353759765625
2.473,1157,1172,379,385,-16.0,36.0,34.0,-20.202634811401367,62.927242279052734,103.51561737060547,-0.8756103515625,0.2257080078125,-0.278076171875
2.482,1954,2104,494,533,-20.0,38.0,33.0,-29.235837936401367,68.42041015625,110.96190643310547,-0.6773681640625,0.0977783203125,-0.1116943359375
2.491,2894,2906,806,860,-20.0,38.0,33.0,-39.48974609375,60.424800872802734,109.68016815185547,-0.237060546875,-0.053466796875,0.1287841796875
2.508,3176,3176,1155,1362,-20.0,38.0,33.0,-39.6728515625,31.555173873901367,93.32274627685547,0.3988037109375,-0.03076171875,0.2601318359375
2.512,3176,3176,2677,3176,-20.0,38.0,33.0,-11.779784202575684,-18.12744140625,57.006832122802734,1.0328369140625,0.113037109375,0.267578125
2.536,3176,3176,3176,3176,-20.0,38.0,33.0,24.841306686401367,-80.62743377685547,-6.896972179412842,1.5472412109375,0.1893310546875,0.1441650390625
2.536,3176,3176,3176,3176,-20.0,38.0,33.0,25.512693405151367,-142.2119140625,-79.833984375,1.732666015625,0.12744140625,-0.0174560546875
2.542,605,3176,0,3176,-20.0,38.0,33.0,11.962889671325684,-182.80027770996094,-128.96728515625,0.8941650390625,0.419189453125,-0.468994140625
2.551,603,3176,0,3176,-20.0,38.0,33.0,14.892577171325684,-182.37303161621094,-146.8505859375,-0.9263916015625,1.9061279296875,-1.3671875
2.573,617,3176,0,3176,-20.0,38.0,33.0,-29.357908248901367,-158.02001953125,-144.4091796875,-2.5010986328125,3.0638427734375,-1.537353515625
2.574,617,3176,0,3176,-20.0,38.0,33.0,-126.52587127685547,-132.87353515625,-131.591796875,-3.5189208984375,2.3597412109375,-0.202880859375
2.581,636,3176,0,3176,-14.0,34.0,37.0,-172.18016052246094,-98.51073455810547,-102.60009002685547,-3.9991455078125,-0.062255859375,1.10791015625
2.592,633,3176,0,3176,-14.0,34.0,37.0,-98.69384002685547,-46.325679779052734,-51.635738372802734,-2.91015625,-2.087890625,0.9595947265625
2.602,636,3176,0,3176,-14.0,34.0,37.0,55.175777435302734,2.563476324081421,5.615233898162842,-1.4041748046875,-1.05322265625,0.0760498046875
2.612,636,3176,0,3176,-14.0,34.0,37.0,147.705078125,21.728513717651367,32.28759765625,-1.0438232421875,1.0673828125,-0.5421142578125
2.643,636,3176,0,3176,-14.0,34.0,37.0,112.48778533935547,18.85986328125,19.34814453125,-1.3360595703125,1.7369384765625,-0.662109375
2.647,636,3176,0,3176,-14.0,34.0,37.0,32.1044921875,10.314940452575684,-2.807616949081421,-1.715087890625,1.4058837890625,-0.49658203125
2.647,635,3176,0,3176,-14.0,34.0,37.0,-14.343260765075684,4.150390625,-15.319823265075684,-1.7706298828125,0.93359375,-0.358154296875
2.648,617,3176,0,3176,-14.0,34.0,37.0,-19.53125,3.479003667831421,-19.83642578125,-1.5953369140625,0.6470947265625,-0.3258056640625
2.675,636,3176,0,3176,-14.0,34.0,37.0,-9.33837890625,6.164550304412842,-20.812986373901367,-1.3804931640625,0.4857177734375,-0.286865234375
2.680,616,3176,0,3176,-14.0,34.0,37.0,-1.0986328125,10.253905296325684,-19.6533203125,-1.19775390625,0.4622802734375,-0.2952880859375
2.684,620,3176,0,2607,-17.0,34.0,36.0,1.3427733182907104,17.7001953125,-15.686034202575684,-1.00537109375,0.45263671875,-0.3385009765625
2.693,3176,3176,952,981,-17.0,34.0,36.0,0.6713866591453552,27.587888717651367,-9.33837890625,-0.796875,0.296875,-0.2977294921875
2.700,2494,2658,654,682,-17.0,34.0,36.0,0.6103515625,34.85107421875,-2.38037109375,-0.5550537109375,-0.0294189453125,-0.10888671875
2.709,2048,2158,545,579,-17.0,34.0,36.0,6.408690929412842,35.15625,0.7934569716453552,-0.28564453125,-0.4278564453125,0.1502685546875
2.740,1346,1377,546,557,-17.0,34.0,36.0,25.329587936401367,30.273435592651367,-1.9531248807907104,-0.087646484375,-0.5087890625,0.3267822265625
2.740,1213,1234,473,472,-17.0,34.0,36.0,48.950191497802734,23.437498092651367,-8.6669921875,-0.0062255859375,-0.192626953125,0.4208984375
2.740,1093,1104,432,437,-17.0,34.0,36.0,58.044429779052734,16.7236328125,-17.578125,-0.0638427734375,0.1866455078125,0.4266357421875
2.753,1008,1020,405,405,-17.0,34.0,36.0,48.339839935302734,13.305663108825684,-26.977537155151367,-0.2352294921875,0.4295654296875,0.2852783203125
2.761,992,1005,381,391,-17.0,34.0,36.0,30.822751998901367,13.977049827575684,-31.799314498901367,-0.400634765625,0.5137939453125,-0.0087890625
2.781,1017,1018,398,407,-17.0,34.0,36.0,19.04296875,16.4794921875,-28.137205123901367,-0.468017578125,0.4921875,-0.322998046875
2.783,996,996,370,369,-17.0,35.0,35.0,15.014647483825684,19.59228515625,-15.747069358825684,-0.512451171875,0.470703125,-0.4801025390625
2.790,992,996,356,363,-17.0,35.0,35.0,7.812499523162842,23.254392623901367,2.0751953125,-0.5992431640625,0.4456787109375,-0.4112548828125
2.798,980,982,379,379,-17.0,35.0,35.0,-10.253905296325684,25.939939498901367,18.12744140625,-0.686767578125,0.3138427734375,-0.229248046875
2.812,1017,1024,413,419,-17.0,35.0,35.0,-30.822751998901367,27.832029342651367,26.306150436401367,-0.75634765625,0.1314697265625,-0.1295166015625
2.842,1034,1031,423,430,-17.0,35.0,35.0,-40.344234466552734,29.418943405151367,27.770994186401367,-0.816162109375,0.0869140625,-0.1510009765625
2.842,1050,1035,465,465,-17.0,35.0,35.0,-36.19384765625,29.113767623901367,27.770994186401367,-0.8607177734375,0.1993408203125,-0.2069091796875
2.843,1074,1070,420,411,-17.0,35.0,35.0,-25.329587936401367,26.306150436401367,28.564451217651367,-0.88671875,0.3365478515625,-0.2252197265625
2.850,1078,1085,484,494,-17.0,35.0,35.0,-14.648436546325684,22.216794967651367,30.151365280151367,-0.894287109375,0.4261474609375,-0.2034912109375
2.859,1078,1071,493,497,-17.0,35.0,35.0,-5.920409679412842,18.6767578125,33.3251953125,-0.8804931640625,0.4619140625,-0.173095703125
2.880,1038,1048,493,502,-17.0,34.0,28.0,-0.54931640625,17.51708984375,38.39111328125,-0.8623046875,0.436279296875,-0.1455078125
2.881,1053,1047,416,445,-17.0,34.0,28.0,-0.2441406100988388,19.6533203125,45.715328216552734,-0.8687744140625,0.36865234375,-0.1259765625
2.889,1009,1005,480,480,-17.0,34.0,28.0,-0.2441406100988388,19.6533203125,45.715328216552734,-0.890869140625,0.2978515625,-0.1180419921875
2.903,966,955,419,433,-17.0,34.0,28.0,-5.615233898162842,31.738279342651367,69.4580078125,-0.908935546875,0.2568359375,-0.1278076171875
2.911,932,922,407,411,-17.0,34.0,28.0,-4.57763671875,40.954586029052734,85.08300018310547,-0.898193359375,0.23779296875,-0.163818359375
2.919,996,992,424,435,-17.0,34.0,28.0,-4.57763671875,40.954586029052734,85.08300018310547,-0.8330078125,0.1951904296875,-0.197998046875
2.952,1388,1427,596,613,-17.0,34.0,28.0,-6.652831554412842,62.377925872802734,114.44091033935547,-0.681396484375,0.0758056640625,-0.1068115234375
2.952,2284,2473,722,762,-17.0,34.0,28.0,-23.254392623901367,63.964839935302734,119.44579315185547,-0.272216796875,-0.206298828125,0.207275390625
2.952,3176,3176,1086,1239,-17.0,34.0,28.0,-23.254392623901367,63.964839935302734,119.44579315185547,0.555419921875,-0.5557861328125,0.654052734375
2.964,3176,3176,2893,3176,-17.0,34.0,28.0,-19.83642578125,-0.0610351525247097,71.6552734375,1.5263671875,-0.5018310546875,0.7921142578125
2.973,3176,3176,3176,3176,-27.0,37.0,32.0,34.1796875,-62.988277435302734,8.9111328125,1.993408203125,-0.1192626953125,0.374755859375
2.983,3176,3176,1954,3176,-27.0,37.0,32.0,34.1796875,-62.988277435302734,8.9111328125,1.8076171875,0.1290283203125,-0.122314453125
2.992,600,3176,0,3176,-27.0,37.0,32.0,58.715816497802734,-182.92234802246094,-106.26219940185547,0.58935546875,1.13232421875,-1.1748046875
3.001,601,3176,0,3176,-27.0,37.0,32.0,45.593257904052734,-174.07225036621094,-120.97167205810547,-1.3319091796875,2.81689453125,-2.393798828125
3.009,619,3176,0,3176,-27.0,37.0,32.0,45.593257904052734,-174.07225036621094,-120.97167205810547,-2.6077880859375,3.2979736328125,-1.900634765625
3.022,614,3176,0,3176,-27.0,37.0,32.0,-161.07176208496094,-123.59618377685547,-126.34276580810547,-3.409912109375,2.547119140625,0.203369140625
3.048,614,3176,0,3176,-27.0,37.0,32.0,-192.93211364746094,-82.15331268310547,-89.66063690185547,-3.197998046875,0.098876953125,1.590576171875
3.048,633,3176,0,3176,-27.0,37.0,32.0,-192.93211364746094,-82.15331268310547,-89.66063690185547,-1.4931640625,-1.4554443359375,1.2374267578125
3.052,630,3176,0,3176,-27.0,37.0,32.0,109.55809783935547,14.770506858825684,-4.21142578125,-0.5096435546875,0.20654296875,0.014404296875
3.063,630,3176,0,3176,-27.0,37.0,32.0,169.98289489746094,22.460935592651367,-9.46044921875,-1.007080078125,1.7381591796875,-1.0546875
3.069,630,3176,0,3176,-14.0,33.0,37.0,169.98289489746094,22.460935592651367,-9.46044921875,-1.7562255859375,1.6064453125,-1.1317138671875
3.086,631,3176,0,3176,-14.0,33.0,37.0,-20.629880905151367,-1.7089842557907104,-52.185054779052734,-2.1356201171875,0.9683837890625,-0.5421142578125
3.091,630,3176,0,3176,-14.0,33.0,37.0,-59.326168060302734,-10.742186546325684,-46.508785247802734,-2.0513916015625,0.6759033203125,-0.064697265625
3.099,625,3176,0,3176,-14.0,33.0,37.0,-59.326168060302734,-10.742186546325684,-46.508785247802734,-1.7421875,0.591796875,0.0225830078125
3.113,2782,3176,3176,3176,-14.0,33.0,37.0,-23.925779342651367,14.831542015075684,-22.033689498901367,-1.4356689453125,0.539306640625,-0.0526123046875
3.121,3176,3176,1078,3167,-14.0,33.0,37.0,-12.756346702575684,32.65380859375,-10.375975608825684,-1.21240234375,0.505615234375,-0.1832275390625
3.130,3176,3176,1778,2142,-14.0,33.0,37.0,-12.756346702575684,32.65380859375,-10.375975608825684,-0.9964599609375,0.422119140625,-0.3133544921875
3.151,2955,2950,779,822,-14.0,33.0,37.0,-9.33837890625,60.363765716552734,6.835937023162842,-0.723388671875,0.16845703125,-0.2742919921875
3.153,2290,2416,538,519,-14.0,33.0,37.0,-5.126952648162842,64.208984375,9.27734375,-0.3680419921875,-0.259765625,-0.0408935546875
3.159,1682,1735,497,509,-14.0,33.0,37.0,-5.126952648162842,64.208984375,9.27734375,-0.02978515625,-0.596435546875,0.205810546875
3.191,1131,1153,428,436,-18.0,34.0,32.0,30.944822311401367,47.241207122802734,-3.540038824081421,0.1298828125,-0.4561767578125,0.3160400390625
3.191,1035,1022,381,319,-18.0,34.0,32.0,52.429195404052734,31.005857467651367,-16.78466796875,0.0880126953125,-0.031982421875,0.366943359375
3.191,939,923,339,338,-18.0,34.0,32.0,52.429195404052734,31.005857467651367,-16.78466796875,-0.1214599609375,0.29541015625,0.283447265625
3.204,955,953,254,260,-18.0,34.0,32.0,42.358394622802734,6.591796398162842,-44.555660247802734,-0.33544921875,0.479248046875,-0.0086669921875
3.211,943,932,251,260,-18.0,34.0,32.0,27.404783248901367,7.019042491912842,-46.142574310302734,-0.4222412109375,0.5579833984375,-0.344482421875
3.219,931,928,253,243,-18.0,34.0,32.0,27.404783248901367,7.019042491912842,-46.142574310302734,-0.445068359375,0.5537109375,-0.5477294921875
3.233,916,916,224,211,-18.0,34.0,32.0,5.310058116912842,16.6015625,-18.37158203125,-0.501953125,0.4892578125,-0.5057373046875
3.252,888,907,196,191,-18.0,34.0,32.0,-10.559081077575684,19.6533203125,-0.8544921278953552,-0.580322265625,0.338134765625,-0.29443359375
3.253,868,871,237,236,-18.0,34.0,32.0,-10.559081077575684,19.6533203125,-0.8544921278953552,-0.647705078125,0.1285400390625,-0.10546875
3.264,886,883,256,256,-15.0,35.0,32.0,-44.250484466552734,26.489255905151367,17.822265625,-0.72314453125,-0.009033203125,-0.0281982421875
3.271,864,869,254,254,-15.0,35.0,32.0,-45.837398529052734,31.799314498901367,24.047849655151367,-0.797119140625,0.02392578125,-0.04345703125
3.298,907,901,265,268,-15.0,35.0,32.0,-45.837398529052734,31.799314498901367,24.047849655151367,-0.8489990234375,0.156005859375,-0.0750732421875
3.298,1017,939,311,282,-15.0,35.0,32.0,-24.719236373901367,36.2548828125,40.10009765625,-0.880859375,0.285400390625,-0.064697265625
3.301,949,935,332,332,-15.0,35.0,32.0,-13.427733421325684,33.87451171875,47.363277435302734,-0.881591796875,0.370849609375,-0.0343017578125
3.310,952,957,328,328,-15.0,35.0,32.0,-13.427733421325684,33.87451171875,47.363277435302734,-0.854736328125,0.3966064453125,-0.0230712890625
3.323,1035,1022,408,417,-15.0,35.0,32.0,4.150390625,30.029294967651367,59.997554779052734,-0.83251953125,0.3790283203125,-0.0474853515625
3.332,1085,1073,419,426,-15.0,35.0,32.0,10.742186546325684,32.89794921875,67.138671875,-0.8319091796875,0.363037109375,-0.125244140625
3.362,1083,1085,435,444,-15.0,35.0,32.0,10.742186546325684,32.89794921875,67.138671875,-0.85107421875,0.39404296875,-0.234375
3.362,1146,1100,420,379,-15.0,35.0,32.0,16.90673828125,48.278804779052734,84.71678924560547,-0.8753662109375,0.436767578125,-0.32421875
3.362,1138,1139,405,409,-19.0,36.0,32.0,9.46044921875,58.349605560302734,94.48241424560547,-0.868408203125,0.4005126953125,-0.3599853515625
3.370,1251,1267,393,405,-19.0,36.0,32.0,9.46044921875,58.349605560302734,94.48241424560547,-0.78271484375,0.267822265625,-0.305908203125
3.401,2060,2238,545,564,-19.0,36.0,32.0,-22.521970748901367,69.27490234375,109.06981658935547,-0.5694580078125,0.0618896484375,-0.1033935546875
3.402,3176,3176,985,1064,-19.0,36.0,32.0,-38.51318359375,55.847164154052734,105.46874237060547,-0.066650390625,-0.200439453125,0.208740234375
3.403,3176,3176,1904,2197,-19.0,36.0,32.0,-38.51318359375,55.847164154052734,105.46874237060547,0.73388671875,-0.1776123046875,0.446044921875
3.413,3176,3176,3176,3176,-19.0,36.0,32.0,-4.150390625,-39.9169921875,36.4990234375,1.5167236328125,0.021484375,0.4068603515625
3.421,3176,3176,3176,3176,-19.0,36.0,32.0,35.82763671875,-112.36571502685547,-45.715328216552734,1.9696044921875,0.02197265625,0.1409912109375
3.429,3176,3176,5,3176,-19.0,36.0,32.0,35.82763671875,-112.36571502685547,-45.715328216552734,1.6978759765625,0.003662109375,-0.2147216796875
3.464,614,3176,0,3176,-19.0,36.0,32.0,17.4560546875,-196.41111755371094,-149.96337890625,0.1024169921875,1.1024169921875,-1.215576171875
3.465,619,3176,0,3176,-19.0,36.0,32.0,-6.225585460662842,-166.07664489746094,-147.8271484375,-1.859619140625,2.800537109375,-2.04345703125
3.465,635,3176,0,3176,-13.0,34.0,39.0,-6.225585460662842,-166.07664489746094,-147.8271484375,-3.1572265625,3.4207763671875,-1.09716796875
3.473,628,3176,0,3176,-13.0,34.0,39.0,-196.89939880371094,-103.75975799560547,-103.75975799560547,-3.9189453125,1.860595703125,0.6190185546875
3.498,630,3176,0,3176,-13.0,34.0,39.0,-170.04393005371094,-57.922359466552734,-48.278804779052734,-2.8236083984375,-1.03125,1.2188720703125
3.498,633,3176,0,3176,-13.0,34.0,39.0,-170.04393005371094,-57.922359466552734,-48.278804779052734,-0.960693359375,-1.1793212890625,0.6378173828125
3.504,631,3176,0,3176,-13.0,34.0,39.0,158.38623046875,4.8828125,29.846189498901367,-0.564208984375,0.9661865234375,-0.280029296875
3.516,635,3176,0,3176,-13.0,34.0,39.0,160.15625,3.723144292831421,3.662109136581421,-1.1580810546875,1.9002685546875,-0.875244140625
3.519,636,3176,0,3176,-13.0,34.0,39.0,160.15625,3.723144292831421,3.662109136581421,-1.8292236328125,1.5277099609375,-0.8067626953125
3.533,635,3176,0,3176,-13.0,34.0,39.0,-18.310546875,-9.3994140625,-51.147457122802734,-2.0435791015625,0.9664306640625,-0.43798828125
3.559,636,3176,0,3176,-13.0,34.0,39.0,-41.931148529052734,-9.521484375,-46.081539154052734,-1.894287109375,0.619384765625,-0.1942138671875
3.559,631,3176,0,3176,-13.0,34.0,39.0,-41.931148529052734,-9.521484375,-46.081539154052734,-1.638427734375,0.401611328125,-0.1431884765625
3.572,3176,3176,3176,3176,-15.0,35.0,35.0,-20.874021530151367,12.268065452575684,-19.4091796875,-1.4110107421875,0.334228515625,-0.186279296875
3.572,1933,3176,1388,3176,-15.0,35.0,35.0,-11.779784202575684,25.085447311401367,-5.615233898162842,-1.1912841796875,0.39892578125,-0.26123046875
3.579,3176,3176,1880,2128,-15.0,35.0,35.0,-11.779784202575684,25.085447311401367,-5.615233898162842,-0.9423828125,0.3687744140625,-0.2694091796875
3.598,2565,2700,673,708,-15.0,35.0,35.0,-4.638671875,49.377437591552734,11.047362327575684,-0.668212890625,0.1085205078125,-0.093994140625
3.602,1980,2076,559,570,-15.0,35.0,35.0,2.929687261581421,54.626461029052734,11.718749046325684,-0.3675537109375,-0.3271484375,0.2010498046875
3.610,1440,1476,563,582,-15.0,35.0,35.0,2.929687261581421,54.626461029052734,11.718749046325684,-0.3675537109375,-0.3271484375,0.2010498046875
3.626,1021,1043,465,477,-15.0,35.0,35.0,46.813961029052734,46.264644622802734,-2.746581792831421,0.0225830078125,-0.2598876953125,0.5146484375
3.632,918,923,449,447,-15.0,35.0,35.0,46.813961029052734,46.264644622802734,-2.746581792831421,-0.056884765625,0.1429443359375,0.447998046875
3.639,862,873,295,305,-15.0,35.0,35.0,59.448238372802734,35.0341796875,-13.244627952575684,-0.056884765625,0.1429443359375,0.447998046875
3.663,922,916,273,281,-18.0,34.0,37.0,42.724605560302734,19.71435546875,-27.893064498901367,-0.402587890625,0.4178466796875,-0.1781005859375
3.663,864,858,210,193,-18.0,34.0,37.0,42.724605560302734,19.71435546875,-27.893064498901367,-0.453857421875,0.433349609375,-0.5318603515625
3.675,858,846,223,213,-18.0,34.0,37.0,34.85107421875,18.4326171875,-22.460935592651367,-0.453857421875,0.433349609375,-0.5318603515625
3.684,816,834,39,41,-18.0,34.0,37.0,25.817869186401367,21.789548873901367,5.859374523162842,-0.5452880859375,0.4285888671875,-0.646484375
3.700,805,818,34,24,-18.0,34.0,37.0,25.817869186401367,21.789548873901367,5.859374523162842,-0.6361083984375,0.3660888671875,-0.4639892578125
3.701,750,754,23,32,-18.0,34.0,37.0,10.192870140075684,25.390623092651367,16.11328125,-0.6361083984375,0.3660888671875,-0.4639892578125
3.713,688,683,43,41,-18.0,34.0,37.0,-29.052732467651367,29.235837936401367,21.789548873901367,-0.7623291015625,0.123046875,-0.1533203125
3.722,671,679,35,35,-18.0,34.0,37.0,-29.052732467651367,29.235837936401367,21.789548873901367,-0.7672119140625,0.0958251953125,-0.0819091796875
3.729,689,689,39,37,-18.0,34.0,37.0,-33.5693359375,28.198240280151367,21.484373092651367,-0.7672119140625,0.0958251953125,-0.0819091796875
3.744,735,736,41,38,-18.0,34.0,37.0,2.38037109375,17.7001953125,20.996091842651367,-0.706298828125,0.2708740234375,-0.01416015625
3.763,772,780,148,141,-18.0,34.0,31.0,2.38037109375,17.7001953125,20.996091842651367,-0.6671142578125,0.41943359375,0.04150390625
3.764,884,888,157,163,-18.0,34.0,31.0,24.414060592651367,8.7890625,22.460935592651367,-0.6671142578125,0.41943359375,0.04150390625
3.773,889,885,279,277,-18.0,34.0,31.0,35.94970703125,-3.906249761581421,27.832029342651367,-0.6456298828125,0.516357421875,0.0853271484375
3.783,868,864,272,273,-18.0,34.0,31.0,35.94970703125,-3.906249761581421,27.832029342651367,-0.6566162109375,0.4422607421875,0.028076171875
3.803,855,846,325,326,-18.0,34.0,31.0,28.808591842651367,-3.784179449081421,30.761716842651367,-0.6566162109375,0.4422607421875,0.028076171875
3.804,883,914,362,377,-18.0,34.0,31.0,9.8876953125,6.958007335662842,42.541500091552734,-0.6973876953125,0.3370361328125,-0.138427734375
3.812,963,966,478,475,-18.0,34.0,31.0,9.8876953125,6.958007335662842,42.541500091552734,-0.7420654296875,0.2991943359375,-0.2149658203125
3.820,1047,1047,519,523,-18.0,34.0,31.0,1.8310545682907104,15.014647483825684,51.818843841552734,-0.7420654296875,0.2991943359375,-0.2149658203125
3.834,1222,1234,574,579,-18.0,34.0,31.0,-10.314940452575684,36.68212890625,75.01220703125,-0.86962890625,0.2232666015625,-0.362548828125
3.842,1422,1486,558,575,-18.0,34.0,31.0,-10.314940452575684,36.68212890625,75.01220703125,-0.90966796875,0.1123046875,-0.3734130859375
3.867,1819,1909,617,640,-22.0,37.0,30.0,-20.202634811401367,51.147457122802734,88.19579315185547,-0.90966796875,0.1123046875,-0.3734130859375
3.867,2970,3090,959,1010,-22.0,37.0,30.0,-47.119136810302734,61.157222747802734,102.84423065185547,-0.505615234375,0.0142822265625,0.0877685546875
3.871,3176,3176,1508,1750,-22.0,37.0,30.0,-47.119136810302734,61.157222747802734,102.84423065185547,0.3287353515625,0.0205078125,0.3369140625
3.879,2122,3176,1371,3019,-22.0,37.0,30.0,-40.649410247802734,34.72900390625,85.69335174560547,0.3287353515625,0.0205078125,0.3369140625
3.908,3176,3176,67,3176,-22.0,37.0,30.0,3.906249761581421,-103.45458221435547,-39.61181640625,2.1165771484375,-0.0260009765625,0.355224609375
3.908,3176,3176,20,3176,-22.0,37.0,30.0,3.906249761581421,-103.45458221435547,-39.61181640625,1.5799560546875,0.30126953125,-0.0999755859375
3.910,640,3176,0,3176,-22.0,37.0,30.0,24.414060592651367,-164.48973083496094,-98.08348846435547,1.5799560546875,0.30126953125,-0.0999755859375
3.923,614,3176,0,3176,-22.0,37.0,30.0,-8.544921875,-146.8505859375,-139.58740234375,-1.9071044921875,2.8790283203125,-2.158935546875
3.932,643,3176,0,3176,-22.0,37.0,30.0,-8.544921875,-146.8505859375,-139.58740234375,-3.0869140625,3.2291259765625,-1.14208984375
3.941,638,3176,0,3176,-22.0,37.0,30.0,-110.22948455810547,-120.54442596435547,-135.986328125,-3.0869140625,3.2291259765625,-1.14208984375
3.968,635,3176,0,3176,-15.0,33.0,36.0,-162.71971130371094,-54.931636810302734,-58.410640716552734,-2.8455810546875,-1.38427734375,1.2901611328125
3.969,636,3176,0,3176,-15.0,33.0,36.0,-162.71971130371094,-54.931636810302734,-58.410640716552734,-1.0228271484375,-1.267822265625,0.634033203125
3.970,633,3176,0,3176,-15.0,33.0,36.0,8.7890625,-7.263183116912842,0.1831054538488388,-1.0228271484375,-1.267822265625,0.634033203125
3.983,636,3176,0,3176,-15.0,33.0,36.0,153.076171875,9.6435546875,11.535643577575684,-1.1346435546875,2.0098876953125,-0.89111328125
4.010,636,3176,0,3176,-15.0,33.0,36.0,153.076171875,9.6435546875,11.535643577575684,-1.766845703125,1.5926513671875,-0.778564453125
4.011,636,3176,0,3176,-15.0,33.0,36.0,50.415035247802734,1.7089842557907104,-29.296873092651367,-1.766845703125,1.5926513671875,-0.778564453125
4.013,631,3176,3176,3176,-15.0,33.0,36.0,-44.677730560302734,-12.023924827575684,-55.053707122802734,-1.8590087890625,0.6328125,-0.20361328125
4.022,843,3176,3176,3176,-15.0,33.0,36.0,-44.677730560302734,-12.023924827575684,-55.053707122802734,-1.6353759765625,0.437744140625,-0.1754150390625
4.030,3176,3176,3176,3176,-15.0,33.0,36.0,-32.89794921875,-5.615233898162842,-48.034664154052734,-1.6353759765625,0.437744140625,-0.1754150390625
4.044,3176,3176,2204,3024,-15.0,33.0,36.0,-7.202147960662842,16.357421875,-25.695798873901367,-1.224365234375,0.4310302734375,-0.2689208984375
4.052,2613,3176,750,1672,-14.0,34.0,35.0,-7.202147960662842,16.357421875,-25.695798873901367,-0.976318359375,0.38427734375,-0.2757568359375
4.078,2925,3020,872,916,-14.0,34.0,35.0,-2.746581792831421,30.151365280151367,-13.732909202575684,-0.976318359375,0.38427734375,-0.2757568359375
4.078,1925,2012,504,533,-14.0,34.0,35.0,-2.13623046875,54.138179779052734,6.530761241912842,-0.3575439453125,-0.373046875,0.2630615234375
4.082,1501,1533,536,552,-14.0,34.0,35.0,-2.13623046875,54.138179779052734,6.530761241912842,-0.0711669921875,-0.702392578125,0.5206298828125
4.090,1185,1185,547,540,-14.0,34.0,35.0,11.962889671325684,56.213375091552734,9.3994140625,-0.0711669921875,-0.702392578125,0.5206298828125
4.116,1010,1008,533,555,-14.0,34.0,35.0,39.24560546875,51.818843841552734,6.103515148162842,0.0390625,0.026611328125,0.4825439453125
4.117,939,944,461,461,-14.0,34.0,35.0,63.903804779052734,42.724605560302734,0.9765624403953552,0.0390625,0.026611328125,0.4825439453125
4.119,918,918,348,342,-14.0,34.0,35.0,70.6787109375,34.24072265625,-5.371093273162842,-0.144775390625,0.373046875,0.2425537109375
4.133,900,901,301,307,-14.0,34.0,35.0,60.241695404052734,30.578611373901367,-11.352538108825684,-0.45361328125,0.44921875,-0.40234375
4.141,913,906,296,295,-12.0,31.0,37.0,44.494625091552734,30.883787155151367,-12.023924827575684,-0.45361328125,0.44921875,-0.40234375
4.149,864,861,270,274,-12.0,31.0,37.0,34.1796875,33.38623046875,-4.39453125,-0.5125732421875,0.4617919921875,-0.6068115234375
4.174,844,844,222,224,-12.0,31.0,37.0,25.573728561401367,35.94970703125,7.751464366912842,-0.708740234375,0.404541015625,-0.51171875
4.174,858,844,215,231,-12.0,31.0,37.0,9.33837890625,36.62109375,19.1650390625,-0.708740234375,0.404541015625,-0.51171875
4.180,846,849,243,244,-12.0,31.0,37.0,-12.023924827575684,34.1796875,27.465818405151367,-0.7845458984375,0.28076171875,-0.3258056640625
4.193,799,799,224,224,-12.0,31.0,37.0,-28.442380905151367,30.395505905151367,30.456541061401367,-0.822265625,0.12109375,-0.21337890625
4.220,794,790,199,205,-12.0,31.0,37.0,-31.005857467651367,28.320310592651367,30.395505905151367,-0.822265625,0.12109375,-0.21337890625
4.220,828,830,143,154,-12.0,31.0,37.0,-18.798828125,26.672361373901367,30.090330123901367,-0.8082275390625,0.2301025390625,-0.212158203125
4.223,855,848,211,217,-12.0,31.0,37.0,-0.4882812201976776,23.315427780151367,30.029294967651367,-0.75537109375,0.4281005859375,-0.0975341796875
4.232,868,864,223,214,-12.0,31.0,37.0,15.502928733825684,19.04296875,31.555173873901367,-0.75537109375,0.4281005859375,-0.0975341796875
4.239,844,846,241,240,-17.0,37.0,36.0,25.817869186401367,15.258788108825684,35.33935546875,-0.7431640625,0.4578857421875,-0.03662109375
4.254,873,873,267,273,-17.0,37.0,36.0,29.113767623901367,13.427733421325684,41.259761810302734,-0.76953125,0.359619140625,-0.02099609375
4.276,871,864,287,300,-17.0,37.0,36.0,25.756834030151367,14.770506858825684,49.316402435302734,-0.76953125,0.359619140625,-0.02099609375
4.276,914,885,310,310,-17.0,37.0,36.0,19.04296875,19.59228515625,58.593746185302734,-0.7774658203125,0.306640625,-0.063720703125
4.284,884,885,338,339,-17.0,37.0,36.0,11.230467796325684,27.465818405151367,68.359375,-0.787841796875,0.3199462890625,-0.1656494140625
4.292,943,939,337,344,-17.0,37.0,36.0,1.8920897245407104,38.14697265625,78.55224609375,-0.787841796875,0.3199462890625,-0.1656494140625
4.307,1047,1047,396,401,-17.0,37.0,36.0,-9.521484375,50.842281341552734,88.68407440185547,-0.7855224609375,0.2781982421875,-0.2091064453125
4.328,1973,2122,545,566,-17.0,37.0,36.0,-24.719236373901367,61.645503997802734,97.04589080810547,-0.3240966796875,-0.1793212890625,0.05126953125
4.328,2815,2962,835,929,-17.0,37.0,36.0,-45.471187591552734,62.072750091552734,97.53417205810547,-0.3240966796875,-0.1793212890625,0.05126953125
4.332,3176,3176,1552,1785,-17.0,37.0,36.0,-57.983394622802734,44.677730560302734,82.70262908935547,0.2281494140625,-0.0694580078125,0.1474609375
4.344,3176,3176,1560,3176,-21.0,37.0,32.0,-32.89794921875,5.676269054412842,55.297847747802734,1.5927734375,0.568603515625,0.2490234375
4.352,3176,3176,2643,3176,-21.0,37.0,32.0,15.319823265075684,-56.518550872802734,1.220703125,1.5927734375,0.568603515625,0.2490234375
4.360,3080,3176,966,3176,-21.0,37.0,32.0,17.08984375,-126.70897674560547,-76.904296875,1.9019775390625,0.0860595703125,0.05322265625
4.379,631,3176,0,3176,-21.0,37.0,32.0,-22.827146530151367,-175.72019958496094,-130.31005859375,-0.877197265625,1.426513671875,-1.8316650390625
4.382,631,3176,0,3176,-21.0,37.0,32.0,-32.53173828125,-173.27879333496094,-149.2919921875,-0.877197265625,1.426513671875,-1.8316650390625
4.390,636,3176,0,3176,-21.0,37.0,32.0,-64.75830078125,-134.6435546875,-155.45654296875,-2.63623046875,2.9169921875,-2.3070068359375
4.424,630,3176,0,3176,-21.0,37.0,32.0,-157.2265625,-101.56249237060547,-143.37158203125,-4.0,0.0078125,1.0665283203125
4.424,631,3176,0,3176,-21.0,37.0,32.0,-197.32664489746094,-76.23291015625,-102.60009002685547,-4.0,0.0078125,1.0665283203125
4.424,630,3176,0,3176,-21.0,37.0,32.0,-112.91503143310547,-43.457027435302734,-50.537105560302734,-2.91357421875,-1.9652099609375,1.310791015625
4.434,636,3176,0,3176,-21.0,37.0,32.0,52.490230560302734,-15.014647483825684,-6.347655773162842,-0.8385009765625,1.370849609375,-0.2593994140625
4.442,633,3176,0,3176,-15.0,35.0,37.0,156.3720703125,-3.051757574081421,9.46044921875,-0.8385009765625,1.370849609375,-0.2593994140625
4.450,635,3176,0,3176,-15.0,35.0,37.0,119.68993377685547,6.774901866912842,-10.803221702575684,-1.32275390625,1.8671875,-0.638671875
4.483,633,3176,0,3176,-15.0,35.0,37.0,26.672361373901367,16.2353515625,-32.8369140625,-2.04150390625,0.665771484375,-0.388916015625
4.483,636,3176,0,3176,-15.0,35.0,37.0,-30.578611373901367,22.705076217651367,-34.11865234375,-2.04150390625,0.665771484375,-0.388916015625
4.484,636,3176,0,3176,-15.0,35.0,37.0,-39.794921875,29.357908248901367,-22.583005905151367,-1.809814453125,0.3621826171875,-0.3455810546875
4.494,636,3176,0,3176,-15.0,35.0,37.0,-28.137205123901367,35.46142578125,-9.8876953125,-1.20263671875,0.43212890625,-0.394775390625
4.503,627,3176,1330,2020,-15.0,35.0,37.0,-16.11328125,40.954586029052734,-0.9765624403953552,-1.20263671875,0.43212890625,-0.394775390625
4.534,2186,3176,410,1034,-15.0,35.0,37.0,-9.33837890625,45.288082122802734,3.051757574081421,-0.9166259765625,0.39697265625,-0.336669921875
4.535,1834,1912,506,522,-15.0,35.0,37.0,-1.9531248807907104,46.386714935302734,2.0751953125,-0.3837890625,-0.2115478515625,0.0694580078125
4.535,1369,1416,452,473,-15.0,35.0,37.0,11.962889671325684,43.640132904052734,-4.69970703125,-0.3837890625,-0.2115478515625,0.0694580078125
4.539,1004,989,391,395,-16.0,36.0,38.0,35.21728515625,38.330078125,-16.17431640625,-0.1673583984375,-0.4156494140625,0.2269287109375
4.553,846,828,213,222,-16.0,36.0,38.0,62.072750091552734,30.334470748901367,-27.282712936401367,-0.097900390625,0.1956787109375,0.359130859375
4.562,830,868,253,252,-16.0,36.0,38.0,73.66943359375,19.47021484375,-36.865234375,-0.097900390625,0.1956787109375,0.359130859375
4.583,811,810,200,199,-16.0,36.0,38.0,64.27001953125,10.864256858825684,-45.104976654052734,-0.25048828125,0.38134765625,0.232666015625
4.584,849,819,70,54,-16.0,36.0,38.0,47.302242279052734,8.36181640625,-46.203609466552734,-0.36083984375,0.5079345703125,-0.0328369140625
4.592,729,729,32,23,-16.0,36.0,38.0,32.16552734375,11.047362327575684,-35.33935546875,-0.363525390625,0.598876953125,-0.2930908203125
4.600,711,718,0,0,-16.0,36.0,38.0,17.7001953125,16.66259765625,-15.991209983825684,-0.34521484375,0.5565185546875,-0.41357421875
4.622,660,667,0,0,-16.0,36.0,38.0,0.1220703050494194,22.460935592651367,2.746581792831421,-0.40771484375,0.3360595703125,-0.3753662109375
4.622,676,675,10,10,-16.0,36.0,38.0,-19.04296875,26.672361373901367,15.563963890075684,-0.5400390625,0.0386962890625,-0.26611328125
4.643,683,684,17,14,-16.0,36.0,38.0,-32.1044921875,29.174802780151367,22.766111373901367,-0.68408203125,-0.164794921875,-0.2071533203125
4.644,668,697,0,0,-17.0,37.0,40.0,-33.99658203125,30.029294967651367,26.184080123901367,-0.7996826171875,-0.2069091796875,-0.20166015625
4.651,705,706,15,14,-17.0,37.0,40.0,-23.864744186401367,28.076169967651367,27.893064498901367,-0.8546142578125,-0.089111328125,-0.2103271484375
4.660,703,706,14,19,-17.0,37.0,40.0,-4.0283203125,24.169919967651367,29.357908248901367,-0.85986328125,0.1292724609375,-0.2301025390625
4.685,724,725,19,20,-17.0,37.0,40.0,17.39501953125,20.141599655151367,31.005857467651367,-0.8477783203125,0.3314208984375,-0.232666015625
4.685,745,740,21,24,-17.0,37.0,40.0,31.921384811401367,16.845703125,33.63037109375,-0.8272705078125,0.460205078125,-0.1915283203125
4.690,761,763,24,23,-17.0,37.0,40.0,37.353515625,14.038084983825684,38.818359375,-0.7938232421875,0.510986328125,-0.10888671875
4.703,788,790,88,81,-17.0,37.0,40.0,35.64453125,11.718749046325684,45.349117279052734,-0.754150390625,0.48779296875,-0.0186767578125
4.727,818,815,180,182,-17.0,37.0,40.0,29.052732467651367,10.925292015075684,51.147457122802734,-0.7210693359375,0.4117431640625,0.007568359375
4.728,925,827,116,112,-17.0,37.0,40.0,20.446775436401367,12.390135765075684,55.664058685302734,-0.703857421875,0.32666015625,-0.0555419921875
4.742,873,873,253,258,-18.0,39.0,32.0,12.207030296325684,15.502928733825684,60.058589935302734,-0.706787109375,0.2877197265625,-0.1602783203125
4.742,885,871,286,230,-18.0,39.0,32.0,4.82177734375,19.53125,65.7958984375,-0.71728515625,0.3045654296875,-0.2589111328125
4.752,868,861,300,304,-18.0,39.0,32.0,-3.723144292831421,25.024412155151367,72.509765625,-0.7392578125,0.3572998046875,-0.314208984375
4.763,913,912,322,326,-18.0,39.0,32.0,-14.587401390075684,33.0810546875,79.1015625,-0.7774658203125,0.4095458984375,-0.3153076171875
4.788,977,976,343,354,-18.0,39.0,32.0,-27.038572311401367,44.677730560302734,85.44921112060547,-0.8143310546875,0.3798828125,-0.282470703125
4.788,1231,1264,367,363,-18.0,39.0,32.0,-41.870113372802734,58.837886810302734,91.36962127685547,-0.812744140625,0.2147216796875,-0.1898193359375
4.793,2677,2821,706,774,-18.0,39.0,32.0,-61.462398529052734,66.95556640625,93.87206268310547,-0.6116943359375,-0.0753173828125,0.02978515625
4.802,3176,3176,1357,1577,-18.0,39.0,32.0,-81.11571502685547,54.687496185302734,86.60887908935547,-0.0546875,-0.2088623046875,0.3101806640625
4.810,3176,3176,2514,2935,-18.0,39.0,32.0,-74.27978515625,16.2353515625,67.7490234375,0.6962890625,0.1575927734375,0.427490234375
4.826,3176,3176,2047,3176,-18.0,39.0,32.0,-24.414060592651367,-44.189449310302734,23.803709030151367,1.45947265625,0.212890625,0.2755126953125
4.832,3167,3176,2319,3176,-17.0,38.0,36.0,17.333984375,-120.11717987060547,-50.354000091552734,2.0830078125,-0.432373046875,0.1778564453125
4.840,3176,3176,0,3176,-17.0,38.0,36.0,33.26416015625,-185.18064880371094,-110.47362518310547,1.7003173828125,-0.23291015625,-0.088623046875
4.853,614,3176,0,3176,-17.0,38.0,36.0,64.0869140625,-194.82420349121094,-132.87353515625,-0.261962890625,1.72412109375,-1.3267822265625
4.865,633,3176,0,3176,-17.0,38.0,36.0,30.456541061401367,-163.08592224121094,-141.90673828125,-2.28759765625,3.4051513671875,-2.3048095703125
4.870,613,3176,0,3176,-17.0,38.0,36.0,-112.24364471435547,-135.1318359375,-143.9208984375,-3.4593505859375,3.431884765625,-1.333251953125
4.892,627,3176,0,3176,-17.0,38.0,36.0,-228.88182067871094,-104.67528533935547,-117.30956268310547,-3.7349853515625,0.974609375,0.4119873046875
4.892,3176,3176,3176,3176,-17.0,38.0,36.0,-166.80906677246094,-58.044429779052734,-64.208984375,-2.0401611328125,-1.4891357421875,1.20556640625
4.899,633,3176,1907,3176,-17.0,38.0,36.0,56.701656341552734,-25.939939498901367,-8.6669921875,-0.4244384765625,-0.3050537109375,0.7166748046875
4.920,3176,3176,0,3176,-17.0,38.0,36.0,205.81053161621094,-19.287109375,6.774901866912842,-0.603271484375,1.8416748046875,-0.4058837890625
4.929,3176,3176,3176,3176,-17.0,38.0,36.0,153.80859375,-13.000487327575684,-28.869626998901367,-1.3736572265625,2.01513671875,-1.0062255859375
4.930,3176,3176,3176,3176,-15.0,34.0,35.0,22.094724655151367,-8.9111328125,-59.875484466552734,-2.0115966796875,1.0413818359375,-0.710693359375
4.943,3176,3176,3176,3176,-15.0,34.0,35.0,-53.588863372802734,-7.568358898162842,-58.776851654052734,-2.123046875,0.4093017578125,-0.1729736328125
4.955,3176,3176,3176,3176,-15.0,34.0,35.0,-54.260250091552734,0.4882812201976776,-40.0390625,-1.8919677734375,0.2630615234375,0.0244140625
4.960,3176,3176,3176,3176,-15.0,34.0,35.0,-30.029294967651367,15.563963890075684,-17.15087890625,-1.580322265625,0.3172607421875,-0.0438232421875
4.994,3176,3176,2354,2769,-15.0,34.0,35.0,-12.817381858825684,33.8134765625,4.8828125,-1.315673828125,0.4066162109375,-0.1829833984375
4.994,3176,3176,0,1745,-15.0,34.0,35.0,-6.408690929412842,52.062984466552734,22.155759811401367,-1.068115234375,0.417724609375,-0.2801513671875
4.994,3176,3128,882,944,-15.0,34.0,35.0,-5.0048828125,66.2841796875,32.2265625,-0.810546875,0.2376708984375,-0.21142578125
5.004,1937,2041,588,612,-15.0,34.0,35.0,-1.15966796875,70.6787109375,34.1796875,-0.5130615234375,-0.1239013671875,0.013916015625
5.012,1534,1566,618,619,-15.0,34.0,35.0,12.573241233825684,63.781734466552734,26.123044967651367,-0.180908203125,-0.453857421875,0.2525634765625
5.031,1176,1191,616,620,-15.0,34.0,35.0,39.55078125,48.706050872802734,10.253905296325684,0.078369140625,-0.3798828125,0.37841796875
5.034,1017,992,556,556,-15.0,36.0,33.0,68.42041015625,29.968259811401367,-7.019042491912842,0.1527099609375,0.0162353515625,0.383544921875
5.041,955,952,487,478,-15.0,36.0,33.0,79.9560546875,12.878417015075684,-22.094724655151367,0.0328369140625,0.33154296875,0.2578125
5.049,978,969,361,354,-15.0,36.0,33.0,70.1904296875,2.685546636581421,-31.921384811401367,-0.1458740234375,0.466064453125,-0.0289306640625
5.063,987,981,336,348,-15.0,36.0,33.0,51.330562591552734,0.0,-31.677244186401367,-0.26416015625,0.507568359375,-0.37646484375
5.072,976,968,298,298,-15.0,36.0,33.0,35.64453125,1.8920897245407104,-20.324705123901367,-0.3560791015625,0.4664306640625,-0.6036376953125
5.096,963,963,248,252,-15.0,36.0,33.0,23.498533248901367,6.103515148162842,-3.356933355331421,-0.518798828125,0.386474609375,-0.5927734375
5.097,951,928,265,272,-15.0,36.0,33.0,6.896972179412842,10.498045921325684,12.634276390075684,-0.7020263671875,0.2916259765625,-0.3841552734375
5.102,916,927,254,247,-15.0,36.0,33.0,-14.343260765075684,14.343260765075684,23.437498092651367,-0.8179931640625,0.1588134765625,-0.179443359375
5.110,912,907,274,279,-15.0,36.0,33.0,-31.005857467651367,19.4091796875,28.991697311401367,-0.8739013671875,0.0855712890625,-0.099853515625
5.135,862,871,274,272,-18.0,34.0,35.0,-37.59765625,25.146482467651367,32.77587890625,-0.902099609375,0.1478271484375,-0.1114501953125
5.136,889,886,241,243,-18.0,34.0,35.0,-36.7431640625,28.991697311401367,36.56005859375,-0.9169921875,0.265625,-0.1282958984375
5.140,912,912,227,229,-18.0,34.0,35.0,-31.555173873901367,29.479978561401367,40.161128997802734,-0.901611328125,0.3768310546875,-0.0963134765625
5.154,967,966,277,295,-18.0,34.0,35.0,-22.277830123901367,26.306150436401367,43.395992279052734,-0.8453369140625,0.44775390625,-0.036376953125
5.170,968,969,353,356,-18.0,34.0,35.0,-10.131834983825684,21.179197311401367,46.752925872802734,-0.774169921875,0.447265625,0.0123291015625
5.170,1005,982,417,376,-18.0,34.0,35.0,2.01416015625,17.578125,50.659175872802734,-0.7305908203125,0.39501953125,0.0059814453125
5.204,996,996,451,452,-18.0,34.0,35.0,11.535643577575684,18.4326171875,55.664058685302734,-0.7342529296875,0.3597412109375,-0.0679931640625
5.205,976,951,441,393,-18.0,34.0,35.0,16.17431640625,23.803709030151367,62.072750091552734,-0.76220703125,0.376220703125,-0.1636962890625
5.205,963,952,449,439,-18.0,34.0,35.0,13.549803733825684,31.738279342651367,69.64111328125,-0.78955078125,0.401611328125,-0.251708984375
5.213,977,982,395,395,-18.0,34.0,35.0,3.295898199081421,40.283199310302734,77.69775390625,-0.7994384765625,0.381591796875,-0.314453125
5.238,1085,1078,363,379,-20.0,37.0,34.0,-12.756346702575684,47.790523529052734,86.79198455810547,-0.778564453125,0.27880859375,-0.3251953125
5.238,1357,1276,337,370,-20.0,37.0,34.0,-31.249998092651367,54.626461029052734,97.83934783935547,-0.728759765625,0.0716552734375,-0.2532958984375
5.244,2584,2759,711,758,-20.0,37.0,34.0,-46.874996185302734,59.020992279052734,108.64257049560547,-0.561279296875,-0.22412109375,-0.0181884765625
5.252,3176,3176,1334,1537,-20.0,37.0,34.0,-57.189937591552734,51.452632904052734,108.82567596435547,-0.0106201171875,-0.3948974609375,0.369140625
5.259,3176,3176,2296,2671,-20.0,37.0,34.0,-52.185054779052734,23.071287155151367,87.15819549560547,0.9534912109375,-0.0914306640625,0.6937255859375
5.273,3176,3176,3176,3176,-20.0,37.0,34.0,-16.11328125,-31.188962936401367,25.451658248901367,1.843017578125,0.1505126953125,0.5401611328125
5.282,3176,3176,3176,3176,-20.0,37.0,34.0,22.644041061401367,-108.45946502685547,-67.87109375,2.1666259765625,0.02587890625,0.1845703125
5.302,640,3176,0,3176,-20.0,37.0,34.0,31.494138717651367,-173.76707458496094,-133.30078125,1.37255859375,0.4100341796875,-0.3797607421875
5.304,630,3176,0,3176,-20.0,37.0,34.0,34.912109375,-176.14744567871094,-145.6298828125,-0.6087646484375,1.9488525390625,-1.6923828125
5.317,633,3176,0,3176,-20.0,37.0,34.0,-10.986327171325684,-140.7470703125,-138.3056640625,-2.3341064453125,3.123046875,-2.2470703125
5.320,598,3176,0,3176,-14.0,38.0,35.0,-127.56346893310547,-116.33300018310547,-124.81688690185547,-3.34130859375,3.0352783203125,-0.762939453125
5.340,627,3176,0,3176,-14.0,38.0,35.0,-196.96043395996094,-80.81053924560547,-82.76366424560547,-3.4720458984375,0.7713623046875,0.8712158203125
5.342,3176,3176,1234,3176,-14.0,38.0,35.0,-114.07469940185547,-29.235837936401367,-27.343748092651367,-1.6961669921875,-1.401123046875,1.2957763671875
5.350,3176,3176,3137,3176,-14.0,38.0,35.0,82.39745330810547,-1.5869139432907104,12.573241233825684,-0.2930908203125,-0.01171875,0.5450439453125
5.363,2619,3176,3176,3176,-14.0,38.0,35.0,201.29393005371094,1.0986328125,9.1552734375,-0.681884765625,2.0421142578125,-0.757080078125
5.372,3176,3176,3176,3176,-14.0,38.0,35.0,142.63916015625,0.1220703050494194,-36.56005859375,-1.4200439453125,2.0546875,-1.2664794921875
5.381,3176,3176,3176,3176,-14.0,38.0,35.0,17.88330078125,-7.934569835662842,-70.12939453125,-1.921630859375,1.1163330078125,-0.8465576171875
5.402,3176,3176,3176,3176,-14.0,38.0,35.0,-47.668453216552734,-18.98193359375,-74.15771484375,-2.018798828125,0.61376953125,-0.247802734375
5.402,3176,3176,3176,3176,-14.0,38.0,35.0,-45.593257904052734,-19.6533203125,-64.39208984375,-1.872802734375,0.470947265625,0.0054931640625
5.410,3176,3176,3176,3176,-14.0,38.0,35.0,-24.169919967651367,-8.11767578125,-49.804683685302734,-1.638427734375,0.4442138671875,-0.0155029296875
5.439,3176,3176,2584,3176,-16.0,34.0,38.0,-9.33837890625,9.09423828125,-33.0810546875,-1.4010009765625,0.433837890625,-0.1177978515625
5.442,2888,3176,1792,2273,-16.0,34.0,38.0,-3.784179449081421,29.052732467651367,-15.991209983825684,-1.1697998046875,0.4158935546875,-0.2247314453125
5.442,3176,3176,1078,1243,-16.0,34.0,38.0,-4.150390625,48.522945404052734,-0.54931640625,-0.9161376953125,0.2620849609375,-0.20166015625
5.454,2089,2183,628,656,-16.0,34.0,38.0,-5.0048828125,61.401363372802734,11.169432640075684,-0.608642578125,-0.101318359375,0.0281982421875
5.462,1562,1588,659,682,-16.0,34.0,38.0,1.0986328125,64.63623046875,15.075682640075684,-0.2822265625,-0.5400390625,0.3095703125
5.470,1266,1248,713,734,-16.0,34.0,38.0,20.01953125,59.570308685302734,9.09423828125,-0.0322265625,-0.5892333984375,0.4561767578125
5.505,996,996,561,570,-16.0,34.0,38.0,45.288082122802734,48.828121185302734,-3.540038824081421,0.056640625,-0.1700439453125,0.4571533203125
5.506,888,877,416,426,-16.0,34.0,38.0,59.936519622802734,35.64453125,-18.6767578125,-0.040771484375,0.243896484375,0.3509521484375
5.506,897,909,299,338,-16.0,34.0,38.0,57.861324310302734,25.634763717651367,-31.494138717651367,-0.2347412109375,0.442626953125,0.09814453125
5.514,937,928,265,265,-18.0,36.0,36.0,47.424312591552734,21.423337936401367,-34.423828125,-0.3856201171875,0.5587158203125,-0.2589111328125
5.521,918,922,241,252,-18.0,36.0,36.0,36.07177734375,20.385740280151367,-24.230955123901367,-0.4461669921875,0.65771484375,-0.5452880859375
5.542,853,864,200,193,-18.0,36.0,36.0,22.399900436401367,19.59228515625,-6.835937023162842,-0.474609375,0.62451171875,-0.6435546875
5.543,799,815,96,110,-18.0,36.0,36.0,3.784179449081421,21.118162155151367,9.033203125,-0.5406494140625,0.4365234375,-0.5491943359375
5.552,758,777,74,78,-18.0,36.0,36.0,-16.4794921875,26.184080123901367,20.01953125,-0.64501953125,0.22021484375,-0.3507080078125
5.560,761,758,86,84,-18.0,36.0,36.0,-34.3017578125,31.860349655151367,26.245115280151367,-0.732666015625,0.0323486328125,-0.2005615234375
5.574,720,712,76,80,-18.0,36.0,36.0,-43.579097747802734,36.4990234375,28.991697311401367,-0.77587890625,-0.05078125,-0.1400146484375
5.582,721,718,95,91,-18.0,36.0,36.0,-39.9169921875,38.26904296875,29.724119186401367,-0.7791748046875,0.0284423828125,-0.1195068359375
5.607,740,736,106,107,-18.0,36.0,36.0,-39.9169921875,38.26904296875,29.724119186401367,-0.75830078125,0.1888427734375,-0.1134033203125
5.607,799,790,139,139,-18.0,36.0,36.0,-10.803221702575684,29.113767623901367,32.28759765625,-0.7244873046875,0.3299560546875,-0.0955810546875
5.612,837,810,154,156,-21.0,34.0,35.0,4.82177734375,22.216794967651367,37.109375,-0.6971435546875,0.40576171875,-0.062744140625
5.620,830,828,183,182,-21.0,34.0,35.0,4.82177734375,22.216794967651367,37.109375,-0.687255859375,0.41064453125,-0.0350341796875
5.646,957,916,234,238,-21.0,34.0,35.0,19.775390625,13.549803733825684,48.034664154052734,-0.6881103515625,0.3614501953125,-0.0301513671875
5.653,1012,951,265,270,-21.0,34.0,35.0,16.54052734375,13.427733421325684,53.833003997802734,-0.6666259765625,0.27392578125,-0.0654296875
5.654,957,935,314,322,-21.0,34.0,35.0,16.54052734375,13.427733421325684,53.833003997802734,-0.6131591796875,0.21435546875,-0.1094970703125
5.664,1043,1043,519,527,-21.0,34.0,35.0,-4.638671875,24.780271530151367,65.4296875,-0.606201171875,0.2344970703125,-0.1412353515625
5.672,1207,1234,480,490,-21.0,34.0,35.0,-16.78466796875,36.07177734375,70.49560546875,-0.6728515625,0.2581787109375,-0.14990234375
5.680,1735,1824,490,508,-21.0,34.0,35.0,-16.78466796875,36.07177734375,70.49560546875,-0.6531982421875,0.1339111328125,-0.0665283203125
5.710,3020,3089,861,910,-21.0,34.0,35.0,-46.997066497802734,42.663570404052734,73.30322265625,-0.3433837890625,0.01171875,0.053955078125
5.711,3176,3176,1604,1882,-21.0,34.0,35.0,-52.307125091552734,22.888181686401367,64.63623046875,0.076904296875,0.2779541015625,0.129150390625
5.711,3176,3176,2672,3114,-18.0,36.0,33.0,-52.307125091552734,22.888181686401367,64.63623046875,0.6539306640625,0.460693359375,0.2252197265625
5.724,3176,3176,2273,3176,-18.0,36.0,33.0,0.4272460639476776,-78.369140625,-17.4560546875,1.5936279296875,0.002197265625,0.198974609375
5.732,3176,3176,3176,3176,-18.0,36.0,33.0,2.746581792831421,-149.2919921875,-93.13964080810547,1.9888916015625,-0.293212890625,0.06396484375
5.749,1400,3176,1528,3176,-18.0,36.0,33.0,2.746581792831421,-149.2919921875,-93.13964080810547,0.7691650390625,0.6676025390625,-0.7828369140625
5.753,627,3176,0,3176,-18.0,36.0,33.0,-1.5869139432907104,-158.8134765625,-157.8369140625,-1.324462890625,2.4793701171875,-1.9691162109375
5.766,630,3176,0,3176,-18.0,36.0,33.0,-84.16747283935547,-126.77001190185547,-160.15625,-2.8468017578125,3.1929931640625,-1.7896728515625
5.770,616,3176,0,3176,-18.0,36.0,33.0,-84.16747283935547,-126.77001190185547,-160.15625,-3.7225341796875,2.121826171875,-0.1036376953125
5.783,625,3176,0,3176,-18.0,36.0,33.0,-203.91844177246094,-78.9794921875,-86.73094940185547,-3.31494140625,-0.6142578125,1.1083984375
5.792,627,3176,0,3176,-18.0,36.0,33.0,-55.908199310302734,-36.19384765625,-29.418943405151367,-1.523193359375,-1.599609375,0.9327392578125
5.817,631,3176,0,3176,-18.0,36.0,33.0,-55.908199310302734,-36.19384765625,-29.418943405151367,-0.4271240234375,0.5216064453125,0.247314453125
5.818,636,3176,0,3176,-17.0,31.0,35.0,181.21336364746094,-8.11767578125,-1.2817381620407104,-0.752685546875,1.9466552734375,-0.4495849609375
5.822,636,3176,0,3176,-17.0,31.0,35.0,92.71239471435547,-2.50244140625,-41.992183685302734,-1.5211181640625,1.6669921875,-0.6700439453125
5.830,636,3176,0,3176,-17.0,31.0,35.0,92.71239471435547,-2.50244140625,-41.992183685302734,-1.97705078125,0.894775390625,-0.459716796875
5.853,631,3176,0,3176,-17.0,31.0,35.0,-37.9638671875,-2.50244140625,-62.622066497802734,-1.9940185546875,0.4793701171875,-0.2391357421875
5.853,636,3176,3176,3176,-17.0,31.0,35.0,-31.982419967651367,1.6479490995407104,-51.269527435302734,-1.7823486328125,0.27978515625,-0.18408203125
5.860,3176,3176,3176,3176,-17.0,31.0,35.0,-31.982419967651367,1.6479490995407104,-51.269527435302734,-1.521240234375,0.1983642578125,-0.1864013671875
5.879,3176,3176,0,3095,-17.0,31.0,35.0,-7.385253429412842,16.4794921875,-26.062009811401367,-1.281005859375,0.26025390625,-0.194580078125
5.882,2834,3176,0,2175,-17.0,31.0,35.0,-1.4038084745407104,28.747556686401367,-12.695311546325684,-1.039306640625,0.3170166015625,-0.178955078125
5.890,3176,3176,1029,1166,-17.0,31.0,35.0,-1.4038084745407104,28.747556686401367,-12.695311546325684,-0.7818603515625,0.2138671875,-0.032958984375
5.919,1971,2302,428,654,-14.0,36.0,35.0,2.929687261581421,54.138179779052734,7.507323741912842,-0.5030517578125,-0.1177978515625,0.2294921875
5.920,1775,1807,582,600,-14.0,36.0,35.0,13.244627952575684,60.058589935302734,11.962889671325684,-0.25244140625,-0.483642578125,0.4381103515625
5.920,1384,1400,617,640,-14.0,36.0,35.0,13.244627952575684,60.058589935302734,11.962889671325684,-0.0787353515625,-0.4698486328125,0.474853515625
5.934,1034,1025,582,587,-14.0,36.0,35.0,57.189937591552734,54.809566497802734,11.291502952575684,-0.0125732421875,-0.111572265625,0.3896484375
5.951,976,971,551,562,-14.0,36.0,35.0,65.73486328125,43.212886810302734,9.27734375,-0.0941162109375,0.1630859375,0.21533203125
5.952,955,922,507,519,-14.0,36.0,35.0,65.73486328125,43.212886810302734,9.27734375,-0.244140625,0.2213134765625,-0.0283203125
5.964,959,944,396,411,-14.0,36.0,35.0,49.865718841552734,28.991697311401367,3.967284917831421,-0.3643798828125,0.2454833984375,-0.2862548828125
5.972,955,944,379,378,-14.0,36.0,35.0,42.724605560302734,29.541013717651367,8.9111328125,-0.423583984375,0.3402099609375,-0.5042724609375
5.979,982,977,375,375,-14.0,36.0,35.0,42.724605560302734,29.541013717651367,8.9111328125,-0.4708251953125,0.4544677734375,-0.604736328125
5.993,966,963,297,298,-14.0,36.0,35.0,20.812986373901367,35.7666015625,28.259275436401367,-0.5721435546875,0.495849609375,-0.5362548828125
6.023,927,932,336,339,-15.0,36.0,33.0,-5.981444835662842,35.15625,34.11865234375,-0.701171875,0.4193115234375,-0.3612060546875
6.024,1035,1018,348,300,-15.0,36.0,33.0,-5.981444835662842,35.15625,34.11865234375,-0.801513671875,0.26025390625,-0.211669921875
6.024,981,978,328,377,-15.0,36.0,33.0,-36.2548828125,24.780271530151367,29.968259811401367,-0.861083984375,0.189697265625,-0.15185546875
6.032,996,985,416,417,-15.0,36.0,33.0,-24.536130905151367,19.22607421875,24.963376998901367,-0.890625,0.2724609375,-0.152587890625
6.040,1022,1018,441,441,-15.0,36.0,33.0,-24.536130905151367,19.22607421875,24.963376998901367,-0.90087890625,0.404052734375,-0.138916015625
6.054,1066,1059,480,484,-15.0,36.0,33.0,12.084959983825684,7.263183116912842,19.59228515625,-0.89111328125,0.498046875,-0.0927734375
6.062,1064,1061,518,523,-15.0,36.0,33.0,21.118162155151367,2.3193359375,20.141599655151367,-0.8653564453125,0.4984130859375,-0.0638427734375
6.070,1064,1061,523,531,-15.0,36.0,33.0,21.118162155151367,2.3193359375,20.141599655151367,-0.8653564453125,0.4984130859375,-0.0638427734375
6.083,1078,1078,531,538,-15.0,36.0,33.0,16.66259765625,3.173827886581421,26.916501998901367,-0.865234375,0.303955078125,-0.1253662109375
6.092,1114,1116,537,540,-15.0,36.0,33.0,16.66259765625,3.173827886581421,26.916501998901367,-0.8970947265625,0.2479248046875,-0.1807861328125
6.170,1083,1088,504,514,-17.0,37.0,32.0,9.09423828125,8.60595703125,34.11865234375,-0.8970947265625,0.2479248046875,-0.1807861328125
6.170,1039,1034,439,463,-17.0,37.0,32.0,-5.126952648162842,23.681638717651367,58.532711029052734,-0.93359375,0.225830078125,-0.26708984375
6.170,969,928,409,365,-17.0,37.0,32.0,-5.126952648162842,23.681638717651367,58.532711029052734,-0.9293212890625,0.221923828125,-0.2691650390625
6.170,909,884,373,372,-17.0,37.0,32.0,-11.901854515075684,32.40966796875,74.27978515625,-0.9293212890625,0.221923828125,-0.2691650390625
6.170,972,984,379,382,-17.0,37.0,32.0,-25.878904342651367,54.565425872802734,108.03221893310547,-0.8265380859375,0.16650390625,-0.253173828125
6.170,1087,1097,378,383,-17.0,37.0,32.0,-25.878904342651367,54.565425872802734,108.03221893310547,-0.7337646484375,0.054443359375,-0.1861572265625
6.170,1567,1725,502,525,-17.0,37.0,32.0,-31.677244186401367,65.61279296875,123.65721893310547,-0.7337646484375,0.054443359375,-0.1861572265625
6.173,3176,3176,1228,1430,-17.0,37.0,32.0,-57.922359466552734,42.846675872802734,130.43212890625,0.3896484375,-0.6337890625,0.475341796875
6.188,3176,3176,2247,2587,-17.0,37.0,32.0,-57.922359466552734,42.846675872802734,130.43212890625,1.33984375,-0.34912109375,0.6453857421875
6.189,1300,3176,463,3176,-17.0,37.0,32.0,-48.034664154052734,-4.21142578125,108.33739471435547,1.33984375,-0.34912109375,0.6453857421875
6.203,3176,3176,3176,3176,-18.0,35.0,38.0,56.274410247802734,-127.01415252685547,-41.564937591552734,1.927734375,0.4942626953125,0.0487060546875
6.223,2119,3176,1701,3176,-18.0,35.0,38.0,56.274410247802734,-127.01415252685547,-41.564937591552734,1.1329345703125,1.009521484375,-0.5555419921875
6.223,625,3176,0,3176,-18.0,35.0,38.0,36.56005859375,-178.28367614746094,-127.92967987060547,1.1329345703125,1.009521484375,-0.5555419921875
6.233,630,3176,0,3176,-18.0,35.0,38.0,-61.828609466552734,-145.8740234375,-165.95457458496094,-2.351318359375,3.252685546875,-1.9395751953125
6.242,617,3176,0,3176,-18.0,35.0,38.0,-61.828609466552734,-145.8740234375,-165.95457458496094,-3.467041015625,2.8463134765625,-0.371337890625
6.259,620,3176,0,3176,-18.0,35.0,38.0,-169.37254333496094,-116.76024627685547,-146.05712890625,-3.467041015625,2.8463134765625,-0.371337890625
6.264,614,3176,0,3176,-18.0,35.0,38.0,-91.79686737060547,-33.5693359375,-27.832029342651367,-1.9237060546875,-1.6575927734375,1.2147216796875
6.272,2119,3176,0,3176,-18.0,35.0,38.0,-91.79686737060547,-33.5693359375,-27.832029342651367,-0.43408203125,-0.1136474609375,0.390625
6.280,638,3176,1538,3176,-18.0,35.0,38.0,109.13085174560547,-1.6479490995407104,19.04296875,-0.43408203125,-0.1136474609375,0.390625
6.296,3176,3176,3176,3176,-18.0,35.0,38.0,124.02342987060547,5.920409679412842,-17.27294921875,-1.3382568359375,1.844970703125,-1.1197509765625
6.302,3176,3176,3176,3176,-14.0,33.0,34.0,124.02342987060547,5.920409679412842,-17.27294921875,-1.901123046875,1.0439453125,-0.7232666015625
6.342,3176,3176,3176,3176,-14.0,33.0,34.0,5.249022960662842,-0.7934569716453552,-45.227046966552734,-1.901123046875,1.0439453125,-0.7232666015625
6.342,3176,3176,2224,3176,-14.0,33.0,34.0,-51.879878997802734,-6.896972179412842,-34.85107421875,-1.8262939453125,0.445068359375,0.028564453125
6.342,3176,3176,3176,3176,-14.0,33.0,34.0,-51.879878997802734,-6.896972179412842,-34.85107421875,-1.538330078125,0.4420166015625,-0.0028076171875
6.342,3176,3176,683,3176,-14.0,33.0,34.0,-27.221677780151367,2.990722417831421,-22.583005905151367,-1.538330078125,0.4420166015625,-0.0028076171875
6.362,3176,3176,2386,3048,-14.0,33.0,34.0,11.962889671325684,25.390623092651367,-2.746581792831421,-1.1053466796875,0.4954833984375,-0.2103271484375
6.363,3176,3176,1875,2117,-14.0,33.0,34.0,11.962889671325684,25.390623092651367,-2.746581792831421,-0.86474609375,0.37548828125,-0.2689208984375
6.370,3176,3176,1098,1276,-14.0,33.0,34.0,18.310546875,34.11865234375,2.746581792831421,-0.86474609375,0.37548828125,-0.2689208984375
6.383,2453,2605,669,694,-14.0,33.0,34.0,25.207517623901367,32.3486328125,3.356933355331421,-0.236083984375,-0.1370849609375,0.0712890625
6.392,1989,2076,668,687,-14.0,33.0,34.0,25.207517623901367,32.3486328125,3.356933355331421,0.051513671875,-0.3414306640625,0.2540283203125
6.400,1608,1656,679,694,-14.0,36.0,33.0,31.860349655151367,23.315427780151367,-5.065917491912842,0.051513671875,-0.3414306640625,0.2540283203125
6.427,1278,1305,684,694,-14.0,36.0,33.0,50.048824310302734,12.695311546325684,-22.766111373901367,0.0279541015625,0.13427734375,0.228759765625
6.427,1173,1143,627,627,-14.0,36.0,33.0,50.048824310302734,12.695311546325684,-22.766111373901367,-0.238525390625,0.3494873046875,0.0972900390625
6.430,1178,1117,574,583,-14.0,36.0,33.0,43.640132904052734,8.544921875,-27.221677780151367,-0.238525390625,0.3494873046875,0.0972900390625
6.465,1034,1025,488,497,-14.0,36.0,33.0,11.962889671325684,7.568358898162842,-28.930662155151367,-0.6239013671875,0.3316650390625,-0.3380126953125
6.466,1098,1021,439,395,-14.0,36.0,33.0,11.962889671325684,7.568358898162842,-28.930662155151367,-0.6761474609375,0.3316650390625,-0.46044921875
6.466,989,963,253,301,-14.0,36.0,33.0,3.967284917831421,12.878417015075684,-18.06640625,-0.6761474609375,0.3316650390625,-0.46044921875
6.473,875,873,197,197,-14.0,36.0,33.0,-11.535643577575684,24.841306686401367,12.207030296325684,-0.8177490234375,0.37890625,-0.2216796875
6.481,858,855,188,188,-14.0,36.0,33.0,-11.535643577575684,24.841306686401367,12.207030296325684,-0.840087890625,0.2596435546875,-0.076904296875
6.489,822,827,205,210,-14.0,36.0,33.0,-28.930662155151367,28.259275436401367,22.094724655151367,-0.840087890625,0.2596435546875,-0.076904296875
6.503,859,861,222,223,-14.0,36.0,36.0,-46.081539154052734,33.50830078125,32.8369140625,-0.788818359375,0.135009765625,-0.05615234375
6.528,861,861,248,249,-14.0,36.0,36.0,-46.081539154052734,33.50830078125,32.8369140625,-0.784912109375,0.202880859375,-0.0758056640625
6.528,876,898,165,217,-14.0,36.0,36.0,-39.00146484375,34.66796875,38.51318359375,-0.784912109375,0.202880859375,-0.0758056640625
6.534,917,912,251,252,-14.0,36.0,36.0,-13.427733421325684,31.982419967651367,52.307125091552734,-0.7860107421875,0.3336181640625,-0.0450439453125
6.542,916,912,256,251,-14.0,36.0,36.0,-13.427733421325684,31.982419967651367,52.307125091552734,-0.76708984375,0.3726806640625,-0.0450439453125
6.567,886,885,260,261,-14.0,36.0,36.0,-2.197265625,30.273435592651367,59.692378997802734,-0.76708984375,0.3726806640625,-0.0450439453125
6.567,954,935,202,247,-14.0,36.0,36.0,4.94384765625,30.517576217651367,67.138671875,-0.7633056640625,0.359375,-0.1341552734375
6.572,918,904,265,268,-14.0,36.0,36.0,6.958007335662842,32.8369140625,74.40185546875,-0.7633056640625,0.359375,-0.1341552734375
6.580,925,916,293,282,-14.0,36.0,36.0,5.432128429412842,36.376953125,81.84813690185547,-0.788330078125,0.3365478515625,-0.2000732421875
6.593,989,985,343,343,-20.0,36.0,34.0,2.13623046875,41.564937591552734,90.20995330810547,-0.761474609375,0.26953125,-0.255615234375
6.602,1166,1185,445,447,-20.0,36.0,34.0,-3.417968511581421,49.499507904052734,99.18212127685547,-0.761474609375,0.26953125,-0.255615234375
6.610,1951,2104,664,689,-20.0,36.0,34.0,-14.831542015075684,58.837886810302734,105.95702362060547,-0.6141357421875,0.1431884765625,-0.110107421875
6.631,3176,3176,1905,2180,-20.0,36.0,34.0,-34.36279296875,58.349605560302734,103.02733612060547,0.8865966796875,-0.3623046875,0.56640625
6.632,3176,3176,3071,3176,-20.0,36.0,34.0,-48.645015716552734,31.921384811401367,82.76366424560547,0.8865966796875,-0.3623046875,0.56640625
6.639,3176,3176,3176,3176,-20.0,36.0,34.0,-19.83642578125,-23.742673873901367,40.588375091552734,1.8353271484375,-0.396728515625,0.485595703125
6.664,3176,3176,3176,3176,-20.0,36.0,34.0,37.7197265625,-93.07860565185547,-25.329587936401367,1.4981689453125,0.270263671875,-0.1683349609375
6.679,3176,3176,3176,3176,-20.0,36.0,34.0,58.898921966552734,-156.1279296875,-90.45409393310547,1.4981689453125,0.270263671875,-0.1683349609375
6.680,593,3176,0,3176,-20.0,36.0,34.0,49.255367279052734,-181.64060974121094,-129.150390625,-0.1683349609375,1.7930908203125,-1.1812744140625
6.684,629,3176,0,3176,-20.0,36.0,34.0,2.990722417831421,-161.13279724121094,-145.99609375,-3.0743408203125,3.46533203125,-1.2374267578125
6.692,617,3176,0,3176,-14.0,34.0,33.0,-113.52538299560547,-130.615234375,-147.705078125,-3.0743408203125,3.46533203125,-1.2374267578125
6.700,631,3176,0,3176,-14.0,34.0,33.0,-216.06443786621094,-102.29491424560547,-116.27196502685547,-3.8028564453125,1.5462646484375,0.73681640625
6.714,2293,3176,1098,3176,-14.0,34.0,33.0,-177.18504333496094,-51.757808685302734,-54.626461029052734,-0.6815185546875,-1.134521484375,0.7484130859375
6.735,644,3176,3176,3176,-14.0,34.0,33.0,13.305663108825684,-1.7700194120407104,10.375975608825684,-0.6815185546875,-1.134521484375,0.7484130859375
6.735,3176,3176,3176,3176,-14.0,34.0,33.0,175.23191833496094,15.136717796325684,40.222164154052734,-0.3743896484375,1.2542724609375,-0.2818603515625
6.740,3176,3176,3176,3176,-14.0,34.0,33.0,158.69140625,17.822265625,10.498045921325684,-1.046630859375,2.1053466796875,-0.9034423828125
6.753,3176,3176,3176,3176,-14.0,34.0,33.0,41.809078216552734,15.441893577575684,-34.48486328125,-2.0302734375,0.89453125,-0.3721923828125
6.772,3176,3176,37,3176,-14.0,34.0,33.0,-41.748043060302734,6.347655773162842,-52.612300872802734,-2.0302734375,0.89453125,-0.3721923828125
6.772,758,3176,105,3176,-14.0,34.0,33.0,-56.701656341552734,0.6713866591453552,-48.706050872802734,-1.9576416015625,0.5975341796875,-0.106201171875
6.783,3176,3176,1402,3176,-14.0,34.0,33.0,-38.0859375,4.94384765625,-37.78076171875,-1.7169189453125,0.4429931640625,-0.0789794921875
6.791,3176,3176,1422,3176,-14.0,33.0,37.0,-16.05224609375,14.526366233825684,-24.658201217651367,-1.4608154296875,0.3983154296875,-0.1282958984375
6.799,1966,3176,1057,3153,-14.0,33.0,37.0,1.220703125,25.390623092651367,-11.169432640075684,-1.2445068359375,0.471923828125,-0.222900390625
6.814,3176,3176,1156,1268,-14.0,33.0,37.0,11.596678733825684,37.2314453125,0.9765624403953552,-1.00830078125,0.5003662109375,-0.29248046875
6.837,2703,2803,749,788,-14.0,33.0,37.0,12.939452171325684,48.706050872802734,10.559081077575684,-0.7401123046875,0.3082275390625,-0.1785888671875
6.837,2107,2148,642,657,-14.0,33.0,37.0,9.33837890625,56.640621185302734,16.845703125,-0.44921875,-0.1287841796875,0.0985107421875
6.843,1351,1331,685,693,-14.0,33.0,37.0,11.108397483825684,58.654781341552734,16.4794921875,-0.15576171875,-0.548583984375,0.3734130859375
6.851,1130,1133,631,642,-14.0,33.0,37.0,26.916501998901367,54.382320404052734,9.33837890625,0.057373046875,-0.53369140625,0.4937744140625
6.859,1034,1021,603,612,-14.0,33.0,37.0,48.828121185302734,44.860836029052734,-0.2441406100988388,0.0909423828125,-0.1357421875,0.447998046875
6.873,922,904,504,512,-14.0,33.0,37.0,59.387203216552734,32.8369140625,-11.291502952575684,-0.08251953125,0.2398681640625,0.267333984375
6.881,928,916,388,391,-14.0,33.0,37.0,53.833003997802734,23.376462936401367,-22.155759811401367,-0.3238525390625,0.453857421875,-0.03466796875
6.892,934,937,304,309,-15.0,34.0,32.0,40.10009765625,19.53125,-27.404783248901367,-0.4569091796875,0.56591796875,-0.3712158203125
6.902,909,914,249,258,-15.0,34.0,32.0,26.306150436401367,20.629880905151367,-24.169919967651367,-0.485107421875,0.59033203125,-0.613525390625
6.911,904,907,210,207,-15.0,34.0,32.0,14.099120140075684,23.559568405151367,-14.892577171325684,-0.5247802734375,0.544189453125,-0.653564453125
6.919,869,871,193,198,-15.0,34.0,32.0,-1.5258787870407104,24.780271530151367,-3.662109136581421,-0.6038818359375,0.4339599609375,-0.4879150390625
6.939,848,852,210,205,-15.0,34.0,32.0,-20.141599655151367,24.658201217651367,6.591796398162842,-0.6722412109375,0.2767333984375,-0.2681884765625
6.942,884,855,201,208,-15.0,34.0,32.0,-34.36279296875,26.672361373901367,14.526366233825684,-0.725341796875,0.142822265625,-0.125244140625
6.949,864,878,199,197,-15.0,34.0,32.0,-40.649410247802734,31.127927780151367,21.789548873901367,-0.7821044921875,0.1279296875,-0.0723876953125
6.985,875,877,134,136,-15.0,34.0,32.0,-39.36767578125,35.2783203125,30.029294967651367,-0.830810546875,0.20849609375,-0.0732421875
6.986,909,890,159,109,-15.0,34.0,32.0,-32.16552734375,36.4990234375,37.65869140625,-0.8629150390625,0.2989501953125,-0.073486328125
6.986,901,888,203,207,-15.0,34.0,32.0,-22.521970748901367,34.0576171875,43.579097747802734,-0.8729248046875,0.360595703125,-0.0546875
7.008,985,944,282,285,-15.0,35.0,32.0,-11.840819358825684,29.968259811401367,48.645015716552734,-0.861328125,0.3739013671875,-0.0443115234375
7.016,984,944,323,326,-15.0,35.0,32.0,-0.3662109076976776,27.099607467651367,54.260250091552734,-0.8388671875,0.352783203125,-0.06005859375
7.017,929,927,260,301,-15.0,35.0,32.0,10.070799827575684,26.855466842651367,60.852046966552734,-0.8289794921875,0.329345703125,-0.1131591796875
7.043,948,949,267,270,-15.0,35.0,32.0,16.845703125,34.423828125,77.33154296875,-0.8330078125,0.355224609375,-0.251708984375
7.043,1005,995,254,255,-15.0,35.0,32.0,12.939452171325684,40.344234466552734,86.85301971435547,-0.81298828125,0.377685546875,-0.2962646484375
7.053,1213,1243,322,326,-15.0,35.0,32.0,2.685546636581421,46.386714935302734,94.54344940185547,-0.7381591796875,0.321533203125,-0.279052734375
7.061,1808,1959,479,487,-15.0,35.0,32.0,-20.141599655151367,49.438472747802734,95.09276580810547,-0.50732421875,0.14990234375,-0.120849609375
7.071,2813,3012,912,992,-15.0,35.0,32.0,-52.856441497802734,41.442867279052734,81.29882049560547,-0.0411376953125,-0.0660400390625,0.16259765625
7.085,3176,3176,2453,2833,-21.0,33.0,37.0,-65.85693359375,14.526366233825684,51.879878997802734,0.6102294921875,0.0306396484375,0.44091796875
7.091,3176,3176,3176,3176,-21.0,33.0,37.0,-24.047849655151367,-34.24072265625,8.30078125,1.314208984375,0.0728759765625,0.46142578125
7.099,3176,3176,3176,3176,-21.0,33.0,37.0,36.62109375,-100.46385955810547,-53.039546966552734,1.730712890625,-0.1903076171875,0.1409912109375
7.119,1684,3176,10,3176,-21.0,33.0,37.0,43.212886810302734,-165.22215270996094,-102.17284393310547,1.6053466796875,-0.09912109375,-0.18408203125
7.121,3176,3176,0,3176,-21.0,33.0,37.0,27.404783248901367,-190.79588317871094,-122.80272674560547,0.3001708984375,1.146484375,-1.1099853515625
7.145,636,3176,0,3176,-21.0,33.0,37.0,6.042479991912842,-166.44285583496094,-138.36669921875,-1.6280517578125,2.9471435546875,-2.162841796875
7.145,635,3176,0,3176,-21.0,33.0,37.0,-88.50096893310547,-135.07080078125,-150.69580078125,-2.9085693359375,3.1910400390625,-1.6668701171875
7.151,631,3176,0,3176,-21.0,33.0,37.0,-198.05906677246094,-117.30956268310547,-145.751953125,-3.7232666015625,1.4315185546875,0.247802734375
7.158,631,3176,0,3176,-21.0,33.0,37.0,-197.63182067871094,-95.94725799560547,-112.36571502685547,-3.8046875,-1.4105224609375,1.53564453125
7.191,633,3176,3176,3176,-21.0,33.0,37.0,-58.837886810302734,-64.14794921875,-61.279293060302734,-2.3531494140625,-2.3006591796875,1.1256103515625
7.192,3176,3176,3176,3176,-15.0,34.0,36.0,117.49266815185547,-38.02490234375,-18.12744140625,-0.9080810546875,-0.056640625,0.1380615234375
7.194,635,3176,3176,3176,-15.0,34.0,36.0,172.85154724121094,-25.817869186401367,-14.221190452575684,-0.8712158203125,1.811767578125,-0.5494384765625
7.203,636,3176,2063,3176,-15.0,34.0,36.0,94.72655487060547,-17.08984375,-43.640132904052734,-1.4881591796875,1.739013671875,-0.6558837890625
7.211,657,3176,0,3176,-15.0,34.0,36.0,-1.6479490995407104,-11.779784202575684,-63.110347747802734,-1.9949951171875,0.968505859375,-0.37744140625
7.219,644,3176,0,3176,-15.0,34.0,36.0,-43.273921966552734,-8.4228515625,-59.692378997802734,-2.00830078125,0.5069580078125,-0.15576171875
7.233,689,3176,1411,3176,-15.0,34.0,36.0,-38.2080078125,-1.7089842557907104,-46.020503997802734,-1.743896484375,0.372314453125,-0.1221923828125
7.241,2978,3176,1480,3176,-15.0,34.0,36.0,-21.850584030151367,7.629394054412842,-32.65380859375,-1.4617919921875,0.33203125,-0.155029296875
7.263,671,3176,372,2843,-15.0,34.0,36.0,-11.413573265075684,18.12744140625,-22.155759811401367,-1.217529296875,0.3497314453125,-0.1856689453125
7.263,645,3095,981,968,-15.0,34.0,36.0,-7.812499523162842,28.991697311401367,-13.549803733825684,-0.970703125,0.313232421875,-0.15576171875
7.275,2308,2418,0,630,-15.0,34.0,36.0,-6.164550304412842,38.9404296875,-6.225585460662842,-0.721435546875,0.1488037109375,-0.0050048828125
7.285,1715,1820,407,437,-14.0,33.0,32.0,-2.01416015625,46.630855560302734,-1.4038084745407104,-0.47607421875,-0.2410888671875,0.19287109375
7.303,1004,996,300,300,-14.0,33.0,32.0,12.451170921325684,52.429195404052734,-0.3662109076976776,-0.2686767578125,-0.5697021484375,0.319580078125
7.304,936,963,297,312,-14.0,33.0,32.0,39.0625,54.443355560302734,0.7324218153953552,-0.1278076171875,-0.4112548828125,0.386474609375
7.395,899,876,230,216,-14.0,33.0,32.0,60.241695404052734,49.255367279052734,3.295898199081421,-0.0838623046875,-0.015380859375,0.4002685546875
7.415,822,809,202,203,-14.0,33.0,32.0,61.523433685302734,40.588375091552734,2.624511480331421,-0.1695556640625,0.2359619140625,0.3056640625
7.425,828,780,201,201,-14.0,33.0,32.0,49.316402435302734,35.09521484375,0.54931640625,-0.3052978515625,0.3397216796875,0.075927734375
7.425,794,788,172,182,-14.0,33.0,32.0,36.1328125,35.400390625,4.8828125,-0.37939453125,0.39306640625,-0.2012939453125
7.461,814,799,168,168,-14.0,33.0,32.0,27.526853561401367,39.61181640625,17.39501953125,-0.3916015625,0.4442138671875,-0.37744140625
7.462,794,794,127,134,-14.0,33.0,32.0,19.59228515625,43.334957122802734,31.860349655151367,-0.423583984375,0.45458984375,-0.4139404296875
7.462,977,844,78,129,-14.0,33.0,32.0,5.065917491912842,43.029781341552734,39.9169921875,-0.5186767578125,0.355712890625,-0.3643798828125
7.462,832,827,197,199,-18.0,34.0,37.0,-13.305663108825684,38.63525390625,39.306640625,-0.627685546875,0.22412109375,-0.30029296875
7.463,829,822,239,239,-18.0,34.0,37.0,-27.709959030151367,32.04345703125,33.203125,-0.695068359375,0.1552734375,-0.2578125
7.464,949,913,253,256,-18.0,34.0,37.0,-32.65380859375,24.658201217651367,25.878904342651367,-0.7125244140625,0.208984375,-0.2249755859375
7.464,909,916,287,293,-18.0,34.0,37.0,-25.390623092651367,16.7236328125,20.629880905151367,-0.7115478515625,0.3641357421875,-0.1959228515625
7.464,927,922,322,326,-18.0,34.0,37.0,-10.986327171325684,9.033203125,18.06640625,-0.7218017578125,0.4853515625,-0.1651611328125
7.464,923,916,336,348,-18.0,34.0,37.0,0.8544921278953552,2.868652105331421,18.1884765625,-0.7353515625,0.4964599609375,-0.124267578125
7.465,931,923,437,463,-18.0,34.0,37.0,6.286620616912842,-0.3662109076976776,20.812986373901367,-0.75537109375,0.433349609375,-0.0853271484375
7.465,978,968,514,536,-18.0,34.0,37.0,6.164550304412842,-0.3662109076976776,25.939939498901367,-0.7919921875,0.33837890625,-0.05078125
7.465,1012,996,569,569,-18.0,34.0,37.0,2.746581792831421,2.13623046875,33.26416015625,-0.837890625,0.2479248046875,-0.0296630859375
7.473,1107,1104,597,609,-15.0,35.0,35.0,-0.7324218153953552,6.835937023162842,41.992183685302734,-0.889404296875,0.202880859375,-0.0362548828125
7.488,1120,1117,577,587,-15.0,35.0,35.0,-2.746581792831421,14.038084983825684,52.673336029052734,-0.946044921875,0.2142333984375,-0.06640625
7.490,1138,1141,553,574,-15.0,35.0,35.0,-4.150390625,23.620603561401367,65.49072265625,-1.0062255859375,0.2506103515625,-0.1185302734375
7.511,1139,1147,464,480,-15.0,35.0,35.0,-6.103515148162842,34.66796875,79.77294921875,-1.0654296875,0.2713623046875,-0.1851806640625
7.512,1131,1148,409,389,-15.0,35.0,35.0,-9.033203125,47.119136810302734,96.37450408935547,-1.11767578125,0.2508544921875,-0.2379150390625
7.519,1176,1183,348,363,-15.0,35.0,35.0,-11.291502952575684,61.279293060302734,116.69921112060547,-1.105712890625,0.15185546875,-0.252685546875
7.532,1689,1805,508,536,-15.0,35.0,35.0,-13.793944358825684,74.5849609375,138.73291015625,-0.9031982421875,-0.05712890625,-0.149658203125
7.552,2590,2787,780,833,-15.0,35.0,35.0,-24.780271530151367,77.392578125,151.4892578125,-0.3997802734375,-0.3031005859375,0.2017822265625
7.552,3176,3176,1426,1656,-15.0,35.0,35.0,-37.9638671875,58.288570404052734,141.78466796875,0.451904296875,-0.287841796875,0.6163330078125
7.568,3176,3176,3168,3176,-15.0,35.0,35.0,-16.78466796875,14.038084983825684,102.35594940185547,1.5389404296875,0.018310546875,0.7318115234375
7.571,3176,3176,3176,3176,-19.0,34.0,32.0,41.076656341552734,-50.476070404052734,20.263669967651367,2.2490234375,0.1026611328125,0.4417724609375
7.581,3176,3176,3176,3176,-19.0,34.0,32.0,67.87109375,-120.91063690185547,-73.91357421875,2.210693359375,0.002197265625,0.200439453125
7.592,3176,3176,3176,3176,-19.0,34.0,32.0,59.692378997802734,-161.25486755371094,-121.82616424560547,0.9647216796875,0.8197021484375,-0.5728759765625
7.601,627,3176,0,3176,-19.0,34.0,32.0,56.091304779052734,-143.1884765625,-125.06102752685547,-1.23095703125,2.61474609375,-2.093994140625
7.609,620,3176,0,3176,-19.0,34.0,32.0,-12.451170921325684,-110.41259002685547,-122.86376190185547,-2.82958984375,3.3404541015625,-2.366943359375
7.659,625,3176,0,3176,-19.0,34.0,32.0,-142.822265625,-95.58104705810547,-118.59130096435547,-3.643798828125,2.7269287109375,-0.7408447265625
7.659,630,3176,3176,3176,-19.0,34.0,32.0,-198.79148864746094,-67.07763671875,-82.03124237060547,-3.59716796875,0.3250732421875,0.8662109375
7.659,648,3176,2,3176,-19.0,34.0,32.0,-103.88182830810547,-25.878904342651367,-26.184080123901367,-1.8448486328125,-1.78466796875,1.30908203125
7.660,3176,3176,1941,3176,-19.0,34.0,32.0,81.60399627685547,-2.990722417831421,18.4326171875,-0.4290771484375,-0.3267822265625,0.5335693359375
7.661,3176,3176,3070,3176,-19.0,34.0,32.0,187.25584411621094,3.479003667831421,22.583005905151367,-0.695556640625,1.9749755859375,-0.7965087890625
7.669,3176,3176,3176,3176,-17.0,36.0,32.0,130.55419921875,3.906249761581421,-16.66259765625,-1.3966064453125,2.298095703125,-1.2705078125
7.684,3176,3176,3176,3176,-17.0,36.0,32.0,11.718749046325684,-7.080077648162842,-52.551265716552734,-1.9119873046875,1.3306884765625,-0.78466796875
7.696,3176,3176,3176,3176,-17.0,36.0,32.0,-47.973628997802734,-21.118162155151367,-62.316890716552734,-1.996337890625,0.60888671875,-0.18310546875
7.699,3176,3176,3176,3176,-17.0,36.0,32.0,-36.07177734375,-24.108884811401367,-56.457515716552734,-1.79345703125,0.451171875,0.016845703125
7.712,3176,3176,3176,3176,-17.0,36.0,32.0,-4.8828125,-16.11328125,-45.837398529052734,-1.49951171875,0.522216796875,-0.0467529296875
7.723,3176,3176,2018,3176,-17.0,36.0,32.0,12.756346702575684,-5.065917491912842,-35.09521484375,-1.2567138671875,0.585693359375,-0.173095703125
7.729,3176,3176,2511,2912,-17.0,36.0,32.0,16.66259765625,6.774901866912842,-26.550291061401367,-1.0501708984375,0.568359375,-0.3118896484375
7.758,3176,3176,1153,1267,-17.0,36.0,32.0,15.136717796325684,19.71435546875,-20.385740280151367,-0.8270263671875,0.3853759765625,-0.3607177734375
7.758,2741,2876,809,823,-17.0,36.0,32.0,11.596678733825684,29.968259811401367,-15.624999046325684,-0.54296875,0.0673828125,-0.1839599609375
7.759,2087,2132,738,702,-17.0,36.0,32.0,7.507323741912842,32.71484375,-14.343260765075684,-0.2308349609375,-0.3690185546875,0.14208984375
7.772,1260,1234,792,808,-18.0,34.0,38.0,10.681151390075684,29.602048873901367,-18.798828125,-0.0115966796875,-0.624267578125,0.37255859375
7.786,1098,1097,762,761,-18.0,34.0,38.0,26.184080123901367,24.963376998901367,-26.000974655151367,0.0694580078125,-0.4180908203125,0.4420166015625
7.804,1034,1021,635,638,-18.0,34.0,38.0,39.97802734375,18.85986328125,-32.958984375,-0.0167236328125,0.0029296875,0.4180908203125
7.804,928,932,508,518,-18.0,34.0,38.0,40.405269622802734,13.000487327575684,-38.75732421875,-0.254150390625,0.3299560546875,0.2459716796875
7.811,939,922,409,419,-18.0,34.0,38.0,32.04345703125,10.986327171325684,-40.832515716552734,-0.452392578125,0.4478759765625,-0.068115234375
7.819,938,928,398,398,-18.0,34.0,38.0,32.04345703125,10.986327171325684,-40.832515716552734,-0.5264892578125,0.4320068359375,-0.3797607421875
7.833,868,875,330,334,-18.0,34.0,38.0,15.624999046325684,21.362302780151367,-17.2119140625,-0.5513916015625,0.4141845703125,-0.530029296875
7.841,861,848,260,270,-18.0,34.0,38.0,5.859374523162842,28.747556686401367,5.859374523162842,-0.59912109375,0.4041748046875,-0.4429931640625
7.860,864,861,248,251,-18.0,34.0,38.0,5.859374523162842,28.747556686401367,5.859374523162842,-0.670166015625,0.346435546875,-0.24169921875
7.862,838,844,277,277,-17.0,35.0,35.0,-32.958984375,32.8369140625,37.17041015625,-0.71728515625,0.206787109375,-0.0865478515625
7.871,864,869,273,279,-17.0,35.0,35.0,-47.424312591552734,33.8134765625,40.649410247802734,-0.7442626953125,0.07763671875,-0.04345703125
7.879,907,916,293,293,-17.0,35.0,35.0,-47.424312591552734,33.8134765625,40.649410247802734,-0.763671875,0.0928955078125,-0.087158203125
7.897,922,912,410,419,-17.0,35.0,35.0,-36.68212890625,33.02001953125,42.053218841552734,-0.7637939453125,0.201416015625,-0.130126953125
7.906,939,939,441,452,-17.0,35.0,35.0,-19.34814453125,27.160642623901367,45.471187591552734,-0.7550048828125,0.2962646484375,-0.125732421875
7.909,968,967,487,495,-17.0,35.0,35.0,-19.34814453125,27.160642623901367,45.471187591552734,-0.778564453125,0.373779296875,-0.1038818359375
7.924,1078,1062,548,558,-17.0,35.0,35.0,8.544921875,17.27294921875,59.631343841552734,-0.8206787109375,0.4256591796875,-0.101806640625
7.938,1073,1073,562,574,-17.0,35.0,35.0,14.343260765075684,17.88330078125,69.7021484375,-0.857177734375,0.4151611328125,-0.1243896484375
7.939,1079,1085,558,571,-17.0,35.0,35.0,14.343260765075684,17.88330078125,69.7021484375,-0.8917236328125,0.353759765625,-0.166259765625
7.961,1114,1115,536,543,-17.0,35.0,35.0,9.033203125,25.939939498901367,91.06444549560547,-0.93310546875,0.3040771484375,-0.2161865234375
7.961,1129,1125,533,536,-19.0,33.0,36.0,5.0048828125,33.75244140625,104.67528533935547,-0.964599609375,0.296875,-0.2501220703125
7.969,1139,1147,454,473,-19.0,33.0,36.0,5.0048828125,33.75244140625,104.67528533935547,-0.9283447265625,0.26708984375,-0.2581787109375
7.983,1553,1644,545,562,-19.0,33.0,36.0,-7.751464366912842,55.175777435302734,136.1083984375,-0.785400390625,0.1451416015625,-0.177490234375
8.000,2376,2599,724,777,-19.0,33.0,36.0,-22.460935592651367,59.143062591552734,145.08056640625,-0.38623046875,-0.1446533203125,0.08056640625
8.001,3176,3176,1452,1662,-19.0,33.0,36.0,-22.460935592651367,59.143062591552734,145.08056640625,0.4442138671875,-0.3623046875,0.4781494140625
8.019,3176,3176,3176,3176,-19.0,33.0,36.0,-44.677730560302734,13.061522483825684,98.44969940185547,1.5904541015625,-0.2310791015625,0.8974609375
8.021,3176,3176,3176,3176,-19.0,33.0,36.0,0.4272460639476776,-39.12353515625,16.357421875,2.2374267578125,-0.04443359375,0.7213134765625
8.029,3176,3176,3176,3176,-19.0,33.0,36.0,0.4272460639476776,-39.12353515625,16.357421875,1.98486328125,0.0771484375,0.2431640625
8.043,617,3176,123,3176,-19.0,33.0,36.0,50.415035247802734,-161.92625427246094,-137.39013671875,0.6253662109375,0.8262939453125,-0.570556640625
8.069,616,3176,3,3176,-19.0,33.0,36.0,45.593257904052734,-153.564453125,-130.43212890625,-1.467041015625,2.44287109375,-1.9888916015625
8.070,630,3176,0,3176,-20.0,35.0,41.0,45.593257904052734,-153.564453125,-130.43212890625,-2.899169921875,3.28125,-2.2371826171875
8.073,631,3176,1415,3176,-20.0,35.0,41.0,-120.91063690185547,-79.89501953125,-88.19579315185547,-3.6484375,2.819091796875,-0.6090087890625
8.081,3176,3176,3176,3176,-20.0,35.0,41.0,-156.3720703125,-38.75732421875,-50.231929779052734,-3.5869140625,0.3992919921875,0.987548828125
8.092,3176,3176,3176,3176,-20.0,35.0,41.0,-156.3720703125,-38.75732421875,-50.231929779052734,-1.82421875,-1.9189453125,1.32470703125
8.103,3176,3176,3176,3176,-20.0,35.0,41.0,99.85350799560547,16.4794921875,21.423337936401367,-0.3746337890625,-0.49365234375,0.35546875
8.110,3176,3176,3176,3176,-20.0,35.0,41.0,198.12010192871094,19.4091796875,21.667478561401367,-0.6334228515625,2.0396728515625,-1.14990234375
8.131,3176,3176,3176,3176,-20.0,35.0,41.0,198.12010192871094,19.4091796875,21.667478561401367,-1.3372802734375,2.4327392578125,-1.5595703125
8.149,3176,3176,3176,3176,-20.0,35.0,41.0,-2.0751953125,-10.375975608825684,-52.062984466552734,-1.8380126953125,1.3385009765625,-0.8411865234375
8.164,3176,3176,3176,3176,-20.0,35.0,41.0,-69.82421875,-28.381345748901367,-59.448238372802734,-1.9818115234375,0.5433349609375,-0.089599609375
8.164,3176,3176,3176,3176,-20.0,35.0,41.0,-69.82421875,-28.381345748901367,-59.448238372802734,-1.8631591796875,0.4129638671875,0.144287109375
8.170,3176,3176,3176,3176,-16.0,37.0,33.0,-15.563963890075684,-15.808104515075684,-28.625486373901367,-1.59814453125,0.47265625,0.046875
8.171,3176,3176,3176,3176,-16.0,37.0,33.0,8.48388671875,-1.5258787870407104,-11.474608421325684,-1.3489990234375,0.5206298828125,-0.09619140625
8.179,3176,3176,3176,3176,-16.0,37.0,33.0,8.48388671875,-1.5258787870407104,-11.474608421325684,-1.13916015625,0.5509033203125,-0.249267578125
8.197,3176,3176,1850,2072,-16.0,37.0,33.0,17.2119140625,27.954099655151367,13.793944358825684,-0.8858642578125,0.45556640625,-0.349609375
8.207,3176,3176,1078,1141,-16.0,37.0,33.0,14.404295921325684,40.649410247802734,17.88330078125,-0.5965576171875,0.2452392578125,-0.286865234375
8.209,2616,2790,801,832,-16.0,37.0,33.0,14.404295921325684,40.649410247802734,17.88330078125,-0.26220703125,0.000244140625,-0.07177734375
8.223,1671,1721,671,688,-16.0,37.0,33.0,13.244627952575684,29.663084030151367,-3.784179449081421,0.046142578125,-0.2327880859375,0.097412109375
8.230,1316,1317,689,691,-16.0,37.0,33.0,26.672361373901367,13.977049827575684,-26.916501998901367,0.1776123046875,-0.2020263671875,0.166015625
8.244,1132,1153,650,644,-16.0,37.0,33.0,26.672361373901367,13.977049827575684,-26.916501998901367,0.1220703125,0.044921875,0.221435546875
8.274,1018,1034,545,555,-20.0,34.0,35.0,41.015621185302734,-11.535643577575684,-63.659664154052734,-0.096435546875,0.2442626953125,0.1298828125
8.274,1029,1021,508,529,-20.0,34.0,35.0,29.174802780151367,-14.831542015075684,-73.66943359375,-0.317626953125,0.41943359375,-0.102294921875
8.275,1018,1031,465,477,-20.0,34.0,35.0,29.174802780151367,-14.831542015075684,-73.66943359375,-0.4486083984375,0.521484375,-0.34326171875
8.284,1004,1008,361,356,-20.0,34.0,35.0,6.164550304412842,-12.573241233825684,-70.12939453125,-0.5523681640625,0.54296875,-0.444580078125
8.291,996,1017,307,314,-20.0,34.0,35.0,6.164550304412842,-12.573241233825684,-70.12939453125,-0.66796875,0.53662109375,-0.33740234375
8.307,932,936,322,324,-20.0,34.0,35.0,2.624511480331421,-12.878417015075684,-54.931636810302734,-0.66796875,0.53662109375,-0.33740234375
8.313,928,935,372,377,-20.0,34.0,35.0,-20.507810592651367,-8.056640625,-23.681638717651367,-0.82373046875,0.205810546875,-0.0147705078125
8.321,907,918,365,375,-20.0,34.0,35.0,-20.507810592651367,-8.056640625,-23.681638717651367,-0.857421875,0.090087890625,0.0152587890625
8.329,875,875,356,353,-20.0,34.0,35.0,-31.677244186401367,0.3662109076976776,-11.779784202575684,-0.857421875,0.090087890625,0.0152587890625
8.342,879,888,362,356,-20.0,34.0,35.0,-36.865234375,19.10400390625,15.747069358825684,-0.930419921875,0.1302490234375,-0.0186767578125
8.376,871,873,361,359,-17.0,34.0,31.0,-36.865234375,19.10400390625,15.747069358825684,-0.9288330078125,0.1900634765625,-0.0263671875
8.377,858,873,319,324,-17.0,34.0,31.0,-33.935546875,24.536130905151367,29.968259811401367,-0.9288330078125,0.1900634765625,-0.0263671875
8.377,858,855,287,287,-17.0,34.0,31.0,-22.033689498901367,30.334470748901367,53.710933685302734,-0.851318359375,0.2720947265625,-0.082763671875
8.381,830,814,243,248,-17.0,34.0,31.0,-22.033689498901367,30.334470748901367,53.710933685302734,-0.857666015625,0.2523193359375,-0.1292724609375
8.389,777,769,211,210,-17.0,34.0,31.0,-17.2119140625,32.04345703125,63.171382904052734,-0.857666015625,0.2523193359375,-0.1292724609375
8.409,761,750,167,168,-17.0,34.0,31.0,-6.713866710662842,39.306640625,89.23339080810547,-0.9705810546875,0.2691650390625,-0.207763671875
8.411,767,751,151,156,-17.0,34.0,31.0,-6.713866710662842,39.306640625,89.23339080810547,-0.9613037109375,0.3333740234375,-0.2520751953125
8.419,828,799,122,122,-17.0,34.0,31.0,-0.54931640625,46.081539154052734,106.81151580810547,-0.9613037109375,0.3333740234375,-0.2520751953125
8.433,846,846,84,86,-17.0,34.0,31.0,-0.54931640625,62.316890716552734,133.30078125,-0.845947265625,0.3714599609375,-0.30322265625
8.441,990,922,101,126,-17.0,34.0,31.0,-0.54931640625,62.316890716552734,133.30078125,-0.6666259765625,0.25830078125,-0.2061767578125
8.449,1129,1157,223,251,-19.0,34.0,28.0,-8.97216796875,70.4345703125,138.00048828125,-0.6666259765625,0.25830078125,-0.2061767578125
8.481,3176,3176,1456,1718,-19.0,34.0,28.0,-72.57080078125,49.377437591552734,96.61864471435547,0.7218017578125,-0.651611328125,0.69775390625
8.484,3176,3176,3028,3176,-19.0,34.0,28.0,-72.57080078125,49.377437591552734,96.61864471435547,2.06982421875,-0.098876953125,1.0311279296875
8.484,3176,3176,3176,3176,-19.0,34.0,28.0,-104.00389862060547,-1.3427733182907104,44.067378997802734,2.06982421875,-0.098876953125,1.0311279296875
8.493,3176,3176,3176,3176,-19.0,34.0,28.0,86.48680877685547,-112.06053924560547,-100.21971893310547,1.8411865234375,0.1475830078125,-0.2197265625
8.512,2738,3176,3176,3176,-19.0,34.0,28.0,86.48680877685547,-112.06053924560547,-100.21971893310547,0.8231201171875,0.235107421875,-0.5947265625
8.513,605,3176,2357,3176,-19.0,34.0,28.0,69.15283203125,-166.56492614746094,-169.61668395996094,0.8231201171875,0.235107421875,-0.5947265625
8.523,628,3176,0,3176,-19.0,34.0,28.0,-21.911619186401367,-147.76611328125,-161.01072692871094,-2.839111328125,3.116943359375,-2.027099609375
8.532,589,3176,0,3176,-19.0,34.0,28.0,-21.911619186401367,-147.76611328125,-161.01072692871094,-3.7423095703125,2.9525146484375,-0.4696044921875
8.541,636,3176,0,3176,-19.0,34.0,28.0,-115.23436737060547,-114.99022674560547,-135.07080078125,-3.7423095703125,2.9525146484375,-0.4696044921875
8.555,3176,3176,2364,3176,-17.0,33.0,38.0,-62.683101654052734,-35.94970703125,-21.850584030151367,-1.3350830078125,-1.5804443359375,1.212158203125
8.582,3176,3176,3176,3176,-17.0,33.0,38.0,-62.683101654052734,-35.94970703125,-21.850584030151367,-0.0849609375,0.2330322265625,0.1190185546875
