time,compression0,compression1,compression2,compression3,magn_x,magn_y,magn_z,gyro_x,gyro_y,gyro_z,accel_x,accel_y,accel_z
0.014,318,625,579,344,-5.0,37.0,14.0,-11.535643577575684,-12.023924827575684,-17.15087890625,-0.7393798828125,0.6773681640625,-0.1226806640625
0.015,318,579,574,342,-5.0,37.0,14.0,-16.4794921875,-12.207030296325684,-19.8974609375,-0.7337646484375,0.645263671875,-0.1201171875
0.021,318,537,575,338,-5.0,37.0,14.0,-18.5546875,-12.329100608825684,-21.972654342651367,-0.733642578125,0.631103515625,-0.10205078125
0.033,318,478,561,336,-5.0,37.0,14.0,-15.563963890075684,-12.878417015075684,-22.949216842651367,-0.748291015625,0.651611328125,-0.07958984375
0.041,317,434,543,331,-2.0,33.0,8.0,-9.94873046875,-13.977049827575684,-23.437498092651367,-0.755859375,0.6805419921875,-0.0692138671875
0.049,315,423,546,334,-2.0,33.0,8.0,-5.615233898162842,-15.197752952575684,-24.414060592651367,-0.75146484375,0.689453125,-0.072998046875
0.081,317,532,519,338,-2.0,33.0,8.0,-3.967284917831421,-16.2353515625,-26.306150436401367,-0.74560546875,0.6763916015625,-0.07666015625
0.081,316,371,519,331,-2.0,33.0,8.0,-3.906249761581421,-17.02880859375,-28.503416061401367,-0.7462158203125,0.66162109375,-0.0701904296875
0.082,316,532,493,316,-2.0,33.0,8.0,-3.417968511581421,-17.9443359375,-30.700681686401367,-0.751220703125,0.6593017578125,-0.06005859375
0.093,313,439,504,330,-2.0,33.0,8.0,-2.563476324081421,-18.85986328125,-32.470703125,-0.7535400390625,0.6634521484375,-0.0552978515625
0.117,315,423,497,328,-2.0,33.0,8.0,-2.746581792831421,-19.775390625,-33.5693359375,-0.7529296875,0.6580810546875,-0.05517578125
0.117,313,430,497,330,-2.0,33.0,8.0,-4.39453125,-20.751951217651367,-34.3017578125,-0.75146484375,0.635986328125,-0.0565185546875
0.123,315,426,505,329,-2.0,33.0,8.0,-6.652831554412842,-21.667478561401367,-34.912109375,-0.7459716796875,0.5999755859375,-0.0545654296875
0.131,315,427,521,330,-2.0,33.0,8.0,-8.4228515625,-22.521970748901367,-35.46142578125,-0.73583984375,0.560791015625,-0.048828125
0.147,314,465,526,336,0.0,31.0,14.0,-8.85009765625,-23.071287155151367,-35.64453125,-0.7254638671875,0.5321044921875,-0.047119140625
0.153,310,519,526,330,0.0,31.0,14.0,-7.751464366912842,-23.498533248901367,-35.400390625,-0.716552734375,0.5184326171875,-0.051025390625
0.184,316,525,533,336,0.0,31.0,14.0,-5.676269054412842,-23.925779342651367,-34.66796875,-0.71044921875,0.5191650390625,-0.055419921875
0.188,317,546,538,336,0.0,31.0,14.0,-3.723144292831421,-24.291990280151367,-33.3251953125,-0.709716796875,0.529052734375,-0.0577392578125
0.189,318,693,594,344,0.0,31.0,14.0,-3.173827886581421,-24.536130905151367,-31.127927780151367,-0.7132568359375,0.53955078125,-0.0555419921875
0.193,321,737,604,346,0.0,31.0,14.0,-4.638671875,-24.719236373901367,-28.137205123901367,-0.719970703125,0.5382080078125,-0.0458984375
0.199,321,859,599,346,0.0,31.0,14.0,-7.873534679412842,-24.963376998901367,-24.353025436401367,-0.7298583984375,0.52099609375,-0.0306396484375
0.218,322,1043,667,349,0.0,31.0,14.0,-11.657713890075684,-24.841306686401367,-19.83642578125,-0.7447509765625,0.504150390625,-0.0133056640625
0.221,327,1129,751,356,0.0,31.0,14.0,-14.953612327575684,-23.986814498901367,-14.648436546325684,-0.763671875,0.5032958984375,0.006103515625
0.229,325,1213,814,359,0.0,31.0,14.0,-17.2119140625,-22.705076217651367,-8.9111328125,-0.7750244140625,0.51220703125,0.025634765625
0.243,330,1349,853,365,0.0,35.0,15.0,-18.9208984375,-21.728513717651367,-3.173827886581421,-0.766357421875,0.51318359375,0.03466796875
0.257,330,1561,944,371,0.0,35.0,15.0,-20.263669967651367,-21.118162155151367,1.8920897245407104,-0.736572265625,0.49365234375,0.025390625
0.259,334,1941,963,383,0.0,35.0,15.0,-21.545408248901367,-20.629880905151367,5.981444835662842,-0.6953125,0.4501953125,0.017578125
0.291,334,2884,1051,401,0.0,35.0,15.0,-22.277830123901367,-20.629880905151367,8.97216796875,-0.6258544921875,0.3807373046875,0.0360107421875
0.291,323,3147,1057,616,0.0,35.0,15.0,-22.155759811401367,-22.521970748901367,9.3994140625,-0.4964599609375,0.2872314453125,0.0567626953125
0.291,324,3147,1085,1037,0.0,35.0,15.0,-20.324705123901367,-27.038572311401367,4.69970703125,-0.33447265625,0.2244873046875,0.05712890625
0.303,337,3147,1056,1766,0.0,35.0,15.0,-15.136717796325684,-33.99658203125,-5.554198741912842,-0.185791015625,0.296142578125,0.0888671875
0.321,338,3147,1012,2137,0.0,35.0,15.0,-6.286620616912842,-43.579097747802734,-19.8974609375,-0.0404052734375,0.5396728515625,0.1414794921875
0.321,346,3147,971,2571,0.0,35.0,15.0,0.0,-55.908199310302734,-38.26904296875,0.1610107421875,0.8641357421875,0.120849609375
0.333,360,3147,1160,3147,1.0,33.0,12.0,-0.4272460639476776,-69.51904296875,-64.02587890625,0.404052734375,1.075439453125,0.052001953125
0.341,387,3147,1366,3147,1.0,33.0,12.0,-2.746581792831421,-83.06884002685547,-99.36522674560547,0.4794921875,1.0538330078125,0.0323486328125
0.349,407,3147,1662,3147,1.0,33.0,12.0,-10.742186546325684,-94.78759002685547,-137.6953125,0.1048583984375,0.8756103515625,0.111328125
0.363,428,3147,1954,3147,1.0,33.0,12.0,-42.785640716552734,-96.31346893310547,-162.53660583496094,-0.667724609375,0.5926513671875,0.1781005859375
0.402,431,3147,2115,3147,1.0,33.0,12.0,-102.11180877685547,-76.11083984375,-162.59764099121094,-1.5018310546875,0.212646484375,0.19775390625
0.402,438,3147,2233,3147,1.0,33.0,12.0,-102.11180877685547,-76.11083984375,-162.59764099121094,-2.0587158203125,-0.0709228515625,0.3560791015625
0.402,442,3147,2416,3147,1.0,33.0,12.0,-179.74851989746094,-13.061522483825684,-107.36083221435547,-2.1865234375,-0.0211181640625,0.552734375
0.404,452,3147,2504,3147,1.0,33.0,12.0,-138.5498046875,3.784179449081421,-68.17626953125,-2.0994873046875,0.3592529296875,0.562744140625
0.423,454,3147,2527,3147,1.0,33.0,12.0,-138.5498046875,3.784179449081421,-68.17626953125,-2.0687255859375,0.746826171875,0.41650390625
0.425,438,3147,2532,3147,1.0,33.0,12.0,-13.549803733825684,14.709471702575684,-22.827146530151367,-2.0965576171875,0.8056640625,0.228759765625
0.431,454,3147,2490,3147,9.0,32.0,18.0,1.220703125,9.3994140625,-24.414060592651367,-1.890625,0.4620361328125,0.0506591796875
0.439,445,3147,2519,3147,9.0,32.0,18.0,1.220703125,9.3994140625,-24.414060592651367,-1.39794921875,0.127685546875,-0.0369873046875
0.453,445,3147,2448,3147,9.0,32.0,18.0,-4.69970703125,9.09423828125,-47.790523529052734,-0.9967041015625,0.298095703125,-0.047119140625
0.461,446,3147,2407,3147,9.0,32.0,18.0,-0.6713866591453552,13.366698265075684,-60.974117279052734,-0.8709716796875,0.7332763671875,-0.134033203125
0.469,445,3147,2388,3147,9.0,32.0,18.0,-0.6713866591453552,13.366698265075684,-60.974117279052734,-0.8900146484375,0.946044921875,-0.2120361328125
0.483,441,3147,2473,3147,9.0,32.0,18.0,-25.695798873901367,2.868652105331421,-85.44921112060547,-1.0020751953125,0.825439453125,-0.11572265625
0.494,442,3147,2492,3147,9.0,32.0,18.0,-49.072261810302734,-12.695311546325684,-91.91893768310547,-1.421630859375,0.711669921875,0.0804443359375
0.577,445,3147,2489,3147,9.0,32.0,18.0,-49.072261810302734,-12.695311546325684,-91.91893768310547,-1.8897705078125,0.69287109375,0.2022705078125
0.577,433,3147,2392,3147,9.0,32.0,18.0,-71.59423828125,-26.794431686401367,-55.114742279052734,-1.8792724609375,0.4566650390625,0.30419921875
0.577,432,3147,2375,3147,9.0,32.0,18.0,-75.98876953125,-19.71435546875,-28.259275436401367,-1.56201171875,0.120849609375,0.5201416015625
0.577,455,3147,2379,2765,13.0,29.0,12.0,-75.98876953125,-19.71435546875,-28.259275436401367,-1.2891845703125,-0.024169921875,0.6922607421875
0.577,444,3147,2316,2235,13.0,29.0,12.0,-40.10009765625,4.2724609375,8.9111328125,-1.1168212890625,-0.0032958984375,0.658935546875
0.578,441,3147,2261,1914,13.0,29.0,12.0,-9.1552734375,21.667478561401367,26.611326217651367,-0.9854736328125,-0.026123046875,0.5401611328125
0.578,439,3147,2138,1675,13.0,29.0,12.0,-9.1552734375,21.667478561401367,26.611326217651367,-0.8712158203125,-0.1578369140625,0.469482421875
0.605,433,3147,1999,1355,13.0,29.0,12.0,15.441893577575684,51.086421966552734,48.706050872802734,-0.77099609375,-0.2308349609375,0.3682861328125
0.606,431,3147,1892,1278,13.0,29.0,12.0,21.789548873901367,58.227535247802734,47.546382904052734,-0.6719970703125,-0.075439453125,0.2005615234375
0.606,423,3147,1762,1083,13.0,29.0,12.0,21.789548873901367,58.227535247802734,47.546382904052734,-0.54296875,0.23876953125,0.0423583984375
0.607,411,3147,1575,793,13.0,29.0,12.0,37.65869140625,48.767086029052734,14.831542015075684,-0.375244140625,0.44140625,-0.0771484375
0.612,411,3147,1464,537,13.0,29.0,12.0,25.329587936401367,35.888671875,-7.263183116912842,-0.2637939453125,0.407470703125,-0.1353759765625
0.623,404,2679,1343,526,13.0,29.0,12.0,25.329587936401367,35.888671875,-7.263183116912842,-0.2958984375,0.2415771484375,-0.1419677734375
0.634,401,2409,1228,493,10.0,31.0,12.0,-4.8828125,13.977049827575684,-41.137691497802734,-0.4775390625,0.0751953125,-0.1375732421875
0.642,391,2587,1213,501,10.0,31.0,12.0,-2.746581792831421,10.253905296325684,-42.846675872802734,-0.686767578125,0.0391845703125,-0.1329345703125
0.651,388,2688,1156,499,10.0,31.0,12.0,-2.746581792831421,10.253905296325684,-42.846675872802734,-0.75390625,0.252197265625,-0.097412109375
0.665,387,2720,1112,482,10.0,31.0,12.0,33.69140625,8.85009765625,-9.46044921875,-0.7132568359375,0.6064453125,-0.0345458984375
0.673,387,2703,1096,486,10.0,31.0,12.0,39.4287109375,1.8920897245407104,-2.929687261581421,-0.672607421875,0.80078125,0.0145263671875
0.686,382,2692,1083,482,10.0,31.0,12.0,39.4287109375,1.8920897245407104,-2.929687261581421,-0.65771484375,0.7303466796875,0.0618896484375
0.694,382,2660,1125,470,10.0,31.0,12.0,-4.7607421875,-10.559081077575684,-10.620116233825684,-0.6739501953125,0.5341796875,0.1429443359375
0.761,383,2726,1129,480,10.0,31.0,12.0,-24.230955123901367,-11.291502952575684,-15.075682640075684,-0.71630859375,0.3515625,0.2381591796875
0.761,382,2766,1155,479,10.0,31.0,12.0,-24.230955123901367,-11.291502952575684,-15.075682640075684,-0.781982421875,0.223388671875,0.294189453125
0.761,382,2788,1160,468,12.0,31.0,16.0,-33.75244140625,-6.896972179412842,-18.49365234375,-0.8536376953125,0.157470703125,0.294677734375
0.761,378,2775,1163,479,12.0,31.0,16.0,-33.75244140625,-6.896972179412842,-18.49365234375,-0.8958740234375,0.1478271484375,0.2530517578125
0.761,378,2787,1160,473,12.0,31.0,16.0,-28.381345748901367,-3.051757574081421,-14.526366233825684,-0.8958740234375,0.1478271484375,0.2530517578125
0.761,376,2793,1176,468,12.0,31.0,16.0,-13.854979515075684,3.967284917831421,1.5258787870407104,-0.908203125,0.1629638671875,0.212646484375
0.766,376,2827,1204,466,12.0,31.0,16.0,-13.854979515075684,3.967284917831421,1.5258787870407104,-0.8917236328125,0.12158203125,0.1953125
0.770,373,2861,1185,466,12.0,31.0,16.0,-11.657713890075684,4.21142578125,10.314940452575684,-0.8917236328125,0.12158203125,0.1953125
0.794,369,3147,1126,438,12.0,31.0,16.0,-7.507323741912842,2.868652105331421,28.869626998901367,-0.797607421875,-0.0433349609375,0.0845947265625
0.795,360,3147,1069,530,12.0,31.0,16.0,-7.507323741912842,2.868652105331421,28.869626998901367,-0.73486328125,-0.058837890625,0.051513671875
0.800,356,3147,1018,803,12.0,31.0,16.0,1.8310545682907104,2.3193359375,38.6962890625,-0.73486328125,-0.058837890625,0.051513671875
0.827,346,3147,1050,1557,12.0,31.0,16.0,17.2119140625,-0.8544921278953552,63.232418060302734,-0.4312744140625,0.11572265625,0.05615234375
0.829,348,3147,1112,2052,11.0,28.0,14.0,17.2119140625,-0.8544921278953552,63.232418060302734,-0.2486572265625,0.168212890625,0.1741943359375
0.832,354,3147,1163,2409,11.0,28.0,14.0,21.301267623901367,-8.30078125,67.81005859375,-0.2486572265625,0.168212890625,0.1741943359375
0.844,364,3147,1224,3147,11.0,28.0,14.0,37.17041015625,-36.68212890625,51.940914154052734,0.3985595703125,-0.0482177734375,0.3876953125
0.852,382,3147,1331,3147,11.0,28.0,14.0,37.17041015625,-36.68212890625,51.940914154052734,0.720947265625,0.075927734375,0.3048095703125
0.860,399,3147,1557,3147,11.0,28.0,14.0,44.982906341552734,-45.898433685302734,30.273435592651367,0.720947265625,0.075927734375,0.3048095703125
0.876,408,3147,1801,3147,11.0,28.0,14.0,29.785154342651367,-53.527828216552734,-43.334957122802734,0.2464599609375,0.6265869140625,-0.029541015625
0.901,413,3147,1920,3147,11.0,28.0,14.0,29.785154342651367,-53.527828216552734,-43.334957122802734,-0.7132568359375,0.2760009765625,-0.3612060546875
0.907,423,3147,2012,3147,11.0,28.0,14.0,10.009765625,-60.363765716552734,-94.78759002685547,-0.7132568359375,0.2760009765625,-0.3612060546875
0.919,434,3147,2288,3147,11.0,28.0,14.0,-28.869626998901367,-52.734371185302734,-81.23778533935547,-2.6298828125,0.9112548828125,0.317626953125
0.935,445,3147,2517,3147,11.0,28.0,14.0,-28.869626998901367,-52.734371185302734,-81.23778533935547,-2.8865966796875,1.6722412109375,0.7628173828125
0.940,437,3147,2647,3147,12.0,30.0,17.0,-32.16552734375,-43.701168060302734,-27.465818405151367,-2.8865966796875,1.6722412109375,0.7628173828125
0.941,447,3147,2627,3147,12.0,30.0,17.0,-48.583980560302734,-39.00146484375,6.347655773162842,-3.255859375,1.8123779296875,0.8734130859375
0.945,456,3147,2576,3147,12.0,30.0,17.0,-73.8525390625,-29.052732467651367,28.869626998901367,-1.5679931640625,-1.2200927734375,0.863037109375
0.953,447,3147,2521,3147,12.0,30.0,17.0,-67.0166015625,2.38037109375,33.14208984375,-1.5679931640625,-1.2200927734375,0.863037109375
0.961,445,3147,2453,3147,12.0,30.0,17.0,-6.958007335662842,40.954586029052734,10.925292015075684,-0.802734375,-1.0023193359375,0.6707763671875
0.977,439,3147,2428,3147,12.0,30.0,17.0,82.51952362060547,65.673828125,-5.737304210662842,-1.0079345703125,1.75390625,-0.845458984375
1.001,441,3147,2435,3147,12.0,30.0,17.0,126.83104705810547,71.10595703125,-12.817381858825684,-1.0079345703125,1.75390625,-0.845458984375
1.007,441,3147,2410,3147,12.0,30.0,17.0,73.8525390625,52.001949310302734,-26.672361373901367,-1.47119140625,1.834228515625,-0.651611328125
1.012,428,3147,2404,3147,12.0,30.0,17.0,-28.259275436401367,19.6533203125,-42.419429779052734,-2.3160400390625,0.500244140625,0.2889404296875
1.032,442,3147,2359,3147,12.0,30.0,17.0,-100.46385955810547,-4.0283203125,-44.067378997802734,-2.3160400390625,0.500244140625,0.2889404296875
1.037,440,3147,2381,3147,13.0,28.0,14.0,-112.79296112060547,-11.718749046325684,-28.259275436401367,-2.15185546875,0.0479736328125,0.5037841796875
1.038,446,3147,2190,3147,13.0,28.0,14.0,-84.16747283935547,-7.934569835662842,-8.1787109375,-1.4334716796875,-0.045654296875,0.675537109375
1.046,439,3147,2091,3079,13.0,28.0,14.0,-39.24560546875,0.4882812201976776,7.446288585662842,-1.4334716796875,-0.045654296875,0.675537109375
1.049,438,3147,1959,2662,13.0,28.0,14.0,7.446288585662842,10.803221702575684,23.986814498901367,-1.1805419921875,0.1058349609375,0.5587158203125
1.063,434,3147,1785,2001,13.0,28.0,14.0,40.344234466552734,22.827146530151367,39.794921875,-0.8184814453125,0.1676025390625,0.3309326171875
1.071,430,3147,1753,1716,13.0,28.0,14.0,46.020503997802734,31.005857467651367,39.61181640625,-0.4627685546875,0.119873046875,0.1573486328125
1.079,426,3147,1585,1357,13.0,28.0,14.0,30.273435592651367,30.761716842651367,18.5546875,-0.2559814453125,-0.0078125,0.0526123046875
1.101,409,3147,1323,694,13.0,28.0,14.0,13.854979515075684,26.733396530151367,-8.85009765625,-0.1876220703125,-0.09521484375,-0.0528564453125
1.102,405,3131,1262,537,13.0,28.0,14.0,12.878417015075684,25.268552780151367,-25.817869186401367,-0.142333984375,-0.0062255859375,-0.09375
1.109,401,2567,1188,523,13.0,28.0,14.0,20.568845748901367,23.925779342651367,-34.11865234375,-0.0948486328125,0.1409912109375,-0.027587890625
1.138,391,1704,1116,497,14.0,32.0,14.0,20.141599655151367,18.73779296875,-45.288082122802734,-0.23388671875,0.126220703125,-0.006103515625
1.139,388,1750,1143,508,14.0,32.0,14.0,13.183592796325684,16.11328125,-53.527828216552734,-0.5242919921875,0.04833984375,-0.091552734375
1.139,361,1528,1024,485,14.0,32.0,14.0,14.526366233825684,19.287109375,-46.081539154052734,-0.716796875,0.193359375,-0.1328125
1.166,375,1209,991,444,14.0,32.0,14.0,24.475095748901367,20.996091842651367,-29.113767623901367,-0.7806396484375,0.523193359375,-0.07421875
1.179,364,963,910,414,14.0,32.0,14.0,25.817869186401367,15.991209983825684,-15.258788108825684,-0.7816162109375,0.7197265625,-0.0164794921875
1.203,346,762,816,409,14.0,32.0,14.0,9.033203125,7.263183116912842,-8.72802734375,-0.75048828125,0.6102294921875,0.0224609375
1.212,348,661,813,391,14.0,32.0,14.0,-15.808104515075684,-0.4272460639476776,-7.873534679412842,-0.7095947265625,0.298095703125,0.113525390625
1.224,351,800,864,391,14.0,32.0,14.0,-32.958984375,-5.310058116912842,-10.070799827575684,-0.673828125,0.0,0.2501220703125
1.243,346,830,832,384,14.0,32.0,14.0,-34.60693359375,-7.141112804412842,-13.183592796325684,-0.68408203125,-0.1165771484375,0.3670654296875
1.273,347,882,853,369,11.0,30.0,16.0,-22.705076217651367,-6.042479991912842,-14.587401390075684,-0.763671875,-0.0234375,0.4393310546875
1.315,342,978,854,390,11.0,30.0,16.0,-4.82177734375,-3.173827886581421,-11.047362327575684,-0.8341064453125,0.142578125,0.4390869140625
1.323,348,1054,849,391,11.0,30.0,16.0,11.596678733825684,0.2441406100988388,-2.44140625,-0.826416015625,0.23974609375,0.36767578125
1.326,348,1348,757,402,11.0,30.0,16.0,21.850584030151367,3.295898199081421,7.568358898162842,-0.7666015625,0.2489013671875,0.28271484375
1.358,348,1650,793,404,11.0,30.0,16.0,24.902341842651367,5.0048828125,15.563963890075684,-0.7025146484375,0.2078857421875,0.2138671875
1.358,348,1828,778,409,11.0,30.0,16.0,23.498533248901367,4.94384765625,20.202634811401367,-0.6593017578125,0.1763916015625,0.154541015625
1.412,349,2293,765,409,11.0,30.0,16.0,20.629880905151367,2.868652105331421,23.010251998901367,-0.6217041015625,0.1839599609375,0.09716796875
1.417,348,2621,778,418,11.0,30.0,16.0,18.98193359375,-1.0986328125,25.024412155151367,-0.5902099609375,0.2191162109375,0.048828125
1.427,344,3141,763,404,11.0,30.0,16.0,18.00537109375,-5.920409679412842,27.343748092651367,-0.58740234375,0.2508544921875,0.024169921875
1.433,342,3147,849,913,11.0,30.0,16.0,13.610838890075684,-10.559081077575684,34.5458984375,-0.5682373046875,0.225830078125,0.0506591796875
1.453,344,3147,932,1366,11.0,28.0,19.0,6.469726085662842,-15.747069358825684,45.349117279052734,-0.528564453125,0.1900634765625,0.1397705078125
1.457,356,3147,1078,1852,11.0,28.0,19.0,2.868652105331421,-23.132322311401367,53.344722747802734,-0.490234375,0.18017578125,0.2379150390625
1.461,376,3147,1413,2473,11.0,28.0,19.0,7.141112804412842,-31.677244186401367,55.603023529052734,-0.346435546875,0.1103515625,0.2652587890625
1.465,388,3147,1652,2859,11.0,28.0,19.0,14.282225608825684,-37.90283203125,48.950191497802734,-0.0838623046875,0.0400390625,0.1751708984375
1.473,406,3147,1840,3147,11.0,28.0,19.0,12.573241233825684,-37.9638671875,35.09521484375,0.149658203125,0.1229248046875,0.063720703125
1.478,418,3147,1971,3147,11.0,28.0,19.0,-2.13623046875,-32.04345703125,22.094724655151367,0.251953125,0.2978515625,0.02587890625
1.482,426,3147,2035,3147,11.0,28.0,19.0,-18.61572265625,-24.108884811401367,3.234863042831421,0.0609130859375,0.2591552734375,-0.0767822265625
1.489,430,3147,2156,3147,11.0,28.0,19.0,-22.094724655151367,-18.06640625,-32.89794921875,-0.589599609375,-0.0360107421875,-0.2342529296875
1.513,434,3147,2391,3147,11.0,28.0,19.0,-14.709471702575684,-19.6533203125,-65.91796875,-1.429443359375,-0.057373046875,-0.02978515625
1.518,437,3147,2538,3147,11.0,28.0,19.0,-4.69970703125,-29.968259811401367,-62.499996185302734,-2.043212890625,0.671142578125,0.4683837890625
1.521,442,3147,2703,3147,13.0,28.0,10.0,2.197265625,-37.90283203125,-30.822751998901367,-2.334228515625,1.563720703125,0.681640625
1.526,454,3147,2769,3147,13.0,28.0,10.0,-10.925292015075684,-33.935546875,-5.859374523162842,-2.6331787109375,1.71826171875,0.68701171875
1.528,457,3147,2712,3147,13.0,28.0,10.0,-46.264644622802734,-23.986814498901367,6.530761241912842,-3.0120849609375,1.0328369140625,0.6993408203125
1.530,442,3147,2626,3147,13.0,28.0,10.0,-70.00732421875,-6.896972179412842,19.34814453125,-2.4747314453125,-0.3875732421875,0.687255859375
1.530,442,3147,2474,3147,13.0,28.0,10.0,-43.701168060302734,25.756834030151367,24.230955123901367,-1.2952880859375,-1.1495361328125,0.6590576171875
1.533,413,3147,2428,3147,13.0,28.0,10.0,33.63037109375,60.668941497802734,19.71435546875,-0.7535400390625,-0.1187744140625,0.2703857421875
1.534,433,3147,2465,3147,13.0,28.0,10.0,106.93358612060547,77.33154296875,12.023924827575684,-0.8546142578125,1.328125,-0.3516845703125
1.544,431,3147,2480,3147,13.0,28.0,10.0,103.94286346435547,69.15283203125,-4.57763671875,-1.40478515625,1.927001953125,-0.56884765625
1.545,438,3147,2430,3147,13.0,28.0,10.0,22.583005905151367,44.799800872802734,-21.423337936401367,-2.117431640625,1.6129150390625,-0.3265380859375
1.545,431,3147,2424,3147,13.0,28.0,10.0,-68.17626953125,22.705076217651367,-23.193357467651367,-2.4359130859375,0.782958984375,0.045654296875
1.545,437,3147,2368,3147,12.0,30.0,14.0,-110.65673065185547,12.878417015075684,-9.765625,-2.220458984375,0.1036376953125,0.321044921875
1.545,434,3147,2225,3147,12.0,30.0,14.0,-95.27587127685547,11.352538108825684,7.080077648162842,-1.7935791015625,-0.0738525390625,0.462646484375
1.545,430,3147,2068,3147,12.0,30.0,14.0,-49.316402435302734,12.573241233825684,20.01953125,-1.481201171875,0.0921630859375,0.480224609375
1.545,430,3147,1904,2955,12.0,30.0,14.0,-1.9531248807907104,18.12744140625,33.75244140625,-1.21875,0.251220703125,0.384033203125
1.556,423,3147,1652,2190,12.0,30.0,14.0,32.53173828125,28.076169967651367,45.776363372802734,-0.87890625,0.2015380859375,0.2291259765625
1.563,416,3147,1615,1800,12.0,30.0,14.0,45.104976654052734,34.3017578125,44.006343841552734,-0.550537109375,0.0400390625,0.068115234375
1.572,409,3147,1348,1318,12.0,30.0,14.0,41.931148529052734,30.151365280151367,22.705076217651367,-0.3001708984375,-0.095947265625,-0.0870361328125
1.586,391,3147,1241,527,12.0,30.0,14.0,41.931148529052734,19.10400390625,-10.314940452575684,-0.08251953125,-0.1934814453125,-0.2216796875
1.596,389,2630,1162,525,12.0,30.0,14.0,50.354000091552734,8.72802734375,-42.236324310302734,0.064453125,-0.209228515625,-0.2147216796875
1.615,383,1897,1104,512,12.0,30.0,14.0,53.771968841552734,-0.9155272841453552,-67.5048828125,-0.0325927734375,-0.0550537109375,-0.0616455078125
1.618,376,1115,980,465,14.0,28.0,16.0,47.851558685302734,-9.8876953125,-82.70262908935547,-0.3441162109375,0.1990966796875,-0.0289306640625
1.623,369,805,974,439,14.0,28.0,16.0,43.090816497802734,-11.047362327575684,-82.33641815185547,-0.657958984375,0.42333984375,-0.1619873046875
1.630,357,711,872,418,14.0,28.0,16.0,43.090816497802734,-11.047362327575684,-82.33641815185547,-0.8587646484375,0.628662109375,-0.1776123046875
1.647,334,603,707,369,14.0,28.0,16.0,40.710445404052734,2.807616949081421,-38.6962890625,-0.8768310546875,0.7802734375,-0.005126953125
1.652,328,537,582,354,14.0,28.0,16.0,35.09521484375,3.356933355331421,-19.47021484375,-0.7855224609375,0.7152099609375,0.1702880859375
1.664,327,497,614,347,14.0,28.0,16.0,35.09521484375,3.356933355331421,-19.47021484375,-0.6712646484375,0.390869140625,0.22216796875
1.676,323,512,700,344,14.0,28.0,16.0,1.0986328125,0.1220703050494194,-29.235837936401367,-0.58544921875,0.0401611328125,0.2174072265625
1.684,323,493,725,342,14.0,28.0,16.0,-6.652831554412842,-0.4882812201976776,-39.73388671875,-0.61376953125,-0.0943603515625,0.2694091796875
1.692,322,513,714,338,14.0,28.0,16.0,-6.652831554412842,-0.4882812201976776,-39.73388671875,-0.7083740234375,-0.0374755859375,0.337646484375
1.723,317,522,738,336,14.0,29.0,14.0,18.98193359375,-9.1552734375,-39.48974609375,-0.7862548828125,0.08056640625,0.3348388671875
1.724,316,508,761,334,14.0,29.0,14.0,37.109375,-7.873534679412842,-35.400390625,-0.854248046875,0.18798828125,0.2637939453125
1.730,316,509,802,334,14.0,29.0,14.0,37.109375,-7.873534679412842,-35.400390625,-0.8951416015625,0.2537841796875,0.191650390625
1.737,316,467,895,338,14.0,29.0,14.0,53.955074310302734,2.868652105331421,-14.892577171325684,-0.845947265625,0.2457275390625,0.16796875
1.753,318,481,946,337,14.0,29.0,14.0,49.987789154052734,3.967284917831421,-1.0986328125,-0.7286376953125,0.1739501953125,0.17236328125
1.757,318,533,996,344,14.0,29.0,14.0,49.987789154052734,3.967284917831421,-1.0986328125,-0.618408203125,0.103271484375,0.1575927734375
1.773,321,739,1097,345,14.0,29.0,14.0,26.306150436401367,1.9531248807907104,11.474608421325684,-0.5645751953125,0.0760498046875,0.10888671875
1.775,328,846,1031,354,14.0,29.0,14.0,15.197752952575684,0.3662109076976776,11.718749046325684,-0.5665283203125,0.080322265625,0.05029296875
1.782,331,991,989,369,14.0,29.0,14.0,15.197752952575684,0.3662109076976776,11.718749046325684,-0.6251220703125,0.0986328125,0.023681640625
1.796,334,1492,883,378,14.0,29.0,14.0,0.1831054538488388,-5.432128429412842,18.06640625,-0.7261962890625,0.1474609375,0.0389404296875
1.820,336,1935,838,400,10.0,28.0,18.0,-1.5258787870407104,-8.36181640625,27.343748092651367,-0.8060302734375,0.254150390625,0.0489501953125
1.821,337,2279,774,390,10.0,28.0,18.0,-1.5258787870407104,-8.36181640625,27.343748092651367,-0.8099365234375,0.31884765625,0.0653076171875
1.824,337,3130,725,408,10.0,28.0,18.0,-14.770506858825684,-14.770506858825684,45.471187591552734,-0.787353515625,0.2799072265625,0.1519775390625
1.834,334,3147,711,784,10.0,28.0,18.0,-10.742186546325684,-20.263669967651367,53.283687591552734,-0.7442626953125,0.27099609375,0.218505859375
1.840,334,3147,721,1283,10.0,28.0,18.0,-10.742186546325684,-20.263669967651367,53.283687591552734,-0.6285400390625,0.296630859375,0.2108154296875
1.856,344,3147,871,2172,10.0,28.0,18.0,17.63916015625,-37.90283203125,48.706050872802734,-0.431640625,0.1905517578125,0.21240234375
1.863,359,3147,1024,2554,10.0,28.0,18.0,17.63916015625,-37.90283203125,48.706050872802734,-0.13671875,-0.004150390625,0.1800537109375
1.877,371,3147,1271,3000,10.0,28.0,18.0,24.719236373901367,-49.560543060302734,34.24072265625,-0.13671875,-0.004150390625,0.1800537109375
1.885,400,3147,1603,3147,10.0,28.0,18.0,2.624511480331421,-58.898921966552734,4.94384765625,0.3616943359375,0.4503173828125,0.1302490234375
1.895,411,3147,1757,3147,10.0,28.0,18.0,2.624511480331421,-58.898921966552734,4.94384765625,0.177001953125,0.548828125,-0.0040283203125
1.903,424,3147,1907,3147,14.0,27.0,14.0,-42.907711029052734,-55.541988372802734,-8.544921875,0.177001953125,0.548828125,-0.0040283203125
1.922,437,3147,2053,3147,14.0,27.0,14.0,-103.39354705810547,-37.353515625,-61.706539154052734,-1.33642578125,-0.5882568359375,-0.4571533203125
1.924,441,3147,2260,3147,14.0,27.0,14.0,-103.39354705810547,-37.353515625,-61.706539154052734,-2.121337890625,-0.1868896484375,0.3411865234375
1.930,439,3147,2418,3147,14.0,27.0,14.0,-98.99901580810547,-31.616209030151367,-59.143062591552734,-2.121337890625,-0.1868896484375,0.3411865234375
1.955,455,3147,2811,3147,14.0,27.0,14.0,-32.77587890625,-33.50830078125,8.544921875,-2.4283447265625,1.4945068359375,1.129638671875
1.955,461,3147,2695,3147,14.0,27.0,14.0,-32.77587890625,-33.50830078125,8.544921875,-3.0823974609375,1.479248046875,0.8804931640625
1.960,444,3147,2569,3147,14.0,27.0,14.0,-29.907224655151367,-34.72900390625,11.535643577575684,-3.0823974609375,1.479248046875,0.8804931640625
1.981,455,3147,2430,3147,14.0,27.0,14.0,-40.832515716552734,8.48388671875,26.123044967651367,-1.224365234375,-0.6287841796875,0.759765625
1.983,454,3147,2430,3147,14.0,27.0,14.0,-40.832515716552734,8.48388671875,26.123044967651367,-0.451904296875,-0.033935546875,0.5224609375
1.991,447,3147,2464,3147,14.0,27.0,14.0,16.41845703125,45.227046966552734,13.916014671325684,-0.451904296875,-0.033935546875,0.5224609375
2.004,442,3147,2497,3147,14.0,28.0,16.0,92.46825408935547,54.260250091552734,-21.423337936401367,-1.4478759765625,1.434326171875,-0.7198486328125
2.024,445,3147,2503,3147,14.0,28.0,16.0,92.46825408935547,54.260250091552734,-21.423337936401367,-2.08984375,1.23583984375,-0.5047607421875
2.026,445,3147,2471,3147,14.0,28.0,16.0,19.04296875,34.48486328125,-32.2265625,-2.08984375,1.23583984375,-0.5047607421875
2.040,438,3147,2379,3147,14.0,28.0,16.0,-107.05565643310547,-1.3427733182907104,-22.521970748901367,-2.1104736328125,0.1607666015625,0.2369384765625
2.046,446,3147,2337,3147,14.0,28.0,16.0,-107.05565643310547,-1.3427733182907104,-22.521970748901367,-1.6431884765625,-0.061279296875,0.42822265625
2.061,438,3147,2257,3147,14.0,28.0,16.0,-97.10692596435547,-4.45556640625,-6.652831554412842,-1.6431884765625,-0.061279296875,0.42822265625
2.067,430,3147,2023,3092,14.0,28.0,16.0,-25.329587936401367,8.30078125,20.446775436401367,-1.13134765625,0.046142578125,0.6612548828125
2.072,427,3147,1914,2785,14.0,28.0,16.0,-25.329587936401367,8.30078125,20.446775436401367,-0.908935546875,0.0523681640625,0.5634765625
2.081,424,3147,1826,2392,14.0,28.0,16.0,7.995604991912842,23.071287155151367,39.36767578125,-0.908935546875,0.0523681640625,0.5634765625
2.095,418,3147,1662,2024,15.0,29.0,14.0,26.550291061401367,38.75732421875,53.894039154052734,-0.320556640625,-0.2591552734375,0.219482421875
2.102,414,3147,1526,1781,15.0,29.0,14.0,28.076169967651367,46.508785247802734,51.086421966552734,-0.320556640625,-0.2591552734375,0.219482421875
2.127,411,3147,1463,1415,15.0,29.0,14.0,27.893064498901367,44.250484466552734,29.785154342651367,-0.154296875,-0.287109375,0.0396728515625
2.128,404,3147,1336,661,15.0,29.0,14.0,34.24072265625,37.04833984375,2.929687261581421,-0.22705078125,0.3402099609375,-0.153564453125
2.133,398,3020,1264,531,15.0,29.0,14.0,39.36767578125,29.418943405151367,-16.357421875,-0.22705078125,0.3402099609375,-0.153564453125
2.141,388,2760,1213,505,15.0,29.0,14.0,31.860349655151367,19.8974609375,-29.174802780151367,-0.3099365234375,0.5357666015625,-0.15234375
2.160,382,2569,1137,484,15.0,29.0,14.0,9.46044921875,8.97216796875,-39.12353515625,-0.5416259765625,0.3802490234375,-0.0849609375
2.165,382,2551,1125,495,15.0,29.0,14.0,-11.779784202575684,2.50244140625,-42.968746185302734,-0.5416259765625,0.3802490234375,-0.0849609375
2.175,375,2440,1116,493,15.0,29.0,14.0,-16.11328125,2.0751953125,-39.61181640625,-0.7529296875,0.277099609375,-0.066162109375
2.186,373,2356,1108,473,15.0,29.0,14.0,-10.131834983825684,2.868652105331421,-29.235837936401367,-0.9678955078125,0.268798828125,0.041748046875
2.197,373,2325,1098,482,13.0,29.0,14.0,-8.1787109375,0.7934569716453552,-14.831542015075684,-0.9678955078125,0.268798828125,0.041748046875
2.203,372,2319,1108,481,13.0,29.0,14.0,-13.732909202575684,-4.57763671875,-5.676269054412842,-0.9005126953125,0.194091796875,0.0836181640625
2.230,371,2310,1111,462,13.0,29.0,14.0,-19.83642578125,-11.169432640075684,-4.94384765625,-0.8470458984375,0.05908203125,0.240234375
2.233,371,2293,1143,437,13.0,29.0,14.0,-18.6767578125,-16.6015625,-8.1787109375,-0.8470458984375,0.05908203125,0.240234375
2.235,371,2273,1129,464,13.0,29.0,14.0,-9.09423828125,-18.9208984375,-11.413573265075684,-0.8489990234375,0.1060791015625,0.2783203125
2.247,371,2235,1148,462,13.0,29.0,14.0,4.45556640625,-17.27294921875,-12.939452171325684,-0.8790283203125,0.2650146484375,0.2685546875
2.266,369,2215,1149,466,13.0,29.0,14.0,16.29638671875,-12.695311546325684,-11.230467796325684,-0.8790283203125,0.2650146484375,0.2685546875
2.269,364,2207,1129,466,13.0,29.0,14.0,22.216794967651367,-8.36181640625,-6.835937023162842,-0.8819580078125,0.3170166015625,0.29638671875
2.276,364,2317,1116,464,13.0,29.0,14.0,20.263669967651367,-6.652831554412842,-2.197265625,-0.7939453125,0.2254638671875,0.2940673828125
2.288,364,2357,1078,464,13.0,29.0,14.0,12.756346702575684,-7.141112804412842,1.4038084745407104,-0.7939453125,0.2254638671875,0.2940673828125
2.292,362,2407,1064,456,14.0,29.0,20.0,4.82177734375,-7.568358898162842,4.45556640625,-0.7481689453125,0.145751953125,0.2261962890625
2.307,361,2580,939,445,14.0,29.0,20.0,0.9155272841453552,-7.202147960662842,8.056640625,-0.739501953125,0.09765625,0.151611328125
2.331,361,2830,858,455,14.0,29.0,20.0,1.3427733182907104,-6.713866710662842,13.366698265075684,-0.754638671875,0.0797119140625,0.09130859375
2.334,351,2916,846,442,14.0,29.0,20.0,2.990722417831421,-6.835937023162842,21.362302780151367,-0.77685546875,0.0811767578125,0.058349609375
2.337,351,3147,784,517,14.0,29.0,20.0,3.845214605331421,-7.690429210662842,31.677244186401367,-0.7734375,0.067626953125,0.06640625
2.346,354,3147,777,834,14.0,29.0,20.0,5.737304210662842,-10.131834983825684,40.771480560302734,-0.7425537109375,0.0322265625,0.08349609375
2.353,356,3147,803,1323,14.0,29.0,20.0,8.72802734375,-13.427733421325684,47.729488372802734,-0.6851806640625,0.0328369140625,0.1026611328125
2.366,360,3147,1050,1997,14.0,29.0,20.0,10.192870140075684,-17.333984375,54.504390716552734,-0.5479736328125,0.088623046875,0.1688232421875
2.372,365,3147,1225,2492,14.0,29.0,20.0,12.268065452575684,-23.925779342651367,57.128902435302734,-0.30517578125,0.112060546875,0.280029296875
2.381,374,3147,1370,2850,14.0,29.0,20.0,16.78466796875,-32.8369140625,49.926753997802734,0.01513671875,0.055419921875,0.3492431640625
2.400,398,3147,1607,3147,11.0,28.0,14.0,19.34814453125,-37.90283203125,35.82763671875,0.342041015625,0.0667724609375,0.2733154296875
2.411,406,3147,1681,3147,11.0,28.0,14.0,16.66259765625,-33.5693359375,21.911619186401367,0.5400390625,0.3089599609375,0.1661376953125
2.414,405,3147,1801,3147,11.0,28.0,14.0,6.347655773162842,-26.367185592651367,4.39453125,0.433837890625,0.4627685546875,0.0352783203125
2.434,425,3147,2007,3147,11.0,28.0,14.0,-6.774901866912842,-24.108884811401367,-27.343748092651367,-0.066650390625,0.103759765625,-0.2298583984375
2.435,430,3147,2183,3147,11.0,28.0,14.0,-14.282225608825684,-28.015134811401367,-63.293453216552734,-0.865234375,-0.2919921875,-0.2579345703125
2.440,437,3147,2360,3147,11.0,28.0,14.0,-13.061522483825684,-35.0341796875,-69.88525390625,-1.6982421875,0.1947021484375,0.168212890625
2.454,456,3147,2887,3147,11.0,28.0,14.0,-3.051757574081421,-39.97802734375,-42.175289154052734,-2.1942138671875,1.2259521484375,0.5523681640625
2.491,456,3147,2965,3147,11.0,28.0,14.0,-4.5166015625,-42.053218841552734,-19.34814453125,-2.645751953125,1.8175048828125,0.887451171875
2.491,458,3147,2898,3147,11.0,28.0,14.0,-41.687007904052734,-51.086421966552734,-15.441893577575684,-3.369140625,1.7593994140625,0.8985595703125
2.494,457,3147,2808,3147,11.0,28.0,14.0,-83.92333221435547,-47.668453216552734,0.54931640625,-2.8995361328125,0.3248291015625,0.616943359375
2.504,431,3147,2754,3147,11.0,27.0,18.0,-76.171875,-8.72802734375,16.357421875,-1.10888671875,-1.2427978515625,0.912109375
2.542,457,3147,2718,3147,11.0,27.0,18.0,-3.356933355331421,39.85595703125,6.164550304412842,-0.2569580078125,-0.713134765625,0.8607177734375
2.543,456,3147,2736,3147,11.0,27.0,18.0,97.71727752685547,71.533203125,-11.901854515075684,-0.682861328125,0.71435546875,-0.0758056640625
2.543,454,3147,2748,3147,11.0,27.0,18.0,130.126953125,79.52880859375,-22.766111373901367,-1.3582763671875,1.3817138671875,-0.673095703125
2.544,454,3147,2734,3147,11.0,27.0,18.0,58.471675872802734,63.598628997802734,-27.954099655151367,-1.994384765625,1.2939453125,-0.4625244140625
2.544,447,3147,2679,3147,11.0,27.0,18.0,-38.26904296875,34.48486328125,-28.625486373901367,-2.398681640625,0.7960205078125,-0.009765625
2.574,452,3147,2530,3147,11.0,27.0,18.0,-94.66551971435547,12.573241233825684,-15.747069358825684,-2.3511962890625,0.2808837890625,0.252197265625
2.575,433,3147,2443,3147,11.0,27.0,18.0,-97.53417205810547,5.371093273162842,8.48388671875,-1.9400634765625,0.0701904296875,0.40087890625
2.575,442,3147,2247,3147,11.0,27.0,18.0,-69.76318359375,4.33349609375,29.846189498901367,-1.5086669921875,0.0174560546875,0.5648193359375
2.583,437,3147,1959,3147,15.0,29.0,17.0,-39.00146484375,5.0048828125,45.776363372802734,-1.1978759765625,-0.015625,0.6461181640625
2.592,432,3147,1831,3147,15.0,29.0,17.0,-4.39453125,11.657713890075684,58.532711029052734,-0.8623046875,0.0074462890625,0.5587158203125
2.601,427,3147,1746,2775,15.0,29.0,17.0,34.72900390625,22.583005905151367,57.678218841552734,-0.4732666015625,0.041748046875,0.3521728515625
2.639,419,3147,1550,2190,15.0,29.0,17.0,58.471675872802734,29.052732467651367,37.53662109375,-0.1553955078125,0.036376953125,0.1385498046875
2.640,409,3147,1400,1747,15.0,29.0,17.0,55.541988372802734,28.747556686401367,8.544921875,0.0413818359375,0.018310546875,-0.014404296875
2.640,382,3147,1383,1129,15.0,29.0,17.0,39.00146484375,26.123044967651367,-18.06640625,0.115966796875,0.0516357421875,-0.1126708984375
2.644,391,3147,1351,636,15.0,29.0,17.0,23.132322311401367,23.681638717651367,-37.53662109375,0.0419921875,0.173583984375,-0.1092529296875
2.656,390,3104,1317,518,15.0,29.0,17.0,8.544921875,19.775390625,-48.522945404052734,-0.1612548828125,0.3040771484375,-0.0230712890625
2.699,388,2943,1278,513,15.0,29.0,17.0,8.544921875,19.775390625,-48.522945404052734,-0.4207763671875,0.3853759765625,0.01171875
2.703,382,2622,1153,487,15.0,29.0,17.0,-7.873534679412842,14.160155296325684,-48.278804779052734,-0.6685791015625,0.448974609375,-0.03466796875
2.707,382,2571,1149,416,13.0,29.0,18.0,-6.408690929412842,15.686034202575684,-38.14697265625,-0.8663330078125,0.517333984375,-0.0399169921875
2.711,385,2186,1082,433,13.0,29.0,18.0,-11.535643577575684,15.258788108825684,-24.841306686401367,-0.9521484375,0.521728515625,0.0179443359375
2.715,375,2132,1074,403,13.0,29.0,18.0,-26.000974655151367,10.070799827575684,-16.05224609375,-0.9315185546875,0.376708984375,0.056396484375
2.719,364,2162,1043,437,13.0,29.0,18.0,-39.61181640625,1.6479490995407104,-16.4794921875,-0.9112548828125,0.14501953125,0.0780029296875
2.757,371,2012,1018,455,13.0,29.0,18.0,-42.480464935302734,-7.385253429412842,-21.240232467651367,-0.9310302734375,-0.032958984375,0.1278076171875
2.757,365,2110,1012,455,13.0,29.0,18.0,-33.5693359375,-15.136717796325684,-23.315427780151367,-0.9442138671875,-0.0888671875,0.182861328125
2.757,364,2184,971,437,13.0,29.0,18.0,-18.06640625,-19.775390625,-21.362302780151367,-0.9281005859375,-0.0650634765625,0.20654296875
2.758,364,2183,958,441,13.0,29.0,18.0,-2.25830078125,-20.01953125,-17.15087890625,-0.921875,-0.0098876953125,0.2254638671875
2.777,363,2180,918,440,13.0,29.0,18.0,10.559081077575684,-16.6015625,-11.413573265075684,-0.9378662109375,0.06591796875,0.2747802734375
2.782,361,2128,883,428,13.0,29.0,18.0,19.04296875,-12.084959983825684,-4.150390625,-0.9329833984375,0.1318359375,0.3341064453125
2.787,354,2162,842,406,14.0,27.0,14.0,22.827146530151367,-8.48388671875,3.601073980331421,-0.886474609375,0.158203125,0.3570556640625
2.794,359,2217,816,431,14.0,27.0,14.0,22.827146530151367,-8.48388671875,3.601073980331421,-0.8170166015625,0.153076171875,0.32568359375
2.808,357,2445,750,423,14.0,27.0,14.0,21.118162155151367,-3.356933355331421,18.24951171875,-0.7474365234375,0.1368408203125,0.26123046875
2.815,354,2599,747,428,14.0,27.0,14.0,19.6533203125,-1.2817381620407104,24.536130905151367,-0.6866455078125,0.115966796875,0.1907958984375
2.835,348,2749,750,430,14.0,27.0,14.0,19.6533203125,-1.2817381620407104,24.536130905151367,-0.674072265625,0.0986328125,0.1339111328125
2.852,344,3137,697,414,14.0,27.0,14.0,19.47021484375,-1.15966796875,39.48974609375,-0.6947021484375,0.0723876953125,0.101806640625
2.857,342,3147,702,571,14.0,27.0,14.0,20.01953125,-2.01416015625,53.527828216552734,-0.6822509765625,0.0452880859375,0.0914306640625
2.859,346,3147,728,963,14.0,27.0,14.0,20.01953125,-2.01416015625,53.527828216552734,-0.6221923828125,0.0487060546875,0.0914306640625
2.864,346,3147,835,1790,14.0,27.0,14.0,26.306150436401367,-6.896972179412842,75.68359375,-0.5185546875,0.0921630859375,0.1171875
2.878,359,3147,1108,2115,14.0,27.0,14.0,29.602048873901367,-13.671874046325684,77.33154296875,-0.408935546875,0.1951904296875,0.206298828125
2.880,352,3147,1387,2519,12.0,28.0,20.0,29.602048873901367,-13.671874046325684,77.33154296875,-0.246337890625,0.2880859375,0.319580078125
2.895,388,3147,1666,3147,12.0,28.0,20.0,32.28759765625,-31.005857467651367,62.194820404052734,0.0643310546875,0.2996826171875,0.3333740234375
2.913,401,3147,1882,3147,12.0,28.0,20.0,27.893064498901367,-33.99658203125,45.166011810302734,0.3887939453125,0.344970703125,0.2408447265625
2.917,389,3147,1981,3147,12.0,28.0,20.0,27.893064498901367,-33.99658203125,45.166011810302734,0.4716796875,0.43017578125,0.173828125
2.926,421,3147,2151,3147,12.0,28.0,20.0,-11.840819358825684,-27.587888717651367,-6.164550304412842,0.1651611328125,0.2613525390625,0.0869140625
2.952,427,3147,2242,3147,12.0,28.0,20.0,-23.437498092651367,-23.925779342651367,-51.086421966552734,-0.5272216796875,-0.1666259765625,-0.1090087890625
2.952,438,3147,2382,3147,12.0,28.0,20.0,-23.437498092651367,-23.925779342651367,-51.086421966552734,-1.365478515625,-0.2545166015625,-0.065673828125
2.961,454,3147,2701,3147,12.0,28.0,20.0,-0.9155272841453552,-21.301267623901367,-79.40673828125,-1.9779052734375,0.424560546875,0.3214111328125
2.962,458,3147,2886,3147,12.0,28.0,20.0,21.057126998901367,-22.155759811401367,-39.12353515625,-2.22412109375,1.3486328125,0.541748046875
2.976,466,3147,3070,3147,12.0,28.0,20.0,21.057126998901367,-22.155759811401367,-39.12353515625,-2.38818359375,1.68212890625,0.5455322265625
2.984,464,3147,3090,3147,14.0,28.0,16.0,5.859374523162842,-21.667478561401367,-8.36181640625,-2.9110107421875,1.372802734375,0.63916015625
2.993,466,3147,2984,3147,14.0,28.0,16.0,5.859374523162842,-21.667478561401367,-8.36181640625,-2.90576171875,0.40185546875,0.6077880859375
3.002,465,3147,2918,3147,14.0,28.0,16.0,-29.235837936401367,-22.521970748901367,-4.150390625,-2.90576171875,0.40185546875,0.6077880859375
3.014,462,3147,2809,3147,14.0,28.0,16.0,0.9765624403953552,34.48486328125,19.287109375,-0.6451416015625,-0.3609619140625,0.4423828125
3.022,461,3147,2832,3147,14.0,28.0,16.0,0.9765624403953552,34.48486328125,19.287109375,-0.6629638671875,0.592041015625,-0.0848388671875
3.053,462,3147,2884,3147,14.0,28.0,16.0,65.91796875,52.490230560302734,3.356933355331421,-0.6629638671875,0.592041015625,-0.0848388671875
3.054,456,3147,2851,3147,14.0,28.0,16.0,43.701168060302734,32.470703125,-32.3486328125,-2.170654296875,1.0758056640625,-0.392578125
3.055,455,3147,2827,3147,14.0,28.0,16.0,43.701168060302734,32.470703125,-32.3486328125,-2.6573486328125,0.714599609375,-0.058349609375
3.063,455,3147,2760,3147,14.0,28.0,16.0,-32.71484375,10.681151390075684,-32.1044921875,-2.6573486328125,0.714599609375,-0.058349609375
3.081,447,3147,2601,3147,12.0,29.0,18.0,-99.06005096435547,-3.417968511581421,15.258788108825684,-2.061767578125,0.258544921875,0.3468017578125
3.082,430,3147,2458,3147,12.0,29.0,18.0,-99.06005096435547,-3.417968511581421,15.258788108825684,-1.6060791015625,0.335205078125,0.478759765625
3.092,442,3147,2417,3147,12.0,29.0,18.0,-79.52880859375,4.8828125,39.4287109375,-1.6060791015625,0.335205078125,0.478759765625
3.104,437,3147,2180,2516,12.0,29.0,18.0,-22.949216842651367,26.733396530151367,68.84765625,-0.8135986328125,-0.0244140625,0.6295166015625
3.112,430,3147,2047,2115,12.0,29.0,18.0,-22.949216842651367,26.733396530151367,68.84765625,-0.287353515625,-0.4329833984375,0.479248046875
3.121,424,3147,1880,1497,12.0,29.0,18.0,4.94384765625,35.7666015625,66.0400390625,-0.287353515625,-0.4329833984375,0.479248046875
3.154,409,3130,1437,533,12.0,29.0,18.0,53.161617279052734,33.50830078125,18.37158203125,0.3551025390625,-0.3399658203125,-0.0054931640625
3.155,403,2821,1466,518,12.0,29.0,18.0,53.161617279052734,33.50830078125,18.37158203125,0.47900390625,0.0064697265625,-0.1195068359375
3.155,401,2561,1424,513,12.0,29.0,18.0,68.4814453125,24.780271530151367,-7.202147960662842,0.47900390625,0.0064697265625,-0.1195068359375
3.164,391,2576,1382,486,12.0,29.0,18.0,55.480953216552734,12.084959983825684,-46.264644622802734,0.073486328125,0.59619140625,-0.2091064453125
3.173,390,2713,1366,504,12.0,31.0,17.0,55.480953216552734,12.084959983825684,-46.264644622802734,-0.4290771484375,0.774658203125,-0.19384765625
3.187,388,2679,1334,497,12.0,31.0,17.0,34.912109375,11.718749046325684,-55.541988372802734,-0.4290771484375,0.774658203125,-0.19384765625
3.197,382,2507,1209,473,12.0,31.0,17.0,-18.06640625,5.371093273162842,-36.56005859375,-0.99365234375,0.8099365234375,0.0626220703125
3.206,378,2354,1185,473,12.0,31.0,17.0,-18.06640625,5.371093273162842,-36.56005859375,-0.9486083984375,0.5328369140625,0.0743408203125
3.211,373,2230,1213,468,12.0,31.0,17.0,-38.26904296875,-1.15966796875,-23.803709030151367,-0.9486083984375,0.5328369140625,0.0743408203125
3.226,375,2176,1131,447,12.0,31.0,17.0,-47.851558685302734,-4.69970703125,-19.47021484375,-0.88232421875,-0.051513671875,0.0767822265625
3.232,375,2272,1146,457,12.0,31.0,17.0,-50.476070404052734,-6.530761241912842,-19.775390625,-0.88232421875,-0.051513671875,0.0767822265625
3.263,371,2344,1160,462,12.0,31.0,17.0,-50.231929779052734,-10.192870140075684,-19.775390625,-0.92626953125,-0.1392822265625,0.1600341796875
3.263,371,2458,1231,465,12.0,31.0,17.0,-47.851558685302734,-14.648436546325684,-18.61572265625,-1.010498046875,0.0162353515625,0.2218017578125
3.264,370,2409,1253,464,12.0,31.0,17.0,-40.588375091552734,-16.66259765625,-16.2353515625,-1.010498046875,0.0162353515625,0.2218017578125
3.270,373,2382,1245,462,14.0,26.0,16.0,-26.977537155151367,-16.05224609375,-13.061522483825684,-1.0474853515625,0.16455078125,0.2626953125
3.289,372,2361,1302,445,14.0,26.0,16.0,-13.671874046325684,-15.319823265075684,-9.58251953125,-0.97802734375,0.2464599609375,0.382568359375
3.299,373,2364,1323,456,14.0,26.0,16.0,-7.324218273162842,-15.686034202575684,-5.493163585662842,-0.97802734375,0.2464599609375,0.382568359375
3.300,372,2430,1359,437,14.0,26.0,16.0,-5.371093273162842,-14.892577171325684,-0.6103515625,-0.8798828125,0.188232421875,0.3736572265625
3.316,375,2635,1404,458,14.0,26.0,16.0,-0.6103515625,-10.925292015075684,4.638671875,-0.748046875,0.160888671875,0.21630859375
3.323,378,2758,1380,473,14.0,26.0,16.0,7.019042491912842,-5.554198741912842,9.70458984375,-0.748046875,0.160888671875,0.21630859375
3.331,375,2884,1386,473,14.0,26.0,16.0,11.840819358825684,-1.8920897245407104,15.563963890075684,-0.769287109375,0.1790771484375,0.17626953125
3.354,376,3092,1340,473,14.0,26.0,16.0,11.596678733825684,-1.5258787870407104,24.353025436401367,-0.78125,0.1278076171875,0.16943359375
3.359,378,3147,1268,624,14.0,26.0,16.0,8.48388671875,-3.540038824081421,36.43798828125,-0.78125,0.1278076171875,0.16943359375
3.367,374,3147,1263,939,14.0,26.0,16.0,5.187987804412842,-6.652831554412842,48.828121185302734,-0.69091796875,0.013671875,0.142822265625
3.374,383,3147,1395,1782,9.0,28.0,14.0,3.417968511581421,-11.291502952575684,58.410640716552734,-0.421142578125,-0.0338134765625,0.130859375
3.388,387,3147,1500,2217,9.0,28.0,14.0,6.774901866912842,-17.88330078125,63.842769622802734,-0.421142578125,-0.0338134765625,0.130859375
3.392,389,3147,1569,2653,9.0,28.0,14.0,19.53125,-27.954099655151367,63.476558685302734,-0.2294921875,0.0455322265625,0.1978759765625
3.404,406,3147,1746,3147,9.0,28.0,14.0,38.51318359375,-40.527339935302734,56.274410247802734,0.3095703125,0.3018798828125,0.2052001953125
3.414,413,3147,1913,3147,9.0,28.0,14.0,56.457515716552734,-48.522945404052734,43.945308685302734,0.3095703125,0.3018798828125,0.2052001953125
3.420,423,3147,2076,3147,9.0,28.0,14.0,64.88037109375,-49.438472747802734,26.916501998901367,0.5235595703125,0.706298828125,0.212646484375
3.434,439,3147,2296,3147,9.0,28.0,14.0,50.109859466552734,-49.377437591552734,1.7089842557907104,0.5272216796875,1.0162353515625,0.16357421875
3.457,442,3147,2530,3147,9.0,28.0,14.0,13.183592796325684,-48.828121185302734,-37.841796875,0.080322265625,0.8448486328125,-0.1429443359375
3.458,454,3147,2698,3147,9.0,28.0,14.0,-23.864744186401367,-43.640132904052734,-84.53368377685547,-0.82763671875,0.3831787109375,-0.4371337890625
3.464,460,3147,3022,3147,13.0,26.0,18.0,-50.048824310302734,-40.710445404052734,-107.29979705810547,-1.7874755859375,0.08154296875,-0.245361328125
3.473,468,3147,3147,3147,13.0,26.0,18.0,-65.36865234375,-46.386714935302734,-86.18163299560547,-2.3201904296875,0.1739501953125,0.3182373046875
3.494,518,3147,3147,3147,13.0,26.0,18.0,-62.194820404052734,-53.344722747802734,-45.776363372802734,-2.3538818359375,0.5780029296875,0.7183837890625
3.495,579,3147,3147,3147,13.0,26.0,18.0,-43.945308685302734,-54.931636810302734,-23.193357467651367,-2.5123291015625,1.0458984375,0.948974609375
3.504,607,3147,3147,3147,13.0,26.0,18.0,-32.470703125,-59.082027435302734,-16.11328125,-3.11376953125,1.1431884765625,0.9102783203125
3.511,607,3147,3147,3147,13.0,26.0,18.0,-34.7900390625,-57.189937591552734,-4.94384765625,-2.7657470703125,0.18994140625,0.5830078125
3.524,589,3147,3147,3147,13.0,26.0,18.0,-33.38623046875,-32.71484375,-5.065917491912842,-1.2308349609375,-0.6944580078125,0.5743408203125
3.533,523,3147,3147,3147,13.0,26.0,18.0,-1.8920897245407104,1.4648436307907104,-22.094724655151367,-0.3150634765625,-0.138427734375,0.520263671875
3.544,497,3147,3147,3147,13.0,26.0,18.0,54.077144622802734,28.076169967651367,-40.466304779052734,-0.5399169921875,0.7574462890625,0.0662841796875
3.559,481,3147,3147,3147,13.0,26.0,18.0,67.19970703125,36.2548828125,-59.204097747802734,-1.281494140625,0.9044189453125,-0.1234130859375
3.566,475,3147,3147,3147,14.0,26.0,17.0,9.765625,22.583005905151367,-71.2890625,-2.0098876953125,0.63916015625,0.1865234375
3.590,470,3147,3147,3147,14.0,26.0,17.0,-53.710933685302734,1.03759765625,-67.5048828125,-2.4014892578125,0.4609375,0.5211181640625
3.597,470,3147,3133,3147,14.0,26.0,17.0,-74.21875,-9.70458984375,-49.194332122802734,-2.33203125,0.3642578125,0.6097412109375
3.600,465,3147,3044,3147,14.0,26.0,17.0,-67.93212890625,-7.019042491912842,-23.925779342651367,-1.9151611328125,0.2283935546875,0.650390625
3.601,468,3147,2943,3027,14.0,26.0,17.0,-54.992671966552734,-0.0610351525247097,-0.9765624403953552,-1.4556884765625,0.04150390625,0.77880859375
3.610,456,3147,2833,2599,14.0,26.0,17.0,-29.846189498901367,7.202147960662842,16.78466796875,-1.09228515625,-0.156494140625,0.850830078125
3.624,445,3147,2621,1779,14.0,26.0,17.0,9.82666015625,18.12744140625,33.50830078125,-0.736572265625,-0.3656005859375,0.7110595703125
3.637,441,3147,2437,1412,14.0,26.0,17.0,51.269527435302734,32.65380859375,47.851558685302734,-0.3909912109375,-0.512451171875,0.4320068359375
3.640,437,3147,2221,913,14.0,26.0,17.0,79.65087890625,44.616695404052734,54.748531341552734,-0.1390380859375,-0.4656982421875,0.1527099609375
3.662,423,3115,1891,533,14.0,26.0,17.0,91.00341033935547,50.048824310302734,50.354000091552734,-0.031005859375,-0.146484375,-0.0262451171875
3.662,411,2803,1774,531,14.0,26.0,20.0,89.78270721435547,49.316402435302734,33.935546875,-0.03955078125,0.3251953125,-0.1043701171875
3.669,406,2374,1686,512,14.0,26.0,20.0,79.16259765625,43.823238372802734,9.521484375,-0.08349609375,0.6826171875,-0.1484375
3.696,387,1890,1428,464,14.0,26.0,20.0,54.870601654052734,35.0341796875,-16.11328125,-0.140625,0.765380859375,-0.139892578125
3.701,383,1920,1264,430,14.0,26.0,20.0,14.648436546325684,24.841306686401367,-37.353515625,-0.244140625,0.59423828125,-0.0716552734375
3.704,376,1806,1151,442,14.0,26.0,20.0,-27.893064498901367,17.88330078125,-50.292964935302734,-0.4404296875,0.3612060546875,-0.0167236328125
3.715,365,1687,1034,424,14.0,26.0,20.0,-49.133296966552734,18.06640625,-51.330562591552734,-0.6898193359375,0.2293701171875,0.0211181640625
3.724,363,1729,922,418,14.0,26.0,20.0,-42.480464935302734,20.568845748901367,-42.114253997802734,-0.8856201171875,0.2049560546875,0.0843505859375
3.731,359,1650,853,406,14.0,26.0,20.0,-25.817869186401367,18.98193359375,-28.930662155151367,-0.9666748046875,0.2108154296875,0.12548828125
3.763,351,1487,753,385,14.0,26.0,20.0,-16.4794921875,13.549803733825684,-17.15087890625,-0.961181640625,0.20849609375,0.12158203125
3.764,324,1424,748,376,14.0,26.0,20.0,-18.85986328125,6.408690929412842,-8.97216796875,-0.923095703125,0.1741943359375,0.153564453125
3.765,345,1455,702,376,16.0,25.0,17.0,-29.846189498901367,-2.13623046875,-4.08935546875,-0.8677978515625,0.0654296875,0.2330322265625
3.773,338,1653,710,383,16.0,25.0,17.0,-40.344234466552734,-9.033203125,-1.15966796875,-0.8404541015625,-0.0557861328125,0.2923583984375
3.782,337,1681,661,378,16.0,25.0,17.0,-40.0390625,-10.375975608825684,2.01416015625,-0.8743896484375,-0.08056640625,0.309326171875
3.804,336,1746,606,378,16.0,25.0,17.0,-40.0390625,-10.375975608825684,2.01416015625,-0.92626953125,0.0054931640625,0.315673828125
3.804,334,1809,654,372,16.0,25.0,17.0,-11.169432640075684,-2.624511480331421,16.29638671875,-0.93359375,0.1102294921875,0.3511962890625
3.812,333,1899,667,376,16.0,25.0,17.0,0.1220703050494194,1.0986328125,24.658201217651367,-0.8812255859375,0.135009765625,0.390380859375
3.819,334,2074,694,377,16.0,25.0,17.0,0.1220703050494194,1.0986328125,24.658201217651367,-0.8192138671875,0.11376953125,0.3829345703125
3.834,334,2205,725,385,16.0,25.0,17.0,8.48388671875,9.6435546875,35.2783203125,-0.785888671875,0.1214599609375,0.334716796875
3.841,334,2361,673,390,16.0,25.0,17.0,10.070799827575684,12.878417015075684,39.0625,-0.775146484375,0.16015625,0.2698974609375
3.868,344,2507,702,390,16.0,25.0,17.0,10.070799827575684,12.878417015075684,39.0625,-0.767822265625,0.193603515625,0.1966552734375
3.868,346,2935,793,409,11.0,29.0,16.0,6.286620616912842,13.122557640075684,49.316402435302734,-0.7611083984375,0.201171875,0.136962890625
3.872,348,3137,853,420,11.0,29.0,16.0,2.868652105331421,12.145995140075684,55.358882904052734,-0.759521484375,0.1971435546875,0.1151123046875
3.880,351,3147,860,577,11.0,29.0,16.0,2.868652105331421,12.145995140075684,55.358882904052734,-0.744140625,0.1973876953125,0.1156005859375
3.905,355,3147,966,1206,11.0,29.0,16.0,-0.1831054538488388,9.6435546875,66.46728515625,-0.6751708984375,0.1822509765625,0.1104736328125
3.906,356,3147,1071,1689,11.0,29.0,16.0,1.3427733182907104,5.859374523162842,68.2373046875,-0.568115234375,0.1641845703125,0.122314453125
3.910,359,3147,1162,2172,11.0,29.0,16.0,1.3427733182907104,5.859374523162842,68.2373046875,-0.45703125,0.1776123046875,0.1893310546875
3.923,371,3147,1372,2884,11.0,29.0,16.0,5.249022960662842,-15.441893577575684,60.668941497802734,-0.2808837890625,0.2059326171875,0.2659912109375
3.932,376,3147,1469,3147,11.0,29.0,16.0,16.6015625,-26.733396530151367,49.560543060302734,0.0118408203125,0.2271728515625,0.2708740234375
3.940,385,3147,1634,3147,11.0,29.0,16.0,16.6015625,-26.733396530151367,49.560543060302734,0.3597412109375,0.2559814453125,0.1949462890625
3.954,407,3147,1867,3147,11.0,29.0,16.0,41.198726654052734,-31.372068405151367,4.94384765625,0.6002197265625,0.3734130859375,0.1185302734375
3.975,416,3147,2026,3147,14.0,28.0,19.0,19.22607421875,-26.977537155151367,-18.61572265625,0.5308837890625,0.488037109375,0.0755615234375
3.976,425,3147,2127,3147,14.0,28.0,19.0,19.22607421875,-26.977537155151367,-18.61572265625,0.0340576171875,0.4036865234375,-0.0738525390625
3.983,433,3147,2424,3147,14.0,28.0,19.0,-47.912593841552734,-13.793944358825684,-78.125,-0.8819580078125,0.2642822265625,-0.2205810546875
3.991,438,3147,2691,3147,14.0,28.0,19.0,-50.170894622802734,-18.310546875,-91.79686737060547,-2.0068359375,0.4522705078125,0.02880859375
4.007,455,3147,2951,3147,14.0,28.0,19.0,-50.170894622802734,-18.310546875,-91.79686737060547,-2.733642578125,0.89501953125,0.4996337890625
4.014,462,3147,3112,3147,14.0,28.0,19.0,-56.091304779052734,-43.640132904052734,-32.53173828125,-3.13330078125,1.2928466796875,0.9229736328125
4.022,458,3147,3137,3147,14.0,28.0,19.0,-56.091304779052734,-43.640132904052734,-32.53173828125,-3.486328125,1.2855224609375,0.859130859375
4.029,457,3147,3144,3147,14.0,28.0,19.0,-72.75390625,-45.043941497802734,3.967284917831421,-3.486328125,1.2855224609375,0.859130859375
4.043,458,3147,3028,3147,14.0,28.0,19.0,-61.645503997802734,5.920409679412842,43.518062591552734,-0.9661865234375,-1.637451171875,0.95751953125
4.052,454,3147,2877,3147,14.0,28.0,19.0,-61.645503997802734,5.920409679412842,43.518062591552734,-0.275634765625,-0.635009765625,0.7730712890625
4.078,455,3147,2785,3147,11.0,27.0,18.0,2.624511480331421,39.61181640625,22.216794967651367,-0.275634765625,-0.635009765625,0.7730712890625
4.078,455,3147,2789,3147,11.0,27.0,18.0,161.86521911621094,63.049312591552734,-27.282712936401367,-1.4168701171875,1.855712890625,-0.7159423828125
4.087,454,3147,2738,3147,11.0,27.0,18.0,161.86521911621094,63.049312591552734,-27.282712936401367,-2.060302734375,1.7010498046875,-0.34765625
4.089,444,3147,2631,3147,11.0,27.0,18.0,80.56639862060547,36.865234375,-39.55078125,-2.060302734375,1.7010498046875,-0.34765625
4.116,445,3147,2514,3147,11.0,27.0,18.0,-114.37987518310547,-9.21630859375,-28.930662155151367,-2.181640625,0.187255859375,0.54833984375
4.116,433,3147,2428,3147,11.0,27.0,18.0,-114.37987518310547,-9.21630859375,-28.930662155151367,-1.7652587890625,-0.00341796875,0.6973876953125
4.119,439,3147,2291,3147,11.0,27.0,18.0,-108.21532440185547,-5.493163585662842,-12.023924827575684,-1.7652587890625,-0.00341796875,0.6973876953125
4.135,430,3147,2053,3147,11.0,27.0,18.0,-21.667478561401367,4.39453125,0.3662109076976776,-1.11083984375,0.098876953125,0.6414794921875
4.141,428,3147,1931,2929,11.0,27.0,18.0,-21.667478561401367,4.39453125,0.3662109076976776,-0.908447265625,0.0928955078125,0.45849609375
4.149,424,3147,1782,2477,11.0,27.0,18.0,8.23974609375,9.94873046875,6.408690929412842,-0.908447265625,0.0928955078125,0.45849609375
4.174,411,3147,1569,1757,13.0,28.0,17.0,32.28759765625,27.954099655151367,17.08984375,-0.4205322265625,-0.0130615234375,0.079833984375
4.175,398,3147,1234,1267,13.0,28.0,17.0,32.28759765625,27.954099655151367,17.08984375,-0.162841796875,-0.194580078125,-0.0421142578125
4.180,383,3147,1078,735,13.0,28.0,17.0,28.442380905151367,33.50830078125,12.573241233825684,-0.162841796875,-0.194580078125,-0.0421142578125
4.207,372,3045,975,453,13.0,28.0,17.0,23.315427780151367,33.69140625,-15.869139671325684,0.0662841796875,-0.1973876953125,0.0679931640625
4.210,370,2647,853,439,13.0,28.0,17.0,23.315427780151367,33.69140625,-15.869139671325684,-0.0899658203125,0.1470947265625,0.219970703125
4.220,359,2340,725,414,13.0,28.0,17.0,31.494138717651367,27.587888717651367,-31.982419967651367,-0.0899658203125,0.1470947265625,0.219970703125
4.225,359,2041,714,411,13.0,28.0,17.0,35.15625,12.878417015075684,-64.453125,-0.571044921875,0.4078369140625,0.013916015625
4.232,356,1997,692,414,13.0,28.0,17.0,35.15625,12.878417015075684,-64.453125,-0.797119140625,0.3365478515625,-0.04541015625
4.242,351,1808,648,402,13.0,28.0,17.0,24.414060592651367,11.962889671325684,-61.584468841552734,-0.797119140625,0.3365478515625,-0.04541015625
4.255,346,1603,651,385,11.0,26.0,17.0,28.747556686401367,8.30078125,-6.835937023162842,-0.8546142578125,0.3502197265625,0.1741943359375
4.277,338,1596,697,383,11.0,26.0,17.0,28.747556686401367,8.30078125,-6.835937023162842,-0.7899169921875,0.336669921875,0.2183837890625
4.278,346,1695,754,371,11.0,26.0,17.0,38.14697265625,2.25830078125,11.352538108825684,-0.7899169921875,0.336669921875,0.2183837890625
4.284,346,1755,763,385,11.0,26.0,17.0,22.277830123901367,-6.896972179412842,10.070799827575684,-0.77490234375,0.069091796875,0.275146484375
4.292,344,1676,753,385,11.0,26.0,17.0,22.277830123901367,-6.896972179412842,10.070799827575684,-0.817138671875,0.0377197265625,0.3062744140625
4.316,344,1722,725,382,11.0,26.0,17.0,14.465331077575684,-6.347655773162842,5.859374523162842,-0.817138671875,0.0377197265625,0.3062744140625
4.316,342,1808,688,378,11.0,26.0,17.0,22.094724655151367,1.7700194120407104,8.9111328125,-0.9053955078125,0.162841796875,0.2689208984375
4.326,338,1864,679,384,11.0,26.0,17.0,22.094724655151367,1.7700194120407104,8.9111328125,-0.8717041015625,0.2216796875,0.239501953125
4.332,336,1935,651,382,11.0,26.0,17.0,28.930662155151367,5.737304210662842,14.953612327575684,-0.8717041015625,0.2216796875,0.239501953125
4.344,334,2155,607,378,11.0,26.0,17.0,29.418943405151367,7.385253429412842,18.73779296875,-0.7965087890625,0.2315673828125,0.17529296875
4.353,334,2303,631,373,12.0,27.0,18.0,29.418943405151367,7.385253429412842,18.73779296875,-0.7965087890625,0.2315673828125,0.17529296875
4.360,330,2494,630,376,12.0,27.0,18.0,21.667478561401367,6.042479991912842,17.76123046875,-0.7901611328125,0.235107421875,0.1268310546875
4.378,334,2703,657,375,12.0,27.0,18.0,10.375975608825684,3.906249761581421,17.15087890625,-0.79345703125,0.237060546875,0.0462646484375
4.383,333,2909,660,381,12.0,27.0,18.0,-5.0048828125,0.9765624403953552,16.05224609375,-0.79345703125,0.237060546875,0.0462646484375
4.392,332,3147,678,387,12.0,27.0,18.0,-17.76123046875,-2.01416015625,23.254392623901367,-0.8360595703125,0.1566162109375,0.0601806640625
4.412,334,3147,688,731,12.0,27.0,18.0,-17.08984375,-5.0048828125,40.344234466552734,-0.6455078125,0.0933837890625,0.0367431640625
4.415,326,3147,735,1039,12.0,27.0,18.0,-5.249022960662842,-8.36181640625,55.175777435302734,-0.6455078125,0.0933837890625,0.0367431640625
4.433,354,3147,973,1582,12.0,27.0,18.0,5.859374523162842,-12.023924827575684,62.683101654052734,-0.546142578125,0.1015625,0.0379638671875
4.434,360,3147,1209,1953,12.0,27.0,18.0,11.718749046325684,-15.014647483825684,66.162109375,-0.4830322265625,0.1136474609375,0.06884765625
4.444,379,3147,1584,2580,12.0,27.0,18.0,15.686034202575684,-16.4794921875,68.90869140625,-0.231201171875,0.1578369140625,0.1304931640625
4.452,398,3147,1705,3031,10.0,29.0,14.0,17.88330078125,-17.9443359375,69.39697265625,-0.231201171875,0.1578369140625,0.1304931640625
4.459,402,3147,1809,3147,10.0,29.0,14.0,10.192870140075684,-17.822265625,66.58935546875,-0.001953125,0.2418212890625,0.080322265625
4.480,411,3147,1892,3147,10.0,29.0,14.0,-9.58251953125,-13.305663108825684,62.255855560302734,0.241943359375,0.40478515625,0.0819091796875
4.482,414,3147,1961,3147,10.0,29.0,14.0,-30.639646530151367,-10.192870140075684,47.973628997802734,0.3856201171875,0.4163818359375,0.20947265625
4.489,423,3147,2058,3147,10.0,29.0,14.0,-41.748043060302734,-15.563963890075684,7.507323741912842,0.1358642578125,0.1920166015625,0.3148193359375
4.503,430,3147,2306,3147,10.0,29.0,14.0,-40.161128997802734,-25.085447311401367,-50.476070404052734,-0.5367431640625,0.083740234375,0.3240966796875
4.514,431,3147,2512,3147,10.0,29.0,14.0,-24.047849655151367,-32.89794921875,-90.51512908935547,-1.3714599609375,0.4638671875,0.3912353515625
4.519,439,3147,2790,3147,10.0,29.0,14.0,-5.676269054412842,-39.36767578125,-88.07372283935547,-2.0159912109375,1.1190185546875,0.479248046875
4.545,454,3147,3000,3147,10.0,29.0,14.0,-5.981444835662842,-41.625972747802734,-56.579586029052734,-2.320068359375,1.3076171875,0.44970703125
4.546,455,3147,2951,3147,10.0,29.0,14.0,-24.780271530151367,-39.0625,-28.076169967651367,-2.877197265625,1.1539306640625,0.5313720703125
4.550,452,3147,2870,3147,13.0,30.0,15.0,-44.677730560302734,-36.80419921875,2.929687261581421,-3.382568359375,0.7269287109375,0.500732421875
4.563,455,3147,2749,3147,13.0,30.0,15.0,-40.161128997802734,-18.61572265625,39.794921875,-2.4486083984375,-0.5325927734375,0.5455322265625
4.586,455,3147,2626,3147,13.0,30.0,15.0,-12.268065452575684,14.892577171325684,46.386714935302734,-0.873046875,-0.981689453125,0.8536376953125
4.586,418,3147,2503,3147,13.0,30.0,15.0,40.710445404052734,40.10009765625,18.49365234375,-0.329833984375,0.2542724609375,0.531005859375
4.593,445,3147,2507,3147,13.0,30.0,15.0,98.14452362060547,53.222652435302734,-18.12744140625,-0.7462158203125,1.3951416015625,-0.2724609375
4.601,447,3147,2445,3147,13.0,30.0,15.0,81.05467987060547,52.001949310302734,-44.494625091552734,-1.4808349609375,1.634765625,-0.5
4.618,444,3147,2334,3147,13.0,30.0,15.0,-9.09423828125,35.400390625,-53.344722747802734,-2.1158447265625,1.2174072265625,-0.0843505859375
4.623,440,3147,2202,3147,13.0,30.0,15.0,-89.72167205810547,15.991209983825684,-45.043941497802734,-2.35791015625,0.58447265625,0.3060302734375
4.634,434,3147,2139,3147,13.0,30.0,15.0,-111.02294158935547,7.385253429412842,-23.010251998901367,-2.093505859375,0.1893310546875,0.4940185546875
4.651,437,3147,2047,3147,13.0,30.0,15.0,-83.74022674560547,8.1787109375,-0.6103515625,-1.5970458984375,0.05615234375,0.582763671875
4.653,424,3147,1800,3147,14.0,30.0,16.0,-44.311519622802734,11.535643577575684,12.878417015075684,-1.253662109375,0.003662109375,0.6002197265625
4.663,424,3147,1713,3147,14.0,30.0,16.0,-8.9111328125,15.502928733825684,22.094724655151367,-1.0325927734375,-0.040283203125,0.52490234375
4.687,418,3147,1662,3070,14.0,30.0,16.0,23.315427780151367,21.728513717651367,29.357908248901367,-0.74853515625,-0.0579833984375,0.3719482421875
4.687,409,3147,1548,2213,14.0,30.0,16.0,44.616695404052734,29.418943405151367,26.062009811401367,-0.4859619140625,0.0531005859375,0.1947021484375
4.692,414,3147,1545,1560,14.0,30.0,16.0,46.874996185302734,34.72900390625,10.498045921325684,-0.3681640625,0.2781982421875,0.0220947265625
4.700,401,3147,1365,1050,14.0,30.0,16.0,33.99658203125,35.7666015625,-8.72802734375,-0.34228515625,0.4052734375,-0.1407470703125
4.724,376,2904,1239,465,14.0,30.0,16.0,17.39501953125,34.11865234375,-24.414060592651367,-0.322021484375,0.35986328125,-0.272216796875
4.724,371,2254,1257,411,14.0,30.0,16.0,8.11767578125,31.677244186401367,-36.1328125,-0.30712890625,0.3018798828125,-0.260986328125
4.734,369,1669,1236,434,14.0,30.0,16.0,3.112792730331421,26.062009811401367,-46.203609466552734,-0.3111572265625,0.220703125,-0.0726318359375
4.769,360,1243,1184,402,9.0,28.0,13.0,-4.69970703125,16.4794921875,-57.250972747802734,-0.3934326171875,0.070556640625,0.0816650390625
4.769,352,963,1098,381,9.0,28.0,13.0,-7.629394054412842,9.09423828125,-65.73486328125,-0.5899658203125,-0.0133056640625,0.0513916015625
4.769,346,562,1026,376,9.0,28.0,13.0,4.0283203125,7.934569835662842,-62.683101654052734,-0.775390625,0.00830078125,0.0216064453125
4.791,332,549,753,361,9.0,28.0,13.0,22.949216842651367,6.958007335662842,-49.194332122802734,-0.820068359375,0.1143798828125,0.1268310546875
4.792,330,526,757,352,9.0,28.0,13.0,37.59765625,0.9155272841453552,-34.72900390625,-0.747314453125,0.2713623046875,0.2169189453125
4.792,324,510,757,342,9.0,28.0,13.0,41.931148529052734,-8.48388671875,-26.428220748901367,-0.6829833984375,0.3846435546875,0.22509765625
4.808,326,465,853,344,9.0,28.0,13.0,33.75244140625,-17.39501953125,-24.291990280151367,-0.675537109375,0.3653564453125,0.23828125
4.827,328,487,860,347,9.0,28.0,13.0,19.775390625,-22.216794967651367,-25.817869186401367,-0.6923828125,0.24658203125,0.2806396484375
4.827,306,482,874,348,9.0,28.0,13.0,10.070799827575684,-20.996091842651367,-28.503416061401367,-0.7255859375,0.12548828125,0.328369140625
4.839,330,656,1045,356,9.0,28.0,13.0,8.7890625,-15.319823265075684,-27.404783248901367,-0.7498779296875,0.0567626953125,0.3709716796875
4.846,330,691,1045,357,14.0,29.0,18.0,12.634276390075684,-8.36181640625,-20.263669967651367,-0.746337890625,0.073974609375,0.3941650390625
4.863,332,751,1047,364,14.0,29.0,18.0,15.075682640075684,-2.44140625,-10.192870140075684,-0.747802734375,0.156982421875,0.37548828125
4.867,332,1123,1079,371,14.0,29.0,18.0,12.023924827575684,1.4648436307907104,-0.6713866591453552,-0.7607421875,0.2093505859375,0.305908203125
4.893,336,1341,1093,383,14.0,29.0,18.0,4.57763671875,2.868652105331421,7.019042491912842,-0.769287109375,0.177490234375,0.2093505859375
4.893,323,1428,1031,377,14.0,29.0,18.0,-3.234863042831421,1.9531248807907104,13.916014671325684,-0.779052734375,0.1170654296875,0.1241455078125
4.899,344,2017,1010,402,14.0,29.0,18.0,-8.11767578125,-1.03759765625,20.751951217651367,-0.796875,0.0992431640625,0.0623779296875
4.907,347,2254,1003,401,14.0,29.0,18.0,-9.94873046875,-5.737304210662842,26.916501998901367,-0.81884765625,0.1339111328125,0.0072021484375
4.913,348,2478,1050,414,14.0,29.0,18.0,-12.145995140075684,-11.291502952575684,32.71484375,-0.8408203125,0.1959228515625,-0.0260009765625
4.929,352,3147,1131,424,14.0,29.0,18.0,-18.85986328125,-17.63916015625,39.0625,-0.838134765625,0.2342529296875,-0.010498046875
4.933,359,3147,1172,832,14.0,29.0,18.0,-29.357908248901367,-24.963376998901367,46.020503997802734,-0.782958984375,0.176025390625,0.0428466796875
4.940,359,3147,1306,1380,12.0,25.0,18.0,-37.841796875,-32.2265625,52.856441497802734,-0.6517333984375,0.0020751953125,0.114501953125
4.954,369,3147,1487,2299,12.0,25.0,18.0,-38.0859375,-36.56005859375,58.471675872802734,-0.444091796875,-0.1522216796875,0.2093505859375
4.968,376,3147,1593,2633,12.0,25.0,18.0,-27.343748092651367,-35.33935546875,60.485836029052734,-0.193115234375,-0.0989990234375,0.308349609375
4.971,387,3147,1684,3010,12.0,25.0,18.0,-9.46044921875,-29.235837936401367,55.908199310302734,0.074462890625,0.1602783203125,0.3135986328125
4.994,401,3147,1900,3147,12.0,25.0,18.0,2.807616949081421,-22.216794967651367,42.846675872802734,0.317626953125,0.4359130859375,0.1575927734375
4.994,409,3147,1978,3147,12.0,25.0,18.0,-4.08935546875,-19.4091796875,20.507810592651367,0.3804931640625,0.5137939453125,-0.0496826171875
5.000,416,3147,2037,3147,12.0,25.0,18.0,-26.672361373901367,-23.986814498901367,-11.962889671325684,0.07568359375,0.25830078125,-0.2115478515625
5.014,430,3147,2280,3147,12.0,25.0,18.0,-45.227046966552734,-32.8369140625,-46.752925872802734,-0.6351318359375,-0.1019287109375,-0.22265625
5.027,430,3147,2484,3147,12.0,25.0,18.0,-40.344234466552734,-41.076656341552734,-62.499996185302734,-1.5015869140625,0.1741943359375,0.045654296875
5.030,437,3147,2657,3147,12.0,25.0,18.0,-16.78466796875,-50.903316497802734,-52.551265716552734,-2.08935546875,1.1361083984375,0.412109375
5.045,456,3147,3000,3147,15.0,25.0,12.0,-17.7001953125,-62.622066497802734,-39.6728515625,-2.335693359375,1.60546875,0.637451171875
5.053,457,3147,3048,3147,15.0,25.0,12.0,-59.326168060302734,-73.3642578125,-37.29248046875,-2.905029296875,1.3563232421875,0.898681640625
5.063,456,3147,3008,3147,15.0,25.0,12.0,-59.326168060302734,-73.3642578125,-37.29248046875,-3.3062744140625,0.572265625,0.7366943359375
5.074,455,3147,2981,3147,15.0,25.0,12.0,-88.13475799560547,-64.51416015625,1.2817381620407104,-2.3519287109375,-0.8746337890625,0.5382080078125
5.102,457,3147,2901,3147,15.0,25.0,12.0,-24.353025436401367,-32.77587890625,-2.50244140625,-0.8602294921875,-1.2557373046875,0.953857421875
5.102,454,3147,2785,3147,15.0,25.0,12.0,-24.353025436401367,-32.77587890625,-2.50244140625,-0.3184814453125,-0.017578125,0.8607177734375
5.104,455,3147,2823,3147,15.0,25.0,12.0,124.69481658935547,31.677244186401367,-31.555173873901367,-0.898681640625,1.2562255859375,0.17041015625
5.113,444,3147,2833,3147,15.0,25.0,12.0,102.17284393310547,45.166011810302734,-45.288082122802734,-1.8118896484375,1.625244140625,-0.0848388671875
5.133,445,3147,2795,3147,15.0,25.0,12.0,102.17284393310547,45.166011810302734,-45.288082122802734,-2.394775390625,1.1793212890625,0.151123046875
5.136,445,3147,2711,3147,15.0,26.0,18.0,-76.47705078125,23.681638717651367,-31.555173873901367,-2.33984375,0.553466796875,0.3746337890625
5.145,444,3147,2677,3147,15.0,26.0,18.0,-106.14012908935547,18.37158203125,-15.930174827575684,-1.8321533203125,0.0777587890625,0.52392578125
5.165,441,3147,2665,3143,15.0,26.0,18.0,-106.14012908935547,18.37158203125,-15.930174827575684,-1.3902587890625,-0.1605224609375,0.674072265625
5.168,438,3147,2530,2314,15.0,26.0,18.0,-53.222652435302734,22.949216842651367,1.9531248807907104,-1.161376953125,-0.204345703125,0.76416015625
5.198,442,3147,2435,1806,15.0,26.0,18.0,-12.817381858825684,32.470703125,19.4091796875,-0.963134765625,-0.166259765625,0.7275390625
5.198,430,3147,2379,1069,15.0,26.0,18.0,-12.817381858825684,32.470703125,19.4091796875,-0.70263671875,-0.1446533203125,0.5758056640625
5.199,419,2559,2141,523,15.0,26.0,18.0,42.480464935302734,60.363765716552734,49.865718841552734,-0.462158203125,-0.1732177734375,0.342041015625
5.202,411,2435,1970,521,15.0,26.0,18.0,41.625972747802734,67.81005859375,44.128414154052734,-0.29296875,-0.218017578125,0.1004638671875
5.215,401,2014,1807,504,15.0,26.0,18.0,41.625972747802734,67.81005859375,44.128414154052734,-0.194580078125,-0.182373046875,-0.0411376953125
5.236,383,1369,1634,466,15.0,26.0,18.0,27.770994186401367,57.373043060302734,-6.286620616912842,-0.1739501953125,-0.0301513671875,-0.072998046875
5.237,376,1031,1552,447,16.0,28.0,12.0,30.395505905151367,46.081539154052734,-26.123044967651367,-0.193115234375,0.149169921875,-0.0435791015625
5.243,370,963,1490,433,16.0,28.0,12.0,30.395505905151367,46.081539154052734,-26.123044967651367,-0.2469482421875,0.207275390625,0.004150390625
5.254,359,698,1292,406,16.0,28.0,12.0,41.931148529052734,31.799314498901367,-43.212886810302734,-0.392822265625,0.17626953125,-0.0057373046875
5.263,349,725,1206,400,16.0,28.0,12.0,41.931148529052734,31.799314498901367,-43.212886810302734,-0.5897216796875,0.2220458984375,-0.0665283203125
5.270,342,575,1148,383,16.0,28.0,12.0,42.968746185302734,28.503416061401367,-44.677730560302734,-0.5897216796875,0.2220458984375,-0.0665283203125
5.304,334,519,1095,364,16.0,28.0,12.0,46.203609466552734,22.521970748901367,-18.06640625,-0.7537841796875,0.439453125,0.0364990234375
5.305,334,533,1078,365,16.0,28.0,12.0,46.203609466552734,22.521970748901367,-18.06640625,-0.7816162109375,0.3817138671875,0.160400390625
5.305,334,582,1037,371,16.0,28.0,12.0,43.579097747802734,15.686034202575684,-4.94384765625,-0.7816162109375,0.3817138671875,0.160400390625
5.314,333,567,1057,361,16.0,28.0,12.0,30.883787155151367,5.737304210662842,6.103515148162842,-0.7852783203125,0.111083984375,0.2745361328125
5.338,334,603,1009,369,16.0,28.0,12.0,30.883787155151367,5.737304210662842,6.103515148162842,-0.7637939453125,0.0604248046875,0.28564453125
5.342,336,749,1011,375,14.0,25.0,13.0,36.68212890625,2.868652105331421,5.249022960662842,-0.7637939453125,0.0604248046875,0.28564453125
5.346,336,1010,987,378,14.0,25.0,13.0,57.495113372802734,-2.197265625,1.5258787870407104,-0.7574462890625,0.1671142578125,0.28857421875
5.353,334,1131,1009,381,14.0,25.0,13.0,57.495113372802734,-2.197265625,1.5258787870407104,-0.7967529296875,0.240478515625,0.2677001953125
5.363,333,1302,1037,385,14.0,25.0,13.0,60.852046966552734,-4.21142578125,2.746581792831421,-0.7967529296875,0.240478515625,0.2677001953125
5.375,336,1488,980,384,14.0,25.0,13.0,51.391597747802734,-6.286620616912842,7.812499523162842,-0.80419921875,0.265869140625,0.177734375
5.407,336,1757,958,400,14.0,25.0,13.0,51.391597747802734,-6.286620616912842,7.812499523162842,-0.803466796875,0.2686767578125,0.135986328125
5.410,336,1840,951,401,14.0,25.0,13.0,39.36767578125,-5.249022960662842,9.82666015625,-0.803466796875,0.2686767578125,0.135986328125
5.413,328,2035,944,388,14.0,25.0,13.0,2.563476324081421,-4.150390625,17.27294921875,-0.843994140625,0.2288818359375,0.0655517578125
5.417,336,2392,860,390,14.0,25.0,13.0,2.563476324081421,-4.150390625,17.27294921875,-0.8624267578125,0.10302734375,0.0648193359375
5.424,330,2727,826,404,14.0,25.0,13.0,-16.05224609375,-5.615233898162842,25.085447311401367,-0.8624267578125,0.10302734375,0.0648193359375
5.440,334,3147,944,413,14.0,25.0,15.0,-27.587888717651367,-7.629394054412842,38.2080078125,-0.8602294921875,-0.0748291015625,0.095703125
5.443,338,3147,1107,1055,14.0,25.0,15.0,-23.803709030151367,-9.521484375,54.199214935302734,-0.654541015625,-0.2213134765625,0.056396484375
5.456,346,3147,1160,1543,14.0,25.0,15.0,-7.629394054412842,-10.681151390075684,67.07763671875,-0.654541015625,-0.2213134765625,0.056396484375
5.462,347,3147,1217,1974,14.0,25.0,15.0,7.080077648162842,-11.413573265075684,73.6083984375,-0.45458984375,-0.0888671875,-0.0152587890625
5.474,359,3147,1201,2695,14.0,25.0,15.0,12.268065452575684,-11.718749046325684,74.15771484375,0.0023193359375,0.5040283203125,-0.0491943359375
5.482,369,3147,1228,3087,14.0,25.0,15.0,7.385253429412842,-10.375975608825684,68.7255859375,0.0023193359375,0.5040283203125,-0.0491943359375
5.512,373,3147,1319,3147,14.0,25.0,15.0,-8.11767578125,-6.713866710662842,57.922359466552734,0.1357421875,0.7545166015625,-0.0521240234375
5.512,385,3147,1449,3147,14.0,25.0,15.0,-30.639646530151367,-7.019042491912842,41.442867279052734,-0.03466796875,0.4658203125,-0.107666015625
5.513,400,3147,1595,3147,14.0,25.0,15.0,-56.030269622802734,-18.798828125,16.05224609375,-0.03466796875,0.4658203125,-0.107666015625
5.520,408,3147,1705,3147,14.0,25.0,15.0,-78.2470703125,-36.376953125,-15.930174827575684,-0.5667724609375,-0.0831298828125,-0.11767578125
5.538,416,3147,1971,3147,12.0,25.0,21.0,-79.9560546875,-52.001949310302734,-36.68212890625,-1.539306640625,0.4893798828125,0.30908203125
5.542,424,3147,2128,3147,12.0,25.0,21.0,-48.461910247802734,-66.7724609375,-37.29248046875,-1.539306640625,0.4893798828125,0.30908203125
5.553,437,3147,2361,3147,12.0,25.0,21.0,-15.380858421325684,-79.7119140625,-29.602048873901367,-1.6912841796875,1.3187255859375,0.487060546875
5.563,437,3147,2593,3147,12.0,25.0,21.0,-26.245115280151367,-84.53368377685547,-22.094724655151367,-2.9627685546875,1.0616455078125,1.00732421875
5.571,438,3147,2587,3147,12.0,25.0,21.0,-68.78662109375,-85.63231658935547,-9.3994140625,-2.9627685546875,1.0616455078125,1.00732421875
5.580,437,3147,2544,3147,12.0,25.0,21.0,-97.16796112060547,-77.63671875,16.2353515625,-3.3192138671875,-0.029541015625,0.9178466796875
5.615,433,3147,2350,3147,12.0,25.0,21.0,-80.38329315185547,-46.752925872802734,26.428220748901367,-2.308837890625,-1.0045166015625,0.8482666015625
5.616,431,3147,2286,3147,12.0,25.0,21.0,-16.11328125,-11.352538108825684,-1.4648436307907104,-0.8885498046875,-0.418701171875,0.7965087890625
5.616,430,3147,2231,3147,12.0,25.0,21.0,61.584468841552734,16.357421875,-39.85595703125,-0.296142578125,0.86572265625,0.3382568359375
5.624,430,3147,2271,3147,14.0,24.0,15.0,88.92821502685547,35.888671875,-63.476558685302734,-0.7493896484375,1.5228271484375,-0.0816650390625
5.640,430,3147,2261,3147,14.0,24.0,15.0,39.97802734375,34.7900390625,-69.9462890625,-1.7420654296875,1.3736572265625,-0.06591796875
5.650,428,3147,2275,3147,14.0,24.0,15.0,-32.28759765625,19.1650390625,-61.950679779052734,-2.4974365234375,0.8779296875,0.203369140625
5.666,428,3147,2287,3147,14.0,24.0,15.0,-71.1669921875,6.774901866912842,-42.419429779052734,-2.5059814453125,0.434814453125,0.4281005859375
5.669,428,3147,2243,3147,14.0,24.0,15.0,-72.998046875,6.469726085662842,-19.22607421875,-1.992431640625,0.0462646484375,0.5618896484375
5.672,410,3147,2133,2840,14.0,24.0,15.0,-54.443355560302734,16.6015625,3.356933355331421,-1.4759521484375,-0.302734375,0.6802978515625
5.684,416,3147,1931,2076,14.0,24.0,15.0,-19.95849609375,30.822751998901367,29.479978561401367,-1.1929931640625,-0.4520263671875,0.7855224609375
5.691,416,3147,1785,1472,14.0,24.0,15.0,23.193357467651367,47.485347747802734,61.035152435302734,-1.013916015625,-0.3985595703125,0.7703857421875
5.715,406,3147,1610,916,14.0,24.0,15.0,53.649898529052734,65.185546875,84.71678924560547,-0.78515625,-0.267578125,0.5682373046875
5.715,371,2777,1151,447,14.0,24.0,15.0,56.152339935302734,77.63671875,84.71678924560547,-0.447021484375,-0.1982421875,0.2657470703125
5.723,361,2183,1026,442,10.0,28.0,15.0,40.466304779052734,81.42089080810547,59.631343841552734,-0.0489501953125,-0.2332763671875,0.0516357421875
5.730,349,1806,975,418,10.0,28.0,15.0,28.259275436401367,76.7822265625,18.6767578125,0.157470703125,-0.191162109375,-0.0035400390625
5.746,338,879,813,382,10.0,28.0,15.0,29.418943405151367,65.36865234375,-19.47021484375,0.0078125,-0.0037841796875,0.0107421875
5.753,330,525,587,360,10.0,28.0,15.0,38.6962890625,50.476070404052734,-39.306640625,-0.305908203125,0.133056640625,-0.00537109375
5.764,316,430,359,332,10.0,28.0,15.0,49.560543060302734,37.53662109375,-42.236324310302734,-0.5098876953125,0.1478271484375,-0.0882568359375
5.777,310,465,332,324,10.0,28.0,15.0,61.523433685302734,32.04345703125,-32.77587890625,-0.527587890625,0.215087890625,-0.1993408203125
5.781,311,512,332,328,10.0,28.0,15.0,77.33154296875,33.26416015625,-12.390135765075684,-0.5167236328125,0.3817138671875,-0.2476806640625
5.790,312,523,327,328,10.0,28.0,15.0,92.89550018310547,33.69140625,0.4272460639476776,-0.6370849609375,0.5533447265625,-0.213134765625
5.819,310,535,328,328,10.0,28.0,15.0,89.11132049560547,27.954099655151367,-14.221190452575684,-0.6925048828125,0.581298828125,-0.1646728515625
5.820,308,473,334,328,10.0,28.0,15.0,63.781734466552734,21.484373092651367,-33.935546875,-0.6741943359375,0.508544921875,-0.0501708984375
5.820,310,465,371,328,10.0,30.0,21.0,40.893550872802734,16.66259765625,-33.87451171875,-0.74755859375,0.497802734375,0.148681640625
5.833,310,455,462,327,10.0,30.0,21.0,34.3017578125,10.375975608825684,-25.573728561401367,-0.8135986328125,0.52685546875,0.308837890625
5.847,308,466,455,327,10.0,30.0,21.0,34.7900390625,3.723144292831421,-21.240232467651367,-0.81982421875,0.5369873046875,0.3973388671875
5.851,308,414,473,328,10.0,30.0,21.0,30.395505905151367,-2.25830078125,-20.996091842651367,-0.7940673828125,0.499267578125,0.4400634765625
5.864,313,398,456,324,10.0,30.0,21.0,23.681638717651367,-7.202147960662842,-20.874021530151367,-0.7489013671875,0.40478515625,0.435302734375
5.872,313,402,446,330,10.0,30.0,21.0,21.545408248901367,-11.047362327575684,-20.324705123901367,-0.6929931640625,0.2794189453125,0.3599853515625
5.880,316,551,531,334,10.0,30.0,21.0,23.925779342651367,-13.000487327575684,-20.996091842651367,-0.656494140625,0.1864013671875,0.240478515625
5.894,323,691,654,349,10.0,30.0,21.0,26.611326217651367,-13.732909202575684,-22.521970748901367,-0.663330078125,0.155517578125,0.15087890625
5.911,324,883,648,361,10.0,30.0,21.0,27.587888717651367,-14.953612327575684,-22.338865280151367,-0.712646484375,0.164794921875,0.11083984375
5.923,329,1066,677,376,10.0,30.0,21.0,27.648923873901367,-16.41845703125,-18.1884765625,-0.7769775390625,0.18994140625,0.0853271484375
5.923,332,1456,617,378,11.0,28.0,15.0,26.367185592651367,-17.08984375,-9.521484375,-0.82177734375,0.2169189453125,0.038330078125
5.931,330,1754,605,382,11.0,28.0,15.0,19.83642578125,-16.4794921875,1.8920897245407104,-0.8502197265625,0.22021484375,0.001708984375
5.951,330,1914,614,391,11.0,28.0,15.0,5.493163585662842,-15.441893577575684,13.610838890075684,-0.8856201171875,0.1881103515625,0.02734375
5.953,324,2337,586,401,11.0,28.0,15.0,-12.207030296325684,-15.197752952575684,24.780271530151367,-0.9322509765625,0.1595458984375,0.0885009765625
5.963,323,2599,533,400,11.0,28.0,15.0,-25.024412155151367,-15.380858421325684,36.07177734375,-0.97021484375,0.1611328125,0.1180419921875
5.970,321,2853,548,402,11.0,28.0,15.0,-26.611326217651367,-15.441893577575684,48.217769622802734,-0.96630859375,0.139404296875,0.09912109375
5.983,318,3147,522,603,11.0,28.0,15.0,-19.1650390625,-15.014647483825684,59.997554779052734,-0.8997802734375,0.008544921875,0.082763671875
5.991,321,3147,561,912,11.0,28.0,15.0,-9.8876953125,-13.122557640075684,69.51904296875,-0.7652587890625,-0.1605224609375,0.0924072265625
6.012,324,3147,784,1348,11.0,28.0,15.0,0.1831054538488388,-8.7890625,74.8291015625,-0.593994140625,-0.1578369140625,0.0926513671875
6.018,355,3147,1182,2084,9.0,27.0,18.0,16.845703125,-4.39453125,72.57080078125,-0.4031982421875,0.056640625,0.087158203125
6.029,373,3147,1445,2502,9.0,27.0,18.0,29.724119186401367,-6.774901866912842,58.227535247802734,-0.2398681640625,0.35595703125,0.1044921875
6.033,388,3147,1730,3059,9.0,27.0,18.0,13.549803733825684,-16.11328125,35.33935546875,-0.1507568359375,0.6044921875,0.0494384765625
6.051,424,3147,1957,3147,9.0,27.0,18.0,-35.64453125,-21.850584030151367,15.930174827575684,-0.058837890625,0.656982421875,-0.071533203125
6.055,430,3147,2105,3147,9.0,27.0,18.0,-95.21483612060547,-19.71435546875,3.906249761581421,0.0718994140625,0.356689453125,-0.154541015625
6.062,438,3147,2129,3147,9.0,27.0,18.0,-95.21483612060547,-19.71435546875,3.906249761581421,0.0509033203125,-0.247802734375,-0.1907958984375
6.073,454,3147,2519,3147,9.0,27.0,18.0,-131.40869140625,-18.61572265625,-45.654293060302734,-0.40380859375,-0.5802001953125,-0.03515625
6.081,454,3147,2739,3147,9.0,27.0,18.0,-86.54784393310547,-32.5927734375,-73.486328125,-1.2586669921875,0.021240234375,0.4039306640625
6.090,464,3147,2993,3147,9.0,27.0,18.0,-86.54784393310547,-32.5927734375,-73.486328125,-2.0206298828125,1.161865234375,0.647216796875
6.119,465,3147,3147,3147,9.0,27.0,18.0,-6.103515148162842,-62.316890716552734,-39.794921875,-2.6473388671875,1.831787109375,0.716796875
6.120,464,3147,3147,3147,12.0,26.0,21.0,-24.169919967651367,-67.626953125,-11.230467796325684,-3.4146728515625,1.7508544921875,0.7275390625
6.120,466,3147,3147,3147,12.0,26.0,21.0,-24.169919967651367,-67.626953125,-11.230467796325684,-3.2086181640625,0.213623046875,0.61376953125
6.137,458,3147,2985,3147,12.0,26.0,21.0,-89.23339080810547,-42.053218841552734,37.59765625,-1.6014404296875,-1.6278076171875,0.9671630859375
6.141,456,3147,2912,3147,12.0,26.0,21.0,-30.944822311401367,0.9155272841453552,20.812986373901367,-0.4444580078125,-1.0677490234375,1.047607421875
6.153,456,3147,2881,3147,12.0,26.0,21.0,-30.944822311401367,0.9155272841453552,20.812986373901367,-0.480224609375,0.9075927734375,0.1060791015625
6.163,454,3147,2851,3147,12.0,26.0,21.0,184.50926208496094,55.969234466552734,-32.3486328125,-1.0703125,2.035888671875,-0.7891845703125
6.173,454,3147,2756,3147,12.0,26.0,21.0,114.92919158935547,41.259761810302734,-57.983394622802734,-1.8306884765625,1.9285888671875,-0.7445068359375
6.179,455,3147,2658,3147,12.0,26.0,21.0,114.92919158935547,41.259761810302734,-57.983394622802734,-2.4404296875,1.1029052734375,-0.17041015625
6.195,445,3147,2557,3147,12.0,26.0,21.0,-107.97118377685547,-15.624999046325684,-59.997554779052734,-2.5999755859375,0.3453369140625,0.28369140625
6.230,445,3147,2445,3147,12.0,26.0,21.0,-123.90135955810547,-23.986814498901367,-36.80419921875,-2.1708984375,0.0076904296875,0.591552734375
6.230,437,3147,2312,3147,15.0,26.0,16.0,-123.90135955810547,-23.986814498901367,-36.80419921875,-1.5325927734375,-0.167236328125,0.8197021484375
6.231,439,3147,2065,2966,15.0,26.0,16.0,-75.1953125,-1.220703125,4.08935546875,-1.1680908203125,-0.2408447265625,0.9161376953125
6.232,430,3147,1960,2266,15.0,26.0,16.0,-36.865234375,20.690916061401367,29.296873092651367,-0.990966796875,-0.1585693359375,0.8470458984375
6.243,426,3147,1811,1573,15.0,26.0,16.0,-36.865234375,20.690916061401367,29.296873092651367,-0.695556640625,-0.179931640625,0.6439208984375
6.256,402,3147,1598,499,15.0,26.0,16.0,29.602048873901367,65.24658203125,72.998046875,-0.2550048828125,-0.5081787109375,0.334716796875
6.263,390,2445,1440,466,15.0,26.0,16.0,45.104976654052734,84.59471893310547,73.18115234375,0.1297607421875,-0.7967529296875,0.0302734375
6.271,381,1693,1452,430,15.0,26.0,16.0,45.104976654052734,84.59471893310547,73.18115234375,0.250732421875,-0.5445556640625,-0.0517578125
6.284,360,1155,1267,390,15.0,26.0,16.0,67.56591796875,92.10204315185547,49.194332122802734,0.13427734375,0.0875244140625,0.033447265625
6.292,347,763,1053,373,15.0,26.0,16.0,66.34521484375,77.45361328125,29.174802780151367,-0.0955810546875,0.6397705078125,0.042236328125
6.301,336,654,1014,359,15.0,26.0,16.0,66.34521484375,77.45361328125,29.174802780151367,-0.346923828125,0.89697265625,-0.10791015625
6.327,323,470,668,338,13.0,28.0,18.0,9.82666015625,43.151851654052734,-18.6767578125,-0.5592041015625,0.8565673828125,-0.2652587890625
6.327,316,398,525,331,13.0,28.0,18.0,-20.874021530151367,30.517576217651367,-23.803709030151367,-0.75537109375,0.62548828125,-0.194091796875
6.331,316,365,468,330,13.0,28.0,18.0,-20.874021530151367,30.517576217651367,-23.803709030151367,-0.866943359375,0.3931884765625,0.0574951171875
6.358,313,401,473,330,13.0,28.0,18.0,-23.681638717651367,14.953612327575684,10.437010765075684,-0.810546875,0.305419921875,0.2352294921875
6.362,313,371,457,331,13.0,28.0,18.0,-1.3427733182907104,10.498045921325684,13.916014671325684,-0.68994140625,0.306884765625,0.221923828125
6.362,310,363,536,328,13.0,28.0,18.0,-1.3427733182907104,10.498045921325684,13.916014671325684,-0.63623046875,0.3184814453125,0.1346435546875
6.369,316,431,598,330,13.0,28.0,18.0,14.892577171325684,8.72802734375,-0.1220703050494194,-0.63623046875,0.3184814453125,0.1346435546875
6.384,314,465,552,331,13.0,28.0,18.0,12.207030296325684,1.8920897245407104,-32.40966796875,-0.77490234375,0.31689453125,0.15478515625
6.391,315,431,562,330,13.0,28.0,18.0,12.207030296325684,1.8920897245407104,-32.40966796875,-0.8485107421875,0.30029296875,0.204833984375
6.401,315,428,567,330,13.0,28.0,18.0,5.493163585662842,-4.39453125,-37.04833984375,-0.8485107421875,0.30029296875,0.204833984375
6.426,315,455,632,332,11.0,28.0,18.0,-4.33349609375,-11.596678733825684,-27.343748092651367,-0.8509521484375,0.2847900390625,0.171875
6.427,318,531,660,332,11.0,28.0,18.0,-4.33349609375,-11.596678733825684,-27.343748092651367,-0.822265625,0.2318115234375,0.1517333984375
6.430,318,625,755,343,11.0,28.0,18.0,-8.11767578125,-11.962889671325684,-19.4091796875,-0.822265625,0.2318115234375,0.1517333984375
6.443,323,934,784,359,11.0,28.0,18.0,-17.2119140625,-10.131834983825684,-7.507323741912842,-0.7978515625,0.0750732421875,0.151611328125
6.462,318,1065,788,361,11.0,28.0,18.0,-17.2119140625,-10.131834983825684,-7.507323741912842,-0.7913818359375,0.0224609375,0.1370849609375
6.463,328,1437,753,365,11.0,28.0,18.0,-17.08984375,-9.1552734375,-2.38037109375,-0.7913818359375,0.0224609375,0.1370849609375
6.475,328,1819,767,383,11.0,28.0,18.0,-4.21142578125,-9.521484375,9.82666015625,-0.787353515625,0.0084228515625,0.071533203125
6.481,330,1973,750,387,11.0,28.0,18.0,-4.21142578125,-9.521484375,9.82666015625,-0.806640625,0.0499267578125,0.04736328125
6.489,329,2178,733,400,11.0,28.0,18.0,4.0283203125,-10.498045921325684,17.15087890625,-0.806640625,0.0499267578125,0.04736328125
6.503,330,2692,753,378,11.0,26.0,15.0,8.85009765625,-12.573241233825684,24.841306686401367,-0.8388671875,0.18994140625,0.02392578125
6.529,332,3007,793,406,11.0,26.0,15.0,6.835937023162842,-15.930174827575684,31.982419967651367,-0.8388671875,0.18994140625,0.02392578125
6.529,336,3147,939,576,11.0,26.0,15.0,-4.5166015625,-20.263669967651367,39.36767578125,-0.8779296875,0.1749267578125,0.044921875
6.533,348,3147,1312,1483,11.0,26.0,15.0,-16.17431640625,-26.123044967651367,50.170894622802734,-0.476806640625,-0.111083984375,0.0721435546875
6.544,361,3147,1477,1920,11.0,26.0,15.0,-14.221190452575684,-33.203125,59.204097747802734,-0.476806640625,-0.111083984375,0.0721435546875
6.549,371,3147,1665,2463,11.0,26.0,15.0,1.2817381620407104,-38.4521484375,57.556148529052734,-0.150390625,-0.08740234375,0.0635986328125
6.567,400,3147,1905,3147,11.0,26.0,15.0,20.202634811401367,-40.0390625,44.860836029052734,0.1798095703125,0.6346435546875,-0.0325927734375
6.578,406,3147,2087,3147,11.0,26.0,15.0,30.090330123901367,-38.57421875,27.526853561401367,0.1798095703125,0.6346435546875,-0.0325927734375
6.583,390,3147,2203,3147,11.0,26.0,15.0,19.34814453125,-36.56005859375,9.3994140625,0.1702880859375,0.8831787109375,-0.1412353515625
6.595,437,3147,2400,3147,11.0,26.0,15.0,-12.084959983825684,-37.59765625,-17.4560546875,-0.7225341796875,0.0333251953125,-0.191162109375
6.601,447,3147,2756,3147,11.0,26.0,16.0,-49.743648529052734,-43.457027435302734,-53.527828216552734,-0.7225341796875,0.0333251953125,-0.191162109375
6.609,462,3147,3007,3147,11.0,26.0,16.0,-76.72119140625,-52.612300872802734,-75.1953125,-1.43505859375,-0.0814208984375,0.199951171875
6.632,473,3147,3147,3147,11.0,26.0,16.0,-77.08740234375,-60.546871185302734,-63.293453216552734,-2.0120849609375,1.4139404296875,0.7548828125
6.633,568,3147,3147,3147,11.0,26.0,16.0,-54.870601654052734,-60.485836029052734,-33.69140625,-2.0120849609375,1.4139404296875,0.7548828125
6.640,646,3147,3147,3147,11.0,26.0,16.0,-42.907711029052734,-50.659175872802734,-17.51708984375,-2.14013671875,1.40283203125,0.767333984375
6.653,720,3147,3147,3147,11.0,26.0,16.0,-61.645503997802734,-43.151851654052734,-17.76123046875,-2.84375,-0.2388916015625,0.8270263671875
6.669,684,3147,3147,3147,11.0,26.0,16.0,-81.54296112060547,-38.2080078125,-14.526366233825684,-2.84375,-0.2388916015625,0.8270263671875
6.670,619,3147,3147,3147,11.0,26.0,16.0,-58.715816497802734,-15.747069358825684,-11.230467796325684,-2.024169921875,-0.8876953125,0.632080078125
6.684,551,3147,3147,3147,11.0,26.0,16.0,3.051757574081421,15.686034202575684,-20.996091842651367,-0.5316162109375,0.6033935546875,0.1270751953125
6.692,521,3147,3147,3147,11.0,26.0,16.0,65.185546875,34.60693359375,-33.935546875,-0.5316162109375,0.6033935546875,0.1270751953125
6.701,484,3147,3147,3147,13.0,27.0,17.0,84.96092987060547,37.29248046875,-41.137691497802734,-1.108642578125,1.234375,-0.088623046875
6.713,465,3147,3147,3147,13.0,27.0,17.0,48.461910247802734,24.658201217651367,-43.273921966552734,-2.4990234375,0.784912109375,0.239501953125
6.729,461,3147,3011,3147,13.0,27.0,17.0,-16.4794921875,8.23974609375,-36.43798828125,-2.4990234375,0.784912109375,0.239501953125
6.736,461,3147,2842,3147,13.0,27.0,17.0,-65.673828125,1.7700194120407104,-20.874021530151367,-2.1478271484375,0.3280029296875,0.51123046875
6.748,442,3147,2563,2744,13.0,27.0,17.0,-71.35009765625,6.347655773162842,-5.859374523162842,-1.5374755859375,0.036865234375,0.6611328125
6.753,440,3147,2419,2445,13.0,27.0,17.0,-44.311519622802734,18.12744140625,5.737304210662842,-1.17138671875,-0.1153564453125,0.7108154296875
6.779,439,3147,2295,2165,13.0,27.0,17.0,-7.385253429412842,32.71484375,20.751951217651367,-1.023681640625,-0.1826171875,0.736572265625
6.779,426,3147,2141,1411,13.0,27.0,17.0,25.268552780151367,48.095699310302734,40.283199310302734,-0.811767578125,-0.347412109375,0.6546630859375
6.784,423,3147,1969,1091,13.0,27.0,17.0,47.424312591552734,64.208984375,54.077144622802734,-0.5201416015625,-0.576171875,0.4537353515625
6.792,413,3147,1850,754,13.0,27.0,17.0,60.058589935302734,77.45361328125,58.227535247802734,-0.28515625,-0.5872802734375,0.2528076171875
6.803,401,3031,1702,481,7.0,28.0,16.0,68.115234375,83.86229705810547,55.908199310302734,-0.1241455078125,-0.24267578125,0.06298828125
6.811,391,2631,1622,475,7.0,28.0,16.0,74.76806640625,80.68846893310547,41.687007904052734,-0.0946044921875,0.3590087890625,-0.1173095703125
6.819,383,2278,1499,456,7.0,28.0,16.0,74.27978515625,65.61279296875,13.305663108825684,-0.2091064453125,0.8155517578125,-0.249755859375
6.837,369,1855,1166,411,7.0,28.0,16.0,53.039546966552734,43.823238372802734,-16.05224609375,-0.36279296875,0.8289794921875,-0.311767578125
6.842,360,1607,1058,411,7.0,28.0,16.0,14.343260765075684,25.329587936401367,-33.5693359375,-0.4814453125,0.5511474609375,-0.2535400390625
6.850,359,1599,917,402,7.0,28.0,16.0,-14.526366233825684,14.892577171325684,-38.2080078125,-0.544677734375,0.2677001953125,-0.1248779296875
6.868,345,1506,705,386,7.0,28.0,16.0,-15.075682640075684,11.657713890075684,-35.21728515625,-0.6341552734375,0.1585693359375,-0.0142822265625
6.873,346,1442,698,385,7.0,28.0,16.0,5.065917491912842,11.657713890075684,-27.343748092651367,-0.789306640625,0.1903076171875,0.0841064453125
6.882,336,1351,651,383,7.0,28.0,16.0,27.587888717651367,9.8876953125,-15.563963890075684,-0.8721923828125,0.22607421875,0.169921875
6.893,338,1336,634,377,11.0,29.0,16.0,38.9404296875,5.493163585662842,-4.82177734375,-0.828125,0.2347412109375,0.2252197265625
6.904,334,1437,658,376,11.0,29.0,16.0,37.65869140625,1.3427733182907104,-0.30517578125,-0.7698974609375,0.2373046875,0.2462158203125
6.909,336,1506,632,377,11.0,29.0,16.0,30.090330123901367,-1.220703125,-1.5258787870407104,-0.7713623046875,0.24267578125,0.2313232421875
6.938,334,1574,644,373,11.0,29.0,16.0,22.521970748901367,-2.197265625,-4.33349609375,-0.81884765625,0.24658203125,0.1844482421875
6.938,336,1598,613,375,11.0,29.0,16.0,18.1884765625,-1.5258787870407104,-5.615233898162842,-0.866455078125,0.266845703125,0.1483154296875
6.940,336,1625,594,371,11.0,29.0,16.0,16.6015625,-0.7324218153953552,-4.8828125,-0.89306640625,0.3115234375,0.146728515625
6.954,334,1719,572,371,11.0,29.0,16.0,14.160155296325684,-1.03759765625,-2.746581792831421,-0.8958740234375,0.3310546875,0.1583251953125
6.970,332,1840,572,371,11.0,29.0,16.0,7.995604991912842,-2.44140625,-0.1220703050494194,-0.851318359375,0.2969970703125,0.1563720703125
6.972,330,1908,569,361,11.0,29.0,16.0,-2.38037109375,-4.82177734375,0.4882812201976776,-0.8118896484375,0.2239990234375,0.1292724609375
6.988,329,2151,577,369,11.0,29.0,16.0,-12.695311546325684,-6.652831554412842,1.4038084745407104,-0.8280029296875,0.1201171875,0.0927734375
6.994,327,2217,577,371,12.0,30.0,11.0,-16.05224609375,-6.958007335662842,9.033203125,-0.8460693359375,0.0362548828125,0.0712890625
7.000,327,2386,548,371,12.0,30.0,11.0,-9.6435546875,-6.469726085662842,23.193357467651367,-0.8272705078125,0.02783203125,0.072265625
7.018,323,2703,551,371,12.0,30.0,11.0,0.4272460639476776,-6.591796398162842,38.57421875,-0.7767333984375,0.0654296875,0.080322265625
7.023,323,2988,548,375,12.0,30.0,11.0,7.019042491912842,-8.30078125,50.720211029052734,-0.7110595703125,0.0902099609375,0.0860595703125
7.034,323,3147,601,388,12.0,30.0,11.0,10.070799827575684,-11.535643577575684,58.044429779052734,-0.62841796875,0.082763671875,0.0963134765625
7.045,336,3147,991,1138,12.0,30.0,11.0,13.488768577575684,-15.319823265075684,61.401363372802734,-0.5133056640625,0.0782470703125,0.111083984375
7.054,343,3147,1109,1748,12.0,30.0,11.0,18.12744140625,-18.310546875,61.584468841552734,-0.348876953125,0.1103515625,0.1510009765625
7.061,347,3147,1188,2100,12.0,30.0,11.0,22.705076217651367,-20.385740280151367,57.556148529052734,-0.1253662109375,0.1842041015625,0.2032470703125
7.080,373,3147,1546,2925,12.0,30.0,11.0,21.850584030151367,-21.728513717651367,45.776363372802734,0.12646484375,0.353759765625,0.1776123046875
7.082,391,3147,1838,3147,12.0,30.0,11.0,1.5258787870407104,-21.301267623901367,25.695798873901367,0.287109375,0.6533203125,0.1246337890625
7.100,406,3147,2005,3147,14.0,28.0,12.0,-41.992183685302734,-18.9208984375,5.859374523162842,0.2659912109375,0.7769775390625,0.0689697265625
7.105,428,3147,2287,3147,14.0,28.0,12.0,-87.89061737060547,-16.4794921875,-12.573241233825684,0.0184326171875,0.3785400390625,-0.18310546875
7.114,433,3147,2445,3147,14.0,28.0,12.0,-113.89159393310547,-14.892577171325684,-37.4755859375,-0.5323486328125,-0.3006591796875,-0.4151611328125
7.121,439,3147,2734,3147,14.0,28.0,12.0,-113.83055877685547,-19.47021484375,-59.509273529052734,-1.3013916015625,-0.52685546875,-0.177001953125
7.158,455,3147,3147,3147,14.0,28.0,12.0,-86.42577362060547,-33.63037109375,-55.541988372802734,-2.0205078125,0.2626953125,0.43359375
7.159,574,3147,3147,3147,14.0,28.0,12.0,-46.508785247802734,-48.156734466552734,-26.367185592651367,-2.377685546875,1.4652099609375,0.7598876953125
7.159,621,3147,3147,3147,14.0,28.0,12.0,-34.423828125,-51.757808685302734,-3.845214605331421,-2.7529296875,2.0338134765625,0.767333984375
7.165,620,3147,3147,3147,14.0,28.0,12.0,-70.12939453125,-52.551265716552734,7.202147960662842,-3.2679443359375,1.49609375,0.60888671875
7.183,546,3147,3147,3147,14.0,28.0,12.0,-109.80223846435547,-41.687007904052734,22.277830123901367,-2.658447265625,-0.4501953125,0.61279296875
7.183,464,3147,3147,3147,14.0,28.0,12.0,-95.58104705810547,-4.21142578125,18.12744140625,-1.2332763671875,-1.7313232421875,0.9451904296875
7.189,461,3147,3134,3147,13.0,29.0,14.0,-8.23974609375,40.466304779052734,2.13623046875,-0.5439453125,-0.56884765625,0.697265625
7.203,456,3147,3146,3147,13.0,29.0,14.0,102.72216033935547,73.54736328125,-1.5258787870407104,-0.7005615234375,1.243408203125,-0.1529541015625
7.212,458,3147,3144,3147,13.0,29.0,14.0,130.37109375,80.50536346435547,-9.765625,-1.307861328125,2.010986328125,-0.6318359375
7.219,455,3147,3089,3147,13.0,29.0,14.0,130.37109375,80.50536346435547,-9.765625,-2.01611328125,1.64990234375,-0.405517578125
7.261,454,3147,3000,3147,13.0,29.0,14.0,-56.335445404052734,17.76123046875,-40.161128997802734,-2.429443359375,0.83935546875,0.0511474609375
7.261,445,3147,2880,3147,13.0,29.0,14.0,-100.46385955810547,-2.50244140625,-34.85107421875,-2.3402099609375,0.23974609375,0.3548583984375
7.261,445,3147,2790,3147,13.0,29.0,14.0,-100.46385955810547,-2.50244140625,-34.85107421875,-1.859619140625,-0.01953125,0.495849609375
7.264,439,3147,2419,2717,13.0,29.0,14.0,-44.311519622802734,2.746581792831421,-3.112792730331421,-1.373779296875,-0.1173095703125,0.591796875
7.281,432,3147,2275,2325,13.0,29.0,14.0,-1.4648436307907104,12.207030296325684,12.878417015075684,-1.0716552734375,-0.125732421875,0.6534423828125
7.281,428,3147,2063,1800,13.0,29.0,14.0,42.663570404052734,23.925779342651367,32.40966796875,-0.818115234375,-0.1207275390625,0.5877685546875
7.290,418,3147,1803,1348,13.0,28.0,14.0,42.663570404052734,23.925779342651367,32.40966796875,-0.55322265625,-0.2078857421875,0.393310546875
7.309,391,3147,1569,630,13.0,28.0,14.0,79.9560546875,52.673336029052734,53.222652435302734,-0.2943115234375,-0.4539794921875,0.1749267578125
7.324,382,3134,1268,465,13.0,28.0,14.0,70.556640625,62.438961029052734,48.950191497802734,-0.0853271484375,-0.6630859375,0.0152587890625
7.324,377,2717,1172,434,13.0,28.0,14.0,70.556640625,62.438961029052734,48.950191497802734,-0.0302734375,-0.4530029296875,-0.0238037109375
7.357,354,2065,999,408,13.0,28.0,14.0,77.57568359375,55.541988372802734,11.901854515075684,-0.0843505859375,0.0853271484375,-0.00341796875
7.357,333,1638,944,388,13.0,28.0,14.0,90.88134002685547,35.400390625,-14.221190452575684,-0.1741943359375,0.5501708984375,-0.0484619140625
7.357,344,1474,923,389,13.0,28.0,14.0,90.88134002685547,35.400390625,-14.221190452575684,-0.3089599609375,0.7386474609375,-0.158935546875
7.365,336,1257,788,375,13.0,28.0,14.0,49.804683685302734,-0.54931640625,-49.194332122802734,-0.4652099609375,0.6817626953125,-0.274169921875
7.380,336,1160,636,373,13.0,28.0,14.0,23.071287155151367,-2.563476324081421,-45.166011810302734,-0.626220703125,0.5848388671875,-0.27099609375
7.383,332,912,579,362,13.0,28.0,14.0,23.071287155151367,-2.563476324081421,-45.166011810302734,-0.768310546875,0.5750732421875,-0.0927734375
7.393,328,951,559,354,12.0,29.0,19.0,27.648923873901367,-2.868652105331421,-18.61572265625,-0.8419189453125,0.558837890625,0.115234375
7.402,327,971,564,360,12.0,29.0,19.0,29.785154342651367,-9.521484375,-12.329100608825684,-0.873779296875,0.44970703125,0.2171630859375
7.416,328,990,606,359,12.0,29.0,19.0,29.785154342651367,-9.521484375,-12.329100608825684,-0.891357421875,0.298095703125,0.23046875
7.423,327,1081,619,359,12.0,29.0,19.0,8.97216796875,-13.732909202575684,-10.070799827575684,-0.8665771484375,0.1871337890625,0.2156982421875
7.432,327,1081,630,360,12.0,29.0,19.0,8.97216796875,-13.732909202575684,-10.070799827575684,-0.82763671875,0.1607666015625,0.2052001953125
7.450,327,1117,642,363,12.0,29.0,19.0,6.408690929412842,-12.084959983825684,-10.620116233825684,-0.82763671875,0.1607666015625,0.2052001953125
7.454,327,1160,620,359,12.0,29.0,19.0,15.624999046325684,-11.718749046325684,-11.840819358825684,-0.86083984375,0.2850341796875,0.15673828125
7.467,328,1172,621,361,12.0,29.0,19.0,15.624999046325684,-11.718749046325684,-11.840819358825684,-0.9002685546875,0.3319091796875,0.1160888671875
7.469,327,1201,614,360,12.0,29.0,19.0,17.333984375,-11.657713890075684,-11.352538108825684,-0.9002685546875,0.3319091796875,0.1160888671875
7.488,328,1211,588,356,11.0,30.0,12.0,1.5258787870407104,-10.009765625,-2.807616949081421,-0.87451171875,0.25732421875,0.0877685546875
7.491,327,1317,572,361,11.0,30.0,12.0,1.5258787870407104,-10.009765625,-2.807616949081421,-0.8253173828125,0.204345703125,0.0963134765625
7.501,324,1413,645,361,11.0,30.0,12.0,-9.6435546875,-9.033203125,3.784179449081421,-0.8253173828125,0.204345703125,0.0963134765625
7.513,327,1683,607,363,11.0,30.0,12.0,-20.263669967651367,-9.46044921875,16.2353515625,-0.748046875,0.0938720703125,0.09130859375
7.530,323,1878,659,371,11.0,30.0,12.0,-20.263669967651367,-9.46044921875,16.2353515625,-0.7198486328125,0.0560302734375,0.1026611328125
7.530,324,2060,601,371,11.0,30.0,12.0,-18.310546875,-10.131834983825684,23.010251998901367,-0.7198486328125,0.0560302734375,0.1026611328125
7.553,323,2503,614,371,11.0,30.0,12.0,-3.967284917831421,-9.70458984375,40.954586029052734,-0.639892578125,0.1025390625,0.096435546875
7.553,321,2880,682,378,11.0,30.0,12.0,-3.967284917831421,-9.70458984375,40.954586029052734,-0.5870361328125,0.1397705078125,0.087158203125
7.560,324,3147,710,569,11.0,30.0,12.0,-0.4882812201976776,-9.82666015625,49.316402435302734,-0.5870361328125,0.1397705078125,0.087158203125
7.589,332,3147,958,1336,11.0,30.0,12.0,-10.498045921325684,-15.075682640075684,54.565425872802734,-0.5260009765625,0.2120361328125,0.305908203125
7.591,346,3147,1215,1980,11.0,29.0,18.0,-10.498045921325684,-15.075682640075684,54.565425872802734,-0.3853759765625,0.196533203125,0.4013671875
7.591,362,3147,1413,2410,11.0,29.0,18.0,-16.6015625,-21.240232467651367,49.987789154052734,-0.3853759765625,0.196533203125,0.4013671875
7.604,391,3147,1792,3144,11.0,29.0,18.0,-39.36767578125,-23.315427780151367,25.146482467651367,0.267578125,0.2296142578125,0.0474853515625
7.612,403,3147,1925,3147,11.0,29.0,18.0,-39.36767578125,-23.315427780151367,25.146482467651367,0.5042724609375,0.366943359375,-0.15966796875
7.620,411,3147,2076,3147,11.0,29.0,18.0,-61.645503997802734,-14.465331077575684,9.94873046875,0.5042724609375,0.366943359375,-0.15966796875
7.633,425,3147,2325,3147,11.0,29.0,18.0,-77.0263671875,-17.27294921875,-53.161617279052734,-0.499267578125,-0.2454833984375,-0.3321533203125
7.655,431,3147,2494,3147,11.0,29.0,18.0,-77.0263671875,-17.27294921875,-53.161617279052734,-1.7381591796875,-0.3018798828125,-0.0335693359375
7.656,433,3147,2612,3147,11.0,29.0,18.0,-58.715816497802734,-36.2548828125,-77.81982421875,-1.7381591796875,-0.3018798828125,-0.0335693359375
7.664,447,3147,2993,3147,11.0,29.0,18.0,-32.40966796875,-51.452632904052734,-51.452632904052734,-2.3411865234375,1.7490234375,0.50341796875
7.711,456,3147,3108,3147,11.0,29.0,18.0,-10.437010765075684,-58.410640716552734,-13.366698265075684,-2.3411865234375,1.7490234375,0.50341796875
7.722,455,3147,3141,3147,12.0,28.0,13.0,-20.01953125,-63.781734466552734,-10.498045921325684,-2.712158203125,2.0673828125,0.6771240234375
8.171,456,3147,3022,3147,12.0,28.0,13.0,-109.25292205810547,-63.232418060302734,-8.056640625,-2.3011474609375,-0.451171875,0.736328125
8.172,455,3147,2946,3147,12.0,28.0,13.0,-85.75438690185547,-27.404783248901367,-17.63916015625,-0.9853515625,-1.6842041015625,1.04150390625
8.172,445,3147,2948,3147,12.0,28.0,13.0,-8.36181640625,22.033689498901367,-16.11328125,-0.949951171875,1.0543212890625,-0.12939453125
8.173,446,3147,2898,3147,12.0,28.0,13.0,101.31835174560547,60.974117279052734,-2.44140625,-0.949951171875,1.0543212890625,-0.12939453125
8.174,446,3147,2833,3147,12.0,28.0,13.0,147.216796875,65.61279296875,-10.009765625,-1.4957275390625,1.8358154296875,-0.6082763671875
8.174,445,3147,2741,3147,12.0,28.0,13.0,72.20458984375,39.36767578125,-27.465818405151367,-2.212646484375,0.810302734375,0.138916015625
8.174,441,3147,2736,3147,12.0,28.0,13.0,-36.92626953125,6.774901866912842,-34.3017578125,-2.212646484375,0.810302734375,0.138916015625
8.174,441,3147,2647,3147,12.0,28.0,13.0,-90.51512908935547,-11.535643577575684,-29.602048873901367,-1.9979248046875,0.308349609375,0.4686279296875
8.174,434,3147,2458,3147,14.0,26.0,10.0,-86.66991424560547,-14.282225608825684,-22.033689498901367,-1.5020751953125,0.0281982421875,0.6778564453125
8.174,431,3147,2246,3147,14.0,26.0,10.0,-61.096187591552734,-7.507323741912842,-14.770506858825684,-1.5020751953125,0.0281982421875,0.6778564453125
8.174,409,3147,2032,2753,14.0,26.0,10.0,-30.639646530151367,4.94384765625,-1.6479490995407104,-1.4266357421875,-0.0164794921875,0.6708984375
8.174,411,3147,1772,1826,14.0,26.0,10.0,4.7607421875,19.22607421875,19.6533203125,-0.79931640625,-0.015625,0.3021240234375
8.174,391,3147,1623,1348,14.0,26.0,10.0,36.92626953125,30.029294967651367,37.53662109375,-0.79931640625,-0.015625,0.3021240234375
8.174,382,3147,1441,793,14.0,26.0,10.0,55.664058685302734,34.66796875,42.175289154052734,-0.2750244140625,-0.256591796875,0.0146484375
8.174,361,2837,1290,428,14.0,26.0,10.0,58.776851654052734,35.21728515625,34.66796875,0.425537109375,-0.681640625,-0.156982421875
8.175,359,2412,1231,409,14.0,26.0,10.0,51.513668060302734,35.09521484375,18.4326171875,0.425537109375,-0.681640625,-0.156982421875
8.175,336,2151,1287,419,14.0,26.0,10.0,48.522945404052734,34.97314453125,-0.4272460639476776,0.2952880859375,-0.27392578125,0.0526123046875
8.175,359,1899,1287,406,13.0,28.0,18.0,58.715816497802734,31.616209030151367,-18.61572265625,-0.0050048828125,0.3695068359375,0.1881103515625
8.175,354,1920,1282,411,13.0,28.0,18.0,66.58935546875,23.010251998901367,-36.62109375,-0.3126220703125,0.8543701171875,0.1209716796875
8.175,353,1994,1149,404,13.0,28.0,18.0,54.992671966552734,13.793944358825684,-48.278804779052734,-0.5648193359375,1.006591796875,-0.071044921875
8.175,348,1722,1071,398,13.0,28.0,18.0,29.418943405151367,8.23974609375,-46.203609466552734,-0.8011474609375,0.9449462890625,-0.146484375
8.175,346,1637,1074,398,13.0,28.0,18.0,1.8310545682907104,2.868652105331421,-33.02001953125,-0.9442138671875,0.7890625,-0.046630859375
8.175,347,1662,1095,388,13.0,28.0,18.0,-22.033689498901367,-5.310058116912842,-20.263669967651367,-0.88037109375,0.5299072265625,0.044921875
8.175,346,1669,1160,390,13.0,28.0,18.0,-39.36767578125,-13.549803733825684,-18.37158203125,-0.7550048828125,0.212158203125,0.0838623046875
8.176,347,1757,1217,391,13.0,28.0,18.0,-48.522945404052734,-19.775390625,-25.756834030151367,-0.7373046875,-0.0206298828125,0.1524658203125
8.176,348,1811,1243,401,13.0,28.0,18.0,-45.471187591552734,-24.291990280151367,-33.38623046875,-0.804443359375,-0.100830078125,0.2186279296875
8.176,332,1904,1282,387,13.0,28.0,18.0,-29.113767623901367,-25.878904342651367,-36.31591796875,-0.89208984375,-0.084716796875,0.2374267578125
8.176,348,1973,1276,411,12.0,25.0,14.0,-7.629394054412842,-24.414060592651367,-33.8134765625,-0.9837646484375,-0.0068359375,0.259765625
8.176,351,2024,1292,409,12.0,25.0,14.0,8.97216796875,-22.583005905151367,-26.306150436401367,-1.051513671875,0.1097412109375,0.328857421875
8.176,349,2021,1328,408,12.0,25.0,14.0,15.747069358825684,-23.010251998901367,-16.6015625,-1.0343017578125,0.1689453125,0.3846435546875
8.176,351,2110,1323,411,12.0,25.0,14.0,12.634276390075684,-24.047849655151367,-8.1787109375,-0.9351806640625,0.1197509765625,0.3333740234375
8.176,351,2207,1330,411,12.0,25.0,14.0,5.126952648162842,-21.362302780151367,-0.9765624403953552,-0.8323974609375,0.0240478515625,0.2132568359375
8.176,346,2319,1243,409,12.0,25.0,14.0,0.1220703050494194,-15.869139671325684,7.080077648162842,-0.784423828125,-0.027587890625,0.1368408203125
8.176,354,2419,1236,416,12.0,25.0,14.0,-0.9155272841453552,-11.291502952575684,17.578125,-0.796630859375,0.0120849609375,0.1326904296875
8.176,356,2563,1189,416,12.0,25.0,14.0,0.2441406100988388,-9.33837890625,30.578611373901367,-0.821044921875,0.09765625,0.154296875
8.176,359,2993,1267,414,12.0,25.0,14.0,2.44140625,-10.131834983825684,43.823238372802734,-0.794921875,0.139892578125,0.152099609375
8.177,361,3147,1351,445,12.0,25.0,14.0,4.33349609375,-13.183592796325684,55.847164154052734,-0.6943359375,0.0904541015625,0.1319580078125
8.177,371,3147,1509,853,14.0,27.0,12.0,4.94384765625,-17.02880859375,66.10107421875,-0.5377197265625,-0.0255126953125,0.1455078125
8.177,382,3147,1766,1773,14.0,27.0,12.0,5.554198741912842,-20.080564498901367,72.8759765625,-0.3482666015625,-0.1173095703125,0.206787109375
8.177,388,3147,1891,2218,14.0,27.0,12.0,9.33837890625,-21.545408248901367,73.8525390625,-0.1094970703125,-0.1102294921875,0.253662109375
8.177,398,3147,2023,2824,14.0,27.0,12.0,15.624999046325684,-21.484373092651367,67.626953125,0.21630859375,0.03125,0.1968994140625
8.177,411,3147,2202,3147,14.0,27.0,12.0,14.831542015075684,-19.287109375,54.321285247802734,0.5103759765625,0.3372802734375,0.1282958984375
8.177,419,3147,2391,3147,14.0,27.0,12.0,0.1220703050494194,-16.7236328125,34.423828125,0.5953369140625,0.5784912109375,0.125
8.177,430,3147,2565,3147,14.0,27.0,12.0,-21.301267623901367,-17.15087890625,-0.6103515625,0.3350830078125,0.44189453125,0.0372314453125
8.177,447,3147,2830,3147,14.0,27.0,12.0,-37.109375,-21.728513717651367,-52.917476654052734,-0.3648681640625,0.0911865234375,-0.121337890625
8.177,458,3147,3031,3147,14.0,27.0,12.0,-42.480464935302734,-30.578611373901367,-92.40721893310547,-1.4193115234375,0.164306640625,-0.054443359375
8.177,468,3147,3147,3147,14.0,27.0,12.0,-39.61181640625,-42.358394622802734,-82.94676971435547,-2.2989501953125,0.862060546875,0.18408203125
8.177,754,3147,3147,3147,15.0,24.0,16.0,-38.39111328125,-51.269527435302734,-40.710445404052734,-2.7008056640625,1.57861328125,0.5130615234375
8.181,759,3147,3147,3147,15.0,24.0,16.0,-57.312007904052734,-63.720699310302734,-10.437010765075684,-3.2298583984375,1.9052734375,0.8939208984375
8.189,846,3147,3147,3147,15.0,24.0,16.0,-106.62841033935547,-80.13916015625,18.4326171875,-3.282470703125,1.0882568359375,0.80908203125
8.205,890,3147,3147,3147,15.0,24.0,16.0,-128.90625,-68.78662109375,34.24072265625,-1.7498779296875,-1.1102294921875,0.7535400390625
8.212,872,3147,3147,3147,15.0,24.0,16.0,-90.51512908935547,-30.151365280151367,14.038084983825684,-0.2481689453125,-2.069091796875,1.06884765625
8.221,846,3147,3147,3147,15.0,24.0,16.0,0.4272460639476776,23.681638717651367,10.925292015075684,-0.2108154296875,-0.52490234375,0.8529052734375
8.233,785,3147,3147,3147,15.0,24.0,16.0,122.80272674560547,78.30810546875,18.4326171875,-0.7659912109375,1.407470703125,0.101806640625
8.242,746,3147,3147,3147,15.0,24.0,16.0,168.09080505371094,91.85790252685547,-6.652831554412842,-1.125732421875,2.0169677734375,-0.376708984375
8.267,705,3147,3147,3147,15.0,24.0,16.0,75.86669921875,64.697265625,-42.846675872802734,-1.333984375,1.3746337890625,-0.220458984375
8.274,605,3147,3147,3147,15.0,24.0,16.0,-54.870601654052734,31.799314498901367,-62.377925872802734,-1.646728515625,0.516845703125,0.2174072265625
8.274,508,3147,3147,3147,14.0,26.0,14.0,-106.81151580810547,11.596678733825684,-59.082027435302734,-2.0098876953125,0.0382080078125,0.4461669921875
8.280,477,3147,3147,3147,14.0,26.0,14.0,-89.90477752685547,2.685546636581421,-34.912109375,-2.159912109375,-0.0430908203125,0.4840087890625
8.301,473,3147,3033,3147,14.0,26.0,14.0,-65.185546875,-0.4882812201976776,-2.929687261581421,-1.96923828125,0.0159912109375,0.5518798828125
8.309,466,3147,2912,3147,14.0,26.0,14.0,-48.828121185302734,0.6103515625,20.446775436401367,-1.6385498046875,-0.0548095703125,0.6328125
8.309,464,3147,2715,3147,14.0,26.0,14.0,-28.076169967651367,8.85009765625,36.9873046875,-1.3931884765625,-0.17578125,0.6533203125
8.324,446,3147,2273,2750,14.0,26.0,14.0,3.417968511581421,21.606443405151367,59.570308685302734,-1.1580810546875,-0.1810302734375,0.603759765625
8.331,438,3147,1929,2585,14.0,26.0,14.0,39.97802734375,34.72900390625,88.25682830810547,-0.809814453125,-0.1826171875,0.4796142578125
8.340,426,3147,1813,2284,14.0,26.0,14.0,39.97802734375,34.72900390625,88.25682830810547,-0.3988037109375,-0.2576904296875,0.3035888671875
8.354,404,3147,1501,1643,14.0,26.0,14.0,86.66991424560547,54.992671966552734,103.33251190185547,-0.01220703125,-0.26904296875,0.1392822265625
8.377,391,3147,1369,1173,14.0,26.0,14.0,90.88134002685547,62.255855560302734,74.951171875,0.2371826171875,-0.0498046875,0.034912109375
8.380,385,3147,1294,815,9.0,29.0,14.0,90.88134002685547,62.255855560302734,74.951171875,0.1826171875,0.45947265625,-0.0081787109375
8.389,371,2840,1115,437,9.0,29.0,14.0,84.35057830810547,58.532711029052734,-31.005857467651367,-0.083740234375,0.8973388671875,-0.0679931640625
8.394,361,2507,957,411,9.0,29.0,14.0,63.537593841552734,36.7431640625,-67.81005859375,-0.3450927734375,0.8946533203125,-0.151611328125
8.411,354,2325,923,403,9.0,29.0,14.0,63.537593841552734,36.7431640625,-67.81005859375,-0.5496826171875,0.6270751953125,-0.16845703125
8.417,348,2118,923,398,9.0,29.0,14.0,-3.479003667831421,-5.981444835662842,-70.73974609375,-0.695068359375,0.424560546875,-0.1807861328125
8.424,347,1974,909,388,9.0,29.0,14.0,-5.493163585662842,-8.9111328125,-54.687496185302734,-0.8330078125,0.431396484375,-0.2147216796875
8.431,344,1840,883,379,9.0,29.0,14.0,-5.493163585662842,-8.9111328125,-54.687496185302734,-0.95361328125,0.510498046875,-0.164794921875
8.446,338,1683,793,374,9.0,29.0,14.0,5.065917491912842,-13.854979515075684,-43.212886810302734,-0.981689453125,0.41943359375,-0.0487060546875
8.454,337,1596,797,373,9.0,29.0,14.0,-14.770506858825684,-21.545408248901367,-42.358394622802734,-0.94189453125,0.1669921875,0.0721435546875
8.485,337,1577,784,373,9.0,29.0,14.0,-14.770506858825684,-21.545408248901367,-42.358394622802734,-0.885986328125,-0.054931640625,0.20556640625
8.491,332,1650,710,370,16.0,28.0,14.0,-34.912109375,-23.437498092651367,-29.602048873901367,-0.8385009765625,-0.14208984375,0.322998046875
8.493,331,1697,691,371,16.0,28.0,14.0,-24.902341842651367,-19.10400390625,-20.996091842651367,-0.81787109375,-0.122314453125,0.3734130859375
8.495,332,1747,705,369,16.0,28.0,14.0,-24.902341842651367,-19.10400390625,-20.996091842651367,-0.8310546875,-0.042236328125,0.38818359375
8.514,332,1848,705,370,16.0,28.0,14.0,-3.845214605331421,-8.72802734375,-5.371093273162842,-0.8465576171875,0.0545654296875,0.4105224609375
8.516,316,1927,693,347,16.0,28.0,14.0,0.7324218153953552,-6.530761241912842,4.150390625,-0.8292236328125,0.1170654296875,0.4202880859375
8.523,333,2105,674,371,16.0,28.0,14.0,0.7324218153953552,-6.530761241912842,4.150390625,-0.790771484375,0.132080078125,0.3880615234375
8.534,330,2233,707,371,16.0,28.0,14.0,6.042479991912842,-4.69970703125,24.353025436401367,-0.74951171875,0.119873046875,0.2952880859375
8.542,330,2344,710,378,16.0,28.0,14.0,7.995604991912842,-2.0751953125,34.1796875,-0.7108154296875,0.100341796875,0.1727294921875
8.550,330,2534,753,400,16.0,28.0,14.0,7.995604991912842,-2.0751953125,34.1796875,-0.6796875,0.0845947265625,0.0977783203125
8.594,331,3089,834,389,13.0,29.0,18.0,6.652831554412842,1.4038084745407104,52.734371185302734,-0.6431884765625,0.0694580078125,0.0980224609375
8.594,338,3147,938,457,13.0,29.0,18.0,4.08935546875,-2.197265625,61.462398529052734,-0.5850830078125,0.051025390625,0.1513671875
8.599,348,3147,1065,963,13.0,29.0,18.0,4.08935546875,-2.197265625,61.462398529052734,-0.4683837890625,0.0223388671875,0.2266845703125
8.599,369,3147,1469,1929,13.0,29.0,18.0,6.835937023162842,-19.8974609375,66.34521484375,-0.2537841796875,-0.0062255859375,0.2845458984375
8.610,383,3147,1689,2445,13.0,29.0,18.0,12.878417015075684,-30.273435592651367,57.006832122802734,0.05712890625,0.0108642578125,0.2869873046875
8.615,388,3147,1877,2911,13.0,29.0,18.0,12.878417015075684,-30.273435592651367,57.006832122802734,0.4044189453125,0.142578125,0.2049560546875
