time,compression0,compression1,compression2,compression3,magn_x,magn_y,magn_z,gyro_x,gyro_y,gyro_z,accel_x,accel_y,accel_z
0.004,299,430,323,323,-18.0,36.0,2.0,-6.591796398162842,-8.7890625,-6.652831554412842,-0.74560546875,0.051025390625,-0.559326171875
0.013,300,404,329,318,-18.0,36.0,2.0,-6.591796398162842,-8.7890625,-6.652831554412842,-0.7469482421875,0.0643310546875,-0.5565185546875
0.026,301,465,347,319,-18.0,36.0,2.0,-3.601073980331421,-7.934569835662842,-5.493163585662842,-0.74072265625,0.0927734375,-0.5595703125
0.037,302,470,347,318,-18.0,36.0,2.0,-4.69970703125,-8.056640625,-4.82177734375,-0.7332763671875,0.1019287109375,-0.561279296875
0.043,302,475,348,318,-18.0,36.0,2.0,-4.69970703125,-8.056640625,-4.82177734375,-0.72607421875,0.0946044921875,-0.55859375
0.061,302,481,334,318,-18.0,36.0,2.0,-11.047362327575684,-9.6435546875,-3.173827886581421,-0.7205810546875,0.0814208984375,-0.550537109375
0.070,300,484,334,321,-14.0,38.0,5.0,-13.549803733825684,-10.986327171325684,-2.25830078125,-0.72119140625,0.0606689453125,-0.541015625
0.072,300,481,344,319,-14.0,38.0,5.0,-13.549803733825684,-10.986327171325684,-2.25830078125,-0.72802734375,0.032958984375,-0.531982421875
0.089,300,470,318,321,-14.0,38.0,5.0,-13.671874046325684,-12.207030296325684,-0.30517578125,-0.73779296875,0.0101318359375,-0.525634765625
0.103,300,470,327,321,-14.0,38.0,5.0,-10.620116233825684,-11.413573265075684,0.6713866591453552,-0.7462158203125,-0.00048828125,-0.51708984375
0.103,301,466,346,319,-14.0,38.0,5.0,-10.620116233825684,-11.413573265075684,0.6713866591453552,-0.748046875,-0.0030517578125,-0.503662109375
0.129,301,470,328,319,-14.0,38.0,5.0,-5.615233898162842,-9.09423828125,1.5869139432907104,-0.741943359375,-0.002685546875,-0.497314453125
0.163,302,473,363,321,-14.0,38.0,5.0,-3.906249761581421,-8.11767578125,1.6479490995407104,-0.7359619140625,-0.0001220703125,-0.50146484375
0.166,300,473,343,318,-14.0,38.0,5.0,-3.906249761581421,-8.11767578125,1.6479490995407104,-0.7353515625,0.006103515625,-0.5067138671875
0.170,302,473,328,321,-14.0,38.0,5.0,-1.15966796875,-7.812499523162842,2.50244140625,-0.7398681640625,0.01416015625,-0.50927734375
0.170,302,487,333,321,-14.0,38.0,5.0,-0.4882812201976776,-8.30078125,3.173827886581421,-0.74755859375,0.019775390625,-0.5096435546875
0.170,301,483,336,318,-14.0,37.0,10.0,-0.4882812201976776,-8.30078125,3.173827886581421,-0.756103515625,0.019775390625,-0.508544921875
0.176,300,480,359,318,-14.0,37.0,10.0,-1.7700194120407104,-8.60595703125,5.249022960662842,-0.7626953125,0.021240234375,-0.5013427734375
0.186,302,480,349,318,-14.0,37.0,10.0,-2.44140625,-8.4228515625,6.347655773162842,-0.764892578125,0.0289306640625,-0.4844970703125
0.193,300,481,345,318,-14.0,37.0,10.0,-2.44140625,-8.4228515625,6.347655773162842,-0.759765625,0.0374755859375,-0.469482421875
0.206,302,470,344,318,-14.0,37.0,10.0,-1.4648436307907104,-7.690429210662842,7.995604991912842,-0.7503662109375,0.0391845703125,-0.46923828125
0.214,302,469,351,318,-14.0,37.0,10.0,-1.4648436307907104,-7.690429210662842,7.995604991912842,-0.7447509765625,0.038330078125,-0.484375
0.222,302,481,351,321,-14.0,37.0,10.0,0.6713866591453552,-7.080077648162842,8.97216796875,-0.7447509765625,0.038330078125,-0.484375
0.236,302,479,330,321,-14.0,37.0,10.0,1.4038084745407104,-6.286620616912842,11.169432640075684,-0.75,0.043212890625,-0.52001953125
0.245,302,467,329,318,-14.0,37.0,10.0,1.4038084745407104,-6.286620616912842,11.169432640075684,-0.7552490234375,0.039794921875,-0.5260009765625
0.269,300,468,330,321,-14.0,37.0,10.0,-2.563476324081421,-5.676269054412842,12.207030296325684,-0.7552490234375,0.039794921875,-0.5260009765625
0.270,302,478,346,318,-11.0,37.0,6.0,-13.183592796325684,-3.234863042831421,15.075682640075684,-0.7589111328125,0.03955078125,-0.5302734375
0.274,300,442,347,319,-11.0,37.0,6.0,-13.183592796325684,-3.234863042831421,15.075682640075684,-0.7535400390625,0.046630859375,-0.5283203125
0.283,302,439,356,321,-11.0,37.0,6.0,-18.37158203125,-1.220703125,17.15087890625,-0.7535400390625,0.046630859375,-0.5283203125
0.307,300,456,359,317,-11.0,37.0,6.0,-25.695798873901367,3.662109136581421,22.399900436401367,-0.7218017578125,0.043701171875,-0.5108642578125
0.308,302,462,353,318,-11.0,37.0,6.0,-25.695798873901367,3.662109136581421,22.399900436401367,-0.671875,0.04736328125,-0.49560546875
0.313,302,452,351,318,-11.0,37.0,6.0,-26.489255905151367,5.676269054412842,26.306150436401367,-0.671875,0.04736328125,-0.49560546875
0.328,300,419,359,318,-11.0,37.0,6.0,-27.099607467651367,10.498045921325684,35.2783203125,-0.5052490234375,0.06494140625,-0.421142578125
0.335,304,414,372,321,-11.0,37.0,6.0,-27.099607467651367,10.498045921325684,35.2783203125,-0.4046630859375,0.0299072265625,-0.3465576171875
0.343,304,414,347,318,-11.0,37.0,6.0,-27.221677780151367,13.183592796325684,39.4287109375,-0.4046630859375,0.0299072265625,-0.3465576171875
0.376,302,400,331,316,-15.0,38.0,12.0,-14.282225608825684,17.578125,47.912593841552734,-0.18408203125,-0.1551513671875,-0.0694580078125
0.376,301,390,334,316,-15.0,38.0,12.0,-14.282225608825684,17.578125,47.912593841552734,-0.04541015625,-0.3292236328125,0.173095703125
0.377,301,400,346,318,-15.0,38.0,12.0,3.723144292831421,16.41845703125,51.635738372802734,-0.04541015625,-0.3292236328125,0.173095703125
0.390,304,947,523,318,-15.0,38.0,12.0,87.34130096435547,-8.30078125,53.955074310302734,0.3436279296875,-0.866943359375,1.0736083984375
0.399,306,3088,586,346,-15.0,38.0,12.0,87.34130096435547,-8.30078125,53.955074310302734,0.4765625,-0.7889404296875,1.5076904296875
0.408,306,3147,537,1428,-15.0,38.0,12.0,167.41941833496094,-35.0341796875,49.072261810302734,0.4765625,-0.7889404296875,1.5076904296875
0.416,304,3147,531,2194,-15.0,38.0,12.0,309.9365234375,-15.319823265075684,53.527828216552734,-0.880126953125,2.437744140625,-2.2041015625
0.424,308,3147,533,2415,-15.0,38.0,12.0,309.9365234375,-15.319823265075684,53.527828216552734,-0.880126953125,2.437744140625,-2.2041015625
0.433,306,3147,600,2757,-15.0,38.0,12.0,142.9443359375,-11.413573265075684,5.920409679412842,-1.339111328125,2.829833984375,-2.736572265625
0.446,305,3147,680,3147,-15.0,38.0,12.0,-219.29930114746094,-105.95702362060547,-96.98485565185547,-0.697998046875,-1.1075439453125,-0.7464599609375
0.455,304,3147,722,2989,-10.0,37.0,13.0,-427.4291687011719,-174.13328552246094,-164.91697692871094,-0.697998046875,-1.1075439453125,-0.7464599609375
0.501,305,3147,644,3147,-10.0,37.0,13.0,-354.7362976074219,-140.380859375,-158.26416015625,-1.822509765625,-1.0081787109375,-1.3316650390625
0.502,304,3147,632,2010,-10.0,37.0,13.0,-200.43943786621094,-67.138671875,-108.15428924560547,-3.2491455078125,0.0059814453125,-1.832763671875
0.502,306,3147,721,3147,-10.0,37.0,13.0,-98.63280487060547,-21.911619186401367,-58.166500091552734,-3.2491455078125,0.0059814453125,-1.832763671875
0.502,334,3147,554,2645,-10.0,37.0,13.0,-53.771968841552734,-9.09423828125,-30.883787155151367,-3.0762939453125,-0.4775390625,-1.046142578125
0.512,316,3147,705,3147,-10.0,37.0,13.0,-26.245115280151367,-7.995604991912842,-15.014647483825684,-1.844482421875,-0.245849609375,-0.3868408203125
0.515,322,3147,706,3147,-10.0,37.0,13.0,27.221677780151367,0.6103515625,5.859374523162842,-1.844482421875,-0.245849609375,-0.3868408203125
0.522,322,3147,707,3147,-10.0,37.0,13.0,77.5146484375,18.85986328125,25.817869186401367,-1.782958984375,0.514404296875,-0.9122314453125
0.536,330,3147,666,3080,-10.0,37.0,13.0,79.77294921875,29.113767623901367,27.526853561401367,-1.396728515625,0.0855712890625,-1.005859375
0.546,365,3147,608,2625,-10.0,37.0,13.0,59.814449310302734,30.578611373901367,18.798828125,-1.396728515625,0.0855712890625,-1.005859375
0.552,551,3147,598,1580,-10.0,34.0,8.0,50.292964935302734,28.869626998901367,13.000487327575684,-1.1517333984375,-0.0867919921875,-0.789794921875
0.575,428,3147,578,974,-10.0,34.0,8.0,57.556148529052734,24.536130905151367,13.427733421325684,-0.7017822265625,-0.1004638671875,-0.4022216796875
0.575,369,2738,625,330,-10.0,34.0,8.0,74.5849609375,15.075682640075684,16.357421875,-0.7017822265625,-0.1004638671875,-0.4022216796875
0.582,306,1363,639,321,-10.0,34.0,8.0,87.82958221435547,-0.7934569716453552,16.78466796875,-0.48095703125,-0.200439453125,-0.2420654296875
0.615,306,473,540,319,-10.0,34.0,8.0,99.54833221435547,-13.854979515075684,11.474608421325684,-0.4283447265625,-0.343994140625,-0.36962890625
0.615,304,354,410,318,-10.0,34.0,8.0,115.78368377685547,-15.075682640075684,3.234863042831421,-0.4283447265625,-0.343994140625,-0.36962890625
0.616,300,331,336,318,-10.0,34.0,8.0,118.89647674560547,-10.559081077575684,-1.5869139432907104,-0.510986328125,0.177001953125,-0.5203857421875
0.628,301,323,347,319,-10.0,34.0,8.0,91.61376190185547,-8.48388671875,-3.295898199081421,-0.5936279296875,0.83984375,-0.7938232421875
0.636,302,343,371,318,-10.0,34.0,8.0,36.31591796875,-10.986327171325684,-5.676269054412842,-0.5936279296875,0.83984375,-0.7938232421875
0.643,304,390,370,318,-10.0,34.0,8.0,-26.611326217651367,-15.991209983825684,-10.681151390075684,-0.5262451171875,0.4593505859375,-0.6650390625
0.657,305,373,364,318,-11.0,36.0,11.0,-66.162109375,-18.61572265625,-16.05224609375,-0.419677734375,-0.316650390625,-0.090576171875
0.678,302,400,338,317,-11.0,36.0,11.0,-66.46728515625,-18.00537109375,-18.12744140625,-0.419677734375,-0.316650390625,-0.090576171875
0.678,302,404,347,316,-11.0,36.0,11.0,-34.48486328125,-13.427733421325684,-16.29638671875,-0.44384765625,-0.3448486328125,-0.0125732421875
0.688,304,391,344,316,-11.0,36.0,11.0,6.286620616912842,-5.493163585662842,-11.535643577575684,-0.5294189453125,-0.0887451171875,-0.254638671875
0.696,304,414,356,316,-11.0,36.0,11.0,32.1044921875,1.4038084745407104,-7.019042491912842,-0.5294189453125,-0.0887451171875,-0.254638671875
0.719,304,391,359,318,-11.0,36.0,11.0,38.26904296875,4.638671875,-6.469726085662842,-0.5098876953125,0.0179443359375,-0.3465576171875
0.719,302,385,360,317,-11.0,36.0,11.0,32.1044921875,5.0048828125,-9.70458984375,-0.5374755859375,0.180419921875,-0.46630859375
0.726,304,390,361,316,-11.0,36.0,11.0,19.04296875,4.45556640625,-12.695311546325684,-0.5374755859375,0.180419921875,-0.46630859375
0.734,304,400,398,315,-11.0,36.0,11.0,3.906249761581421,4.5166015625,-11.779784202575684,-0.555908203125,0.1763916015625,-0.4755859375
0.747,304,360,383,316,-11.0,36.0,11.0,-6.896972179412842,5.676269054412842,-6.530761241912842,-0.54345703125,0.1031494140625,-0.4049072265625
0.755,306,354,375,315,-13.0,36.0,8.0,-10.070799827575684,7.202147960662842,1.03759765625,-0.54345703125,0.1031494140625,-0.4049072265625
0.764,304,334,371,316,-13.0,36.0,8.0,-7.690429210662842,8.544921875,8.48388671875,-0.557373046875,0.056640625,-0.3779296875
0.781,302,369,324,318,-13.0,36.0,8.0,-3.662109136581421,9.82666015625,14.892577171325684,-0.603271484375,0.0277099609375,-0.36767578125
0.786,312,347,338,316,-13.0,36.0,8.0,-1.5258787870407104,11.596678733825684,20.263669967651367,-0.6458740234375,0.01123046875,-0.3563232421875
0.793,321,360,364,316,-13.0,36.0,8.0,-2.0751953125,14.160155296325684,24.841306686401367,-0.66796875,-0.000732421875,-0.33837890625
0.808,324,347,407,316,-13.0,36.0,8.0,-3.051757574081421,17.63916015625,28.747556686401367,-0.67626953125,0.005615234375,-0.333984375
0.832,338,385,473,316,-13.0,36.0,8.0,-4.33349609375,21.423337936401367,31.677244186401367,-0.6790771484375,0.0159912109375,-0.3170166015625
0.832,309,458,490,318,-13.0,36.0,8.0,-7.995604991912842,23.315427780151367,32.65380859375,-0.6568603515625,-0.0234375,-0.229736328125
0.837,312,504,433,322,-13.0,36.0,8.0,-13.183592796325684,20.812986373901367,31.555173873901367,-0.5660400390625,-0.113037109375,-0.0728759765625
0.846,401,1050,330,306,-13.0,36.0,8.0,-13.488768577575684,12.939452171325684,29.602048873901367,-0.3751220703125,-0.2391357421875,0.129638671875
0.854,485,2978,467,312,-14.0,34.0,8.0,-0.6103515625,-0.6713866591453552,27.770994186401367,-0.046630859375,-0.3973388671875,0.384033203125
0.884,304,3147,490,1650,-14.0,34.0,8.0,36.4990234375,-18.1884765625,26.000974655151367,0.2935791015625,-0.4306640625,0.451904296875
0.885,306,3147,570,2119,-14.0,34.0,8.0,102.17284393310547,-24.536130905151367,28.015134811401367,-0.019287109375,0.4901123046875,-0.2945556640625
0.885,304,3147,652,2424,-14.0,34.0,8.0,142.27294921875,-26.733396530151367,29.724119186401367,-0.55615234375,1.7864990234375,-1.1209716796875
0.897,304,3147,706,3115,-14.0,34.0,8.0,75.01220703125,-70.80078125,2.929687261581421,-0.5255126953125,1.7060546875,-0.957275390625
0.908,306,3147,706,3147,-14.0,34.0,8.0,-57.800289154052734,-146.78955078125,-49.377437591552734,-0.3138427734375,0.8974609375,-0.5556640625
0.927,313,3147,808,3147,-14.0,34.0,8.0,-143.4326171875,-190.00242614746094,-98.32762908935547,-0.500244140625,0.2674560546875,-0.8153076171875
0.928,337,3147,846,3147,-14.0,34.0,8.0,-161.49900817871094,-171.75291442871094,-132.2021484375,-1.236572265625,-0.1712646484375,-1.6180419921875
0.937,411,3147,748,3147,-14.0,34.0,8.0,-162.47557067871094,-119.56786346435547,-134.1552734375,-2.0228271484375,-0.3631591796875,-1.9600830078125
0.944,371,3147,782,3147,-14.0,34.0,8.0,-160.21728515625,-70.9228515625,-96.49657440185547,-2.6676025390625,-0.774169921875,-1.432861328125
0.957,376,3147,785,3147,-9.0,38.0,16.0,-119.26268768310547,-33.5693359375,-41.137691497802734,-3.1639404296875,-1.183349609375,-0.685302734375
0.965,322,3147,856,3147,-9.0,38.0,16.0,-52.062984466552734,-11.108397483825684,4.2724609375,-3.06884765625,-1.3023681640625,-0.0906982421875
0.983,323,3147,894,3147,-9.0,38.0,16.0,3.967284917831421,-4.638671875,32.2265625,-2.252197265625,-1.037353515625,0.177978515625
0.987,330,3147,840,3147,-9.0,38.0,16.0,57.922359466552734,5.676269054412842,48.156734466552734,-1.7386474609375,0.2349853515625,-0.3267822265625
0.995,400,3147,746,3147,-9.0,38.0,16.0,83.00780487060547,19.34814453125,44.433589935302734,-1.8114013671875,1.0885009765625,-0.924072265625
1.003,338,3147,780,3147,-9.0,38.0,16.0,54.687496185302734,19.95849609375,17.578125,-1.78271484375,0.5679931640625,-0.829833984375
1.031,343,3147,567,3114,-9.0,38.0,16.0,22.155759811401367,18.1884765625,-6.225585460662842,-1.6072998046875,-0.0758056640625,-0.57568359375
1.031,376,3147,667,2891,-9.0,38.0,16.0,18.9208984375,22.827146530151367,-10.498045921325684,-1.3973388671875,-0.3023681640625,-0.6036376953125
1.033,342,3147,697,2578,-9.0,38.0,16.0,32.16552734375,27.465818405151367,-2.685546636581421,-1.1591796875,-0.2125244140625,-0.8140869140625
1.050,332,3147,631,1474,-10.0,34.0,14.0,37.9638671875,26.855466842651367,5.981444835662842,-0.9388427734375,-0.0638427734375,-0.94580078125
1.056,325,3147,574,371,-10.0,34.0,14.0,25.695798873901367,21.850584030151367,10.559081077575684,-0.7701416015625,0.0416259765625,-0.88134765625
1.063,327,1527,504,315,-10.0,34.0,14.0,1.8920897245407104,12.878417015075684,10.620116233825684,-0.547607421875,-0.07470703125,-0.580810546875
1.086,307,607,497,327,-10.0,34.0,14.0,-11.718749046325684,3.967284917831421,5.0048828125,-0.3232421875,-0.40087890625,-0.2403564453125
1.086,322,378,467,318,-10.0,34.0,14.0,1.2817381620407104,2.197265625,-1.6479490995407104,-0.2235107421875,-0.4608154296875,-0.035400390625
1.093,393,342,418,315,-10.0,34.0,14.0,27.465818405151367,3.723144292831421,-2.38037109375,-0.2969970703125,-0.0872802734375,0.0003662109375
1.107,302,354,371,316,-10.0,34.0,14.0,44.494625091552734,1.3427733182907104,2.13623046875,-0.4266357421875,0.3466796875,-0.13232421875
1.116,302,328,371,321,-10.0,34.0,14.0,46.691890716552734,-2.25830078125,6.469726085662842,-0.4874267578125,0.5794677734375,-0.3592529296875
1.126,300,343,364,316,-10.0,34.0,14.0,34.66796875,-2.38037109375,6.408690929412842,-0.52587890625,0.61083984375,-0.526611328125
1.137,307,348,385,317,-10.0,34.0,14.0,7.019042491912842,-1.8310545682907104,2.01416015625,-0.5252685546875,0.4013671875,-0.4849853515625
1.146,302,364,388,317,-10.0,33.0,17.0,-21.911619186401367,-2.50244140625,-3.479003667831421,-0.5120849609375,0.0589599609375,-0.3211669921875
1.153,337,364,373,315,-10.0,33.0,17.0,-28.564451217651367,-1.03759765625,-6.408690929412842,-0.532470703125,-0.1220703125,-0.2025146484375
1.167,316,348,414,317,-10.0,33.0,17.0,-17.578125,1.4038084745407104,-5.859374523162842,-0.5810546875,-0.1153564453125,-0.1651611328125
1.191,310,379,408,318,-10.0,33.0,17.0,-8.056640625,1.9531248807907104,-5.065917491912842,-0.6463623046875,-0.0750732421875,-0.1680908203125
1.191,292,402,398,316,-10.0,33.0,17.0,-4.39453125,1.5869139432907104,-5.126952648162842,-0.6982421875,-0.0595703125,-0.1820068359375
1.197,310,337,403,316,-10.0,33.0,17.0,-0.1220703050494194,2.13623046875,-4.7607421875,-0.717041015625,-0.046142578125,-0.19775390625
1.206,310,359,403,318,-10.0,33.0,17.0,6.958007335662842,3.845214605331421,-2.38037109375,-0.71484375,-0.015869140625,-0.2071533203125
1.216,309,371,390,316,-10.0,33.0,17.0,13.916014671325684,5.615233898162842,2.197265625,-0.7054443359375,0.010009765625,-0.21337890625
1.227,309,376,416,316,-10.0,33.0,17.0,18.73779296875,6.835937023162842,7.751464366912842,-0.701171875,0.0316162109375,-0.242919921875
1.242,308,402,414,315,-10.0,33.0,17.0,20.690916061401367,7.080077648162842,12.634276390075684,-0.704833984375,0.061767578125,-0.287353515625
1.244,313,416,424,316,-12.0,36.0,10.0,20.690916061401367,7.080077648162842,12.634276390075684,-0.7047119140625,0.07958984375,-0.3148193359375
1.258,329,424,401,316,-12.0,36.0,10.0,10.681151390075684,2.807616949081421,16.11328125,-0.6829833984375,0.0780029296875,-0.3236083984375
1.266,333,410,398,315,-12.0,36.0,10.0,2.0751953125,-0.1220703050494194,15.258788108825684,-0.616943359375,0.0604248046875,-0.3031005859375
1.292,347,361,408,316,-12.0,36.0,10.0,2.0751953125,-0.1220703050494194,15.258788108825684,-0.487548828125,-0.0126953125,-0.2088623046875
1.293,334,468,419,310,-12.0,36.0,10.0,-15.136717796325684,-5.676269054412842,17.333984375,-0.269287109375,-0.188232421875,-0.01904296875
1.296,302,512,447,319,-12.0,36.0,10.0,-13.122557640075684,-9.521484375,23.681638717651367,0.054443359375,-0.4290771484375,0.1922607421875
1.303,318,1362,539,324,-12.0,36.0,10.0,-13.122557640075684,-9.521484375,23.681638717651367,0.4327392578125,-0.5916748046875,0.3507080078125
1.318,338,3147,523,1577,-12.0,36.0,10.0,50.659175872802734,-15.014647483825684,46.569820404052734,0.6795654296875,-0.4713134765625,0.3900146484375
1.330,572,3147,419,1931,-12.0,36.0,10.0,104.18700408935547,-8.4228515625,59.082027435302734,0.1634521484375,0.3648681640625,-0.2001953125
1.333,359,3147,497,2218,-12.0,36.0,10.0,104.18700408935547,-8.4228515625,59.082027435302734,-0.5103759765625,1.5557861328125,-0.8411865234375
1.353,714,3147,333,2962,-15.0,36.0,14.0,57.983394622802734,-4.45556640625,46.691890716552734,-0.396728515625,1.4088134765625,-0.4202880859375
1.360,658,3147,433,3147,-15.0,36.0,14.0,-65.673828125,-55.114742279052734,7.141112804412842,-0.088623046875,0.4327392578125,0.18017578125
1.363,501,3147,691,3147,-15.0,36.0,14.0,-65.673828125,-55.114742279052734,7.141112804412842,-0.4415283203125,0.1181640625,-0.0430908203125
1.393,495,3147,603,3147,-15.0,36.0,14.0,-96.13036346435547,-85.69335174560547,-26.916501998901367,-1.3819580078125,0.528564453125,-1.0821533203125
1.393,316,3147,998,3147,-15.0,36.0,14.0,-80.93260955810547,-57.312007904052734,-42.053218841552734,-2.341064453125,0.6893310546875,-2.097412109375
1.394,387,3147,867,3147,-15.0,36.0,14.0,-80.93260955810547,-57.312007904052734,-42.053218841552734,-3.2398681640625,-0.0650634765625,-1.9876708984375
1.407,344,3147,814,3147,-15.0,36.0,14.0,-122.19237518310547,-15.075682640075684,-55.541988372802734,-3.792724609375,-0.90283203125,-1.0673828125
1.415,344,3147,827,3147,-15.0,36.0,14.0,-92.10204315185547,-4.39453125,-33.99658203125,-3.56103515625,-1.4544677734375,-0.3193359375
1.423,313,3147,869,3147,-15.0,36.0,14.0,-92.10204315185547,-4.39453125,-33.99658203125,-2.551025390625,-1.380615234375,-0.0650634765625
1.437,313,3147,869,3147,-12.0,32.0,20.0,44.494625091552734,28.808591842651367,45.776363372802734,-1.89501953125,0.0313720703125,-0.5587158203125
1.445,309,3147,879,3147,-12.0,32.0,20.0,89.17235565185547,48.706050872802734,70.556640625,-1.9677734375,1.19140625,-1.148681640625
1.457,308,3147,834,3147,-12.0,32.0,20.0,89.17235565185547,48.706050872802734,70.556640625,-1.9677734375,1.19140625,-1.148681640625
1.467,310,3147,772,3147,-12.0,32.0,20.0,28.686521530151367,30.883787155151367,14.038084983825684,-1.80078125,-0.02197265625,-0.6048583984375
1.476,313,3147,763,3147,-12.0,32.0,20.0,28.686521530151367,30.883787155151367,14.038084983825684,-1.5472412109375,-0.2904052734375,-0.4447021484375
1.501,315,3147,754,3147,-12.0,32.0,20.0,15.930174827575684,28.869626998901367,2.44140625,-1.5472412109375,-0.2904052734375,-0.4447021484375
1.501,306,3147,700,2492,-12.0,32.0,20.0,45.532222747802734,35.5224609375,20.263669967651367,-1.001220703125,-0.0277099609375,-0.6839599609375
1.505,309,3147,671,1598,-12.0,32.0,20.0,45.532222747802734,35.5224609375,20.263669967651367,-0.673583984375,0.0240478515625,-0.701171875
1.513,308,3147,644,331,-12.0,32.0,20.0,56.396480560302734,28.564451217651367,18.4326171875,-0.673583984375,0.0240478515625,-0.701171875
1.535,306,844,548,318,-12.0,32.0,20.0,46.874996185302734,5.187987804412842,1.0986328125,-0.02197265625,-0.1644287109375,-0.353271484375
1.535,308,415,485,318,-19.0,35.0,12.0,46.874996185302734,5.187987804412842,1.0986328125,0.001953125,-0.29150390625,-0.1343994140625
1.544,304,391,462,323,-19.0,35.0,12.0,42.663570404052734,-1.7089842557907104,-7.812499523162842,0.001953125,-0.29150390625,-0.1343994140625
1.561,347,383,346,308,-19.0,35.0,12.0,44.555660247802734,-0.1220703050494194,-20.996091842651367,-0.43310546875,0.5177001953125,-0.3668212890625
1.566,306,403,404,318,-19.0,35.0,12.0,44.555660247802734,-0.1220703050494194,-20.996091842651367,-0.50439453125,0.7001953125,-0.4981689453125
1.573,305,388,400,319,-19.0,35.0,12.0,18.4326171875,-4.33349609375,-25.024412155151367,-0.50439453125,0.7001953125,-0.4981689453125
1.600,309,423,385,317,-19.0,35.0,12.0,-42.724605560302734,-10.314940452575684,-26.611326217651367,-0.477783203125,0.2064208984375,-0.353271484375
1.600,363,445,383,316,-19.0,35.0,12.0,-42.724605560302734,-10.314940452575684,-26.611326217651367,-0.447998046875,-0.0728759765625,-0.177490234375
1.604,315,408,424,316,-19.0,35.0,12.0,-43.518062591552734,-8.60595703125,-26.367185592651367,-0.447998046875,-0.0728759765625,-0.177490234375
1.617,324,430,411,310,-19.0,35.0,12.0,-11.535643577575684,6.286620616912842,-16.7236328125,-0.510009765625,-0.1533203125,-0.0926513671875
1.628,387,465,348,316,-19.0,35.0,12.0,-11.535643577575684,6.286620616912842,-16.7236328125,-0.52734375,-0.11376953125,-0.0625
1.638,321,446,385,316,-15.0,34.0,13.0,-3.479003667831421,10.803221702575684,-13.183592796325684,-0.52734375,-0.11376953125,-0.0625
1.649,316,426,372,315,-15.0,34.0,13.0,0.4882812201976776,10.620116233825684,-16.17431640625,-0.6334228515625,0.033935546875,-0.0648193359375
1.655,313,433,359,316,-15.0,34.0,13.0,0.4882812201976776,10.620116233825684,-16.17431640625,-0.668701171875,0.0926513671875,-0.057373046875
1.672,318,426,378,315,-15.0,34.0,13.0,0.4272460639476776,11.596678733825684,-13.305663108825684,-0.668701171875,0.0926513671875,-0.057373046875
1.677,321,437,383,316,-15.0,34.0,13.0,0.7324218153953552,12.573241233825684,-5.737304210662842,-0.6490478515625,0.097412109375,-0.0504150390625
1.701,318,430,384,316,-15.0,34.0,13.0,4.5166015625,13.366698265075684,4.08935546875,-0.6490478515625,0.097412109375,-0.0504150390625
1.702,302,404,383,316,-15.0,34.0,13.0,11.291502952575684,14.526366233825684,12.756346702575684,-0.6090087890625,0.1007080078125,-0.103759765625
1.708,364,371,315,306,-15.0,34.0,13.0,16.41845703125,15.014647483825684,18.24951171875,-0.491943359375,0.078125,-0.1878662109375
1.716,304,416,390,316,-15.0,34.0,13.0,16.2353515625,14.221190452575684,20.385740280151367,-0.491943359375,0.078125,-0.1878662109375
1.741,313,441,391,321,-15.0,34.0,13.0,11.108397483825684,12.634276390075684,20.385740280151367,-0.4305419921875,0.0537109375,-0.193359375
1.741,376,678,410,316,-12.0,33.0,15.0,4.638671875,9.27734375,19.22607421875,-0.196044921875,-0.0579833984375,-0.0927734375
1.746,382,1407,385,330,-12.0,33.0,15.0,2.624511480331421,3.479003667831421,19.04296875,-0.196044921875,-0.0579833984375,-0.0927734375
1.756,454,3147,317,334,-12.0,33.0,15.0,11.047362327575684,-2.807616949081421,22.094724655151367,0.0272216796875,-0.1453857421875,0.013427734375
1.776,418,3147,316,753,-12.0,33.0,15.0,35.70556640625,-6.408690929412842,28.381345748901367,-0.2298583984375,0.196533203125,-0.5054931640625
1.777,437,3147,318,1125,-12.0,33.0,15.0,78.0029296875,2.685546636581421,38.4521484375,-0.2298583984375,0.196533203125,-0.5054931640625
1.784,332,3147,536,2249,-12.0,33.0,15.0,97.53417205810547,17.51708984375,47.241207122802734,-0.5589599609375,0.7408447265625,-0.831298828125
1.804,323,3147,840,3147,-12.0,33.0,15.0,40.893550872802734,3.173827886581421,39.24560546875,0.054931640625,0.00537109375,0.07470703125
1.806,329,3147,932,3147,-12.0,33.0,15.0,-43.762203216552734,-35.400390625,20.874021530151367,0.054931640625,0.00537109375,0.07470703125
1.814,947,3147,858,2863,-12.0,33.0,15.0,-70.12939453125,-60.729976654052734,7.385253429412842,-0.3526611328125,-0.041015625,-0.048583984375
1.846,324,3147,1056,3147,-16.0,33.0,10.0,-40.832515716552734,-63.415523529052734,-6.896972179412842,-1.8653564453125,1.0072021484375,-1.9658203125
1.846,462,3147,1012,3147,-16.0,33.0,10.0,-25.512693405151367,-57.128902435302734,-27.893064498901367,-1.8653564453125,1.0072021484375,-1.9658203125
1.846,401,3147,996,3147,-16.0,33.0,10.0,-66.7724609375,-51.452632904052734,-49.621578216552734,-2.3980712890625,0.56689453125,-2.24755859375
1.859,310,3147,1043,3147,-16.0,33.0,10.0,-109.98534393310547,-41.076656341552734,-57.250972747802734,-3.3876953125,-1.003662109375,-0.2021484375
1.866,315,3147,1014,3147,-16.0,33.0,10.0,-100.09764862060547,-26.428220748901367,-47.180171966552734,-3.3876953125,-1.003662109375,-0.2021484375
1.874,313,3147,1078,3147,-16.0,33.0,10.0,-52.062984466552734,-8.11767578125,-23.864744186401367,-2.958251953125,-1.3739013671875,0.39697265625
1.888,310,3147,1081,3147,-16.0,33.0,10.0,13.061522483825684,15.869139671325684,10.375975608825684,-2.0377197265625,-0.746337890625,0.0516357421875
1.910,315,3147,1064,3147,-16.0,33.0,10.0,76.72119140625,41.809078216552734,41.503902435302734,-1.769775390625,0.632080078125,-0.940185546875
1.910,316,3147,991,3147,-16.0,33.0,10.0,86.30370330810547,51.818843841552734,40.893550872802734,-1.9345703125,0.9820556640625,-1.3199462890625
1.918,323,3147,971,3147,-16.0,33.0,10.0,39.85595703125,41.564937591552734,12.634276390075684,-1.878173828125,0.269775390625,-0.9320068359375
1.926,314,3147,934,3147,-12.0,35.0,16.0,4.33349609375,34.72900390625,-8.6669921875,-1.6922607421875,-0.1683349609375,-0.5504150390625
1.944,338,3147,816,3075,-12.0,35.0,16.0,2.990722417831421,36.80419921875,-12.756346702575684,-1.49365234375,-0.169189453125,-0.472900390625
1.953,319,3147,759,2785,-12.0,35.0,16.0,17.333984375,39.306640625,-9.6435546875,-1.2747802734375,-0.080322265625,-0.576171875
1.957,328,3147,673,1476,-12.0,35.0,16.0,29.357908248901367,38.330078125,-6.469726085662842,-1.0040283203125,-0.0775146484375,-0.644287109375
1.965,323,2756,667,331,-12.0,35.0,16.0,34.36279296875,35.70556640625,-3.906249761581421,-0.7373046875,-0.0994873046875,-0.6722412109375
1.973,321,1496,667,310,-12.0,35.0,16.0,34.7900390625,31.860349655151367,-2.01416015625,-0.4522705078125,-0.00830078125,-0.6513671875
2.007,304,445,584,323,-12.0,35.0,16.0,27.526853561401367,23.803709030151367,-3.295898199081421,-0.1727294921875,-0.1204833984375,-0.4429931640625
2.008,308,361,545,321,-12.0,35.0,16.0,22.399900436401367,15.197752952575684,-10.009765625,-0.107177734375,-0.3665771484375,-0.189208984375
2.008,354,378,316,307,-12.0,35.0,16.0,31.066892623901367,12.573241233825684,-15.624999046325684,-0.287841796875,-0.0877685546875,-0.189208984375
2.017,313,438,379,317,-12.0,35.0,16.0,33.8134765625,12.145995140075684,-15.686034202575684,-0.44775390625,0.4730224609375,-0.3675537109375
2.026,304,376,356,318,-15.0,36.0,14.0,13.000487327575684,7.873534679412842,-15.319823265075684,-0.485595703125,0.645263671875,-0.4990234375
2.049,307,393,382,316,-15.0,36.0,14.0,-14.160155296325684,2.38037109375,-17.27294921875,-0.5206298828125,0.44970703125,-0.5032958984375
2.049,304,417,375,317,-15.0,36.0,14.0,-29.968259811401367,-1.4648436307907104,-20.324705123901367,-0.517333984375,0.1702880859375,-0.39404296875
2.056,307,361,360,316,-15.0,36.0,14.0,-31.066892623901367,-1.5869139432907104,-22.094724655151367,-0.4713134765625,-0.0548095703125,-0.268310546875
2.065,321,377,347,316,-15.0,36.0,14.0,-20.935056686401367,3.417968511581421,-19.83642578125,-0.460205078125,-0.1414794921875,-0.1998291015625
2.078,327,415,321,307,-15.0,36.0,14.0,-10.009765625,10.192870140075684,-14.099120140075684,-0.4715576171875,-0.1395263671875,-0.173828125
2.111,376,391,319,313,-15.0,36.0,14.0,-5.493163585662842,13.305663108825684,-10.314940452575684,-0.4945068359375,-0.1158447265625,-0.1387939453125
2.111,348,376,313,308,-15.0,36.0,14.0,-5.310058116912842,11.657713890075684,-11.230467796325684,-0.5390625,-0.088134765625,-0.116943359375
2.111,322,383,359,314,-15.0,36.0,14.0,-4.39453125,9.09423828125,-13.793944358825684,-0.5850830078125,-0.0531005859375,-0.14697265625
2.116,372,393,316,309,-15.0,36.0,14.0,-2.807616949081421,8.23974609375,-13.549803733825684,-0.614501953125,-0.025390625,-0.19775390625
2.124,322,386,393,316,-13.0,34.0,12.0,-1.5258787870407104,8.23974609375,-9.033203125,-0.6328125,-0.0291748046875,-0.222900390625
2.151,327,387,385,315,-13.0,34.0,12.0,1.8920897245407104,8.056640625,-1.7089842557907104,-0.6265869140625,-0.0537109375,-0.2255859375
2.151,310,388,377,300,-13.0,34.0,12.0,8.7890625,7.812499523162842,6.042479991912842,-0.58935546875,-0.071044921875,-0.2425537109375
2.153,310,387,390,318,-13.0,34.0,12.0,15.075682640075684,7.507323741912842,11.596678733825684,-0.5401611328125,-0.081787109375,-0.2705078125
2.168,307,383,361,317,-13.0,34.0,12.0,16.41845703125,6.958007335662842,13.671874046325684,-0.4908447265625,-0.091064453125,-0.2802734375
2.177,308,388,356,316,-13.0,34.0,12.0,12.634276390075684,5.981444835662842,13.366698265075684,-0.43701171875,-0.0703125,-0.2684326171875
2.184,311,359,370,315,-13.0,34.0,12.0,5.126952648162842,3.417968511581421,12.817381858825684,-0.3594970703125,-0.0213623046875,-0.2314453125
2.219,338,484,310,306,-13.0,34.0,12.0,-5.554198741912842,-3.295898199081421,12.084959983825684,-0.2132568359375,-0.033935546875,-0.142822265625
2.219,323,658,354,321,-13.0,34.0,12.0,-16.7236328125,-15.319823265075684,11.535643577575684,0.0316162109375,-0.1395263671875,0.01123046875
2.220,356,2012,338,316,-13.0,34.0,12.0,-15.441893577575684,-28.686521530151367,14.099120140075684,0.31396484375,-0.1903076171875,0.175537109375
2.233,318,3147,472,1355,-12.0,35.0,12.0,10.375975608825684,-36.865234375,22.094724655151367,0.4171142578125,0.0379638671875,0.19482421875
2.236,306,3147,536,1943,-12.0,35.0,12.0,55.480953216552734,-29.663084030151367,35.7666015625,-0.174072265625,0.8614501953125,-0.4173583984375
2.268,306,3147,617,2321,-12.0,35.0,12.0,82.82469940185547,-6.225585460662842,45.349117279052734,-0.8468017578125,1.587646484375,-0.93017578125
2.271,304,3147,818,2874,-12.0,35.0,12.0,26.184080123901367,-7.690429210662842,26.306150436401367,-0.6978759765625,1.0072021484375,-0.511962890625
2.271,308,3147,858,3147,-12.0,35.0,12.0,-75.98876953125,-42.785640716552734,-2.746581792831421,-0.2894287109375,-0.0762939453125,-0.1121826171875
2.297,313,3147,992,3147,-12.0,35.0,12.0,-100.70800018310547,-68.115234375,-13.854979515075684,-0.5894775390625,-0.39306640625,-0.31640625
2.298,313,3147,1025,3147,-12.0,35.0,12.0,-60.913082122802734,-72.6318359375,-21.179197311401367,-1.5509033203125,0.0555419921875,-0.9656982421875
2.316,319,3147,1026,3147,-12.0,35.0,12.0,-40.954586029052734,-63.232418060302734,-28.808591842651367,-2.3892822265625,0.2640380859375,-1.5010986328125
2.326,316,3147,1083,3147,-12.0,35.0,12.0,-48.339839935302734,-43.090816497802734,-30.700681686401367,-3.0360107421875,-0.20654296875,-1.4322509765625
2.326,383,3147,904,3147,-14.0,36.0,19.0,-52.368160247802734,-16.7236328125,-22.766111373901367,-3.45458984375,-0.7091064453125,-1.0223388671875
2.326,523,3147,829,3147,-14.0,36.0,19.0,-39.97802734375,10.314940452575684,-3.479003667831421,-3.1636962890625,-0.984130859375,-0.548095703125
2.334,354,3147,978,3147,-14.0,36.0,19.0,-13.854979515075684,29.357908248901367,24.047849655151367,-2.310791015625,-0.7088623046875,-0.2955322265625
2.353,332,3147,921,3147,-14.0,36.0,19.0,25.817869186401367,41.870113372802734,50.048824310302734,-1.8609619140625,0.353759765625,-0.6834716796875
2.356,375,3147,816,3147,-14.0,36.0,19.0,48.461910247802734,44.250484466552734,51.391597747802734,-1.849609375,0.970947265625,-1.167724609375
2.364,334,3147,766,3147,-14.0,36.0,19.0,48.461910247802734,44.250484466552734,51.391597747802734,-1.723876953125,0.45458984375,-1.040283203125
2.377,685,3147,506,1548,-14.0,36.0,19.0,5.249022960662842,12.634276390075684,-6.225585460662842,-1.5150146484375,-0.082763671875,-0.6619873046875
2.386,318,3147,813,3069,-14.0,36.0,19.0,16.4794921875,9.765625,-16.29638671875,-1.3065185546875,-0.0963134765625,-0.5538330078125
2.394,371,3147,708,2613,-14.0,36.0,19.0,16.4794921875,9.765625,-16.29638671875,-1.120849609375,0.04931640625,-0.6748046875
2.422,348,3147,679,1575,-14.0,36.0,19.0,37.2314453125,19.8974609375,-13.488768577575684,-0.936279296875,0.05810546875,-0.7022705078125
2.422,324,3147,694,402,-14.0,35.0,19.0,17.822265625,19.8974609375,-13.366698265075684,-0.6922607421875,-0.0382080078125,-0.560546875
2.424,306,2303,678,334,-14.0,35.0,19.0,17.822265625,19.8974609375,-13.366698265075684,-0.3809814453125,-0.135009765625,-0.35546875
2.437,401,1175,625,315,-14.0,35.0,19.0,-14.221190452575684,10.681151390075684,-7.507323741912842,-0.1256103515625,-0.2919921875,-0.1798095703125
2.447,369,497,572,307,-14.0,35.0,19.0,-14.282225608825684,2.197265625,-10.803221702575684,-0.07421875,-0.3740234375,-0.119873046875
2.456,375,347,580,318,-14.0,35.0,19.0,-14.282225608825684,2.197265625,-10.803221702575684,-0.2413330078125,-0.104248046875,-0.21435546875
2.467,310,328,572,318,-14.0,35.0,19.0,-18.12744140625,-15.808104515075684,-21.850584030151367,-0.441162109375,0.3056640625,-0.3922119140625
2.475,312,353,555,316,-14.0,35.0,19.0,-28.320310592651367,-21.667478561401367,-19.6533203125,-0.537841796875,0.4410400390625,-0.5059814453125
2.484,425,375,411,315,-14.0,35.0,19.0,-28.320310592651367,-21.667478561401367,-19.6533203125,-0.5736083984375,0.3428955078125,-0.4814453125
2.498,315,371,508,318,-14.0,35.0,19.0,-19.59228515625,-10.253905296325684,-9.33837890625,-0.55078125,0.24755859375,-0.378662109375
2.523,334,391,501,316,-14.0,35.0,19.0,-11.779784202575684,0.0,-0.6713866591453552,-0.5047607421875,0.1243896484375,-0.2813720703125
2.523,314,398,533,318,-18.0,33.0,18.0,-11.779784202575684,0.0,-0.6713866591453552,-0.513671875,-0.0135498046875,-0.1915283203125
2.528,310,402,540,316,-18.0,33.0,18.0,-7.812499523162842,9.21630859375,9.09423828125,-0.54541015625,-0.08544921875,-0.11376953125
2.535,313,415,543,317,-18.0,33.0,18.0,-12.451170921325684,6.042479991912842,5.737304210662842,-0.5765380859375,-0.1005859375,-0.0836181640625
2.549,309,403,525,318,-18.0,33.0,18.0,-12.451170921325684,6.042479991912842,5.737304210662842,-0.6192626953125,-0.0670166015625,-0.1009521484375
2.561,310,385,546,318,-18.0,33.0,18.0,-23.620603561401367,-4.8828125,-9.3994140625,-0.6627197265625,0.007568359375,-0.1358642578125
2.565,315,371,538,316,-18.0,33.0,18.0,-25.512693405151367,-6.774901866912842,-11.413573265075684,-0.6912841796875,0.06103515625,-0.1688232421875
2.574,315,369,547,318,-18.0,33.0,18.0,-25.512693405151367,-6.774901866912842,-11.413573265075684,-0.70068359375,0.0518798828125,-0.19580078125
2.590,323,348,559,316,-18.0,33.0,18.0,-23.681638717651367,-5.0048828125,-4.33349609375,-0.6982421875,0.0108642578125,-0.22705078125
2.596,348,336,540,317,-18.0,33.0,18.0,-23.681638717651367,-5.0048828125,-4.33349609375,-0.689208984375,-0.0208740234375,-0.255615234375
2.604,362,338,546,317,-18.0,33.0,18.0,-20.751951217651367,-2.807616949081421,0.9765624403953552,-0.689208984375,-0.0208740234375,-0.255615234375
2.636,498,490,531,315,-9.0,34.0,17.0,-16.9677734375,0.9765624403953552,10.253905296325684,-0.6348876953125,-0.0706787109375,-0.253173828125
2.637,430,551,442,295,-9.0,34.0,17.0,-16.9677734375,0.9765624403953552,10.253905296325684,-0.5712890625,-0.0689697265625,-0.254638671875
2.637,319,694,598,318,-9.0,34.0,17.0,-14.770506858825684,1.9531248807907104,13.366698265075684,-0.5712890625,-0.0689697265625,-0.254638671875
2.653,310,1929,625,323,-9.0,34.0,17.0,-6.591796398162842,-1.6479490995407104,18.00537109375,-0.3157958984375,-0.0706787109375,-0.131591796875
2.663,304,3147,607,330,-9.0,34.0,17.0,-6.591796398162842,-1.6479490995407104,18.00537109375,-0.1424560546875,-0.0345458984375,-0.1148681640625
2.663,304,3147,607,938,-9.0,34.0,17.0,6.103515148162842,-6.835937023162842,21.972654342651367,-0.1424560546875,-0.0345458984375,-0.1148681640625
2.678,304,3147,586,1973,-9.0,34.0,17.0,31.738279342651367,-10.498045921325684,31.433103561401367,-0.2083740234375,0.5718994140625,-0.4188232421875
2.686,304,3147,607,2526,-9.0,34.0,17.0,31.738279342651367,-10.498045921325684,31.433103561401367,-0.0050048828125,0.47216796875,-0.1876220703125
2.694,305,3147,683,3015,-9.0,34.0,17.0,1.8920897245407104,-26.306150436401367,20.996091842651367,-0.0050048828125,0.47216796875,-0.1876220703125
2.708,314,3147,992,3147,-12.0,36.0,15.0,-58.898921966552734,-75.86669921875,-9.3994140625,0.080810546875,0.0086669921875,0.0501708984375
2.726,315,3147,1139,3147,-12.0,36.0,15.0,-58.898921966552734,-75.86669921875,-9.3994140625,-0.663818359375,0.2427978515625,-0.420654296875
2.740,323,3147,1258,3147,-12.0,36.0,15.0,-37.90283203125,-83.19091033935547,-20.01953125,-0.663818359375,0.2427978515625,-0.420654296875
2.741,327,3147,1340,3147,-12.0,36.0,15.0,-24.047849655151367,-54.748531341552734,-28.503416061401367,-2.1483154296875,0.878173828125,-1.623779296875
2.746,310,3147,1377,3147,-12.0,36.0,15.0,-24.047849655151367,-54.748531341552734,-28.503416061401367,-2.616943359375,0.291259765625,-1.4267578125
2.755,308,3147,1472,3147,-12.0,36.0,15.0,-36.43798828125,-27.526853561401367,-20.996091842651367,-2.616943359375,0.291259765625,-1.4267578125
2.768,310,3147,1333,3147,-12.0,36.0,15.0,-15.380858421325684,1.9531248807907104,-8.72802734375,-3.27099609375,-1.1109619140625,-0.0064697265625
2.776,313,3147,1341,3147,-12.0,36.0,15.0,-15.380858421325684,1.9531248807907104,-8.72802734375,-2.5147705078125,-1.188232421875,-0.0130615234375
2.784,315,3147,1326,3147,-12.0,36.0,15.0,7.263183116912842,4.638671875,-0.4272460639476776,-2.5147705078125,-1.188232421875,-0.0130615234375
2.798,314,3147,1253,3147,-12.0,36.0,15.0,49.316402435302734,17.51708984375,21.057126998901367,-1.7054443359375,0.8948974609375,-1.309814453125
2.805,310,3147,1182,3147,-14.0,34.0,11.0,78.43017578125,31.982419967651367,37.04833984375,-1.7054443359375,0.8948974609375,-1.309814453125
2.827,306,3147,1108,3147,-14.0,34.0,11.0,54.809566497802734,29.052732467651367,24.780271530151367,-1.781982421875,0.61328125,-1.1036376953125
2.828,286,3147,957,3147,-14.0,34.0,11.0,12.512206077575684,18.6767578125,2.0751953125,-1.562255859375,-0.3702392578125,-0.3096923828125
2.842,304,3147,917,3147,-14.0,34.0,11.0,-0.3662109076976776,18.4326171875,-5.371093273162842,-1.562255859375,-0.3702392578125,-0.3096923828125
2.845,304,3147,841,3147,-14.0,34.0,11.0,15.747069358825684,25.512693405151367,1.4648436307907104,-1.4183349609375,-0.197998046875,-0.4119873046875
2.858,308,3147,803,2668,-14.0,34.0,11.0,33.26416015625,31.433103561401367,10.070799827575684,-0.9913330078125,0.0631103515625,-0.6893310546875
2.867,311,3147,772,1954,-14.0,34.0,11.0,33.14208984375,31.555173873901367,12.451170921325684,-0.9913330078125,0.0631103515625,-0.6893310546875
2.874,306,3147,702,932,-14.0,34.0,11.0,24.108884811401367,27.893064498901367,10.559081077575684,-0.73828125,-0.02197265625,-0.6109619140625
2.890,306,1561,625,318,-14.0,34.0,11.0,22.705076217651367,22.766111373901367,9.21630859375,-0.1832275390625,-0.1409912109375,-0.29345703125
2.896,352,763,521,316,-14.0,34.0,11.0,28.137205123901367,14.648436546325684,7.202147960662842,-0.1832275390625,-0.1409912109375,-0.29345703125
2.904,336,375,554,313,-14.0,32.0,14.0,35.21728515625,6.835937023162842,0.4272460639476776,-0.0728759765625,-0.2696533203125,-0.161865234375
2.930,307,346,506,317,-14.0,32.0,14.0,42.785640716552734,4.69970703125,-9.33837890625,-0.4134521484375,0.5352783203125,-0.355712890625
2.931,383,375,487,318,-14.0,32.0,14.0,35.70556640625,3.173827886581421,-19.775390625,-0.4134521484375,0.5352783203125,-0.355712890625
2.934,291,354,482,317,-14.0,32.0,14.0,-0.2441406100988388,-3.845214605331421,-29.479978561401367,-0.5653076171875,0.80078125,-0.48779296875
2.949,305,371,431,318,-14.0,32.0,14.0,-46.020503997802734,-10.498045921325684,-32.470703125,-0.640625,0.41845703125,-0.411376953125
2.972,306,388,433,316,-14.0,32.0,14.0,-74.70703125,-10.925292015075684,-27.832029342651367,-0.640625,0.41845703125,-0.411376953125
2.975,323,383,424,317,-14.0,32.0,14.0,-83.61815643310547,-7.385253429412842,-22.705076217651367,-0.60009765625,0.0712890625,-0.2244873046875
2.978,313,416,455,317,-14.0,32.0,14.0,-76.2939453125,-1.2817381620407104,-19.1650390625,-0.5413818359375,-0.2349853515625,-0.0123291015625
2.987,316,373,473,317,-14.0,32.0,14.0,-56.579586029052734,5.432128429412842,-14.221190452575684,-0.5413818359375,-0.2349853515625,-0.0123291015625
2.994,316,385,466,316,-14.0,32.0,14.0,-37.78076171875,8.056640625,-8.97216796875,-0.5137939453125,-0.17138671875,-0.015380859375
3.008,315,385,445,316,-12.0,33.0,12.0,-28.869626998901367,5.310058116912842,-6.347655773162842,-0.5594482421875,-0.13427734375,-0.061279296875
3.033,309,387,444,316,-12.0,33.0,12.0,-24.597166061401367,2.01416015625,-4.8828125,-0.5594482421875,-0.13427734375,-0.061279296875
3.033,300,376,456,318,-12.0,33.0,12.0,-17.15087890625,1.8310545682907104,-2.25830078125,-0.6004638671875,-0.1134033203125,-0.1041259765625
3.038,313,382,433,316,-12.0,33.0,12.0,-6.225585460662842,4.08935546875,1.4038084745407104,-0.63671875,-0.077392578125,-0.146728515625
3.062,310,375,458,316,-12.0,33.0,12.0,5.615233898162842,6.286620616912842,5.310058116912842,-0.64306640625,-0.032470703125,-0.175537109375
3.062,296,410,431,318,-12.0,33.0,12.0,14.282225608825684,6.408690929412842,9.521484375,-0.58642578125,0.0101318359375,-0.1676025390625
3.077,308,537,465,318,-12.0,33.0,12.0,17.02880859375,3.784179449081421,14.221190452575684,-0.4342041015625,-0.004150390625,-0.12158203125
3.078,331,653,509,309,-12.0,33.0,12.0,18.5546875,-1.4648436307907104,19.287109375,-0.1904296875,-0.0953369140625,-0.057861328125
3.084,454,1478,403,316,-12.0,33.0,12.0,26.977537155151367,-7.995604991912842,24.902341842651367,0.0841064453125,-0.2283935546875,0.01904296875
3.098,306,3147,485,1185,-12.0,33.0,12.0,48.767086029052734,-13.366698265075684,31.433103561401367,0.3201904296875,-0.2755126953125,0.12158203125
3.107,306,3147,486,1713,-13.0,32.0,11.0,85.69335174560547,-14.160155296325684,39.48974609375,0.23095703125,-0.0416259765625,-0.02490234375
3.114,304,3147,631,2194,-13.0,32.0,11.0,128.90625,-1.6479490995407104,48.583980560302734,-0.2659912109375,0.770751953125,-0.5728759765625
3.134,318,3147,793,2945,-13.0,32.0,11.0,121.03270721435547,7.263183116912842,43.823238372802734,-0.4736328125,1.2119140625,-0.8206787109375
3.136,316,3147,1024,3147,-13.0,32.0,11.0,20.629880905151367,-17.4560546875,17.333984375,-0.2322998046875,0.6690673828125,-0.450927734375
3.144,308,3147,1156,3147,-13.0,32.0,11.0,-77.880859375,-55.541988372802734,-5.676269054412842,-0.28466796875,0.120361328125,-0.1761474609375
3.171,316,3147,1456,3147,-13.0,32.0,11.0,-88.07372283935547,-74.03564453125,-15.502928733825684,-0.9561767578125,0.088134765625,-0.317138671875
3.172,314,3147,1487,3147,-13.0,32.0,11.0,-56.457515716552734,-70.12939453125,-20.568845748901367,-1.691650390625,0.4619140625,-0.696044921875
3.174,310,3147,1503,3147,-13.0,32.0,11.0,-41.687007904052734,-51.330562591552734,-22.338865280151367,-2.180419921875,0.5196533203125,-1.00634765625
3.203,317,3147,1600,3147,-13.0,32.0,11.0,-46.447750091552734,-26.489255905151367,-24.963376998901367,-2.6781005859375,-0.0498046875,-0.92529296875
3.204,319,3147,1504,3147,-12.0,34.0,19.0,-46.874996185302734,-1.4648436307907104,-25.085447311401367,-3.1046142578125,-0.6019287109375,-0.6221923828125
3.204,304,3147,1494,3147,-12.0,34.0,19.0,-34.0576171875,20.629880905151367,-15.441893577575684,-3.04052734375,-0.8880615234375,-0.4833984375
3.218,318,3147,1492,3147,-12.0,34.0,19.0,-10.437010765075684,38.0859375,4.638671875,-2.27490234375,-0.8975830078125,-0.5001220703125
3.238,328,3147,1401,3147,-12.0,34.0,19.0,29.296873092651367,53.161617279052734,32.53173828125,-1.6798095703125,0.023193359375,-0.8226318359375
3.238,329,3147,1365,3147,-12.0,34.0,19.0,55.114742279052734,58.776851654052734,47.851558685302734,-1.6822509765625,0.91845703125,-1.149658203125
3.248,524,3147,1112,3147,-12.0,34.0,19.0,35.2783203125,45.654293060302734,31.249998092651367,-1.7127685546875,0.6483154296875,-0.942626953125
3.256,346,3147,1109,3147,-12.0,34.0,19.0,4.08935546875,28.503416061401367,2.685546636581421,-1.6221923828125,0.0867919921875,-0.5987548828125
3.276,372,3147,966,3147,-12.0,34.0,19.0,-2.3193359375,21.545408248901367,-13.488768577575684,-1.5009765625,-0.1270751953125,-0.4818115234375
3.278,328,3147,900,3147,-12.0,34.0,19.0,8.85009765625,21.789548873901367,-17.39501953125,-1.3756103515625,-0.096435546875,-0.5947265625
3.286,315,3147,830,2712,-12.0,34.0,19.0,18.310546875,24.047849655151367,-16.845703125,-1.213623046875,-0.030517578125,-0.7833251953125
3.294,313,3147,803,2354,-12.0,36.0,16.0,14.831542015075684,26.123044967651367,-15.563963890075684,-1.0281982421875,0.012451171875,-0.818603515625
3.308,313,3147,774,598,-12.0,36.0,16.0,0.1220703050494194,25.695798873901367,-12.573241233825684,-0.822021484375,0.044189453125,-0.640380859375
3.316,322,1951,720,330,-12.0,36.0,16.0,-14.221190452575684,21.362302780151367,-8.48388671875,-0.55419921875,-0.04833984375,-0.36083984375
3.344,382,1120,673,321,-12.0,36.0,16.0,-16.11328125,15.563963890075684,-7.141112804412842,-0.268798828125,-0.34814453125,-0.1365966796875
3.344,351,456,645,302,-12.0,36.0,16.0,1.6479490995407104,15.319823265075684,-7.690429210662842,-0.165283203125,-0.489501953125,-0.0908203125
3.347,300,322,631,318,-12.0,36.0,16.0,29.113767623901367,17.63916015625,-6.591796398162842,-0.2864990234375,-0.1495361328125,-0.1871337890625
3.354,306,360,623,316,-12.0,36.0,16.0,41.320796966552734,12.329100608825684,-5.920409679412842,-0.4674072265625,0.4407958984375,-0.3668212890625
3.397,305,330,579,317,-12.0,36.0,16.0,26.916501998901367,0.2441406100988388,-7.934569835662842,-0.55859375,0.8494873046875,-0.5302734375
3.400,304,348,519,317,-12.0,36.0,16.0,-2.13623046875,-10.131834983825684,-12.634276390075684,-0.564453125,0.878662109375,-0.591552734375
3.401,323,346,495,316,-12.0,36.0,16.0,-29.663084030151367,-14.038084983825684,-17.822265625,-0.55712890625,0.647705078125,-0.5477294921875
3.401,292,376,487,317,-11.0,36.0,15.0,-50.231929779052734,-13.122557640075684,-20.141599655151367,-0.539306640625,0.3389892578125,-0.3988037109375
3.406,315,372,508,318,-11.0,36.0,15.0,-60.424800872802734,-8.72802734375,-16.9677734375,-0.517822265625,0.099609375,-0.2205810546875
3.416,308,362,516,318,-11.0,36.0,15.0,-59.875484466552734,-2.38037109375,-8.4228515625,-0.50732421875,-0.031005859375,-0.0989990234375
3.443,304,332,514,318,-11.0,36.0,15.0,-56.274410247802734,2.3193359375,-0.2441406100988388,-0.529541015625,-0.1361083984375,-0.0299072265625
3.444,304,373,482,300,-11.0,36.0,15.0,-53.344722747802734,3.723144292831421,2.38037109375,-0.5675048828125,-0.2249755859375,0.0118408203125
3.444,291,360,483,316,-11.0,36.0,15.0,-46.203609466552734,3.906249761581421,0.4882812201976776,-0.57421875,-0.2344970703125,-0.0050048828125
3.458,306,371,484,316,-11.0,36.0,15.0,-32.16552734375,4.39453125,-1.7700194120407104,-0.5667724609375,-0.1546630859375,-0.0733642578125
3.469,312,376,487,316,-11.0,36.0,15.0,-17.15087890625,3.784179449081421,-1.5258787870407104,-0.568603515625,-0.0634765625,-0.1376953125
3.481,310,373,466,318,-11.0,36.0,15.0,-7.629394054412842,1.5258787870407104,1.220703125,-0.535400390625,-0.0682373046875,-0.16943359375
3.488,316,406,525,316,-11.0,36.0,15.0,-2.50244140625,-1.220703125,4.69970703125,-0.4766845703125,-0.1510009765625,-0.1790771484375
3.496,318,497,574,314,-11.0,33.0,14.0,3.601073980331421,-3.051757574081421,7.202147960662842,-0.4384765625,-0.1890869140625,-0.1849365234375
3.503,315,561,574,316,-11.0,33.0,14.0,3.601073980331421,-3.051757574081421,7.202147960662842,-0.390869140625,-0.1436767578125,-0.18310546875
3.518,302,794,588,318,-11.0,33.0,14.0,6.347655773162842,-7.934569835662842,6.469726085662842,-0.3177490234375,-0.0787353515625,-0.15625
3.547,304,1766,569,336,-11.0,33.0,14.0,-3.234863042831421,-13.488768577575684,5.798339366912842,-0.1868896484375,-0.053955078125,-0.0643310546875
3.547,313,3147,514,748,-11.0,33.0,14.0,-3.234863042831421,-13.488768577575684,5.798339366912842,-0.0272216796875,-0.0733642578125,0.079833984375
3.548,291,3147,584,2263,-11.0,33.0,14.0,2.685546636581421,-25.329587936401367,12.878417015075684,-0.30908203125,0.2181396484375,-0.0751953125
3.556,313,3147,571,2785,-11.0,33.0,14.0,43.762203216552734,-13.427733421325684,31.799314498901367,-0.741943359375,0.8819580078125,-0.42431640625
3.564,327,3147,656,3126,-11.0,33.0,14.0,43.762203216552734,-13.427733421325684,31.799314498901367,-0.7005615234375,1.0169677734375,-0.3817138671875
3.591,323,3147,1034,3147,-11.0,33.0,14.0,-8.30078125,-39.9169921875,25.207517623901367,-0.35400390625,0.5162353515625,-0.1405029296875
3.592,299,3147,1264,3147,-11.0,33.0,14.0,-84.77782440185547,-72.265625,0.6713866591453552,-0.1356201171875,0.0565185546875,-0.1875
3.594,310,3147,1357,3147,-12.0,36.0,18.0,-84.77782440185547,-72.265625,0.6713866591453552,-0.521728515625,-0.25927734375,-0.5576171875
3.608,315,3147,1557,3147,-12.0,36.0,18.0,-75.3173828125,-59.936519622802734,-34.24072265625,-1.344482421875,-0.1617431640625,-0.938232421875
3.616,315,3147,1646,3147,-12.0,36.0,18.0,-37.109375,-34.60693359375,-38.26904296875,-2.0755615234375,0.22998046875,-1.04541015625
3.624,313,3147,1718,3147,-12.0,36.0,18.0,-37.109375,-34.60693359375,-38.26904296875,-2.56884765625,0.2635498046875,-0.9937744140625
3.641,316,3147,1746,3147,-12.0,36.0,18.0,-37.04833984375,-5.0048828125,-15.869139671325684,-2.886474609375,0.0556640625,-0.9783935546875
3.646,313,3147,1562,3147,-12.0,36.0,18.0,-27.954099655151367,11.779784202575684,1.8310545682907104,-2.870361328125,-0.2862548828125,-0.830322265625
3.655,318,3147,1504,3147,-12.0,36.0,18.0,-27.954099655151367,11.779784202575684,1.8310545682907104,-2.2093505859375,-0.78857421875,-0.492919921875
3.696,315,3147,1590,3147,-12.0,36.0,18.0,23.193357467651367,21.240232467651367,26.428220748901367,-1.6055908203125,-0.3336181640625,-0.6336669921875
3.696,313,3147,1564,3147,-12.0,36.0,18.0,51.940914154052734,19.53125,37.53662109375,-1.6820068359375,0.702392578125,-1.0660400390625
3.696,313,3147,1490,3147,-12.0,36.0,18.0,51.940914154052734,19.53125,37.53662109375,-1.815673828125,0.7208251953125,-0.98779296875
3.698,313,3147,1380,3147,-11.0,35.0,16.0,13.000487327575684,-13.366698265075684,1.4038084745407104,-1.6778564453125,0.1783447265625,-0.6234130859375
3.706,310,3147,1267,3147,-11.0,35.0,16.0,3.967284917831421,-18.06640625,-11.047362327575684,-1.44140625,-0.117431640625,-0.3916015625
3.714,313,3147,1157,3147,-11.0,35.0,16.0,3.967284917831421,-18.06640625,-11.047362327575684,-1.44140625,-0.117431640625,-0.3916015625
3.728,310,3147,938,3147,-11.0,35.0,16.0,21.423337936401367,-2.624511480331421,-1.6479490995407104,-1.099853515625,-0.054931640625,-0.5172119140625
3.755,307,3147,849,2868,-11.0,35.0,16.0,21.423337936401367,-2.624511480331421,-1.6479490995407104,-0.973876953125,0.0555419921875,-0.60205078125
3.755,313,3147,820,2263,-11.0,35.0,16.0,26.062009811401367,4.21142578125,3.662109136581421,-0.973876953125,0.0555419921875,-0.60205078125
3.761,308,3147,747,864,-11.0,35.0,16.0,3.784179449081421,9.3994140625,6.835937023162842,-0.7255859375,0.063232421875,-0.4857177734375
3.766,309,2474,697,330,-11.0,35.0,16.0,3.784179449081421,9.3994140625,6.835937023162842,-0.508056640625,-0.220703125,-0.3560791015625
3.775,308,1469,705,328,-11.0,35.0,16.0,-7.385253429412842,6.408690929412842,2.44140625,-0.508056640625,-0.220703125,-0.3560791015625
3.788,306,487,673,318,-11.0,32.0,17.0,17.39501953125,4.21142578125,-12.878417015075684,-0.3553466796875,-0.39404296875,-0.1815185546875
3.800,308,324,658,316,-11.0,32.0,17.0,17.39501953125,4.21142578125,-12.878417015075684,-0.43994140625,-0.0556640625,-0.135986328125
3.804,308,310,642,317,-11.0,32.0,17.0,33.3251953125,3.051757574081421,-17.76123046875,-0.43994140625,-0.0556640625,-0.135986328125
3.817,315,388,638,316,-11.0,32.0,17.0,36.9873046875,-1.4038084745407104,-27.587888717651367,-0.6497802734375,0.2767333984375,-0.2818603515625
3.827,306,379,605,317,-11.0,32.0,17.0,36.9873046875,-1.4038084745407104,-27.587888717651367,-0.68798828125,0.427734375,-0.3438720703125
3.834,306,382,564,317,-11.0,32.0,17.0,36.9873046875,4.39453125,-22.399900436401367,-0.68798828125,0.427734375,-0.3438720703125
3.856,306,383,514,321,-11.0,32.0,17.0,18.06640625,14.709471702575684,-5.371093273162842,-0.7039794921875,0.22265625,-0.1162109375
3.856,304,400,504,300,-11.0,32.0,17.0,18.06640625,14.709471702575684,-5.371093273162842,-0.6611328125,-0.0003662109375,0.020263671875
3.866,306,400,509,321,-11.0,32.0,17.0,14.282225608825684,15.380858421325684,-5.432128429412842,-0.6611328125,-0.0003662109375,0.020263671875
3.882,302,388,398,318,-11.0,32.0,17.0,21.789548873901367,13.488768577575684,-12.878417015075684,-0.562255859375,0.156494140625,-0.04736328125
3.892,302,359,373,318,-12.0,32.0,9.0,21.789548873901367,13.488768577575684,-12.878417015075684,-0.5457763671875,0.287353515625,-0.1488037109375
3.895,304,383,402,318,-12.0,32.0,9.0,11.047362327575684,9.33837890625,-14.465331077575684,-0.5457763671875,0.287353515625,-0.1488037109375
3.908,304,388,411,316,-12.0,32.0,9.0,-20.324705123901367,0.1220703050494194,-10.131834983825684,-0.556396484375,0.2574462890625,-0.2249755859375
3.916,302,383,481,321,-12.0,32.0,9.0,-20.324705123901367,0.1220703050494194,-10.131834983825684,-0.5377197265625,0.195556640625,-0.1912841796875
3.924,302,418,465,318,-12.0,32.0,9.0,-25.085447311401367,-2.44140625,-3.845214605331421,-0.5377197265625,0.195556640625,-0.1912841796875
3.956,302,361,513,316,-12.0,32.0,9.0,-21.789548873901367,-2.929687261581421,4.0283203125,-0.4576416015625,0.0565185546875,-0.1123046875
3.956,302,455,539,317,-12.0,32.0,9.0,-14.648436546325684,-2.25830078125,12.145995140075684,-0.4576416015625,0.0565185546875,-0.1123046875
3.956,304,512,548,316,-12.0,32.0,9.0,-6.286620616912842,-1.8920897245407104,18.5546875,-0.37646484375,-0.005126953125,-0.0615234375
3.968,304,1095,454,321,-12.0,32.0,9.0,2.197265625,-3.112792730331421,21.240232467651367,-0.04736328125,0.100830078125,0.1094970703125
3.981,314,3016,493,330,-12.0,32.0,9.0,8.48388671875,-7.385253429412842,19.95849609375,-0.04736328125,0.100830078125,0.1094970703125
3.985,316,3147,447,1101,-13.0,32.0,18.0,14.160155296325684,-16.357421875,18.1884765625,0.2060546875,0.1531982421875,0.2086181640625
3.997,304,3147,493,2087,-13.0,32.0,18.0,33.69140625,-23.864744186401367,21.606443405151367,-0.385009765625,0.4576416015625,-0.3216552734375
4.012,323,3147,813,2340,-13.0,32.0,18.0,77.0263671875,-18.49365234375,30.639646530151367,-0.385009765625,0.4576416015625,-0.3216552734375
4.014,316,3147,1233,2721,-13.0,32.0,18.0,83.31298065185547,-17.27294921875,28.564451217651367,-0.5211181640625,0.687255859375,-0.4610595703125
4.028,338,3147,1529,3147,-13.0,32.0,18.0,-1.15966796875,-42.846675872802734,10.009765625,-0.1396484375,-0.19921875,-0.101806640625
4.036,349,3147,1711,3147,-13.0,32.0,18.0,-85.81542205810547,-72.69287109375,-9.27734375,-0.1396484375,-0.19921875,-0.101806640625
4.057,338,3147,1843,3147,-13.0,32.0,18.0,-80.078125,-72.3876953125,-22.949216842651367,-0.98193359375,-0.1932373046875,-0.634521484375
4.058,346,3147,2035,3147,-13.0,32.0,18.0,-35.33935546875,-44.982906341552734,-29.968259811401367,-2.4403076171875,0.158447265625,-1.1942138671875
4.066,326,3147,2190,3147,-13.0,32.0,18.0,-30.212400436401367,-21.667478561401367,-28.320310592651367,-2.4403076171875,0.158447265625,-1.1942138671875
4.074,337,3147,2272,3147,-13.0,32.0,18.0,-45.959468841552734,-7.873534679412842,-15.136717796325684,-2.7418212890625,0.048828125,-0.9661865234375
4.101,328,3147,2119,3147,-10.0,33.0,21.0,-40.832515716552734,4.7607421875,2.624511480331421,-2.877685546875,-0.484130859375,-0.5347900390625
4.102,325,3147,2072,3147,-10.0,33.0,21.0,-24.169919967651367,12.512206077575684,14.343260765075684,-2.877685546875,-0.484130859375,-0.5347900390625
4.104,323,3147,2085,3147,-10.0,33.0,21.0,0.6713866591453552,17.822265625,21.118162155151367,-2.205322265625,-0.61279296875,-0.436279296875
4.120,323,3147,2019,3147,-10.0,33.0,21.0,40.954586029052734,24.963376998901367,30.517576217651367,-1.703857421875,0.8790283203125,-0.9320068359375
4.126,321,3147,1908,3147,-10.0,33.0,21.0,66.95556640625,27.709959030151367,33.38623046875,-1.703857421875,0.8790283203125,-0.9320068359375
4.134,321,3147,1796,3147,-10.0,33.0,21.0,47.424312591552734,18.6767578125,15.014647483825684,-1.8043212890625,0.6552734375,-0.78173828125
4.167,323,3147,1561,3147,-10.0,33.0,21.0,11.413573265075684,9.1552734375,-8.72802734375,-1.599609375,-0.3583984375,-0.3570556640625
4.167,317,3147,1464,3147,-10.0,33.0,21.0,-1.6479490995407104,9.70458984375,-18.4326171875,-1.599609375,-0.3583984375,-0.3570556640625
4.168,323,3147,1343,3147,-10.0,33.0,21.0,10.986327171325684,15.808104515075684,-14.526366233825684,-1.45703125,-0.360595703125,-0.4097900390625
4.178,313,3147,1097,2510,-13.0,35.0,16.0,29.785154342651367,21.057126998901367,-4.7607421875,-1.3067626953125,-0.1588134765625,-0.6044921875
4.188,313,3147,922,1970,-13.0,35.0,16.0,34.72900390625,23.620603561401367,3.906249761581421,-1.1134033203125,0.00830078125,-0.7515869140625
4.196,309,3147,774,1097,-13.0,35.0,16.0,23.864744186401367,24.169919967651367,8.9111328125,-0.89697265625,0.07080078125,-0.71533203125
4.208,306,2223,660,327,-13.0,35.0,16.0,9.58251953125,22.399900436401367,10.253905296325684,-0.6595458984375,0.10205078125,-0.5194091796875
4.223,314,1120,639,317,-13.0,35.0,16.0,1.8920897245407104,17.2119140625,6.896972179412842,-0.37890625,-0.0308837890625,-0.2864990234375
4.225,310,468,645,324,-13.0,35.0,16.0,7.446288585662842,12.878417015075684,-2.0751953125,-0.182373046875,-0.2955322265625,-0.1773681640625
4.238,424,347,555,316,-13.0,35.0,16.0,26.489255905151367,14.404295921325684,-11.962889671325684,-0.1956787109375,-0.2440185546875,-0.1893310546875
4.268,470,328,470,313,-13.0,35.0,16.0,38.9404296875,15.930174827575684,-17.9443359375,-0.3739013671875,0.215576171875,-0.248291015625
4.268,361,344,607,318,-13.0,35.0,16.0,26.428220748901367,11.413573265075684,-21.545408248901367,-0.5504150390625,0.6834716796875,-0.32666015625
4.269,314,351,578,316,-13.0,35.0,16.0,-5.981444835662842,4.21142578125,-23.254392623901367,-0.627685546875,0.8431396484375,-0.3924560546875
4.281,328,359,593,316,-15.0,32.0,13.0,-42.358394622802734,-0.1831054538488388,-22.094724655151367,-0.631591796875,0.6558837890625,-0.3707275390625
4.284,338,364,537,317,-15.0,32.0,13.0,-69.4580078125,-0.2441406100988388,-18.310546875,-0.5767822265625,0.2484130859375,-0.227294921875
4.298,357,359,513,316,-15.0,32.0,13.0,-75.37841796875,4.21142578125,-12.695311546325684,-0.53125,-0.1351318359375,-0.072509765625
4.306,310,353,532,315,-15.0,32.0,13.0,-57.128902435302734,12.451170921325684,-5.249022960662842,-0.5318603515625,-0.2657470703125,-0.008544921875
4.317,331,346,525,317,-15.0,32.0,13.0,-32.04345703125,19.47021484375,0.9155272841453552,-0.535888671875,-0.1776123046875,-0.02001953125
4.340,345,354,497,316,-15.0,32.0,13.0,-20.690916061401367,20.385740280151367,1.220703125,-0.5369873046875,-0.0570068359375,-0.03466796875
4.340,338,346,497,300,-15.0,32.0,13.0,-23.132322311401367,16.4794921875,-4.5166015625,-0.568115234375,0.0177001953125,-0.0474853515625
4.346,334,336,483,316,-15.0,32.0,13.0,-25.878904342651367,12.084959983825684,-11.413573265075684,-0.615966796875,0.0655517578125,-0.0885009765625
4.367,328,328,540,315,-15.0,32.0,13.0,-23.132322311401367,9.033203125,-14.404295921325684,-0.6463623046875,0.1011962890625,-0.145751953125
4.367,317,326,540,316,-15.0,32.0,13.0,-19.10400390625,6.530761241912842,-11.840819358825684,-0.6424560546875,0.1195068359375,-0.1910400390625
4.374,318,328,567,318,-10.0,31.0,14.0,-18.798828125,4.08935546875,-5.249022960662842,-0.6097412109375,0.1129150390625,-0.2127685546875
4.390,318,338,591,318,-10.0,31.0,14.0,-22.033689498901367,2.25830078125,2.563476324081421,-0.5640869140625,0.0699462890625,-0.1983642578125
4.403,318,376,572,317,-10.0,31.0,14.0,-26.062009811401367,1.03759765625,9.33837890625,-0.4940185546875,-0.0146484375,-0.146484375
4.404,308,473,572,318,-10.0,31.0,14.0,-27.709959030151367,-0.1831054538488388,13.916014671325684,-0.377685546875,-0.1468505859375,-0.0731201171875
4.417,514,830,390,313,-10.0,31.0,14.0,-23.071287155151367,-2.563476324081421,15.502928733825684,-0.2122802734375,-0.2850341796875,0.014892578125
4.429,462,2430,348,315,-10.0,31.0,14.0,-12.817381858825684,-9.27734375,15.502928733825684,0.040771484375,-0.3331298828125,0.114501953125
4.466,411,3147,414,1280,-10.0,31.0,14.0,-0.3662109076976776,-23.315427780151367,15.808104515075684,0.33642578125,-0.260986328125,0.198974609375
4.470,499,3147,442,2218,-10.0,31.0,14.0,24.475095748901367,-36.56005859375,17.578125,0.101806640625,0.1341552734375,-0.0821533203125
4.470,355,3147,354,1636,-10.0,31.0,14.0,75.5615234375,-30.944822311401367,31.066892623901367,-0.75927734375,0.9141845703125,-0.5274658203125
4.472,669,3147,382,1929,-10.0,31.0,14.0,111.93846893310547,-28.320310592651367,52.368160247802734,-0.9744873046875,0.853271484375,-0.0389404296875
4.478,346,3147,1222,3147,-13.0,34.0,15.0,99.42626190185547,-60.241695404052734,54.077144622802734,-0.4481201171875,0.253662109375,0.369384765625
4.486,324,3147,1398,3147,-13.0,34.0,15.0,56.457515716552734,-96.49657440185547,36.31591796875,-0.068359375,0.46533203125,-0.4088134765625
4.494,327,3147,1580,3147,-13.0,34.0,15.0,-8.7890625,-106.50634002685547,-0.9155272841453552,-0.582275390625,0.6279296875,-1.5869140625
4.508,346,3147,1794,3147,-13.0,34.0,15.0,-74.8291015625,-85.99852752685547,-52.307125091552734,-1.726318359375,0.411865234375,-2.0677490234375
4.516,327,3147,1914,3147,-13.0,34.0,15.0,-122.55858612060547,-55.603023529052734,-81.17675018310547,-2.458740234375,-0.0179443359375,-1.284912109375
4.524,337,3147,2024,3147,-13.0,34.0,15.0,-125.91551971435547,-29.663084030151367,-66.89453125,-2.8707275390625,-0.34814453125,-0.402099609375
4.542,348,3147,1883,3147,-13.0,34.0,15.0,-76.5380859375,-5.126952648162842,-28.442380905151367,-3.1949462890625,-0.334228515625,-0.0565185546875
4.569,383,3147,1703,3147,-13.0,34.0,15.0,-21.911619186401367,8.48388671875,1.5258787870407104,-3.0093994140625,-0.701904296875,0.0936279296875
4.570,371,3147,1735,3147,-13.0,34.0,15.0,25.268552780151367,17.63916015625,19.04296875,-2.1917724609375,-0.8555908203125,-0.141357421875
4.570,356,3147,1721,3147,-12.0,32.0,17.0,78.06396484375,35.2783203125,37.2314453125,-1.79052734375,0.131103515625,-0.8114013671875
4.576,365,3147,1715,3147,-12.0,32.0,17.0,89.96581268310547,44.189449310302734,43.212886810302734,-1.940185546875,0.802001953125,-1.1434326171875
4.584,364,3147,1584,3147,-12.0,32.0,17.0,46.508785247802734,30.273435592651367,24.108884811401367,-1.904052734375,0.31396484375,-0.8399658203125
4.598,424,3147,1386,3147,-12.0,32.0,17.0,8.30078125,14.221190452575684,2.44140625,-1.6558837890625,-0.1868896484375,-0.466796875
4.607,383,3147,1267,3147,-12.0,32.0,17.0,3.601073980331421,8.85009765625,-5.0048828125,-1.3785400390625,-0.239013671875,-0.357421875
4.616,359,3147,1109,3147,-12.0,32.0,17.0,15.197752952575684,10.131834983825684,-3.356933355331421,-1.1737060546875,-0.0322265625,-0.4976806640625
4.628,336,3147,853,2859,-12.0,32.0,17.0,19.775390625,12.695311546325684,-2.0751953125,-1.0198974609375,0.1162109375,-0.6409912109375
4.636,328,3147,725,2359,-12.0,32.0,17.0,10.742186546325684,14.953612327575684,-3.723144292831421,-0.865234375,0.0980224609375,-0.62451171875
4.674,321,3147,669,1499,-12.0,32.0,17.0,10.742186546325684,14.953612327575684,-3.723144292831421,-0.6861572265625,0.0615234375,-0.492919921875
4.674,346,2328,659,324,-12.0,32.0,17.0,-5.615233898162842,17.4560546875,-2.929687261581421,-0.4290771484375,-0.0557861328125,-0.3187255859375
4.674,330,1220,683,328,-11.0,32.0,17.0,4.33349609375,16.7236328125,-2.990722417831421,-0.2066650390625,-0.3463134765625,-0.15478515625
4.675,314,568,682,326,-11.0,32.0,17.0,4.33349609375,16.7236328125,-2.990722417831421,-0.152099609375,-0.4366455078125,-0.0357666015625
4.687,323,324,631,319,-11.0,32.0,17.0,52.429195404052734,19.71435546875,-4.7607421875,-0.259765625,-0.168212890625,-0.010498046875
4.696,330,354,669,315,-11.0,32.0,17.0,62.011714935302734,17.39501953125,-5.554198741912842,-0.4390869140625,0.153564453125,-0.1036376953125
4.711,331,342,658,318,-11.0,32.0,17.0,62.011714935302734,17.39501953125,-5.554198741912842,-0.579345703125,0.42822265625,-0.2818603515625
4.718,328,387,619,317,-11.0,32.0,17.0,45.776363372802734,12.023924827575684,-10.131834983825684,-0.6741943359375,0.661865234375,-0.4439697265625
4.726,324,344,632,317,-11.0,32.0,17.0,18.06640625,11.535643577575684,-9.521484375,-0.720458984375,0.703369140625,-0.46533203125
4.734,334,371,625,318,-11.0,32.0,17.0,18.06640625,11.535643577575684,-9.521484375,-0.7298583984375,0.47802734375,-0.332763671875
4.748,338,404,620,316,-11.0,32.0,17.0,-41.015621185302734,9.6435546875,-5.371093273162842,-0.7230224609375,0.14501953125,-0.14599609375
4.775,334,398,576,316,-11.0,32.0,17.0,-43.090816497802734,11.901854515075684,-3.723144292831421,-0.6734619140625,-0.068603515625,-0.020751953125
4.776,328,380,551,317,-11.0,32.0,12.0,-43.090816497802734,11.901854515075684,-3.723144292831421,-0.602783203125,-0.0860595703125,-0.0096435546875
4.782,324,409,555,318,-11.0,32.0,12.0,-24.963376998901367,12.878417015075684,-0.1220703050494194,-0.56591796875,-0.0244140625,-0.0701904296875
4.786,327,418,569,316,-11.0,32.0,12.0,-26.062009811401367,10.375975608825684,0.1831054538488388,-0.553955078125,0.01171875,-0.124755859375
4.797,329,409,588,317,-11.0,32.0,12.0,-26.062009811401367,10.375975608825684,0.1831054538488388,-0.53955078125,0.0059814453125,-0.143798828125
4.813,317,428,582,317,-11.0,32.0,12.0,-27.770994186401367,6.652831554412842,2.25830078125,-0.5123291015625,-0.025634765625,-0.1422119140625
4.818,323,484,605,316,-11.0,32.0,12.0,-22.583005905151367,5.310058116912842,6.042479991912842,-0.478271484375,-0.0535888671875,-0.14306640625
4.824,338,469,625,318,-11.0,32.0,12.0,-22.583005905151367,5.310058116912842,6.042479991912842,-0.4510498046875,-0.0655517578125,-0.1439208984375
4.837,332,590,562,323,-11.0,32.0,12.0,-9.09423828125,2.25830078125,19.95849609375,-0.4327392578125,-0.088623046875,-0.110595703125
4.846,323,829,572,323,-11.0,32.0,12.0,-2.13623046875,-2.624511480331421,27.648923873901367,-0.4119873046875,-0.12890625,-0.04638671875
4.854,321,1641,539,330,-11.0,32.0,12.0,-2.13623046875,-2.624511480331421,27.648923873901367,-0.4119873046875,-0.12890625,-0.04638671875
4.881,328,3147,621,739,-13.0,33.0,14.0,29.541013717651367,-14.953612327575684,39.306640625,-0.299072265625,-0.090087890625,-0.064697265625
4.882,328,3147,694,1531,-13.0,33.0,14.0,29.541013717651367,-14.953612327575684,39.306640625,-0.4693603515625,0.143798828125,-0.285888671875
4.884,322,3147,710,2068,-13.0,33.0,14.0,65.4296875,-12.268065452575684,47.302242279052734,-0.4693603515625,0.143798828125,-0.285888671875
4.898,313,3147,774,2750,-13.0,33.0,14.0,119.07958221435547,-4.150390625,60.546871185302734,-0.551513671875,0.78466796875,-0.180419921875
4.906,348,3147,1012,3147,-13.0,33.0,14.0,119.07958221435547,-4.150390625,60.546871185302734,0.02734375,0.522216796875,0.0897216796875
4.914,805,3147,1358,3147,-13.0,33.0,14.0,55.664058685302734,-28.015134811401367,39.73388671875,0.02734375,0.522216796875,0.0897216796875
4.928,328,3147,1596,3147,-13.0,33.0,14.0,-83.49608612060547,-87.82958221435547,-12.634276390075684,-0.1973876953125,0.0452880859375,-0.1292724609375
4.936,334,3147,1705,3147,-13.0,33.0,14.0,-83.49608612060547,-87.82958221435547,-12.634276390075684,-1.0887451171875,0.2799072265625,-0.8743896484375
4.944,322,3147,1892,3147,-13.0,33.0,14.0,-68.603515625,-80.32225799560547,-37.65869140625,-1.0887451171875,0.2799072265625,-0.8743896484375
4.958,334,3147,2018,3147,-13.0,33.0,14.0,-58.166500091552734,-27.893064498901367,-52.612300872802734,-2.339599609375,0.7156982421875,-1.32470703125
4.980,346,3147,2053,3147,-13.0,34.0,21.0,-58.166500091552734,-27.893064498901367,-52.612300872802734,-2.5430908203125,0.118896484375,-0.80908203125
4.981,371,3147,2115,3147,-13.0,34.0,21.0,-74.3408203125,-14.953612327575684,-37.59765625,-2.5430908203125,0.118896484375,-0.80908203125
4.993,999,3147,593,3070,-13.0,34.0,21.0,-20.874021530151367,12.207030296325684,0.30517578125,-2.8765869140625,-0.98974609375,-0.180419921875
4.996,964,3147,1398,3147,-13.0,34.0,21.0,-20.874021530151367,12.207030296325684,0.30517578125,-2.166748046875,-1.0928955078125,-0.2479248046875
5.004,401,3147,1925,3147,-13.0,34.0,21.0,15.991209983825684,16.17431640625,11.474608421325684,-2.166748046875,-1.0928955078125,-0.2479248046875
5.017,390,3147,1891,3147,-13.0,34.0,21.0,69.7021484375,32.3486328125,34.24072265625,-1.8880615234375,0.8800048828125,-1.0623779296875
5.026,400,3147,1742,3147,-13.0,34.0,21.0,69.7021484375,32.3486328125,34.24072265625,-1.8646240234375,0.4654541015625,-0.6910400390625
5.034,398,3147,1613,3147,-13.0,34.0,21.0,27.770994186401367,21.240232467651367,17.578125,-1.8646240234375,0.4654541015625,-0.6910400390625
5.048,375,3147,1413,3147,-13.0,34.0,21.0,-7.507323741912842,17.578125,-3.417968511581421,-1.4207763671875,-0.26953125,-0.2039794921875
5.056,388,3147,1236,3147,-12.0,32.0,16.0,-7.507323741912842,17.578125,-3.417968511581421,-1.2528076171875,-0.1947021484375,-0.32177734375
5.086,447,3147,927,3147,-12.0,32.0,16.0,6.408690929412842,27.160642623901367,4.150390625,-1.2528076171875,-0.1947021484375,-0.32177734375
5.087,375,3147,741,2514,-12.0,32.0,16.0,21.240232467651367,33.447265625,10.070799827575684,-0.9166259765625,0.1131591796875,-0.7113037109375
5.087,364,3147,653,2048,-12.0,32.0,16.0,27.526853561401367,34.5458984375,10.070799827575684,-0.9166259765625,0.1131591796875,-0.7113037109375
5.094,371,3147,667,1065,-12.0,32.0,16.0,23.010251998901367,30.212400436401367,7.080077648162842,-0.7379150390625,0.234619140625,-0.712646484375
5.110,411,1920,653,321,-12.0,32.0,16.0,11.596678733825684,20.874021530151367,3.295898199081421,-0.3253173828125,-0.0782470703125,-0.384765625
5.119,404,944,642,316,-12.0,32.0,16.0,3.845214605331421,9.82666015625,-4.7607421875,-0.3253173828125,-0.0782470703125,-0.384765625
5.124,673,467,439,308,-12.0,32.0,16.0,9.33837890625,4.08935546875,-15.869139671325684,-0.2216796875,-0.31494140625,-0.2491455078125
5.138,361,408,678,316,-12.0,32.0,16.0,23.071287155151367,5.737304210662842,-22.338865280151367,-0.397705078125,0.2296142578125,-0.1943359375
5.146,376,347,678,317,-12.0,32.0,16.0,29.479978561401367,7.934569835662842,-24.536130905151367,-0.397705078125,0.2296142578125,-0.1943359375
5.154,675,344,364,313,-14.0,31.0,15.0,22.155759811401367,5.737304210662842,-27.343748092651367,-0.5596923828125,0.49853515625,-0.2421875
5.185,323,374,636,318,-14.0,31.0,15.0,6.774901866912842,1.8310545682907104,-28.198240280151367,-0.720458984375,0.60107421875,-0.3564453125
5.186,588,437,400,316,-14.0,31.0,15.0,-12.512206077575684,0.6713866591453552,-23.071287155151367,-0.720458984375,0.60107421875,-0.3564453125
5.186,344,391,601,316,-14.0,31.0,15.0,-33.0810546875,1.7700194120407104,-16.05224609375,-0.68505859375,0.400146484375,-0.2584228515625
5.199,360,405,586,316,-14.0,31.0,15.0,-47.424312591552734,4.2724609375,-12.756346702575684,-0.56689453125,-0.151123046875,0.020263671875
5.208,426,426,490,315,-14.0,31.0,15.0,-47.851558685302734,9.1552734375,-11.413573265075684,-0.56689453125,-0.151123046875,0.020263671875
5.222,344,414,551,316,-14.0,31.0,15.0,-36.56005859375,14.953612327575684,-8.9111328125,-0.55810546875,-0.196533203125,0.0643310546875
5.228,344,416,601,316,-14.0,31.0,15.0,-23.742673873901367,18.798828125,-5.371093273162842,-0.5457763671875,-0.0556640625,-0.021728515625
5.236,336,411,591,317,-14.0,31.0,15.0,-15.624999046325684,19.287109375,-2.624511480331421,-0.5457763671875,-0.0556640625,-0.021728515625
5.244,334,416,590,318,-14.0,31.0,15.0,-10.681151390075684,17.02880859375,-1.03759765625,-0.5245361328125,0.0106201171875,-0.0888671875
5.259,342,405,618,316,-10.0,32.0,13.0,-6.103515148162842,13.488768577575684,0.3662109076976776,-0.4342041015625,0.0718994140625,-0.1585693359375
5.266,373,442,584,316,-10.0,32.0,13.0,-2.746581792831421,10.009765625,2.807616949081421,-0.4342041015625,0.0718994140625,-0.1585693359375
5.289,388,506,605,316,-10.0,32.0,13.0,-1.2817381620407104,7.141112804412842,6.958007335662842,-0.3892822265625,0.0350341796875,-0.153564453125
5.290,438,667,530,318,-10.0,32.0,13.0,0.7934569716453552,4.57763671875,12.756346702575684,-0.341796875,-0.0843505859375,-0.0582275390625
5.296,382,1201,548,316,-10.0,32.0,13.0,5.737304210662842,1.220703125,19.1650390625,-0.341796875,-0.0843505859375,-0.0582275390625
5.304,582,2587,321,306,-10.0,32.0,13.0,11.779784202575684,-5.493163585662842,24.719236373901367,-0.2950439453125,-0.1082763671875,0.0179443359375
5.331,402,3147,533,1393,-10.0,32.0,13.0,19.775390625,-14.465331077575684,29.602048873901367,-0.1859130859375,-0.1201171875,-0.0262451171875
5.331,372,3147,619,1961,-10.0,32.0,13.0,41.137691497802734,-16.7236328125,35.2783203125,-0.3626708984375,0.0611572265625,-0.383056640625
5.334,431,3147,594,2233,-10.0,32.0,13.0,75.98876953125,-4.82177734375,46.203609466552734,-0.87158203125,0.6190185546875,-0.712890625
5.347,371,3147,859,2919,-10.0,32.0,13.0,89.47753143310547,1.8310545682907104,56.213375091552734,-0.8944091796875,0.7958984375,-0.2598876953125
5.355,648,3147,1204,3147,-14.0,36.0,15.0,63.293453216552734,-20.385740280151367,47.180171966552734,-0.2794189453125,0.2628173828125,0.4522705078125
5.364,356,3147,1518,3147,-14.0,36.0,15.0,18.1884765625,-50.598140716552734,25.634763717651367,0.34521484375,0.0753173828125,0.447509765625
5.387,1098,3147,363,3147,-14.0,36.0,15.0,-35.70556640625,-71.22802734375,-1.03759765625,0.1680908203125,0.2935791015625,-0.1182861328125
5.387,571,3147,1589,3147,-14.0,36.0,15.0,-71.83837890625,-71.1669921875,-37.353515625,-0.8587646484375,0.5732421875,-1.0540771484375
5.396,473,3147,1785,3147,-14.0,36.0,15.0,-75.50048828125,-43.945308685302734,-74.03564453125,-1.923095703125,0.9300537109375,-1.75634765625
5.408,510,3147,2035,3147,-14.0,36.0,15.0,-88.62303924560547,-20.385740280151367,-93.93309783935547,-2.55224609375,0.6719970703125,-1.53564453125
5.417,378,3147,2124,3147,-14.0,36.0,15.0,-96.67967987060547,-7.995604991912842,-85.51024627685547,-2.844482421875,0.0693359375,-1.07763671875
5.426,353,3147,2023,3147,-14.0,36.0,15.0,-70.12939453125,2.50244140625,-60.241695404052734,-3.138427734375,-0.47705078125,-0.6893310546875
5.443,457,3147,1865,3147,-14.0,36.0,15.0,-33.63037109375,6.042479991912842,-38.330078125,-2.919677734375,-1.237548828125,-0.1915283203125
5.446,568,3147,1816,3147,-14.0,36.0,15.0,13.488768577575684,11.413573265075684,-16.6015625,-2.24658203125,-1.1358642578125,-0.2882080078125
5.454,533,3147,1698,3147,-12.0,32.0,17.0,61.828609466552734,26.672361373901367,14.892577171325684,-2.0555419921875,0.00048828125,-0.8486328125
5.468,414,3147,1624,3147,-12.0,32.0,17.0,65.3076171875,32.71484375,33.8134765625,-2.1287841796875,0.4510498046875,-0.976318359375
5.491,419,3147,1569,3147,-12.0,32.0,17.0,35.7666015625,25.878904342651367,28.503416061401367,-1.97314453125,0.0338134765625,-0.6641845703125
5.491,406,3147,1399,3147,-12.0,32.0,17.0,19.8974609375,25.695798873901367,22.583005905151367,-1.6688232421875,-0.285888671875,-0.3292236328125
5.503,348,3147,1083,2813,-12.0,32.0,17.0,25.024412155151367,35.94970703125,27.832029342651367,-1.30810546875,-0.264404296875,-0.21484375
5.506,356,3147,959,2296,-12.0,32.0,17.0,41.320796966552734,47.790523529052734,35.2783203125,-0.9407958984375,-0.102294921875,-0.303466796875
5.519,334,3147,779,1600,-12.0,32.0,17.0,57.006832122802734,53.161617279052734,35.7666015625,-0.633544921875,0.0604248046875,-0.4769287109375
5.529,316,2465,803,321,-12.0,32.0,17.0,65.673828125,50.415035247802734,29.357908248901367,-0.4449462890625,0.278564453125,-0.652587890625
5.536,346,1550,754,327,-12.0,32.0,17.0,60.363765716552734,37.90283203125,18.1884765625,-0.287841796875,0.2945556640625,-0.693115234375
5.544,338,702,735,321,-12.0,32.0,17.0,41.198726654052734,17.76123046875,0.4272460639476776,-0.1876220703125,-0.075439453125,-0.5771484375
5.565,328,391,693,321,-12.0,33.0,15.0,27.343748092651367,2.624511480331421,-18.61572265625,-0.2313232421875,-0.27294921875,-0.4384765625
5.566,338,387,712,317,-12.0,33.0,15.0,24.719236373901367,-2.746581792831421,-30.883787155151367,-0.3660888671875,0.017333984375,-0.394775390625
5.574,338,391,710,318,-12.0,33.0,15.0,16.17431640625,-5.798339366912842,-38.51318359375,-0.509765625,0.422607421875,-0.41357421875
5.597,330,347,723,316,-12.0,33.0,15.0,-5.249022960662842,-10.192870140075684,-43.029781341552734,-0.6026611328125,0.6546630859375,-0.4173583984375
5.598,347,375,748,319,-12.0,33.0,15.0,-30.639646530151367,-13.549803733825684,-40.10009765625,-0.6663818359375,0.6673583984375,-0.399658203125
5.608,409,399,710,316,-12.0,33.0,15.0,-52.246089935302734,-14.038084983825684,-29.724119186401367,-0.6749267578125,0.4346923828125,-0.3004150390625
5.619,738,401,376,310,-12.0,33.0,15.0,-65.185546875,-10.986327171325684,-19.1650390625,-0.6341552734375,0.0186767578125,-0.0869140625
5.632,462,383,638,313,-12.0,33.0,15.0,-57.434078216552734,-1.03759765625,-10.986327171325684,-0.6259765625,-0.32666015625,0.1163330078125
5.634,323,386,684,315,-12.0,33.0,15.0,-26.367185592651367,15.380858421325684,-2.25830078125,-0.641357421875,-0.3873291015625,0.158447265625
5.647,322,405,695,318,-14.0,32.0,13.0,4.69970703125,28.991697311401367,5.615233898162842,-0.6346435546875,-0.2357177734375,0.077880859375
5.661,328,401,683,316,-14.0,32.0,13.0,14.282225608825684,32.5927734375,8.056640625,-0.6148681640625,-0.0975341796875,-0.002197265625
5.669,325,411,647,318,-14.0,32.0,13.0,10.131834983825684,28.930662155151367,4.21142578125,-0.5958251953125,-0.0340576171875,-0.0509033203125
5.694,325,410,613,318,-14.0,32.0,13.0,7.507323741912842,23.376462936401367,-1.3427733182907104,-0.56494140625,0.0224609375,-0.10009765625
5.695,322,411,619,317,-14.0,32.0,13.0,8.48388671875,18.12744140625,-3.784179449081421,-0.51611328125,0.09130859375,-0.165283203125
5.695,321,411,603,316,-14.0,32.0,13.0,8.30078125,13.122557640075684,-2.13623046875,-0.474365234375,0.1434326171875,-0.2215576171875
5.716,318,390,607,317,-14.0,32.0,13.0,4.57763671875,8.4228515625,2.197265625,-0.4708251953125,0.1519775390625,-0.228759765625
5.717,300,387,601,300,-14.0,32.0,13.0,0.7934569716453552,3.784179449081421,7.446288585662842,-0.49267578125,0.10888671875,-0.1842041015625
5.734,310,395,631,318,-14.0,32.0,13.0,1.4038084745407104,-1.2817381620407104,11.962889671325684,-0.474365234375,0.039306640625,-0.1385498046875
5.738,617,533,347,308,-14.0,32.0,13.0,5.615233898162842,-6.958007335662842,14.770506858825684,-0.3662109375,-0.0335693359375,-0.1207275390625
5.746,371,733,551,323,-13.0,35.0,15.0,8.36181640625,-13.732909202575684,15.808104515075684,-0.1683349609375,-0.093994140625,-0.0972900390625
5.754,569,2078,316,314,-13.0,35.0,15.0,7.873534679412842,-23.193357467651367,15.563963890075684,0.0858154296875,-0.0836181640625,-0.000732421875
5.768,409,3147,483,1278,-13.0,35.0,15.0,7.751464366912842,-35.70556640625,14.953612327575684,0.2421875,-0.006591796875,-0.027099609375
5.798,313,3147,592,1824,-13.0,35.0,15.0,23.681638717651367,-40.0390625,17.2119140625,-0.2813720703125,0.4964599609375,-0.455078125
5.798,332,3147,634,2172,-13.0,35.0,15.0,23.681638717651367,-40.0390625,17.2119140625,-1.1212158203125,1.0968017578125,-0.6170654296875
5.798,346,3147,889,2713,-13.0,35.0,15.0,61.889644622802734,-19.34814453125,36.68212890625,-0.926025390625,0.7994384765625,0.0054931640625
5.806,517,3147,589,759,-13.0,35.0,15.0,16.9677734375,-44.189449310302734,23.315427780151367,-0.0159912109375,0.3363037109375,0.322998046875
5.814,363,3147,1546,3147,-13.0,35.0,15.0,16.9677734375,-44.189449310302734,23.315427780151367,0.1533203125,0.096923828125,-0.072021484375
5.835,409,3147,1730,3147,-13.0,35.0,15.0,-116.94335174560547,-97.29003143310547,-48.706050872802734,-0.7164306640625,-0.363525390625,-0.716796875
5.836,373,3147,1869,3147,-13.0,35.0,15.0,-105.28563690185547,-63.293453216552734,-76.23291015625,-1.850341796875,-0.314697265625,-1.267578125
5.844,338,3147,2072,3147,-11.0,33.0,15.0,-105.28563690185547,-63.293453216552734,-76.23291015625,-2.6536865234375,0.0286865234375,-1.3291015625
5.858,346,3147,2230,3147,-11.0,33.0,15.0,-65.61279296875,5.0048828125,-60.424800872802734,-3.048583984375,0.074462890625,-1.208251953125
5.866,363,3147,2085,3147,-11.0,33.0,15.0,-63.415523529052734,20.996091842651367,-23.498533248901367,-3.1827392578125,-0.1224365234375,-1.0341796875
5.874,408,3147,2041,3147,-11.0,33.0,15.0,-63.415523529052734,20.996091842651367,-23.498533248901367,-2.806884765625,-0.661376953125,-0.583251953125
5.902,388,3147,2083,3147,-11.0,33.0,15.0,-12.023924827575684,29.663084030151367,23.315427780151367,-2.0906982421875,-0.73583984375,-0.31689453125
5.902,490,3147,793,3023,-11.0,33.0,15.0,37.04833984375,32.04345703125,43.090816497802734,-1.7940673828125,0.0667724609375,-0.4813232421875
5.904,398,3147,1669,3147,-11.0,33.0,15.0,37.04833984375,32.04345703125,43.090816497802734,-1.79541015625,0.5731201171875,-0.62451171875
5.918,418,3147,1455,3147,-11.0,33.0,15.0,71.533203125,23.315427780151367,31.188962936401367,-1.7099609375,0.3818359375,-0.65087890625
5.930,533,3147,1189,3147,-11.0,33.0,15.0,56.762691497802734,20.568845748901367,7.141112804412842,-1.5235595703125,0.05615234375,-0.6585693359375
5.934,430,3147,1222,3147,-11.0,33.0,15.0,56.762691497802734,20.568845748901367,7.141112804412842,-1.32080078125,-0.1971435546875,-0.6109619140625
5.947,334,3147,1045,2766,-12.0,34.0,24.0,16.66259765625,29.052732467651367,-7.934569835662842,-1.1646728515625,-0.2579345703125,-0.56298828125
5.956,330,3147,878,2445,-12.0,34.0,24.0,9.46044921875,32.04345703125,-3.906249761581421,-1.0262451171875,-0.1029052734375,-0.6143798828125
5.964,327,3147,780,2076,-12.0,34.0,24.0,9.46044921875,32.04345703125,-3.906249761581421,-0.875244140625,0.0302734375,-0.66650390625
5.978,321,3147,679,788,-12.0,34.0,24.0,-4.150390625,22.644041061401367,5.920409679412842,-0.698486328125,0.075927734375,-0.59716796875
6.008,323,2831,689,332,-12.0,34.0,24.0,-4.150390625,22.644041061401367,5.920409679412842,-0.472900390625,0.044189453125,-0.478759765625
6.008,360,2153,607,324,-12.0,34.0,24.0,-11.596678733825684,10.742186546325684,9.033203125,-0.472900390625,0.044189453125,-0.478759765625
6.008,318,780,706,300,-12.0,34.0,24.0,2.25830078125,-4.69970703125,-0.54931640625,-0.17578125,-0.3236083984375,-0.3360595703125
6.016,720,418,442,316,-12.0,34.0,24.0,2.25830078125,-4.69970703125,-0.54931640625,-0.2249755859375,-0.1541748046875,-0.302978515625
6.024,389,386,456,310,-12.0,34.0,24.0,18.5546875,-2.990722417831421,-6.469726085662842,-0.2249755859375,-0.1541748046875,-0.302978515625
6.040,446,381,695,316,-14.0,33.0,12.0,17.02880859375,-5.187987804412842,-12.817381858825684,-0.4852294921875,0.380859375,-0.154541015625
6.046,383,385,455,310,-14.0,33.0,12.0,17.02880859375,-5.187987804412842,-12.817381858825684,-0.6163330078125,0.51953125,-0.1661376953125
6.054,531,391,400,310,-14.0,33.0,12.0,8.48388671875,-9.58251953125,-17.333984375,-0.6163330078125,0.51953125,-0.1661376953125
6.067,555,371,465,310,-14.0,33.0,12.0,-18.12744140625,-12.268065452575684,-16.357421875,-0.72119140625,0.4827880859375,-0.2723388671875
6.076,372,347,679,315,-14.0,33.0,12.0,-18.12744140625,-12.268065452575684,-16.357421875,-0.682373046875,0.201416015625,-0.1875
6.084,404,327,651,316,-14.0,33.0,12.0,-38.39111328125,-11.657713890075684,-13.549803733825684,-0.682373046875,0.201416015625,-0.1875
6.107,455,348,653,316,-14.0,33.0,12.0,-43.395992279052734,-4.08935546875,-13.061522483825684,-0.594482421875,-0.1375732421875,0.001953125
6.108,382,359,692,316,-14.0,33.0,12.0,-43.395992279052734,-4.08935546875,-13.061522483825684,-0.58349609375,-0.126708984375,-0.0205078125
6.119,347,359,695,316,-14.0,33.0,12.0,-35.15625,0.1831054538488388,-10.742186546325684,-0.58349609375,-0.126708984375,-0.0205078125
6.131,372,338,682,316,-14.0,33.0,12.0,-23.681638717651367,4.69970703125,-3.112792730331421,-0.61962890625,-0.0552978515625,-0.1446533203125
6.153,371,427,687,315,-12.0,33.0,15.0,-23.681638717651367,4.69970703125,-3.112792730331421,-0.616943359375,-0.0316162109375,-0.1795654296875
6.154,371,506,669,317,-12.0,33.0,15.0,-18.98193359375,3.479003667831421,-1.2817381620407104,-0.616943359375,-0.0316162109375,-0.1795654296875
6.158,359,646,668,323,-12.0,33.0,15.0,-10.375975608825684,-2.807616949081421,2.990722417831421,-0.555419921875,0.0399169921875,-0.1842041015625
6.166,522,797,438,313,-12.0,33.0,15.0,-10.375975608825684,-2.807616949081421,2.990722417831421,-0.509521484375,0.039794921875,-0.1455078125
6.174,345,1206,594,317,-12.0,33.0,15.0,-8.30078125,-6.774901866912842,7.568358898162842,-0.509521484375,0.039794921875,-0.1455078125
6.188,319,3105,625,338,-12.0,33.0,15.0,10.498045921325684,-15.258788108825684,18.49365234375,-0.2996826171875,-0.0384521484375,-0.06298828125
6.208,310,3147,636,841,-12.0,33.0,15.0,10.498045921325684,-15.258788108825684,18.49365234375,-0.4208984375,0.0113525390625,-0.1619873046875
6.208,334,3147,601,1380,-12.0,33.0,15.0,38.2080078125,-13.732909202575684,25.268552780151367,-0.4208984375,0.0113525390625,-0.1619873046875
6.218,334,3147,631,1999,-12.0,33.0,15.0,76.72119140625,-2.563476324081421,35.46142578125,-0.64306640625,0.3900146484375,-0.2821044921875
6.234,316,3147,698,2430,-12.0,33.0,15.0,98.08348846435547,5.0048828125,42.541500091552734,-0.64306640625,0.3900146484375,-0.2821044921875
6.235,323,3147,1129,2833,-12.0,32.0,18.0,78.06396484375,-6.652831554412842,39.73388671875,-0.191650390625,0.2060546875,0.1170654296875
6.255,348,3147,1564,3147,-12.0,32.0,18.0,32.89794921875,-33.203125,31.738279342651367,0.07958984375,-0.0606689453125,0.235107421875
6.256,329,3147,1792,3147,-12.0,32.0,18.0,-6.103515148162842,-60.363765716552734,17.76123046875,0.07958984375,-0.0606689453125,0.235107421875
6.264,328,3147,1900,3147,-12.0,32.0,18.0,-12.817381858825684,-71.77734375,-1.9531248807907104,-0.53564453125,0.012939453125,-0.3167724609375
6.278,332,3147,2213,3147,-12.0,32.0,18.0,11.962889671325684,-56.884761810302734,-21.484373092651367,-1.9617919921875,0.857666015625,-1.806884765625
6.286,324,3147,2359,3147,-12.0,32.0,18.0,11.535643577575684,-34.0576171875,-38.75732421875,-1.9617919921875,0.857666015625,-1.806884765625
6.311,324,3147,2407,3147,-12.0,32.0,18.0,-41.198726654052734,-26.611326217651367,-48.400875091552734,-2.289794921875,0.4144287109375,-1.353759765625
6.311,327,3147,2349,3147,-12.0,32.0,18.0,-78.06396484375,-20.385740280151367,-41.442867279052734,-2.88671875,-0.605224609375,-0.1947021484375
6.316,336,3147,2249,3147,-12.0,32.0,18.0,-58.105464935302734,-4.33349609375,-21.118162155151367,-2.88671875,-0.605224609375,-0.1947021484375
6.324,348,3147,2220,3147,-12.0,32.0,18.0,-16.2353515625,10.620116233825684,-0.6103515625,-2.662841796875,-0.9346923828125,0.00732421875
6.338,351,3147,2190,3147,-12.0,35.0,17.0,27.954099655151367,23.498533248901367,17.7001953125,-1.739990234375,0.2672119140625,-0.8572998046875
6.356,348,3147,2089,3147,-12.0,35.0,17.0,68.84765625,36.92626953125,35.64453125,-1.739990234375,0.2672119140625,-0.8572998046875
6.356,348,3147,1948,3147,-12.0,35.0,17.0,70.12939453125,38.330078125,37.90283203125,-1.8448486328125,0.704345703125,-0.936279296875
6.367,351,3147,1628,3147,-12.0,35.0,17.0,34.97314453125,26.855466842651367,20.01953125,-1.62158203125,-0.139892578125,-0.4447021484375
6.376,348,3147,1447,3147,-12.0,35.0,17.0,9.46044921875,20.629880905151367,1.7700194120407104,-1.62158203125,-0.139892578125,-0.4447021484375
6.384,336,3147,1305,3147,-12.0,35.0,17.0,4.8828125,23.559568405151367,-5.126952648162842,-1.4195556640625,-0.2470703125,-0.416748046875
6.413,327,3147,996,2756,-12.0,35.0,17.0,10.375975608825684,28.442380905151367,-3.295898199081421,-1.05126953125,-0.0911865234375,-0.66064453125
6.414,321,3147,869,2356,-12.0,35.0,17.0,16.4794921875,31.738279342651367,1.220703125,-1.05126953125,-0.0911865234375,-0.66064453125
6.414,313,3147,725,1718,-12.0,35.0,17.0,15.930174827575684,32.89794921875,5.798339366912842,-0.8712158203125,0.009521484375,-0.72265625
6.428,310,2912,728,330,-14.0,30.0,14.0,7.263183116912842,29.724119186401367,8.72802734375,-0.73046875,0.083984375,-0.64208984375
6.437,310,1904,728,324,-14.0,30.0,14.0,-4.21142578125,21.362302780151367,8.544921875,-0.56884765625,0.0931396484375,-0.509521484375
6.464,327,912,749,323,-14.0,30.0,14.0,-10.986327171325684,10.498045921325684,1.2817381620407104,-0.3616943359375,-0.1561279296875,-0.3880615234375
6.466,313,428,784,323,-14.0,30.0,14.0,-3.784179449081421,3.845214605331421,-12.268065452575684,-0.2467041015625,-0.37646484375,-0.2996826171875
6.466,331,363,673,300,-14.0,30.0,14.0,13.916014671325684,2.50244140625,-23.193357467651367,-0.289794921875,-0.1673583984375,-0.2603759765625
6.474,439,376,586,313,-14.0,30.0,14.0,24.902341842651367,0.54931640625,-29.296873092651367,-0.442626953125,0.270751953125,-0.2860107421875
6.488,442,390,646,313,-14.0,30.0,14.0,21.118162155151367,-4.08935546875,-32.16552734375,-0.5869140625,0.590087890625,-0.3839111328125
6.496,344,363,778,321,-14.0,30.0,14.0,7.141112804412842,-7.507323741912842,-30.334470748901367,-0.662841796875,0.7103271484375,-0.4525146484375
6.515,344,378,766,316,-14.0,30.0,14.0,-12.939452171325684,-6.958007335662842,-23.437498092651367,-0.6915283203125,0.66015625,-0.3802490234375
6.518,372,399,687,315,-14.0,30.0,14.0,-33.5693359375,-4.638671875,-14.831542015075684,-0.6605224609375,0.38916015625,-0.1710205078125
6.526,346,382,714,316,-11.0,33.0,11.0,-41.687007904052734,-1.5869139432907104,-7.141112804412842,-0.6090087890625,-0.0260009765625,0.0572509765625
6.534,334,390,740,315,-11.0,33.0,11.0,-26.550291061401367,5.615233898162842,3.051757574081421,-0.593994140625,-0.353271484375,0.1802978515625
6.553,354,433,728,316,-11.0,33.0,11.0,6.408690929412842,18.1884765625,17.333984375,-0.563232421875,-0.4276123046875,0.151123046875
6.556,351,411,734,316,-11.0,33.0,11.0,36.68212890625,29.052732467651367,27.526853561401367,-0.4974365234375,-0.3125,0.033203125
6.625,342,400,739,316,-11.0,33.0,11.0,48.767086029052734,30.700681686401367,26.916501998901367,-0.4888916015625,-0.1832275390625,-0.0496826171875
6.625,324,391,735,316,-11.0,33.0,11.0,45.715328216552734,23.681638717651367,18.49365234375,-0.52294921875,-0.091064453125,-0.0933837890625
6.625,353,388,754,318,-11.0,33.0,11.0,37.78076171875,14.221190452575684,8.9111328125,-0.5322265625,-0.0135498046875,-0.14697265625
6.625,371,384,731,316,-11.0,33.0,11.0,29.296873092651367,7.019042491912842,3.051757574081421,-0.521484375,0.05517578125,-0.18994140625
6.625,334,388,748,318,-11.0,33.0,11.0,21.179197311401367,2.25830078125,2.685546636581421,-0.4952392578125,0.126953125,-0.186767578125
6.626,501,428,682,299,-11.0,33.0,11.0,12.634276390075684,-2.25830078125,6.103515148162842,-0.4273681640625,0.1488037109375,-0.13525390625
6.626,323,547,696,323,-14.0,35.0,19.0,3.845214605331421,-8.97216796875,9.21630859375,-0.3309326171875,0.072021484375,-0.05908203125
6.643,345,1416,678,324,-14.0,35.0,19.0,-0.3662109076976776,-17.333984375,9.8876953125,-0.219970703125,-0.034912109375,0.0009765625
6.646,315,3121,634,337,-14.0,35.0,19.0,5.065917491912842,-25.329587936401367,9.94873046875,-0.0643310546875,-0.058349609375,0.025634765625
6.655,317,3147,689,1107,-14.0,35.0,19.0,16.29638671875,-31.494138717651367,11.840819358825684,-0.0501708984375,0.09814453125,-0.1630859375
6.675,316,3147,721,2058,-14.0,35.0,19.0,28.808591842651367,-29.724119186401367,19.10400390625,-0.51708984375,0.6597900390625,-0.5467529296875
6.682,465,3147,705,2453,-14.0,35.0,19.0,32.8369140625,-22.338865280151367,30.090330123901367,-1.0140380859375,1.005615234375,-0.4049072265625
6.684,337,3147,1216,2870,-14.0,35.0,19.0,11.718749046325684,-32.77587890625,29.785154342651367,-0.616943359375,0.479736328125,0.2431640625
6.697,513,3147,1636,3147,-14.0,35.0,19.0,-29.235837936401367,-60.791011810302734,12.512206077575684,0.1099853515625,-0.0906982421875,0.32861328125
6.720,321,3147,1669,3147,-14.0,35.0,19.0,-67.138671875,-76.35498046875,-6.164550304412842,-0.009033203125,-0.376708984375,-0.1826171875
6.720,317,3147,1816,3147,-14.0,35.0,19.0,-63.964839935302734,-56.640621185302734,-20.935056686401367,-0.9755859375,-0.4273681640625,-0.8280029296875
6.728,331,3147,2061,3147,-16.0,34.0,19.0,-23.193357467651367,-13.977049827575684,-33.38623046875,-2.02685546875,0.107666015625,-1.324462890625
6.736,360,3147,2137,3147,-16.0,34.0,19.0,-16.17431640625,12.145995140075684,-33.935546875,-2.5867919921875,0.484619140625,-1.2371826171875
6.745,362,3147,2180,3147,-16.0,34.0,19.0,-38.4521484375,20.996091842651367,-19.47021484375,-2.779052734375,0.2684326171875,-0.91552734375
6.757,402,3147,1774,3147,-16.0,34.0,19.0,-40.10009765625,30.334470748901367,-0.54931640625,-2.841552734375,-0.12841796875,-0.7467041015625
6.766,705,3147,1497,3147,-16.0,34.0,19.0,-23.315427780151367,36.376953125,12.145995140075684,-2.5010986328125,-0.6009521484375,-0.5841064453125
6.781,842,3147,1126,3147,-16.0,34.0,19.0,10.437010765075684,35.64453125,21.179197311401367,-1.7696533203125,-0.691650390625,-0.605712890625
6.788,371,3147,1704,3147,-16.0,34.0,19.0,60.485836029052734,33.87451171875,32.16552734375,-1.5103759765625,0.08056640625,-1.0595703125
6.796,364,3147,1590,3147,-16.0,34.0,19.0,77.7587890625,24.536130905151367,31.249998092651367,-1.7447509765625,0.686279296875,-1.3062744140625
6.804,481,3147,1397,3147,-16.0,34.0,19.0,37.7197265625,2.50244140625,9.765625,-1.8114013671875,0.366943359375,-0.9237060546875
6.821,473,3147,1199,3147,-16.0,34.0,19.0,-8.7890625,-14.343260765075684,-12.512206077575684,-1.6549072265625,-0.18505859375,-0.4261474609375
6.826,364,3147,1167,3147,-13.0,31.0,15.0,-24.108884811401367,-13.549803733825684,-19.287109375,-1.4390869140625,-0.39306640625,-0.207275390625
6.834,344,3147,1064,3147,-13.0,31.0,15.0,-16.29638671875,-1.4648436307907104,-12.878417015075684,-1.2720947265625,-0.280029296875,-0.2672119140625
6.848,331,3147,794,2713,-13.0,31.0,15.0,-5.432128429412842,11.291502952575684,-4.2724609375,-1.1239013671875,-0.1297607421875,-0.4273681640625
6.861,325,3147,683,2359,-13.0,31.0,15.0,-1.8310545682907104,20.690916061401367,0.8544921278953552,-0.9609375,0.009033203125,-0.5369873046875
6.864,359,3147,599,1796,-13.0,31.0,15.0,-9.09423828125,24.719236373901367,3.723144292831421,-0.8043212890625,0.0814208984375,-0.5081787109375
6.886,360,3147,584,385,-13.0,31.0,15.0,-21.911619186401367,21.850584030151367,4.45556640625,-0.6236572265625,0.0560302734375,-0.4068603515625
6.886,364,2382,628,330,-13.0,31.0,15.0,-26.184080123901367,15.075682640075684,0.1220703050494194,-0.405517578125,-0.1241455078125,-0.3289794921875
6.894,334,1388,651,328,-13.0,31.0,15.0,-26.184080123901367,15.075682640075684,0.1220703050494194,-0.2666015625,-0.301025390625,-0.3111572265625
6.926,364,497,667,318,-13.0,31.0,15.0,9.46044921875,7.568358898162842,-19.10400390625,-0.264404296875,-0.121826171875,-0.3438720703125
6.927,324,373,689,301,-15.0,33.0,13.0,19.04296875,3.967284917831421,-23.193357467651367,-0.3388671875,0.27978515625,-0.3466796875
6.927,371,375,675,300,-15.0,33.0,13.0,19.04296875,3.967284917831421,-23.193357467651367,-0.4466552734375,0.5595703125,-0.293701171875
6.938,521,331,361,312,-15.0,33.0,13.0,-16.7236328125,-13.671874046325684,-33.14208984375,-0.5316162109375,0.638671875,-0.267822265625
6.946,705,344,579,316,-15.0,33.0,13.0,-36.0107421875,-17.76123046875,-36.376953125,-0.598876953125,0.5596923828125,-0.28076171875
6.964,402,321,607,316,-15.0,33.0,13.0,-36.0107421875,-17.76123046875,-36.376953125,-0.6773681640625,0.401611328125,-0.2281494140625
6.968,546,323,519,311,-15.0,33.0,13.0,-58.044429779052734,-10.375975608825684,-24.291990280151367,-0.7076416015625,0.1552734375,-0.0845947265625
6.976,347,334,712,318,-15.0,33.0,13.0,-53.894039154052734,-4.57763671875,-15.380858421325684,-0.7042236328125,-0.1536865234375,0.064208984375
6.984,324,344,720,316,-15.0,33.0,13.0,-53.894039154052734,-4.57763671875,-15.380858421325684,-0.7042236328125,-0.3385009765625,0.1112060546875
6.998,324,323,683,316,-15.0,33.0,13.0,-11.718749046325684,9.70458984375,2.868652105331421,-0.67578125,-0.3028564453125,0.0338134765625
7.006,330,336,678,316,-15.0,33.0,13.0,4.21142578125,13.854979515075684,10.070799827575684,-0.6383056640625,-0.1605224609375,-0.0875244140625
7.027,328,324,661,316,-14.0,30.0,15.0,4.21142578125,13.854979515075684,10.070799827575684,-0.6181640625,-0.061767578125,-0.171630859375
7.046,328,362,693,321,-14.0,30.0,15.0,5.065917491912842,9.82666015625,12.512206077575684,-0.603271484375,-0.0400390625,-0.212158203125
7.047,328,406,705,316,-14.0,30.0,15.0,3.845214605331421,7.812499523162842,13.305663108825684,-0.5865478515625,-0.0284423828125,-0.2347412109375
7.047,328,467,694,319,-14.0,30.0,15.0,3.845214605331421,7.812499523162842,13.305663108825684,-0.558837890625,0.0091552734375,-0.2294921875
7.066,327,678,648,318,-14.0,30.0,15.0,-0.54931640625,8.85009765625,22.583005905151367,-0.4996337890625,0.010986328125,-0.174560546875
7.067,371,1157,513,304,-14.0,30.0,15.0,-6.347655773162842,5.371093273162842,26.184080123901367,-0.4052734375,-0.0396728515625,-0.083251953125
7.074,382,2072,525,324,-14.0,30.0,15.0,-6.347655773162842,5.371093273162842,26.184080123901367,-0.283447265625,-0.08056640625,-0.0413818359375
7.087,512,3147,318,361,-14.0,30.0,15.0,6.774901866912842,-9.46044921875,29.113767623901367,-0.286865234375,0.030517578125,-0.17138671875
7.099,325,3147,633,1122,-14.0,30.0,15.0,31.494138717651367,-10.803221702575684,36.19384765625,-0.48779296875,0.3980712890625,-0.3646240234375
7.104,321,3147,614,1781,-14.0,30.0,15.0,31.494138717651367,-10.803221702575684,36.19384765625,-0.5760498046875,0.6402587890625,-0.2119140625
7.133,314,3147,803,2701,-12.0,31.0,17.0,45.898433685302734,-18.49365234375,51.879878997802734,-0.1531982421875,0.4749755859375,0.386474609375
7.133,485,3147,1287,3099,-12.0,31.0,17.0,45.898433685302734,-18.49365234375,51.879878997802734,0.4859619140625,0.327880859375,0.564697265625
7.134,347,3147,1600,1074,-12.0,31.0,17.0,34.97314453125,-41.198726654052734,45.410152435302734,0.4859619140625,0.327880859375,0.564697265625
7.148,423,3147,1627,3147,-12.0,31.0,17.0,-47.058101654052734,-73.3642578125,-30.822751998901367,-0.4083251953125,-0.0943603515625,-0.93701171875
7.157,453,3147,1864,3147,-12.0,31.0,17.0,-47.058101654052734,-73.3642578125,-30.822751998901367,-1.56005859375,0.032470703125,-1.6790771484375
7.170,620,3147,2012,3147,-12.0,31.0,17.0,-62.683101654052734,-47.302242279052734,-64.14794921875,-1.56005859375,0.032470703125,-1.6790771484375
7.178,614,3147,2218,3147,-12.0,31.0,17.0,-69.9462890625,0.1831054538488388,-53.100582122802734,-2.7135009765625,0.293212890625,-1.0245361328125
7.186,473,3147,2024,3147,-12.0,31.0,17.0,-69.9462890625,0.1831054538488388,-53.100582122802734,-2.961181640625,0.0042724609375,-0.5972900390625
7.194,619,3147,1789,3147,-12.0,31.0,17.0,-57.922359466552734,7.873534679412842,-22.216794967651367,-2.961181640625,0.0042724609375,-0.5972900390625
7.208,414,3147,1996,3147,-12.0,31.0,17.0,-6.591796398162842,10.192870140075684,14.038084983825684,-2.47607421875,-0.94482421875,-0.1773681640625
7.230,410,3147,2012,3147,-14.0,35.0,15.0,-6.591796398162842,10.192870140075684,14.038084983825684,-1.746826171875,-0.4569091796875,-0.5560302734375
7.230,400,3147,1960,3147,-14.0,35.0,15.0,56.213375091552734,18.24951171875,27.221677780151367,-1.746826171875,-0.4569091796875,-0.5560302734375
7.238,385,3147,1904,3147,-14.0,35.0,15.0,90.02684783935547,22.521970748901367,32.89794921875,-1.813720703125,0.6019287109375,-0.9674072265625
7.246,382,3147,1790,3147,-14.0,35.0,15.0,90.02684783935547,22.521970748901367,32.89794921875,-1.7060546875,0.0206298828125,-0.5947265625
7.257,519,3147,1529,3147,-14.0,35.0,15.0,33.26416015625,10.314940452575684,12.878417015075684,-1.7060546875,0.0206298828125,-0.5947265625
7.269,385,3147,1429,3077,-14.0,35.0,15.0,-8.23974609375,13.488768577575684,0.9155272841453552,-1.3502197265625,-0.347412109375,-0.4007568359375
7.276,379,3147,1257,2840,-14.0,35.0,15.0,-8.23974609375,13.488768577575684,0.9155272841453552,-1.1937255859375,-0.1895751953125,-0.5184326171875
7.284,373,3147,1025,2479,-14.0,35.0,15.0,-3.051757574081421,18.310546875,6.652831554412842,-1.1937255859375,-0.1895751953125,-0.5184326171875
7.299,364,3147,788,1772,-14.0,35.0,15.0,-1.4648436307907104,17.76123046875,12.939452171325684,-0.8035888671875,0.0496826171875,-0.632568359375
7.314,360,3147,711,620,-14.0,35.0,15.0,-1.4648436307907104,17.76123046875,12.939452171325684,-0.5804443359375,0.1141357421875,-0.49560546875
7.314,331,3079,630,318,-12.0,33.0,15.0,-5.676269054412842,13.061522483825684,10.681151390075684,-0.5804443359375,0.1141357421875,-0.49560546875
7.336,416,1352,590,318,-12.0,33.0,15.0,-7.751464366912842,4.08935546875,-5.126952648162842,-0.1383056640625,-0.078857421875,-0.2379150390625
7.336,313,737,766,294,-12.0,33.0,15.0,-7.751464366912842,4.08935546875,-5.126952648162842,-0.1170654296875,-0.1312255859375,-0.187744140625
7.344,327,473,766,321,-12.0,33.0,15.0,3.234863042831421,5.126952648162842,-17.15087890625,-0.1170654296875,-0.1312255859375,-0.187744140625
7.361,346,336,725,316,-12.0,33.0,15.0,13.427733421325684,7.568358898162842,-23.742673873901367,-0.3414306640625,0.434326171875,-0.1082763671875
7.372,803,349,442,308,-12.0,33.0,15.0,8.4228515625,5.065917491912842,-26.550291061401367,-0.3414306640625,0.434326171875,-0.1082763671875
7.374,318,323,820,318,-12.0,33.0,15.0,-4.5166015625,-1.15966796875,-29.663084030151367,-0.46923828125,0.49365234375,-0.0855712890625
7.387,439,388,388,313,-12.0,33.0,15.0,-11.474608421325684,-4.33349609375,-29.846189498901367,-0.647705078125,0.4027099609375,-0.193603515625
7.396,318,426,757,318,-12.0,33.0,15.0,-14.648436546325684,-2.685546636581421,-24.353025436401367,-0.647705078125,0.4027099609375,-0.193603515625
7.404,316,411,794,318,-12.0,33.0,15.0,-20.568845748901367,0.7934569716453552,-16.05224609375,-0.7025146484375,0.220458984375,-0.158935546875
7.436,310,400,766,318,-13.0,33.0,13.0,-23.010251998901367,4.82177734375,-9.09423828125,-0.7099609375,-0.136962890625,-0.028076171875
7.436,308,409,748,316,-13.0,33.0,13.0,-15.686034202575684,9.94873046875,-3.845214605331421,-0.7099609375,-0.136962890625,-0.028076171875
7.436,310,453,761,318,-13.0,33.0,13.0,-8.9111328125,14.770506858825684,0.1220703050494194,-0.678955078125,-0.0733642578125,-0.061279296875
7.448,310,526,733,317,-13.0,33.0,13.0,-13.610838890075684,16.11328125,1.3427733182907104,-0.6551513671875,0.0611572265625,-0.1689453125
7.456,308,543,750,321,-13.0,33.0,13.0,-24.597166061401367,13.305663108825684,0.1220703050494194,-0.6551513671875,0.0611572265625,-0.1689453125
7.464,308,585,723,321,-13.0,33.0,13.0,-31.127927780151367,8.4228515625,-0.8544921278953552,-0.6580810546875,0.03515625,-0.2171630859375
7.479,308,749,695,318,-13.0,33.0,13.0,-30.334470748901367,4.45556640625,0.4882812201976776,-0.65380859375,-0.0357666015625,-0.2906494140625
7.486,431,1083,552,316,-13.0,33.0,13.0,-23.986814498901367,2.990722417831421,4.8828125,-0.65380859375,-0.0357666015625,-0.2906494140625
7.494,430,1774,572,323,-13.0,33.0,13.0,-12.756346702575684,3.601073980331421,11.840819358825684,-0.6397705078125,-0.04150390625,-0.2613525390625
7.508,548,2749,495,313,-12.0,32.0,8.0,3.356933355331421,5.859374523162842,20.080564498901367,-0.583984375,-0.011474609375,-0.2528076171875
7.516,625,3147,334,338,-12.0,32.0,8.0,21.179197311401367,8.11767578125,27.770994186401367,-0.583984375,-0.011474609375,-0.2528076171875
7.538,499,3147,506,887,-12.0,32.0,8.0,35.46142578125,7.324218273162842,34.36279296875,-0.5133056640625,0.02783203125,-0.229736328125
7.539,409,3147,750,1951,-12.0,32.0,8.0,44.372554779052734,1.6479490995407104,40.466304779052734,0.1534423828125,0.1553955078125,0.3162841796875
7.546,1134,3147,362,907,-12.0,32.0,8.0,50.292964935302734,-11.962889671325684,43.701168060302734,0.1534423828125,0.1553955078125,0.3162841796875
7.554,491,3147,1592,2953,-12.0,32.0,8.0,39.6728515625,-39.6728515625,33.99658203125,0.527587890625,0.40283203125,0.4163818359375
7.568,383,3147,1775,3147,-12.0,32.0,8.0,-2.38037109375,-72.93701171875,8.60595703125,0.394775390625,0.3424072265625,0.1180419921875
7.583,586,3147,1721,3147,-12.0,32.0,8.0,-31.372068405151367,-84.47264862060547,-21.179197311401367,-0.257080078125,0.1224365234375,-0.56689453125
7.584,553,3147,2050,3147,-12.0,32.0,8.0,-13.793944358825684,-62.805171966552734,-45.776363372802734,-1.231201171875,0.508056640625,-1.507568359375
7.598,551,3147,1830,3147,-12.0,32.0,8.0,-10.620116233825684,-36.1328125,-60.852046966552734,-1.9947509765625,0.927490234375,-1.81396484375
7.606,513,3147,2155,3147,-12.0,32.0,19.0,-47.668453216552734,-29.113767623901367,-60.119625091552734,-2.3001708984375,0.4964599609375,-1.174560546875
7.614,1024,3147,666,2235,-12.0,32.0,19.0,-60.485836029052734,-25.268552780151367,-44.677730560302734,-2.5762939453125,-0.109619140625,-0.5550537109375
7.643,1134,3147,1236,3147,-12.0,32.0,19.0,-38.0859375,-11.047362327575684,-26.977537155151367,-3.00146484375,-0.4954833984375,-0.302978515625
7.643,1929,3147,600,2514,-12.0,32.0,19.0,-17.51708984375,4.94384765625,-14.038084983825684,-2.906005859375,-0.9833984375,-0.08935546875
7.644,360,3147,2272,3147,-12.0,32.0,19.0,11.535643577575684,20.01953125,-0.3662109076976776,-2.164794921875,-0.99462890625,-0.183349609375
7.658,437,3147,2054,3147,-12.0,32.0,19.0,58.654781341552734,37.29248046875,20.568845748901367,-1.7991943359375,-0.0638427734375,-0.6893310546875
7.667,383,3147,1935,3147,-12.0,32.0,19.0,75.37841796875,42.907711029052734,33.38623046875,-1.822265625,0.4617919921875,-0.9073486328125
7.679,337,3147,1838,3147,-12.0,32.0,19.0,52.368160247802734,32.470703125,27.099607467651367,-1.697265625,0.107177734375,-0.7117919921875
7.688,526,3147,1336,3140,-12.0,32.0,19.0,35.2783203125,23.742673873901367,17.578125,-1.4720458984375,-0.176025390625,-0.5361328125
7.696,493,3147,1189,2962,-12.0,32.0,19.0,32.3486328125,22.338865280151367,14.831542015075684,-1.2626953125,-0.2032470703125,-0.5128173828125
7.704,442,3147,1167,2707,-14.0,35.0,15.0,31.433103561401367,22.827146530151367,14.953612327575684,-1.08984375,-0.0791015625,-0.6168212890625
7.718,375,3147,959,2176,-14.0,35.0,15.0,25.756834030151367,22.705076217651367,13.916014671325684,-0.9273681640625,0.06396484375,-0.73681640625
7.743,331,3147,874,1636,-14.0,35.0,15.0,12.084959983825684,22.094724655151367,11.840819358825684,-0.7962646484375,0.1378173828125,-0.72900390625
7.745,318,3147,774,790,-14.0,35.0,15.0,-7.263183116912842,19.6533203125,9.8876953125,-0.6939697265625,0.1656494140625,-0.5611572265625
7.748,315,2142,746,316,-14.0,35.0,15.0,-23.681638717651367,14.526366233825684,6.652831554412842,-0.5411376953125,0.0560302734375,-0.359619140625
7.756,308,1260,780,325,-14.0,35.0,15.0,-25.878904342651367,10.131834983825684,-0.3662109076976776,-0.3489990234375,-0.226318359375,-0.2412109375
7.764,316,601,797,321,-14.0,35.0,15.0,-9.6435546875,10.437010765075684,-8.97216796875,-0.2489013671875,-0.3173828125,-0.1827392578125
7.782,316,385,794,318,-14.0,35.0,15.0,9.70458984375,11.535643577575684,-13.916014671325684,-0.304931640625,-0.04736328125,-0.1441650390625
7.786,321,347,778,321,-14.0,35.0,15.0,13.916014671325684,7.385253429412842,-15.991209983825684,-0.4578857421875,0.2806396484375,-0.1256103515625
7.794,501,336,644,313,-14.0,35.0,15.0,5.798339366912842,0.1220703050494194,-18.1884765625,-0.6048583984375,0.4525146484375,-0.1641845703125
7.808,318,356,784,317,-13.0,31.0,15.0,-3.784179449081421,-4.39453125,-19.53125,-0.685302734375,0.521240234375,-0.2628173828125
7.816,338,348,806,316,-13.0,31.0,15.0,-15.075682640075684,-4.33349609375,-17.88330078125,-0.703125,0.5457763671875,-0.3345947265625
7.824,321,344,772,318,-13.0,31.0,15.0,-30.944822311401367,-1.9531248807907104,-13.916014671325684,-0.6817626953125,0.4324951171875,-0.295166015625
7.849,345,334,754,316,-13.0,31.0,15.0,-44.128414154052734,0.6103515625,-9.8876953125,-0.6444091796875,0.183837890625,-0.156005859375
7.849,319,314,765,318,-13.0,31.0,15.0,-46.020503997802734,2.868652105331421,-5.981444835662842,-0.6119384765625,-0.048583984375,-0.0133056640625
7.854,321,338,786,318,-13.0,31.0,15.0,-37.9638671875,5.187987804412842,-1.5258787870407104,-0.5980224609375,-0.1597900390625,0.0333251953125
7.868,327,338,777,316,-13.0,31.0,15.0,-26.733396530151367,7.263183116912842,3.051757574081421,-0.6014404296875,-0.15673828125,-0.0218505859375
7.886,328,334,784,318,-13.0,31.0,15.0,-17.08984375,8.11767578125,6.530761241912842,-0.6064453125,-0.099853515625,-0.1121826171875
7.887,328,356,785,296,-13.0,31.0,15.0,-10.803221702575684,6.652831554412842,8.36181640625,-0.599853515625,-0.0308837890625,-0.1881103515625
7.899,328,388,792,318,-15.0,34.0,15.0,-8.36181640625,3.295898199081421,9.58251953125,-0.5606689453125,0.015869140625,-0.2291259765625
7.906,323,438,772,318,-15.0,34.0,15.0,-9.21630859375,-0.30517578125,12.207030296325684,-0.4908447265625,-0.0089111328125,-0.225830078125
7.914,346,501,689,316,-15.0,34.0,15.0,-9.521484375,-2.624511480331421,17.39501953125,-0.430908203125,-0.1334228515625,-0.1650390625
7.927,537,1018,364,310,-15.0,34.0,15.0,-3.295898199081421,-2.746581792831421,24.597166061401367,-0.4058837890625,-0.2816162109375,-0.0772705078125
7.953,645,1959,334,313,-15.0,34.0,15.0,11.962889671325684,-1.03759765625,32.89794921875,-0.3770751953125,-0.3203125,-0.02880859375
7.953,571,3076,344,313,-15.0,34.0,15.0,32.65380859375,0.6713866591453552,41.564937591552734,-0.3204345703125,-0.208984375,-0.0970458984375
7.958,457,3147,639,1454,-15.0,34.0,15.0,58.959957122802734,2.50244140625,52.734371185302734,-0.3248291015625,0.161376953125,-0.2691650390625
7.966,336,3147,829,1974,-15.0,34.0,15.0,85.08300018310547,2.807616949081421,65.5517578125,-0.228271484375,0.578857421875,-0.345703125
7.975,369,3147,1239,2360,-15.0,34.0,15.0,72.1435546875,-14.160155296325684,59.814449310302734,0.1778564453125,0.6051025390625,-0.320556640625
7.988,607,3147,1660,3111,-15.0,34.0,15.0,-11.962889671325684,-55.908199310302734,26.245115280151367,0.4576416015625,0.3536376953125,-0.2647705078125
7.996,403,3147,356,879,-15.0,32.0,17.0,-103.88182830810547,-93.87206268310547,-10.009765625,0.126708984375,0.11279296875,-0.2120361328125
8.004,371,3147,2012,3147,-15.0,32.0,17.0,-108.52050018310547,-99.97557830810547,-36.43798828125,-0.86083984375,0.223876953125,-0.3553466796875
8.018,348,3147,2350,3147,-15.0,32.0,17.0,-52.673336029052734,-81.78710174560547,-54.138179779052734,-1.914794921875,0.9117431640625,-0.735107421875
8.026,408,3147,2456,3147,-15.0,32.0,17.0,-29.235837936401367,-61.828609466552734,-57.189937591552734,-2.376953125,1.2392578125,-0.987060546875
8.058,359,3147,2652,3147,-15.0,32.0,17.0,-29.235837936401367,-61.828609466552734,-57.189937591552734,-2.5267333984375,0.5762939453125,-0.8963623046875
8.059,411,3147,2519,3147,-15.0,32.0,17.0,-45.227046966552734,-25.817869186401367,-36.68212890625,-2.8345947265625,-0.3125,-0.474853515625
8.059,1878,3147,1952,3147,-15.0,32.0,17.0,-23.559568405151367,-5.432128429412842,-20.996091842651367,-3.0390625,-1.0150146484375,-0.0330810546875
8.064,497,3147,1744,3147,-15.0,32.0,17.0,-23.559568405151367,-5.432128429412842,-20.996091842651367,-2.47802734375,-1.3421630859375,-0.037353515625
8.078,603,3147,2108,3147,-15.0,32.0,17.0,75.86669921875,41.809078216552734,26.794431686401367,-1.883056640625,-0.539306640625,-0.606201171875
8.087,647,3147,2008,3147,-15.0,32.0,17.0,118.89647674560547,57.434078216552734,49.011226654052734,-1.9114990234375,0.595703125,-1.1448974609375
8.094,810,3147,1748,3147,-12.0,34.0,20.0,118.89647674560547,57.434078216552734,49.011226654052734,-1.888427734375,0.5848388671875,-1.0240478515625
8.108,1134,3147,1769,3147,-12.0,34.0,20.0,31.860349655151367,29.113767623901367,27.282712936401367,-1.6634521484375,-0.021728515625,-0.5936279296875
8.116,815,3147,1260,3147,-12.0,34.0,20.0,3.906249761581421,20.01953125,13.977049827575684,-1.443603515625,-0.245849609375,-0.341064453125
8.124,516,3147,1679,3147,-12.0,34.0,20.0,3.906249761581421,20.01953125,13.977049827575684,-1.2646484375,-0.073974609375,-0.3685302734375
8.153,933,3147,907,2625,-12.0,34.0,20.0,10.925292015075684,25.085447311401367,9.70458984375,-1.0775146484375,0.1058349609375,-0.5106201171875
8.153,844,3147,808,2257,-12.0,34.0,20.0,2.44140625,27.587888717651367,7.019042491912842,-0.8902587890625,0.126708984375,-0.57666015625
8.154,691,3147,624,1733,-12.0,34.0,20.0,2.44140625,27.587888717651367,7.019042491912842,-0.7459716796875,0.0732421875,-0.5277099609375
8.170,480,3063,607,323,-12.0,34.0,20.0,-18.24951171875,27.954099655151367,-0.4882812201976776,-0.6087646484375,0.0423583984375,-0.4327392578125
8.178,468,1914,570,318,-12.0,34.0,20.0,-17.578125,24.780271530151367,-3.112792730331421,-0.394775390625,-0.0999755859375,-0.343017578125
8.191,483,1022,590,323,-12.0,34.0,20.0,-17.578125,24.780271530151367,-3.112792730331421,-0.1944580078125,-0.3734130859375,-0.267578125
8.198,348,441,697,316,-13.0,32.0,20.0,13.122557640075684,21.057126998901367,-10.681151390075684,-0.1622314453125,-0.3736572265625,-0.20556640625
8.206,315,323,763,313,-13.0,32.0,20.0,34.11865234375,19.10400390625,-10.559081077575684,-0.2969970703125,-0.01171875,-0.20166015625
8.214,600,325,661,315,-13.0,32.0,20.0,34.11865234375,19.10400390625,-10.559081077575684,-0.4727783203125,0.31103515625,-0.249267578125
8.230,388,387,607,315,-13.0,32.0,20.0,41.137691497802734,6.774901866912842,-14.465331077575684,-0.5823974609375,0.4613037109375,-0.3084716796875
8.236,473,418,720,316,-13.0,32.0,20.0,35.400390625,3.967284917831421,-17.63916015625,-0.6407470703125,0.5948486328125,-0.3831787109375
8.259,631,371,506,310,-13.0,32.0,20.0,35.400390625,3.967284917831421,-17.63916015625,-0.662353515625,0.634033203125,-0.401611328125
8.260,411,369,744,316,-13.0,32.0,20.0,-4.21142578125,3.845214605331421,-13.488768577575684,-0.6539306640625,0.46630859375,-0.2987060546875
8.272,693,369,470,313,-13.0,32.0,20.0,-4.21142578125,3.845214605331421,-13.488768577575684,-0.634765625,0.1881103515625,-0.12841796875
8.274,673,359,619,313,-13.0,32.0,20.0,-26.794431686401367,3.601073980331421,-12.573241233825684,-0.634765625,0.1881103515625,-0.12841796875
8.296,586,378,546,313,-12.0,30.0,12.0,-33.14208984375,7.324218273162842,-13.122557640075684,-0.629638671875,-0.108154296875,0.02001953125
8.296,537,347,594,315,-12.0,30.0,12.0,-33.14208984375,7.324218273162842,-13.122557640075684,-0.6605224609375,-0.0682373046875,-0.0130615234375
8.304,607,357,526,313,-12.0,30.0,12.0,-25.573728561401367,10.803221702575684,-9.94873046875,-0.6605224609375,-0.0682373046875,-0.0130615234375
8.321,631,354,506,312,-12.0,30.0,12.0,-9.8876953125,14.770506858825684,-0.1220703050494194,-0.6798095703125,0.0264892578125,-0.126220703125
8.328,625,356,501,312,-12.0,30.0,12.0,-9.8876953125,14.770506858825684,-0.1220703050494194,-0.6673583984375,0.073974609375,-0.19775390625
8.427,590,437,561,316,-12.0,30.0,12.0,-3.906249761581421,14.831542015075684,4.94384765625,-0.6673583984375,0.073974609375,-0.19775390625
8.429,600,497,518,314,-12.0,30.0,12.0,-9.70458984375,10.925292015075684,14.160155296325684,-0.58349609375,0.0631103515625,-0.228515625
8.430,607,598,439,313,-12.0,30.0,12.0,-9.70458984375,10.925292015075684,14.160155296325684,-0.4862060546875,-0.0643310546875,-0.1728515625
8.430,548,761,428,315,-12.0,30.0,12.0,-15.319823265075684,6.286620616912842,17.4560546875,-0.4862060546875,-0.0643310546875,-0.1728515625
8.430,539,2442,606,305,-12.0,30.0,12.0,1.3427733182907104,-4.21142578125,26.733396530151367,-0.2093505859375,-0.26904296875,-0.027099609375
8.430,361,3147,466,526,-15.0,32.0,18.0,1.3427733182907104,-4.21142578125,26.733396530151367,-0.1109619140625,-0.2015380859375,-0.072021484375
8.430,316,3147,682,1163,-15.0,32.0,18.0,30.700681686401367,-8.36181640625,36.07177734375,-0.1109619140625,-0.2015380859375,-0.072021484375
8.430,328,3147,1067,2030,-15.0,32.0,18.0,100.09764862060547,-5.249022960662842,59.753414154052734,-0.1435546875,0.6435546875,-0.30224609375
8.430,376,3147,1544,2484,-15.0,32.0,18.0,100.09764862060547,-5.249022960662842,59.753414154052734,0.2403564453125,0.7288818359375,-0.20068359375
8.430,373,3147,1850,2948,-15.0,32.0,18.0,57.189937591552734,-29.968259811401367,43.701168060302734,0.2403564453125,0.7288818359375,-0.20068359375
8.438,348,3147,2093,3147,-15.0,32.0,18.0,-117.61473846435547,-102.23387908935547,-23.071287155151367,-0.173828125,-0.0361328125,-0.1063232421875
8.460,348,3147,2280,3147,-15.0,32.0,18.0,-117.61473846435547,-102.23387908935547,-23.071287155151367,-1.312744140625,0.2386474609375,-0.86572265625
8.460,447,3147,2409,3147,-15.0,32.0,18.0,-83.43505096435547,-76.84326171875,-38.14697265625,-1.312744140625,0.2386474609375,-0.86572265625
8.468,364,3147,2749,2633,-15.0,32.0,18.0,-45.837398529052734,-15.624999046325684,-44.494625091552734,-2.57763671875,0.8006591796875,-1.2294921875
8.476,431,3147,2748,3147,-15.0,32.0,18.0,-45.837398529052734,-15.624999046325684,-44.494625091552734,-2.57763671875,0.8006591796875,-1.2294921875
8.497,479,3147,2633,3147,-12.0,31.0,21.0,-75.8056640625,-12.207030296325684,-40.0390625,-2.7763671875,0.2197265625,-0.8939208984375
8.498,445,3147,2490,3147,-12.0,31.0,21.0,-69.82421875,1.7700194120407104,-28.991697311401367,-2.906494140625,-1.11279296875,-0.0882568359375
8.506,673,3147,2205,3147,-12.0,31.0,21.0,-41.015621185302734,16.7236328125,-18.5546875,-2.906494140625,-1.11279296875,-0.0882568359375
8.514,654,3147,2299,3147,-12.0,31.0,21.0,8.544921875,30.151365280151367,-1.4648436307907104,-2.2720947265625,-0.9775390625,-0.218017578125
8.528,1260,3147,1656,3147,-12.0,31.0,21.0,65.91796875,46.813961029052734,28.381345748901367,-1.900390625,0.5823974609375,-1.0360107421875
8.536,689,3147,1855,3147,-12.0,31.0,21.0,79.40673828125,49.743648529052734,43.579097747802734,-1.900390625,0.5823974609375,-1.0360107421875
8.544,1611,3147,1216,2830,-12.0,31.0,21.0,56.152339935302734,38.330078125,35.09521484375,-1.639404296875,0.1480712890625,-0.7274169921875
