time,compression0,compression1,compression2,compression3,magn_x,magn_y,magn_z,gyro_x,gyro_y,gyro_z,accel_x,accel_y,accel_z
0.013,416,3147,1108,2516,1.0,30.0,19.0,-120.36132049560547,-23.559568405151367,-70.25146484375,-2.388916015625,1.2711181640625,0.130859375
0.014,442,3147,1131,2599,1.0,30.0,19.0,-116.51610565185547,-36.865234375,-83.12987518310547,-3.010009765625,0.2550048828125,0.23583984375
0.016,361,3147,1191,2612,5.0,29.0,18.0,-65.24658203125,-41.198726654052734,-89.23339080810547,-3.0526123046875,-0.3951416015625,0.148681640625
0.032,348,3147,1175,2552,5.0,29.0,18.0,10.803221702575684,-39.4287109375,-72.3876953125,-2.3453369140625,-0.26123046875,0.0167236328125
0.051,354,3147,1169,2519,5.0,29.0,18.0,71.10595703125,-25.634763717651367,-50.537105560302734,-1.3074951171875,0.3013916015625,-0.0240478515625
0.053,356,3147,1182,2474,5.0,29.0,18.0,83.74022674560547,-4.57763671875,-40.588375091552734,-0.881103515625,0.949951171875,0.1778564453125
0.062,344,3147,1185,2180,5.0,29.0,18.0,44.799800872802734,15.624999046325684,-38.57421875,-1.23974609375,1.1400146484375,0.3311767578125
0.068,354,3147,1118,1952,5.0,29.0,18.0,-4.94384765625,29.418943405151367,-36.68212890625,-1.765380859375,0.7276611328125,0.2462158203125
0.076,356,3147,1091,1739,5.0,29.0,18.0,-18.9208984375,29.052732467651367,-30.700681686401367,-1.9534912109375,0.36083984375,0.1656494140625
0.095,348,3147,1056,1441,5.0,29.0,18.0,2.44140625,18.24951171875,-20.446775436401367,-1.805908203125,0.355224609375,0.1785888671875
0.112,330,3147,1078,1129,5.0,29.0,18.0,25.085447311401367,10.498045921325684,-7.080077648162842,-1.5172119140625,0.4981689453125,0.19287109375
0.113,346,3147,1032,844,5.0,29.0,18.0,25.146482467651367,11.901854515075684,9.3994140625,-1.2044677734375,0.491943359375,0.1407470703125
0.120,334,3147,1029,424,8.0,30.0,19.0,8.4228515625,19.53125,27.709959030151367,-0.9481201171875,0.2322998046875,0.0235595703125
0.139,327,3147,1029,331,8.0,30.0,19.0,-5.310058116912842,26.489255905151367,42.663570404052734,-0.7412109375,-0.0574951171875,-0.0682373046875
0.189,331,2787,1018,338,8.0,30.0,19.0,-5.737304210662842,26.855466842651367,46.752925872802734,-0.5374755859375,-0.1966552734375,-0.033935546875
0.189,327,2261,1003,332,8.0,30.0,19.0,4.08935546875,22.583005905151367,36.56005859375,-0.347412109375,-0.133544921875,0.07470703125
0.189,347,1954,960,336,8.0,30.0,19.0,17.76123046875,23.254392623901367,17.63916015625,-0.2127685546875,0.03125,0.09130859375
0.189,347,1914,963,327,8.0,30.0,19.0,24.291990280151367,31.066892623901367,-0.9155272841453552,-0.228759765625,0.123046875,0.0872802734375
0.189,346,1669,971,324,8.0,30.0,19.0,20.01953125,36.0107421875,-10.681151390075684,-0.3819580078125,0.2049560546875,0.109130859375
0.189,348,1504,975,323,8.0,30.0,19.0,14.892577171325684,34.912109375,-9.70458984375,-0.5126953125,0.3448486328125,0.0263671875
0.215,345,1393,937,330,8.0,30.0,19.0,14.892577171325684,34.912109375,-9.70458984375,-0.5836181640625,0.447021484375,-0.11376953125
0.218,323,1351,906,322,6.0,32.0,21.0,4.33349609375,26.672361373901367,3.845214605331421,-0.6668701171875,0.485107421875,-0.2027587890625
0.221,318,1209,871,328,6.0,32.0,21.0,6.530761241912842,15.991209983825684,13.061522483825684,-0.751953125,0.4971923828125,-0.2054443359375
0.229,318,1004,894,323,6.0,32.0,21.0,6.286620616912842,5.065917491912842,21.545408248901367,-0.8154296875,0.4556884765625,-0.15966796875
0.237,322,816,910,324,6.0,32.0,21.0,6.286620616912842,5.065917491912842,21.545408248901367,-0.8692626953125,0.365234375,-0.117919921875
0.258,354,707,883,318,6.0,32.0,21.0,-14.221190452575684,-5.126952648162842,23.559568405151367,-0.9007568359375,0.304443359375,-0.0692138671875
0.260,332,625,883,316,6.0,32.0,21.0,-17.51708984375,-9.70458984375,20.935056686401367,-0.9013671875,0.290771484375,0.0018310546875
0.267,316,574,869,324,6.0,32.0,21.0,-17.51708984375,-9.70458984375,20.935056686401367,-0.88671875,0.3055419921875,0.0831298828125
0.287,318,586,826,319,6.0,32.0,21.0,-2.990722417831421,-19.47021484375,23.254392623901367,-0.864013671875,0.330078125,0.14892578125
0.290,318,571,846,318,6.0,32.0,21.0,-2.990722417831421,-19.47021484375,23.254392623901367,-0.818115234375,0.3304443359375,0.1883544921875
0.297,316,541,859,326,6.0,32.0,21.0,8.6669921875,-22.399900436401367,27.832029342651367,-0.818115234375,0.3304443359375,0.1883544921875
0.318,316,687,830,327,5.0,30.0,19.0,9.8876953125,-23.132322311401367,40.283199310302734,-0.6229248046875,0.162353515625,0.25
0.319,323,1018,794,323,5.0,30.0,19.0,9.8876953125,-23.132322311401367,40.283199310302734,-0.45751953125,0.0245361328125,0.278564453125
0.325,336,1584,766,331,5.0,30.0,19.0,2.38037109375,-19.34814453125,46.142574310302734,-0.45751953125,0.0245361328125,0.278564453125
0.339,356,3147,846,330,5.0,30.0,19.0,9.8876953125,-11.535643577575684,40.222164154052734,0.019287109375,0.10302734375,0.498291015625
0.360,323,3147,895,936,5.0,30.0,19.0,9.8876953125,-11.535643577575684,40.222164154052734,0.218017578125,0.4459228515625,0.587158203125
0.360,313,3147,971,1143,5.0,30.0,19.0,27.160642623901367,-17.39501953125,19.04296875,0.218017578125,0.4459228515625,0.587158203125
0.369,316,3147,989,1920,5.0,30.0,19.0,51.574703216552734,-42.968746185302734,-53.405757904052734,1.1070556640625,-0.004150390625,-0.4056396484375
0.377,316,3147,1014,2218,5.0,30.0,19.0,51.574703216552734,-42.968746185302734,-53.405757904052734,0.9857177734375,0.30908203125,-0.49755859375
0.385,318,3147,1063,2494,5.0,30.0,19.0,35.94970703125,-54.992671966552734,-79.40673828125,0.9857177734375,0.30908203125,-0.49755859375
0.400,313,3147,1189,2808,5.0,30.0,19.0,-33.02001953125,-56.152339935302734,-90.82030487060547,-0.880615234375,2.0841064453125,-0.1844482421875
0.423,318,3147,1305,2797,10.0,28.0,24.0,-33.02001953125,-56.152339935302734,-90.82030487060547,-2.0196533203125,2.292724609375,0.496337890625
0.423,321,3147,1353,2861,10.0,28.0,24.0,-107.29979705810547,-45.043941497802734,-100.64696502685547,-2.0196533203125,2.292724609375,0.496337890625
0.428,321,3147,1434,2938,10.0,28.0,24.0,-188.59861755371094,-37.353515625,-136.474609375,-3.6175537109375,-1.0152587890625,0.928955078125
0.437,321,3147,1387,2851,10.0,28.0,24.0,-188.59861755371094,-37.353515625,-136.474609375,-3.6719970703125,-1.1507568359375,0.436767578125
0.445,317,3147,1294,2765,10.0,28.0,24.0,-81.17675018310547,-30.395505905151367,-128.2958984375,-3.6719970703125,-1.1507568359375,0.436767578125
0.461,316,3147,1348,2726,10.0,28.0,24.0,112.48778533935547,-6.713866710662842,-66.650390625,-1.5406494140625,0.4937744140625,-0.3148193359375
0.467,317,3147,1344,2717,10.0,28.0,24.0,112.48778533935547,-6.713866710662842,-66.650390625,-1.3056640625,1.000732421875,0.0546875
0.475,319,3147,1336,2590,10.0,28.0,24.0,91.85790252685547,11.779784202575684,-45.898433685302734,-1.3056640625,1.000732421875,0.0546875
0.489,324,3147,1278,2192,10.0,28.0,24.0,-42.358394622802734,36.07177734375,-14.953612327575684,-2.152099609375,0.356689453125,0.37548828125
0.497,323,3147,1222,2087,10.0,28.0,24.0,-42.358394622802734,36.07177734375,-14.953612327575684,-2.0142822265625,0.09423828125,0.3348388671875
0.545,318,3147,1225,1927,10.0,30.0,17.0,-49.621578216552734,35.58349609375,2.0751953125,-2.0142822265625,0.09423828125,0.3348388671875
0.546,319,3147,1116,1529,10.0,30.0,17.0,-28.015134811401367,30.822751998901367,17.9443359375,-1.2464599609375,0.347900390625,0.165283203125
0.547,321,3147,1097,1185,10.0,30.0,17.0,-8.9111328125,27.954099655151367,28.442380905151367,-1.2464599609375,0.347900390625,0.165283203125
0.565,328,3147,1078,678,10.0,30.0,17.0,-0.4272460639476776,28.869626998901367,32.77587890625,-0.8951416015625,0.3465576171875,0.0919189453125
0.565,316,2591,1066,334,10.0,30.0,17.0,5.371093273162842,32.1044921875,33.50830078125,-0.4830322265625,-0.01953125,0.104248046875
0.567,314,2024,1063,327,10.0,30.0,17.0,11.901854515075684,35.15625,32.8369140625,-0.3358154296875,-0.239501953125,0.093505859375
0.567,306,1674,1051,330,10.0,30.0,17.0,17.02880859375,37.109375,29.602048873901367,-0.3358154296875,-0.239501953125,0.093505859375
0.575,318,1384,1055,332,10.0,30.0,17.0,24.169919967651367,38.87939453125,23.864744186401367,-0.2281494140625,-0.2139892578125,-0.0089111328125
0.588,318,920,1051,322,10.0,30.0,17.0,30.822751998901367,38.14697265625,18.06640625,-0.2501220703125,0.1021728515625,0.0546875
0.598,315,929,1050,323,10.0,30.0,17.0,24.963376998901367,32.3486328125,12.329100608825684,-0.2501220703125,0.1021728515625,0.0546875
0.607,316,906,1038,324,7.0,29.0,22.0,6.591796398162842,27.832029342651367,6.958007335662842,-0.387451171875,0.1461181640625,0.0780029296875
0.632,315,879,1055,327,7.0,29.0,22.0,-9.58251953125,28.442380905151367,6.835937023162842,-0.575927734375,0.374267578125,-0.039306640625
0.633,313,858,1066,324,7.0,29.0,22.0,-16.2353515625,27.526853561401367,14.160155296325684,-0.575927734375,0.374267578125,-0.039306640625
0.641,315,815,1063,323,7.0,29.0,22.0,-22.766111373901367,19.287109375,39.12353515625,-0.550537109375,0.4508056640625,0.04638671875
0.649,315,830,1070,324,7.0,29.0,22.0,-22.766111373901367,19.287109375,39.12353515625,-0.5760498046875,0.340087890625,0.1029052734375
0.667,314,771,1091,327,7.0,29.0,22.0,-31.921384811401367,16.54052734375,46.813961029052734,-0.5760498046875,0.340087890625,0.1029052734375
0.671,314,787,1100,324,7.0,29.0,22.0,-45.593257904052734,12.939452171325684,45.532222747802734,-0.642822265625,0.1827392578125,0.138916015625
0.680,315,883,1123,327,7.0,29.0,22.0,-49.682613372802734,8.7890625,38.818359375,-0.78564453125,0.1248779296875,0.09765625
0.688,315,925,1134,324,7.0,29.0,22.0,-33.8134765625,3.234863042831421,32.89794921875,-0.78564453125,0.1248779296875,0.09765625
0.695,315,1148,1149,328,7.0,29.0,22.0,-6.530761241912842,-4.2724609375,31.433103561401367,-0.821533203125,0.193115234375,0.04541015625
0.709,315,1415,1146,324,7.0,31.0,17.0,17.2119140625,-11.169432640075684,34.912109375,-0.883056640625,0.4171142578125,0.0360107421875
0.739,316,1488,1159,328,7.0,31.0,17.0,27.832029342651367,-15.686034202575684,41.564937591552734,-0.883056640625,0.4171142578125,0.0360107421875
0.740,316,1572,1167,326,7.0,31.0,17.0,21.484373092651367,-17.4560546875,49.682613372802734,-0.9237060546875,0.501708984375,0.0643310546875
0.740,316,1683,1162,334,7.0,31.0,17.0,-1.15966796875,-16.11328125,58.776851654052734,-0.9703369140625,0.484130859375,0.07763671875
0.747,310,1795,1163,331,7.0,31.0,17.0,-29.907224655151367,-12.207030296325684,70.37353515625,-1.0068359375,0.350830078125,0.0235595703125
0.769,317,1892,1167,327,7.0,31.0,17.0,-53.649898529052734,-8.4228515625,86.36473846435547,-0.99951171875,0.1529541015625,-0.06201171875
0.769,318,2591,1182,332,7.0,31.0,17.0,-69.15283203125,-8.6669921875,101.86766815185547,-0.84033203125,-0.069580078125,-0.083984375
0.777,317,3147,1167,526,7.0,31.0,17.0,-70.25146484375,-16.7236328125,104.06493377685547,-0.385009765625,-0.2174072265625,0.0693359375
0.785,323,3147,1103,843,7.0,31.0,17.0,-39.55078125,-35.5224609375,80.93260955810547,0.4093017578125,-0.2940673828125,0.3209228515625
0.799,328,3147,1123,1419,3.0,29.0,18.0,25.756834030151367,-61.767574310302734,25.573728561401367,1.4556884765625,-0.433349609375,0.2269287109375
0.807,328,3147,1263,1759,3.0,29.0,18.0,94.05516815185547,-80.38329315185547,-55.175777435302734,1.9769287109375,-0.1910400390625,-0.1669921875
0.838,328,3147,1344,2057,3.0,29.0,18.0,118.04198455810547,-87.82958221435547,-123.47411346435547,1.3868408203125,0.578125,-0.078857421875
0.838,330,3147,1419,2625,3.0,29.0,18.0,93.13964080810547,-79.89501953125,-152.099609375,-0.0086669921875,1.77392578125,0.319091796875
0.839,336,3147,1372,2736,3.0,29.0,18.0,27.648923873901367,-45.532222747802734,-146.240234375,-1.40185546875,3.175537109375,0.3028564453125
0.850,337,3147,1422,2544,3.0,29.0,18.0,-84.35057830810547,-8.72802734375,-132.4462890625,-2.3580322265625,3.4290771484375,0.328857421875
0.874,336,3147,1437,2296,3.0,29.0,18.0,-192.13865661621094,-5.249022960662842,-145.32470703125,-3.259521484375,1.52880859375,0.8380126953125
0.882,327,3147,1422,1783,3.0,29.0,18.0,-213.43992614746094,-21.057126998901367,-179.13816833496094,-3.9486083984375,-0.85595703125,0.890869140625
0.882,324,3147,1415,1708,3.0,29.0,18.0,-114.68505096435547,-24.719236373901367,-194.82420349121094,-3.5230712890625,-1.59033203125,-0.00537109375
0.890,321,3147,1386,1543,3.0,29.0,18.0,38.14697265625,-10.375975608825684,-175.04881286621094,-2.2293701171875,-0.7628173828125,-0.6173095703125
0.897,323,3147,1387,1480,13.0,27.0,22.0,109.25292205810547,12.695311546325684,-125.97655487060547,-1.4874267578125,0.06396484375,-0.1392822265625
0.905,321,3147,1374,1478,13.0,27.0,22.0,47.851558685302734,33.38623046875,-60.913082122802734,-1.6221923828125,-0.2103271484375,0.4822998046875
0.933,325,3147,1313,1453,13.0,27.0,22.0,-46.203609466552734,39.306640625,4.94384765625,-1.9627685546875,-0.805419921875,0.58642578125
0.936,319,3147,1274,1481,13.0,27.0,22.0,-67.7490234375,24.169919967651367,58.776851654052734,-1.997802734375,-0.7459716796875,0.5318603515625
0.944,318,3147,1201,1411,13.0,27.0,22.0,-22.460935592651367,6.225585460662842,91.30858612060547,-1.7122802734375,-0.1339111328125,0.4481201171875
0.954,306,3147,1108,1183,13.0,27.0,22.0,21.911619186401367,4.5166015625,107.84911346435547,-1.3167724609375,0.4931640625,0.2857666015625
0.970,315,3147,1108,816,13.0,27.0,22.0,26.184080123901367,18.798828125,117.37059783935547,-0.9501953125,0.7623291015625,0.0535888671875
0.971,314,3147,1105,346,13.0,27.0,22.0,1.2817381620407104,36.80419921875,124.32860565185547,-0.67041015625,0.6510009765625,-0.15673828125
0.980,310,2263,1067,334,13.0,27.0,22.0,-24.475095748901367,46.691890716552734,127.99071502685547,-0.4559326171875,0.3111572265625,-0.22119140625
0.989,315,1894,1025,336,13.0,27.0,22.0,-29.479978561401367,46.142574310302734,121.09374237060547,-0.2591552734375,-0.0697021484375,-0.116455078125
0.996,322,1624,1024,331,9.0,25.0,20.0,-0.4272460639476776,40.588375091552734,98.69384002685547,-0.0606689453125,-0.19091796875,0.0406494140625
1.010,316,1306,1042,327,9.0,25.0,20.0,52.490230560302734,35.46142578125,65.36865234375,0.06298828125,-0.0087890625,0.183349609375
1.036,324,1160,1045,327,9.0,25.0,20.0,89.29442596435547,29.724119186401367,29.968259811401367,0.012939453125,0.2269287109375,0.3216552734375
1.038,324,984,1013,318,9.0,25.0,20.0,86.91405487060547,25.634763717651367,1.8920897245407104,-0.202392578125,0.38232421875,0.3367919921875
1.042,321,788,1031,324,9.0,25.0,20.0,64.63623046875,28.259275436401367,-9.58251953125,-0.4150390625,0.537109375,0.169921875
1.056,324,871,1067,323,9.0,25.0,20.0,44.189449310302734,32.53173828125,-2.868652105331421,-0.48828125,0.697509765625,-0.027099609375
1.059,324,1000,1055,304,9.0,25.0,20.0,26.550291061401367,30.212400436401367,12.207030296325684,-0.4871826171875,0.7659912109375,-0.08251953125
1.083,321,1122,1071,324,9.0,25.0,20.0,6.469726085662842,21.301267623901367,22.766111373901367,-0.499755859375,0.6236572265625,-0.013427734375
1.088,314,1341,1081,329,9.0,25.0,20.0,-13.671874046325684,12.084959983825684,22.033689498901367,-0.5784912109375,0.297119140625,0.025146484375
1.089,310,1401,1063,310,9.0,25.0,20.0,-26.245115280151367,5.920409679412842,14.892577171325684,-0.728759765625,0.0491943359375,0.005859375
1.096,314,1514,1107,328,6.0,29.0,21.0,-26.733396530151367,0.6103515625,10.864256858825684,-0.87109375,0.05322265625,0.021484375
1.114,318,1533,1112,326,6.0,29.0,21.0,-16.78466796875,-6.225585460662842,12.695311546325684,-0.958740234375,0.18408203125,0.0814208984375
1.120,323,1592,1129,328,6.0,29.0,21.0,-3.662109136581421,-13.000487327575684,17.822265625,-1.01513671875,0.2845458984375,0.1416015625
1.137,323,1686,1138,329,6.0,29.0,21.0,6.774901866912842,-18.06640625,24.414060592651367,-1.0511474609375,0.33056640625,0.166748046875
1.140,321,1711,1156,328,6.0,29.0,21.0,13.610838890075684,-21.545408248901367,31.555173873901367,-1.0609130859375,0.341552734375,0.1240234375
1.148,323,1635,1172,328,6.0,29.0,21.0,15.441893577575684,-23.437498092651367,39.9169921875,-1.054931640625,0.342529296875,0.037109375
1.157,322,1463,1172,323,6.0,29.0,21.0,10.131834983825684,-24.414060592651367,51.208492279052734,-1.05126953125,0.3333740234375,-0.0330810546875
1.177,324,1206,1156,330,6.0,29.0,21.0,-0.0610351525247097,-26.000974655151367,66.2841796875,-1.0390625,0.2847900390625,-0.0567626953125
1.178,328,1328,1131,327,6.0,29.0,21.0,-9.82666015625,-29.663084030151367,83.61815643310547,-0.9774169921875,0.1953125,-0.043701171875
1.188,324,1494,1125,330,6.0,29.0,21.0,-15.930174827575684,-35.33935546875,100.58592987060547,-0.8568115234375,0.0970458984375,-0.03662109375
1.200,322,2080,1122,328,1.0,31.0,20.0,-20.812986373901367,-40.893550872802734,115.17333221435547,-0.63818359375,0.017822265625,-0.050048828125
1.208,318,2565,1109,338,1.0,31.0,20.0,-29.418943405151367,-44.250484466552734,121.94823455810547,-0.3055419921875,0.0286865234375,0.0048828125
1.216,318,3147,1157,389,1.0,31.0,20.0,-35.94970703125,-49.316402435302734,112.91503143310547,0.09716796875,0.1435546875,0.2125244140625
1.250,323,3147,1054,1233,1.0,31.0,20.0,-20.874021530151367,-64.02587890625,80.81053924560547,0.759765625,0.034912109375,0.41064453125
1.250,323,3147,1120,1518,1.0,31.0,20.0,29.296873092651367,-79.52880859375,12.939452171325684,1.725341796875,-0.2449951171875,0.1649169921875
1.250,329,3147,1266,1748,1.0,31.0,20.0,84.77782440185547,-78.43017578125,-85.87645721435547,2.231689453125,0.052490234375,-0.1497802734375
1.266,332,3147,1401,2416,1.0,31.0,20.0,84.10643768310547,-67.19970703125,-173.33982849121094,1.186279296875,0.659912109375,0.1055908203125
1.281,346,3147,1490,2879,1.0,31.0,20.0,24.719236373901367,-46.508785247802734,-201.78221130371094,-0.7608642578125,1.670654296875,0.5208740234375
1.281,334,3147,1428,3063,1.0,31.0,20.0,-37.53662109375,-6.652831554412842,-165.10008239746094,-1.828369140625,3.121826171875,0.5
1.291,330,3147,1483,3071,12.0,26.0,15.0,-113.76952362060547,26.916501998901367,-124.87792205810547,-2.3634033203125,3.2144775390625,0.585693359375
1.301,371,3147,1443,2677,12.0,26.0,15.0,-209.65574645996094,21.118162155151367,-129.33349609375,-3.281982421875,1.2269287109375,1.2889404296875
1.306,344,3147,1443,2599,12.0,26.0,15.0,-234.25291442871094,-5.126952648162842,-146.484375,-3.64208984375,-1.510498046875,1.0953369140625
1.319,338,3147,1447,2519,12.0,26.0,15.0,-85.93749237060547,-5.432128429412842,-142.578125,-2.6727294921875,-2.1982421875,-0.4219970703125
1.341,333,3147,1468,2456,12.0,26.0,15.0,132.99560546875,5.615233898162842,-118.04198455810547,-1.5506591796875,-0.3607177734375,-0.9859619140625
1.341,347,3147,1441,2372,12.0,26.0,15.0,132.99560546875,5.615233898162842,-118.04198455810547,-1.3375244140625,1.1763916015625,-0.2630615234375
1.350,327,3147,1439,2197,12.0,26.0,15.0,84.83885955810547,34.60693359375,-62.805171966552734,-1.6495361328125,1.1251220703125,0.3045654296875
1.378,330,3147,1401,2100,12.0,26.0,15.0,-28.015134811401367,48.889156341552734,-46.264644622802734,-1.9234619140625,0.4464111328125,0.5421142578125
1.383,324,3147,1357,1848,12.0,26.0,15.0,-28.015134811401367,48.889156341552734,-46.264644622802734,-1.9346923828125,0.1044921875,0.5679931640625
1.390,322,3147,1280,1643,12.0,26.0,15.0,-55.175777435302734,36.376953125,-4.45556640625,-1.75146484375,0.0745849609375,0.365234375
1.393,317,3147,1211,1400,12.0,28.0,17.0,-35.21728515625,33.14208984375,17.333984375,-1.51123046875,0.12841796875,0.142333984375
1.405,316,3147,1163,1160,12.0,28.0,17.0,-35.21728515625,33.14208984375,17.333984375,-1.215087890625,0.211181640625,0.052734375
1.421,315,3147,1115,359,12.0,28.0,17.0,-35.888671875,30.822751998901367,54.016109466552734,-0.893798828125,0.1651611328125,0.0374755859375
1.421,313,2758,1115,332,12.0,28.0,17.0,-38.330078125,37.29248046875,65.4296875,-0.6270751953125,-0.0531005859375,0.056884765625
1.426,316,2268,1092,327,12.0,28.0,17.0,-38.330078125,37.29248046875,65.4296875,-0.3978271484375,-0.3436279296875,0.109130859375
1.446,315,1588,1042,302,12.0,28.0,17.0,4.150390625,44.006343841552734,67.138671875,-0.1988525390625,-0.5218505859375,0.114990234375
1.448,316,1375,1034,324,12.0,28.0,17.0,48.522945404052734,40.527339935302734,59.692378997802734,-0.0478515625,-0.43408203125,0.0797119140625
1.456,316,1312,1025,328,12.0,28.0,17.0,48.522945404052734,40.527339935302734,59.692378997802734,0.0255126953125,-0.1717529296875,0.1160888671875
1.487,315,922,987,327,12.0,28.0,17.0,92.95653533935547,20.385740280151367,39.97802734375,-0.03955078125,0.0826416015625,0.1768798828125
1.487,314,710,968,321,12.0,28.0,17.0,79.1015625,15.563963890075684,27.709959030151367,-0.2554931640625,0.3050537109375,0.11181640625
1.488,315,644,932,321,7.0,29.0,24.0,79.1015625,15.563963890075684,27.709959030151367,-0.4769287109375,0.56005859375,-0.049560546875
1.500,313,600,987,323,7.0,29.0,24.0,52.795406341552734,21.240232467651367,30.944822311401367,-0.5810546875,0.7874755859375,-0.1505126953125
1.509,312,648,1026,323,7.0,29.0,24.0,38.51318359375,18.798828125,42.968746185302734,-0.615966796875,0.8924560546875,-0.081787109375
1.516,314,687,1050,323,7.0,29.0,24.0,38.51318359375,18.798828125,42.968746185302734,-0.649658203125,0.8011474609375,0.0965576171875
1.547,314,721,1063,321,7.0,29.0,24.0,-15.136717796325684,8.36181640625,42.297359466552734,-0.7041015625,0.521728515625,0.20849609375
1.547,312,725,1056,321,7.0,29.0,24.0,-33.02001953125,6.591796398162842,28.503416061401367,-0.7755126953125,0.264404296875,0.179443359375
1.547,312,806,1085,322,7.0,29.0,24.0,-33.02001953125,6.591796398162842,28.503416061401367,-0.7755126953125,0.264404296875,0.179443359375
1.560,315,971,1081,322,7.0,29.0,24.0,-23.437498092651367,2.0751953125,15.563963890075684,-0.8505859375,0.2735595703125,0.104248046875
1.570,314,1070,1091,322,7.0,29.0,24.0,-23.437498092651367,2.0751953125,15.563963890075684,-0.863525390625,0.366455078125,0.1314697265625
1.597,315,1160,1085,324,7.0,29.0,24.0,-7.873534679412842,-4.8828125,19.287109375,-0.863525390625,0.366455078125,0.1314697265625
1.597,315,1093,1095,323,2.0,29.0,13.0,13.488768577575684,-16.2353515625,27.770994186401367,-0.9110107421875,0.31591796875,0.05078125
1.601,304,1236,1091,316,2.0,29.0,13.0,13.488768577575684,-16.2353515625,27.770994186401367,-0.945068359375,0.255615234375,-0.0360107421875
1.606,315,1225,1103,323,2.0,29.0,13.0,13.671874046325684,-19.775390625,32.28759765625,-0.945068359375,0.255615234375,-0.0360107421875
1.620,316,1268,1103,324,2.0,29.0,13.0,1.2817381620407104,-28.076169967651367,52.490230560302734,-0.9901123046875,0.25,-0.072509765625
1.628,315,1272,1103,323,2.0,29.0,13.0,1.2817381620407104,-28.076169967651367,52.490230560302734,-0.9544677734375,0.220703125,-0.068603515625
1.652,315,1282,1108,324,2.0,29.0,13.0,-7.568358898162842,-31.738279342651367,67.19970703125,-0.9544677734375,0.220703125,-0.068603515625
1.652,310,1695,1115,327,2.0,29.0,13.0,-22.460935592651367,-35.5224609375,100.58592987060547,-0.6898193359375,-0.0181884765625,-0.1329345703125
1.658,316,2343,1175,323,2.0,29.0,13.0,-22.460935592651367,-35.5224609375,100.58592987060547,-0.263916015625,-0.1591796875,-0.04443359375
1.666,318,3147,1163,432,2.0,29.0,13.0,-28.015134811401367,-36.56005859375,112.91503143310547,-0.263916015625,-0.1591796875,-0.04443359375
1.691,323,3147,1091,1266,3.0,31.0,21.0,-14.648436546325684,-52.917476654052734,61.645503997802734,1.541259765625,-0.25439453125,0.387451171875
1.692,316,3147,1213,1624,3.0,31.0,21.0,-14.648436546325684,-52.917476654052734,61.645503997802734,2.207275390625,-0.0350341796875,-0.00244140625
1.698,321,3147,1362,2024,3.0,31.0,21.0,28.991697311401367,-57.983394622802734,-20.202634811401367,2.207275390625,-0.0350341796875,-0.00244140625
1.710,327,3147,1516,2671,3.0,31.0,21.0,35.2783203125,-47.424312591552734,-173.70603942871094,0.14111328125,1.6595458984375,0.7508544921875
1.718,359,3147,1453,3121,3.0,31.0,21.0,35.2783203125,-47.424312591552734,-173.70603942871094,-1.4010009765625,3.0595703125,0.74267578125
1.727,328,3147,1422,3147,3.0,31.0,21.0,-11.657713890075684,-18.00537109375,-179.62644958496094,-1.4010009765625,3.0595703125,0.74267578125
1.754,344,3147,1516,2885,3.0,31.0,21.0,-244.62889099121094,38.14697265625,-159.85107421875,-3.11279296875,1.3243408203125,0.9920654296875
1.754,329,3147,1552,2293,3.0,31.0,21.0,-244.62889099121094,38.14697265625,-159.85107421875,-3.9097900390625,-1.0943603515625,0.852294921875
1.756,343,3147,1516,2030,3.0,31.0,21.0,-287.90283203125,21.850584030151367,-180.60301208496094,-3.9097900390625,-1.0943603515625,0.852294921875
1.771,382,3147,1490,2018,3.0,31.0,21.0,-174.19432067871094,17.39501953125,-173.03465270996094,-2.30224609375,-0.806396484375,-1.337158203125
1.804,361,3147,1454,1989,14.0,29.0,17.0,9.6435546875,29.418943405151367,-139.16015625,-2.30224609375,-0.806396484375,-1.337158203125
1.804,593,3147,1330,2060,14.0,29.0,17.0,99.85350799560547,37.353515625,-99.85350799560547,-1.55810546875,0.368408203125,-0.7352294921875
1.804,371,3147,1386,1997,14.0,29.0,17.0,44.677730560302734,39.4287109375,-63.354488372802734,-1.8031005859375,0.030517578125,0.6898193359375
1.810,338,3147,1428,1808,14.0,29.0,17.0,-48.400875091552734,40.893550872802734,-27.160642623901367,-1.8031005859375,0.030517578125,0.6898193359375
1.816,348,3147,1334,1653,14.0,29.0,17.0,-86.30370330810547,32.5927734375,13.854979515075684,-1.8609619140625,-0.326904296875,0.623779296875
1.831,346,3147,1206,1561,14.0,29.0,17.0,-59.875484466552734,16.66259765625,50.781246185302734,-1.4161376953125,-0.0477294921875,0.3363037109375
1.866,330,3147,1188,1317,14.0,29.0,17.0,-9.6435546875,2.563476324081421,76.171875,-1.4161376953125,-0.0477294921875,0.3363037109375
1.866,347,3147,1109,1018,14.0,29.0,17.0,21.362302780151367,-2.563476324081421,94.72655487060547,-1.1492919921875,0.2513427734375,0.1785888671875
1.866,316,3147,1173,332,14.0,29.0,17.0,23.925779342651367,1.7700194120407104,110.41259002685547,-0.72900390625,0.325927734375,0.02099609375
1.868,318,2424,1123,336,14.0,29.0,17.0,19.34814453125,10.803221702575684,121.27684783935547,-0.72900390625,0.325927734375,0.02099609375
1.878,314,1855,1118,324,6.0,29.0,20.0,27.526853561401367,18.5546875,120.60546112060547,-0.458984375,0.132080078125,0.08447265625
1.902,315,1399,1043,325,6.0,29.0,20.0,53.649898529052734,22.399900436401367,102.41698455810547,0.087158203125,-0.1788330078125,0.128662109375
1.907,310,1308,1039,328,6.0,29.0,20.0,95.33690643310547,24.108884811401367,73.18115234375,0.087158203125,-0.1788330078125,0.128662109375
1.907,313,1120,1014,310,6.0,29.0,20.0,130.92041015625,23.925779342651367,44.372554779052734,0.1807861328125,0.04345703125,0.10205078125
1.921,313,952,1012,322,6.0,29.0,20.0,130.67626953125,20.324705123901367,17.7001953125,-0.2232666015625,0.5745849609375,0.1044921875
1.928,308,910,989,323,6.0,29.0,20.0,98.87694549560547,19.10400390625,-4.7607421875,-0.2232666015625,0.5745849609375,0.1044921875
1.936,309,989,991,324,6.0,29.0,20.0,64.94140625,24.108884811401367,-12.329100608825684,-0.482421875,0.7437744140625,-0.048095703125
1.959,310,1037,1037,323,6.0,29.0,20.0,41.381832122802734,28.137205123901367,-1.9531248807907104,-0.6197509765625,0.792724609375,-0.10986328125
1.959,308,1017,1050,324,6.0,29.0,20.0,21.728513717651367,24.780271530151367,14.770506858825684,-0.6197509765625,0.792724609375,-0.10986328125
1.966,310,1012,1067,323,6.0,29.0,20.0,-0.7934569716453552,16.7236328125,24.169919967651367,-0.65185546875,0.5614013671875,0.048828125
1.980,310,1085,1083,323,5.0,32.0,16.0,-21.606443405151367,10.620116233825684,22.338865280151367,-0.809814453125,0.0302734375,0.1246337890625
1.998,308,1156,1097,323,5.0,32.0,16.0,-31.127927780151367,8.11767578125,16.78466796875,-0.809814453125,0.0302734375,0.1246337890625
1.998,308,1207,1066,321,5.0,32.0,16.0,-28.625486373901367,5.981444835662842,16.05224609375,-0.87939453125,0.0576171875,0.08740234375
2.010,310,1336,1101,324,5.0,32.0,16.0,-21.118162155151367,1.5258787870407104,22.460935592651367,-0.91845703125,0.18310546875,0.080078125
2.019,308,1386,1107,327,5.0,32.0,16.0,-13.977049827575684,-4.638671875,33.3251953125,-0.9478759765625,0.2760009765625,0.09814453125
2.027,308,1409,1104,327,5.0,32.0,16.0,-8.23974609375,-10.742186546325684,44.677730560302734,-0.9676513671875,0.2957763671875,0.0970458984375
2.040,311,1390,1096,324,5.0,32.0,16.0,-4.5166015625,-15.502928733825684,54.626461029052734,-0.9703369140625,0.2640380859375,0.054931640625
2.062,308,1396,1095,327,5.0,32.0,16.0,-2.624511480331421,-18.9208984375,64.14794921875,-0.9659423828125,0.232421875,0.0042724609375
2.062,313,1331,1056,304,5.0,32.0,16.0,-2.563476324081421,-22.338865280151367,74.76806640625,-0.97900390625,0.244140625,-0.0274658203125
2.070,313,1287,1097,318,5.0,32.0,16.0,-4.69970703125,-25.939939498901367,88.98925018310547,-0.9891357421875,0.2783203125,-0.04248046875
2.079,313,1387,1107,328,3.0,30.0,17.0,-7.507323741912842,-28.137205123901367,106.87255096435547,-0.9190673828125,0.2843017578125,-0.0587158203125
2.099,310,1687,1120,324,3.0,30.0,17.0,-11.718749046325684,-27.770994186401367,124.93895721435547,-0.733642578125,0.252197265625,-0.05712890625
2.100,313,3095,1148,330,3.0,30.0,17.0,-20.751951217651367,-26.672361373901367,135.55908203125,-0.3990478515625,0.15380859375,0.020751953125
2.108,312,3147,1112,913,3.0,30.0,17.0,-33.8134765625,-28.503416061401367,126.70897674560547,0.16845703125,0.0675048828125,0.221923828125
2.116,321,3147,1115,1409,3.0,30.0,17.0,-38.39111328125,-35.70556640625,87.40233612060547,0.994873046875,0.0120849609375,0.5748291015625
2.129,316,3147,1303,1882,3.0,30.0,17.0,-8.4228515625,-45.043941497802734,6.530761241912842,1.90478515625,-0.22314453125,0.4263916015625
2.138,318,3147,1440,2453,3.0,30.0,17.0,52.124019622802734,-46.325679779052734,-106.93358612060547,2.3348388671875,-0.177490234375,-0.2255859375
2.162,324,3147,1534,2700,3.0,30.0,17.0,81.35985565185547,-50.109859466552734,-199.70701599121094,1.4530029296875,0.6365966796875,-0.05322265625
2.162,323,3147,1504,3147,3.0,30.0,17.0,49.255367279052734,-54.687496185302734,-223.20555114746094,-0.6007080078125,2.2423095703125,0.5946044921875
2.168,324,3147,1504,3110,3.0,30.0,17.0,-17.02880859375,-25.695798873901367,-182.06785583496094,-1.9962158203125,3.61083984375,0.6015625
2.176,328,3147,1552,2911,11.0,28.0,19.0,-129.2724609375,15.136717796325684,-142.88330078125,-2.7132568359375,3.125732421875,0.6280517578125
2.211,327,3147,1527,2228,11.0,28.0,19.0,-257.4462890625,18.5546875,-143.98193359375,-3.6302490234375,0.597412109375,0.965087890625
2.213,318,3147,1536,2260,11.0,28.0,19.0,-272.216796875,4.94384765625,-150.08544921875,-3.73046875,-2.0701904296875,0.4068603515625
2.214,319,3147,1550,2322,11.0,28.0,19.0,-91.30858612060547,11.047362327575684,-135.92529296875,-2.646484375,-2.15869140625,-0.79052734375
2.223,319,3147,1504,2328,11.0,28.0,19.0,126.95311737060547,17.2119140625,-102.84423065185547,-1.6572265625,-0.1422119140625,-0.8236083984375
2.228,316,3147,1494,2360,11.0,28.0,19.0,155.21240234375,22.705076217651367,-65.73486328125,-1.50732421875,1.114013671875,0.0150146484375
2.264,316,3147,1483,2296,11.0,28.0,19.0,38.2080078125,42.785640716552734,-36.68212890625,-1.7135009765625,0.842041015625,0.4501953125
2.264,316,3147,1397,2129,11.0,28.0,19.0,-55.236812591552734,48.278804779052734,-9.3994140625,-1.8675537109375,0.217041015625,0.5181884765625
2.264,299,3147,1331,1973,11.0,28.0,19.0,-68.29833984375,32.1044921875,22.094724655151367,-1.7977294921875,0.01171875,0.427978515625
2.269,308,3147,1236,1867,11.0,28.0,19.0,-41.748043060302734,18.798828125,52.246089935302734,-1.6044921875,0.1131591796875,0.21923828125
2.280,310,3147,1198,1494,12.0,30.0,18.0,-22.583005905151367,14.648436546325684,76.96533203125,-1.353515625,0.2650146484375,0.03662109375
2.288,308,3147,1188,1067,12.0,30.0,18.0,-20.202634811401367,14.404295921325684,96.25243377685547,-1.0677490234375,0.34033203125,0.0050048828125
2.304,310,3147,1185,344,12.0,30.0,18.0,-16.29638671875,16.17431640625,107.66600799560547,-0.805908203125,0.3040771484375,0.11376953125
2.315,315,2144,1143,324,12.0,30.0,18.0,6.042479991912842,19.775390625,106.44530487060547,-0.5252685546875,0.14404296875,0.24169921875
2.318,314,1480,1108,323,12.0,30.0,18.0,45.288082122802734,24.719236373901367,88.07372283935547,-0.197265625,-0.113525390625,0.26513671875
2.330,308,1225,1091,321,12.0,30.0,18.0,93.13964080810547,30.456541061401367,57.128902435302734,0.1195068359375,-0.2188720703125,0.1802978515625
2.340,309,803,1031,321,12.0,30.0,18.0,131.4697265625,35.21728515625,23.559568405151367,0.29052734375,-0.083251953125,0.1561279296875
2.348,312,514,991,318,12.0,30.0,18.0,133.1787109375,34.97314453125,-9.765625,0.21630859375,0.175048828125,0.2442626953125
2.368,308,465,951,323,12.0,30.0,18.0,100.21971893310547,32.28759765625,-36.92626953125,-0.0880126953125,0.472412109375,0.2645263671875
2.370,310,561,996,318,7.0,31.0,20.0,64.453125,31.005857467651367,-43.701168060302734,-0.4447021484375,0.76953125,0.1527099609375
2.381,310,587,998,322,7.0,31.0,20.0,41.076656341552734,26.611326217651367,-27.282712936401367,-0.629638671875,0.969482421875,0.004638671875
2.387,310,630,992,319,7.0,31.0,20.0,18.6767578125,17.578125,-5.065917491912842,-0.6353759765625,0.874267578125,-0.1051025390625
2.409,310,644,985,321,7.0,31.0,20.0,-9.09423828125,11.840819358825684,8.544921875,-0.625244140625,0.50634765625,-0.193115234375
2.409,309,682,978,321,7.0,31.0,20.0,-31.372068405151367,12.512206077575684,14.648436546325684,-0.66259765625,0.1561279296875,-0.2742919921875
2.416,312,687,1009,321,7.0,31.0,20.0,-42.968746185302734,12.573241233825684,18.6767578125,-0.715576171875,-0.0286865234375,-0.284423828125
2.436,313,697,1004,323,7.0,31.0,20.0,-47.668453216552734,8.056640625,23.498533248901367,-0.783447265625,-0.070556640625,-0.1754150390625
2.438,313,721,1018,322,7.0,31.0,20.0,-44.555660247802734,0.6103515625,30.639646530151367,-0.8436279296875,0.010009765625,-0.0115966796875
2.446,313,873,1037,317,7.0,31.0,20.0,-32.28759765625,-7.385253429412842,40.832515716552734,-0.8677978515625,0.1556396484375,0.1304931640625
2.470,315,932,1064,328,7.0,31.0,20.0,-15.991209983825684,-15.686034202575684,53.039546966552734,-0.859619140625,0.24267578125,0.2119140625
2.470,313,1078,1078,324,5.0,33.0,18.0,-2.990722417831421,-22.949216842651367,64.75830078125,-0.870849609375,0.232421875,0.223876953125
2.476,314,1143,1074,325,5.0,33.0,18.0,-2.990722417831421,-22.949216842651367,64.75830078125,-0.9310302734375,0.1995849609375,0.1873779296875
2.491,313,1159,1095,327,5.0,33.0,18.0,9.1552734375,-34.0576171875,90.08788299560547,-1.0020751953125,0.2020263671875,0.122802734375
2.506,313,1377,1093,321,5.0,33.0,18.0,10.620116233825684,-38.26904296875,108.03221893310547,-1.0177001953125,0.2357177734375,0.0462646484375
2.507,315,1497,1105,327,5.0,33.0,18.0,10.620116233825684,-38.26904296875,108.03221893310547,-0.9498291015625,0.2779541015625,-0.018310546875
2.520,311,1792,1101,327,5.0,33.0,18.0,0.30517578125,-38.39111328125,149.47509765625,-0.77392578125,0.2890625,-0.0396728515625
2.528,313,2259,1097,323,5.0,33.0,18.0,-12.329100608825684,-37.59765625,158.5693359375,-0.3984375,0.1927490234375,0.04638671875
2.540,315,3147,1054,402,5.0,33.0,18.0,-12.329100608825684,-37.59765625,158.5693359375,0.2525634765625,0.1201171875,0.2352294921875
2.550,316,3147,1129,1473,5.0,33.0,18.0,-24.047849655151367,-53.039546966552734,99.06005096435547,1.130859375,0.1033935546875,0.5072021484375
2.573,321,3147,1201,1722,5.0,33.0,18.0,5.859374523162842,-65.12451171875,9.3994140625,2.0313720703125,-0.085693359375,0.416748046875
2.573,322,3147,1290,2087,3.0,29.0,15.0,5.859374523162842,-65.12451171875,9.3994140625,2.389404296875,-0.0328369140625,-0.0040283203125
2.580,328,3147,1478,2765,3.0,29.0,15.0,76.2939453125,-70.12939453125,-212.28025817871094,1.3499755859375,0.754150390625,0.103271484375
2.590,328,3147,1521,3111,3.0,29.0,15.0,28.015134811401367,-63.964839935302734,-240.47850036621094,-0.950439453125,2.2835693359375,0.430908203125
2.596,330,3147,1494,3147,3.0,29.0,15.0,28.015134811401367,-63.964839935302734,-240.47850036621094,-2.3487548828125,3.6236572265625,0.260498046875
2.612,327,3147,1544,2691,3.0,29.0,15.0,-144.287109375,17.9443359375,-150.390625,-2.8397216796875,3.3243408203125,0.30126953125
2.619,321,3147,1561,2381,3.0,29.0,15.0,-257.568359375,19.775390625,-142.02880859375,-3.6328125,0.85205078125,0.8856201171875
2.626,319,3147,1564,2296,3.0,29.0,15.0,-257.568359375,19.775390625,-142.02880859375,-3.4151611328125,-2.1644287109375,0.536865234375
2.640,316,3147,1574,2316,3.0,29.0,15.0,-81.48192596435547,10.498045921325684,-135.986328125,-2.1605224609375,-2.1876220703125,-0.4842529296875
2.655,319,3147,1552,2266,3.0,29.0,15.0,147.3388671875,17.7001953125,-112.60985565185547,-1.3369140625,0.217529296875,-0.36572265625
2.672,318,3147,1544,2190,3.0,29.0,15.0,147.3388671875,17.7001953125,-112.60985565185547,-1.3477783203125,1.5126953125,0.27783203125
2.673,316,3147,1521,1949,11.0,27.0,20.0,39.9169921875,58.593746185302734,-60.241695404052734,-1.729248046875,1.111083984375,0.4066162109375
2.678,318,3147,1496,1808,11.0,27.0,20.0,-57.739253997802734,64.51416015625,-37.7197265625,-1.9959716796875,0.323486328125,0.3448486328125
2.686,316,3147,1440,1687,11.0,27.0,20.0,-57.739253997802734,64.51416015625,-37.7197265625,-1.9959716796875,0.323486328125,0.3448486328125
2.714,316,3147,1276,1416,11.0,27.0,20.0,-61.645503997802734,28.625486373901367,24.658201217651367,-1.7205810546875,0.089599609375,0.0687255859375
2.719,316,3147,1231,1283,11.0,27.0,20.0,-61.645503997802734,28.625486373901367,24.658201217651367,-1.3720703125,0.17529296875,-0.0516357421875
2.721,302,3147,1217,832,11.0,27.0,20.0,-52.062984466552734,21.423337936401367,53.527828216552734,-1.3720703125,0.17529296875,-0.0516357421875
2.726,313,3147,1173,338,11.0,27.0,20.0,-55.725093841552734,18.310546875,77.392578125,-1.001953125,0.1363525390625,-0.0526123046875
2.739,315,1698,1138,321,11.0,27.0,20.0,-27.160642623901367,22.583005905151367,97.90038299560547,-0.4088134765625,-0.23779296875,0.241943359375
2.747,313,1303,1151,328,11.0,27.0,20.0,-27.160642623901367,22.583005905151367,97.90038299560547,-0.1268310546875,-0.356201171875,0.280029296875
2.755,310,1078,1108,329,11.0,27.0,20.0,23.620603561401367,28.808591842651367,85.63231658935547,-0.1268310546875,-0.356201171875,0.280029296875
2.775,309,725,1069,318,8.0,31.0,15.0,128.11279296875,37.53662109375,36.07177734375,0.2406005859375,-0.0653076171875,0.2664794921875
2.777,308,584,996,327,8.0,31.0,15.0,128.11279296875,37.53662109375,36.07177734375,0.156005859375,0.1754150390625,0.3089599609375
2.785,308,590,1000,323,8.0,31.0,15.0,133.85009765625,31.799314498901367,7.446288585662842,0.156005859375,0.1754150390625,0.3089599609375
2.799,313,669,1029,319,8.0,31.0,15.0,110.71776580810547,28.747556686401367,-15.686034202575684,-0.315185546875,0.7144775390625,0.133544921875
2.817,310,625,1024,323,8.0,31.0,15.0,85.38817596435547,28.137205123901367,-19.775390625,-0.315185546875,0.7144775390625,0.133544921875
2.817,310,605,1037,323,8.0,31.0,15.0,71.8994140625,22.277830123901367,-5.920409679412842,-0.4193115234375,0.865478515625,0.0084228515625
2.830,308,737,1063,317,8.0,31.0,15.0,57.373043060302734,10.925292015075684,10.742186546325684,-0.5428466796875,0.5943603515625,-0.0628662109375
2.837,308,818,1071,318,8.0,31.0,15.0,26.794431686401367,1.7089842557907104,18.798828125,-0.5428466796875,0.5943603515625,-0.0628662109375
2.846,310,975,1079,322,8.0,31.0,15.0,-10.620116233825684,0.1220703050494194,17.76123046875,-0.6451416015625,0.23095703125,-0.099853515625
2.880,308,1108,1098,323,5.0,34.0,15.0,-33.69140625,1.5258787870407104,15.563963890075684,-0.8338623046875,0.0086669921875,-0.08056640625
2.881,308,1224,1129,324,5.0,34.0,15.0,-33.63037109375,-1.5258787870407104,18.49365234375,-0.8338623046875,0.0086669921875,-0.08056640625
2.883,308,1387,1129,328,5.0,34.0,15.0,-19.95849609375,-9.3994140625,26.611326217651367,-0.89453125,0.19873046875,0.0245361328125
2.889,308,1555,1156,328,5.0,34.0,15.0,-7.019042491912842,-17.39501953125,36.62109375,-1.0233154296875,0.522705078125,0.198486328125
2.897,310,1611,1157,330,5.0,34.0,15.0,-3.112792730331421,-22.094724655151367,44.616695404052734,-1.0233154296875,0.522705078125,0.198486328125
2.909,310,1700,1163,323,5.0,34.0,15.0,-7.873534679412842,-24.047849655151367,49.743648529052734,-1.07080078125,0.4464111328125,0.18701171875
2.919,313,1678,1185,324,5.0,34.0,15.0,-13.610838890075684,-26.000974655151367,54.931636810302734,-1.0677490234375,0.1905517578125,0.0400390625
2.927,312,1691,1188,328,5.0,34.0,15.0,-12.756346702575684,-29.418943405151367,63.293453216552734,-1.0677490234375,0.1905517578125,0.0400390625
2.935,313,1648,1189,324,5.0,34.0,15.0,-6.591796398162842,-33.5693359375,76.66015625,-1.0286865234375,0.1920166015625,-0.0318603515625
2.950,308,1518,1183,324,5.0,34.0,15.0,-1.5869139432907104,-36.9873046875,94.78759002685547,-0.907470703125,0.247314453125,-0.084716796875
2.957,315,1861,1162,324,0.0,34.0,15.0,-2.807616949081421,-39.4287109375,114.99022674560547,-0.907470703125,0.247314453125,-0.084716796875
2.983,313,2299,1116,325,0.0,34.0,15.0,-10.864256858825684,-41.503902435302734,132.26318359375,-0.7022705078125,0.173828125,-0.048828125
2.983,315,3147,1148,897,0.0,34.0,15.0,-22.399900436401367,-45.898433685302734,136.71875,0.644775390625,-0.1995849609375,0.3675537109375
2.990,316,3147,1228,1499,0.0,34.0,15.0,-26.123044967651367,-56.030269622802734,116.14989471435547,0.644775390625,-0.1995849609375,0.3675537109375
2.995,316,3147,1282,1783,0.0,34.0,15.0,-2.44140625,-63.415523529052734,57.128902435302734,1.72119140625,-0.37744140625,0.3565673828125
3.021,318,3147,1500,2492,0.0,34.0,15.0,46.752925872802734,-55.847164154052734,-43.395992279052734,1.9571533203125,0.5533447265625,0.2740478515625
3.021,318,3147,1531,2958,0.0,34.0,15.0,77.1484375,-47.363277435302734,-152.83203125,1.9571533203125,0.5533447265625,0.2740478515625
3.025,321,3147,1557,3147,0.0,34.0,15.0,53.405757904052734,-46.997066497802734,-218.01756286621094,0.0279541015625,1.7845458984375,0.760498046875
3.040,331,3147,1545,3147,0.0,34.0,15.0,-1.15966796875,-21.484373092651367,-205.01707458496094,-1.6064453125,3.29443359375,0.681396484375
3.047,333,3147,1627,2870,0.0,34.0,15.0,-79.04052734375,26.916501998901367,-160.5224609375,-2.1837158203125,3.675048828125,0.1937255859375
3.055,328,3147,1632,2471,12.0,27.0,20.0,-197.57078552246094,40.283199310302734,-151.79443359375,-3.0157470703125,2.0394287109375,0.3995361328125
3.083,323,3147,1623,2105,12.0,27.0,20.0,-278.62548828125,15.197752952575684,-167.05320739746094,-3.8343505859375,-0.683837890625,0.628662109375
3.083,323,3147,1637,2238,12.0,27.0,20.0,-200.01219177246094,5.493163585662842,-168.57908630371094,-3.4046630859375,-2.233154296875,-0.270263671875
3.086,318,3147,1623,2226,12.0,27.0,20.0,9.09423828125,16.90673828125,-146.42333984375,-2.20556640625,-1.2066650390625,-0.9508056640625
3.103,329,3147,1579,2167,12.0,27.0,20.0,133.30078125,20.812986373901367,-110.35155487060547,-1.542724609375,0.538818359375,-0.2305908203125
3.107,318,3147,1545,2127,12.0,27.0,20.0,75.86669921875,33.8134765625,-75.5615234375,-1.537841796875,0.9884033203125,0.60302734375
3.116,316,3147,1483,1967,12.0,27.0,20.0,-32.28759765625,53.649898529052734,-47.180171966552734,-1.7823486328125,0.52978515625,0.7125244140625
3.130,314,3147,1365,1666,12.0,27.0,20.0,-82.88573455810547,51.025386810302734,-15.991209983825684,-1.86279296875,0.1131591796875,0.44384765625
3.137,315,3147,1320,1541,12.0,27.0,20.0,-79.89501953125,36.2548828125,18.73779296875,-1.7091064453125,0.0516357421875,0.1165771484375
3.145,313,3147,1220,1313,12.0,27.0,20.0,-58.593746185302734,25.573728561401367,47.973628997802734,-1.408935546875,0.082275390625,-0.025390625
3.159,313,3147,1185,683,12.0,30.0,19.0,-31.555173873901367,16.9677734375,67.5048828125,-1.040771484375,0.043212890625,0.0643310546875
3.167,316,3137,1173,338,12.0,30.0,19.0,-4.57763671875,10.070799827575684,81.11571502685547,-0.7310791015625,-0.057861328125,0.2464599609375
3.187,313,2397,1167,328,12.0,30.0,19.0,17.822265625,9.765625,92.10204315185547,-0.52099609375,-0.13037109375,0.370849609375
3.189,317,1441,1173,323,12.0,30.0,19.0,38.51318359375,16.6015625,95.33690643310547,-0.3438720703125,-0.161376953125,0.3419189453125
3.197,431,1236,431,316,12.0,30.0,19.0,66.10107421875,26.794431686401367,84.28954315185547,-0.1610107421875,-0.102294921875,0.2144775390625
3.205,328,1160,1095,321,12.0,30.0,19.0,102.90526580810547,32.71484375,61.584468841552734,0.00634765625,0.0277099609375,0.1666259765625
3.223,332,923,1093,321,12.0,30.0,19.0,133.60595703125,28.747556686401367,32.470703125,0.0914306640625,0.12255859375,0.20703125
3.227,313,759,1043,323,12.0,30.0,19.0,140.56396484375,22.033689498901367,2.50244140625,0.012939453125,0.198486328125,0.1768798828125
3.236,316,697,1031,321,12.0,30.0,19.0,124.38964080810547,22.033689498901367,-17.02880859375,-0.1800537109375,0.3768310546875,0.05908203125
3.249,315,813,1067,321,5.0,31.0,16.0,100.40282440185547,22.949216842651367,-16.6015625,-0.344970703125,0.6253662109375,-0.03271484375
3.257,315,907,1081,323,5.0,31.0,16.0,77.45361328125,16.41845703125,-0.54931640625,-0.46337890625,0.8189697265625,-0.0595703125
3.265,315,1012,1112,323,5.0,31.0,16.0,49.377437591552734,6.652831554412842,16.90673828125,-0.5570068359375,0.82177734375,-0.03955078125
3.289,313,1132,1111,324,5.0,31.0,16.0,10.681151390075684,2.01416015625,24.414060592651367,-0.6370849609375,0.551025390625,-0.0382080078125
3.289,313,1234,1112,326,5.0,31.0,16.0,-25.878904342651367,3.173827886581421,22.521970748901367,-0.73486328125,0.19091796875,-0.106201171875
3.295,315,1323,1117,327,5.0,31.0,16.0,-43.701168060302734,4.39453125,20.568845748901367,-0.8323974609375,0.0240478515625,-0.166748046875
3.309,315,1490,1118,327,5.0,31.0,16.0,-41.564937591552734,1.7700194120407104,23.803709030151367,-0.8924560546875,0.1009521484375,-0.134521484375
3.335,313,1546,1123,319,5.0,31.0,16.0,-30.578611373901367,-3.906249761581421,30.212400436401367,-0.9329833984375,0.279296875,-0.0386962890625
3.335,313,1650,1146,322,5.0,31.0,16.0,-21.545408248901367,-10.375975608825684,37.41455078125,-0.98388671875,0.4141845703125,0.06201171875
3.339,315,1722,1173,324,5.0,31.0,16.0,-17.822265625,-16.54052734375,45.898433685302734,-1.0328369140625,0.4378662109375,0.1224365234375
3.347,314,1732,1185,327,7.0,29.0,18.0,-16.9677734375,-21.240232467651367,56.030269622802734,-1.0679931640625,0.36767578125,0.128662109375
3.355,313,1735,1178,328,7.0,29.0,18.0,-17.15087890625,-25.512693405151367,67.626953125,-1.0804443359375,0.2650146484375,0.1365966796875
3.369,314,1689,1185,327,7.0,29.0,18.0,-18.4326171875,-31.433103561401367,79.89501953125,-1.0645751953125,0.168212890625,0.146484375
3.394,313,1557,1198,332,7.0,29.0,18.0,-16.29638671875,-37.17041015625,93.74999237060547,-1.0289306640625,0.1038818359375,0.095947265625
3.395,316,1561,1172,324,7.0,29.0,18.0,-7.873534679412842,-40.161128997802734,111.45018768310547,-0.9290771484375,0.0955810546875,0.0093994140625
3.399,315,2271,1120,336,7.0,29.0,18.0,-0.9765624403953552,-41.259761810302734,131.16455078125,-0.67724609375,0.1226806640625,-0.0211181640625
3.410,311,3000,1108,328,7.0,29.0,18.0,-4.94384765625,-43.640132904052734,141.29638671875,-0.244384765625,0.12353515625,0.146240234375
3.415,315,3147,1148,909,7.0,29.0,18.0,-14.221190452575684,-51.147457122802734,127.07518768310547,0.4302978515625,-0.0289306640625,0.4766845703125
3.431,316,3147,1233,1640,7.0,29.0,18.0,-5.554198741912842,-55.969234466552734,76.416015625,1.4051513671875,-0.3563232421875,0.5601806640625
3.441,321,3147,1369,2005,7.0,29.0,18.0,32.53173828125,-47.363277435302734,-15.930174827575684,2.29931640625,-0.394287109375,0.199462890625
3.445,318,3147,1450,2521,5.0,30.0,16.0,68.603515625,-40.222164154052734,-123.16893768310547,2.2982177734375,0.1453857421875,-0.0321044921875
3.459,323,3147,1533,3147,5.0,30.0,16.0,61.340328216552734,-45.776363372802734,-195.25144958496094,0.6112060546875,1.3748779296875,0.3116455078125
3.467,323,3147,1490,3147,5.0,30.0,16.0,22.216794967651367,-31.311033248901367,-196.16697692871094,-1.3260498046875,3.0731201171875,0.419677734375
3.491,336,3147,1503,3147,5.0,30.0,16.0,-44.921871185302734,12.329100608825684,-162.10935974121094,-2.1248779296875,3.7672119140625,0.106201171875
3.499,334,3147,1555,2799,5.0,30.0,16.0,-173.27879333496094,35.400390625,-158.63037109375,-2.9014892578125,2.5716552734375,0.4366455078125
3.501,328,3147,1550,2272,5.0,30.0,16.0,-296.2646484375,17.76123046875,-173.33982849121094,-3.7713623046875,-0.2635498046875,0.8555908203125
3.505,321,3147,1588,2230,5.0,30.0,16.0,-296.2646484375,17.76123046875,-173.33982849121094,-3.3516845703125,-2.6231689453125,-0.0164794921875
3.534,316,3147,1580,2128,5.0,30.0,16.0,-15.686034202575684,10.986327171325684,-155.70068359375,-2.0504150390625,-1.68603515625,-0.8658447265625
3.539,321,3147,1560,2070,5.0,30.0,16.0,176.75779724121094,10.253905296325684,-123.35204315185547,-1.3448486328125,0.697265625,-0.3056640625
3.554,300,3147,1509,2072,5.0,30.0,16.0,176.75779724121094,10.253905296325684,-123.35204315185547,-1.39453125,1.3568115234375,0.4044189453125
3.557,324,3147,1464,1730,11.0,30.0,21.0,-15.441893577575684,54.382320404052734,-64.8193359375,-1.7222900390625,0.5841064453125,0.566650390625
3.560,316,3147,1369,1627,11.0,30.0,21.0,-93.50585174560547,56.457515716552734,-36.68212890625,-1.8836669921875,-0.037353515625,0.5013427734375
3.567,316,3147,1280,1580,11.0,30.0,21.0,-95.52001190185547,44.555660247802734,-0.9765624403953552,-1.8206787109375,-0.04541015625,0.2154541015625
3.594,308,3147,1173,1202,11.0,30.0,21.0,-84.22850799560547,36.43798828125,34.24072265625,-1.6171875,0.1019287109375,-0.1461181640625
3.595,312,3147,1184,813,11.0,30.0,21.0,-85.02196502685547,31.433103561401367,61.828609466552734,-1.276123046875,0.18115234375,-0.27197265625
3.596,294,3147,1166,328,11.0,30.0,21.0,-76.66015625,27.038572311401367,77.7587890625,-0.8524169921875,0.097900390625,-0.0577392578125
3.607,310,2453,1188,330,11.0,30.0,21.0,-76.66015625,27.038572311401367,77.7587890625,-0.5108642578125,-0.0692138671875,0.291259765625
3.619,313,1383,1170,327,11.0,30.0,21.0,5.676269054412842,24.902341842651367,79.833984375,-0.3026123046875,-0.227783203125,0.4906005859375
3.636,313,1056,1185,330,11.0,30.0,21.0,44.494625091552734,30.944822311401367,72.57080078125,-0.14013671875,-0.287841796875,0.4681396484375
3.637,308,891,1156,323,11.0,30.0,21.0,44.494625091552734,30.944822311401367,72.57080078125,-0.022216796875,-0.1832275390625,0.3994140625
3.649,321,749,1064,318,7.0,30.0,14.0,111.32811737060547,36.80419921875,42.114253997802734,-0.0198974609375,-0.016845703125,0.4097900390625
3.657,316,632,1045,318,7.0,30.0,14.0,125.91551971435547,26.062009811401367,20.01953125,-0.13525390625,0.1441650390625,0.391845703125
3.666,316,632,1050,323,7.0,30.0,14.0,125.91551971435547,26.062009811401367,20.01953125,-0.3011474609375,0.3515625,0.223876953125
3.679,315,683,1042,321,7.0,30.0,14.0,111.81639862060547,21.423337936401367,-7.263183116912842,-0.4173583984375,0.5792236328125,-0.018310546875
3.699,307,698,1070,323,7.0,30.0,14.0,97.65624237060547,17.76123046875,-3.051757574081421,-0.449951171875,0.7003173828125,-0.1878662109375
3.699,310,675,1069,321,7.0,30.0,14.0,97.65624237060547,17.76123046875,-3.051757574081421,-0.4635009765625,0.685791015625,-0.2037353515625
3.713,310,737,1085,323,7.0,30.0,14.0,55.969234466552734,-0.7324218153953552,10.498045921325684,-0.5125732421875,0.5450439453125,-0.1072998046875
3.718,310,725,1098,323,7.0,30.0,14.0,55.969234466552734,-0.7324218153953552,10.498045921325684,-0.58642578125,0.3072509765625,-0.0264892578125
3.738,309,938,1097,324,7.0,30.0,14.0,30.151365280151367,-6.164550304412842,9.6435546875,-0.58642578125,0.3072509765625,-0.0264892578125
3.739,308,1189,1123,323,7.0,33.0,19.0,-3.479003667831421,-7.263183116912842,10.803221702575684,-0.7406005859375,0.10400390625,-0.021240234375
3.748,308,1331,1136,328,7.0,33.0,19.0,-3.479003667831421,-7.263183116912842,10.803221702575684,-0.837890625,0.192626953125,-0.013427734375
3.755,309,1478,1148,323,7.0,33.0,19.0,-3.540038824081421,-8.056640625,17.27294921875,-0.837890625,0.192626953125,-0.013427734375
3.769,308,1636,1149,327,7.0,33.0,19.0,3.967284917831421,-12.817381858825684,33.02001953125,-1.069091796875,0.4267578125,0.0516357421875
3.779,308,1718,1170,327,7.0,33.0,19.0,3.967284917831421,-12.817381858825684,33.02001953125,-1.135986328125,0.4703369140625,0.0535888671875
3.800,309,1785,1170,330,7.0,33.0,19.0,-1.220703125,-14.465331077575684,39.61181640625,-1.135986328125,0.4703369140625,0.0535888671875
3.800,308,1824,1178,328,7.0,33.0,19.0,-18.9208984375,-18.310546875,54.992671966552734,-1.1199951171875,0.37109375,0.0133056640625
3.807,309,1757,1198,328,7.0,33.0,19.0,-18.9208984375,-18.310546875,54.992671966552734,-1.093994140625,0.2843017578125,-0.009521484375
3.822,308,1560,1198,326,7.0,33.0,19.0,-26.000974655151367,-21.423337936401367,66.7724609375,-1.093994140625,0.2843017578125,-0.009521484375
3.838,310,1248,1191,332,7.0,33.0,19.0,-31.799314498901367,-27.954099655151367,98.26659393310547,-1.0457763671875,0.1151123046875,-0.0111083984375
3.839,310,1217,1173,323,3.0,32.0,21.0,-31.799314498901367,-27.954099655151367,98.26659393310547,-1.01806640625,0.1070556640625,0.0126953125
3.845,312,1228,1160,328,3.0,32.0,21.0,-25.024412155151367,-35.0341796875,116.94335174560547,-1.01806640625,0.1070556640625,0.0126953125
3.859,310,1746,1123,328,3.0,32.0,21.0,-5.676269054412842,-48.645015716552734,159.85107421875,-0.667236328125,0.0294189453125,-0.01171875
3.867,310,2464,1109,336,3.0,32.0,21.0,-5.676269054412842,-48.645015716552734,159.85107421875,-0.035400390625,-0.1295166015625,0.0831298828125
3.875,313,3147,1131,661,3.0,32.0,21.0,-6.286620616912842,-49.560543060302734,165.71043395996094,-0.035400390625,-0.1295166015625,0.0831298828125
3.901,316,3147,1236,1483,3.0,32.0,21.0,-8.85009765625,-63.781734466552734,70.1904296875,1.9488525390625,-0.260009765625,0.79541015625
3.902,317,3147,1362,1785,3.0,32.0,21.0,-8.85009765625,-63.781734466552734,70.1904296875,2.6290283203125,-0.4012451171875,0.13427734375
3.905,323,3147,1531,2308,3.0,32.0,21.0,46.386714935302734,-61.645503997802734,-45.166011810302734,2.6290283203125,-0.4012451171875,0.13427734375
3.926,323,3147,1549,2968,3.0,32.0,21.0,70.00732421875,-37.65869140625,-218.62791442871094,0.1378173828125,1.80517578125,0.428955078125
3.927,323,3147,1557,3147,3.0,32.0,21.0,70.00732421875,-37.65869140625,-218.62791442871094,-1.803466796875,3.3809814453125,0.501220703125
3.945,334,3147,1478,3147,6.0,31.0,14.0,7.446288585662842,-15.808104515075684,-203.06394958496094,-1.803466796875,3.3809814453125,0.501220703125
3.950,328,3147,1580,2958,6.0,31.0,14.0,-72.8759765625,25.573728561401367,-160.5224609375,-3.195556640625,2.2059326171875,0.720458984375
3.958,328,3147,1600,2296,6.0,31.0,14.0,-196.96043395996094,29.113767623901367,-155.09033203125,-3.195556640625,2.2059326171875,0.720458984375
3.965,342,3147,1575,2111,6.0,31.0,14.0,-286.9873046875,0.0610351525247097,-168.57908630371094,-3.73974609375,-0.943115234375,0.9337158203125
3.979,319,3147,1629,2024,6.0,31.0,14.0,-181.70164489746094,1.5869139432907104,-173.82810974121094,-1.81640625,-0.9228515625,-0.7506103515625
4.006,321,3147,1590,1880,6.0,31.0,14.0,77.20947265625,22.399900436401367,-164.85594177246094,-1.81640625,-0.9228515625,-0.7506103515625
4.006,318,3147,1588,1761,6.0,31.0,14.0,201.96531677246094,36.865234375,-140.5029296875,-1.4970703125,1.24072265625,-0.069091796875
4.011,319,3147,1536,1514,6.0,31.0,14.0,95.09276580810547,70.6787109375,-114.19676971435547,-1.9141845703125,0.3787841796875,0.34521484375
4.019,317,3147,1464,1417,6.0,31.0,14.0,-55.908199310302734,92.89550018310547,-87.76854705810547,-1.9141845703125,0.3787841796875,0.34521484375
4.041,316,3147,1373,1380,6.0,31.0,14.0,-111.51122283935547,74.40185546875,-49.560543060302734,-1.9781494140625,-0.201171875,0.29833984375
4.044,310,3147,1175,1058,13.0,30.0,15.0,-91.79686737060547,46.081539154052734,-3.601073980331421,-1.5504150390625,-0.103271484375,-0.1744384765625
4.048,310,3147,1188,677,13.0,30.0,15.0,-63.415523529052734,26.550291061401367,38.51318359375,-1.5504150390625,-0.103271484375,-0.1744384765625
4.056,313,3016,1213,334,13.0,30.0,15.0,-49.743648529052734,14.221190452575684,70.98388671875,-1.1624755859375,-0.058837890625,-0.2169189453125
4.069,308,1794,1198,328,13.0,30.0,15.0,-38.9404296875,11.291502952575684,93.07860565185547,-0.472412109375,-0.3447265625,0.1483154296875
4.078,308,1198,1155,323,13.0,30.0,15.0,-17.88330078125,16.90673828125,105.10253143310547,-0.472412109375,-0.3447265625,0.1483154296875
4.085,310,830,1151,331,13.0,30.0,15.0,17.9443359375,25.878904342651367,105.46874237060547,-0.2315673828125,-0.4111328125,0.2681884765625
4.118,315,521,1065,324,13.0,30.0,15.0,65.12451171875,36.1328125,93.62792205810547,0.1162109375,-0.0137939453125,0.322509765625
4.118,313,505,971,318,13.0,30.0,15.0,107.97118377685547,40.405269622802734,71.71630859375,0.1162109375,-0.0137939453125,0.322509765625
4.119,321,455,939,321,13.0,30.0,15.0,123.96239471435547,35.2783203125,42.297359466552734,0.108154296875,0.1707763671875,0.3731689453125
4.129,322,437,1000,318,13.0,30.0,15.0,109.92430877685547,30.456541061401367,14.160155296325684,-0.2601318359375,0.6737060546875,0.18310546875
4.147,321,466,986,323,11.0,31.0,17.0,90.08788299560547,28.564451217651367,0.1220703050494194,-0.2601318359375,0.6737060546875,0.18310546875
4.148,304,437,975,323,11.0,31.0,17.0,82.03124237060547,22.033689498901367,3.173827886581421,-0.35009765625,0.86083984375,-0.0064697265625
4.158,315,461,992,317,11.0,31.0,17.0,75.37841796875,10.498045921325684,15.869139671325684,-0.3922119140625,0.9185791015625,-0.1336669921875
4.167,310,464,986,318,11.0,31.0,17.0,53.894039154052734,1.0986328125,26.550291061401367,-0.4853515625,0.7769775390625,-0.1806640625
4.181,306,411,963,319,11.0,31.0,17.0,18.9208984375,-2.746581792831421,28.869626998901367,-0.7647705078125,0.2325439453125,-0.230712890625
4.188,309,464,971,323,11.0,31.0,17.0,-15.136717796325684,-3.112792730331421,26.367185592651367,-0.7647705078125,0.2325439453125,-0.230712890625
4.208,304,473,988,319,11.0,31.0,17.0,-31.860349655151367,-3.356933355331421,24.902341842651367,-0.8568115234375,0.0755615234375,-0.1666259765625
4.210,292,473,946,318,11.0,31.0,17.0,-23.864744186401367,-6.408690929412842,26.123044967651367,-0.904541015625,0.1815185546875,0.091064453125
4.218,309,526,986,324,11.0,31.0,17.0,2.624511480331421,-12.390135765075684,29.663084030151367,-0.904541015625,0.1815185546875,0.091064453125
4.230,310,551,999,318,11.0,31.0,17.0,26.245115280151367,-18.00537109375,36.56005859375,-0.8907470703125,0.296875,0.167236328125
4.259,313,579,992,318,4.0,32.0,18.0,29.907224655151367,-21.240232467651367,45.288082122802734,-0.8438720703125,0.2181396484375,0.2652587890625
4.260,313,619,1005,321,4.0,32.0,18.0,19.47021484375,-23.620603561401367,52.734371185302734,-0.8438720703125,0.2181396484375,0.2652587890625
4.261,310,758,1025,319,4.0,32.0,18.0,8.11767578125,-27.587888717651367,60.058589935302734,-0.86376953125,0.13330078125,0.2470703125
4.270,313,932,1034,322,4.0,32.0,18.0,0.1831054538488388,-32.470703125,70.068359375,-0.8277587890625,0.1241455078125,0.038818359375
4.282,315,1078,1042,321,4.0,32.0,18.0,-5.493163585662842,-34.85107421875,83.61815643310547,-0.8277587890625,0.1241455078125,0.038818359375
4.286,316,1437,1055,321,4.0,32.0,18.0,-11.718749046325684,-32.77587890625,98.99901580810547,-0.7547607421875,0.2005615234375,-0.0794677734375
4.309,312,2445,1025,328,4.0,32.0,18.0,-21.606443405151367,-29.174802780151367,113.70848846435547,-0.6636962890625,0.2540283203125,-0.0841064453125
4.315,318,3147,1018,739,4.0,32.0,18.0,-33.14208984375,-28.808591842651367,121.21581268310547,-0.401123046875,0.2447509765625,0.04150390625
4.316,330,3147,1010,1401,4.0,32.0,18.0,-41.870113372802734,-32.470703125,109.43602752685547,0.13720703125,0.385498046875,0.28955078125
4.332,316,3147,1213,1952,3.0,32.0,14.0,-38.330078125,-42.480464935302734,65.61279296875,0.9169921875,0.3616943359375,0.5418701171875
4.358,318,3147,1294,2316,3.0,32.0,14.0,-1.4648436307907104,-55.297847747802734,-21.057126998901367,1.8009033203125,-0.1558837890625,0.206787109375
4.358,318,3147,1456,2707,3.0,32.0,14.0,55.725093841552734,-61.706539154052734,-126.64794158935547,2.14599609375,-0.2315673828125,-0.3182373046875
4.364,323,3147,1546,3147,3.0,32.0,14.0,62.866207122802734,-61.950679779052734,-194.33592224121094,0.924072265625,0.8145751953125,0.011962890625
4.370,338,3147,1430,3147,3.0,32.0,14.0,-2.685546636581421,-43.395992279052734,-197.20457458496094,-1.1517333984375,2.5980224609375,0.39208984375
4.377,328,3147,1476,3099,3.0,32.0,14.0,-103.45458221435547,-1.2817381620407104,-156.1279296875,-2.2882080078125,3.74365234375,0.1947021484375
4.390,348,3147,1569,2832,3.0,32.0,14.0,-233.21531677246094,21.545408248901367,-128.90625,-2.9892578125,2.5478515625,0.474365234375
4.414,344,3147,1543,2697,3.0,32.0,14.0,-330.8715515136719,1.8310545682907104,-136.1083984375,-3.8082275390625,-0.4920654296875,0.9361572265625
4.414,330,3147,1541,2853,3.0,32.0,14.0,-260.31494140625,-19.287109375,-135.25390625,-3.5294189453125,-2.5867919921875,0.2510986328125
4.420,332,3147,1478,2827,3.0,32.0,14.0,-12.573241233825684,-17.4560546875,-108.76464080810547,-2.193603515625,-1.65673828125,-0.6038818359375
4.428,344,3147,1447,2787,13.0,28.0,17.0,179.62644958496094,-9.46044921875,-71.83837890625,-1.35986328125,0.5498046875,-0.2982177734375
4.436,330,3147,1456,2702,13.0,28.0,17.0,140.93017578125,13.061522483825684,-41.748043060302734,-1.456787109375,1.290771484375,0.3662109375
4.463,327,3147,1396,2505,13.0,28.0,17.0,4.08935546875,41.748043060302734,-21.728513717651367,-1.7769775390625,0.7833251953125,0.6343994140625
4.463,323,3147,1336,2364,13.0,28.0,17.0,-61.889644622802734,43.823238372802734,-1.15966796875,-1.91357421875,0.3206787109375,0.61474609375
4.466,323,3147,1283,2284,13.0,28.0,17.0,-50.781246185302734,28.503416061401367,22.766111373901367,-1.8255615234375,0.2384033203125,0.40283203125
4.480,321,3147,1206,1838,13.0,28.0,17.0,-22.583005905151367,17.76123046875,47.058101654052734,-1.6131591796875,0.30615234375,0.140625
4.488,323,3147,1188,1561,13.0,28.0,17.0,-7.263183116912842,13.854979515075684,68.29833984375,-1.3162841796875,0.38623046875,0.00341796875
4.496,317,3147,1204,913,13.0,28.0,17.0,-0.6103515625,12.878417015075684,82.82469940185547,-0.97607421875,0.3408203125,0.0396728515625
4.516,323,2391,1173,330,13.0,28.0,17.0,15.258788108825684,14.221190452575684,85.26610565185547,-0.640625,0.13916015625,0.1973876953125
4.518,310,1627,1131,324,13.0,28.0,17.0,50.109859466552734,18.6767578125,71.6552734375,-0.3026123046875,-0.1148681640625,0.28857421875
4.526,315,1213,1115,327,8.0,32.0,13.0,95.09276580810547,27.709959030151367,44.921871185302734,0.0115966796875,-0.2347412109375,0.2021484375
4.541,311,819,1009,318,8.0,32.0,13.0,131.591796875,37.9638671875,16.17431640625,0.2166748046875,-0.125732421875,0.097900390625
4.557,309,607,978,334,8.0,32.0,13.0,142.88330078125,40.283199310302734,-8.9111328125,0.2354736328125,0.0869140625,0.1407470703125
4.572,308,537,976,300,8.0,32.0,13.0,124.93895721435547,34.36279296875,-31.738279342651367,0.0198974609375,0.3375244140625,0.2100830078125
4.572,310,526,971,321,8.0,32.0,13.0,89.47753143310547,30.273435592651367,-43.823238372802734,-0.331298828125,0.6351318359375,0.1429443359375
4.578,309,513,1010,321,8.0,32.0,13.0,52.062984466552734,28.076169967651367,-35.400390625,-0.552978515625,0.8603515625,-0.0184326171875
4.586,308,456,989,318,8.0,32.0,13.0,15.991209983825684,22.216794967651367,-14.892577171325684,-0.5909423828125,0.8338623046875,-0.15283203125
4.600,306,484,962,318,8.0,32.0,13.0,-16.90673828125,14.770506858825684,3.417968511581421,-0.6219482421875,0.5181884765625,-0.190673828125
4.623,308,526,975,322,8.0,32.0,13.0,-36.31591796875,9.21630859375,13.916014671325684,-0.7091064453125,0.118408203125,-0.1939697265625
4.624,306,598,943,304,8.0,32.0,13.0,-40.344234466552734,4.7607421875,18.798828125,-0.7852783203125,-0.11767578125,-0.1900634765625
4.630,306,533,999,319,4.0,30.0,19.0,-38.0859375,-0.0610351525247097,23.559568405151367,-0.81787109375,-0.1597900390625,-0.13037109375
4.642,307,585,1013,321,4.0,30.0,19.0,-29.235837936401367,-5.493163585662842,30.395505905151367,-0.810302734375,-0.089599609375,-0.013916015625
4.663,308,603,1025,324,4.0,30.0,19.0,-8.85009765625,-11.108397483825684,39.0625,-0.7796630859375,0.087890625,0.1102294921875
4.663,308,861,1017,304,4.0,30.0,19.0,15.869139671325684,-16.9677734375,47.668453216552734,-0.7479248046875,0.2999267578125,0.2205810546875
4.681,310,951,1074,324,4.0,30.0,19.0,27.343748092651367,-23.193357467651367,53.222652435302734,-0.749755859375,0.3955078125,0.3125
4.681,309,1129,1092,323,4.0,30.0,19.0,22.521970748901367,-29.479978561401367,55.969234466552734,-0.790771484375,0.3411865234375,0.3590087890625
4.690,313,1213,1103,324,4.0,30.0,19.0,14.770506858825684,-35.21728515625,60.302730560302734,-0.859375,0.252685546875,0.317138671875
4.698,316,1306,1125,334,4.0,30.0,19.0,12.878417015075684,-39.0625,70.37353515625,-0.94580078125,0.2457275390625,0.192626953125
4.724,313,1529,1115,330,4.0,30.0,19.0,13.244627952575684,-40.10009765625,87.03612518310547,-1.01025390625,0.3134765625,0.057373046875
4.724,315,1801,1123,324,1.0,32.0,23.0,8.544921875,-39.00146484375,106.75048065185547,-0.9920654296875,0.3834228515625,-0.0391845703125
4.728,316,2005,1112,328,1.0,32.0,23.0,-3.784179449081421,-36.92626953125,123.16893768310547,-0.84326171875,0.4552001953125,-0.062744140625
4.736,316,2386,1101,330,1.0,32.0,23.0,-20.01953125,-35.15625,128.35693359375,-0.574951171875,0.48388671875,0.0208740234375
4.763,315,3147,1160,835,1.0,32.0,23.0,-30.822751998901367,-34.48486328125,113.76952362060547,-0.17919921875,0.34619140625,0.111083984375
4.764,316,3147,1170,1453,1.0,32.0,23.0,-31.494138717651367,-36.07177734375,74.0966796875,0.4600830078125,0.0321044921875,0.1961669921875
4.766,316,3147,1239,1927,1.0,32.0,23.0,-31.494138717651367,-36.07177734375,74.0966796875,1.42333984375,-0.4913330078125,0.101318359375
4.782,321,3147,1422,2612,1.0,32.0,23.0,26.550291061401367,-45.837398529052734,-74.64599609375,2.219970703125,-0.6982421875,-0.169189453125
4.793,321,3147,1537,2925,1.0,32.0,23.0,57.800289154052734,-62.866207122802734,-139.34326171875,1.8057861328125,0.050537109375,0.086669921875
4.797,325,3147,1610,3147,1.0,32.0,23.0,57.800289154052734,-62.866207122802734,-139.34326171875,0.0018310546875,1.8707275390625,0.7108154296875
4.824,338,3147,1487,3147,1.0,32.0,23.0,-8.48388671875,-40.893550872802734,-159.97314453125,-1.5247802734375,3.6856689453125,0.7572021484375
4.825,306,3147,1580,3147,11.0,28.0,17.0,-107.91014862060547,4.39453125,-154.1748046875,-2.3192138671875,3.941162109375,0.6292724609375
4.826,318,3147,1604,2942,11.0,28.0,17.0,-107.91014862060547,4.39453125,-154.1748046875,-3.2889404296875,1.9598388671875,1.0889892578125
4.849,321,3147,1605,2516,11.0,28.0,17.0,-309.08203125,-3.295898199081421,-166.50389099121094,-3.71728515625,-1.37353515625,0.8145751953125
4.851,318,3147,1627,2379,11.0,28.0,17.0,-150.57373046875,7.019042491912842,-166.50389099121094,-2.7703857421875,-2.449462890625,-0.5345458984375
4.864,318,3147,1625,2191,11.0,28.0,17.0,-150.57373046875,7.019042491912842,-166.50389099121094,-1.6558837890625,-0.41162109375,-0.8280029296875
4.874,323,3147,1575,2087,11.0,28.0,17.0,198.42527770996094,40.710445404052734,-148.681640625,-1.4942626953125,1.2425537109375,0.01708984375
4.887,328,3147,1533,1978,11.0,28.0,17.0,57.800289154052734,75.3173828125,-129.57763671875,-1.765625,0.9715576171875,0.5740966796875
4.888,349,3147,1413,1834,11.0,28.0,17.0,57.800289154052734,75.3173828125,-129.57763671875,-1.9754638671875,0.007568359375,0.6177978515625
4.906,321,3147,1282,1709,11.0,28.0,17.0,-128.23486328125,73.66943359375,-37.04833984375,-2.023193359375,-0.528564453125,0.274169921875
4.908,324,3147,1173,1516,11.0,28.0,17.0,-116.82128143310547,45.349117279052734,27.709959030151367,-1.9068603515625,-0.5166015625,-0.1702880859375
4.926,321,3147,1145,1290,11.0,32.0,15.0,-116.82128143310547,45.349117279052734,27.709959030151367,-1.5479736328125,-0.258056640625,-0.2537841796875
4.930,321,3147,1184,488,11.0,32.0,15.0,-40.283199310302734,6.591796398162842,99.48729705810547,-0.9893798828125,-0.05078125,0.03564453125
4.938,324,2624,1184,342,11.0,32.0,15.0,15.808104515075684,0.0610351525247097,102.53905487060547,-0.4942626953125,0.01513671875,0.3812255859375
4.946,330,1996,1191,328,11.0,32.0,15.0,15.808104515075684,0.0610351525247097,102.53905487060547,-0.1810302734375,-0.0826416015625,0.537109375
4.968,318,1201,1137,323,11.0,32.0,15.0,81.48192596435547,19.10400390625,93.20067596435547,0.0191650390625,-0.1903076171875,0.442626953125
4.968,555,948,1039,309,11.0,32.0,15.0,100.40282440185547,38.14697265625,79.2236328125,0.1396484375,-0.055908203125,0.2845458984375
4.976,317,707,1093,327,11.0,32.0,15.0,100.40282440185547,38.14697265625,79.2236328125,0.1396484375,-0.055908203125,0.2845458984375
4.992,310,605,1025,323,11.0,32.0,15.0,104.06493377685547,48.583980560302734,25.573728561401367,-0.015380859375,0.37890625,0.1375732421875
4.998,313,539,1004,322,11.0,32.0,15.0,104.06493377685547,48.583980560302734,25.573728561401367,-0.2933349609375,0.547119140625,-0.0423583984375
5.006,313,521,1031,321,11.0,32.0,15.0,76.59912109375,47.912593841552734,-2.990722417831421,-0.2933349609375,0.547119140625,-0.0423583984375
5.029,312,568,1057,323,11.0,30.0,18.0,15.075682640075684,38.0859375,-6.042479991912842,-0.4703369140625,0.781005859375,-0.205810546875
5.029,310,578,1079,321,11.0,30.0,18.0,15.075682640075684,38.0859375,-6.042479991912842,-0.411865234375,0.6395263671875,-0.13916015625
5.036,310,582,1093,322,11.0,30.0,18.0,-3.784179449081421,28.259275436401367,6.713866710662842,-0.411865234375,0.6395263671875,-0.13916015625
5.050,310,669,1100,323,11.0,30.0,18.0,-14.404295921325684,15.258788108825684,15.441893577575684,-0.5592041015625,0.0908203125,0.0294189453125
5.071,314,708,1097,323,11.0,30.0,18.0,-14.404295921325684,15.258788108825684,15.441893577575684,-0.6697998046875,-0.013671875,0.068359375
5.071,316,806,1073,300,11.0,30.0,18.0,-12.817381858825684,7.690429210662842,13.549803733825684,-0.6697998046875,-0.013671875,0.068359375
5.080,316,1189,1125,328,11.0,30.0,18.0,-3.234863042831421,-4.7607421875,18.6767578125,-0.80615234375,0.2589111328125,0.2218017578125
5.088,316,1455,1148,328,11.0,30.0,18.0,-3.234863042831421,-4.7607421875,18.6767578125,-0.940673828125,0.361328125,0.3001708984375
5.099,314,1501,1167,327,11.0,30.0,18.0,1.3427733182907104,-9.033203125,22.521970748901367,-0.940673828125,0.361328125,0.3001708984375
5.110,317,1651,1163,324,11.0,30.0,18.0,10.131834983825684,-16.29638671875,30.273435592651367,-1.087646484375,0.302734375,0.1732177734375
5.133,323,1709,1170,328,9.0,30.0,15.0,10.131834983825684,-16.29638671875,30.273435592651367,-1.0767822265625,0.2999267578125,0.001220703125
5.134,328,1750,1173,327,9.0,30.0,15.0,16.845703125,-18.24951171875,36.1328125,-1.0767822265625,0.2999267578125,0.001220703125
5.143,319,1862,1206,327,9.0,30.0,15.0,15.624999046325684,-26.855466842651367,57.067867279052734,-1.0889892578125,0.381591796875,-0.0811767578125
5.151,328,1787,1201,327,9.0,30.0,15.0,15.624999046325684,-26.855466842651367,57.067867279052734,-1.120361328125,0.374267578125,-0.0780029296875
5.156,318,1655,1222,329,9.0,30.0,15.0,6.103515148162842,-29.602048873901367,70.86181640625,-1.120361328125,0.374267578125,-0.0780029296875
5.173,318,1243,1207,327,9.0,30.0,15.0,-10.314940452575684,-32.53173828125,101.25731658935547,-1.1519775390625,0.2310791015625,-0.0618896484375
5.178,327,1236,1199,319,9.0,30.0,15.0,-10.314940452575684,-32.53173828125,101.25731658935547,-1.1083984375,0.186279296875,-0.056640625
5.186,327,1357,1148,332,9.0,30.0,15.0,-8.9111328125,-38.02490234375,118.16405487060547,-1.1083984375,0.186279296875,-0.056640625
5.234,328,1967,1159,327,9.0,30.0,15.0,-3.540038824081421,-43.762203216552734,138.24462890625,-0.5440673828125,-0.0264892578125,-0.1522216796875
5.234,327,3022,1115,327,9.0,30.0,15.0,0.1831054538488388,-46.020503997802734,155.517578125,-0.5440673828125,-0.0264892578125,-0.1522216796875
5.234,315,3147,1103,1039,0.0,33.0,12.0,-2.624511480331421,-45.288082122802734,156.494140625,0.0833740234375,-0.15283203125,-0.0780029296875
5.234,338,3147,1163,1792,0.0,33.0,12.0,-14.343260765075684,-49.377437591552734,127.25829315185547,2.122314453125,-0.037109375,0.9608154296875
5.243,332,3147,1312,2012,0.0,33.0,12.0,-17.27294921875,-65.24658203125,55.664058685302734,2.122314453125,-0.037109375,0.9608154296875
5.246,324,3147,1467,2472,0.0,33.0,12.0,30.700681686401367,-62.805171966552734,-72.1435546875,2.9710693359375,-0.2081298828125,0.24609375
5.272,334,3147,1588,2901,0.0,33.0,12.0,85.87645721435547,-37.65869140625,-206.66502380371094,-0.155517578125,2.011474609375,0.28271484375
5.273,324,3147,1492,3147,0.0,33.0,12.0,59.143062591552734,-27.709959030151367,-273.13232421875,-0.155517578125,2.011474609375,0.28271484375
5.276,332,3147,1508,3144,0.0,33.0,12.0,-18.9208984375,-7.446288585662842,-251.83103942871094,-2.125,3.5338134765625,0.487060546875
5.290,328,3147,1611,2498,0.0,33.0,12.0,-111.02294158935547,21.423337936401367,-201.41600036621094,-3.569091796875,1.5599365234375,1.2542724609375
5.298,327,3147,1596,2131,0.0,33.0,12.0,-229.06492614746094,5.798339366912842,-192.38279724121094,-3.569091796875,1.5599365234375,1.2542724609375
5.313,338,3147,1564,1750,0.0,33.0,12.0,-275.2685546875,-21.301267623901367,-210.75437927246094,-3.554931640625,-1.8536376953125,0.81884765625
5.338,327,3147,1545,1477,11.0,29.0,17.0,-88.31786346435547,-5.0048828125,-225.64695739746094,-1.03955078125,-0.42236328125,-0.710693359375
5.339,318,3147,1509,1323,11.0,29.0,17.0,171.50877380371094,25.939939498901367,-217.46824645996094,-1.03955078125,-0.42236328125,-0.710693359375
5.339,322,3147,1499,1463,11.0,29.0,17.0,190.00242614746094,56.762691497802734,-172.24119567871094,-0.6953125,0.1082763671875,-0.1641845703125
5.357,330,3147,1455,1679,11.0,29.0,17.0,15.747069358825684,76.96533203125,-87.52440643310547,-1.954345703125,-1.4600830078125,-0.1085205078125
5.358,324,3147,1415,1806,11.0,29.0,17.0,-117.00438690185547,48.767086029052734,15.747069358825684,-1.954345703125,-1.4600830078125,-0.1085205078125
5.376,323,3147,1355,1957,11.0,29.0,17.0,-125.79344940185547,-1.15966796875,93.38378143310547,-2.263671875,-0.683837890625,-0.00390625
5.380,315,3147,1266,1978,11.0,29.0,17.0,-78.369140625,-26.367185592651367,126.77001190185547,-1.591796875,0.8570556640625,0.3416748046875
5.388,310,3147,1248,1786,11.0,29.0,17.0,-47.973628997802734,-21.789548873901367,133.544921875,-1.591796875,0.8570556640625,0.3416748046875
5.396,310,3147,1186,1697,11.0,29.0,17.0,-39.9169921875,-3.356933355331421,128.23486328125,-1.1610107421875,0.8846435546875,0.636962890625
5.418,313,3147,1163,1115,8.0,29.0,17.0,-24.475095748901367,16.05224609375,112.54882049560547,-0.3773193359375,0.8115234375,0.736572265625
5.419,313,3147,1175,523,8.0,29.0,17.0,10.437010765075684,27.954099655151367,88.50096893310547,-0.3773193359375,0.8115234375,0.736572265625
5.444,314,2668,1163,330,8.0,29.0,17.0,50.170894622802734,32.04345703125,58.410640716552734,-0.1754150390625,0.790283203125,0.5814208984375
5.444,310,1770,1184,330,8.0,29.0,17.0,76.904296875,34.0576171875,26.489255905151367,-0.15234375,0.56298828125,0.3486328125
5.450,300,1462,1170,323,8.0,29.0,17.0,90.20995330810547,36.62109375,-0.6713866591453552,-0.197021484375,0.2305908203125,0.1282958984375
5.458,314,1292,1143,328,8.0,29.0,17.0,95.70311737060547,38.39111328125,-17.7001953125,-0.2620849609375,0.008544921875,0.0072021484375
5.486,310,1064,1117,323,8.0,29.0,17.0,89.96581268310547,36.68212890625,-24.780271530151367,-0.3463134765625,-0.05517578125,0.024658203125
5.487,308,840,1125,324,8.0,29.0,17.0,71.47216796875,32.470703125,-26.306150436401367,-0.4603271484375,-0.05078125,0.042236328125
5.487,299,754,1067,316,8.0,29.0,17.0,49.987789154052734,32.1044921875,-25.207517623901367,-0.6090087890625,-0.026123046875,-0.074462890625
5.495,313,654,1108,326,8.0,29.0,17.0,32.5927734375,34.912109375,-20.874021530151367,-0.753173828125,0.056640625,-0.192138671875
5.509,305,667,1093,323,8.0,30.0,19.0,18.5546875,32.8369140625,-11.718749046325684,-0.83544921875,0.1932373046875,-0.193603515625
5.540,308,618,1091,324,8.0,30.0,19.0,9.70458984375,26.123044967651367,0.9765624403953552,-0.8284912109375,0.31689453125,-0.1611328125
5.541,296,628,1097,306,8.0,30.0,19.0,6.469726085662842,19.83642578125,12.512206077575684,-0.7734375,0.33251953125,-0.14794921875
5.541,308,619,1109,322,8.0,30.0,19.0,4.0283203125,13.488768577575684,20.263669967651367,-0.7340087890625,0.2564697265625,-0.09912109375
5.548,314,639,1103,323,8.0,30.0,19.0,-0.0610351525247097,5.371093273162842,25.756834030151367,-0.720703125,0.2127685546875,0.0150146484375
5.555,313,653,1107,323,8.0,30.0,19.0,-3.234863042831421,-3.112792730331421,30.883787155151367,-0.724609375,0.2369384765625,0.1456298828125
5.590,315,669,1122,321,8.0,30.0,19.0,-2.929687261581421,-9.6435546875,36.1328125,-0.746826171875,0.2664794921875,0.20654296875
5.590,311,710,1092,306,8.0,30.0,19.0,0.3662109076976776,-13.916014671325684,41.687007904052734,-0.7841796875,0.2796630859375,0.1917724609375
5.591,315,721,1134,323,8.0,30.0,19.0,3.784179449081421,-18.12744140625,47.363277435302734,-0.8179931640625,0.282958984375,0.1455078125
5.599,314,913,1153,323,8.0,30.0,19.0,5.615233898162842,-23.681638717651367,51.330562591552734,-0.8226318359375,0.2818603515625,0.0999755859375
5.607,313,1067,1170,324,5.0,30.0,16.0,6.774901866912842,-29.724119186401367,52.001949310302734,-0.8162841796875,0.309814453125,0.078369140625
5.615,315,1149,1173,327,5.0,30.0,16.0,8.48388671875,-34.60693359375,51.086421966552734,-0.831298828125,0.364990234375,0.0732421875
5.644,314,1283,1183,328,5.0,30.0,16.0,9.46044921875,-37.90283203125,51.635738372802734,-0.8656005859375,0.4056396484375,0.080322265625
5.644,313,1334,1189,323,5.0,30.0,16.0,7.812499523162842,-40.954586029052734,55.786128997802734,-0.925048828125,0.4072265625,0.1024169921875
5.645,299,1351,1206,324,5.0,30.0,16.0,4.7607421875,-44.799800872802734,65.00244140625,-0.9913330078125,0.3646240234375,0.1033935546875
5.660,304,1278,1201,324,5.0,30.0,16.0,2.50244140625,-49.133296966552734,79.16259765625,-1.029296875,0.2823486328125,0.0457763671875
5.667,314,1253,1179,324,5.0,30.0,16.0,1.15966796875,-53.405757904052734,97.16796112060547,-1.029296875,0.1812744140625,-0.0404052734375
5.684,313,1468,1182,327,5.0,30.0,16.0,-0.3662109076976776,-57.495113372802734,118.34716033935547,-0.9437255859375,0.0653076171875,-0.1239013671875
5.694,321,2460,1129,330,5.0,30.0,16.0,-3.295898199081421,-61.157222747802734,138.5498046875,-0.64599609375,-0.0650634765625,-0.1943359375
5.697,316,3147,1079,386,5.0,30.0,16.0,-10.375975608825684,-64.63623046875,146.30126953125,-0.1097412109375,-0.106689453125,-0.1259765625
5.705,321,3147,1125,1216,2.0,28.0,19.0,-19.1650390625,-72.6318359375,127.68553924560547,0.629638671875,0.0213623046875,0.1912841796875
5.719,316,3147,1231,1891,2.0,28.0,19.0,-11.169432640075684,-84.77782440185547,68.359375,1.7127685546875,-0.113525390625,0.4658203125
5.727,323,3147,1409,2207,2.0,28.0,19.0,34.24072265625,-81.72606658935547,-41.137691497802734,2.6439208984375,-0.269775390625,0.2242431640625
5.747,328,3147,1492,2713,2.0,28.0,19.0,85.93749237060547,-63.293453216552734,-162.17039489746094,2.390380859375,0.289306640625,0.083740234375
5.749,323,3147,1613,3147,2.0,28.0,19.0,69.580078125,-47.851558685302734,-228.82078552246094,0.3431396484375,1.6806640625,0.603759765625
5.757,330,3147,1478,3147,2.0,28.0,19.0,-16.4794921875,-18.00537109375,-217.04100036621094,-1.824462890625,3.3389892578125,0.8961181640625
5.765,338,3147,1591,3147,2.0,28.0,19.0,-119.44579315185547,24.963376998901367,-169.06736755371094,-2.839599609375,3.9599609375,0.9039306640625
5.786,327,3147,1561,2677,2.0,28.0,19.0,-243.40818786621094,27.832029342651367,-137.75634765625,-3.58984375,2.01416015625,1.450439453125
5.787,346,3147,1534,2516,2.0,28.0,19.0,-309.14306640625,5.0048828125,-126.22069549560547,-3.526611328125,-1.6351318359375,0.837158203125
5.796,328,3147,1552,2424,2.0,28.0,19.0,-309.14306640625,5.0048828125,-126.22069549560547,-2.304931640625,-2.543701171875,-0.9296875
5.809,327,3147,1504,2341,10.0,25.0,16.0,198.60838317871094,7.507323741912842,-108.94774627685547,-1.3297119140625,-0.0235595703125,-1.090576171875
5.817,324,3147,1492,2268,10.0,25.0,16.0,252.31932067871094,9.765625,-89.35546112060547,-1.4384765625,1.7789306640625,-0.1490478515625
5.825,323,3147,1492,2314,10.0,25.0,16.0,252.31932067871094,9.765625,-89.35546112060547,-1.85498046875,1.272216796875,0.46142578125
5.849,318,3147,1399,2170,10.0,25.0,16.0,-73.2421875,59.143062591552734,-60.302730560302734,-1.9730224609375,0.176025390625,0.72607421875
5.850,319,3147,1348,2052,10.0,25.0,16.0,-87.58544158935547,46.142574310302734,-27.770994186401367,-1.9110107421875,-0.155517578125,0.689453125
5.855,315,3147,1268,1945,10.0,25.0,16.0,-87.58544158935547,46.142574310302734,-27.770994186401367,-1.751953125,0.010986328125,0.371826171875
5.869,315,3147,1149,1346,10.0,25.0,16.0,-15.258788108825684,21.179197311401367,38.75732421875,-1.521484375,0.2142333984375,0.0279541015625
5.885,310,3147,1184,920,10.0,25.0,16.0,-16.05224609375,13.488768577575684,65.3076171875,-1.1905517578125,0.260498046875,-0.118896484375
5.886,313,3020,1185,332,10.0,25.0,16.0,-16.05224609375,13.488768577575684,65.3076171875,-0.84912109375,0.069091796875,-0.0667724609375
5.899,316,1595,1137,324,9.0,27.0,21.0,-22.888181686401367,10.314940452575684,100.15868377685547,-0.531494140625,-0.2593994140625,0.05322265625
5.907,310,1138,1134,324,9.0,27.0,21.0,-1.220703125,16.4794921875,98.38866424560547,-0.2027587890625,-0.51513671875,0.1129150390625
5.919,313,731,1081,323,9.0,27.0,21.0,-1.220703125,16.4794921875,98.38866424560547,0.087646484375,-0.4801025390625,0.1387939453125
5.929,308,470,1000,323,9.0,27.0,21.0,71.47216796875,39.36767578125,57.250972747802734,0.2666015625,-0.2705078125,0.25830078125
5.952,308,442,984,321,9.0,27.0,21.0,87.28026580810547,39.794921875,22.705076217651367,0.2098388671875,0.01318359375,0.423583984375
5.952,313,413,1025,321,9.0,27.0,21.0,87.28026580810547,39.794921875,22.705076217651367,-0.1048583984375,0.4100341796875,0.4461669921875
5.959,310,433,1056,321,9.0,27.0,21.0,66.10107421875,26.611326217651367,-17.76123046875,-0.3895263671875,0.8031005859375,0.2840576171875
5.970,310,445,1067,321,9.0,27.0,21.0,49.438472747802734,20.874021530151367,-6.042479991912842,-0.4334716796875,1.021240234375,0.029296875
5.975,310,484,1067,322,9.0,27.0,21.0,49.438472747802734,20.874021530151367,-6.042479991912842,-0.40869140625,0.94775390625,-0.1400146484375
5.990,308,527,1091,322,9.0,27.0,21.0,4.45556640625,10.803221702575684,25.390623092651367,-0.45556640625,0.6458740234375,-0.2144775390625
5.998,313,546,1109,323,6.0,29.0,15.0,-18.1884765625,7.324218273162842,29.663084030151367,-0.51171875,0.3258056640625,-0.286376953125
6.005,308,566,1071,323,6.0,29.0,15.0,-18.1884765625,7.324218273162842,29.663084030151367,-0.51171875,0.3258056640625,-0.286376953125
6.019,313,594,1103,323,6.0,29.0,15.0,-46.386714935302734,7.202147960662842,21.118162155151367,-0.6470947265625,0.0750732421875,-0.1190185546875
6.032,310,598,1120,323,6.0,29.0,15.0,-46.386714935302734,7.202147960662842,21.118162155151367,-0.7401123046875,0.1756591796875,0.0877685546875
6.056,309,828,1148,323,6.0,29.0,15.0,-33.447265625,0.3662109076976776,20.141599655151367,-0.7401123046875,0.1756591796875,0.0877685546875
6.058,311,1004,1188,328,6.0,29.0,15.0,5.554198741912842,-25.878904342651367,36.68212890625,-0.842529296875,0.3272705078125,0.393798828125
6.059,313,1201,1204,327,6.0,29.0,15.0,5.554198741912842,-25.878904342651367,36.68212890625,-0.9049072265625,0.249755859375,0.4404296875
6.065,313,1330,1213,323,6.0,29.0,15.0,17.15087890625,-34.60693359375,48.950191497802734,-0.9049072265625,0.249755859375,0.4404296875
6.083,314,1480,1229,323,6.0,29.0,15.0,26.733396530151367,-49.438472747802734,78.30810546875,-1.0675048828125,0.0693359375,0.284912109375
6.093,310,1700,1236,328,6.0,29.0,15.0,26.733396530151367,-49.438472747802734,78.30810546875,-1.0277099609375,0.0142822265625,0.09228515625
6.095,300,2087,1222,330,2.0,29.0,20.0,20.141599655151367,-51.757808685302734,97.10692596435547,-1.0277099609375,0.0142822265625,0.09228515625
6.110,313,3147,1188,509,2.0,29.0,20.0,-1.4648436307907104,-43.029781341552734,126.58690643310547,-0.3997802734375,0.05419921875,-0.0731201171875
6.117,315,3147,1175,1316,2.0,29.0,20.0,-1.4648436307907104,-43.029781341552734,126.58690643310547,0.41162109375,0.02978515625,0.1385498046875
6.125,323,3147,1185,1713,2.0,29.0,20.0,-12.268065452575684,-44.311519622802734,115.53954315185547,0.41162109375,0.02978515625,0.1385498046875
6.165,323,3147,1415,2118,2.0,29.0,20.0,24.658201217651367,-38.51318359375,-29.357908248901367,2.51611328125,-0.1632080078125,0.1845703125
6.165,338,3147,1473,2490,2.0,29.0,20.0,24.658201217651367,-38.51318359375,-29.357908248901367,2.1002197265625,0.2867431640625,0.20166015625
6.166,318,3147,1580,2853,2.0,29.0,20.0,55.725093841552734,-32.958984375,-142.7001953125,2.1002197265625,0.2867431640625,0.20166015625
6.169,329,3147,1519,3147,2.0,29.0,20.0,-23.620603561401367,-12.634276390075684,-200.13426208496094,-2.1568603515625,3.1729736328125,0.578857421875
6.177,330,3147,1588,3144,2.0,29.0,20.0,-23.620603561401367,-12.634276390075684,-200.13426208496094,-2.7742919921875,3.703125,0.2427978515625
6.253,328,3147,1598,2801,2.0,29.0,20.0,-94.54344940185547,22.583005905151367,-149.658203125,-2.7742919921875,3.703125,0.2427978515625
6.253,321,3147,1596,2409,12.0,29.0,22.0,-251.09861755371094,0.0610351525247097,-115.78368377685547,-3.6182861328125,-1.3031005859375,0.646484375
6.254,324,3147,1611,2384,12.0,29.0,22.0,-251.09861755371094,0.0610351525247097,-115.78368377685547,-2.543212890625,-2.6051025390625,-0.3890380859375
6.254,323,3147,1613,2435,12.0,29.0,22.0,-126.58690643310547,-7.202147960662842,-119.07958221435547,-2.543212890625,-2.6051025390625,-0.3890380859375
6.254,317,3147,1555,2337,12.0,29.0,22.0,119.93407440185547,-8.6669921875,-105.46874237060547,-1.211181640625,1.2337646484375,0.2471923828125
6.254,321,3147,1552,2292,12.0,29.0,22.0,189.45310974121094,0.4272460639476776,-77.69775390625,-1.211181640625,1.2337646484375,0.2471923828125
6.258,318,3147,1509,2268,12.0,29.0,22.0,56.701656341552734,38.26904296875,-57.189937591552734,-1.7147216796875,1.040283203125,0.6763916015625
6.259,315,3147,1383,2131,12.0,29.0,22.0,-64.94140625,62.927242279052734,-36.865234375,-1.989013671875,-0.053466796875,0.5291748046875
6.269,315,3147,1334,2110,12.0,29.0,22.0,-76.35498046875,57.312007904052734,-7.873534679412842,-1.989013671875,-0.053466796875,0.5291748046875
6.278,310,3147,1225,1957,12.0,29.0,22.0,-37.59765625,42.053218841552734,24.291990280151367,-1.7672119140625,0.12939453125,0.231201171875
6.298,312,3147,1183,1435,11.0,27.0,19.0,-17.39501953125,30.212400436401367,53.100582122802734,-1.18505859375,0.3856201171875,-0.0762939453125
6.299,314,3147,1211,934,11.0,27.0,19.0,-24.597166061401367,23.437498092651367,77.1484375,-1.18505859375,0.3856201171875,-0.0762939453125
6.305,313,3147,1217,361,11.0,27.0,19.0,-33.26416015625,21.362302780151367,93.93309783935547,-0.900634765625,0.23876953125,-0.023681640625
6.319,323,1662,1178,330,11.0,27.0,19.0,-19.4091796875,22.338865280151367,98.38866424560547,-0.2412109375,-0.2269287109375,0.180419921875
6.327,321,1169,1163,321,11.0,27.0,19.0,16.17431640625,26.672361373901367,86.36473846435547,-0.2412109375,-0.2269287109375,0.180419921875
6.335,319,830,1122,325,11.0,27.0,19.0,57.983394622802734,36.4990234375,60.974117279052734,0.0838623046875,-0.2469482421875,0.1561279296875
6.360,309,487,1064,323,11.0,27.0,19.0,91.18651580810547,46.447750091552734,30.395505905151367,0.2120361328125,0.013916015625,0.326416015625
6.360,308,438,1067,318,11.0,27.0,19.0,102.23387908935547,47.851558685302734,-3.845214605331421,0.2120361328125,0.013916015625,0.326416015625
6.380,316,416,1067,321,11.0,27.0,19.0,88.25682830810547,42.541500091552734,-33.99658203125,-0.1029052734375,0.2734375,0.3934326171875
6.380,316,433,1054,321,11.0,27.0,19.0,65.3076171875,36.80419921875,-41.931148529052734,-0.5479736328125,0.8714599609375,0.1688232421875
6.399,315,411,1043,321,8.0,28.0,20.0,47.546382904052734,28.564451217651367,-25.207517623901367,-0.5479736328125,0.8714599609375,0.1688232421875
6.400,316,410,1018,321,8.0,28.0,20.0,27.954099655151367,17.08984375,-0.4882812201976776,-0.5364990234375,0.8731689453125,0.015380859375
6.410,313,373,1038,318,8.0,28.0,20.0,2.50244140625,9.1552734375,16.66259765625,-0.666748046875,0.21875,-0.2320556640625
6.417,314,399,1034,321,8.0,28.0,20.0,-18.06640625,7.446288585662842,23.742673873901367,-0.666748046875,0.21875,-0.2320556640625
6.425,313,414,1024,323,8.0,28.0,20.0,-30.395505905151367,8.30078125,26.428220748901367,-0.756591796875,0.0452880859375,-0.3536376953125
6.439,310,437,1024,318,8.0,28.0,20.0,-37.90283203125,7.995604991912842,28.991697311401367,-0.8697509765625,0.0859375,-0.1533203125
6.464,313,462,1026,322,8.0,28.0,20.0,-36.4990234375,4.21142578125,31.860349655151367,-0.8697509765625,0.0859375,-0.1533203125
6.464,315,509,1050,322,8.0,28.0,20.0,-20.141599655151367,-2.38037109375,35.64453125,-0.8641357421875,0.2049560546875,0.0367431640625
6.469,310,582,1078,321,8.0,28.0,20.0,5.737304210662842,-9.27734375,40.771480560302734,-0.8079833984375,0.3165283203125,0.1591796875
6.499,315,579,1103,321,8.0,28.0,20.0,26.977537155151367,-14.648436546325684,45.410152435302734,-0.7647705078125,0.3604736328125,0.228271484375
6.500,316,725,1112,324,5.0,28.0,21.0,35.64453125,-20.141599655151367,48.522945404052734,-0.7755126953125,0.3197021484375,0.2886962890625
6.500,317,874,1155,323,5.0,28.0,21.0,34.423828125,-26.794431686401367,51.757808685302734,-0.814453125,0.246337890625,0.3331298828125
6.507,315,1045,1183,325,5.0,28.0,21.0,29.541013717651367,-33.3251953125,57.617183685302734,-0.841796875,0.2105712890625,0.3284912109375
6.516,319,1198,1175,324,5.0,28.0,21.0,23.376462936401367,-37.7197265625,67.2607421875,-0.834716796875,0.216064453125,0.2564697265625
6.529,321,1890,1178,328,5.0,28.0,21.0,14.526366233825684,-38.75732421875,80.01708984375,-0.7877197265625,0.24755859375,0.13427734375
6.537,324,2410,1156,328,5.0,28.0,21.0,1.9531248807907104,-37.353515625,93.07860565185547,-0.6846923828125,0.27783203125,0.0244140625
6.545,316,3147,1130,351,5.0,28.0,21.0,-11.413573265075684,-36.43798828125,100.58592987060547,-0.447509765625,0.258056640625,-0.0467529296875
6.565,315,3147,1101,1472,5.0,28.0,21.0,-21.423337936401367,-38.0859375,91.91893768310547,0.0106201171875,0.34228515625,0.013427734375
6.567,306,3147,1209,1807,5.0,28.0,21.0,-23.315427780151367,-45.471187591552734,55.480953216552734,0.7630615234375,0.35498046875,0.3507080078125
6.575,321,3147,1294,2021,5.0,28.0,21.0,1.0986328125,-51.940914154052734,-20.996091842651367,1.7308349609375,-0.0478515625,0.2855224609375
6.604,323,3147,1506,2876,3.0,29.0,19.0,49.377437591552734,-46.997066497802734,-121.39891815185547,2.2083740234375,-0.230712890625,-0.291015625
6.604,308,3147,1546,3059,3.0,29.0,19.0,59.936519622802734,-42.419429779052734,-190.67381286621094,1.076171875,0.47314453125,-0.1907958984375
6.607,361,3147,1398,3147,3.0,29.0,19.0,1.5258787870407104,-33.935546875,-195.19041442871094,-1.1209716796875,2.122314453125,0.3564453125
6.621,357,3147,1500,3147,3.0,29.0,19.0,-91.06444549560547,-2.868652105331421,-150.7568359375,-2.3184814453125,3.6021728515625,0.4599609375
6.631,363,3147,1531,3147,3.0,29.0,19.0,-217.71238708496094,21.057126998901367,-117.61473846435547,-2.859619140625,2.8751220703125,0.83837890625
6.636,334,3147,1624,2721,3.0,29.0,19.0,-340.4540710449219,8.1787109375,-126.28173065185547,-3.6666259765625,-0.0400390625,1.387451171875
6.668,321,3147,1634,2621,3.0,29.0,19.0,-311.58447265625,-2.197265625,-135.68115234375,-3.5494384765625,-2.3765869140625,0.5848388671875
6.668,321,3147,1600,2625,3.0,29.0,19.0,-73.8525390625,16.29638671875,-121.76512908935547,-2.34130859375,-1.8046875,-0.6597900390625
6.669,327,3147,1549,2668,3.0,29.0,19.0,147.15576171875,33.203125,-94.66551971435547,-1.405029296875,0.15283203125,-0.568603515625
6.680,322,3147,1516,2667,12.0,32.0,15.0,151.2451171875,48.400875091552734,-68.603515625,-1.320556640625,1.0169677734375,0.2059326171875
6.698,318,3147,1470,2504,12.0,32.0,15.0,44.860836029052734,61.767574310302734,-48.889156341552734,-1.59228515625,0.722900390625,0.6710205078125
6.709,318,3147,1439,2330,12.0,32.0,15.0,-22.949216842651367,53.466793060302734,-27.038572311401367,-1.7864990234375,0.1983642578125,0.7001953125
6.710,315,3147,1271,2089,12.0,32.0,15.0,-32.1044921875,35.82763671875,1.6479490995407104,-1.7855224609375,-0.0604248046875,0.3641357421875
6.718,316,3147,1178,1946,12.0,32.0,15.0,-18.61572265625,24.047849655151367,32.40966796875,-1.639404296875,-0.052490234375,-0.01953125
6.726,315,3147,1167,1772,12.0,32.0,15.0,-7.873534679412842,16.4794921875,58.654781341552734,-1.389404296875,0.166748046875,-0.1566162109375
6.740,317,3147,1189,1055,12.0,32.0,15.0,-7.019042491912842,11.779784202575684,76.84326171875,-1.0701904296875,0.2972412109375,-0.06787109375
6.748,315,3147,1228,418,12.0,32.0,15.0,-5.676269054412842,12.756346702575684,86.42577362060547,-0.788818359375,0.19384765625,0.10205078125
6.774,321,2630,1202,333,12.0,32.0,15.0,8.056640625,17.27294921875,88.92821502685547,-0.556884765625,-0.050048828125,0.2664794921875
6.775,313,1548,1160,310,12.0,32.0,15.0,33.0810546875,23.010251998901367,83.92333221435547,-0.3521728515625,-0.28564453125,0.3021240234375
6.778,316,1224,1116,327,7.0,30.0,23.0,68.115234375,31.921384811401367,72.6318359375,-0.1529541015625,-0.299072265625,0.196533203125
6.786,315,1107,1101,324,7.0,30.0,23.0,102.78319549560547,38.63525390625,58.593746185302734,0.0360107421875,-0.111328125,0.1331787109375
6.806,315,721,1056,321,7.0,30.0,23.0,114.86815643310547,36.43798828125,41.198726654052734,0.0849609375,0.1083984375,0.16552734375
6.822,318,588,1018,324,7.0,30.0,23.0,96.13036346435547,31.921384811401367,19.4091796875,-0.1005859375,0.3426513671875,0.158203125
6.823,318,546,1042,318,7.0,30.0,23.0,61.035152435302734,31.494138717651367,2.685546636581421,-0.3802490234375,0.5810546875,0.03515625
6.830,316,584,1026,319,7.0,30.0,23.0,31.799314498901367,30.517576217651367,2.624511480331421,-0.54052734375,0.742919921875,-0.123046875
6.838,316,592,1026,323,7.0,30.0,23.0,14.282225608825684,24.902341842651367,16.6015625,-0.5765380859375,0.80419921875,-0.173095703125
6.846,316,588,1054,323,7.0,30.0,23.0,-1.7089842557907104,16.845703125,31.677244186401367,-0.607177734375,0.7103271484375,-0.087646484375
6.873,316,598,1051,321,7.0,30.0,23.0,-21.179197311401367,9.8876953125,38.26904296875,-0.6658935546875,0.43359375,0.006103515625
6.874,316,567,1081,323,7.0,30.0,23.0,-37.90283203125,5.859374523162842,35.400390625,-0.74462890625,0.16455078125,0.02783203125
6.876,317,617,1078,321,7.0,32.0,18.0,-41.503902435302734,3.540038824081421,29.113767623901367,-0.828857421875,0.1085205078125,0.06298828125
6.891,321,646,1122,323,7.0,32.0,18.0,-26.367185592651367,-0.54931640625,24.658201217651367,-0.884765625,0.2314453125,0.1322021484375
6.919,321,723,1151,324,7.0,32.0,18.0,-1.0986328125,-6.958007335662842,23.498533248901367,-0.9144287109375,0.390869140625,0.19384765625
6.919,324,820,1162,327,7.0,32.0,18.0,16.9677734375,-13.916014671325684,25.268552780151367,-0.9202880859375,0.4466552734375,0.2559814453125
6.920,310,814,1191,321,7.0,32.0,18.0,21.362302780151367,-19.4091796875,27.770994186401367,-0.9139404296875,0.370849609375,0.2791748046875
6.934,319,865,1198,323,7.0,32.0,18.0,19.95849609375,-22.827146530151367,30.578611373901367,-0.92529296875,0.2694091796875,0.218505859375
6.936,330,897,1191,321,7.0,32.0,18.0,19.287109375,-25.756834030151367,36.376953125,-0.9517822265625,0.2205810546875,0.1092529296875
6.950,321,944,1188,321,7.0,32.0,18.0,19.8974609375,-29.724119186401367,46.691890716552734,-0.9603271484375,0.2200927734375,0.0076904296875
6.975,316,959,1222,327,7.0,32.0,18.0,20.080564498901367,-34.5458984375,60.729976654052734,-0.936767578125,0.2430419921875,-0.0638427734375
6.975,318,1108,1211,324,7.0,32.0,18.0,18.4326171875,-38.818359375,77.5146484375,-0.89404296875,0.24658203125,-0.104248046875
6.980,316,1497,1175,330,3.0,28.0,21.0,13.366698265075684,-41.809078216552734,95.27587127685547,-0.7886962890625,0.17529296875,-0.1484375
6.988,316,2100,1157,326,3.0,28.0,21.0,3.845214605331421,-42.358394622802734,109.49706268310547,-0.522705078125,0.059814453125,-0.18359375
6.996,317,2973,1115,330,3.0,28.0,21.0,-8.48388671875,-41.381832122802734,109.68016815185547,-0.0926513671875,0.061279296875,-0.0777587890625
7.016,330,3147,1070,1243,3.0,28.0,21.0,-15.380858421325684,-44.006343841552734,83.49608612060547,0.40771484375,0.2491455078125,0.274169921875
7.018,318,3147,1163,1569,3.0,28.0,21.0,-3.051757574081421,-51.757808685302734,24.169919967651367,1.169677734375,0.1707763671875,0.5784912109375
7.026,318,3147,1294,1978,3.0,28.0,21.0,39.794921875,-49.621578216552734,-67.19970703125,2.0440673828125,0.0657958984375,0.1021728515625
7.048,338,3147,1463,2770,3.0,28.0,21.0,73.8525390625,-39.306640625,-155.94482421875,2.1787109375,0.484130859375,-0.31103515625
7.048,324,3147,1534,3133,3.0,28.0,21.0,35.82763671875,-43.640132904052734,-201.47703552246094,0.58984375,1.286376953125,0.1510009765625
7.057,351,3147,1393,3147,3.0,28.0,21.0,-51.696773529052734,-37.65869140625,-191.52830505371094,-1.6864013671875,2.621826171875,0.533935546875
7.076,338,3147,1497,3147,3.0,28.0,21.0,-51.696773529052734,-37.65869140625,-191.52830505371094,-2.6719970703125,3.2440185546875,0.781494140625
7.079,333,3147,1629,3050,11.0,27.0,11.0,-258.85009765625,-4.7607421875,-115.41747283935547,-3.11962890625,1.283447265625,1.3021240234375
7.087,336,3147,1637,2847,11.0,27.0,11.0,-300.4150390625,-18.6767578125,-128.0517578125,-3.7822265625,-1.4222412109375,1.231201171875
7.097,400,3147,1516,2717,11.0,27.0,11.0,-300.4150390625,-18.6767578125,-128.0517578125,-3.495849609375,-2.2193603515625,0.066650390625
7.128,338,3147,1575,2781,11.0,27.0,11.0,62.194820404052734,5.554198741912842,-89.23339080810547,-2.169921875,-1.0211181640625,-0.8109130859375
7.128,346,3147,1506,2765,11.0,27.0,11.0,188.53758239746094,20.874021530151367,-54.626461029052734,-1.3564453125,0.719482421875,-0.450927734375
7.130,332,3147,1518,2756,11.0,27.0,11.0,188.53758239746094,20.874021530151367,-54.626461029052734,-1.4681396484375,1.255126953125,0.27978515625
7.140,330,3147,1488,2833,11.0,27.0,11.0,8.056640625,45.776363372802734,-22.949216842651367,-1.7418212890625,0.73779296875,0.62548828125
7.147,326,3147,1481,2677,11.0,27.0,11.0,-52.062984466552734,42.236324310302734,-3.601073980331421,-1.8470458984375,0.2977294921875,0.6219482421875
7.158,322,3147,1413,2573,11.0,27.0,11.0,-52.062984466552734,42.236324310302734,-3.601073980331421,-1.8470458984375,0.2977294921875,0.6219482421875
7.180,321,3147,1268,2384,11.0,27.0,11.0,-45.410152435302734,25.817869186401367,51.269527435302734,-1.634765625,0.1256103515625,-0.035888671875
7.180,336,3147,1182,2225,11.0,27.0,17.0,-45.410152435302734,25.817869186401367,51.269527435302734,-1.40771484375,0.2686767578125,-0.13916015625
7.185,328,3147,1201,1862,11.0,27.0,17.0,-36.92626953125,18.85986328125,71.10595703125,-1.40771484375,0.2686767578125,-0.13916015625
7.199,323,3147,1217,968,11.0,27.0,17.0,-12.695311546325684,12.145995140075684,80.26123046875,-0.7261962890625,0.4437255859375,0.2056884765625
7.217,328,3092,1225,337,11.0,27.0,17.0,-12.695311546325684,12.145995140075684,80.26123046875,-0.42333984375,0.2669677734375,0.30712890625
7.217,333,2115,1222,308,11.0,27.0,17.0,9.27734375,23.925779342651367,66.71142578125,-0.42333984375,0.2669677734375,0.30712890625
7.229,318,1345,1184,328,11.0,27.0,17.0,61.950679779052734,48.034664154052734,18.9208984375,-0.0068359375,-0.0762939453125,0.298095703125
7.237,348,1071,1138,328,11.0,27.0,17.0,61.950679779052734,48.034664154052734,18.9208984375,0.05908203125,-0.0838623046875,0.3282470703125
7.245,336,883,1091,324,11.0,27.0,17.0,85.93749237060547,51.879878997802734,-3.540038824081421,0.05908203125,-0.0838623046875,0.3282470703125
7.259,324,564,1027,318,11.0,27.0,17.0,87.82958221435547,38.330078125,-33.63037109375,-0.287841796875,0.0596923828125,0.1982421875
7.283,332,512,1025,323,11.0,27.0,17.0,87.82958221435547,38.330078125,-33.63037109375,-0.5174560546875,0.332275390625,0.0155029296875
7.283,324,508,1063,321,7.0,29.0,14.0,74.70703125,30.700681686401367,-30.456541061401367,-0.5174560546875,0.332275390625,0.0155029296875
7.289,323,512,1031,322,7.0,29.0,14.0,40.771480560302734,12.145995140075684,10.253905296325684,-0.6285400390625,0.6817626953125,-0.156005859375
7.297,322,508,1013,323,7.0,29.0,14.0,40.771480560302734,12.145995140075684,10.253905296325684,-0.67578125,0.53857421875,-0.1231689453125
7.305,322,512,1014,322,7.0,29.0,14.0,9.46044921875,5.737304210662842,26.306150436401367,-0.67578125,0.53857421875,-0.1231689453125
7.322,321,548,1008,321,7.0,29.0,14.0,-37.353515625,3.479003667831421,38.02490234375,-0.807861328125,0.0286865234375,-0.0860595703125
7.334,323,533,1010,321,7.0,29.0,14.0,-37.353515625,3.479003667831421,38.02490234375,-0.7996826171875,-0.0126953125,-0.0469970703125
7.336,316,588,996,323,7.0,29.0,14.0,-35.58349609375,1.4038084745407104,40.893550872802734,-0.7996826171875,-0.0126953125,-0.0469970703125
7.349,327,567,1059,326,7.0,29.0,14.0,-1.4038084745407104,-9.765625,42.968746185302734,-0.7449951171875,0.263916015625,0.1248779296875
7.357,326,540,1079,324,7.0,29.0,14.0,-1.4038084745407104,-9.765625,42.968746185302734,-0.738525390625,0.404296875,0.1878662109375
7.365,327,580,1107,323,7.0,29.0,14.0,14.770506858825684,-15.808104515075684,42.968746185302734,-0.738525390625,0.404296875,0.1878662109375
7.384,323,748,1137,323,4.0,28.0,20.0,19.59228515625,-21.362302780151367,43.395992279052734,-0.7755126953125,0.3778076171875,0.2655029296875
7.387,323,883,1172,323,4.0,28.0,20.0,17.27294921875,-26.367185592651367,44.372554779052734,-0.7755126953125,0.3778076171875,0.2655029296875
7.395,334,913,1170,324,4.0,28.0,20.0,14.770506858825684,-31.005857467651367,48.034664154052734,-0.84716796875,0.289306640625,0.215087890625
7.409,319,1071,1206,324,4.0,28.0,20.0,14.892577171325684,-36.0107421875,56.762691497802734,-1.0096435546875,0.186767578125,0.00732421875
7.419,319,1225,1198,324,4.0,28.0,20.0,16.4794921875,-42.358394622802734,71.35009765625,-1.0096435546875,0.186767578125,0.00732421875
7.425,346,1516,1131,323,4.0,28.0,20.0,17.39501953125,-49.499507904052734,90.69823455810547,-0.9654541015625,0.126220703125,-0.120361328125
7.443,336,2573,1136,327,4.0,28.0,20.0,15.930174827575684,-54.016109466552734,109.49706268310547,-0.3070068359375,0.251220703125,-0.0941162109375
7.450,332,3147,1122,425,4.0,28.0,20.0,10.009765625,-55.236812591552734,117.98094940185547,-0.3070068359375,0.251220703125,-0.0941162109375
7.455,344,3147,1083,1123,4.0,28.0,20.0,2.13623046875,-57.189937591552734,104.91942596435547,0.047119140625,0.462158203125,0.3216552734375
7.469,346,3147,1239,1899,2.0,31.0,17.0,-1.220703125,-57.678218841552734,64.208984375,1.5050048828125,-0.1143798828125,0.7496337890625
7.499,371,3147,1328,2178,2.0,31.0,17.0,6.958007335662842,-47.058101654052734,-3.173827886581421,1.5050048828125,-0.1143798828125,0.7496337890625
7.499,329,3147,1494,2631,2.0,31.0,17.0,27.587888717651367,-22.644041061401367,-89.47753143310547,2.401123046875,-0.288330078125,0.0003662109375
7.500,361,3147,1561,3147,2.0,31.0,17.0,26.611326217651367,-11.596678733825684,-160.2783203125,-0.2894287109375,1.6212158203125,-0.103515625
7.507,328,3147,1477,3147,2.0,31.0,17.0,-21.301267623901367,-19.83642578125,-181.82371520996094,-0.2894287109375,1.6212158203125,-0.103515625
7.528,418,3147,1464,3147,2.0,31.0,17.0,-85.57128143310547,-15.197752952575684,-150.20751953125,-2.21728515625,3.217041015625,0.1865234375
7.529,334,3147,1536,3147,2.0,31.0,17.0,-161.19383239746094,1.15966796875,-107.84911346435547,-3.618896484375,1.11572265625,1.3638916015625
7.538,342,3147,1598,3147,2.0,31.0,17.0,-265.13671875,-7.934569835662842,-94.17723846435547,-3.618896484375,1.11572265625,1.3638916015625
7.547,336,3147,1521,3147,2.0,31.0,17.0,-291.44287109375,-25.390623092651367,-88.31786346435547,-3.3360595703125,-2.0784912109375,0.78173828125
7.559,346,3147,1545,3147,2.0,31.0,17.0,-74.76806640625,-17.39501953125,-73.30322265625,-0.697265625,0.3314208984375,-0.2864990234375
7.567,361,3147,1501,3112,10.0,27.0,19.0,204.95603942871094,-17.333984375,-44.616695404052734,-0.697265625,0.3314208984375,-0.2864990234375
7.588,346,3147,1494,3071,10.0,27.0,19.0,231.93357849121094,-3.601073980331421,-25.695798873901367,-0.91357421875,1.8338623046875,0.3614501953125
7.589,332,3147,1462,2867,10.0,27.0,19.0,69.3359375,40.405269622802734,-31.433103561401367,-2.139404296875,0.577392578125,0.50390625
7.597,326,3147,1474,2715,10.0,27.0,19.0,-54.626461029052734,58.532711029052734,-32.470703125,-2.139404296875,0.577392578125,0.50390625
7.609,323,3147,1415,2637,10.0,27.0,19.0,-66.2841796875,46.691890716552734,-17.88330078125,-2.04541015625,0.4176025390625,0.4112548828125
7.629,319,3147,1280,2330,10.0,27.0,19.0,-29.968259811401367,34.423828125,0.4272460639476776,-1.7581787109375,0.458984375,0.1654052734375
7.630,315,3147,1206,2012,10.0,27.0,19.0,-6.835937023162842,28.137205123901367,14.770506858825684,-1.465576171875,0.4254150390625,-0.00244140625
7.635,319,3147,1211,1742,10.0,27.0,19.0,-4.638671875,22.094724655151367,29.113767623901367,-1.177978515625,0.4083251953125,-0.0146484375
7.654,334,3147,1202,739,10.0,27.0,19.0,-8.11767578125,17.63916015625,43.518062591552734,-0.87841796875,0.3370361328125,0.060302734375
7.657,344,2659,1219,332,10.0,27.0,19.0,-3.295898199081421,18.310546875,51.574703216552734,-0.58984375,0.1175537109375,0.1837158203125
7.665,318,1951,1198,328,9.0,29.0,19.0,18.73779296875,24.353025436401367,45.837398529052734,-0.2581787109375,-0.1656494140625,0.2884521484375
7.691,321,1357,1153,328,9.0,29.0,19.0,54.504390716552734,34.97314453125,25.634763717651367,0.0733642578125,-0.3338623046875,0.310546875
7.692,329,1122,1104,307,9.0,29.0,19.0,86.66991424560547,46.020503997802734,0.3662109076976776,0.2618408203125,-0.2706298828125,0.3389892578125
7.695,347,855,1098,324,9.0,29.0,19.0,96.31346893310547,50.048824310302734,-22.216794967651367,0.2412109375,-0.104736328125,0.4312744140625
7.710,338,711,1071,329,9.0,29.0,19.0,81.23778533935547,46.997066497802734,-40.832515716552734,-0.0186767578125,0.0963134765625,0.4110107421875
7.730,332,697,1070,334,9.0,29.0,19.0,56.396480560302734,42.297359466552734,-49.133296966552734,-0.3857421875,0.385009765625,0.1900634765625
7.731,330,765,1078,323,9.0,29.0,19.0,33.447265625,35.94970703125,-40.466304779052734,-0.5965576171875,0.614990234375,-0.0821533203125
7.742,316,780,1101,323,9.0,29.0,19.0,16.54052734375,26.306150436401367,-21.179197311401367,-0.65966796875,0.6429443359375,-0.2635498046875
7.747,324,777,1109,324,9.0,29.0,19.0,4.5166015625,15.075682640075684,-2.25830078125,-0.7308349609375,0.4940185546875,-0.2945556640625
7.761,318,837,1117,321,9.0,29.0,19.0,-5.676269054412842,5.0048828125,10.314940452575684,-0.804443359375,0.27587890625,-0.2276611328125
7.769,316,828,1137,323,7.0,29.0,18.0,-13.427733421325684,-1.8920897245407104,16.54052734375,-0.8499755859375,0.1358642578125,-0.1488037109375
7.797,315,864,1160,319,7.0,29.0,18.0,-17.51708984375,-6.164550304412842,21.057126998901367,-0.896728515625,0.1322021484375,-0.06005859375
7.798,316,957,1155,328,7.0,29.0,18.0,-18.00537109375,-9.82666015625,27.770994186401367,-0.9427490234375,0.2054443359375,0.03515625
7.800,305,900,1157,321,7.0,29.0,18.0,-16.05224609375,-13.122557640075684,37.109375,-0.9661865234375,0.293701171875,0.1197509765625
7.807,319,906,1156,324,7.0,29.0,18.0,-13.916014671325684,-16.54052734375,46.936031341552734,-0.94140625,0.33984375,0.20556640625
7.818,324,894,1155,321,7.0,29.0,18.0,-11.230467796325684,-21.179197311401367,53.710933685302734,-0.9132080078125,0.302734375,0.2596435546875
7.842,424,922,1100,321,7.0,29.0,18.0,-5.859374523162842,-27.160642623901367,57.678218841552734,-0.9251708984375,0.2265625,0.2615966796875
7.842,470,955,1081,324,7.0,29.0,18.0,0.0610351525247097,-33.87451171875,63.049312591552734,-0.92431640625,0.1796875,0.242431640625
7.845,502,1004,1018,321,7.0,29.0,18.0,4.08935546875,-39.24560546875,71.1669921875,-0.9000244140625,0.169189453125,0.194580078125
7.859,383,1155,1104,324,2.0,29.0,22.0,6.530761241912842,-41.442867279052734,81.90917205810547,-0.869384765625,0.1641845703125,0.10693359375
7.869,390,1527,1083,328,2.0,29.0,22.0,7.934569835662842,-40.893550872802734,95.27587127685547,-0.76904296875,0.13134765625,-0.0133056640625
7.875,342,2183,1122,328,2.0,29.0,22.0,7.141112804412842,-38.330078125,108.03221893310547,-0.498046875,0.0860595703125,-0.1143798828125
7.895,331,3147,1107,521,2.0,29.0,22.0,-0.1220703050494194,-35.400390625,109.80223846435547,-0.0780029296875,0.147216796875,-0.069580078125
7.898,346,3147,1067,1134,2.0,29.0,22.0,-15.869139671325684,-36.2548828125,86.97509002685547,0.3939208984375,0.4542236328125,0.1986083984375
7.905,428,3147,990,1602,2.0,29.0,22.0,-23.986814498901367,-43.518062591552734,32.16552734375,1.0030517578125,0.5853271484375,0.5509033203125
7.919,324,3147,1413,1985,2.0,29.0,22.0,9.94873046875,-50.231929779052734,-59.997554779052734,1.8436279296875,0.1070556640625,0.254150390625
7.938,321,3147,1509,2430,2.0,29.0,22.0,72.021484375,-45.593257904052734,-166.62596130371094,2.17236328125,0.037353515625,-0.4532470703125
7.938,321,3147,1546,2902,2.0,29.0,22.0,67.9931640625,-31.799314498901367,-230.34666442871094,0.9671630859375,0.8751220703125,-0.1810302734375
7.952,430,3147,1343,3147,2.0,29.0,22.0,-21.667478561401367,-9.46044921875,-230.22459411621094,-1.2239990234375,2.25244140625,0.5130615234375
7.959,351,3147,1499,3147,12.0,28.0,20.0,-114.68505096435547,15.808104515075684,-183.41062927246094,-2.5364990234375,3.3349609375,0.8037109375
7.966,342,3147,1557,3133,12.0,28.0,20.0,-207.88572692871094,19.4091796875,-141.845703125,-3.07275390625,2.059326171875,1.354248046875
7.980,330,3147,1604,2612,12.0,28.0,20.0,-277.83203125,2.13623046875,-144.34814453125,-3.706787109375,-1.015869140625,1.592041015625
7.999,324,3147,1624,2525,12.0,28.0,20.0,-189.57518005371094,-2.990722417831421,-151.7333984375,-3.32373046875,-2.5902099609375,0.254638671875
7.999,313,3147,1640,2409,12.0,28.0,20.0,58.227535247802734,8.60595703125,-137.26806640625,-1.9803466796875,-1.2615966796875,-1.104736328125
8.009,332,3147,1592,2374,12.0,28.0,20.0,216.49168395996094,20.629880905151367,-111.32811737060547,-1.1685791015625,0.7060546875,-0.7359619140625
8.018,323,3147,1596,2350,12.0,28.0,20.0,144.4091796875,42.297359466552734,-85.87645721435547,-1.2298583984375,1.03515625,0.20458984375
8.041,324,3147,1562,2325,12.0,28.0,20.0,-1.8920897245407104,60.363765716552734,-62.744136810302734,-1.6126708984375,0.236083984375,0.6357421875
8.042,323,3147,1497,2210,12.0,28.0,20.0,-71.1669921875,49.926753997802734,-28.686521530151367,-1.884765625,-0.4012451171875,0.608154296875
8.049,321,3147,1427,2167,12.0,28.0,20.0,-63.171382904052734,27.343748092651367,13.793944358825684,-1.9287109375,-0.48583984375,0.3109130859375
8.060,319,3147,1340,2115,12.0,27.0,17.0,-32.958984375,12.512206077575684,49.133296966552734,-1.7796630859375,-0.263916015625,0.0003662109375
8.069,313,3147,1188,1874,12.0,27.0,17.0,-10.009765625,5.249022960662842,71.59423828125,-1.498291015625,0.1346435546875,-0.049560546875
8.096,316,3147,1184,1568,12.0,27.0,17.0,-0.9765624403953552,3.723144292831421,84.10643768310547,-1.135009765625,0.4488525390625,0.1304931640625
8.102,316,3147,1201,1183,12.0,27.0,17.0,-0.9765624403953552,3.723144292831421,84.10643768310547,-0.79052734375,0.4376220703125,0.3101806640625
8.102,304,3038,1183,330,12.0,27.0,17.0,2.990722417831421,22.705076217651367,88.80614471435547,-0.545654296875,0.17578125,0.4134521484375
8.107,315,2133,1173,331,12.0,27.0,17.0,11.352538108825684,31.127927780151367,86.91405487060547,-0.375732421875,-0.1689453125,0.4013671875
8.115,314,1615,1160,324,12.0,27.0,17.0,11.352538108825684,31.127927780151367,86.91405487060547,-0.232666015625,-0.385009765625,0.2469482421875
8.144,317,1175,1104,327,12.0,27.0,17.0,56.823726654052734,37.41455078125,76.59912109375,-0.10400390625,-0.3804931640625,0.0609130859375
8.144,313,871,1038,300,12.0,27.0,17.0,72.998046875,30.090330123901367,71.71630859375,-0.0048828125,-0.2659912109375,0.0233154296875
8.145,315,694,1067,318,12.0,27.0,17.0,72.998046875,30.090330123901367,71.71630859375,-0.044677734375,-0.048828125,0.091796875
8.159,312,589,1039,318,9.0,31.0,15.0,62.499996185302734,12.817381858825684,42.968746185302734,-0.2950439453125,0.257080078125,0.054931640625
8.172,310,598,1065,316,9.0,31.0,15.0,55.480953216552734,12.756346702575684,35.46142578125,-0.5428466796875,0.6043701171875,-0.0726318359375
8.175,310,631,1063,321,9.0,31.0,15.0,55.480953216552734,12.756346702575684,35.46142578125,-0.601318359375,0.929931640625,-0.146240234375
8.206,308,627,1071,322,9.0,31.0,15.0,25.024412155151367,6.958007335662842,56.030269622802734,-0.56640625,1.0628662109375,-0.12744140625
8.207,310,617,1050,300,9.0,31.0,15.0,-6.103515148162842,6.103515148162842,58.349605560302734,-0.579833984375,0.9146728515625,-0.0657958984375
8.207,310,607,1100,324,9.0,31.0,15.0,-6.103515148162842,6.103515148162842,58.349605560302734,-0.6766357421875,0.5743408203125,-0.017578125
8.219,313,576,1129,318,9.0,31.0,15.0,-44.067378997802734,5.615233898162842,37.29248046875,-0.786376953125,0.26416015625,0.0146484375
8.227,310,678,1151,326,9.0,31.0,15.0,-41.442867279052734,0.6103515625,26.428220748901367,-0.8494873046875,0.1522216796875,0.0758056640625
8.246,313,618,1146,323,9.0,31.0,15.0,-41.442867279052734,0.6103515625,26.428220748901367,-0.8656005859375,0.2269287109375,0.1541748046875
8.250,310,766,1155,321,0.0,28.0,15.0,-2.624511480331421,-12.573241233825684,21.850584030151367,-0.8621826171875,0.34912109375,0.20068359375
8.257,310,820,1160,323,0.0,28.0,15.0,13.732909202575684,-19.287109375,26.489255905151367,-0.8619384765625,0.3814697265625,0.2205810546875
8.265,313,878,1170,328,0.0,28.0,15.0,13.732909202575684,-19.287109375,26.489255905151367,-0.8740234375,0.2918701171875,0.2203369140625
8.305,313,849,1172,324,0.0,28.0,15.0,19.6533203125,-31.677244186401367,43.395992279052734,-0.89501953125,0.1573486328125,0.17919921875
8.305,315,906,1151,322,0.0,28.0,15.0,22.460935592651367,-37.90283203125,57.006832122802734,-0.8984375,0.0576171875,0.0926513671875
8.306,315,1020,1149,301,0.0,28.0,15.0,22.460935592651367,-37.90283203125,57.006832122802734,-0.8984375,0.0576171875,0.0926513671875
8.309,315,1434,1160,328,0.0,28.0,15.0,24.353025436401367,-48.767086029052734,96.61864471435547,-0.724853515625,-0.0079345703125,-0.111328125
8.317,371,2372,1092,327,0.0,28.0,15.0,24.353025436401367,-48.767086029052734,96.61864471435547,-0.47314453125,0.003662109375,-0.0806884765625
8.325,354,3147,1083,390,0.0,28.0,15.0,16.4794921875,-49.560543060302734,115.23436737060547,-0.47314453125,0.003662109375,-0.0806884765625
8.346,328,3147,1051,1488,0.0,28.0,15.0,-14.038084983825684,-53.588863372802734,99.97557830810547,0.6649169921875,0.256591796875,0.4649658203125
8.348,347,3147,1137,1850,5.0,29.0,19.0,-14.038084983825684,-53.588863372802734,99.97557830810547,1.6298828125,-0.088134765625,0.40869140625
8.355,360,3147,1302,2167,5.0,29.0,19.0,-10.192870140075684,-64.94140625,44.311519622802734,1.6298828125,-0.088134765625,0.40869140625
8.369,359,3147,1559,3024,5.0,29.0,19.0,65.12451171875,-52.856441497802734,-147.94921875,1.9166259765625,0.300048828125,0.0494384765625
8.377,332,3147,1543,3147,5.0,29.0,19.0,65.12451171875,-52.856441497802734,-147.94921875,-0.238037109375,1.742919921875,0.6441650390625
8.385,348,3147,1483,3147,5.0,29.0,19.0,33.0810546875,-28.320310592651367,-197.38768005371094,-0.238037109375,1.742919921875,0.6441650390625
8.409,359,3147,1422,3147,5.0,29.0,19.0,-155.8837890625,43.701168060302734,-128.0517578125,-2.885498046875,3.3314208984375,0.768798828125
8.409,411,3147,1447,3147,5.0,29.0,19.0,-155.8837890625,43.701168060302734,-128.0517578125,-3.3978271484375,1.5623779296875,1.22412109375
8.415,336,3147,1534,3147,5.0,29.0,19.0,-226.07420349121094,27.893064498901367,-93.62792205810547,-3.3978271484375,1.5623779296875,1.22412109375
8.429,375,3147,1504,3147,5.0,29.0,19.0,-57.128902435302734,-13.183592796325684,-76.72119140625,-2.2548828125,-2.5133056640625,-0.802490234375
8.450,411,3147,1487,3147,5.0,29.0,19.0,-57.128902435302734,-13.183592796325684,-76.72119140625,-0.938232421875,-0.1375732421875,-0.77392578125
8.450,330,3147,1524,3134,9.0,27.0,20.0,203.00291442871094,-20.446775436401367,-62.927242279052734,-0.938232421875,-0.1375732421875,-0.77392578125
8.459,333,3147,1498,3042,9.0,27.0,20.0,73.79150390625,34.85107421875,-47.058101654052734,-1.6441650390625,1.4603271484375,0.40966796875
8.467,332,3147,1518,2981,9.0,27.0,20.0,73.79150390625,34.85107421875,-47.058101654052734,-2.0938720703125,0.34765625,0.5460205078125
8.476,331,3147,1494,2827,9.0,27.0,20.0,-86.73094940185547,65.24658203125,-43.518062591552734,-2.0938720703125,0.34765625,0.5460205078125
8.489,327,3147,1427,2599,9.0,27.0,20.0,-52.734371185302734,39.61181640625,8.056640625,-1.8212890625,0.20849609375,0.3941650390625
8.514,323,3147,1336,2512,9.0,27.0,20.0,-52.734371185302734,39.61181640625,8.056640625,-1.5794677734375,0.37939453125,0.1409912109375
8.514,306,3147,1251,2266,9.0,27.0,20.0,-6.164550304412842,28.869626998901367,34.24072265625,-1.5794677734375,0.37939453125,0.1409912109375
8.519,321,3147,1217,1800,9.0,27.0,20.0,-1.0986328125,20.629880905151367,56.457515716552734,-1.023193359375,0.35498046875,0.0819091796875
8.529,344,3147,1183,1220,9.0,27.0,20.0,-11.108397483825684,12.634276390075684,76.47705078125,-1.023193359375,0.35498046875,0.0819091796875
8.535,332,3147,1198,647,9.0,27.0,20.0,-7.019042491912842,9.09423828125,85.87645721435547,-0.6917724609375,0.2027587890625,0.2138671875
8.551,315,2060,1172,332,6.0,31.0,20.0,19.34814453125,14.465331077575684,75.68359375,0.0645751953125,-0.226806640625,0.2510986328125
8.557,308,1531,1122,332,6.0,31.0,20.0,54.504390716552734,29.602048873901367,47.180171966552734,0.0645751953125,-0.226806640625,0.2510986328125
8.565,309,1404,1117,327,6.0,31.0,20.0,80.74950408935547,48.645015716552734,11.962889671325684,0.3126220703125,-0.2105712890625,0.1370849609375
8.580,310,800,1097,328,6.0,31.0,20.0,89.72167205810547,59.570308685302734,-18.310546875,0.0281982421875,0.2930908203125,0.283203125
8.587,308,547,1070,327,6.0,31.0,20.0,76.66015625,55.053707122802734,-40.771480560302734,0.0281982421875,0.2930908203125,0.283203125
8.612,308,571,1067,324,6.0,31.0,20.0,50.842281341552734,45.166011810302734,-52.062984466552734,-0.3773193359375,0.5478515625,0.1419677734375
8.614,313,625,1063,324,6.0,31.0,20.0,26.245115280151367,39.97802734375,-46.874996185302734,-0.7235107421875,0.669189453125,-0.3427734375
8.623,312,639,1076,321,6.0,31.0,20.0,2.50244140625,33.3251953125,-27.954099655151367,-0.7235107421875,0.669189453125,-0.3427734375
8.625,306,576,1054,323,6.0,31.0,20.0,-16.78466796875,21.545408248901367,-5.0048828125,-0.762939453125,0.452880859375,-0.3287353515625
