time,compression0,compression1,compression2,compression3,magn_x,magn_y,magn_z,gyro_x,gyro_y,gyro_z,accel_x,accel_y,accel_z
0.004,327,3147,1424,371,-7.0,34.0,16.0,0.7934569716453552,-23.010251998901367,-10.131834983825684,-0.7318115234375,0.6151123046875,-0.1851806640625
0.022,327,3147,1434,431,-7.0,34.0,16.0,-1.4648436307907104,-22.705076217651367,-9.27734375,-0.7261962890625,0.61083984375,-0.181640625
0.026,328,3147,1428,495,-7.0,34.0,16.0,-3.234863042831421,-22.277830123901367,-9.21630859375,-0.718017578125,0.6119384765625,-0.1783447265625
0.036,328,3147,1393,552,-7.0,34.0,16.0,-3.234863042831421,-22.277830123901367,-9.21630859375,-0.718017578125,0.6119384765625,-0.1783447265625
0.047,328,3147,1397,649,-7.0,34.0,16.0,-10.437010765075684,-19.775390625,-9.765625,-0.682373046875,0.6309814453125,-0.179443359375
0.055,328,3147,1416,725,-7.0,34.0,16.0,-10.437010765075684,-19.775390625,-9.765625,-0.66650390625,0.62841796875,-0.1595458984375
0.063,322,3147,1401,790,-7.0,34.0,16.0,-17.9443359375,-17.51708984375,-10.742186546325684,-0.66650390625,0.62841796875,-0.1595458984375
0.097,330,3147,1422,922,-7.0,34.0,16.0,-32.28759765625,-14.465331077575684,-14.404295921325684,-0.59033203125,0.537353515625,-0.0972900390625
0.097,329,3147,1413,1153,-7.0,34.0,16.0,-32.28759765625,-14.465331077575684,-14.404295921325684,-0.4970703125,0.4871826171875,-0.089599609375
0.097,330,3147,1357,1387,-4.0,36.0,16.0,-37.29248046875,-14.099120140075684,-17.51708984375,-0.4970703125,0.4871826171875,-0.089599609375
0.108,325,3147,1149,1845,-4.0,36.0,16.0,-44.250484466552734,-17.63916015625,-26.184080123901367,-0.2181396484375,0.36865234375,-0.0975341796875
0.127,328,3147,1078,2087,-4.0,36.0,16.0,-44.250484466552734,-17.63916015625,-26.184080123901367,-0.0927734375,0.3165283203125,-0.1075439453125
0.129,324,3147,1000,2337,-4.0,36.0,16.0,-43.151851654052734,-21.362302780151367,-28.503416061401367,-0.0927734375,0.3165283203125,-0.1075439453125
0.137,328,3147,1004,2847,-4.0,36.0,16.0,-42.419429779052734,-30.639646530151367,-25.207517623901367,0.1156005859375,0.361572265625,-0.0272216796875
0.149,334,3147,1103,3147,-4.0,36.0,16.0,-42.419429779052734,-30.639646530151367,-25.207517623901367,0.1622314453125,0.4053955078125,-0.013427734375
0.153,344,3147,1173,3147,-4.0,36.0,16.0,-47.119136810302734,-37.90283203125,-27.832029342651367,0.1622314453125,0.4053955078125,-0.013427734375
0.167,362,3147,1434,3147,-4.0,36.0,16.0,-64.453125,-64.88037109375,-46.264644622802734,-0.4312744140625,0.53759765625,-0.0382080078125
0.175,363,3147,1655,3147,-4.0,36.0,16.0,-64.453125,-64.88037109375,-46.264644622802734,-0.9737548828125,0.4527587890625,-0.1427001953125
0.193,371,3147,1761,3147,-4.0,36.0,16.0,-85.57128143310547,-69.2138671875,-54.931636810302734,-0.9737548828125,0.4527587890625,-0.1427001953125
0.204,383,3147,1946,3147,-3.0,36.0,21.0,-125.61034393310547,-36.4990234375,-60.485836029052734,-1.6060791015625,0.220947265625,-0.1378173828125
0.205,371,3147,2047,3147,-3.0,36.0,21.0,-125.61034393310547,-36.4990234375,-60.485836029052734,-1.6435546875,0.6065673828125,0.051025390625
0.213,388,3147,2124,3147,-3.0,36.0,21.0,-121.94823455810547,-19.8974609375,-48.522945404052734,-1.6435546875,0.6065673828125,0.051025390625
0.227,388,3147,2194,3147,-3.0,36.0,21.0,-74.89013671875,-2.746581792831421,-16.66259765625,-1.6470947265625,1.2900390625,0.0584716796875
0.235,390,3147,2261,3147,-3.0,36.0,21.0,-74.89013671875,-2.746581792831421,-16.66259765625,-1.79541015625,1.12646484375,0.0892333984375
0.243,388,3147,2253,3147,-3.0,36.0,21.0,-61.401363372802734,-1.2817381620407104,-18.73779296875,-1.79541015625,1.12646484375,0.0892333984375
0.262,390,3147,2087,3147,-3.0,36.0,21.0,-55.969234466552734,-2.807616949081421,-21.301267623901367,-1.4676513671875,0.770263671875,0.0074462890625
0.265,386,3147,2047,3147,-3.0,36.0,21.0,-38.39111328125,-2.3193359375,-19.287109375,-1.4676513671875,0.770263671875,0.0074462890625
0.274,385,3147,2018,3147,-3.0,36.0,21.0,-10.314940452575684,-4.2724609375,-28.442380905151367,-0.98974609375,0.5389404296875,0.0084228515625
0.295,385,3147,1973,3147,2.0,32.0,20.0,11.169432640075684,-9.765625,-45.288082122802734,-0.75439453125,0.888916015625,-0.1900634765625
0.295,387,3147,2037,3147,2.0,32.0,20.0,17.51708984375,-13.061522483825684,-58.837886810302734,-0.75439453125,0.888916015625,-0.1900634765625
0.309,387,3147,2087,3147,2.0,32.0,20.0,3.723144292831421,-13.000487327575684,-66.89453125,-1.0233154296875,0.95751953125,-0.224365234375
0.317,385,3147,2113,3147,2.0,32.0,20.0,-24.536130905151367,-11.108397483825684,-63.659664154052734,-1.824951171875,1.0323486328125,-0.221923828125
0.329,382,3147,2068,3147,2.0,32.0,20.0,-50.964351654052734,-6.347655773162842,-46.630855560302734,-1.824951171875,1.0323486328125,-0.221923828125
0.334,388,3147,2035,3147,2.0,32.0,20.0,-63.110347747802734,-0.2441406100988388,-25.634763717651367,-1.78369140625,0.7645263671875,-0.075927734375
0.347,385,3147,1951,3147,2.0,32.0,20.0,-58.105464935302734,2.50244140625,-9.70458984375,-1.233154296875,0.3936767578125,0.318115234375
0.356,382,3147,1904,3147,2.0,32.0,20.0,-38.75732421875,3.356933355331421,1.7089842557907104,-1.233154296875,0.3936767578125,0.318115234375
0.364,378,3147,1865,3147,2.0,32.0,20.0,-13.122557640075684,8.60595703125,15.197752952575684,-1.08056640625,0.3602294921875,0.4071044921875
0.377,375,3147,1806,2691,2.0,32.0,20.0,13.671874046325684,22.521970748901367,37.2314453125,-0.983154296875,0.188720703125,0.42626953125
0.397,371,3147,1792,2445,0.0,34.0,20.0,39.794921875,44.006343841552734,64.51416015625,-0.983154296875,0.188720703125,0.42626953125
0.398,361,3147,1739,2271,0.0,34.0,20.0,59.265132904052734,66.0400390625,86.66991424560547,-0.8544921875,-0.023193359375,0.384521484375
0.408,369,3147,1533,1914,0.0,34.0,20.0,70.86181640625,77.45361328125,91.12548065185547,-0.150390625,-0.1934814453125,0.1336669921875
0.416,360,3147,1506,1739,0.0,34.0,20.0,80.26123046875,73.3642578125,70.068359375,-0.150390625,-0.1934814453125,0.1336669921875
0.435,361,3147,1509,1529,0.0,34.0,20.0,89.41649627685547,56.579586029052734,33.02001953125,-0.0167236328125,0.276611328125,-0.0341796875
0.438,361,3147,1422,1003,0.0,34.0,20.0,86.66991424560547,31.677244186401367,-2.197265625,-0.39794921875,0.7530517578125,-0.3194580078125
0.446,359,3147,1411,809,0.0,34.0,20.0,62.133785247802734,10.803221702575684,-24.475095748901367,-0.39794921875,0.7530517578125,-0.3194580078125
0.453,351,3147,1359,571,0.0,34.0,20.0,29.724119186401367,4.8828125,-32.2265625,-0.5567626953125,0.4703369140625,-0.3680419921875
0.467,356,3147,1316,446,0.0,34.0,20.0,12.084959983825684,9.70458984375,-28.747556686401367,-0.5556640625,0.345703125,-0.2843017578125
0.476,356,3147,1341,416,0.0,34.0,20.0,16.845703125,15.502928733825684,-19.775390625,-0.5556640625,0.345703125,-0.2843017578125
0.501,354,3147,1351,400,-3.0,33.0,16.0,28.991697311401367,16.7236328125,-12.268065452575684,-0.5789794921875,0.52197265625,-0.2713623046875
0.501,351,3040,1357,388,-3.0,33.0,16.0,28.259275436401367,12.084959983825684,-8.9111328125,-0.6331787109375,0.6470947265625,-0.2388916015625
0.505,351,2888,1336,391,-3.0,33.0,16.0,12.207030296325684,4.7607421875,-8.6669921875,-0.682373046875,0.644775390625,-0.1912841796875
0.538,348,2797,1303,389,-3.0,33.0,16.0,-8.056640625,-0.9765624403953552,-9.033203125,-0.7213134765625,0.5777587890625,-0.133544921875
0.538,347,2636,1251,385,-3.0,33.0,16.0,-22.155759811401367,-3.845214605331421,-7.690429210662842,-0.758544921875,0.5093994140625,-0.0689697265625
0.542,348,2601,1224,361,-3.0,33.0,16.0,-25.695798873901367,-5.126952648162842,-4.69970703125,-0.7930908203125,0.4482421875,-0.010986328125
0.545,344,2579,1201,383,-3.0,33.0,16.0,-19.59228515625,-5.737304210662842,-1.4648436307907104,-0.815185546875,0.4012451171875,0.03369140625
0.553,338,2653,1188,373,-3.0,33.0,16.0,-7.812499523162842,-5.554198741912842,1.8920897245407104,-0.81982421875,0.3902587890625,0.0631103515625
0.566,344,2722,1162,375,-3.0,33.0,16.0,4.45556640625,-4.33349609375,5.798339366912842,-0.8057861328125,0.4171142578125,0.072021484375
0.589,342,2769,1108,376,-3.0,33.0,16.0,12.390135765075684,-2.44140625,9.8876953125,-0.7685546875,0.455322265625,0.05712890625
0.631,344,2870,1063,375,-1.0,33.0,16.0,13.793944358825684,-0.1220703050494194,13.610838890075684,-0.7149658203125,0.47900390625,0.01513671875
0.631,343,3141,986,373,-1.0,33.0,16.0,10.192870140075684,2.746581792831421,17.15087890625,-0.66455078125,0.4766845703125,-0.04052734375
0.631,344,3147,939,376,-1.0,33.0,16.0,5.249022960662842,5.432128429412842,21.301267623901367,-0.62451171875,0.437255859375,-0.0814208984375
0.631,338,3147,951,654,-1.0,33.0,16.0,2.746581792831421,6.408690929412842,26.794431686401367,-0.5782470703125,0.3427734375,-0.0843505859375
0.635,332,3147,883,1157,-1.0,33.0,16.0,4.2724609375,4.638671875,32.28759765625,-0.503662109375,0.212158203125,-0.04296875
0.645,328,3147,858,1534,-1.0,33.0,16.0,7.385253429412842,0.9155272841453552,35.5224609375,-0.3681640625,0.1168212890625,0.0118408203125
0.646,324,3147,787,1943,-1.0,33.0,16.0,8.11767578125,-4.08935546875,35.46142578125,-0.1590576171875,0.1014404296875,0.0263671875
0.661,321,3147,815,2633,-1.0,33.0,16.0,4.2724609375,-11.901854515075684,31.921384811401367,0.0810546875,0.169189453125,-0.010009765625
0.664,322,3147,897,3061,-1.0,33.0,16.0,-1.7089842557907104,-23.315427780151367,27.038572311401367,0.3575439453125,0.29541015625,-0.08203125
0.672,334,3147,1050,3147,-1.0,33.0,16.0,-8.85009765625,-35.94970703125,19.71435546875,0.593017578125,0.4100341796875,-0.128173828125
0.686,363,3147,1716,3147,-2.0,33.0,16.0,-29.479978561401367,-46.020503997802734,7.080077648162842,0.5257568359375,0.521728515625,-0.0159912109375
0.712,373,3147,1913,3147,-2.0,33.0,16.0,-70.37353515625,-50.231929779052734,-7.507323741912842,0.0244140625,0.6209716796875,0.0841064453125
0.713,381,3147,2086,3147,-2.0,33.0,16.0,-111.51122283935547,-44.616695404052734,-24.108884811401367,-0.7484130859375,0.51904296875,-0.1239013671875
0.716,389,3147,2263,3147,-2.0,33.0,16.0,-134.09423828125,-30.883787155151367,-46.874996185302734,-1.468505859375,0.2996826171875,-0.316650390625
0.725,391,3147,2398,3147,-2.0,33.0,16.0,-139.2822265625,-19.47021484375,-60.119625091552734,-1.8538818359375,0.466796875,-0.1356201171875
0.742,406,3147,2635,3147,-2.0,33.0,16.0,-134.1552734375,-14.282225608825684,-44.555660247802734,-1.905517578125,1.0704345703125,0.171630859375
0.746,411,3147,2825,3147,-2.0,33.0,16.0,-122.43651580810547,-9.33837890625,-13.122557640075684,-2.2890625,1.851806640625,0.28857421875
0.754,404,3147,2904,3147,-2.0,33.0,16.0,-111.75536346435547,-0.54931640625,21.301267623901367,-2.864013671875,2.3984375,0.2421875
0.763,408,3147,2876,3147,-2.0,33.0,16.0,-79.1015625,10.742186546325684,37.65869140625,-2.4053955078125,1.3480224609375,0.24658203125
0.777,404,3147,2616,3147,1.0,32.0,16.0,-20.263669967651367,15.991209983825684,-0.1831054538488388,-1.393310546875,-0.1982421875,0.5184326171875
0.785,401,3147,2510,3147,1.0,32.0,16.0,23.071287155151367,16.11328125,-47.607418060302734,-0.84912109375,-0.2274169921875,0.5247802734375
0.807,400,3147,2498,3147,1.0,32.0,16.0,56.213375091552734,19.71435546875,-57.922359466552734,-0.776611328125,0.560546875,-0.04638671875
0.807,401,3147,2526,3147,1.0,32.0,16.0,76.47705078125,27.465818405151367,-51.696773529052734,-1.1044921875,1.357177734375,-0.59326171875
0.814,402,3147,2504,3147,1.0,32.0,16.0,52.490230560302734,31.982419967651367,-43.029781341552734,-1.5723876953125,1.805908203125,-0.798828125
0.827,402,3147,2471,3147,1.0,32.0,16.0,-7.751464366912842,23.986814498901367,-37.17041015625,-1.860107421875,1.6881103515625,-0.6636962890625
0.846,400,3147,2379,3147,1.0,32.0,16.0,-65.49072265625,10.314940452575684,-33.75244140625,-1.8504638671875,1.1387939453125,-0.3419189453125
0.849,399,3147,2277,3147,1.0,32.0,16.0,-87.58544158935547,0.8544921278953552,-31.127927780151367,-1.65673828125,0.5201416015625,0.0029296875
0.852,390,3147,2178,3147,1.0,32.0,16.0,-87.58544158935547,0.8544921278953552,-31.127927780151367,-1.442626953125,0.1890869140625,0.285888671875
0.866,385,3147,1943,3147,1.0,32.0,16.0,-33.935546875,-10.559081077575684,-14.465331077575684,-1.21923828125,0.1939697265625,0.4609375
0.874,378,3147,1848,2695,0.0,32.0,16.0,10.070799827575684,-8.36181640625,2.746581792831421,-0.9639892578125,0.2457275390625,0.481689453125
0.883,376,3147,1727,2321,0.0,32.0,16.0,10.070799827575684,-8.36181640625,2.746581792831421,-0.7374267578125,0.1669921875,0.3973388671875
0.910,369,3147,1616,1627,0.0,32.0,16.0,64.94140625,20.202634811401367,19.8974609375,-0.5482177734375,-0.042724609375,0.3082275390625
0.910,361,3147,1472,1317,0.0,32.0,16.0,71.044921875,30.883787155151367,14.709471702575684,-0.364990234375,-0.30615234375,0.2091064453125
0.912,356,3147,1345,1079,0.0,32.0,16.0,71.044921875,30.883787155151367,14.709471702575684,-0.2281494140625,-0.3909912109375,0.1121826171875
0.926,346,3147,1131,497,0.0,32.0,16.0,87.40233612060547,33.02001953125,-2.3193359375,-0.2200927734375,-0.2164306640625,0.0482177734375
0.952,346,3058,1024,382,0.0,32.0,16.0,99.30419158935547,25.878904342651367,-8.11767578125,-0.3414306640625,0.023193359375,-0.060546875
0.953,337,2424,906,363,0.0,32.0,16.0,99.30419158935547,25.878904342651367,-8.11767578125,-0.4720458984375,0.1846923828125,-0.1910400390625
0.956,330,1440,855,356,0.0,32.0,16.0,106.07909393310547,5.920409679412842,-26.123044967651367,-0.55419921875,0.2823486328125,-0.2176513671875
0.964,327,906,858,363,0.0,32.0,16.0,98.93798065185547,2.868652105331421,-25.329587936401367,-0.5997314453125,0.418212890625,-0.1851806640625
0.972,322,710,815,344,0.0,32.0,16.0,98.93798065185547,2.868652105331421,-25.329587936401367,-0.629638671875,0.6787109375,-0.1488037109375
0.986,318,737,800,332,0.0,32.0,16.0,104.55321502685547,7.629394054412842,5.126952648162842,-0.6522216796875,0.888427734375,-0.114990234375
0.995,316,638,811,332,0.0,32.0,16.0,100.28075408935547,4.33349609375,6.164550304412842,-0.62548828125,0.810302734375,-0.1260986328125
1.013,317,649,816,332,0.0,32.0,16.0,100.28075408935547,4.33349609375,6.164550304412842,-0.5955810546875,0.62548828125,-0.1522216796875
1.016,318,667,845,330,0.0,32.0,16.0,75.3173828125,-6.408690929412842,-21.728513717651367,-0.6190185546875,0.5616455078125,-0.1722412109375
1.024,318,673,868,330,0.0,32.0,16.0,66.22314453125,-9.21630859375,-22.033689498901367,-0.6546630859375,0.5751953125,-0.1959228515625
1.032,316,678,826,330,0.0,32.0,16.0,66.22314453125,-9.21630859375,-22.033689498901367,-0.681884765625,0.598876953125,-0.2152099609375
1.059,316,682,844,327,0.0,32.0,16.0,48.889156341552734,-3.906249761581421,-5.493163585662842,-0.7000732421875,0.5706787109375,-0.215087890625
1.061,316,661,855,328,0.0,32.0,16.0,37.65869140625,-0.8544921278953552,0.30517578125,-0.7001953125,0.4674072265625,-0.1759033203125
1.063,316,673,883,326,0.0,32.0,16.0,37.65869140625,-0.8544921278953552,0.30517578125,-0.7001953125,0.4674072265625,-0.1759033203125
1.076,316,620,948,328,-1.0,32.0,14.0,23.010251998901367,1.4038084745407104,5.310058116912842,-0.5765380859375,0.3173828125,-0.0902099609375
1.084,317,710,966,330,-1.0,32.0,14.0,23.010251998901367,1.4038084745407104,5.310058116912842,-0.5130615234375,0.2802734375,-0.103759765625
1.092,316,766,1024,330,-1.0,32.0,14.0,7.995604991912842,0.6103515625,0.7324218153953552,-0.5130615234375,0.2802734375,-0.103759765625
1.115,322,1149,1003,338,-1.0,32.0,14.0,-28.442380905151367,-9.09423828125,-10.498045921325684,-0.62060546875,0.1978759765625,-0.0574951171875
1.115,323,1557,968,344,-1.0,32.0,14.0,-28.442380905151367,-9.09423828125,-10.498045921325684,-0.6436767578125,0.290771484375,-0.0679931640625
1.122,323,2061,966,351,-1.0,32.0,14.0,-22.583005905151367,-15.136717796325684,-4.39453125,-0.6436767578125,0.290771484375,-0.0679931640625
1.136,324,2808,864,346,-1.0,32.0,14.0,4.8828125,-21.728513717651367,20.385740280151367,-0.61669921875,0.55078125,0.0067138671875
1.153,318,3115,766,345,-1.0,32.0,14.0,4.8828125,-21.728513717651367,20.385740280151367,-0.529541015625,0.647216796875,0.0107421875
1.167,321,3147,808,545,-1.0,32.0,14.0,14.160155296325684,-22.216794967651367,31.372068405151367,-0.529541015625,0.647216796875,0.0107421875
1.168,316,3147,711,1018,-1.0,32.0,14.0,-4.82177734375,-22.155759811401367,33.63037109375,-0.3873291015625,0.5384521484375,-0.109619140625
1.174,315,3147,713,1490,-1.0,32.0,20.0,-4.82177734375,-22.155759811401367,33.63037109375,-0.3428955078125,0.329345703125,-0.052978515625
1.182,316,3147,689,1855,-1.0,32.0,20.0,-28.137205123901367,-25.878904342651367,28.869626998901367,-0.3428955078125,0.329345703125,-0.052978515625
1.196,324,3147,841,2465,-1.0,32.0,20.0,-54.809566497802734,-42.663570404052734,25.817869186401367,-0.167724609375,0.035400390625,0.286865234375
1.217,336,3147,1183,2921,-1.0,32.0,20.0,-54.809566497802734,-42.663570404052734,25.817869186401367,-0.059326171875,0.220947265625,0.33935546875
1.218,351,3147,1541,3147,-1.0,32.0,20.0,-58.898921966552734,-44.555660247802734,27.770994186401367,-0.059326171875,0.220947265625,0.33935546875
1.226,364,3147,1853,3147,-1.0,32.0,20.0,-82.88573455810547,-19.83642578125,3.906249761581421,-0.3575439453125,0.0924072265625,-0.59326171875
1.234,377,3147,1973,3147,-1.0,32.0,20.0,-82.88573455810547,-19.83642578125,3.906249761581421,-1.001220703125,-0.3680419921875,-0.64404296875
1.253,387,3147,2037,3147,-1.0,32.0,20.0,-116.94335174560547,-3.662109136581421,-34.11865234375,-1.001220703125,-0.3680419921875,-0.64404296875
1.256,383,3147,2223,3147,-1.0,32.0,20.0,-123.90135955810547,-15.197752952575684,-43.640132904052734,-1.9512939453125,0.8306884765625,0.4462890625
1.267,388,3147,2421,3147,-1.0,32.0,20.0,-123.90135955810547,-15.197752952575684,-43.640132904052734,-1.8790283203125,2.0054931640625,0.359130859375
1.275,388,3147,2557,3147,1.0,33.0,14.0,-94.66551971435547,-19.1650390625,-7.995604991912842,-1.8790283203125,2.0054931640625,0.359130859375
1.286,390,3147,2598,3147,1.0,33.0,14.0,-78.857421875,-11.535643577575684,10.131834983825684,-2.4443359375,1.95166015625,0.14599609375
1.294,387,3147,2492,3147,1.0,33.0,14.0,-86.66991424560547,-2.13623046875,12.878417015075684,-2.4443359375,1.95166015625,0.14599609375
1.302,387,3147,2407,3147,1.0,33.0,14.0,-80.32225799560547,7.141112804412842,7.019042491912842,-1.9580078125,0.5418701171875,0.4515380859375
1.322,387,3147,2280,3147,1.0,33.0,14.0,-30.822751998901367,17.88330078125,-20.324705123901367,-0.8353271484375,0.4315185546875,0.0677490234375
1.324,388,3147,2319,3147,1.0,33.0,14.0,36.9873046875,26.062009811401367,-47.485347747802734,-0.8353271484375,0.4315185546875,0.0677490234375
1.334,387,3147,2292,3147,1.0,33.0,14.0,74.15771484375,25.634763717651367,-60.241695404052734,-1.0228271484375,1.2969970703125,-0.5633544921875
1.371,383,3147,2238,3147,1.0,33.0,14.0,47.729488372802734,20.202634811401367,-62.561031341552734,-2.1566162109375,1.3472900390625,-0.6881103515625
1.371,385,3147,2210,3147,1.0,33.0,14.0,-16.9677734375,14.221190452575684,-53.527828216552734,-2.1566162109375,1.3472900390625,-0.6881103515625
1.371,383,3147,2130,2990,1.0,33.0,14.0,-69.7021484375,6.286620616912842,-40.405269622802734,-2.14306640625,0.779541015625,-0.302978515625
1.376,373,3147,1880,2504,5.0,31.0,23.0,-86.05956268310547,-0.54931640625,-27.648923873901367,-1.433349609375,0.2779541015625,0.303466796875
1.388,369,3147,1711,2144,5.0,31.0,23.0,-72.44873046875,-3.417968511581421,-12.939452171325684,-1.433349609375,0.2779541015625,0.303466796875
1.392,363,3147,1572,1889,5.0,31.0,23.0,-45.837398529052734,-0.7324218153953552,7.385253429412842,-1.138671875,0.2965087890625,0.4678955078125
1.421,354,3147,1341,1067,5.0,31.0,23.0,-15.136717796325684,8.97216796875,29.785154342651367,-0.62353515625,-0.156005859375,0.552978515625
1.422,354,3147,1306,858,5.0,31.0,23.0,17.578125,24.536130905151367,44.311519622802734,-0.62353515625,-0.156005859375,0.552978515625
1.422,324,3147,1167,525,5.0,31.0,23.0,48.156734466552734,41.198726654052734,44.738765716552734,-0.3631591796875,-0.4749755859375,0.5762939453125
1.437,336,2843,1163,371,5.0,31.0,23.0,72.998046875,53.283687591552734,32.16552734375,-0.0858154296875,-0.2637939453125,0.263427734375
1.458,334,2521,1146,364,5.0,31.0,23.0,91.12548065185547,57.800289154052734,15.686034202575684,-0.0858154296875,-0.2637939453125,0.263427734375
1.464,333,2310,1064,360,5.0,31.0,23.0,99.73143768310547,52.368160247802734,3.173827886581421,-0.11865234375,0.2322998046875,0.01953125
1.470,329,2048,975,364,3.0,37.0,19.0,94.42137908935547,39.55078125,-8.11767578125,-0.393310546875,0.5140380859375,-0.462646484375
1.486,330,2039,1000,360,3.0,37.0,19.0,74.76806640625,27.099607467651367,-18.310546875,-0.393310546875,0.5140380859375,-0.462646484375
1.487,330,2108,987,361,3.0,37.0,19.0,53.100582122802734,20.568845748901367,-19.4091796875,-0.45703125,0.4395751953125,-0.534912109375
1.501,327,2089,1003,354,3.0,37.0,19.0,49.316402435302734,18.85986328125,-9.70458984375,-0.494384765625,0.461669921875,-0.5537109375
1.505,328,2104,1009,356,3.0,37.0,19.0,60.302730560302734,14.099120140075684,2.44140625,-0.5474853515625,0.589111328125,-0.47802734375
1.529,327,2083,1055,354,3.0,37.0,19.0,64.697265625,2.13623046875,9.8876953125,-0.591552734375,0.6951904296875,-0.3121337890625
1.529,327,2171,1118,356,3.0,37.0,19.0,54.443355560302734,-12.207030296325684,10.498045921325684,-0.6025390625,0.6790771484375,-0.1436767578125
1.535,328,2161,1125,349,3.0,37.0,19.0,38.87939453125,-22.460935592651367,5.310058116912842,-0.6160888671875,0.5802001953125,-0.03076171875
1.543,328,2228,1163,354,3.0,37.0,19.0,26.611326217651367,-27.648923873901367,-2.929687261581421,-0.6817626953125,0.48388671875,0.0318603515625
1.560,328,2280,1182,353,3.0,37.0,19.0,18.310546875,-29.724119186401367,-10.192870140075684,-0.7791748046875,0.4207763671875,0.0584716796875
1.564,328,2230,1175,360,1.0,34.0,15.0,12.084959983825684,-28.930662155151367,-13.122557640075684,-0.8604736328125,0.39208984375,0.0491943359375
1.572,328,2225,1183,354,1.0,34.0,15.0,7.751464366912842,-24.597166061401367,-10.864256858825684,-0.909912109375,0.3983154296875,0.0135498046875
1.586,328,2340,1173,354,1.0,34.0,15.0,4.2724609375,-18.24951171875,-6.225585460662842,-0.9375,0.4173583984375,-0.0164794921875
1.595,325,2478,1185,359,1.0,34.0,15.0,-0.6713866591453552,-12.573241233825684,-2.563476324081421,-0.9473876953125,0.4036865234375,-0.023193359375
1.602,328,2634,1198,359,1.0,34.0,15.0,-7.324218273162842,-8.23974609375,-0.7324218153953552,-0.939697265625,0.3336181640625,-0.0213623046875
1.630,324,2821,1198,359,1.0,34.0,15.0,-12.756346702575684,-4.5166015625,0.8544921278953552,-0.9156494140625,0.2427978515625,-0.033203125
1.630,328,2974,1184,360,1.0,34.0,15.0,-14.099120140075684,-1.6479490995407104,4.2724609375,-0.8714599609375,0.203857421875,-0.065185546875
1.633,328,3058,1191,359,1.0,34.0,15.0,-12.145995140075684,-0.54931640625,10.253905296325684,-0.80712890625,0.2481689453125,-0.095947265625
1.646,330,3147,1156,371,1.0,34.0,15.0,-11.535643577575684,-1.5869139432907104,17.578125,-0.7308349609375,0.3194580078125,-0.1124267578125
1.660,330,3147,1116,519,1.0,34.0,15.0,-14.160155296325684,-4.150390625,24.414060592651367,-0.656982421875,0.3460693359375,-0.105224609375
1.665,328,3147,1094,674,2.0,34.0,18.0,-18.73779296875,-7.812499523162842,30.273435592651367,-0.578125,0.32080078125,-0.06591796875
1.676,330,3147,1050,1123,2.0,34.0,18.0,-23.315427780151367,-12.023924827575684,35.2783203125,-0.4703369140625,0.2757568359375,-0.0252685546875
1.684,329,3147,1000,1494,2.0,34.0,18.0,-25.085447311401367,-15.808104515075684,39.1845703125,-0.3441162109375,0.24853515625,-0.0098876953125
1.693,330,3147,1050,1980,2.0,34.0,18.0,-21.362302780151367,-19.775390625,41.076656341552734,-0.19189453125,0.2703857421875,0.0067138671875
1.706,336,3147,1104,2664,2.0,34.0,18.0,-16.54052734375,-25.146482467651367,39.12353515625,-0.0126953125,0.3446044921875,0.015869140625
1.729,348,3147,1373,3118,2.0,34.0,18.0,-24.597166061401367,-28.442380905151367,33.14208984375,0.0892333984375,0.4676513671875,0.0467529296875
1.730,359,3147,1546,3147,2.0,34.0,18.0,-55.969234466552734,-25.756834030151367,27.954099655151367,0.0853271484375,0.5496826171875,0.123046875
1.736,364,3147,1757,3147,2.0,34.0,18.0,-97.65624237060547,-20.01953125,22.705076217651367,-0.037109375,0.387451171875,0.087158203125
1.744,365,3147,1882,3147,2.0,34.0,18.0,-121.33788299560547,-15.624999046325684,7.019042491912842,-0.3690185546875,-0.04736328125,-0.075927734375
1.752,375,3147,1968,3147,2.0,34.0,18.0,-114.50194549560547,-17.27294921875,-20.996091842651367,-0.8486328125,-0.41845703125,-0.075927734375
1.767,388,3147,2104,3147,1.0,29.0,14.0,-83.98436737060547,-27.832029342651367,-43.579097747802734,-1.2708740234375,-0.2403564453125,0.1029052734375
1.774,390,3147,2213,3147,1.0,29.0,14.0,-49.194332122802734,-39.6728515625,-41.931148529052734,-1.5335693359375,0.66162109375,0.220947265625
1.782,388,3147,2359,3147,1.0,29.0,14.0,-38.39111328125,-41.687007904052734,-20.446775436401367,-1.72607421875,1.7044677734375,0.126220703125
1.802,390,3147,2529,3147,1.0,29.0,14.0,-54.565425872802734,-30.761716842651367,-0.6713866591453552,-2.046630859375,2.1671142578125,-0.0238037109375
1.804,388,3147,2490,3147,1.0,29.0,14.0,-77.45361328125,-19.10400390625,8.11767578125,-2.528076171875,1.977294921875,0.088623046875
1.812,399,3147,2416,3147,1.0,29.0,14.0,-85.81542205810547,-15.075682640075684,12.878417015075684,-2.4105224609375,0.9580078125,0.360595703125
1.831,379,3147,2242,3147,1.0,29.0,14.0,-53.161617279052734,-10.986327171325684,2.44140625,-1.5216064453125,-0.1781005859375,0.6544189453125
1.839,390,3147,2207,3147,1.0,29.0,14.0,15.686034202575684,0.7324218153953552,-19.4091796875,-0.8548583984375,-0.0457763671875,0.5172119140625
1.842,388,3147,2217,3147,1.0,29.0,14.0,79.2236328125,15.136717796325684,-32.77587890625,-0.7958984375,0.96044921875,-0.140625
1.867,387,3147,2180,3147,5.0,32.0,16.0,88.37889862060547,21.362302780151367,-41.931148529052734,-1.255615234375,1.65771484375,-0.6624755859375
1.870,390,3147,2144,3147,5.0,32.0,16.0,32.65380859375,19.4091796875,-46.203609466552734,-1.864501953125,1.6439208984375,-0.750244140625
1.873,390,3147,2139,3147,5.0,32.0,16.0,-39.00146484375,12.756346702575684,-40.954586029052734,-2.088623046875,1.1495361328125,-0.4754638671875
1.886,387,3147,2138,3147,5.0,32.0,16.0,-79.9560546875,4.5166015625,-31.249998092651367,-1.898193359375,0.610595703125,-0.087890625
1.894,387,3147,2100,3147,5.0,32.0,16.0,-81.97020721435547,-1.220703125,-21.606443405151367,-1.54296875,0.3055419921875,0.2232666015625
1.909,383,3147,2047,3147,5.0,32.0,16.0,-59.387203216552734,-3.173827886581421,-10.742186546325684,-1.244384765625,0.2679443359375,0.4140625
1.916,378,3147,1820,3147,5.0,32.0,16.0,-28.259275436401367,-0.1831054538488388,5.371093273162842,-1.0245361328125,0.3421630859375,0.479736328125
1.933,375,3147,1643,3056,5.0,32.0,16.0,3.356933355331421,8.544921875,23.681638717651367,-0.8056640625,0.3037109375,0.4539794921875
1.933,372,3147,1550,2573,5.0,32.0,16.0,31.311033248901367,21.240232467651367,35.09521484375,-0.58642578125,0.09814453125,0.4127197265625
1.951,363,3147,1427,2076,5.0,32.0,16.0,52.246089935302734,33.69140625,37.04833984375,-0.380615234375,-0.1893310546875,0.3858642578125
1.954,360,3147,1352,1679,2.0,31.0,14.0,67.56591796875,41.015621185302734,30.334470748901367,-0.1968994140625,-0.3878173828125,0.3243408203125
1.968,356,3147,1355,1422,2.0,31.0,14.0,67.56591796875,41.015621185302734,30.334470748901367,-0.0977783203125,-0.2657470703125,0.1883544921875
1.976,348,3147,1262,757,2.0,31.0,14.0,83.67919158935547,30.822751998901367,-3.601073980331421,-0.154296875,0.16357421875,0.013671875
1.984,347,3147,1215,484,2.0,31.0,14.0,75.25634765625,13.916014671325684,-20.812986373901367,-0.31982421875,0.5277099609375,-0.2137451171875
1.992,346,3147,1173,386,2.0,31.0,14.0,75.25634765625,13.916014671325684,-20.812986373901367,-0.474609375,0.57861328125,-0.3787841796875
2.014,334,3121,1132,376,2.0,31.0,14.0,33.69140625,-7.446288585662842,-33.87451171875,-0.5638427734375,0.4796142578125,-0.3502197265625
2.014,338,3102,1160,383,2.0,31.0,14.0,24.780271530151367,-7.507323741912842,-25.268552780151367,-0.5965576171875,0.4288330078125,-0.25732421875
2.022,336,3093,1155,378,2.0,31.0,14.0,24.780271530151367,-7.507323741912842,-25.268552780151367,-0.6025390625,0.434814453125,-0.1845703125
2.037,336,3147,1131,371,2.0,31.0,14.0,36.376953125,-5.981444835662842,-6.225585460662842,-0.6182861328125,0.463623046875,-0.080810546875
2.045,337,3147,1202,376,2.0,31.0,14.0,33.02001953125,-10.253905296325684,-4.45556640625,-0.6529541015625,0.51123046875,0.0404052734375
2.053,338,3147,1268,402,1.0,31.0,19.0,33.02001953125,-10.253905296325684,-4.45556640625,-0.69482421875,0.5533447265625,0.11669921875
2.074,338,3147,1340,433,1.0,31.0,19.0,13.305663108825684,-20.324705123901367,-9.27734375,-0.7462158203125,0.5460205078125,0.1268310546875
2.077,347,3147,1351,430,1.0,31.0,19.0,4.7607421875,-21.789548873901367,-13.610838890075684,-0.8115234375,0.485107421875,0.0946044921875
2.082,338,3147,1382,454,1.0,31.0,19.0,4.7607421875,-21.789548873901367,-13.610838890075684,-0.87158203125,0.41943359375,0.0592041015625
2.096,338,3147,1399,438,1.0,31.0,19.0,-2.624511480331421,-14.465331077575684,-15.319823265075684,-0.9117431640625,0.3883056640625,0.04443359375
2.111,338,3147,1416,445,1.0,31.0,19.0,-3.173827886581421,-8.9111328125,-11.352538108825684,-0.929443359375,0.377197265625,0.0560302734375
2.139,348,3147,1428,430,1.0,31.0,19.0,-3.173827886581421,-8.9111328125,-11.352538108825684,-0.9315185546875,0.3477783203125,0.08203125
2.139,336,3147,1447,470,1.0,31.0,19.0,-8.85009765625,-1.7700194120407104,-1.9531248807907104,-0.9229736328125,0.2921142578125,0.0938720703125
2.140,338,3147,1450,508,1.0,31.0,19.0,-11.169432640075684,1.15966796875,2.807616949081421,-0.90087890625,0.2452392578125,0.074462890625
2.142,342,3147,1447,561,1.0,31.0,19.0,-11.169432640075684,1.15966796875,2.807616949081421,-0.8702392578125,0.2476806640625,0.044921875
2.157,338,3147,1404,630,3.0,35.0,18.0,-7.995604991912842,7.751464366912842,15.563963890075684,-0.8363037109375,0.3035888671875,0.0247802734375
2.177,338,3147,1398,704,3.0,35.0,18.0,-5.615233898162842,9.94873046875,23.559568405151367,-0.787109375,0.36181640625,0.0145263671875
2.177,338,3147,1313,766,3.0,35.0,18.0,-5.615233898162842,9.94873046875,23.559568405151367,-0.718505859375,0.3565673828125,0.026123046875
2.186,338,3147,1182,1071,3.0,35.0,18.0,-5.615233898162842,13.549803733825684,38.2080078125,-0.6341552734375,0.27294921875,0.0621337890625
2.195,336,3147,1148,1251,3.0,35.0,18.0,-5.615233898162842,13.549803733825684,38.2080078125,-0.52099609375,0.160400390625,0.0872802734375
2.202,334,3147,1095,1529,3.0,35.0,18.0,-4.94384765625,14.892577171325684,44.799800872802734,-0.52099609375,0.160400390625,0.0872802734375
2.217,336,3147,1143,2170,3.0,35.0,18.0,8.056640625,10.986327171325684,55.114742279052734,-0.2410888671875,0.134765625,0.0802001953125
2.246,342,3147,1198,2593,3.0,35.0,18.0,8.056640625,10.986327171325684,55.114742279052734,-0.0887451171875,0.2508544921875,0.1502685546875
2.248,348,3147,1341,2964,3.0,35.0,18.0,12.634276390075684,3.601073980331421,56.640621185302734,-0.0887451171875,0.2508544921875,0.1502685546875
2.248,360,3147,1531,3147,3.0,31.0,17.0,-11.169432640075684,-12.756346702575684,38.6962890625,0.3809814453125,0.4952392578125,0.2027587890625
2.257,361,3147,1615,3147,3.0,31.0,17.0,-11.169432640075684,-12.756346702575684,38.6962890625,0.4732666015625,0.376220703125,0.06787109375
2.263,371,3147,1811,3147,3.0,31.0,17.0,-39.306640625,-16.357421875,16.7236328125,0.4732666015625,0.376220703125,0.06787109375
2.279,378,3147,2005,3147,3.0,31.0,17.0,-74.8291015625,-26.855466842651367,-42.785640716552734,-0.53125,-0.34326171875,-0.3287353515625
2.289,388,3147,2117,3147,3.0,31.0,17.0,-74.8291015625,-26.855466842651367,-42.785640716552734,-1.373046875,-0.113037109375,-0.2557373046875
2.292,398,3147,2281,3147,3.0,31.0,17.0,-60.913082122802734,-36.80419921875,-60.424800872802734,-1.373046875,-0.113037109375,-0.2557373046875
2.307,411,3147,2781,3147,3.0,31.0,17.0,-41.809078216552734,-41.137691497802734,-14.953612327575684,-2.1461181640625,2.0064697265625,0.1077880859375
2.314,413,3147,2911,3147,3.0,31.0,17.0,-41.809078216552734,-41.137691497802734,-14.953612327575684,-2.7987060546875,2.6231689453125,0.222412109375
2.323,411,3147,2911,3147,3.0,31.0,17.0,-66.5283203125,-31.372068405151367,10.009765625,-2.7987060546875,2.6231689453125,0.222412109375
2.349,414,3147,2756,3147,3.0,31.0,17.0,-93.20067596435547,-4.8828125,42.175289154052734,-1.7249755859375,0.0316162109375,0.6812744140625
2.349,411,3147,2756,3147,4.0,32.0,16.0,-93.20067596435547,-4.8828125,42.175289154052734,-0.76025390625,-0.492431640625,0.919189453125
2.353,409,3147,2663,3147,4.0,32.0,16.0,-21.789548873901367,10.437010765075684,6.530761241912842,-0.76025390625,-0.492431640625,0.919189453125
2.366,414,3147,2627,3147,4.0,32.0,16.0,117.49266815185547,26.489255905151367,-40.832515716552734,-0.9344482421875,1.3623046875,-0.7364501953125
2.376,405,3147,2591,3147,4.0,32.0,16.0,117.49266815185547,26.489255905151367,-40.832515716552734,-1.350830078125,1.5361328125,-0.877197265625
2.383,410,3147,2579,3147,4.0,32.0,16.0,79.9560546875,28.869626998901367,-49.621578216552734,-1.350830078125,1.5361328125,-0.877197265625
2.402,404,3147,2498,3147,4.0,32.0,16.0,-80.01708984375,16.9677734375,-47.790523529052734,-1.951904296875,0.919921875,-0.2158203125
2.405,406,3147,2449,3147,4.0,32.0,16.0,-80.01708984375,16.9677734375,-47.790523529052734,-1.9517822265625,0.447998046875,0.02880859375
2.413,400,3147,2328,3147,4.0,32.0,16.0,-110.29051971435547,11.108397483825684,-38.2080078125,-1.9517822265625,0.447998046875,0.02880859375
2.465,388,3147,2128,3147,4.0,32.0,16.0,-99.79247283935547,7.568358898162842,-21.179197311401367,-1.450439453125,0.1343994140625,0.4246826171875
2.466,387,3147,2035,3147,4.0,32.0,16.0,-63.354488372802734,3.845214605331421,-0.7934569716453552,-1.450439453125,0.1343994140625,0.4246826171875
2.466,383,3147,1914,3147,4.0,33.0,17.0,-18.4326171875,2.929687261581421,19.71435546875,-1.1630859375,0.2298583984375,0.5806884765625
2.467,376,3147,1781,2861,4.0,33.0,17.0,22.460935592651367,9.1552734375,39.36767578125,-0.458740234375,0.37841796875,0.5670166015625
2.468,372,3147,1742,2559,4.0,33.0,17.0,49.499507904052734,22.521970748901367,51.696773529052734,-0.458740234375,0.37841796875,0.5670166015625
2.478,372,3147,1623,2238,4.0,33.0,17.0,60.180660247802734,35.15625,46.874996185302734,-0.1278076171875,0.149658203125,0.456787109375
2.487,364,3147,1516,1691,4.0,33.0,17.0,62.988277435302734,38.39111328125,23.437498092651367,0.0797119140625,-0.0360107421875,0.0911865234375
2.494,360,3147,1494,1265,4.0,33.0,17.0,65.4296875,31.494138717651367,-7.690429210662842,0.0797119140625,-0.0360107421875,0.0911865234375
2.502,359,3147,1437,899,4.0,33.0,17.0,64.94140625,18.9208984375,-31.311033248901367,-0.15478515625,0.2550048828125,-0.1173095703125
2.516,348,3147,1313,644,4.0,33.0,17.0,56.884761810302734,7.019042491912842,-39.36767578125,-0.5357666015625,0.4527587890625,-0.424560546875
2.524,348,3147,1287,548,4.0,33.0,17.0,43.823238372802734,2.01416015625,-36.19384765625,-0.5357666015625,0.4527587890625,-0.424560546875
2.550,347,3147,1251,466,4.0,33.0,17.0,28.747556686401367,2.50244140625,-30.212400436401367,-0.589111328125,0.3690185546875,-0.3529052734375
2.555,344,3147,1184,426,3.0,33.0,15.0,15.686034202575684,2.685546636581421,-24.291990280151367,-0.70751953125,0.3494873046875,-0.1451416015625
2.555,343,3147,1172,418,3.0,33.0,15.0,9.765625,0.2441406100988388,-19.22607421875,-0.70751953125,0.3494873046875,-0.1451416015625
2.563,342,3147,1148,411,3.0,33.0,15.0,7.507323741912842,-5.126952648162842,-15.808104515075684,-0.758056640625,0.364013671875,-0.102783203125
2.582,334,3147,1219,424,3.0,33.0,15.0,2.807616949081421,-12.939452171325684,-13.671874046325684,-0.843994140625,0.3829345703125,0.0489501953125
2.585,333,3147,1228,461,3.0,33.0,15.0,-2.746581792831421,-20.935056686401367,-11.108397483825684,-0.843994140625,0.3829345703125,0.0489501953125
2.592,334,3147,1251,455,3.0,33.0,15.0,-4.39453125,-26.000974655151367,-7.690429210662842,-0.8580322265625,0.3819580078125,0.0970458984375
2.607,336,3147,1289,437,3.0,33.0,15.0,-1.7089842557907104,-26.916501998901367,-4.7607421875,-0.8394775390625,0.3687744140625,0.1318359375
2.614,334,3147,1294,426,3.0,33.0,15.0,3.295898199081421,-23.925779342651367,-2.746581792831421,-0.8394775390625,0.3687744140625,0.1318359375
2.627,334,3147,1303,438,3.0,33.0,15.0,9.46044921875,-18.6767578125,-0.6103515625,-0.8421630859375,0.3919677734375,0.1441650390625
2.653,334,3147,1306,464,3.0,33.0,15.0,14.160155296325684,-13.000487327575684,2.01416015625,-0.85205078125,0.4185791015625,0.17724609375
2.654,334,3147,1292,483,7.0,32.0,19.0,13.610838890075684,-7.263183116912842,5.0048828125,-0.8553466796875,0.434326171875,0.2003173828125
2.654,334,3147,1251,509,7.0,32.0,19.0,7.507323741912842,-1.4648436307907104,7.263183116912842,-0.8468017578125,0.4326171875,0.1812744140625
2.666,334,3147,1266,620,7.0,32.0,19.0,0.30517578125,3.234863042831421,8.36181640625,-0.8260498046875,0.3990478515625,0.1326904296875
2.674,332,3147,1242,667,7.0,32.0,19.0,-3.540038824081421,5.737304210662842,9.58251953125,-0.79931640625,0.347900390625,0.0693359375
2.684,332,3147,1213,728,7.0,32.0,19.0,-3.356933355331421,6.347655773162842,13.427733421325684,-0.7791748046875,0.3109130859375,-0.001220703125
2.697,328,3147,1101,891,7.0,32.0,19.0,-0.30517578125,5.737304210662842,20.874021530151367,-0.757080078125,0.2952880859375,-0.05908203125
2.705,325,3147,1034,1039,7.0,32.0,19.0,3.051757574081421,4.57763671875,30.883787155151367,-0.7164306640625,0.2750244140625,-0.0828857421875
2.713,323,3147,963,1226,7.0,32.0,19.0,4.0283203125,2.990722417831421,41.809078216552734,-0.6563720703125,0.2264404296875,-0.074951171875
2.726,317,3147,952,1761,7.0,32.0,19.0,3.662109136581421,-0.1220703050494194,51.635738372802734,-0.585693359375,0.1734619140625,-0.04541015625
2.758,317,3147,1018,2121,7.0,32.0,19.0,5.187987804412842,-6.042479991912842,59.082027435302734,-0.501953125,0.178955078125,0.004150390625
2.759,329,3147,1104,2487,2.0,30.0,17.0,8.97216796875,-15.563963890075684,63.476558685302734,-0.3822021484375,0.215087890625,0.0877685546875
2.759,346,3147,1411,3086,2.0,30.0,17.0,13.000487327575684,-28.625486373901367,62.927242279052734,-0.1773681640625,0.179931640625,0.21630859375
2.765,351,3147,1588,3147,2.0,30.0,17.0,15.502928733825684,-41.503902435302734,54.504390716552734,0.137451171875,0.12548828125,0.297119140625
2.773,364,3147,1775,3147,2.0,30.0,17.0,10.009765625,-45.959468841552734,37.78076171875,0.4547119140625,0.17529296875,0.257080078125
2.791,378,3147,2032,3147,2.0,30.0,17.0,-10.925292015075684,-38.63525390625,14.160155296325684,0.552490234375,0.251953125,0.135498046875
2.794,382,3147,2130,3147,2.0,30.0,17.0,-39.794921875,-27.160642623901367,-16.4794921875,0.2313232421875,0.1070556640625,-0.0618896484375
2.803,399,3147,2186,3147,2.0,30.0,17.0,-56.030269622802734,-22.094724655151367,-51.391597747802734,-0.4627685546875,-0.1361083984375,-0.21728515625
2.816,402,3147,2471,3147,2.0,30.0,17.0,-56.640621185302734,-26.428220748901367,-71.83837890625,-1.2960205078125,0.265380859375,-0.180908203125
2.824,418,3147,2984,3147,2.0,30.0,17.0,-56.213375091552734,-31.982419967651367,-56.701656341552734,-1.8839111328125,1.4453125,-0.0469970703125
2.832,426,3147,3076,3147,2.0,30.0,17.0,-70.25146484375,-31.982419967651367,-25.207517623901367,-2.4405517578125,2.5499267578125,0.1910400390625
2.856,406,3147,3063,3147,1.0,30.0,18.0,-112.06053924560547,-32.3486328125,3.234863042831421,-3.1661376953125,2.844970703125,0.2421875
2.856,405,3147,2992,3147,1.0,30.0,18.0,-140.9912109375,-31.433103561401367,27.160642623901367,-2.64697265625,1.1146240234375,0.319091796875
2.865,423,3147,2853,3147,1.0,30.0,18.0,-89.47753143310547,-27.343748092651367,9.94873046875,-1.205810546875,-0.8433837890625,0.8968505859375
2.877,417,3147,2711,3147,1.0,30.0,18.0,18.1884765625,-14.770506858825684,-23.559568405151367,-0.60205078125,-0.381591796875,0.936767578125
2.888,417,3147,2691,3147,1.0,30.0,18.0,108.33739471435547,11.352538108825684,-33.87451171875,-0.744873046875,0.970947265625,0.12841796875
2.894,415,3147,2683,3147,1.0,30.0,18.0,122.19237518310547,38.818359375,-42.480464935302734,-1.1982421875,1.50830078125,-0.50830078125
2.906,402,3147,2619,3147,1.0,30.0,18.0,54.870601654052734,52.185054779052734,-46.997066497802734,-1.742919921875,1.409912109375,-0.54052734375
2.914,402,3147,2507,3147,1.0,30.0,18.0,-23.925779342651367,44.189449310302734,-40.466304779052734,-2.0240478515625,1.1383056640625,-0.236083984375
2.923,411,3147,2456,3147,1.0,30.0,18.0,-61.767574310302734,28.564451217651367,-28.442380905151367,-1.94873046875,0.73388671875,0.0322265625
2.936,390,3147,2306,3147,4.0,32.0,18.0,-60.363765716552734,17.822265625,-14.282225608825684,-1.6707763671875,0.416259765625,0.228515625
2.972,400,3147,2141,3147,4.0,32.0,18.0,-38.51318359375,12.145995140075684,0.7324218153953552,-1.3800048828125,0.2783203125,0.4189453125
2.976,377,3147,2023,3147,4.0,32.0,18.0,-9.82666015625,12.390135765075684,17.39501953125,-1.1854248046875,0.2462158203125,0.5587158203125
2.977,371,3147,1650,2831,4.0,32.0,18.0,23.376462936401367,20.507810592651367,39.9169921875,-1.0001220703125,0.22119140625,0.5731201171875
2.977,364,3147,1516,2526,4.0,32.0,18.0,60.485836029052734,34.85107421875,63.659664154052734,-0.751708984375,0.0826416015625,0.485595703125
2.991,359,3147,1386,2191,4.0,32.0,18.0,90.45409393310547,48.706050872802734,75.927734375,-0.391357421875,-0.19970703125,0.3638916015625
2.996,346,3147,1172,1691,4.0,32.0,18.0,104.73632049560547,53.100582122802734,64.94140625,0.0311279296875,-0.4071044921875,0.208251953125
3.005,342,3147,1131,1258,4.0,32.0,18.0,109.43602752685547,42.602535247802734,30.090330123901367,0.2467041015625,-0.207275390625,0.029052734375
3.013,337,3147,1078,984,4.0,32.0,18.0,108.94774627685547,18.49365234375,-10.498045921325684,0.1141357421875,0.31982421875,-0.1334228515625
3.026,332,3147,999,687,4.0,32.0,18.0,95.09276580810547,-5.798339366912842,-37.65869140625,-0.197021484375,0.692626953125,-0.278564453125
3.034,330,3147,963,506,2.0,32.0,18.0,63.720699310302734,-13.916014671325684,-47.851558685302734,-0.4534912109375,0.7060546875,-0.354248046875
3.042,328,3147,973,497,2.0,32.0,18.0,31.738279342651367,-6.164550304412842,-44.616695404052734,-0.56640625,0.5831298828125,-0.3267822265625
3.061,323,3147,957,382,2.0,32.0,18.0,19.95849609375,6.835937023162842,-32.8369140625,-0.5909423828125,0.5428466796875,-0.258056640625
3.065,323,3147,946,371,2.0,32.0,18.0,22.033689498901367,16.41845703125,-20.385740280151367,-0.615478515625,0.607421875,-0.1583251953125
3.093,321,3147,938,347,2.0,32.0,18.0,15.747069358825684,17.9443359375,-13.671874046325684,-0.657958984375,0.6312255859375,-0.06640625
3.096,318,3147,962,344,2.0,32.0,18.0,-4.39453125,12.695311546325684,-14.282225608825684,-0.7213134765625,0.5308837890625,-0.0286865234375
3.097,321,3147,952,338,2.0,32.0,18.0,-27.954099655151367,4.33349609375,-18.5546875,-0.805419921875,0.390869140625,-0.00244140625
3.103,316,3147,989,346,2.0,32.0,18.0,-44.128414154052734,-4.33349609375,-21.362302780151367,-0.884033203125,0.2850341796875,0.0433349609375
3.116,321,3147,1017,346,2.0,32.0,18.0,-47.790523529052734,-10.253905296325684,-20.935056686401367,-0.9423828125,0.218505859375,0.0810546875
3.124,318,3147,1012,346,2.0,32.0,18.0,-39.36767578125,-10.437010765075684,-16.9677734375,-0.9739990234375,0.2078857421875,0.095947265625
3.132,322,3146,1029,346,4.0,32.0,18.0,-39.36767578125,-10.437010765075684,-16.9677734375,-0.978515625,0.278076171875,0.1219482421875
3.163,318,2955,1026,347,4.0,32.0,18.0,-7.019042491912842,2.197265625,-2.01416015625,-0.9627685546875,0.396728515625,0.171875
3.164,318,2863,1018,346,4.0,32.0,18.0,3.356933355331421,8.9111328125,3.906249761581421,-0.93115234375,0.476318359375,0.19921875
3.164,305,2798,1004,344,4.0,32.0,18.0,3.356933355331421,8.9111328125,3.906249761581421,-0.8955078125,0.4610595703125,0.1778564453125
3.195,321,2741,996,345,4.0,32.0,18.0,4.7607421875,19.6533203125,8.056640625,-0.864501953125,0.3798828125,0.1405029296875
3.197,318,2757,984,345,4.0,32.0,18.0,2.624511480331421,23.925779342651367,10.437010765075684,-0.836181640625,0.3001708984375,0.110107421875
3.197,318,2808,991,344,4.0,32.0,18.0,2.624511480331421,23.925779342651367,10.437010765075684,-0.8076171875,0.2626953125,0.075439453125
3.206,321,2925,959,344,4.0,32.0,18.0,3.906249761581421,28.381345748901367,22.033689498901367,-0.77294921875,0.2611083984375,0.02685546875
3.214,315,3073,912,346,4.0,32.0,18.0,6.347655773162842,29.052732467651367,31.005857467651367,-0.73974609375,0.268798828125,-0.020263671875
3.223,319,3147,882,346,4.0,32.0,18.0,6.347655773162842,29.052732467651367,31.005857467651367,-0.7196044921875,0.281982421875,-0.040771484375
3.237,316,3147,794,572,0.0,32.0,17.0,7.385253429412842,27.465818405151367,51.635738372802734,-0.6923828125,0.312744140625,-0.041015625
3.244,319,3147,801,792,0.0,32.0,17.0,10.192870140075684,25.390623092651367,59.387203216552734,-0.624267578125,0.34619140625,-0.04345703125
3.266,316,3147,815,977,0.0,32.0,17.0,10.192870140075684,25.390623092651367,59.387203216552734,-0.5086669921875,0.3546142578125,-0.048583984375
3.266,317,3147,872,1627,0.0,32.0,17.0,14.465331077575684,14.587401390075684,59.814449310302734,-0.3480224609375,0.310302734375,-0.0341796875
3.275,315,3147,841,2130,0.0,32.0,17.0,14.587401390075684,3.173827886581421,53.527828216552734,-0.149658203125,0.2254638671875,0.0185546875
3.282,319,3147,922,2538,0.0,32.0,17.0,14.587401390075684,3.173827886581421,53.527828216552734,0.0830078125,0.165283203125,0.093505859375
3.304,327,3147,1131,3147,0.0,32.0,17.0,25.207517623901367,-31.249998092651367,34.72900390625,0.3812255859375,0.1546630859375,0.1043701171875
3.305,344,3147,1387,3147,0.0,32.0,17.0,21.057126998901367,-46.386714935302734,18.61572265625,0.6175537109375,0.255859375,0.0587158203125
3.313,354,3147,1578,3147,0.0,32.0,17.0,21.057126998901367,-46.386714935302734,18.61572265625,0.5010986328125,0.4169921875,0.0157470703125
3.326,364,3147,1794,3147,0.0,33.0,16.0,-44.189449310302734,-54.931636810302734,-26.000974655151367,-0.0872802734375,0.2998046875,-0.1708984375
3.334,371,3147,1882,3147,0.0,33.0,16.0,-44.189449310302734,-54.931636810302734,-26.000974655151367,-0.9688720703125,-0.0711669921875,-0.36328125
3.342,383,3147,2007,3147,0.0,33.0,16.0,-68.42041015625,-54.016109466552734,-58.593746185302734,-0.9688720703125,-0.0711669921875,-0.36328125
3.367,406,3147,2379,3147,0.0,33.0,16.0,-94.54344940185547,-45.898433685302734,-53.222652435302734,-2.13134765625,0.972412109375,0.0496826171875
3.369,406,3147,2683,3147,0.0,33.0,16.0,-94.54344940185547,-45.898433685302734,-53.222652435302734,-2.45263671875,2.178466796875,0.15478515625
3.373,409,3147,2610,3147,0.0,33.0,16.0,-97.83934783935547,-34.24072265625,-6.469726085662842,-2.45263671875,2.178466796875,0.15478515625
3.387,403,3147,2484,3147,0.0,33.0,16.0,-128.96728515625,-4.33349609375,60.363765716552734,-2.538818359375,1.5616455078125,0.2237548828125
3.405,402,3147,2356,3147,0.0,33.0,16.0,-128.96728515625,-4.33349609375,60.363765716552734,-1.18896484375,-0.7698974609375,1.0093994140625
3.405,400,3147,2165,3147,0.0,33.0,16.0,-73.30322265625,-4.2724609375,22.644041061401367,-1.18896484375,-0.7698974609375,1.0093994140625
3.417,388,3147,1968,3147,0.0,33.0,16.0,91.73583221435547,25.695798873901367,-30.883787155151367,-0.76220703125,0.7791748046875,0.1876220703125
3.424,385,3147,1983,3147,4.0,32.0,12.0,91.73583221435547,25.695798873901367,-30.883787155151367,-1.1717529296875,1.8167724609375,-0.805908203125
3.433,387,3147,1973,3147,4.0,32.0,12.0,137.3291015625,53.161617279052734,-25.390623092651367,-1.1717529296875,1.8167724609375,-0.805908203125
3.446,382,3147,1920,3147,4.0,32.0,12.0,-5.798339366912842,36.68212890625,-32.28759765625,-1.9556884765625,1.610595703125,-0.72509765625
3.461,378,3147,1882,3147,4.0,32.0,12.0,-5.798339366912842,36.68212890625,-32.28759765625,-1.890625,1.0565185546875,-0.333740234375
3.470,378,3147,1840,3147,4.0,32.0,12.0,-75.01220703125,13.427733421325684,-28.503416061401367,-1.890625,1.0565185546875,-0.333740234375
3.476,371,3147,1675,3147,4.0,32.0,12.0,-93.87206268310547,1.220703125,-19.04296875,-1.5997314453125,0.32373046875,0.2506103515625
3.485,361,3147,1529,3147,4.0,32.0,12.0,-93.87206268310547,1.220703125,-19.04296875,-1.412841796875,0.31787109375,0.317626953125
3.493,354,3147,1289,3147,4.0,32.0,12.0,-59.020992279052734,5.676269054412842,-3.540038824081421,-1.412841796875,0.31787109375,0.317626953125
3.509,338,3147,1258,2008,4.0,32.0,12.0,32.65380859375,15.258788108825684,36.68212890625,-0.723876953125,0.2333984375,0.2626953125
3.515,330,3147,1073,1173,4.0,32.0,12.0,32.65380859375,15.258788108825684,36.68212890625,-0.2886962890625,-0.026123046875,0.2598876953125
3.528,327,3147,939,656,2.0,32.0,14.0,61.218257904052734,18.4326171875,37.2314453125,-0.2886962890625,-0.026123046875,0.2598876953125
3.536,323,3047,879,344,2.0,32.0,14.0,69.88525390625,19.1650390625,-2.868652105331421,0.228515625,-0.5341796875,0.3846435546875
3.544,324,2551,815,346,2.0,32.0,14.0,69.88525390625,19.1650390625,-2.868652105331421,0.228515625,-0.5341796875,0.3846435546875
3.553,321,2091,748,338,2.0,32.0,14.0,65.12451171875,19.47021484375,-23.315427780151367,0.016845703125,-0.4849853515625,0.33837890625
3.573,316,1220,634,333,2.0,32.0,14.0,72.8759765625,23.315427780151367,-32.40966796875,-0.3963623046875,0.2901611328125,-0.037109375
3.575,313,922,614,328,2.0,32.0,14.0,92.16307830810547,28.076169967651367,-32.53173828125,-0.3963623046875,0.2901611328125,-0.037109375
3.583,316,869,584,326,2.0,32.0,14.0,100.40282440185547,26.916501998901367,-28.137205123901367,-0.3592529296875,0.6951904296875,-0.0882568359375
3.596,315,1022,588,330,2.0,32.0,14.0,83.92333221435547,18.85986328125,-21.667478561401367,-0.46728515625,0.93994140625,-0.0462646484375
3.612,316,1104,603,332,2.0,32.0,14.0,48.828121185302734,8.7890625,-13.122557640075684,-0.46728515625,0.93994140625,-0.0462646484375
3.613,316,1079,644,331,2.0,32.0,14.0,13.122557640075684,2.0751953125,-4.45556640625,-0.5982666015625,0.7716064453125,-0.08154296875
3.626,317,1184,705,332,2.0,35.0,14.0,-6.347655773162842,1.3427733182907104,-0.9765624403953552,-0.775634765625,0.358642578125,-0.1871337890625
3.641,317,1213,720,331,2.0,35.0,14.0,-6.591796398162842,3.662109136581421,-3.601073980331421,-0.775634765625,0.358642578125,-0.1871337890625
3.643,315,1172,725,329,2.0,35.0,14.0,3.845214605331421,4.0283203125,-7.812499523162842,-0.8480224609375,0.3289794921875,-0.15771484375
3.656,316,1074,731,331,2.0,35.0,14.0,15.258788108825684,-0.30517578125,-10.253905296325684,-0.9603271484375,0.462158203125,-0.0419921875
3.675,316,988,725,331,2.0,35.0,14.0,21.667478561401367,-8.23974609375,-11.535643577575684,-0.9603271484375,0.462158203125,-0.0419921875
3.675,316,992,733,330,2.0,35.0,14.0,21.789548873901367,-16.357421875,-13.427733421325684,-0.9447021484375,0.484619140625,-0.026123046875
3.687,316,1104,738,330,2.0,35.0,14.0,18.1884765625,-21.606443405151367,-16.6015625,-0.830322265625,0.3985595703125,-0.05859375
3.694,315,1169,748,330,2.0,35.0,14.0,15.563963890075684,-23.071287155151367,-19.04296875,-0.830322265625,0.3985595703125,-0.05859375
3.707,315,1255,766,331,2.0,35.0,14.0,16.29638671875,-22.155759811401367,-17.9443359375,-0.789306640625,0.367919921875,-0.048583984375
3.722,315,1524,765,333,2.0,33.0,18.0,18.61572265625,-20.935056686401367,-13.122557640075684,-0.754638671875,0.37109375,0.04345703125
3.724,315,1622,753,334,2.0,33.0,18.0,19.59228515625,-20.568845748901367,-6.896972179412842,-0.754638671875,0.37109375,0.04345703125
3.732,316,1757,748,334,2.0,33.0,18.0,17.7001953125,-20.629880905151367,-1.220703125,-0.75341796875,0.3629150390625,0.0614013671875
3.746,316,2087,794,334,2.0,33.0,18.0,13.671874046325684,-19.47021484375,3.601073980331421,-0.7510986328125,0.3460693359375,0.024658203125
3.755,315,2308,780,333,2.0,33.0,18.0,7.934569835662842,-16.54052734375,8.1787109375,-0.7510986328125,0.3460693359375,0.024658203125
3.778,316,2468,750,334,2.0,33.0,18.0,0.1831054538488388,-13.122557640075684,13.305663108825684,-0.72900390625,0.3492431640625,0.013671875
3.779,315,2847,745,336,2.0,33.0,18.0,-9.09423828125,-10.192870140075684,19.53125,-0.7037353515625,0.3359375,-0.0009765625
3.784,315,3147,684,338,2.0,33.0,18.0,-17.51708984375,-8.36181640625,27.099607467651367,-0.6773681640625,0.2879638671875,-0.0186767578125
3.793,310,3147,599,779,2.0,33.0,18.0,-23.498533248901367,-8.544921875,35.58349609375,-0.6182861328125,0.1962890625,-0.0345458984375
3.810,310,3147,529,1592,2.0,33.0,18.0,-26.611326217651367,-10.864256858825684,43.823238372802734,-0.5108642578125,0.0654296875,-0.032470703125
3.815,315,3147,705,2063,-2.0,32.0,21.0,-25.878904342651367,-14.160155296325684,50.903316497802734,-0.373779296875,-0.0462646484375,0.0177001953125
3.823,316,3147,894,2484,-2.0,32.0,21.0,-18.73779296875,-18.06640625,56.213375091552734,-0.20068359375,-0.0341796875,0.113037109375
3.837,331,3147,1267,3147,-2.0,32.0,21.0,-7.080077648162842,-24.719236373901367,56.701656341552734,0.031982421875,0.1878662109375,0.2056884765625
3.844,346,3147,1531,3147,-2.0,32.0,21.0,-7.263183116912842,-33.5693359375,47.607418060302734,0.2344970703125,0.5660400390625,0.2281494140625
3.853,354,3147,1702,3147,-2.0,32.0,21.0,-40.283199310302734,-36.4990234375,29.724119186401367,0.2611083984375,0.80224609375,0.1048583984375
3.880,371,3147,1837,3147,-2.0,32.0,21.0,-97.10692596435547,-27.404783248901367,4.638671875,0.0216064453125,0.5784912109375,-0.1722412109375
3.881,376,3147,1904,3147,-2.0,32.0,21.0,-142.02880859375,-10.986327171325684,-32.77587890625,-0.5426025390625,-0.0826416015625,-0.3782958984375
3.883,382,3147,2041,3147,-2.0,32.0,21.0,-149.4140625,-0.1220703050494194,-73.42529296875,-1.259521484375,-0.436767578125,-0.3017578125
3.896,388,3147,2432,3147,-2.0,32.0,21.0,-126.52587127685547,-7.080077648162842,-83.92333221435547,-1.732177734375,0.4171142578125,-0.0203857421875
3.912,399,3147,2813,3147,-2.0,32.0,21.0,-105.83495330810547,-27.038572311401367,-53.833003997802734,-1.950927734375,1.9168701171875,0.1702880859375
3.912,403,3147,2820,3147,5.0,29.0,16.0,-105.95702362060547,-39.85595703125,-20.874021530151367,-2.6644287109375,3.0849609375,0.202392578125
3.930,398,3147,2879,3147,5.0,29.0,16.0,-136.1083984375,-41.381832122802734,-2.197265625,-3.0504150390625,2.722412109375,0.2222900390625
3.935,391,3147,2713,3147,5.0,29.0,16.0,-127.99071502685547,-40.649410247802734,-20.141599655151367,-2.1778564453125,0.1627197265625,0.450439453125
3.943,391,3147,2492,3147,5.0,29.0,16.0,-38.6962890625,-44.372554779052734,-74.52392578125,-1.1551513671875,-1.39013671875,0.8748779296875
3.957,388,3147,2461,3147,5.0,29.0,16.0,56.640621185302734,-37.78076171875,-88.19579315185547,-0.7493896484375,-0.208740234375,0.7718505859375
3.982,385,3147,2555,3147,5.0,29.0,16.0,104.43114471435547,21.179197311401367,-43.334957122802734,-1.765380859375,1.6744384765625,-0.41552734375
3.987,385,3147,2519,3147,5.0,29.0,16.0,37.65869140625,25.878904342651367,-41.259761810302734,-2.10302734375,1.433837890625,-0.435302734375
3.997,387,3147,2472,3147,5.0,29.0,16.0,-29.357908248901367,6.286620616912842,-41.320796966552734,-1.9212646484375,0.833740234375,-0.180419921875
4.003,386,3147,2333,3147,5.0,29.0,16.0,-55.969234466552734,-13.671874046325684,-39.306640625,-1.5716552734375,0.199462890625,0.137451171875
4.021,379,3147,1918,3147,7.0,30.0,17.0,-39.306640625,-18.00537109375,-29.724119186401367,-1.2867431640625,-0.029296875,0.40576171875
4.025,371,3147,1719,2925,7.0,30.0,17.0,-4.7607421875,-11.535643577575684,-10.803221702575684,-1.0753173828125,0.110595703125,0.571533203125
4.038,363,3147,1695,2368,7.0,30.0,17.0,21.789548873901367,-3.479003667831421,11.474608421325684,-0.87744140625,0.269287109375,0.6702880859375
4.047,346,3147,1445,1292,7.0,30.0,17.0,36.68212890625,6.713866710662842,27.832029342651367,-0.685302734375,0.2161865234375,0.673095703125
4.055,334,3147,1225,922,7.0,30.0,17.0,47.790523529052734,22.094724655151367,34.1796875,-0.5072021484375,0.0030517578125,0.572021484375
4.062,328,3147,1160,506,7.0,30.0,17.0,60.119625091552734,35.7666015625,31.127927780151367,-0.3299560546875,-0.2562255859375,0.4051513671875
4.092,330,2733,1117,348,7.0,30.0,17.0,73.30322265625,39.4287109375,17.76123046875,-0.2596435546875,-0.41796875,0.21337890625
4.092,327,2334,1063,348,7.0,30.0,17.0,84.89989471435547,33.02001953125,-1.4038084745407104,-0.36376953125,-0.3436279296875,0.04931640625
4.093,325,1945,960,324,7.0,30.0,17.0,99.24315643310547,22.338865280151367,-16.66259765625,-0.50732421875,-0.129150390625,-0.126220703125
4.106,321,1167,846,332,7.0,30.0,17.0,118.71337127685547,13.793944358825684,-24.108884811401367,-0.5550537109375,0.06689453125,-0.2735595703125
4.117,324,707,830,330,2.0,26.0,15.0,133.36181640625,10.681151390075684,-23.925779342651367,-0.5032958984375,0.2384033203125,-0.302734375
4.123,318,682,725,332,2.0,26.0,15.0,135.986328125,12.756346702575684,-15.502928733825684,-0.4365234375,0.427490234375,-0.2525634765625
4.142,316,667,638,329,2.0,26.0,15.0,129.8828125,15.624999046325684,-2.50244140625,-0.435546875,0.617431640625,-0.15625
4.145,314,630,678,332,2.0,26.0,15.0,115.84471893310547,13.610838890075684,8.97216796875,-0.4808349609375,0.7327880859375,-0.03369140625
4.153,316,638,754,330,2.0,26.0,15.0,96.61864471435547,6.652831554412842,14.160155296325684,-0.5318603515625,0.68701171875,0.0404052734375
4.166,316,660,910,331,2.0,26.0,15.0,80.87157440185547,-0.2441406100988388,11.596678733825684,-0.6044921875,0.54345703125,0.057861328125
4.188,316,724,980,330,2.0,26.0,15.0,72.08251953125,-3.723144292831421,5.920409679412842,-0.71435546875,0.502685546875,0.06982421875
4.188,313,735,998,332,2.0,26.0,15.0,66.162109375,-4.8828125,1.2817381620407104,-0.8392333984375,0.5999755859375,0.079833984375
4.197,316,625,1010,330,2.0,26.0,15.0,56.884761810302734,-5.920409679412842,-3.723144292831421,-0.9288330078125,0.6771240234375,0.0679931640625
4.205,316,625,1018,328,2.0,26.0,15.0,43.334957122802734,-6.286620616912842,-8.85009765625,-0.947998046875,0.6434326171875,0.02099609375
4.219,316,627,1014,330,0.0,29.0,19.0,28.747556686401367,-4.8828125,-11.169432640075684,-0.8968505859375,0.5321044921875,-0.0411376953125
4.227,316,644,1056,328,0.0,29.0,19.0,16.4794921875,-2.13623046875,-10.375975608825684,-0.8111572265625,0.391357421875,-0.0904541015625
4.234,316,631,1104,330,0.0,29.0,19.0,6.958007335662842,0.7934569716453552,-8.60595703125,-0.7396240234375,0.254638671875,-0.1068115234375
4.250,316,616,1134,328,0.0,29.0,19.0,6.958007335662842,0.7934569716453552,-8.60595703125,-0.7100830078125,0.1685791015625,-0.088134765625
4.257,318,666,1215,332,0.0,29.0,19.0,-3.112792730331421,1.7089842557907104,-5.920409679412842,-0.697021484375,0.1732177734375,-0.064697265625
4.265,318,753,1184,333,0.0,29.0,19.0,-9.3994140625,0.1220703050494194,-5.371093273162842,-0.68310546875,0.2041015625,-0.042236328125
4.289,321,952,1202,332,0.0,29.0,19.0,-9.3994140625,0.1220703050494194,-5.371093273162842,-0.7125244140625,0.1956787109375,0.0130615234375
4.290,323,1500,1257,338,0.0,29.0,19.0,-20.690916061401367,-4.2724609375,3.295898199081421,-0.7430419921875,0.21923828125,0.06005859375
4.294,321,1957,1222,344,0.0,29.0,19.0,-14.770506858825684,-5.065917491912842,16.17431640625,-0.7139892578125,0.29541015625,0.0390625
4.305,322,2070,1155,342,0.0,29.0,19.0,-14.770506858825684,-5.065917491912842,16.17431640625,-0.6595458984375,0.3485107421875,-0.0107421875
4.326,317,2715,1042,338,-1.0,29.0,19.0,-16.17431640625,-3.723144292831421,41.503902435302734,-0.59912109375,0.3592529296875,-0.0347900390625
4.329,316,3064,934,344,-1.0,29.0,19.0,-27.770994186401367,-3.601073980331421,46.752925872802734,-0.5406494140625,0.3878173828125,-0.029296875
4.333,318,3147,869,473,-1.0,29.0,19.0,-27.770994186401367,-3.601073980331421,46.752925872802734,-0.4749755859375,0.4654541015625,-0.019287109375
4.346,318,3147,871,1303,-1.0,29.0,19.0,-54.565425872802734,-7.080077648162842,44.738765716552734,-0.3809814453125,0.5133056640625,0.0120849609375
4.356,321,3147,1025,1757,-1.0,29.0,19.0,-65.24658203125,-12.878417015075684,39.4287109375,-0.2720947265625,0.4041748046875,0.1055908203125
4.372,326,3147,1108,2180,-1.0,29.0,19.0,-65.24658203125,-12.878417015075684,39.4287109375,-0.1500244140625,0.1893310546875,0.243896484375
4.392,348,3147,1561,2877,-1.0,29.0,19.0,-73.73046875,-29.296873092651367,21.911619186401367,-0.01611328125,0.1099853515625,0.326416015625
4.392,360,3147,1800,3147,-1.0,29.0,19.0,-84.35057830810547,-27.648923873901367,13.183592796325684,0.083740234375,0.1748046875,0.2025146484375
4.393,363,3147,1974,3147,-1.0,29.0,19.0,-84.35057830810547,-27.648923873901367,13.183592796325684,0.0123291015625,0.022216796875,-0.1524658203125
4.407,376,3147,2076,3147,2.0,28.0,14.0,-103.51561737060547,-12.145995140075684,-27.343748092651367,-0.449951171875,-0.4351806640625,-0.39501953125
4.415,391,3147,2242,3147,2.0,28.0,14.0,-98.51073455810547,-18.798828125,-58.044429779052734,-1.25634765625,-0.458984375,-0.21728515625
4.429,400,3147,2456,3147,2.0,28.0,14.0,-98.51073455810547,-18.798828125,-58.044429779052734,-1.8958740234375,0.7021484375,0.139892578125
4.436,402,3147,2968,3147,2.0,28.0,14.0,-75.62255859375,-33.5693359375,-20.629880905151367,-2.1639404296875,2.08984375,0.25830078125
4.445,402,3147,3017,3147,2.0,28.0,14.0,-90.27098846435547,-31.494138717651367,3.295898199081421,-2.763671875,2.5819091796875,0.38623046875
4.453,402,3147,2992,3147,2.0,28.0,14.0,-90.27098846435547,-31.494138717651367,3.295898199081421,-2.763671875,2.5819091796875,0.38623046875
4.466,400,3147,2887,3147,2.0,28.0,14.0,-101.19628143310547,-30.578611373901367,13.732909202575684,-2.23583984375,-0.0758056640625,0.64794921875
4.475,399,3147,2810,3147,2.0,28.0,14.0,-101.19628143310547,-30.578611373901367,13.732909202575684,-0.869140625,-0.6982421875,1.0234375
4.495,391,3147,2704,3147,2.0,28.0,14.0,-21.911619186401367,-18.06640625,-15.319823265075684,-0.869140625,-0.6982421875,1.0234375
4.496,376,3147,2744,3147,2.0,28.0,14.0,119.81200408935547,30.090330123901367,-31.738279342651367,-1.19091796875,1.33154296875,-0.404052734375
4.505,390,3147,2717,3147,4.0,32.0,16.0,119.81200408935547,30.090330123901367,-31.738279342651367,-1.9400634765625,1.36083984375,-0.6737060546875
4.513,389,3147,2593,3147,4.0,32.0,16.0,85.57128143310547,38.75732421875,-28.747556686401367,-1.9400634765625,1.36083984375,-0.6737060546875
4.533,388,3147,2541,3147,4.0,32.0,16.0,-31.494138717651367,17.02880859375,-11.230467796325684,-2.072998046875,0.75634765625,-0.060302734375
4.542,371,3147,2461,3147,4.0,32.0,16.0,-31.494138717651367,17.02880859375,-11.230467796325684,-1.68212890625,0.427978515625,0.224609375
4.543,387,3147,2325,3147,4.0,32.0,16.0,-43.029781341552734,10.620116233825684,-0.8544921278953552,-1.68212890625,0.427978515625,0.224609375
4.556,376,3147,2124,2268,4.0,32.0,16.0,-16.2353515625,24.108884811401367,25.207517623901367,-1.12451171875,0.3623046875,0.605712890625
4.570,371,3147,2024,1769,4.0,32.0,16.0,-16.2353515625,24.108884811401367,25.207517623901367,-0.898193359375,0.394287109375,0.6103515625
4.573,364,3147,1843,1063,4.0,32.0,16.0,12.756346702575684,39.1845703125,44.555660247802734,-0.898193359375,0.394287109375,0.6103515625
4.597,351,3056,1681,385,4.0,32.0,16.0,57.617183685302734,63.842769622802734,62.316890716552734,-0.4052734375,-0.03173828125,0.4644775390625
4.598,346,2665,1596,378,4.0,32.0,16.0,57.617183685302734,63.842769622802734,62.316890716552734,-0.0960693359375,-0.3623046875,0.311279296875
4.603,347,2384,1669,377,4.0,31.0,19.0,64.39208984375,61.401363372802734,43.518062591552734,-0.0960693359375,-0.3623046875,0.311279296875
4.617,336,1627,1623,364,4.0,31.0,19.0,77.33154296875,22.216794967651367,-27.404783248901367,-0.080322265625,-0.2508544921875,-0.0457763671875
4.628,334,1416,1529,361,4.0,31.0,19.0,77.33154296875,22.216794967651367,-27.404783248901367,-0.2822265625,0.007080078125,-0.188232421875
4.634,334,1310,1483,360,4.0,31.0,19.0,87.46337127685547,3.051757574081421,-43.395992279052734,-0.2822265625,0.007080078125,-0.188232421875
4.646,331,1125,1411,354,4.0,31.0,19.0,92.95653533935547,5.065917491912842,-34.66796875,-0.369873046875,0.4744873046875,-0.286865234375
4.655,330,1063,1323,354,4.0,31.0,19.0,92.95653533935547,5.065917491912842,-34.66796875,-0.412353515625,0.7406005859375,-0.2545166015625
4.663,327,1167,1211,348,4.0,31.0,19.0,83.25194549560547,14.282225608825684,-23.864744186401367,-0.412353515625,0.7406005859375,-0.2545166015625
4.677,324,1334,1202,346,4.0,31.0,19.0,61.218257904052734,17.63916015625,-13.671874046325684,-0.681396484375,0.772705078125,-0.0589599609375
4.699,325,1372,1214,348,4.0,31.0,19.0,28.442380905151367,15.624999046325684,-3.723144292831421,-0.681396484375,0.772705078125,-0.0589599609375
4.699,327,1434,1271,348,4.0,31.0,19.0,-1.3427733182907104,11.413573265075684,3.479003667831421,-0.7513427734375,0.5712890625,-0.00732421875
4.707,327,1480,1308,346,4.0,32.0,13.0,-17.51708984375,6.408690929412842,3.967284917831421,-0.8341064453125,0.2431640625,0.0166015625
4.715,327,1492,1318,342,4.0,32.0,13.0,-19.8974609375,1.2817381620407104,-2.38037109375,-0.8341064453125,0.2431640625,0.0166015625
4.731,327,1437,1323,348,4.0,32.0,13.0,-13.793944358825684,-2.25830078125,-9.521484375,-0.902587890625,0.266845703125,0.0308837890625
4.737,328,1316,1313,346,4.0,32.0,13.0,3.723144292831421,-1.4648436307907104,-8.85009765625,-0.938720703125,0.4815673828125,0.0504150390625
4.745,327,1308,1306,347,4.0,32.0,13.0,3.723144292831421,-1.4648436307907104,-8.85009765625,-0.8895263671875,0.4881591796875,0.0528564453125
4.754,327,1257,1278,348,4.0,32.0,13.0,6.713866710662842,0.3662109076976776,-6.408690929412842,-0.8895263671875,0.4881591796875,0.0528564453125
4.767,328,1355,1243,346,4.0,32.0,13.0,-2.38037109375,3.662109136581421,-4.7607421875,-0.827392578125,0.343994140625,0.040283203125
4.783,328,1467,1243,347,4.0,32.0,13.0,-2.38037109375,3.662109136581421,-4.7607421875,-0.828369140625,0.2796630859375,0.0303955078125
4.784,327,1624,1216,347,4.0,32.0,13.0,-6.469726085662842,4.39453125,-2.44140625,-0.828369140625,0.2796630859375,0.0303955078125
4.802,325,1794,1204,346,2.0,32.0,19.0,-6.958007335662842,3.723144292831421,1.5869139432907104,-0.8228759765625,0.275146484375,-0.017822265625
4.806,327,2082,1173,347,2.0,32.0,19.0,-4.69970703125,1.8310545682907104,7.019042491912842,-0.8228759765625,0.275146484375,-0.017822265625
4.816,325,2201,1118,348,2.0,32.0,19.0,-3.051757574081421,-0.1831054538488388,12.878417015075684,-0.79638671875,0.3001708984375,-0.0411376953125
4.836,324,2221,1050,348,2.0,32.0,19.0,-4.69970703125,-1.3427733182907104,18.37158203125,-0.7554931640625,0.33544921875,-0.048583984375
4.838,324,2364,987,356,2.0,32.0,19.0,-8.97216796875,-1.7089842557907104,24.475095748901367,-0.7554931640625,0.33544921875,-0.048583984375
4.843,324,2514,974,347,2.0,32.0,19.0,-13.610838890075684,-2.25830078125,31.494138717651367,-0.7490234375,0.3448486328125,-0.0284423828125
4.857,321,3070,854,345,2.0,32.0,19.0,-17.7001953125,-3.051757574081421,38.75732421875,-0.678955078125,0.276611328125,0.009521484375
4.866,321,3147,820,387,2.0,32.0,19.0,-20.568845748901367,-3.845214605331421,45.104976654052734,-0.678955078125,0.276611328125,0.009521484375
4.880,321,3147,837,865,2.0,32.0,19.0,-20.751951217651367,-5.310058116912842,49.194332122802734,-0.57421875,0.20361328125,0.0108642578125
4.888,334,3147,860,1590,2.0,32.0,19.0,-17.7001953125,-7.934569835662842,51.452632904052734,-0.2532958984375,0.170654296875,0.02099609375
4.906,344,3147,1051,1973,0.0,31.0,21.0,-11.596678733825684,-12.756346702575684,52.978511810302734,-0.2532958984375,0.170654296875,0.02099609375
4.910,357,3147,1345,2357,0.0,31.0,21.0,-5.798339366912842,-21.423337936401367,50.842281341552734,-0.0234375,0.2000732421875,0.08544921875
4.918,382,3147,1762,3104,0.0,31.0,21.0,-9.33837890625,-33.02001953125,40.527339935302734,0.4425048828125,0.3095703125,0.071044921875
4.925,388,3147,1892,3147,0.0,31.0,21.0,-33.203125,-39.9169921875,23.620603561401367,0.4425048828125,0.3095703125,0.071044921875
4.938,398,3147,2014,3147,0.0,31.0,21.0,-73.974609375,-39.0625,4.5166015625,0.3861083984375,0.208740234375,0.01416015625
4.948,419,3147,2280,3147,0.0,31.0,21.0,-104.55321502685547,-37.90283203125,-19.53125,-0.9207763671875,-0.10302734375,-0.09326171875
4.956,416,3147,2578,3147,0.0,31.0,21.0,-104.00389862060547,-42.968746185302734,-47.607418060302734,-0.9207763671875,-0.10302734375,-0.09326171875
4.964,433,3147,2813,3147,0.0,31.0,21.0,-81.90917205810547,-53.833003997802734,-58.898921966552734,-1.7642822265625,0.625244140625,-0.0126953125
4.978,423,3147,3094,3147,0.0,31.0,21.0,-65.7958984375,-62.011714935302734,-39.24560546875,-2.8433837890625,2.783203125,0.3372802734375
5.007,441,3147,3063,3147,0.0,31.0,21.0,-78.79638671875,-61.706539154052734,-12.207030296325684,-2.8433837890625,2.783203125,0.3372802734375
5.008,439,3147,3107,3147,5.0,29.0,18.0,-121.82616424560547,-56.152339935302734,17.2119140625,-3.3861083984375,2.3756103515625,0.2880859375
5.009,418,3147,3027,3147,5.0,29.0,18.0,-133.23974609375,-42.419429779052734,22.094724655151367,-2.405517578125,0.0645751953125,0.55419921875
5.015,430,3147,2866,3147,5.0,29.0,18.0,-76.59912109375,-24.353025436401367,-18.37158203125,-0.841064453125,-1.20166015625,1.2481689453125
5.023,437,3147,2848,3147,5.0,29.0,18.0,25.268552780151367,2.44140625,-38.75732421875,-0.4305419921875,-0.151611328125,0.921875
5.040,428,3147,2832,3147,5.0,29.0,18.0,120.36132049560547,36.92626953125,-24.536130905151367,-0.9560546875,1.0592041015625,-0.0716552734375
5.046,424,3147,2736,3147,5.0,29.0,18.0,126.46483612060547,57.678218841552734,-13.549803733825684,-1.6763916015625,1.490234375,-0.6422119140625
5.054,423,3147,2591,3147,5.0,29.0,18.0,52.185054779052734,52.795406341552734,-11.108397483825684,-2.0723876953125,1.3944091796875,-0.5372314453125
5.067,411,3147,2419,3147,5.0,29.0,18.0,-20.324705123901367,32.71484375,-10.253905296325684,-1.9921875,1.0526123046875,-0.1474609375
5.076,400,3147,2337,3147,5.0,29.0,18.0,-50.415035247802734,20.568845748901367,-9.58251953125,-1.68505859375,0.67041015625,0.1412353515625
5.083,385,3147,2233,3147,5.0,29.0,18.0,-51.025386810302734,19.04296875,-7.568358898162842,-1.3887939453125,0.4346923828125,0.343017578125
5.112,391,3147,1978,2430,5.0,29.0,18.0,-37.78076171875,21.728513717651367,-0.54931640625,-1.1983642578125,0.385986328125,0.4759521484375
5.112,401,3147,1772,1914,5.0,29.0,18.0,-11.840819358825684,27.282712936401367,12.573241233825684,-1.0526123046875,0.4144287109375,0.53466796875
5.114,371,3147,1580,1241,5.0,29.0,18.0,22.766111373901367,36.0107421875,28.259275436401367,-0.846923828125,0.38037109375,0.53125
5.128,349,3147,1231,418,5.0,29.0,18.0,55.480953216552734,46.142574310302734,38.63525390625,-0.566162109375,0.200927734375,0.4637451171875
5.141,334,3056,1029,363,5.0,29.0,18.0,75.1953125,50.903316497802734,36.4990234375,-0.2415771484375,-0.15625,0.3575439453125
5.146,330,2808,952,359,5.0,29.0,18.0,79.833984375,44.494625091552734,18.00537109375,-0.0120849609375,-0.5203857421875,0.2020263671875
5.158,324,2458,906,347,5.0,29.0,18.0,77.69775390625,28.930662155151367,-8.60595703125,-0.022216796875,-0.52197265625,0.02880859375
5.166,323,2137,792,346,5.0,29.0,18.0,77.1484375,10.925292015075684,-26.733396530151367,-0.2069091796875,-0.16748046875,-0.1141357421875
5.174,322,2058,744,338,5.0,29.0,18.0,77.81982421875,-1.220703125,-32.28759765625,-0.39208984375,0.1827392578125,-0.19775390625
5.187,316,1890,653,338,2.0,30.0,17.0,72.8759765625,-2.563476324081421,-30.761716842651367,-0.47705078125,0.36767578125,-0.1807861328125
5.220,315,1882,619,338,2.0,30.0,17.0,63.476558685302734,4.39453125,-24.230955123901367,-0.498046875,0.4681396484375,-0.112060546875
5.220,315,1900,606,336,2.0,30.0,17.0,59.631343841552734,13.122557640075684,-13.916014671325684,-0.5169677734375,0.55859375,-0.0576171875
5.221,315,1914,594,334,2.0,30.0,17.0,58.227535247802734,17.578125,-4.08935546875,-0.55908203125,0.65283203125,-0.0045166015625
5.226,313,2009,571,334,2.0,30.0,17.0,46.325679779052734,17.08984375,3.234863042831421,-0.64306640625,0.7071533203125,0.029296875
5.234,313,2085,594,334,2.0,30.0,17.0,23.925779342651367,15.136717796325684,8.36181640625,-0.74072265625,0.6751708984375,-0.00537109375
5.249,315,2058,630,332,2.0,30.0,17.0,0.6103515625,13.000487327575684,9.94873046875,-0.8148193359375,0.5650634765625,-0.077392578125
5.256,315,2012,653,334,2.0,30.0,17.0,-17.2119140625,9.58251953125,7.141112804412842,-0.8787841796875,0.419677734375,-0.110595703125
5.264,315,1954,661,336,2.0,30.0,17.0,-26.916501998901367,5.798339366912842,2.563476324081421,-0.9388427734375,0.3341064453125,-0.0787353515625
5.278,316,1834,644,332,2.0,30.0,17.0,-28.442380905151367,3.845214605331421,0.9155272841453552,-0.9696044921875,0.3572998046875,-0.0150146484375
5.286,315,1811,651,332,1.0,31.0,16.0,-23.437498092651367,4.2724609375,2.746581792831421,-0.9537353515625,0.41943359375,0.0438232421875
5.294,316,1881,642,334,1.0,31.0,16.0,-15.197752952575684,5.615233898162842,4.57763671875,-0.9033203125,0.4503173828125,0.07861328125
5.319,315,1908,628,334,1.0,31.0,16.0,-7.873534679412842,7.019042491912842,4.57763671875,-0.8492431640625,0.4462890625,0.073974609375
5.320,315,1985,579,316,1.0,31.0,16.0,-2.990722417831421,8.36181640625,3.723144292831421,-0.8092041015625,0.4356689453125,0.046142578125
5.330,315,2039,594,336,1.0,31.0,16.0,-1.15966796875,9.21630859375,3.417968511581421,-0.783447265625,0.4354248046875,0.0289306640625
5.345,316,2142,614,334,1.0,31.0,16.0,-2.685546636581421,8.9111328125,4.45556640625,-0.7757568359375,0.43359375,0.0260009765625
5.349,313,2194,601,334,1.0,31.0,16.0,-6.652831554412842,7.385253429412842,7.080077648162842,-0.784912109375,0.416748046875,0.0181884765625
5.354,316,2279,614,334,1.0,31.0,16.0,-11.108397483825684,5.737304210662842,11.230467796325684,-0.795166015625,0.375,-0.002197265625
5.367,310,2415,629,334,1.0,31.0,16.0,-14.709471702575684,5.126952648162842,16.9677734375,-0.800048828125,0.3116455078125,-0.02099609375
5.376,313,2652,631,334,1.0,31.0,16.0,-16.90673828125,5.676269054412842,24.658201217651367,-0.8001708984375,0.2523193359375,-0.0230712890625
5.384,306,2857,605,332,1.0,33.0,17.0,-17.76123046875,6.591796398162842,34.5458984375,-0.771484375,0.198974609375,-0.0107421875
5.397,316,3147,549,497,1.0,33.0,17.0,-16.9677734375,6.408690929412842,44.799800872802734,-0.670654296875,0.1427001953125,-0.0096435546875
5.423,311,3147,521,785,1.0,33.0,17.0,-13.488768577575684,4.150390625,52.185054779052734,-0.4996337890625,0.10791015625,-0.0174560546875
5.423,316,3147,620,1209,1.0,33.0,17.0,-7.019042491912842,-1.4038084745407104,54.931636810302734,-0.287109375,0.11376953125,0.0096435546875
5.428,318,3147,905,1985,1.0,33.0,17.0,0.30517578125,-11.779784202575684,52.856441497802734,-0.056396484375,0.1561279296875,0.0987548828125
5.435,327,3147,1071,2367,1.0,33.0,17.0,3.906249761581421,-26.184080123901367,46.142574310302734,0.1939697265625,0.199462890625,0.213623046875
5.456,344,3147,1373,2807,1.0,33.0,17.0,-0.8544921278953552,-40.466304779052734,32.04345703125,0.47119140625,0.2371826171875,0.2127685546875
5.458,356,3147,1820,3147,1.0,33.0,17.0,-19.6533203125,-47.973628997802734,10.253905296325684,0.63623046875,0.3414306640625,0.0460205078125
5.465,370,3147,1960,3147,1.0,33.0,17.0,-48.767086029052734,-49.743648529052734,-13.610838890075684,0.447509765625,0.3758544921875,-0.158935546875
5.483,376,3147,2131,3147,1.0,33.0,17.0,-70.86181640625,-54.504390716552734,-40.588375091552734,-0.2427978515625,0.2027587890625,-0.275390625
5.488,393,3147,2428,3147,5.0,31.0,17.0,-82.88573455810547,-62.072750091552734,-65.7958984375,-1.3251953125,0.185791015625,-0.1845703125
5.495,404,3147,2665,3147,5.0,31.0,17.0,-91.18651580810547,-64.5751953125,-63.537593841552734,-2.2432861328125,0.794677734375,0.0943603515625
5.506,411,3147,3081,3147,5.0,31.0,17.0,-91.18651580810547,-64.5751953125,-63.537593841552734,-2.5509033203125,1.6629638671875,0.3011474609375
5.517,445,3147,3115,3147,5.0,31.0,17.0,-95.70311737060547,-44.311519622802734,4.0283203125,-2.9462890625,2.3388671875,0.44677734375
5.527,533,3147,3053,3147,5.0,31.0,17.0,-108.64257049560547,-36.62109375,32.04345703125,-3.177734375,1.92724609375,0.3807373046875
5.534,508,3147,2984,3147,5.0,31.0,17.0,-108.64257049560547,-36.62109375,32.04345703125,-2.0872802734375,0.1219482421875,0.6082763671875
5.556,430,3147,2858,3147,5.0,31.0,17.0,-25.878904342651367,-6.042479991912842,-10.925292015075684,-0.7564697265625,-0.5833740234375,1.0115966796875
5.556,561,3147,2659,3147,5.0,31.0,17.0,53.405757904052734,14.343260765075684,-46.997066497802734,-0.4859619140625,0.510498046875,0.458740234375
5.564,460,3147,2840,3147,5.0,31.0,17.0,53.405757904052734,14.343260765075684,-46.997066497802734,-0.9644775390625,1.41064453125,-0.4281005859375
5.577,564,3147,2660,3147,6.0,29.0,19.0,62.377925872802734,26.855466842651367,-56.091304779052734,-1.634033203125,1.5140380859375,-0.7340087890625
5.586,555,3147,2587,3147,6.0,29.0,19.0,-13.183592796325684,16.2353515625,-52.246089935302734,-2.035888671875,1.3150634765625,-0.4716796875
5.594,546,3147,2424,3147,6.0,29.0,19.0,-13.183592796325684,16.2353515625,-52.246089935302734,-1.990234375,1.049560546875,-0.088134765625
5.621,424,3147,2370,3147,6.0,29.0,19.0,-93.26171112060547,-0.54931640625,-41.381832122802734,-1.714599609375,0.6959228515625,0.147705078125
5.621,413,3147,2266,3147,6.0,29.0,19.0,-95.64208221435547,2.685546636581421,-38.818359375,-1.4678955078125,0.3624267578125,0.3388671875
5.624,430,3147,2144,2792,6.0,29.0,19.0,-95.64208221435547,2.685546636581421,-38.818359375,-1.312744140625,0.215087890625,0.515625
5.638,390,3147,2012,1820,6.0,29.0,19.0,-42.541500091552734,20.690916061401367,-15.197752952575684,-1.12890625,0.2269287109375,0.6688232421875
5.656,382,3147,1920,1243,6.0,29.0,19.0,-1.9531248807907104,33.50830078125,5.615233898162842,-0.8658447265625,0.1954345703125,0.7598876953125
5.656,404,3147,1666,617,6.0,29.0,19.0,-1.9531248807907104,33.50830078125,5.615233898162842,-0.582275390625,-0.02099609375,0.7215576171875
5.669,416,2415,1374,370,6.0,29.0,19.0,64.39208984375,54.809566497802734,30.395505905151367,-0.32470703125,-0.3653564453125,0.5643310546875
5.676,385,1989,1233,356,3.0,33.0,20.0,81.48192596435547,53.588863372802734,24.658201217651367,-0.161376953125,-0.5562744140625,0.345703125
5.684,351,1646,1272,360,3.0,33.0,20.0,81.48192596435547,53.588863372802734,24.658201217651367,-0.1661376953125,-0.3800048828125,0.108642578125
5.698,332,1363,944,344,3.0,33.0,20.0,86.97509002685547,26.062009811401367,-14.526366233825684,-0.300048828125,-0.063232421875,-0.107666015625
5.706,336,1173,843,334,3.0,33.0,20.0,86.97509002685547,26.062009811401367,-14.526366233825684,-0.4307861328125,0.0799560546875,-0.2349853515625
5.724,318,929,725,336,3.0,33.0,20.0,84.04540252685547,14.282225608825684,-31.982419967651367,-0.4307861328125,0.0799560546875,-0.2349853515625
5.727,316,656,567,328,3.0,33.0,20.0,86.66991424560547,10.314940452575684,-31.799314498901367,-0.422607421875,0.251953125,-0.1981201171875
5.743,315,537,592,329,3.0,33.0,20.0,86.66991424560547,10.314940452575684,-31.799314498901367,-0.407958984375,0.520751953125,-0.1319580078125
5.744,315,614,557,328,3.0,33.0,20.0,94.66551971435547,12.084959983825684,-18.49365234375,-0.407958984375,0.520751953125,-0.1319580078125
5.759,313,607,614,324,3.0,33.0,20.0,74.15771484375,10.375975608825684,7.629394054412842,-0.528076171875,0.7972412109375,-0.05078125
5.765,315,631,660,324,3.0,33.0,20.0,74.15771484375,10.375975608825684,7.629394054412842,-0.6375732421875,0.6923828125,-0.04296875
5.774,310,614,710,324,4.0,28.0,17.0,45.349117279052734,7.263183116912842,15.014647483825684,-0.6375732421875,0.6923828125,-0.04296875
5.788,316,614,769,327,4.0,28.0,17.0,6.530761241912842,3.906249761581421,11.108397483825684,-0.8909912109375,0.295166015625,-0.0213623046875
5.796,315,586,784,326,4.0,28.0,17.0,6.530761241912842,3.906249761581421,11.108397483825684,-0.9715576171875,0.2744140625,-0.014404296875
5.803,315,574,778,324,4.0,28.0,17.0,4.2724609375,6.591796398162842,4.638671875,-0.9715576171875,0.2744140625,-0.014404296875
5.825,313,562,722,326,4.0,28.0,17.0,12.573241233825684,8.544921875,-1.03759765625,-0.9927978515625,0.499755859375,0.052001953125
5.826,314,514,697,327,4.0,28.0,17.0,12.573241233825684,8.544921875,-1.03759765625,-0.946044921875,0.5745849609375,0.040283203125
5.833,312,551,678,321,4.0,28.0,17.0,20.324705123901367,8.056640625,-0.54931640625,-0.946044921875,0.5745849609375,0.040283203125
5.847,313,552,631,324,4.0,28.0,17.0,19.10400390625,10.864256858825684,-0.0610351525247097,-0.818359375,0.5106201171875,0.0103759765625
5.858,313,531,647,318,4.0,28.0,17.0,19.10400390625,10.864256858825684,-0.0610351525247097,-0.7672119140625,0.4130859375,0.0338134765625
5.864,313,514,660,323,4.0,28.0,17.0,9.521484375,12.145995140075684,0.1220703050494194,-0.7672119140625,0.4130859375,0.0338134765625
5.877,312,548,738,323,4.0,30.0,17.0,-5.554198741912842,9.3994140625,4.21142578125,-0.704345703125,0.2205810546875,0.0511474609375
5.886,314,614,767,324,4.0,30.0,17.0,-5.554198741912842,9.3994140625,4.21142578125,-0.67919921875,0.1644287109375,0.02001953125
5.894,315,584,786,324,4.0,30.0,17.0,-7.324218273162842,7.568358898162842,8.1787109375,-0.67919921875,0.1644287109375,0.02001953125
5.908,315,1369,747,328,4.0,30.0,17.0,-5.310058116912842,5.798339366912842,15.502928733825684,-0.6221923828125,0.139404296875,-0.0377197265625
5.927,316,1652,749,330,4.0,30.0,17.0,-5.310058116912842,5.798339366912842,15.502928733825684,-0.6485595703125,0.1866455078125,-0.018798828125
5.928,313,2012,636,332,4.0,30.0,17.0,-3.784179449081421,4.94384765625,21.301267623901367,-0.6485595703125,0.1866455078125,-0.018798828125
5.937,315,2561,526,334,4.0,30.0,17.0,-0.54931640625,3.173827886581421,32.65380859375,-0.6968994140625,0.400634765625,-0.0003662109375
5.959,310,2828,470,336,4.0,30.0,17.0,1.4038084745407104,-0.1220703050494194,48.400875091552734,-0.6968994140625,0.400634765625,-0.0003662109375
5.963,311,3147,424,330,4.0,30.0,17.0,-1.0986328125,-3.967284917831421,62.499996185302734,-0.625,0.4139404296875,-0.0391845703125
5.967,307,3147,398,859,4.0,30.0,17.0,-7.995604991912842,-6.347655773162842,69.580078125,-0.409423828125,0.4085693359375,0.010498046875
5.976,310,3147,401,1422,2.0,32.0,19.0,-15.502928733825684,-8.11767578125,69.39697265625,-0.409423828125,0.4085693359375,0.010498046875
5.983,313,3147,605,1904,2.0,32.0,19.0,-20.141599655151367,-11.596678733825684,64.453125,-0.3543701171875,0.4710693359375,0.1165771484375
5.997,327,3147,1063,2622,2.0,32.0,19.0,-21.118162155151367,-18.24951171875,56.701656341552734,-0.116943359375,0.3125,0.346923828125
6.006,337,3147,1396,3018,2.0,32.0,19.0,-22.644041061401367,-29.968259811401367,40.893550872802734,-0.116943359375,0.3125,0.346923828125
6.030,351,3147,1686,3147,2.0,32.0,19.0,-43.212886810302734,-39.61181640625,15.747069358825684,0.11767578125,0.215576171875,0.25
6.030,373,3147,1838,3147,2.0,32.0,19.0,-84.28954315185547,-33.8134765625,-5.310058116912842,-0.0478515625,-0.0780029296875,-0.2679443359375
6.035,487,3147,1829,3147,2.0,32.0,19.0,-111.38915252685547,-17.4560546875,-21.789548873901367,-0.0478515625,-0.0780029296875,-0.2679443359375
6.045,425,3147,2074,3147,2.0,32.0,19.0,-104.30907440185547,-6.774901866912842,-43.212886810302734,-0.760986328125,-0.34619140625,-0.333740234375
6.060,430,3147,2432,3147,2.0,32.0,19.0,-83.80126190185547,-8.11767578125,-52.612300872802734,-2.005615234375,1.4447021484375,0.1964111328125
6.066,441,3147,2734,3147,2.0,32.0,19.0,-74.40185546875,-13.732909202575684,-25.817869186401367,-2.005615234375,1.4447021484375,0.1964111328125
6.074,424,3147,2809,3147,4.0,33.0,17.0,-75.5615234375,-9.33837890625,15.014647483825684,-2.1737060546875,2.4007568359375,0.239501953125
6.087,411,3147,2842,3147,4.0,33.0,17.0,-86.48680877685547,-2.44140625,35.46142578125,-3.0010986328125,1.0655517578125,0.4202880859375
6.096,402,3147,2757,3147,4.0,33.0,17.0,-97.77831268310547,-1.0986328125,45.288082122802734,-3.0010986328125,1.0655517578125,0.4202880859375
6.104,416,3147,2637,3147,4.0,33.0,17.0,-64.88037109375,2.563476324081421,30.944822311401367,-1.8341064453125,-0.654541015625,0.827392578125
6.133,391,3147,2533,3147,4.0,33.0,17.0,16.11328125,12.390135765075684,-2.01416015625,-0.602294921875,1.12353515625,-0.209716796875
6.133,390,3147,2539,3147,4.0,33.0,17.0,94.54344940185547,26.550291061401367,-19.287109375,-0.602294921875,1.12353515625,-0.209716796875
6.134,388,3147,2498,3147,4.0,33.0,17.0,100.83007049560547,31.616209030151367,-33.935546875,-0.9530029296875,1.714111328125,-0.796630859375
6.147,385,3147,2449,3147,4.0,33.0,17.0,26.306150436401367,23.559568405151367,-52.124019622802734,-1.51953125,1.37646484375,-0.714599609375
6.156,385,3147,2407,3147,4.0,33.0,17.0,-48.095699310302734,10.803221702575684,-56.945796966552734,-1.9403076171875,0.9375,-0.39892578125
6.173,383,3147,2359,3147,4.0,33.0,17.0,-77.2705078125,-0.30517578125,-44.189449310302734,-2.030517578125,0.6783447265625,-0.100341796875
6.177,377,3147,2139,3147,6.0,34.0,20.0,-74.15771484375,-6.774901866912842,-26.245115280151367,-1.8436279296875,0.5379638671875,0.1375732421875
6.186,376,3147,2008,3147,6.0,34.0,20.0,-56.396480560302734,-9.1552734375,-13.549803733825684,-1.54736328125,0.4990234375,0.33203125
6.194,371,3147,1880,2879,6.0,34.0,20.0,-30.761716842651367,-5.676269054412842,-4.7607421875,-1.2921142578125,0.502197265625,0.4349365234375
6.207,361,3147,1640,1860,6.0,34.0,20.0,-2.38037109375,5.493163585662842,8.85009765625,-1.0565185546875,0.5234375,0.4915771484375
6.215,354,3147,1480,1229,6.0,34.0,20.0,22.277830123901367,22.033689498901367,30.273435592651367,-0.7962646484375,0.4710693359375,0.5677490234375
6.235,347,3147,1306,778,6.0,34.0,20.0,41.137691497802734,39.00146484375,47.851558685302734,-0.5242919921875,0.1884765625,0.6453857421875
6.238,336,3147,1112,433,6.0,34.0,20.0,56.335445404052734,50.659175872802734,48.583980560302734,-0.233642578125,-0.3052978515625,0.64208984375
6.246,331,3147,1063,361,6.0,34.0,20.0,69.15283203125,52.124019622802734,28.991697311401367,-0.02392578125,-0.65380859375,0.4932861328125
6.254,327,2576,1018,359,6.0,34.0,20.0,78.125,42.297359466552734,-1.5869139432907104,-0.0721435546875,-0.483642578125,0.248291015625
6.274,328,1921,765,345,0.0,32.0,14.0,83.19091033935547,26.062009811401367,-26.550291061401367,-0.3046875,-0.00146484375,-0.0479736328125
6.276,348,1658,728,344,0.0,32.0,14.0,85.38817596435547,13.122557640075684,-37.59765625,-0.497314453125,0.29248046875,-0.309326171875
6.284,318,1624,744,345,0.0,32.0,14.0,83.31298065185547,8.1787109375,-36.68212890625,-0.551025390625,0.3460693359375,-0.4039306640625
6.297,321,1474,680,336,0.0,32.0,14.0,78.55224609375,8.60595703125,-28.381345748901367,-0.5181884765625,0.421630859375,-0.3876953125
6.306,327,1428,631,338,0.0,32.0,14.0,74.76806640625,10.437010765075684,-17.578125,-0.4869384765625,0.5499267578125,-0.3759765625
6.314,318,1422,636,334,0.0,32.0,14.0,65.85693359375,10.864256858825684,-8.30078125,-0.509033203125,0.641845703125,-0.306640625
6.345,318,1399,618,332,0.0,32.0,14.0,45.837398529052734,8.23974609375,-1.0986328125,-0.5877685546875,0.67138671875,-0.147705078125
6.345,321,1399,634,330,0.0,32.0,14.0,24.475095748901367,3.295898199081421,4.5166015625,-0.707275390625,0.6231689453125,-0.005615234375
6.346,318,1447,648,332,0.0,32.0,14.0,12.634276390075684,-0.7324218153953552,7.446288585662842,-0.8096923828125,0.5234375,0.0498046875
6.358,318,1476,713,332,0.0,32.0,14.0,9.6435546875,-2.624511480331421,6.652831554412842,-0.8447265625,0.443359375,0.0494384765625
6.371,317,1453,731,332,1.0,31.0,18.0,10.742186546325684,-4.7607421875,2.197265625,-0.84619140625,0.428466796875,0.03857421875
6.381,321,1399,737,334,1.0,31.0,18.0,13.549803733825684,-7.385253429412842,-2.807616949081421,-0.8438720703125,0.47265625,0.024658203125
6.388,318,1383,774,332,1.0,31.0,18.0,17.15087890625,-8.60595703125,-5.554198741912842,-0.8341064453125,0.529296875,0.01123046875
6.396,321,1341,780,332,1.0,31.0,18.0,19.22607421875,-7.812499523162842,-6.286620616912842,-0.8197021484375,0.54833984375,0.0076904296875
6.404,318,1369,784,331,1.0,31.0,18.0,17.2119140625,-5.798339366912842,-6.103515148162842,-0.8076171875,0.525390625,0.015869140625
6.417,319,1480,777,332,1.0,31.0,18.0,11.413573265075684,-3.784179449081421,-5.371093273162842,-0.7930908203125,0.4632568359375,0.0301513671875
6.438,319,1615,818,333,1.0,31.0,18.0,5.310058116912842,-2.929687261581421,-4.08935546875,-0.7764892578125,0.3785400390625,0.04248046875
6.441,321,1769,835,332,1.0,31.0,18.0,1.7700194120407104,-3.173827886581421,-1.7700194120407104,-0.7662353515625,0.32275390625,0.044677734375
6.503,321,1970,818,333,1.0,31.0,18.0,1.5869139432907104,-3.906249761581421,2.685546636581421,-0.7625732421875,0.3155517578125,0.0364990234375
6.503,321,2080,818,334,1.0,31.0,18.0,2.685546636581421,-4.82177734375,8.60595703125,-0.7506103515625,0.3223876953125,0.0205078125
6.503,319,2225,808,336,1.0,30.0,16.0,2.13623046875,-5.676269054412842,14.587401390075684,-0.724365234375,0.3143310546875,-0.0064697265625
6.503,321,2638,793,334,1.0,30.0,16.0,-1.6479490995407104,-5.676269054412842,20.874021530151367,-0.699462890625,0.3043212890625,-0.0345458984375
6.504,317,2807,725,338,1.0,30.0,16.0,-7.202147960662842,-4.8828125,28.808591842651367,-0.678955078125,0.3018798828125,-0.0306396484375
6.504,315,3125,620,338,1.0,30.0,16.0,-12.451170921325684,-4.638671875,37.41455078125,-0.6358642578125,0.283203125,0.01123046875
6.507,316,3147,669,639,1.0,30.0,16.0,-16.357421875,-5.310058116912842,43.762203216552734,-0.5572509765625,0.241943359375,0.0506591796875
6.518,318,3147,753,1132,1.0,30.0,16.0,-15.991209983825684,-7.141112804412842,46.752925872802734,-0.4422607421875,0.1943359375,0.079345703125
6.523,318,3147,788,1583,1.0,30.0,16.0,-9.70458984375,-12.084959983825684,46.752925872802734,-0.2779541015625,0.1580810546875,0.1256103515625
6.542,328,3147,1054,2339,1.0,30.0,16.0,-0.3662109076976776,-21.789548873901367,43.395992279052734,-0.0194091796875,0.093505859375,0.169677734375
6.546,345,3147,1251,2844,1.0,30.0,16.0,3.906249761581421,-34.36279296875,32.470703125,0.310791015625,0.0521240234375,0.1561279296875
6.554,342,3147,1569,3147,1.0,30.0,16.0,-10.437010765075684,-43.640132904052734,15.808104515075684,0.5498046875,0.213623046875,0.0596923828125
6.577,361,3147,1846,3147,1.0,33.0,19.0,-40.710445404052734,-47.241207122802734,0.7324218153953552,0.4696044921875,0.40283203125,-0.1162109375
6.579,370,3147,1961,3147,1.0,33.0,19.0,-63.598628997802734,-50.048824310302734,-19.6533203125,-0.10546875,0.228759765625,-0.3704833984375
6.584,391,3147,2105,3147,1.0,33.0,19.0,-71.22802734375,-53.466793060302734,-49.072261810302734,-1.082763671875,-0.0147705078125,-0.4375
6.597,404,3147,2538,3147,1.0,33.0,19.0,-78.7353515625,-55.175777435302734,-59.692378997802734,-2.00341796875,0.507080078125,-0.10107421875
6.606,414,3147,2984,3147,1.0,33.0,19.0,-92.22411346435547,-50.659175872802734,-30.517576217651367,-2.326171875,1.62744140625,0.23193359375
6.613,430,3147,2876,3147,1.0,33.0,19.0,-92.22411346435547,-50.659175872802734,-30.517576217651367,-2.6466064453125,2.6031494140625,0.3504638671875
6.628,402,3147,3081,3147,1.0,33.0,19.0,-110.10741424560547,-26.550291061401367,35.2783203125,-3.18798828125,2.5274658203125,0.2440185546875
6.646,406,3147,3076,3147,1.0,33.0,19.0,-92.77342987060547,-18.12744140625,40.771480560302734,-2.394287109375,0.6192626953125,0.5577392578125
6.647,398,3147,2992,3147,1.0,33.0,19.0,-92.77342987060547,-18.12744140625,40.771480560302734,-0.9127197265625,-0.9110107421875,1.278564453125
6.659,390,3147,2753,3147,3.0,30.0,18.0,2.868652105331421,15.624999046325684,-40.832515716552734,-0.5576171875,-0.447998046875,0.9439697265625
6.665,388,3147,2748,3147,3.0,30.0,18.0,82.33641815185547,44.006343841552734,-34.5458984375,-0.9918212890625,0.6358642578125,-0.1343994140625
6.683,388,3147,2736,3147,3.0,30.0,18.0,82.33641815185547,44.006343841552734,-34.5458984375,-1.568115234375,1.3739013671875,-0.6771240234375
6.688,411,3147,2616,3147,3.0,30.0,18.0,57.678218841552734,42.907711029052734,-9.09423828125,-1.9813232421875,1.571044921875,-0.635986328125
6.699,391,3147,2530,3147,3.0,30.0,18.0,-5.920409679412842,25.268552780151367,-4.69970703125,-1.9805908203125,1.350830078125,-0.3525390625
6.703,401,3147,2382,3147,3.0,30.0,18.0,-5.920409679412842,25.268552780151367,-4.69970703125,-1.7236328125,0.874267578125,0.0128173828125
6.717,382,3147,2141,3147,3.0,30.0,18.0,-57.067867279052734,10.375975608825684,-1.7700194120407104,-1.4898681640625,0.4700927734375,0.3262939453125
6.726,373,3147,1921,3147,3.0,30.0,18.0,-36.2548828125,16.54052734375,6.958007335662842,-1.329345703125,0.38232421875,0.484375
6.768,364,3147,1743,3031,3.0,30.0,18.0,-36.2548828125,16.54052734375,6.958007335662842,-1.16748046875,0.46533203125,0.4798583984375
6.769,348,3147,1393,2257,3.0,30.0,18.0,36.865234375,38.0859375,45.227046966552734,-0.9547119140625,0.461669921875,0.4276123046875
6.769,330,3147,1031,1792,5.0,29.0,12.0,56.213375091552734,46.569820404052734,52.490230560302734,-0.6402587890625,0.199951171875,0.3751220703125
6.770,327,3147,883,1383,5.0,29.0,12.0,56.213375091552734,46.569820404052734,52.490230560302734,-0.18408203125,-0.3140869140625,0.289306640625
6.785,323,3147,858,859,5.0,29.0,12.0,57.434078216552734,35.58349609375,5.493163585662842,0.218505859375,-0.6397705078125,0.220947265625
6.786,323,3147,890,519,5.0,29.0,12.0,61.096187591552734,17.08984375,-26.794431686401367,0.2530517578125,-0.3470458984375,0.17578125
6.807,324,3147,934,346,5.0,29.0,12.0,61.096187591552734,17.08984375,-26.794431686401367,-0.0936279296875,0.1636962890625,-0.0233154296875
6.808,328,2580,815,346,5.0,29.0,12.0,94.17723846435547,-7.568358898162842,-51.330562591552734,-0.48681640625,0.39013671875,-0.2242431640625
6.816,323,2296,802,343,5.0,29.0,12.0,85.20507049560547,-4.0283203125,-51.940914154052734,-0.620849609375,0.4056396484375,-0.2236328125
6.823,322,2191,820,345,5.0,29.0,12.0,85.20507049560547,-4.0283203125,-51.940914154052734,-0.5440673828125,0.491943359375,-0.2186279296875
6.849,321,1922,802,334,5.0,29.0,12.0,77.69775390625,16.6015625,-20.080564498901367,-0.4876708984375,0.740966796875,-0.2747802734375
6.850,316,1931,753,334,5.0,29.0,12.0,77.69775390625,16.6015625,-20.080564498901367,-0.5458984375,0.9173583984375,-0.274658203125
6.853,316,1820,683,334,1.0,32.0,19.0,75.37841796875,19.59228515625,-3.906249761581421,-0.5458984375,0.9173583984375,-0.274658203125
6.884,315,1478,720,329,1.0,32.0,19.0,13.671874046325684,8.23974609375,2.197265625,-0.7762451171875,0.50830078125,-0.08740234375
6.894,315,1540,720,329,1.0,32.0,19.0,13.671874046325684,8.23974609375,2.197265625,-0.810546875,0.249267578125,0.00830078125
6.894,316,1687,744,332,1.0,32.0,19.0,-11.962889671325684,2.197265625,-0.8544921278953552,-0.809326171875,0.1395263671875,0.0732421875
6.895,313,1700,687,332,1.0,32.0,19.0,-19.8974609375,-2.3193359375,-1.6479490995407104,-0.809326171875,0.1395263671875,0.0732421875
6.916,316,1735,648,330,1.0,32.0,19.0,-2.44140625,-3.601073980331421,5.737304210662842,-0.848388671875,0.373046875,0.1134033203125
6.916,314,1806,646,332,1.0,32.0,19.0,-2.44140625,-3.601073980331421,5.737304210662842,-0.83935546875,0.5206298828125,0.117919921875
6.923,315,1882,656,330,1.0,32.0,19.0,7.446288585662842,-0.54931640625,10.253905296325684,-0.83935546875,0.5206298828125,0.117919921875
6.953,314,2041,673,331,1.0,32.0,19.0,8.23974609375,7.446288585662842,11.901854515075684,-0.7783203125,0.5128173828125,0.072509765625
6.953,315,2105,684,334,1.0,32.0,19.0,8.23974609375,7.446288585662842,11.901854515075684,-0.7696533203125,0.47998046875,0.038330078125
6.954,313,2230,625,330,0.0,35.0,14.0,2.807616949081421,11.108397483825684,12.512206077575684,-0.7696533203125,0.47998046875,0.038330078125
6.967,313,2340,660,331,0.0,35.0,14.0,-2.868652105331421,13.488768577575684,14.160155296325684,-0.78271484375,0.4573974609375,-0.0338134765625
6.976,314,2432,629,332,0.0,35.0,14.0,-7.507323741912842,14.526366233825684,16.29638671875,-0.7767333984375,0.4090576171875,-0.072021484375
6.985,313,2512,625,332,0.0,35.0,14.0,-11.108397483825684,14.221190452575684,18.5546875,-0.7767333984375,0.4090576171875,-0.072021484375
6.997,310,2851,538,332,0.0,35.0,14.0,-16.90673828125,11.901854515075684,26.855466842651367,-0.7359619140625,0.2984619140625,-0.09716796875
7.008,313,3000,499,334,0.0,35.0,14.0,-16.90673828125,11.901854515075684,26.855466842651367,-0.70556640625,0.2703857421875,-0.077880859375
7.032,313,3147,499,344,0.0,35.0,14.0,-18.310546875,10.498045921325684,34.423828125,-0.70556640625,0.2703857421875,-0.077880859375
7.036,310,3147,442,648,0.0,35.0,14.0,-22.644041061401367,5.615233898162842,45.654293060302734,-0.5753173828125,0.3258056640625,0.004150390625
7.037,313,3147,490,1031,0.0,35.0,14.0,-22.644041061401367,5.615233898162842,45.654293060302734,-0.4444580078125,0.34423828125,0.0462646484375
7.055,314,3147,551,1416,0.0,35.0,14.0,-22.766111373901367,0.2441406100988388,45.471187591552734,-0.4444580078125,0.34423828125,0.0462646484375
7.058,310,3147,693,2041,-1.0,35.0,17.0,-19.95849609375,-9.521484375,40.222164154052734,-0.0087890625,0.1376953125,0.122802734375
7.066,308,3147,869,2407,-1.0,35.0,17.0,-14.587401390075684,-22.399900436401367,31.677244186401367,-0.0087890625,0.1376953125,0.122802734375
7.074,322,3147,1042,2861,-1.0,35.0,17.0,-10.986327171325684,-32.53173828125,18.98193359375,0.3533935546875,0.0640869140625,0.0372314453125
7.099,331,3147,1283,3147,-1.0,35.0,17.0,-23.742673873901367,-32.40966796875,2.25830078125,0.4833984375,0.3416748046875,-0.2008056640625
7.103,342,3147,1501,3147,-1.0,35.0,17.0,-56.030269622802734,-24.047849655151367,-11.718749046325684,0.4833984375,0.3416748046875,-0.2008056640625
7.107,348,3147,1602,3147,-1.0,35.0,17.0,-89.29442596435547,-17.51708984375,-22.705076217651367,-0.08447265625,0.3258056640625,-0.2611083984375
7.117,359,3147,1808,3147,-1.0,35.0,17.0,-114.37987518310547,-17.9443359375,-37.29248046875,-1.9490966796875,0.3514404296875,0.029296875
7.137,363,3147,1931,3147,-1.0,35.0,17.0,-134.1552734375,-21.484373092651367,-45.532222747802734,-1.9490966796875,0.3514404296875,0.029296875
7.137,365,3147,2155,3147,-1.0,35.0,17.0,-139.16015625,-22.766111373901367,-27.221677780151367,-2.3585205078125,1.0572509765625,0.2999267578125
7.159,371,3147,2368,3147,3.0,34.0,13.0,-116.14989471435547,-18.9208984375,2.685546636581421,-2.70458984375,2.2835693359375,0.3729248046875
7.159,369,3147,2271,3147,3.0,34.0,13.0,-80.13916015625,-13.305663108825684,19.34814453125,-2.70458984375,2.2835693359375,0.3729248046875
7.164,364,3147,2158,3147,3.0,34.0,13.0,-47.058101654052734,-6.713866710662842,30.029294967651367,-2.6190185546875,1.615234375,0.3763427734375
7.188,364,3147,1944,3147,3.0,34.0,13.0,-5.859374523162842,4.0283203125,17.2119140625,-0.8076171875,-0.3001708984375,0.5963134765625
7.189,360,3147,1922,3147,3.0,34.0,13.0,32.77587890625,18.37158203125,-17.39501953125,-0.8076171875,-0.3001708984375,0.5963134765625
7.194,360,3147,1882,3147,3.0,34.0,13.0,67.87109375,31.433103561401367,-31.433103561401367,-1.001708984375,0.4527587890625,-0.1190185546875
7.208,354,3147,1862,3147,3.0,34.0,13.0,91.67479705810547,32.8369140625,-23.315427780151367,-1.8848876953125,1.5426025390625,-0.5848388671875
7.216,356,3147,1808,3147,3.0,34.0,13.0,68.2373046875,24.658201217651367,-10.009765625,-1.8848876953125,1.5426025390625,-0.5848388671875
7.224,355,3147,1665,3147,3.0,34.0,13.0,11.779784202575684,16.41845703125,-0.2441406100988388,-1.86865234375,1.3565673828125,-0.26806640625
7.237,346,3147,1357,3147,3.0,34.0,13.0,-33.203125,11.413573265075684,3.601073980331421,-1.3780517578125,0.58349609375,0.202880859375
7.260,332,3147,1206,3147,3.0,31.0,15.0,-46.142574310302734,12.451170921325684,6.469726085662842,-1.3780517578125,0.58349609375,0.202880859375
7.261,324,3147,1038,3147,3.0,31.0,15.0,-32.65380859375,19.22607421875,15.808104515075684,-1.2705078125,0.485595703125,0.3192138671875
7.289,319,3147,854,3095,3.0,31.0,15.0,-7.507323741912842,28.747556686401367,31.738279342651367,-0.8663330078125,0.4210205078125,0.4588623046875
7.293,315,3147,740,2638,3.0,31.0,15.0,17.7001953125,39.6728515625,44.555660247802734,-0.8663330078125,0.4210205078125,0.4588623046875
7.307,316,3147,644,2263,3.0,31.0,15.0,36.4990234375,49.438472747802734,43.945308685302734,-0.561279296875,0.09326171875,0.42578125
7.314,313,3147,616,1413,3.0,31.0,15.0,47.729488372802734,53.039546966552734,27.404783248901367,-0.251220703125,-0.2930908203125,0.29248046875
7.314,313,3147,620,894,3.0,31.0,15.0,55.053707122802734,46.203609466552734,-0.7324218153953552,-0.0706787109375,-0.3916015625,0.1142578125
7.315,316,3147,656,408,3.0,31.0,15.0,62.438961029052734,28.869626998901367,-31.433103561401367,-0.154541015625,-0.112060546875,-0.06005859375
7.328,317,2541,584,338,3.0,31.0,15.0,67.87109375,7.446288585662842,-53.588863372802734,-0.378173828125,0.2113037109375,-0.2042236328125
7.338,316,2050,540,334,3.0,31.0,15.0,64.208984375,-7.263183116912842,-62.377925872802734,-0.52685546875,0.2735595703125,-0.28173828125
7.344,316,1504,539,330,0.0,35.0,18.0,57.373043060302734,-7.324218273162842,-57.067867279052734,-0.55126953125,0.2283935546875,-0.326416015625
7.362,318,711,516,327,0.0,35.0,18.0,66.95556640625,2.990722417831421,-39.97802734375,-0.529296875,0.351806640625,-0.3544921875
7.366,313,603,509,327,0.0,35.0,18.0,90.63719940185547,11.962889671325684,-18.85986328125,-0.5582275390625,0.6226806640625,-0.298828125
7.377,313,659,428,327,0.0,35.0,18.0,101.56249237060547,13.916014671325684,-0.6713866591453552,-0.6380615234375,0.786865234375,-0.1573486328125
7.393,313,634,400,327,0.0,35.0,18.0,87.76854705810547,11.962889671325684,9.8876953125,-0.6932373046875,0.698974609375,-0.0357666015625
7.399,310,640,382,325,0.0,35.0,18.0,60.729976654052734,9.521484375,9.82666015625,-0.737060546875,0.5208740234375,0.030029296875
7.404,310,625,351,326,0.0,35.0,18.0,32.16552734375,5.981444835662842,2.0751953125,-0.7449951171875,0.3692626953125,0.0697021484375
7.418,309,632,327,323,0.0,35.0,18.0,11.718749046325684,1.9531248807907104,-6.469726085662842,-0.7374267578125,0.245849609375,0.0626220703125
7.426,304,631,338,324,0.0,35.0,18.0,7.690429210662842,-0.4272460639476776,-9.33837890625,-0.7955322265625,0.227294921875,0.0189208984375
7.434,309,607,316,316,0.0,35.0,18.0,18.61572265625,-1.03759765625,-5.0048828125,-0.863037109375,0.309326171875,-0.022216796875
7.471,308,585,321,321,0.0,34.0,13.0,36.865234375,-0.8544921278953552,0.9765624403953552,-0.8787841796875,0.4317626953125,-0.052001953125
7.472,308,607,292,318,0.0,34.0,13.0,53.161617279052734,-1.03759765625,3.417968511581421,-0.8333740234375,0.5633544921875,-0.0794677734375
7.472,308,600,315,318,0.0,34.0,13.0,58.776851654052734,-2.746581792831421,1.6479490995407104,-0.759033203125,0.6683349609375,-0.105224609375
7.478,308,588,342,323,0.0,34.0,13.0,50.537105560302734,-5.615233898162842,-2.0751953125,-0.701171875,0.6962890625,-0.1044921875
7.486,308,572,369,324,0.0,34.0,13.0,36.7431640625,-8.1787109375,-3.906249761581421,-0.662841796875,0.6611328125,-0.0927734375
7.497,308,573,373,323,0.0,34.0,13.0,26.306150436401367,-9.765625,-1.8920897245407104,-0.630615234375,0.616455078125,-0.09375
7.508,314,561,437,326,0.0,34.0,13.0,18.85986328125,-10.925292015075684,1.6479490995407104,-0.609130859375,0.5465087890625,-0.0821533203125
7.516,308,685,466,327,0.0,34.0,13.0,12.573241233825684,-12.573241233825684,3.356933355331421,-0.6002197265625,0.4287109375,-0.0455322265625
7.523,313,721,495,328,0.0,34.0,13.0,9.46044921875,-14.404295921325684,3.173827886581421,-0.60009765625,0.3170166015625,-0.0091552734375
7.538,316,1112,592,328,0.0,33.0,15.0,10.192870140075684,-15.136717796325684,3.723144292831421,-0.607177734375,0.2816162109375,0.0068359375
7.567,315,1662,594,333,0.0,33.0,15.0,11.230467796325684,-14.770506858825684,6.958007335662842,-0.628662109375,0.3392333984375,0.0020751953125
7.567,315,1898,543,312,0.0,33.0,15.0,9.09423828125,-13.610838890075684,13.671874046325684,-0.666259765625,0.4610595703125,-0.0264892578125
7.568,318,2246,539,316,0.0,33.0,15.0,4.2724609375,-12.268065452575684,23.986814498901367,-0.6907958984375,0.555419921875,-0.08642578125
7.576,315,2587,485,345,0.0,33.0,15.0,-3.601073980331421,-10.681151390075684,34.3017578125,-0.671142578125,0.507080078125,-0.1400146484375
7.584,310,2964,453,334,0.0,33.0,15.0,-16.78466796875,-8.1787109375,41.137691497802734,-0.5941162109375,0.36181640625,-0.12060546875
7.607,312,3147,389,989,0.0,33.0,15.0,-32.470703125,-6.286620616912842,46.020503997802734,-0.47802734375,0.247802734375,-0.0130615234375
7.608,315,3147,384,1602,0.0,33.0,15.0,-39.0625,-8.056640625,51.269527435302734,-0.364990234375,0.1734619140625,0.128662109375
7.615,310,3147,376,2020,0.0,33.0,15.0,-26.306150436401367,-15.319823265075684,55.541988372802734,-0.233154296875,0.0614013671875,0.267822265625
7.627,318,3147,758,2798,0.0,33.0,15.0,-0.3662109076976776,-28.503416061401367,50.903316497802734,0.0347900390625,-0.1192626953125,0.3277587890625
7.636,334,3147,1189,3147,0.0,33.0,17.0,13.366698265075684,-42.480464935302734,28.381345748901367,0.4384765625,-0.1143798828125,0.2279052734375
7.644,349,3147,1653,3147,0.0,33.0,17.0,-8.72802734375,-47.546382904052734,-5.126952648162842,0.589111328125,0.2410888671875,-0.0074462890625
7.674,373,3147,1967,3147,0.0,33.0,17.0,-51.330562591552734,-43.640132904052734,-36.62109375,0.1646728515625,0.451171875,-0.4169921875
7.675,388,3147,2145,3147,0.0,33.0,17.0,-87.21923065185547,-39.1845703125,-69.82421875,-0.7188720703125,0.250244140625,-0.7747802734375
7.675,402,3147,2486,3147,0.0,33.0,17.0,-118.46923065185547,-38.63525390625,-92.83446502685547,-1.7904052734375,0.2996826171875,-0.6234130859375
7.688,430,3147,2992,3147,0.0,33.0,17.0,-134.765625,-38.2080078125,-70.25146484375,-2.573974609375,1.0751953125,-0.2012939453125
7.703,424,3147,2996,3147,0.0,33.0,17.0,-116.82128143310547,-33.75244140625,-12.390135765075684,-3.0377197265625,2.1806640625,-0.0054931640625
7.704,430,3147,2973,3147,0.0,33.0,17.0,-95.09276580810547,-31.066892623901367,41.992183685302734,-3.404052734375,2.5947265625,-0.0533447265625
7.717,424,3147,2943,3147,0.0,33.0,17.0,-82.51952362060547,-31.738279342651367,62.133785247802734,-2.5223388671875,1.1429443359375,0.47265625
7.726,410,3147,2813,3147,0.0,33.0,17.0,-59.692378997802734,-32.8369140625,20.751951217651367,-0.893310546875,-0.5023193359375,1.4161376953125
7.734,411,3147,2658,3147,3.0,32.0,19.0,-6.958007335662842,-14.709471702575684,-31.005857467651367,-0.4063720703125,-0.2984619140625,1.1641845703125
7.747,411,3147,2659,3147,3.0,32.0,19.0,77.33154296875,19.95849609375,-40.954586029052734,-0.8311767578125,0.746826171875,-0.056396484375
7.776,411,3147,2637,3147,3.0,32.0,19.0,121.45995330810547,38.330078125,-29.968259811401367,-1.486572265625,1.5179443359375,-0.8492431640625
7.777,411,3147,2505,3147,3.0,32.0,19.0,121.45995330810547,38.330078125,-29.968259811401367,-1.9573974609375,1.71728515625,-0.8922119140625
7.778,411,3147,2389,3147,3.0,32.0,19.0,15.502928733825684,18.4326171875,-12.145995140075684,-1.9725341796875,1.4044189453125,-0.5517578125
7.786,410,3147,2379,3147,3.0,32.0,19.0,-38.4521484375,8.6669921875,-13.061522483825684,-1.7391357421875,0.9346923828125,-0.156494140625
7.794,391,3147,2295,3147,3.0,32.0,19.0,-38.4521484375,8.6669921875,-13.061522483825684,-1.5054931640625,0.664306640625,0.15625
7.812,389,3147,1997,3147,3.0,32.0,19.0,-57.800289154052734,17.88330078125,-5.859374523162842,-1.3223876953125,0.587158203125,0.3516845703125
7.816,376,3147,1816,2876,3.0,32.0,19.0,-36.19384765625,28.320310592651367,7.019042491912842,-1.10986328125,0.5235595703125,0.459228515625
7.823,364,3147,1613,2151,3.0,32.0,19.0,-36.19384765625,28.320310592651367,7.019042491912842,-0.8206787109375,0.3616943359375,0.4796142578125
7.838,346,3147,1178,499,2.0,33.0,17.0,21.179197311401367,51.513668060302734,28.503416061401367,-0.5076904296875,0.0382080078125,0.412841796875
7.846,342,2621,1031,361,2.0,33.0,17.0,39.6728515625,54.565425872802734,19.53125,-0.1966552734375,-0.4013671875,0.3369140625
7.854,442,2037,853,344,2.0,33.0,17.0,39.6728515625,54.565425872802734,19.53125,0.0172119140625,-0.69775390625,0.328857421875
7.876,364,1790,891,334,2.0,33.0,17.0,36.4990234375,40.344234466552734,-18.37158203125,0.0128173828125,-0.6217041015625,0.2996826171875
7.876,333,1494,871,346,2.0,33.0,17.0,44.128414154052734,32.470703125,-25.390623092651367,-0.1605224609375,-0.260986328125,0.1063232421875
7.884,327,1222,912,334,2.0,33.0,17.0,44.128414154052734,32.470703125,-25.390623092651367,-0.311279296875,0.1881103515625,-0.1201171875
7.905,321,864,889,330,2.0,33.0,17.0,79.833984375,27.465818405151367,-31.188962936401367,-0.336669921875,0.6080322265625,-0.213623046875
7.909,327,853,907,331,2.0,33.0,17.0,76.96533203125,23.132322311401367,-29.052732467651367,-0.3514404296875,0.937744140625,-0.2354736328125
7.914,324,838,855,332,2.0,33.0,17.0,76.96533203125,23.132322311401367,-29.052732467651367,-0.5015869140625,1.1063232421875,-0.2623291015625
7.927,323,813,932,328,2.0,33.0,17.0,36.43798828125,7.263183116912842,-8.97216796875,-0.677001953125,1.0189208984375,-0.3076171875
7.936,318,711,946,330,0.0,31.0,15.0,6.408690929412842,3.479003667831421,1.6479490995407104,-0.715087890625,0.766845703125,-0.3216552734375
7.944,323,698,1067,330,0.0,31.0,15.0,6.408690929412842,3.479003667831421,1.6479490995407104,-0.6767578125,0.5416259765625,-0.257568359375
7.957,323,730,1108,327,0.0,31.0,15.0,-36.68212890625,1.2817381620407104,-1.15966796875,-0.6890869140625,0.3905029296875,-0.1636962890625
7.982,322,683,1091,327,0.0,31.0,15.0,-37.65869140625,-3.295898199081421,-11.291502952575684,-0.779052734375,0.300537109375,-0.0911865234375
7.984,323,710,1067,328,0.0,31.0,15.0,-37.65869140625,-3.295898199081421,-11.291502952575684,-0.779052734375,0.300537109375,-0.0911865234375
7.988,324,633,1070,324,0.0,31.0,15.0,-18.06640625,-13.366698265075684,-23.803709030151367,-0.9058837890625,0.3260498046875,-0.040771484375
7.996,321,652,1085,330,0.0,31.0,15.0,-18.06640625,-13.366698265075684,-23.803709030151367,-0.8890380859375,0.371337890625,-0.0606689453125
8.009,317,673,1067,327,0.0,31.0,15.0,-9.1552734375,-14.648436546325684,-22.949216842651367,-0.8890380859375,0.371337890625,-0.0606689453125
8.018,318,693,1078,330,0.0,31.0,15.0,-2.0751953125,-12.512206077575684,-18.310546875,-0.8232421875,0.3861083984375,-0.0904541015625
8.026,318,846,1069,330,0.0,31.0,15.0,-2.0751953125,-12.512206077575684,-18.310546875,-0.8121337890625,0.3763427734375,-0.077392578125
8.034,318,985,1063,328,4.0,33.0,20.0,-4.150390625,-11.230467796325684,-15.136717796325684,-0.8121337890625,0.3763427734375,-0.077392578125
8.047,319,1067,1005,334,4.0,33.0,20.0,-10.559081077575684,-10.925292015075684,-7.568358898162842,-0.80322265625,0.3243408203125,-0.018798828125
8.056,319,1278,1025,332,4.0,33.0,20.0,-10.559081077575684,-10.925292015075684,-7.568358898162842,-0.7867431640625,0.2943115234375,-0.003662109375
8.087,318,1527,1004,336,4.0,33.0,20.0,-12.573241233825684,-10.681151390075684,-3.784179449081421,-0.7867431640625,0.2943115234375,-0.003662109375
8.087,302,1968,998,334,4.0,33.0,20.0,-14.160155296325684,-7.751464366912842,5.0048828125,-0.776123046875,0.285888671875,-0.0032958984375
8.087,318,2167,922,351,4.0,33.0,20.0,-14.160155296325684,-7.751464366912842,5.0048828125,-0.7867431640625,0.3037109375,0.0093994140625
8.095,318,2415,883,336,4.0,33.0,20.0,-15.808104515075684,-6.286620616912842,12.023924827575684,-0.7867431640625,0.3037109375,0.0093994140625
8.110,318,2676,790,338,4.0,33.0,20.0,-18.49365234375,-6.042479991912842,21.484373092651367,-0.7794189453125,0.281982421875,0.01708984375
8.117,314,3147,540,348,4.0,33.0,20.0,-20.385740280151367,-6.591796398162842,33.0810546875,-0.62158203125,0.143310546875,-0.0120849609375
8.125,313,3147,475,859,2.0,33.0,17.0,-20.629880905151367,-8.11767578125,45.654293060302734,-0.62158203125,0.143310546875,-0.0120849609375
8.133,308,3147,409,1655,2.0,33.0,17.0,-19.95849609375,-11.596678733825684,56.823726654052734,-0.428955078125,0.064697265625,-0.01171875
8.146,310,3147,437,2490,2.0,33.0,17.0,-20.01953125,-18.4326171875,62.622066497802734,0.114013671875,0.119140625,0.2725830078125
8.155,308,3147,561,2985,2.0,33.0,17.0,-22.460935592651367,-28.320310592651367,62.316890716552734,0.114013671875,0.119140625,0.2725830078125
8.163,324,3147,951,3147,2.0,33.0,17.0,-24.047849655151367,-40.222164154052734,57.861324310302734,0.3721923828125,0.300048828125,0.5654296875
8.192,377,3147,1890,3147,2.0,33.0,17.0,-25.878904342651367,-55.114742279052734,42.724605560302734,0.44775390625,0.5438232421875,0.4725341796875
8.192,382,3147,2231,3147,2.0,33.0,17.0,-49.255367279052734,-67.81005859375,11.291502952575684,0.44775390625,0.5438232421875,0.4725341796875
8.193,391,3147,2333,3147,2.0,33.0,17.0,-95.09276580810547,-63.903804779052734,-27.526853561401367,-0.2012939453125,0.2342529296875,-0.2705078125
8.212,411,3147,2825,3147,2.0,33.0,17.0,-119.20165252685547,-35.2783203125,-62.988277435302734,-1.8533935546875,-0.0618896484375,-0.9844970703125
8.215,428,3147,3031,3147,2.0,33.0,17.0,-101.07421112060547,-6.225585460662842,-77.880859375,-1.8533935546875,-0.0618896484375,-0.9844970703125
8.223,438,3147,3147,3147,5.0,30.0,20.0,-77.0263671875,-7.446288585662842,-48.889156341552734,-2.2421875,0.95654296875,-0.3128662109375
8.238,494,3147,3147,3147,5.0,30.0,20.0,-75.68359375,-26.184080123901367,6.958007335662842,-3.0467529296875,2.715576171875,0.4306640625
8.245,574,3147,3147,3147,5.0,30.0,20.0,-85.57128143310547,-35.15625,48.217769622802734,-3.0467529296875,2.715576171875,0.4306640625
8.259,572,3147,3147,3147,5.0,30.0,20.0,-92.89550018310547,-31.677244186401367,62.744136810302734,-2.8748779296875,1.7860107421875,0.6824951171875
8.282,462,3147,3147,3147,5.0,30.0,20.0,-84.28954315185547,-22.277830123901367,24.230955123901367,-0.4482421875,-0.644775390625,1.12646484375
8.283,441,3147,3147,3147,5.0,30.0,20.0,-46.997066497802734,-2.01416015625,-36.07177734375,-0.4482421875,-0.644775390625,1.12646484375
8.283,430,3147,3147,3147,5.0,30.0,20.0,41.381832122802734,26.000974655151367,-47.668453216552734,-0.7635498046875,0.3807373046875,0.1290283203125
8.296,437,3147,3118,3147,5.0,30.0,20.0,127.92967987060547,35.21728515625,-26.184080123901367,-1.5440673828125,1.316162109375,-0.7159423828125
8.305,426,3147,3051,3147,5.0,30.0,20.0,118.40819549560547,20.935056686401367,-2.50244140625,-2.1240234375,1.7396240234375,-0.7684326171875
8.316,445,3147,2909,3147,5.0,30.0,20.0,43.090816497802734,1.9531248807907104,9.94873046875,-2.097900390625,1.5863037109375,-0.39990234375
8.326,418,3147,2619,3147,2.0,32.0,16.0,-24.047849655151367,-9.09423828125,5.920409679412842,-1.7425537109375,1.0455322265625,0.003662109375
8.335,402,3147,2391,3147,2.0,32.0,16.0,-56.274410247802734,-7.934569835662842,-0.4882812201976776,-1.4637451171875,0.5677490234375,0.3238525390625
8.343,391,3147,2167,3147,2.0,32.0,16.0,-52.062984466552734,-0.3662109076976776,5.493163585662842,-1.285400390625,0.42041015625,0.48583984375
8.357,377,3147,1861,3042,2.0,32.0,16.0,-21.728513717651367,10.192870140075684,24.841306686401367,-1.0592041015625,0.4581298828125,0.52197265625
8.386,348,3147,1236,2014,2.0,32.0,16.0,50.903316497802734,45.104976654052734,52.673336029052734,-0.47265625,-0.020263671875,0.3929443359375
8.387,330,3147,899,1132,2.0,32.0,16.0,68.66455078125,57.312007904052734,39.85595703125,-0.18505859375,-0.629150390625,0.2708740234375
8.395,332,3147,841,653,2.0,32.0,16.0,68.66455078125,57.006832122802734,12.939452171325684,0.023681640625,-0.93603515625,0.1439208984375
8.406,328,3147,811,348,2.0,32.0,16.0,62.194820404052734,42.541500091552734,-11.108397483825684,0.0826416015625,-0.616943359375,0.0635986328125
8.419,321,2581,894,338,2.0,32.0,16.0,71.044921875,17.4560546875,-28.259275436401367,-0.0166015625,0.015380859375,-0.09521484375
8.425,327,2493,840,344,1.0,33.0,15.0,87.58544158935547,-3.356933355331421,-44.067378997802734,-0.2078857421875,0.4952392578125,-0.275634765625
8.433,325,2432,814,344,1.0,33.0,15.0,83.00780487060547,-7.690429210662842,-50.354000091552734,-0.3760986328125,0.6353759765625,-0.2711181640625
8.447,324,2517,840,336,1.0,33.0,15.0,65.36865234375,-0.2441406100988388,-36.80419921875,-0.532470703125,0.646484375,-0.0989990234375
8.455,327,2679,824,336,1.0,33.0,15.0,66.7724609375,6.652831554412842,-8.11767578125,-0.58935546875,0.7989501953125,0.023193359375
8.463,323,2736,814,336,1.0,33.0,15.0,79.345703125,9.1552734375,17.39501953125,-0.5184326171875,1.0323486328125,-0.0076904296875
8.488,324,2941,816,334,1.0,33.0,15.0,65.5517578125,9.3994140625,24.719236373901367,-0.496826171875,1.056640625,-0.0804443359375
8.489,324,3024,793,336,1.0,33.0,15.0,20.996091842651367,6.652831554412842,14.038084983825684,-0.5751953125,0.7852783203125,-0.1094970703125
8.493,325,3062,785,336,1.0,33.0,15.0,-24.719236373901367,0.2441406100988388,-3.356933355331421,-0.6978759765625,0.4697265625,-0.08447265625
8.509,316,3084,830,334,1.0,33.0,15.0,-50.170894622802734,-6.958007335662842,-15.075682640075684,-0.817626953125,0.3304443359375,-0.0382080078125
8.521,321,3121,816,342,1.0,33.0,15.0,-52.551265716552734,-12.023924827575684,-17.578125,-0.911865234375,0.363037109375,0.0042724609375
8.526,318,3120,832,334,2.0,35.0,13.0,-39.9169921875,-14.770506858825684,-15.014647483825684,-0.9647216796875,0.4461669921875,0.041015625
8.537,318,3050,820,336,2.0,35.0,13.0,-24.353025436401367,-15.747069358825684,-12.268065452575684,-0.97705078125,0.4749755859375,0.053955078125
8.545,319,3027,834,338,2.0,35.0,13.0,-11.840819358825684,-14.587401390075684,-11.352538108825684,-0.9681396484375,0.44287109375,0.0330810546875
8.553,318,3007,828,336,2.0,35.0,13.0,-1.7700194120407104,-11.413573265075684,-11.779784202575684,-0.9412841796875,0.39794921875,0.0172119140625
8.567,318,3000,805,334,2.0,35.0,13.0,4.94384765625,-7.690429210662842,-11.901854515075684,-0.8994140625,0.372802734375,0.0423583984375
8.600,316,3147,814,338,2.0,35.0,13.0,3.417968511581421,-4.0283203125,-7.385253429412842,-0.832763671875,0.379150390625,0.0843505859375
8.601,316,3147,790,344,2.0,35.0,13.0,-1.8920897245407104,-3.845214605331421,-3.173827886581421,-0.8128662109375,0.38330078125,0.055419921875
8.605,317,3147,761,424,2.0,35.0,13.0,-8.30078125,-3.479003667831421,1.7700194120407104,-0.79248046875,0.373291015625,0.0224609375
8.623,315,3147,728,495,2.0,35.0,13.0,-14.892577171325684,-2.44140625,6.835937023162842,-0.778564453125,0.35546875,0.0048828125
8.628,319,3147,711,651,2.0,34.0,14.0,-20.446775436401367,-1.15966796875,12.512206077575684,-0.774658203125,0.3487548828125,0.007080078125
8.635,316,3147,739,842,2.0,34.0,14.0,-23.803709030151367,-0.1220703050494194,19.287109375,-0.76220703125,0.3275146484375,0.02001953125
8.643,316,3147,766,946,2.0,34.0,14.0,-23.376462936401367,-0.4272460639476776,25.573728561401367,-0.6956787109375,0.2620849609375,0.0333251953125
8.656,321,3147,780,1508,2.0,34.0,14.0,-18.37158203125,-2.746581792831421,29.724119186401367,-0.557861328125,0.201171875,0.0263671875
8.665,321,3147,922,1877,2.0,34.0,14.0,-10.498045921325684,-6.713866710662842,32.2265625,-0.389892578125,0.2069091796875,0.01416015625
