time,compression0,compression1,compression2,compression3,magn_x,magn_y,magn_z,gyro_x,gyro_y,gyro_z,accel_x,accel_y,accel_z
0.021,306,3147,1169,683,-15.0,31.0,17.0,-43.212886810302734,-48.645015716552734,0.0610351525247097,-0.486328125,0.2459716796875,-0.1666259765625
0.022,290,3147,1229,1069,-15.0,31.0,17.0,-43.212886810302734,-48.645015716552734,0.0610351525247097,-0.404052734375,0.170654296875,-0.1478271484375
0.028,308,3147,1241,1357,-15.0,31.0,17.0,-53.588863372802734,-52.307125091552734,-3.662109136581421,-0.404052734375,0.170654296875,-0.1478271484375
0.056,308,3147,1331,2041,-7.0,30.0,24.0,-18.6767578125,-68.29833984375,-4.2724609375,-0.2548828125,-0.1075439453125,-0.152099609375
0.056,310,3147,1433,2379,-7.0,30.0,24.0,-18.6767578125,-68.29833984375,-4.2724609375,-0.3760986328125,0.153076171875,-0.133544921875
0.058,309,3147,1508,2519,-7.0,30.0,24.0,17.15087890625,-79.16259765625,0.2441406100988388,-0.3760986328125,0.153076171875,-0.133544921875
0.085,318,3147,1681,2781,-7.0,30.0,24.0,39.0625,-94.05516815185547,5.310058116912842,-0.8961181640625,0.8037109375,-0.0462646484375
0.086,313,3147,1667,3147,-7.0,30.0,24.0,39.0625,-94.05516815185547,5.310058116912842,-1.286376953125,0.8526611328125,0.0567626953125
0.088,316,3147,1646,3147,-7.0,30.0,24.0,15.808104515075684,-89.72167205810547,2.0751953125,-1.286376953125,0.8526611328125,0.0567626953125
0.102,316,3147,1711,3147,-7.0,30.0,24.0,-18.06640625,-66.650390625,-0.3662109076976776,-2.0660400390625,0.1170654296875,0.343994140625
0.115,317,3147,1719,3147,-7.0,30.0,24.0,-18.06640625,-66.650390625,-0.3662109076976776,-2.285888671875,-0.222900390625,0.25341796875
0.124,310,3147,1652,3147,-7.0,30.0,24.0,-9.3994140625,-51.818843841552734,1.8920897245407104,-2.285888671875,-0.222900390625,0.25341796875
0.132,313,3147,1700,3147,-7.0,30.0,24.0,11.779784202575684,-12.023924827575684,8.30078125,-1.8455810546875,-0.0975341796875,-0.6314697265625
0.142,314,3147,1718,3147,-7.0,28.0,26.0,11.779784202575684,-12.023924827575684,8.30078125,-1.3631591796875,0.1981201171875,-0.70849609375
0.148,315,3147,1715,3147,-7.0,28.0,26.0,-2.685546636581421,5.371093273162842,5.859374523162842,-1.3631591796875,0.1981201171875,-0.70849609375
0.162,313,3147,1689,3147,-7.0,28.0,26.0,-20.263669967651367,14.099120140075684,2.197265625,-1.6788330078125,0.45556640625,-0.0771484375
0.190,313,3147,1655,3147,-7.0,28.0,26.0,-23.925779342651367,15.075682640075684,-0.6103515625,-1.6788330078125,0.45556640625,-0.0771484375
0.190,308,3147,1611,3147,-7.0,28.0,26.0,-15.930174827575684,14.160155296325684,-2.38037109375,-1.874755859375,0.366455078125,0.0191650390625
0.193,311,3147,1534,347,-7.0,28.0,26.0,-5.554198741912842,16.11328125,-1.8310545682907104,-1.6820068359375,0.5679931640625,-0.2109375
0.202,313,3147,1494,2760,-7.0,28.0,26.0,-3.234863042831421,21.423337936401367,-0.3662109076976776,-1.6820068359375,0.5679931640625,-0.2109375
0.213,312,3147,1497,2258,-7.0,28.0,26.0,-12.939452171325684,28.625486373901367,0.2441406100988388,-1.39794921875,0.55078125,-0.263916015625
0.225,308,3147,1455,753,-7.0,28.0,26.0,-28.686521530151367,35.7666015625,-0.7324218153953552,-0.822509765625,0.191162109375,-0.189208984375
0.231,316,2952,1455,348,-7.0,28.0,26.0,-42.297359466552734,37.78076171875,-5.187987804412842,-0.822509765625,0.191162109375,-0.189208984375
0.239,310,1830,1441,330,-6.0,29.0,22.0,-45.959468841552734,31.738279342651367,-14.038084983825684,-0.621826171875,-0.003662109375,-0.1341552734375
0.252,307,1034,1395,324,-6.0,29.0,22.0,-35.09521484375,21.911619186401367,-25.085447311401367,-0.5789794921875,-0.0777587890625,-0.103271484375
0.271,306,748,1384,330,-6.0,29.0,22.0,-16.6015625,13.366698265075684,-33.87451171875,-0.5789794921875,-0.0777587890625,-0.103271484375
0.271,304,575,1336,324,-6.0,29.0,22.0,-4.94384765625,7.141112804412842,-37.04833984375,-0.620361328125,-0.0087890625,-0.025634765625
0.294,305,498,1305,323,-6.0,29.0,22.0,-6.713866710662842,6.286620616912842,-36.68212890625,-0.570068359375,-0.0509033203125,-0.0784912109375
0.295,306,460,1278,321,-6.0,29.0,22.0,-17.578125,12.207030296325684,-33.447265625,-0.570068359375,-0.0509033203125,-0.0784912109375
0.300,306,495,1215,323,-6.0,29.0,22.0,-29.541013717651367,20.385740280151367,-24.230955123901367,-0.5162353515625,0.00537109375,-0.100830078125
0.327,306,479,1178,321,-6.0,29.0,22.0,-37.59765625,26.123044967651367,-11.230467796325684,-0.4755859375,0.1041259765625,0.0159912109375
0.327,306,481,1182,321,-6.0,29.0,22.0,-36.1328125,27.832029342651367,-0.1220703050494194,-0.4755859375,0.1041259765625,0.0159912109375
0.329,306,462,1188,324,-5.0,26.0,23.0,-22.094724655151367,25.451658248901367,6.103515148162842,-0.526123046875,0.2169189453125,0.05078125
0.343,304,525,1213,321,-5.0,26.0,23.0,-2.13623046875,19.59228515625,7.385253429412842,-0.7591552734375,0.4151611328125,-0.0352783203125
0.351,306,524,1239,323,-5.0,26.0,23.0,12.573241233825684,12.023924827575684,5.432128429412842,-0.7591552734375,0.4151611328125,-0.0352783203125
0.361,306,523,1289,323,-5.0,26.0,23.0,16.357421875,5.126952648162842,2.50244140625,-0.816162109375,0.5064697265625,-0.0960693359375
0.396,305,523,1316,323,-5.0,26.0,23.0,11.718749046325684,-0.9155272841453552,0.6713866591453552,-0.775390625,0.5262451171875,-0.1260986328125
0.397,306,548,1335,323,-5.0,26.0,23.0,4.94384765625,-6.713866710662842,1.5258787870407104,-0.673095703125,0.39794921875,-0.1187744140625
0.397,304,625,1308,324,-5.0,26.0,23.0,-0.30517578125,-10.925292015075684,5.310058116912842,-0.5748291015625,0.21728515625,-0.08642578125
0.409,306,698,1323,324,-5.0,26.0,23.0,-3.051757574081421,-12.695311546325684,10.986327171325684,-0.517822265625,0.0670166015625,-0.056640625
0.412,306,766,1357,323,-5.0,26.0,23.0,-1.4648436307907104,-13.549803733825684,16.66259765625,-0.4891357421875,-0.045654296875,-0.0528564453125
0.427,306,905,1393,332,-5.0,26.0,23.0,6.286620616912842,-15.075682640075684,21.606443405151367,-0.4703369140625,-0.11962890625,-0.070556640625
0.432,309,2035,1467,334,-4.0,29.0,21.0,17.822265625,-16.4794921875,26.733396530151367,-0.4539794921875,-0.152099609375,-0.08935546875
0.441,308,2861,1492,338,-4.0,29.0,21.0,28.015134811401367,-15.136717796325684,33.87451171875,-0.4595947265625,-0.0701904296875,-0.1148681640625
0.451,308,3147,1531,647,-4.0,29.0,21.0,29.113767623901367,-9.58251953125,42.907711029052734,-0.5477294921875,0.1624755859375,-0.1771240234375
0.462,306,3147,1557,1850,-4.0,29.0,21.0,9.58251953125,-3.601073980331421,50.048824310302734,-0.6002197265625,0.2943115234375,-0.199951171875
0.470,308,3147,1610,2354,-4.0,29.0,21.0,-27.160642623901367,-5.187987804412842,51.696773529052734,-0.4212646484375,0.1688232421875,-0.0760498046875
0.503,308,3147,1681,2692,-4.0,29.0,21.0,-52.185054779052734,-16.6015625,49.011226654052734,-0.0341796875,-0.0008544921875,0.0999755859375
0.503,313,3147,1863,3147,-4.0,29.0,21.0,-40.222164154052734,-36.62109375,40.0390625,0.3018798828125,0.0167236328125,0.163818359375
0.504,309,3147,1891,3147,-4.0,29.0,21.0,3.845214605331421,-64.0869140625,19.71435546875,0.2183837890625,0.3170166015625,0.0615234375
0.509,310,3147,1920,3147,-4.0,29.0,21.0,55.908199310302734,-92.65135955810547,-7.324218273162842,-0.361083984375,0.7742919921875,-0.1943359375
0.532,306,3147,1905,3147,-4.0,29.0,21.0,88.01268768310547,-110.22948455810547,-26.550291061401367,-1.249267578125,1.2581787109375,-0.4241943359375
0.532,307,3147,1891,3147,-8.0,25.0,28.0,82.39745330810547,-107.29979705810547,-28.259275436401367,-2.23291015625,1.228759765625,-0.2608642578125
0.542,315,3147,1920,3147,-8.0,25.0,28.0,45.898433685302734,-89.66063690185547,-20.507810592651367,-3.0867919921875,0.28515625,0.2587890625
0.552,316,3147,1815,3147,-8.0,25.0,28.0,13.977049827575684,-63.537593841552734,-10.070799827575684,-3.5225830078125,-0.543701171875,0.4393310546875
0.561,316,3147,1838,3147,-8.0,25.0,28.0,9.33837890625,-30.822751998901367,6.530761241912842,-3.089599609375,-0.4730224609375,-0.0789794921875
0.568,316,3147,1882,3147,-8.0,25.0,28.0,6.164550304412842,-0.9765624403953552,16.845703125,-1.8883056640625,0.2301025390625,-0.6925048828125
0.601,318,3147,1922,3147,-8.0,25.0,28.0,-16.9677734375,17.9443359375,10.009765625,-1.255126953125,1.0482177734375,-0.6033935546875
0.602,318,3147,1918,3147,-8.0,25.0,28.0,-38.63525390625,23.864744186401367,-6.103515148162842,-1.5830078125,0.998779296875,-0.0150146484375
0.602,316,3147,1912,3147,-8.0,25.0,28.0,-37.109375,22.644041061401367,-19.775390625,-2.0050048828125,0.3199462890625,0.3170166015625
0.614,316,3147,1867,3147,-8.0,25.0,28.0,-15.441893577575684,25.939939498901367,-19.83642578125,-2.12255859375,0.0804443359375,0.2205810546875
0.628,315,3147,1830,3147,-8.0,25.0,28.0,2.01416015625,35.70556640625,-7.507323741912842,-1.9447021484375,0.1820068359375,0.010986328125
0.643,310,3147,1769,3131,-7.0,28.0,24.0,-3.295898199081421,47.241207122802734,6.958007335662842,-1.702392578125,0.27880859375,-0.1171875
0.645,313,3147,1653,2223,-7.0,28.0,24.0,-18.06640625,56.091304779052734,16.90673828125,-1.449462890625,0.3900146484375,-0.240966796875
0.650,316,3147,1582,2072,-7.0,28.0,24.0,-24.414060592651367,56.884761810302734,17.4560546875,-1.1156005859375,0.482421875,-0.3221435546875
0.658,316,3147,1543,1004,-7.0,28.0,24.0,-23.437498092651367,49.926753997802734,6.835937023162842,-0.7786865234375,0.39794921875,-0.3114013671875
0.672,311,1800,1524,334,-7.0,28.0,24.0,-22.644041061401367,40.344234466552734,-10.986327171325684,-0.508544921875,0.1563720703125,-0.238525390625
0.681,313,976,1503,332,-7.0,28.0,24.0,-18.98193359375,30.578611373901367,-29.479978561401367,-0.3203125,-0.0595703125,-0.187744140625
0.702,316,677,1455,332,-7.0,28.0,24.0,-7.629394054412842,22.399900436401367,-42.663570404052734,-0.292724609375,-0.0986328125,-0.1519775390625
0.702,308,470,1366,298,-7.0,28.0,24.0,4.150390625,14.526366233825684,-46.874996185302734,-0.4127197265625,-0.0155029296875,-0.074951171875
0.713,306,454,1312,323,-7.0,28.0,24.0,7.751464366912842,5.737304210662842,-45.410152435302734,-0.533935546875,-0.006591796875,-0.057373046875
0.718,305,372,1214,324,-7.0,28.0,24.0,1.6479490995407104,-0.54931640625,-42.663570404052734,-0.55029296875,-0.0045166015625,-0.1328125
0.744,307,411,1120,323,-4.0,29.0,23.0,-9.82666015625,-2.0751953125,-37.41455078125,-0.4888916015625,0.099365234375,-0.197998046875
0.745,308,401,1198,323,-4.0,29.0,23.0,-18.5546875,0.6103515625,-29.602048873901367,-0.412353515625,0.1912841796875,-0.1614990234375
0.749,308,416,1217,323,-4.0,29.0,23.0,-18.4326171875,5.859374523162842,-20.935056686401367,-0.37451171875,0.2794189453125,-0.050048828125
0.762,308,398,1204,323,-4.0,29.0,23.0,-13.000487327575684,10.131834983825684,-12.451170921325684,-0.38427734375,0.33984375,0.0648193359375
0.770,310,398,1213,322,-4.0,29.0,23.0,-10.986327171325684,10.437010765075684,-7.202147960662842,-0.4488525390625,0.3206787109375,0.13623046875
0.778,310,383,1251,321,-4.0,29.0,23.0,-14.038084983825684,7.385253429412842,-5.859374523162842,-0.5550537109375,0.2947998046875,0.1553955078125
0.810,311,378,1278,321,-4.0,29.0,23.0,-19.47021484375,3.784179449081421,-4.8828125,-0.624267578125,0.264404296875,0.151611328125
0.810,310,430,1251,322,-4.0,29.0,23.0,-22.277830123901367,1.7089842557907104,-1.5258787870407104,-0.6336669921875,0.2125244140625,0.147705078125
0.810,313,439,1243,321,-4.0,29.0,23.0,-17.76123046875,1.2817381620407104,5.310058116912842,-0.6151123046875,0.149169921875,0.15087890625
0.822,308,561,1310,323,-5.0,27.0,21.0,-8.056640625,1.5869139432907104,14.648436546325684,-0.580078125,0.05126953125,0.1546630859375
0.838,310,721,1345,324,-5.0,27.0,21.0,2.929687261581421,2.50244140625,24.230955123901367,-0.5218505859375,-0.0721435546875,0.1318359375
0.838,313,788,1384,324,-5.0,27.0,21.0,2.929687261581421,2.50244140625,24.230955123901367,-0.4451904296875,-0.1900634765625,0.075439453125
0.859,309,1381,1467,332,-5.0,27.0,21.0,25.451658248901367,6.347655773162842,41.625972747802734,-0.3819580078125,-0.2666015625,-0.0106201171875
0.861,312,2698,1488,347,-5.0,27.0,21.0,37.59765625,9.70458984375,51.818843841552734,-0.3743896484375,-0.207763671875,-0.126220703125
0.870,313,3147,1533,523,-5.0,27.0,21.0,37.59765625,9.70458984375,51.818843841552734,-0.4722900390625,0.0792236328125,-0.31103515625
0.882,309,3147,1550,1711,-5.0,27.0,21.0,41.748043060302734,19.4091796875,76.96533203125,-0.62939453125,0.4012451171875,-0.518798828125
0.908,314,3147,1609,2311,-5.0,27.0,21.0,-3.051757574081421,17.39501953125,80.32225799560547,-0.6005859375,0.42236328125,-0.470458984375
0.909,314,3147,1656,2884,-5.0,27.0,21.0,-3.051757574081421,17.39501953125,80.32225799560547,-0.246337890625,0.2064208984375,-0.078125
0.915,317,3147,1812,3147,-5.0,27.0,21.0,-77.57568359375,-24.047849655151367,58.654781341552734,0.1383056640625,0.124755859375,0.27099609375
0.920,316,3147,1897,3147,-7.0,27.0,23.0,-29.052732467651367,-54.016109466552734,29.663084030151367,0.2076416015625,0.378662109375,0.31396484375
0.930,317,3147,1882,3147,-7.0,27.0,23.0,-29.052732467651367,-54.016109466552734,29.663084030151367,-0.0875244140625,0.753173828125,0.087646484375
0.944,313,3147,1983,3147,-7.0,27.0,23.0,86.85301971435547,-107.60497283935547,-45.410152435302734,-0.7449951171875,1.2305908203125,-0.3551025390625
0.950,313,3147,1981,3147,-7.0,27.0,23.0,94.23827362060547,-105.65184783935547,-52.246089935302734,-1.73486328125,1.5078125,-0.5308837890625
0.978,310,3147,1943,3147,-7.0,27.0,23.0,94.23827362060547,-105.65184783935547,-52.246089935302734,-2.8255615234375,0.7230224609375,-0.05810546875
0.979,310,3147,1918,3147,-7.0,27.0,23.0,13.183592796325684,-74.52392578125,-36.0107421875,-3.603515625,-0.432861328125,0.3367919921875
0.982,313,3147,1882,3147,-7.0,27.0,23.0,-0.6713866591453552,-50.231929779052734,-20.690916061401367,-3.658935546875,-0.6529541015625,-0.0008544921875
0.988,309,3147,1908,3147,-7.0,27.0,23.0,-0.6713866591453552,-50.231929779052734,-20.690916061401367,-2.5830078125,-0.1231689453125,-0.672607421875
1.015,313,3147,1912,3147,-7.0,27.0,23.0,-22.644041061401367,-6.469726085662842,1.15966796875,-1.41650390625,0.74755859375,-0.744384765625
1.016,297,3147,1905,3147,-7.0,27.0,23.0,-45.288082122802734,1.15966796875,-10.314940452575684,-1.33935546875,1.0958251953125,-0.115478515625
1.022,310,3147,1918,3147,-5.0,26.0,28.0,-45.288082122802734,1.15966796875,-10.314940452575684,-1.8193359375,0.5574951171875,0.4462890625
1.037,310,3147,1908,3147,-5.0,26.0,28.0,-21.545408248901367,14.343260765075684,-26.306150436401367,-2.15966796875,0.095947265625,0.516357421875
1.048,308,3147,1880,3147,-5.0,26.0,28.0,1.9531248807907104,27.954099655151367,-13.977049827575684,-2.0870361328125,0.0303955078125,0.228515625
1.048,309,3147,1820,3147,-5.0,26.0,28.0,1.9531248807907104,27.954099655151367,-13.977049827575684,-1.7835693359375,0.1224365234375,-0.0201416015625
1.064,310,3147,1759,3147,-5.0,26.0,28.0,-11.474608421325684,55.480953216552734,16.4794921875,-1.493896484375,0.23974609375,-0.1453857421875
1.072,307,3147,1683,3001,-5.0,26.0,28.0,-11.474608421325684,55.480953216552734,16.4794921875,-1.233154296875,0.388916015625,-0.276123046875
1.101,308,3147,1596,2449,-5.0,26.0,28.0,-27.160642623901367,65.49072265625,23.864744186401367,-1.233154296875,0.388916015625,-0.276123046875
1.137,306,3147,1480,890,-5.0,26.0,28.0,-42.236324310302734,62.561031341552734,11.901854515075684,-0.7655029296875,0.472900390625,-0.3438720703125
1.138,306,2449,1467,338,-5.0,26.0,28.0,-42.236324310302734,62.561031341552734,11.901854515075684,-0.5675048828125,0.197265625,-0.149169921875
1.138,305,1253,1488,324,-5.0,26.0,28.0,-43.029781341552734,46.020503997802734,-9.46044921875,-0.5675048828125,0.197265625,-0.149169921875
1.154,294,523,1401,328,-6.0,30.0,21.0,-3.784179449081421,17.2119140625,-46.752925872802734,-0.30908203125,-0.1868896484375,-0.1197509765625
1.155,304,391,1306,300,-6.0,30.0,21.0,-3.784179449081421,17.2119140625,-46.752925872802734,-0.4432373046875,0.0428466796875,-0.107421875
1.155,302,406,1271,324,-6.0,30.0,21.0,11.840819358825684,14.953612327575684,-47.607418060302734,-0.4432373046875,0.0428466796875,-0.107421875
1.155,305,391,1109,319,-6.0,30.0,21.0,-33.935546875,10.192870140075684,-31.249998092651367,-0.50537109375,0.065673828125,-0.0772705078125
1.174,304,418,1117,323,-6.0,30.0,21.0,-33.935546875,10.192870140075684,-31.249998092651367,-0.4193115234375,-0.032470703125,-0.110595703125
1.175,304,382,1067,322,-6.0,30.0,21.0,-57.617183685302734,14.343260765075684,-22.888181686401367,-0.4193115234375,-0.032470703125,-0.110595703125
1.184,302,439,984,321,-6.0,30.0,21.0,-39.24560546875,26.916501998901367,-8.48388671875,-0.3729248046875,0.15234375,-0.0799560546875
1.213,304,405,963,321,-6.0,30.0,21.0,-39.24560546875,26.916501998901367,-8.48388671875,-0.3671875,0.258544921875,0.0189208984375
1.213,304,385,922,298,-6.0,30.0,21.0,-22.216794967651367,24.719236373901367,-4.69970703125,-0.3671875,0.258544921875,0.0189208984375
1.213,304,407,982,323,-7.0,28.0,22.0,-17.76123046875,12.573241233825684,-8.544921875,-0.511962890625,0.3232421875,0.1524658203125
1.232,304,402,980,321,-7.0,28.0,22.0,-17.76123046875,12.573241233825684,-8.544921875,-0.6265869140625,0.3580322265625,0.136474609375
1.233,305,401,1025,321,-7.0,28.0,22.0,-20.385740280151367,9.521484375,-10.009765625,-0.6265869140625,0.3580322265625,0.136474609375
1.252,304,398,1070,321,-7.0,28.0,22.0,-21.423337936401367,3.601073980331421,0.4272460639476776,-0.6990966796875,0.3653564453125,0.08935546875
1.252,291,402,1097,323,-7.0,28.0,22.0,-21.423337936401367,3.601073980331421,0.4272460639476776,-0.6759033203125,0.2745361328125,0.10791015625
1.264,304,398,1104,321,-7.0,28.0,22.0,-17.51708984375,-1.5258787870407104,7.507323741912842,-0.6759033203125,0.2745361328125,0.10791015625
1.272,304,401,1104,321,-7.0,28.0,22.0,3.601073980331421,-12.512206077575684,17.15087890625,-0.540771484375,0.0391845703125,0.1148681640625
1.280,301,433,1162,321,-7.0,28.0,22.0,3.601073980331421,-12.512206077575684,17.15087890625,-0.4803466796875,-0.0213623046875,0.0718994140625
1.288,306,548,1229,322,-7.0,28.0,22.0,19.53125,-16.54052734375,20.629880905151367,-0.4803466796875,-0.0213623046875,0.0718994140625
1.319,309,777,1411,326,-7.0,28.0,22.0,35.58349609375,-18.06640625,23.498533248901367,-0.4918212890625,-0.0430908203125,-0.0433349609375
1.319,308,1427,1506,326,-5.0,28.0,25.0,51.635738372802734,-17.15087890625,26.550291061401367,-0.4918212890625,-0.0430908203125,-0.0433349609375
1.319,308,2460,1564,344,-5.0,28.0,25.0,65.91796875,-14.831542015075684,31.921384811401367,-0.50341796875,-0.02294921875,-0.1180419921875
1.332,308,3147,1627,1009,-5.0,28.0,25.0,73.1201171875,-10.314940452575684,40.405269622802734,-0.581787109375,0.2515869140625,-0.395751953125
1.355,308,3147,1694,1748,-5.0,28.0,25.0,65.5517578125,-2.929687261581421,50.292964935302734,-0.581787109375,0.2515869140625,-0.395751953125
1.355,306,3147,1739,2467,-5.0,28.0,25.0,31.127927780151367,1.5869139432907104,55.847164154052734,-0.56640625,0.39404296875,-0.441650390625
1.364,310,3147,1880,3147,-5.0,28.0,25.0,-25.329587936401367,-6.103515148162842,50.720211029052734,0.2686767578125,0.302490234375,0.0849609375
1.370,313,3147,1943,3147,-5.0,28.0,25.0,-58.776851654052734,-26.123044967651367,36.4990234375,0.2686767578125,0.302490234375,0.0849609375
1.378,312,3147,1969,3147,-5.0,28.0,25.0,-40.771480560302734,-51.818843841552734,15.991209983825684,0.301025390625,0.3597412109375,0.047607421875
1.392,315,3147,2024,3147,-5.0,28.0,25.0,5.126952648162842,-80.13916015625,-7.385253429412842,-1.23388671875,0.8077392578125,-0.02880859375
1.422,310,3147,1969,3147,-5.0,28.0,25.0,55.114742279052734,-100.46385955810547,-22.094724655151367,-1.23388671875,0.8077392578125,-0.02880859375
1.422,310,3147,1974,3147,-8.0,27.0,29.0,84.16747283935547,-101.44042205810547,-22.583005905151367,-2.23486328125,0.7911376953125,0.114501953125
1.423,310,3147,1951,3147,-8.0,27.0,29.0,77.0263671875,-84.83885955810547,-16.2353515625,-3.3385009765625,-0.18505859375,0.2154541015625
1.444,310,3147,1974,3147,-8.0,27.0,29.0,52.612300872802734,-55.480953216552734,-5.920409679412842,-3.3385009765625,-0.18505859375,0.2154541015625
1.456,310,3147,1967,3147,-8.0,27.0,29.0,25.146482467651367,-21.118162155151367,9.765625,-3.1541748046875,-0.089599609375,-0.14453125
1.456,299,3147,2041,3147,-8.0,27.0,29.0,-11.779784202575684,8.544921875,20.935056686401367,-1.3524169921875,0.7265625,-0.5455322265625
1.461,310,3147,2034,3147,-8.0,27.0,29.0,-60.424800872802734,29.663084030151367,17.51708984375,-1.3524169921875,0.7265625,-0.5455322265625
1.470,312,3147,2024,3147,-8.0,27.0,29.0,-90.02684783935547,43.395992279052734,5.737304210662842,-1.51513671875,0.89697265625,-0.046142578125
1.482,313,3147,1980,3147,-8.0,27.0,29.0,-73.30322265625,45.776363372802734,-5.432128429412842,-2.283203125,0.3287353515625,0.049560546875
1.492,313,3147,1904,3147,-8.0,27.0,29.0,-25.146482467651367,37.04833984375,-9.765625,-2.283203125,0.3287353515625,0.049560546875
1.498,312,3147,1862,3147,-8.0,27.0,29.0,18.4326171875,25.634763717651367,-5.737304210662842,-2.0579833984375,0.4366455078125,-0.2991943359375
1.520,310,3147,1775,3147,-7.0,30.0,22.0,30.517576217651367,16.54052734375,-2.3193359375,-1.6905517578125,0.4830322265625,-0.423095703125
1.520,309,3147,1739,2890,-7.0,30.0,22.0,15.624999046325684,12.634276390075684,-2.807616949081421,-1.3587646484375,0.462890625,-0.3941650390625
1.532,307,3147,1689,2492,-7.0,30.0,22.0,-6.225585460662842,15.319823265075684,-3.295898199081421,-1.0609130859375,0.4779052734375,-0.3287353515625
1.549,308,3147,1632,1191,-7.0,30.0,22.0,-25.390623092651367,20.751951217651367,-4.5166015625,-0.8087158203125,0.4295654296875,-0.2152099609375
1.562,308,3147,1629,332,-7.0,30.0,22.0,-38.14697265625,23.071287155151367,-10.253905296325684,-0.627685546875,0.2271728515625,-0.061767578125
1.568,296,2139,1607,342,-7.0,30.0,22.0,-40.588375091552734,18.49365234375,-20.996091842651367,-0.49755859375,-0.1480712890625,0.08251953125
1.573,306,803,1580,332,-7.0,30.0,22.0,-24.536130905151367,10.314940452575684,-33.50830078125,-0.423583984375,-0.438232421875,0.1109619140625
1.583,306,513,1481,321,-7.0,30.0,22.0,6.896972179412842,3.967284917831421,-41.381832122802734,-0.3751220703125,-0.3419189453125,0.06298828125
1.589,308,513,1411,327,-7.0,30.0,22.0,29.663084030151367,-0.9155272841453552,-41.442867279052734,-0.365478515625,-0.0386962890625,0.030029296875
1.602,304,424,1353,324,-7.0,28.0,27.0,26.550291061401367,-4.82177734375,-38.2080078125,-0.4217529296875,0.196044921875,0.039306640625
1.625,304,431,1226,300,-7.0,28.0,27.0,2.197265625,-5.676269054412842,-33.447265625,-0.4881591796875,0.262451171875,0.0428466796875
1.625,304,404,1206,323,-7.0,28.0,27.0,-24.475095748901367,-0.7324218153953552,-25.390623092651367,-0.5084228515625,0.1668701171875,0.0042724609375
1.632,304,408,1148,323,-7.0,28.0,27.0,-35.94970703125,9.46044921875,-15.136717796325684,-0.4810791015625,0.061279296875,-0.03271484375
1.663,306,417,1132,323,-7.0,28.0,27.0,-29.296873092651367,18.37158203125,-5.0048828125,-0.4566650390625,0.0535888671875,-0.0074462890625
1.663,302,408,1097,318,-7.0,28.0,27.0,-12.878417015075684,19.83642578125,2.3193359375,-0.4564208984375,0.1314697265625,0.0609130859375
1.663,293,465,1170,319,-7.0,28.0,27.0,3.723144292831421,13.977049827575684,4.21142578125,-0.4593505859375,0.2386474609375,0.10546875
1.671,306,466,1206,322,-7.0,28.0,27.0,15.930174827575684,6.286620616912842,1.8920897245407104,-0.4736328125,0.353759765625,0.1070556640625
1.678,306,416,1209,322,-7.0,28.0,27.0,22.521970748901367,1.15966796875,0.4882812201976776,-0.5225830078125,0.478515625,0.0943603515625
1.696,306,468,1251,323,-7.0,28.0,27.0,23.498533248901367,-1.3427733182907104,3.540038824081421,-0.5931396484375,0.52392578125,0.0833740234375
1.702,305,469,1251,299,-8.0,26.0,24.0,19.10400390625,-2.624511480331421,9.09423828125,-0.6646728515625,0.4134521484375,0.0574951171875
1.732,306,553,1294,324,-8.0,26.0,24.0,10.742186546325684,-2.746581792831421,13.854979515075684,-0.7181396484375,0.2188720703125,0.0316162109375
1.732,308,673,1373,321,-8.0,26.0,24.0,1.8920897245407104,-1.2817381620407104,17.63916015625,-0.7357177734375,0.0306396484375,0.041259765625
1.732,308,960,1429,328,-8.0,26.0,24.0,-2.0751953125,1.2817381620407104,21.728513717651367,-0.7230224609375,-0.1036376953125,0.061767578125
1.744,304,1477,1476,321,-8.0,26.0,24.0,2.50244140625,4.69970703125,27.038572311401367,-0.678955078125,-0.169189453125,0.0433349609375
1.767,307,2951,1600,333,-8.0,26.0,24.0,15.014647483825684,8.4228515625,34.85107421875,-0.6163330078125,-0.13818359375,-0.0478515625
1.771,308,3147,1636,590,-8.0,26.0,24.0,29.479978561401367,11.962889671325684,44.860836029052734,-0.5908203125,0.0975341796875,-0.2012939453125
1.771,306,3147,1676,1251,-8.0,26.0,24.0,28.015134811401367,13.244627952575684,51.696773529052734,-0.5716552734375,0.406494140625,-0.313720703125
1.782,308,3147,1722,2345,-8.0,26.0,24.0,-2.25830078125,8.544921875,49.743648529052734,-0.4041748046875,0.468994140625,-0.24072265625
1.790,310,3147,1792,2726,-8.0,26.0,24.0,-39.12353515625,-2.13623046875,40.0390625,-0.0174560546875,0.3023681640625,-0.025390625
1.798,310,3147,1855,3064,-7.0,28.0,26.0,-47.790523529052734,-15.686034202575684,27.770994186401367,0.44970703125,0.1514892578125,0.09326171875
1.827,313,3147,1974,3147,-7.0,28.0,26.0,-22.033689498901367,-34.7900390625,12.268065452575684,0.671875,0.1695556640625,0.0330810546875
1.827,309,3147,2091,3147,-7.0,28.0,26.0,26.428220748901367,-64.14794921875,-8.60595703125,0.3065185546875,0.3470458984375,-0.1103515625
1.828,310,3147,2108,3147,-7.0,28.0,26.0,80.87157440185547,-94.29930877685547,-27.282712936401367,-0.6888427734375,0.8067626953125,-0.2952880859375
1.842,310,3147,2065,3147,-7.0,28.0,26.0,108.52050018310547,-108.94774627685547,-32.958984375,-1.9007568359375,1.1407470703125,-0.239013671875
1.852,310,3147,2119,3147,-7.0,28.0,26.0,87.70751190185547,-105.52977752685547,-29.479978561401367,-2.8714599609375,0.5853271484375,0.240966796875
1.873,315,3147,2083,3147,-7.0,28.0,26.0,47.485347747802734,-83.74022674560547,-22.338865280151367,-3.5472412109375,-0.232177734375,0.6854248046875
1.873,316,3147,2024,3147,-7.0,28.0,26.0,24.902341842651367,-44.372554779052734,-2.685546636581421,-3.6571044921875,-0.3624267578125,0.53271484375
1.886,314,3147,2086,3147,-7.0,28.0,26.0,10.925292015075684,0.7324218153953552,20.01953125,-2.579345703125,0.0870361328125,-0.2275390625
1.888,313,3147,2113,3147,-7.0,28.0,26.0,-26.367185592651367,39.794921875,22.766111373901367,-1.4144287109375,0.757080078125,-0.606201171875
1.902,316,3147,2068,3147,-6.0,27.0,25.0,-71.533203125,64.27001953125,10.314940452575684,-1.4337158203125,0.9366455078125,-0.2562255859375
1.910,313,3147,2063,3147,-6.0,27.0,25.0,-81.66503143310547,68.54248046875,-1.2817381620407104,-1.9635009765625,0.4842529296875,0.069580078125
1.932,313,3147,2035,3147,-6.0,27.0,25.0,-51.330562591552734,58.471675872802734,-2.197265625,-2.2513427734375,0.2666015625,0.035400390625
1.933,313,3147,1960,3147,-6.0,27.0,25.0,-9.765625,45.715328216552734,5.187987804412842,-2.13134765625,0.4617919921875,-0.192626953125
1.940,313,3147,1927,3147,-6.0,27.0,25.0,10.131834983825684,34.66796875,6.652831554412842,-1.776123046875,0.623779296875,-0.35498046875
1.949,310,3147,1894,3147,-6.0,27.0,25.0,5.554198741912842,26.428220748901367,-1.03759765625,-1.4173583984375,0.5513916015625,-0.37451171875
1.987,308,3147,1794,2867,-6.0,27.0,25.0,-7.385253429412842,22.949216842651367,-8.48388671875,-1.11279296875,0.462646484375,-0.3455810546875
1.987,310,3147,1695,2386,-6.0,27.0,25.0,-17.7001953125,24.169919967651367,-10.559081077575684,-0.8338623046875,0.453125,-0.3232421875
1.988,312,3147,1682,1757,-6.0,27.0,25.0,-17.7001953125,24.169919967651367,-10.559081077575684,-0.6473388671875,0.371826171875,-0.2640380859375
1.993,308,3147,1627,371,-6.0,27.0,25.0,-29.785154342651367,20.080564498901367,-16.357421875,-0.5711669921875,0.1629638671875,-0.1302490234375
2.001,308,2263,1584,336,-6.0,26.0,26.0,-27.099607467651367,7.324218273162842,-29.113767623901367,-0.5130615234375,-0.155029296875,0.0330810546875
2.010,308,1384,1624,336,-6.0,26.0,26.0,-27.099607467651367,7.324218273162842,-29.113767623901367,-0.4486083984375,-0.4022216796875,0.0811767578125
2.033,306,564,1476,323,-6.0,26.0,26.0,16.845703125,-7.934569835662842,-49.865718841552734,-0.400390625,-0.3255615234375,0.0572509765625
2.033,305,421,1384,323,-6.0,26.0,26.0,30.944822311401367,-5.249022960662842,-45.776363372802734,-0.4251708984375,-0.027099609375,0.039306640625
2.041,304,400,1343,323,-6.0,26.0,26.0,30.944822311401367,-5.249022960662842,-45.776363372802734,-0.482177734375,0.1776123046875,0.0404052734375
2.053,306,428,1276,321,-6.0,26.0,26.0,-9.3994140625,-2.685546636581421,-36.92626953125,-0.484619140625,0.2059326171875,0.0543212890625
2.077,302,409,1220,323,-6.0,26.0,26.0,-35.888671875,0.7934569716453552,-29.846189498901367,-0.431884765625,0.17236328125,0.04443359375
2.079,304,433,1183,324,-6.0,26.0,26.0,-35.888671875,0.7934569716453552,-29.846189498901367,-0.3668212890625,0.18603515625,0.0477294921875
2.082,308,439,1228,324,-6.0,26.0,26.0,-30.761716842651367,12.451170921325684,-8.1787109375,-0.3333740234375,0.2374267578125,0.09423828125
2.096,305,430,1289,321,-6.0,26.0,26.0,-13.916014671325684,12.817381858825684,-0.4272460639476776,-0.349609375,0.2703857421875,0.155517578125
2.099,306,411,1306,321,-5.0,26.0,25.0,-13.916014671325684,12.817381858825684,-0.4272460639476776,-0.406982421875,0.2574462890625,0.1959228515625
2.112,306,423,1283,321,-5.0,26.0,25.0,10.375975608825684,3.356933355331421,3.051757574081421,-0.501220703125,0.231201171875,0.192626953125
2.135,304,464,1303,324,-5.0,26.0,25.0,20.874021530151367,-0.54931640625,3.845214605331421,-0.62744140625,0.2337646484375,0.132568359375
2.137,315,566,1331,324,-5.0,26.0,25.0,20.874021530151367,-0.54931640625,3.845214605331421,-0.7288818359375,0.2349853515625,0.0400390625
2.142,308,728,1468,327,-5.0,26.0,25.0,36.1328125,-4.21142578125,10.742186546325684,-0.7490234375,0.1717529296875,-0.0316162109375
2.150,310,1143,1504,332,-5.0,26.0,25.0,33.87451171875,-5.676269054412842,13.793944358825684,-0.702880859375,0.0670166015625,-0.059814453125
2.161,310,1687,1580,331,-5.0,26.0,25.0,33.87451171875,-5.676269054412842,13.793944358825684,-0.6661376953125,0.04833984375,-0.072998046875
2.172,310,2880,1669,343,-5.0,26.0,25.0,28.625486373901367,-4.8828125,20.690916061401367,-0.6611328125,0.1038818359375,-0.1180419921875
2.199,309,3147,1702,441,-5.0,26.0,25.0,22.888181686401367,-1.5258787870407104,26.611326217651367,-0.6776123046875,0.150390625,-0.1732177734375
2.199,311,3147,1735,944,-5.0,26.0,25.0,22.888181686401367,-1.5258787870407104,26.611326217651367,-0.669189453125,0.181396484375,-0.1605224609375
2.212,312,3147,1757,1912,-3.0,26.0,26.0,-26.794431686401367,8.4228515625,40.893550872802734,-0.5662841796875,0.15673828125,-0.059814453125
2.214,312,3147,1769,2347,-3.0,26.0,26.0,-26.794431686401367,8.4228515625,40.893550872802734,-0.3355712890625,0.0595703125,0.02392578125
2.218,312,3147,1809,2691,-3.0,26.0,26.0,-49.743648529052734,6.164550304412842,45.227046966552734,-0.3355712890625,0.0595703125,0.02392578125
2.235,315,3147,1985,3064,-3.0,26.0,26.0,-8.7890625,-35.70556640625,30.456541061401367,0.5859375,-0.0047607421875,-0.0040283203125
2.241,313,3147,2072,3147,-3.0,26.0,26.0,-8.7890625,-35.70556640625,30.456541061401367,0.728271484375,0.3543701171875,-0.16845703125
2.250,315,3147,2162,3147,-3.0,26.0,26.0,54.626461029052734,-76.96533203125,4.39453125,0.728271484375,0.3543701171875,-0.16845703125
2.265,315,3147,2164,3147,-3.0,26.0,26.0,128.11279296875,-130.7373046875,-45.227046966552734,-1.1380615234375,1.49658203125,-0.426025390625
2.275,314,3147,2205,3147,-3.0,26.0,26.0,128.11279296875,-130.7373046875,-45.227046966552734,-2.466064453125,0.8160400390625,0.1639404296875
2.278,310,3147,2257,3147,-3.0,26.0,26.0,92.22411346435547,-117.85887908935547,-47.546382904052734,-2.466064453125,0.8160400390625,0.1639404296875
2.292,309,3147,2058,3147,-8.0,21.0,29.0,25.817869186401367,-54.809566497802734,-18.85986328125,-3.831298828125,-0.717529296875,1.113525390625
2.300,309,3147,2100,3147,-8.0,21.0,29.0,25.817869186401367,-54.809566497802734,-18.85986328125,-2.6893310546875,-0.2711181640625,-0.0615234375
2.308,310,3147,2108,3147,-8.0,21.0,29.0,33.14208984375,-15.747069358825684,13.610838890075684,-2.6893310546875,-0.2711181640625,-0.0615234375
2.338,310,3147,2118,3147,-8.0,21.0,29.0,-38.75732421875,49.072261810302734,8.72802734375,-1.2191162109375,1.1673583984375,-0.6044921875
2.339,312,3147,2076,3147,-8.0,21.0,29.0,-38.75732421875,49.072261810302734,8.72802734375,-1.7572021484375,0.561279296875,-0.05224609375
2.340,310,3147,2076,3147,-8.0,21.0,29.0,-68.9697265625,49.560543060302734,-14.709471702575684,-1.7572021484375,0.561279296875,-0.05224609375
2.352,310,3147,2028,3147,-8.0,21.0,29.0,-18.1884765625,26.794431686401367,-20.629880905151367,-2.2894287109375,0.1981201171875,0.0684814453125
2.363,310,3147,1957,3147,-8.0,21.0,29.0,-18.1884765625,26.794431686401367,-20.629880905151367,-1.935302734375,0.3892822265625,0.00146484375
2.378,308,3147,1908,3147,-8.0,21.0,29.0,-2.13623046875,24.475095748901367,-9.8876953125,-1.935302734375,0.3892822265625,0.00146484375
2.382,308,3147,1862,2981,-8.0,21.0,29.0,-24.963376998901367,38.6962890625,1.4648436307907104,-1.28955078125,0.35107421875,-0.0382080078125
2.400,309,3147,1798,2611,-8.0,28.0,26.0,-24.963376998901367,38.6962890625,1.4648436307907104,-1.05419921875,0.3170166015625,-0.1480712890625
2.401,304,3147,1711,2118,-8.0,28.0,26.0,-35.46142578125,50.170894622802734,3.723144292831421,-1.05419921875,0.3170166015625,-0.1480712890625
2.412,307,3147,1650,582,-8.0,28.0,26.0,-41.259761810302734,44.494625091552734,-2.13623046875,-0.5826416015625,0.244140625,-0.1527099609375
2.420,310,2568,1641,336,-8.0,28.0,26.0,-41.259761810302734,44.494625091552734,-2.13623046875,-0.5826416015625,0.244140625,-0.1527099609375
2.443,306,1531,1595,337,-8.0,28.0,26.0,-33.26416015625,28.564451217651367,-16.11328125,-0.46826171875,0.0137939453125,-0.067138671875
2.444,306,479,1604,317,-8.0,28.0,26.0,-14.526366233825684,13.488768577575684,-33.14208984375,-0.4180908203125,-0.0943603515625,-0.0286865234375
2.459,304,466,1415,321,-8.0,28.0,26.0,8.30078125,4.69970703125,-44.677730560302734,-0.4180908203125,-0.0943603515625,-0.0286865234375
2.462,305,401,1434,323,-8.0,28.0,26.0,16.845703125,0.3662109076976776,-46.936031341552734,-0.4420166015625,0.0469970703125,-0.0201416015625
2.479,302,437,1328,327,-8.0,28.0,26.0,3.173827886581421,-1.4038084745407104,-44.494625091552734,-0.4969482421875,0.206787109375,-0.0703125
2.480,302,424,1222,299,-8.0,28.0,26.0,-25.268552780151367,0.6713866591453552,-39.24560546875,-0.4969482421875,0.206787109375,-0.0703125
2.488,302,403,1173,322,-7.0,27.0,25.0,-55.175777435302734,6.591796398162842,-31.677244186401367,-0.471435546875,0.116943359375,-0.047607421875
2.506,305,479,1153,323,-7.0,27.0,25.0,-70.25146484375,14.404295921325684,-23.315427780151367,-0.4468994140625,0.046630859375,0.0860595703125
2.511,304,466,1186,321,-7.0,27.0,25.0,-62.622066497802734,20.324705123901367,-12.878417015075684,-0.4468994140625,0.046630859375,0.0860595703125
2.549,304,445,1228,321,-7.0,27.0,25.0,-41.259761810302734,19.83642578125,-2.685546636581421,-0.437255859375,0.1031494140625,0.14892578125
2.549,304,462,1258,321,-7.0,27.0,25.0,-19.775390625,12.939452171325684,1.6479490995407104,-0.4010009765625,0.1842041015625,0.1380615234375
2.550,306,478,1236,322,-7.0,27.0,25.0,-4.08935546875,3.540038824081421,-1.3427733182907104,-0.4010009765625,0.1842041015625,0.1380615234375
2.550,306,496,1276,323,-7.0,27.0,25.0,5.920409679412842,-5.065917491912842,-6.530761241912842,-0.463623046875,0.2861328125,0.1112060546875
2.562,309,455,1290,321,-7.0,27.0,25.0,13.854979515075684,-11.474608421325684,-6.652831554412842,-0.57080078125,0.2769775390625,0.156982421875
2.584,308,411,1382,323,-7.0,27.0,25.0,22.216794967651367,-15.502928733825684,-0.2441406100988388,-0.57080078125,0.2769775390625,0.156982421875
2.584,308,437,1385,324,-7.0,27.0,25.0,29.785154342651367,-16.78466796875,8.7890625,-0.5601806640625,0.0806884765625,0.19091796875
2.592,305,705,1540,324,-7.0,29.0,23.0,39.55078125,-14.526366233825684,18.06640625,-0.4869384765625,-0.2412109375,0.1148681640625
2.612,310,1316,1624,327,-7.0,29.0,23.0,52.978511810302734,-9.765625,26.855466842651367,-0.4869384765625,-0.2412109375,0.1148681640625
2.612,313,2271,1678,334,-7.0,29.0,23.0,65.4296875,-4.0283203125,35.888671875,-0.4754638671875,-0.2674560546875,0.0361328125
2.622,312,3147,1732,568,-7.0,29.0,23.0,72.57080078125,2.807616949081421,46.569820404052734,-0.7471923828125,0.255859375,-0.2464599609375
2.631,310,3147,1753,1172,-7.0,29.0,23.0,68.54248046875,11.413573265075684,57.617183685302734,-0.7471923828125,0.255859375,-0.2464599609375
2.645,310,3147,1789,1757,-7.0,29.0,23.0,34.912109375,17.15087890625,62.011714935302734,-0.78369140625,0.4814453125,-0.3011474609375
2.659,313,3147,1878,2557,-7.0,29.0,23.0,-24.353025436401367,12.634276390075684,55.358882904052734,-0.4365234375,0.401611328125,-0.0916748046875
2.660,315,3147,1968,2820,-7.0,29.0,23.0,-55.236812591552734,-3.662109136581421,41.625972747802734,0.140625,0.3109130859375,0.0743408203125
2.672,315,3147,2041,2886,-7.0,29.0,23.0,-29.418943405151367,-30.334470748901367,20.935056686401367,0.5880126953125,0.3492431640625,-0.0662841796875
2.683,313,3147,2155,3147,-7.0,27.0,28.0,25.756834030151367,-65.673828125,-7.690429210662842,0.496337890625,0.5106201171875,-0.3704833984375
2.690,315,3147,2165,3147,-7.0,27.0,28.0,78.30810546875,-100.09764862060547,-34.1796875,-0.3924560546875,0.8026123046875,-0.5894775390625
2.720,315,3147,2213,3147,-7.0,27.0,28.0,102.17284393310547,-116.21092987060547,-44.982906341552734,-1.7386474609375,0.7188720703125,-0.3570556640625
2.722,315,3147,2312,3147,-7.0,27.0,28.0,85.44921112060547,-109.80223846435547,-40.10009765625,-2.8037109375,-0.0870361328125,0.338623046875
2.722,313,3147,2223,3147,-7.0,27.0,28.0,51.696773529052734,-85.57128143310547,-25.207517623901367,-3.46337890625,-0.5701904296875,0.987548828125
2.746,313,3147,2156,3147,-7.0,27.0,28.0,28.808591842651367,-47.790523529052734,3.112792730331421,-3.7198486328125,-0.1832275390625,1.0721435546875
2.754,313,3147,2203,3147,-7.0,27.0,28.0,14.526366233825684,-3.417968511581421,33.02001953125,-2.7864990234375,0.3829345703125,0.174072265625
2.755,315,3147,2197,3147,-7.0,27.0,28.0,-19.4091796875,41.015621185302734,36.2548828125,-1.4898681640625,0.9149169921875,-0.69287109375
2.758,313,3147,2172,3147,-7.0,27.0,28.0,-66.162109375,70.61767578125,12.634276390075684,-1.3118896484375,0.9620361328125,-0.5655517578125
2.777,313,3147,2119,3147,-7.0,27.0,28.0,-84.41161346435547,70.73974609375,-12.451170921325684,-1.810546875,0.38818359375,-0.149658203125
2.788,313,3147,2102,3147,-5.0,23.0,28.0,-63.537593841552734,50.537105560302734,-19.8974609375,-2.18408203125,0.043212890625,0.0133056640625
2.788,315,3147,2053,3147,-5.0,23.0,28.0,-30.334470748901367,32.71484375,-10.437010765075684,-2.106201171875,0.19384765625,0.001220703125
2.802,309,3147,1943,3147,-5.0,23.0,28.0,-17.333984375,27.832029342651367,1.03759765625,-1.7203369140625,0.4417724609375,-0.0098876953125
2.810,313,3147,1908,3147,-5.0,23.0,28.0,-25.878904342651367,34.11865234375,4.5166015625,-1.3482666015625,0.42333984375,0.0186767578125
2.826,310,3147,1869,3147,-5.0,23.0,28.0,-38.4521484375,46.203609466552734,3.051757574081421,-1.1429443359375,0.299072265625,0.000732421875
2.835,309,3147,1753,2608,-5.0,23.0,28.0,-43.090816497802734,56.579586029052734,2.563476324081421,-1.0179443359375,0.3211669921875,-0.1202392578125
2.856,310,3147,1700,2076,-5.0,23.0,28.0,-39.306640625,56.274410247802734,0.7324218153953552,-0.85205078125,0.3861083984375,-0.2520751953125
2.859,308,3147,1686,1369,-5.0,23.0,28.0,-30.456541061401367,43.395992279052734,-7.690429210662842,-0.6866455078125,0.3421630859375,-0.3060302734375
2.863,310,3042,1607,346,-5.0,23.0,28.0,-21.606443405151367,24.536130905151367,-21.728513717651367,-0.549072265625,0.137451171875,-0.2523193359375
2.871,308,2341,1582,330,-5.0,23.0,28.0,-15.563963890075684,8.60595703125,-35.888671875,-0.4638671875,-0.090087890625,-0.149169921875
2.895,308,1336,1577,328,-7.0,29.0,27.0,-10.375975608825684,1.4648436307907104,-44.494625091552734,-0.4395751953125,-0.18212890625,-0.0440673828125
2.896,306,754,1523,334,-7.0,29.0,27.0,-9.21630859375,1.8920897245407104,-43.395992279052734,-0.41015625,-0.1607666015625,0.072265625
2.901,306,465,1463,330,-7.0,29.0,27.0,-13.854979515075684,5.554198741912842,-34.24072265625,-0.3836669921875,-0.1405029296875,0.1859130859375
2.909,306,423,1450,327,-7.0,29.0,27.0,-20.996091842651367,10.192870140075684,-23.620603561401367,-0.4061279296875,-0.1007080078125,0.2510986328125
2.922,306,479,1443,328,-7.0,29.0,27.0,-26.550291061401367,13.916014671325684,-15.380858421325684,-0.4608154296875,0.026611328125,0.229736328125
2.954,308,473,1447,318,-7.0,29.0,27.0,-26.306150436401367,15.441893577575684,-9.27734375,-0.5037841796875,0.1785888671875,0.1419677734375
2.955,308,513,1447,327,-7.0,29.0,27.0,-18.49365234375,15.319823265075684,-3.662109136581421,-0.5335693359375,0.3087158203125,0.0494384765625
2.955,310,522,1492,322,-7.0,29.0,27.0,-8.6669921875,14.282225608825684,1.8920897245407104,-0.5577392578125,0.3814697265625,0.0064697265625
2.961,308,576,1508,323,-7.0,29.0,27.0,-5.249022960662842,12.695311546325684,5.493163585662842,-0.5731201171875,0.3577880859375,0.0018310546875
2.969,309,584,1521,328,-7.0,29.0,27.0,-8.544921875,11.108397483825684,6.530761241912842,-0.5806884765625,0.25341796875,-0.0015869140625
3.001,309,766,1543,328,-6.0,26.0,27.0,-14.221190452575684,10.070799827575684,6.652831554412842,-0.614990234375,0.132080078125,-0.0146484375
3.002,308,922,1561,327,-6.0,26.0,27.0,-17.4560546875,8.97216796875,7.568358898162842,-0.7120361328125,0.0352783203125,-0.031494140625
3.002,310,1129,1560,334,-6.0,26.0,27.0,-13.244627952575684,7.263183116912842,10.498045921325684,-0.848876953125,0.0029296875,-0.0467529296875
3.012,308,1683,1588,334,-6.0,26.0,27.0,1.03759765625,5.371093273162842,15.319823265075684,-0.9547119140625,0.0411376953125,-0.061279296875
3.020,308,1996,1627,336,-6.0,26.0,27.0,18.12744140625,3.234863042831421,20.080564498901367,-0.9901123046875,0.0926513671875,-0.069580078125
3.029,308,2280,1643,336,-6.0,26.0,27.0,30.700681686401367,0.54931640625,24.047849655151367,-0.9273681640625,0.1138916015625,-0.062744140625
3.060,308,3115,1714,342,-6.0,26.0,27.0,39.306640625,-2.868652105331421,28.930662155151367,-0.7318115234375,0.056396484375,-0.0404052734375
3.060,313,3147,1718,563,-6.0,26.0,27.0,41.259761810302734,-4.638671875,34.0576171875,-0.5145263671875,-0.0086669921875,-0.0462646484375
3.060,311,3147,1745,1067,-6.0,26.0,27.0,28.198240280151367,-1.0986328125,36.0107421875,-0.426513671875,0.0560302734375,-0.0977783203125
3.076,313,3147,1762,1973,-4.0,28.0,26.0,0.1831054538488388,4.8828125,34.85107421875,-0.3828125,0.175537109375,-0.1141357421875
3.094,308,3147,1838,2398,-4.0,28.0,26.0,-26.123044967651367,4.33349609375,32.04345703125,-0.173095703125,0.1988525390625,-0.0609130859375
3.094,315,3147,1961,2668,-4.0,28.0,26.0,-29.174802780151367,-9.21630859375,26.428220748901367,0.291015625,0.190185546875,-0.0274658203125
3.109,315,3147,2068,3085,-4.0,28.0,26.0,-4.39453125,-36.7431640625,15.686034202575684,0.7509765625,0.2830810546875,-0.081787109375
3.110,316,3147,2151,3147,-4.0,28.0,26.0,37.65869140625,-72.3876953125,-1.0986328125,0.6956787109375,0.572265625,-0.1964111328125
3.118,316,3147,2180,3147,-4.0,28.0,26.0,37.65869140625,-72.3876953125,-1.0986328125,-0.1220703125,0.9913330078125,-0.3455810546875
3.133,316,3147,2210,3147,-4.0,28.0,26.0,93.01757049560547,-115.23436737060547,-32.470703125,-1.3663330078125,1.1640625,-0.2755126953125
3.162,315,3147,2258,3147,-4.0,28.0,26.0,71.044921875,-111.14501190185547,-32.2265625,-2.478759765625,0.4989013671875,0.37939453125
3.163,310,3147,2339,3147,-4.0,28.0,26.0,71.044921875,-111.14501190185547,-32.2265625,-3.28515625,-0.46142578125,1.0330810546875
3.163,318,3147,2225,3147,-4.0,28.0,26.0,31.921384811401367,-57.434078216552734,-4.94384765625,-3.7486572265625,-0.57666015625,1.03515625
3.177,315,3147,2280,3147,-7.0,27.0,26.0,30.700681686401367,-8.85009765625,21.301267623901367,-3.0499267578125,-0.1630859375,0.210693359375
3.178,316,3147,2279,3147,-7.0,27.0,26.0,30.700681686401367,-8.85009765625,21.301267623901367,-1.7027587890625,0.541015625,-0.6129150390625
3.195,316,3147,2220,3147,-7.0,27.0,26.0,-51.513668060302734,81.54296112060547,18.24951171875,-1.3582763671875,0.988037109375,-0.556396484375
3.201,313,3147,2194,3147,-7.0,27.0,26.0,-85.44921112060547,89.72167205810547,0.1831054538488388,-1.831787109375,0.626220703125,-0.202392578125
3.215,316,3147,2170,3147,-7.0,27.0,26.0,-85.44921112060547,89.72167205810547,0.1831054538488388,-2.24169921875,0.2841796875,-0.0887451171875
3.222,316,3147,2072,3147,-7.0,27.0,26.0,-33.99658203125,48.339839935302734,-5.249022960662842,-2.218017578125,0.3304443359375,-0.1715087890625
3.231,316,3147,2018,3147,-7.0,27.0,26.0,-8.7890625,34.7900390625,-1.4648436307907104,-1.8609619140625,0.4403076171875,-0.21240234375
3.239,310,3147,1989,2959,-7.0,27.0,26.0,-8.7890625,34.7900390625,-1.4648436307907104,-1.5018310546875,0.385009765625,-0.1756591796875
3.260,310,3147,1898,3147,-7.0,27.0,26.0,-16.17431640625,35.64453125,-3.540038824081421,-1.2554931640625,0.281005859375,-0.154052734375
3.261,312,3147,1813,2905,-7.0,27.0,26.0,-22.277830123901367,40.954586029052734,-2.197265625,-1.0306396484375,0.2923583984375,-0.1893310546875
3.275,310,3147,1766,2194,-5.0,26.0,25.0,-22.277830123901367,40.954586029052734,-2.197265625,-0.794189453125,0.3358154296875,-0.218994140625
3.287,307,3147,1703,808,-5.0,26.0,25.0,-19.1650390625,34.912109375,-9.33837890625,-0.6121826171875,0.2889404296875,-0.16650390625
3.297,314,2769,1641,334,-5.0,26.0,25.0,-13.061522483825684,20.324705123901367,-24.780271530151367,-0.481689453125,0.0628662109375,-0.0445556640625
3.299,321,1785,1655,338,-5.0,26.0,25.0,-13.061522483825684,20.324705123901367,-24.780271530151367,-0.3919677734375,-0.2138671875,0.0030517578125
3.318,313,731,1535,325,-5.0,26.0,25.0,13.427733421325684,2.50244140625,-52.429195404052734,-0.34912109375,-0.21240234375,-0.0084228515625
3.320,313,473,1503,328,-5.0,26.0,25.0,19.95849609375,5.371093273162842,-49.987789154052734,-0.35302734375,-0.015625,0.0294189453125
3.366,304,424,1377,323,-5.0,26.0,25.0,-19.10400390625,11.840819358825684,-35.5224609375,-0.340576171875,-0.0283203125,0.06982421875
3.367,310,402,1359,323,-5.0,26.0,25.0,-19.10400390625,11.840819358825684,-35.5224609375,-0.36572265625,-0.0159912109375,0.0213623046875
3.368,308,416,1331,323,-5.0,26.0,25.0,-38.63525390625,16.66259765625,-26.916501998901367,-0.36572265625,-0.0159912109375,0.0213623046875
3.373,306,424,1323,323,-3.0,29.0,24.0,-27.343748092651367,22.155759811401367,-4.57763671875,-0.5069580078125,0.2144775390625,-0.0062255859375
3.381,306,439,1382,322,-3.0,29.0,24.0,-27.343748092651367,22.155759811401367,-4.57763671875,-0.5203857421875,0.3048095703125,0.050048828125
3.408,307,418,1424,321,-3.0,29.0,24.0,-9.21630859375,19.04296875,3.784179449081421,-0.5029296875,0.3050537109375,0.1085205078125
3.408,308,400,1449,322,-3.0,29.0,24.0,2.50244140625,12.817381858825684,6.774901866912842,-0.5029296875,0.3050537109375,0.1085205078125
3.414,308,507,1455,327,-3.0,29.0,24.0,7.141112804412842,-0.2441406100988388,4.39453125,-0.56494140625,0.21630859375,0.1473388671875
3.420,281,546,1463,302,-3.0,29.0,24.0,7.141112804412842,-0.2441406100988388,4.39453125,-0.6431884765625,0.17822265625,0.089111328125
3.428,306,620,1476,330,-3.0,29.0,24.0,13.916014671325684,-4.57763671875,5.310058116912842,-0.6431884765625,0.17822265625,0.089111328125
3.451,310,1173,1596,328,-3.0,29.0,24.0,25.207517623901367,-5.981444835662842,9.33837890625,-0.78125,0.0833740234375,-0.0821533203125
3.453,309,1624,1634,328,-3.0,29.0,24.0,36.07177734375,-4.8828125,15.624999046325684,-0.78125,0.0833740234375,-0.0821533203125
3.469,308,2085,1653,338,-3.0,29.0,24.0,42.724605560302734,-2.38037109375,23.071287155151367,-0.8472900390625,0.04296875,-0.147216796875
3.472,309,2710,1702,338,-6.0,27.0,26.0,22.216794967651367,5.187987804412842,36.92626953125,-0.9364013671875,0.0662841796875,-0.1954345703125
3.481,310,3147,1744,359,-6.0,27.0,26.0,22.216794967651367,5.187987804412842,36.92626953125,-0.885498046875,0.068115234375,-0.167236328125
3.490,310,3147,1757,797,-6.0,27.0,26.0,-6.713866710662842,8.1787109375,41.442867279052734,-0.885498046875,0.068115234375,-0.167236328125
3.503,313,3147,1794,1774,-6.0,27.0,26.0,-38.2080078125,5.981444835662842,49.682613372802734,-0.603759765625,0.044921875,-0.1085205078125
3.510,310,3147,1806,2254,-6.0,27.0,26.0,-38.2080078125,5.981444835662842,49.682613372802734,-0.32958984375,0.16748046875,-0.056396484375
3.518,315,3147,1869,2559,-6.0,27.0,26.0,-27.832029342651367,-2.50244140625,51.513668060302734,-0.32958984375,0.16748046875,-0.056396484375
3.535,316,3147,1987,3120,-6.0,27.0,26.0,6.103515148162842,-41.320796966552734,22.583005905151367,0.5926513671875,0.447509765625,0.0826416015625
3.540,315,3147,2087,3147,-6.0,27.0,26.0,6.103515148162842,-41.320796966552734,22.583005905151367,0.5860595703125,0.5689697265625,-0.0677490234375
3.570,316,3147,2195,3147,-6.0,27.0,26.0,33.38623046875,-66.89453125,-3.112792730331421,0.5860595703125,0.5689697265625,-0.0677490234375
3.579,316,3147,2190,3147,-6.0,26.0,26.0,72.3876953125,-87.70751190185547,-24.597166061401367,-1.2711181640625,0.806640625,-0.4862060546875
3.579,316,3147,2221,3147,-6.0,26.0,26.0,98.02245330810547,-98.44969940185547,-35.7666015625,-1.2711181640625,0.806640625,-0.4862060546875
3.580,318,3147,2240,3147,-6.0,26.0,26.0,81.90917205810547,-98.44969940185547,-35.21728515625,-2.413818359375,0.3990478515625,-0.009765625
3.593,315,3147,2298,3147,-6.0,26.0,26.0,35.0341796875,-87.46337127685547,-26.000974655151367,-3.123779296875,-0.525146484375,0.7822265625
3.608,314,3147,2223,3147,-6.0,26.0,26.0,-3.662109136581421,-60.363765716552734,-6.103515148162842,-3.123779296875,-0.525146484375,0.7822265625
3.609,316,3147,2225,3147,-6.0,26.0,26.0,-19.34814453125,-18.310546875,20.690916061401367,-2.7841796875,-0.06494140625,0.4739990234375
3.623,315,3147,2233,3147,-6.0,26.0,26.0,-30.578611373901367,29.174802780151367,35.94970703125,-1.5526123046875,0.8251953125,-0.29638671875
3.632,313,3147,2215,3147,-6.0,26.0,26.0,-52.917476654052734,69.091796875,31.433103561401367,-1.5526123046875,0.8251953125,-0.29638671875
3.638,314,3147,2186,3147,-6.0,26.0,26.0,-64.5751953125,88.25682830810547,19.22607421875,-1.9605712890625,0.82177734375,-0.218017578125
3.680,313,3147,2074,3147,-6.0,26.0,26.0,-49.072261810302734,80.93260955810547,10.559081077575684,-2.295654296875,0.3946533203125,-0.4031982421875
3.682,310,3147,2000,3147,-6.0,26.0,19.0,-22.583005905151367,57.556148529052734,7.568358898162842,-2.295654296875,0.3946533203125,-0.4031982421875
3.706,313,3147,1973,3147,-6.0,26.0,19.0,-3.906249761581421,35.09521484375,5.676269054412842,-1.9013671875,0.4954833984375,-0.4569091796875
3.709,310,3147,1846,3147,-6.0,26.0,19.0,-0.9765624403953552,21.728513717651367,-1.2817381620407104,-1.2547607421875,0.4761962890625,-0.333984375
3.710,302,3147,1798,2660,-6.0,26.0,19.0,-7.080077648162842,17.51708984375,-10.009765625,-1.2547607421875,0.4761962890625,-0.333984375
3.710,313,3147,1705,1821,-6.0,26.0,19.0,-15.075682640075684,18.98193359375,-14.648436546325684,-0.94287109375,0.39404296875,-0.3011474609375
3.710,316,3147,1695,1045,-6.0,26.0,19.0,-20.996091842651367,21.240232467651367,-16.17431640625,-0.675537109375,0.27099609375,-0.2088623046875
3.733,313,2391,1604,330,-6.0,26.0,19.0,-22.705076217651367,18.00537109375,-21.362302780151367,-0.4876708984375,0.01220703125,-0.05224609375
3.733,314,1351,1598,336,-6.0,26.0,19.0,-17.822265625,8.056640625,-33.447265625,-0.3524169921875,-0.3382568359375,0.079345703125
3.737,313,763,1569,331,-6.0,26.0,19.0,-0.8544921278953552,-0.3662109076976776,-45.593257904052734,-0.2821044921875,-0.4349365234375,0.088623046875
3.753,310,466,1422,324,-6.0,26.0,19.0,18.5546875,-2.685546636581421,-48.706050872802734,-0.244873046875,-0.212158203125,0.09130859375
3.771,314,431,1415,323,-3.0,28.0,26.0,22.277830123901367,-2.50244140625,-45.593257904052734,-0.2601318359375,0.051025390625,0.08740234375
3.771,306,411,1370,323,-3.0,28.0,26.0,4.39453125,-0.9765624403953552,-42.480464935302734,-0.2952880859375,0.1800537109375,0.0712890625
3.789,313,445,1390,324,-3.0,28.0,26.0,-25.634763717651367,2.624511480331421,-36.68212890625,-0.3076171875,0.179931640625,0.0894775390625
3.791,315,401,1437,321,-3.0,28.0,26.0,-43.640132904052734,9.1552734375,-24.230955123901367,-0.3209228515625,0.1375732421875,0.093017578125
3.803,315,387,1452,324,-3.0,28.0,26.0,-35.33935546875,17.333984375,-6.408690929412842,-0.3465576171875,0.1710205078125,0.0919189453125
3.811,315,409,1386,324,-3.0,28.0,26.0,-14.465331077575684,21.423337936401367,8.9111328125,-0.4036865234375,0.232421875,0.115234375
3.821,315,487,1411,324,-3.0,28.0,26.0,0.30517578125,17.4560546875,14.465331077575684,-0.4989013671875,0.221923828125,0.128173828125
3.830,316,538,1454,323,-3.0,28.0,26.0,6.896972179412842,8.23974609375,11.230467796325684,-0.625,0.2127685546875,0.095703125
3.842,316,644,1519,324,-3.0,28.0,26.0,13.366698265075684,-1.4038084745407104,6.347655773162842,-0.7457275390625,0.260986328125,0.0234375
3.849,317,986,1541,330,-3.0,28.0,26.0,23.925779342651367,-8.60595703125,4.7607421875,-0.8157958984375,0.30859375,-0.043212890625
3.879,316,1183,1608,332,-5.0,26.0,21.0,33.63037109375,-12.390135765075684,6.896972179412842,-0.8291015625,0.2747802734375,-0.0592041015625
3.879,317,1925,1675,334,-5.0,26.0,21.0,37.59765625,-13.000487327575684,11.474608421325684,-0.817626953125,0.1529541015625,-0.052490234375
3.880,317,2333,1703,334,-5.0,26.0,21.0,36.7431640625,-10.803221702575684,17.7001953125,-0.8226318359375,0.02197265625,-0.0596923828125
3.890,318,2679,1730,344,-5.0,26.0,21.0,31.677244186401367,-6.469726085662842,24.414060592651367,-0.8529052734375,-0.04248046875,-0.0740966796875
3.914,317,3147,1750,436,-5.0,26.0,21.0,19.287109375,-0.6713866591453552,30.700681686401367,-0.8394775390625,-0.094970703125,-0.0887451171875
3.914,316,3147,1761,1014,-5.0,26.0,21.0,0.6713866591453552,6.042479991912842,38.14697265625,-0.769287109375,-0.201171875,-0.1046142578125
3.918,322,3147,1779,1499,-5.0,26.0,21.0,-15.502928733825684,14.160155296325684,50.231929779052734,-0.70263671875,-0.1500244140625,-0.104248046875
3.931,313,3147,1815,2167,-5.0,26.0,21.0,-25.634763717651367,21.728513717651367,63.537593841552734,-0.6490478515625,0.1483154296875,-0.0565185546875
3.939,314,3147,1817,2498,-5.0,26.0,21.0,-39.0625,23.498533248901367,67.7490234375,-0.5084228515625,0.342041015625,0.0452880859375
3.948,314,3147,1850,2918,-5.0,26.0,21.0,-53.771968841552734,15.930174827575684,58.593746185302734,-0.029296875,0.2454833984375,0.2215576171875
3.978,316,3147,2041,3147,-5.0,28.0,26.0,-44.982906341552734,-4.39453125,38.6962890625,0.730712890625,0.109130859375,0.3858642578125
3.978,315,3147,2135,3147,-5.0,28.0,26.0,6.591796398162842,-37.109375,12.023924827575684,1.1611328125,0.2513427734375,0.2318115234375
3.978,313,3147,2188,3147,-5.0,28.0,26.0,88.80614471435547,-77.2705078125,-17.88330078125,0.695556640625,0.7496337890625,-0.2802734375
3.995,313,3147,2242,3147,-5.0,28.0,26.0,154.541015625,-112.54882049560547,-40.405269622802734,-0.5877685546875,1.4222412109375,-0.9627685546875
4.002,315,3147,2328,3147,-5.0,28.0,26.0,154.6630859375,-123.35204315185547,-45.043941497802734,-2.119873046875,1.5162353515625,-1.1248779296875
4.014,318,3147,2372,3147,-5.0,28.0,26.0,88.56200408935547,-111.93846893310547,-41.687007904052734,-3.441162109375,0.4345703125,-0.0726318359375
4.021,315,3147,2240,3147,-5.0,28.0,26.0,15.319823265075684,-93.20067596435547,-28.991697311401367,-4.0,-0.78369140625,1.304443359375
4.029,316,3147,2257,3147,-5.0,28.0,26.0,-3.417968511581421,-61.950679779052734,0.6713866591453552,-3.045654296875,-1.114013671875,0.8369140625
4.038,318,3147,2273,3147,-5.0,28.0,26.0,-1.7089842557907104,-14.831542015075684,21.972654342651367,-1.3052978515625,0.0372314453125,-0.3990478515625
4.052,321,3147,2268,3147,-4.0,25.0,26.0,-31.433103561401367,34.85107421875,15.563963890075684,-0.9095458984375,1.29541015625,-0.32373046875
4.062,318,3147,2243,3147,-4.0,25.0,26.0,-67.2607421875,65.24658203125,-9.70458984375,-1.4915771484375,0.9935302734375,0.109619140625
4.072,323,3147,2230,3147,-4.0,25.0,26.0,-63.476558685302734,68.66455078125,-28.991697311401367,-2.1781005859375,0.3280029296875,0.0550537109375
4.082,315,3147,2131,3147,-4.0,25.0,26.0,-22.216794967651367,56.335445404052734,-27.404783248901367,-2.4068603515625,0.1702880859375,-0.285400390625
4.090,316,3147,2083,3147,-4.0,25.0,26.0,6.408690929412842,38.330078125,-16.17431640625,-2.11767578125,0.294677734375,-0.43896484375
4.105,321,3147,2014,3147,-4.0,25.0,26.0,2.0751953125,24.597166061401367,-7.873534679412842,-1.7191162109375,0.3836669921875,-0.34814453125
4.125,309,3147,1892,3147,-4.0,25.0,26.0,-17.7001953125,20.446775436401367,-5.310058116912842,-1.4398193359375,0.336669921875,-0.2034912109375
4.125,315,3147,1865,2978,-4.0,25.0,26.0,-33.69140625,25.268552780151367,-5.371093273162842,-1.1973876953125,0.28173828125,-0.19189453125
4.127,319,3147,1775,2316,-4.0,25.0,26.0,-40.283199310302734,33.203125,-5.615233898162842,-0.8673095703125,0.270751953125,-0.250732421875
4.141,315,3147,1730,669,-4.0,25.0,26.0,-41.015621185302734,34.48486328125,-9.09423828125,-0.513916015625,0.21728515625,-0.2000732421875
4.151,313,2700,1700,346,-4.0,29.0,26.0,-37.9638671875,22.705076217651367,-20.141599655151367,-0.230712890625,0.0411376953125,-0.0328369140625
4.158,313,1700,1691,333,-4.0,29.0,26.0,-37.9638671875,22.705076217651367,-20.141599655151367,-0.0950927734375,-0.13818359375,0.06005859375
4.181,306,568,1662,330,-4.0,29.0,26.0,5.310058116912842,-9.09423828125,-51.818843841552734,-0.1558837890625,-0.046875,0.058837890625
4.181,292,497,1627,318,-4.0,29.0,26.0,24.230955123901367,-13.122557640075684,-57.800289154052734,-0.3115234375,0.15380859375,0.099853515625
4.187,306,409,1557,323,-4.0,29.0,26.0,24.230955123901367,-13.122557640075684,-57.800289154052734,-0.439697265625,0.205810546875,0.118408203125
4.224,308,427,1536,323,-4.0,29.0,26.0,-3.845214605331421,-6.469726085662842,-51.879878997802734,-0.48681640625,0.1512451171875,0.0771484375
4.225,308,375,1521,301,-4.0,29.0,26.0,-30.822751998901367,2.990722417831421,-39.6728515625,-0.5106201171875,0.04541015625,0.02880859375
4.225,296,447,1492,323,-4.0,29.0,26.0,-30.822751998901367,2.990722417831421,-39.6728515625,-0.55712890625,-0.0279541015625,0.01416015625
4.237,307,431,1483,322,-4.0,29.0,26.0,-55.480953216552734,19.6533203125,-9.1552734375,-0.58740234375,-0.01318359375,0.064208984375
4.240,308,438,1488,323,-4.0,29.0,26.0,-50.964351654052734,18.24951171875,1.03759765625,-0.55419921875,0.0147705078125,0.14208984375
4.250,310,456,1503,323,-4.0,28.0,20.0,-50.964351654052734,18.24951171875,1.03759765625,-0.4915771484375,0.0230712890625,0.1881103515625
4.261,309,387,1543,319,-4.0,28.0,20.0,-24.780271530151367,2.38037109375,-0.6103515625,-0.4852294921875,0.1016845703125,0.177978515625
4.286,310,389,1568,326,-4.0,28.0,20.0,-5.676269054412842,-3.234863042831421,-2.685546636581421,-0.544677734375,0.264404296875,0.116455078125
4.286,309,439,1590,323,-4.0,28.0,20.0,-5.676269054412842,-3.234863042831421,-2.685546636581421,-0.6318359375,0.3603515625,0.060791015625
4.292,310,536,1623,328,-4.0,28.0,20.0,27.893064498901367,-7.385253429412842,3.234863042831421,-0.709228515625,0.289794921875,0.041748046875
4.302,313,614,1676,332,-4.0,28.0,20.0,35.94970703125,-7.019042491912842,8.9111328125,-0.7508544921875,0.0989990234375,0.02978515625
4.329,314,736,1691,323,-4.0,28.0,20.0,35.94970703125,-7.019042491912842,8.9111328125,-0.772216796875,-0.101806640625,-0.008056640625
4.329,313,1468,1755,334,-4.0,28.0,20.0,42.053218841552734,-2.01416015625,22.094724655151367,-0.805419921875,-0.182373046875,-0.058349609375
4.329,315,1880,1773,334,-4.0,28.0,20.0,39.794921875,1.7700194120407104,29.479978561401367,-0.8851318359375,-0.133056640625,-0.0863037109375
4.341,315,2245,1787,344,-4.0,28.0,20.0,39.794921875,1.7700194120407104,29.479978561401367,-0.97216796875,-0.0311279296875,-0.1180419921875
4.353,315,3095,1801,344,-3.0,28.0,22.0,24.230955123901367,8.7890625,45.471187591552734,-0.955078125,0.0367431640625,-0.1597900390625
4.359,316,3147,1794,548,-3.0,28.0,22.0,24.230955123901367,8.7890625,45.471187591552734,-0.8387451171875,0.076904296875,-0.15234375
4.367,316,3147,1803,1198,-3.0,28.0,22.0,1.7700194120407104,13.854979515075684,53.833003997802734,-0.8387451171875,0.076904296875,-0.15234375
4.386,316,3147,1792,1968,-3.0,28.0,22.0,-43.945308685302734,19.04296875,64.3310546875,-0.5780029296875,0.2005615234375,-0.0228271484375
4.389,317,3147,1844,2259,-3.0,28.0,22.0,-43.945308685302734,19.04296875,64.3310546875,-0.3060302734375,0.200439453125,0.025390625
4.398,313,3147,1927,2557,-3.0,28.0,22.0,-41.503902435302734,7.263183116912842,60.241695404052734,-0.3060302734375,0.200439453125,0.025390625
4.432,315,3147,2068,2799,-3.0,28.0,22.0,23.376462936401367,-43.579097747802734,20.690916061401367,0.692626953125,0.396484375,0.0914306640625
4.432,316,3147,2167,3044,-3.0,28.0,22.0,23.376462936401367,-43.579097747802734,20.690916061401367,0.7344970703125,0.5897216796875,-0.0863037109375
4.432,313,3147,2178,3147,-3.0,28.0,22.0,68.90869140625,-73.73046875,-8.4228515625,0.7344970703125,0.5897216796875,-0.0863037109375
4.441,318,3147,2295,3147,-5.0,23.0,28.0,111.93846893310547,-107.11669158935547,-39.00146484375,-1.2938232421875,1.2457275390625,-0.5565185546875
4.449,325,3147,2362,3147,-5.0,23.0,28.0,111.93846893310547,-107.11669158935547,-39.00146484375,-2.6356201171875,0.442138671875,-0.082275390625
4.461,325,3147,2437,3147,-5.0,23.0,28.0,78.91845703125,-100.89110565185547,-39.0625,-2.6356201171875,0.442138671875,-0.082275390625
4.471,318,3147,2404,3147,-5.0,23.0,28.0,22.827146530151367,-62.622066497802734,-20.935056686401367,-3.5706787109375,-0.8455810546875,0.8016357421875
4.489,318,3147,2392,3147,-5.0,23.0,28.0,22.827146530151367,-62.622066497802734,-20.935056686401367,-2.9383544921875,-0.11962890625,0.3408203125
4.489,316,3147,2445,3147,-5.0,23.0,28.0,32.71484375,-30.883787155151367,10.437010765075684,-2.9383544921875,-0.11962890625,0.3408203125
4.501,315,3147,2435,3147,-5.0,23.0,28.0,-17.578125,41.625972747802734,24.230955123901367,-1.21533203125,1.0772705078125,-0.243408203125
4.509,318,3147,2409,3147,-5.0,23.0,28.0,-17.578125,41.625972747802734,24.230955123901367,-1.7257080078125,0.73681640625,0.0396728515625
4.535,315,3147,2357,3147,-5.0,23.0,28.0,-56.945796966552734,66.650390625,3.173827886581421,-1.7257080078125,0.73681640625,0.0396728515625
4.535,315,3147,2284,3147,-5.0,23.0,28.0,-27.709959030151367,54.870601654052734,-12.390135765075684,-2.3309326171875,0.27197265625,-0.226806640625
4.539,315,3147,2233,3147,-5.0,25.0,27.0,-27.709959030151367,54.870601654052734,-12.390135765075684,-1.986083984375,0.42041015625,-0.369384765625
4.547,316,3147,2165,3147,-5.0,25.0,27.0,-4.638671875,37.59765625,-7.263183116912842,-1.986083984375,0.42041015625,-0.369384765625
4.561,316,3147,2061,3095,-5.0,25.0,27.0,-14.404295921325684,21.545408248901367,-11.169432640075684,-1.360595703125,0.34375,-0.23291015625
4.591,316,3147,1983,2832,-5.0,25.0,27.0,-14.404295921325684,21.545408248901367,-11.169432640075684,-1.0968017578125,0.329345703125,-0.250732421875
4.591,313,3147,1931,2292,-5.0,25.0,27.0,-26.550291061401367,24.719236373901367,-14.953612327575684,-1.0968017578125,0.329345703125,-0.250732421875
4.593,305,3147,1789,1116,-5.0,25.0,27.0,-39.6728515625,32.8369140625,-16.17431640625,-0.546630859375,0.1702880859375,-0.0557861328125
4.599,317,3147,1746,344,-5.0,25.0,27.0,-54.748531341552734,41.015621185302734,-17.4560546875,-0.546630859375,0.1702880859375,-0.0557861328125
4.607,310,2047,1722,346,-5.0,25.0,27.0,-65.36865234375,42.724605560302734,-20.690916061401367,-0.3751220703125,-0.1317138671875,0.1436767578125
4.639,308,797,1711,321,-5.0,25.0,27.0,-56.579586029052734,36.07177734375,-26.428220748901367,-0.3177490234375,-0.2913818359375,0.0731201171875
4.639,308,521,1655,321,-5.0,25.0,27.0,-25.085447311401367,26.550291061401367,-33.203125,-0.3177490234375,-0.2913818359375,0.0731201171875
4.640,306,418,1616,323,-5.0,25.0,26.0,5.493163585662842,16.05224609375,-37.7197265625,-0.3525390625,-0.021484375,0.0606689453125
4.655,308,390,1540,323,-5.0,25.0,26.0,17.822265625,7.019042491912842,-40.893550872802734,-0.43603515625,0.189697265625,-0.009521484375
4.660,306,395,1494,322,-5.0,25.0,26.0,11.230467796325684,4.21142578125,-42.053218841552734,-0.43603515625,0.189697265625,-0.009521484375
4.668,307,388,1494,323,-5.0,25.0,26.0,-8.056640625,7.446288585662842,-37.65869140625,-0.484375,0.226318359375,-0.077880859375
4.693,310,418,1533,323,-5.0,25.0,26.0,-25.695798873901367,14.282225608825684,-26.733396530151367,-0.509765625,0.2838134765625,-0.0032958984375
4.693,310,406,1516,323,-5.0,25.0,26.0,-35.82763671875,21.118162155151367,-12.817381858825684,-0.509765625,0.2838134765625,-0.0032958984375
4.698,308,399,1555,323,-5.0,25.0,26.0,-43.945308685302734,22.583005905151367,-1.5869139432907104,-0.5096435546875,0.1976318359375,0.1224365234375
4.711,313,371,1627,321,-5.0,25.0,26.0,-46.936031341552734,17.51708984375,3.845214605331421,-0.5565185546875,0.0379638671875,0.1597900390625
4.742,310,369,1656,324,-5.0,25.0,26.0,-37.78076171875,9.1552734375,4.0283203125,-0.5565185546875,0.0379638671875,0.1597900390625
4.742,316,481,1610,302,-5.0,25.0,26.0,-18.06640625,0.9765624403953552,2.807616949081421,-0.5938720703125,0.1114501953125,0.1015625
4.742,314,533,1705,327,-4.0,27.0,22.0,3.662109136581421,-4.2724609375,3.784179449081421,-0.6724853515625,0.096435546875,0.0302734375
4.751,310,646,1732,324,-4.0,27.0,22.0,20.507810592651367,-5.554198741912842,7.995604991912842,-0.6724853515625,0.096435546875,0.0302734375
4.758,312,883,1745,324,-4.0,27.0,22.0,31.127927780151367,-3.906249761581421,14.221190452575684,-0.7008056640625,-0.0179443359375,0.0291748046875
4.776,314,1632,1772,336,-4.0,27.0,22.0,37.04833984375,-0.4272460639476776,20.690916061401367,-0.7513427734375,-0.088623046875,-0.0511474609375
4.801,300,2131,1785,328,-4.0,27.0,22.0,40.466304779052734,3.295898199081421,27.709959030151367,-0.7513427734375,-0.088623046875,-0.0511474609375
4.802,316,2467,1791,343,-4.0,27.0,22.0,42.602535247802734,5.859374523162842,35.7666015625,-0.8043212890625,0.0087890625,-0.1036376953125
4.802,313,3147,1820,521,-4.0,27.0,22.0,38.63525390625,8.544921875,43.457027435302734,-0.85107421875,0.144775390625,-0.1571044921875
4.810,315,3147,1837,1149,-4.0,27.0,22.0,17.822265625,12.329100608825684,47.912593841552734,-0.8172607421875,0.24560546875,-0.1651611328125
4.818,313,3147,1830,1713,-4.0,27.0,22.0,-19.95849609375,15.319823265075684,48.583980560302734,-0.6982421875,0.2197265625,-0.1053466796875
4.835,317,3147,1877,2415,-4.0,27.0,22.0,-50.537105560302734,13.610838890075684,48.461910247802734,-0.5311279296875,0.1427001953125,-0.003173828125
4.846,313,3147,1980,2535,-5.0,27.0,25.0,-48.156734466552734,0.9765624403953552,48.217769622802734,-0.21923828125,0.078369140625,0.1422119140625
4.847,315,3147,2100,2701,-5.0,27.0,25.0,-8.23974609375,-26.306150436401367,41.931148529052734,0.30126953125,0.0704345703125,0.281982421875
4.861,315,3147,2221,3028,-5.0,27.0,25.0,54.565425872802734,-61.340328216552734,22.460935592651367,0.6749267578125,0.312744140625,0.2335205078125
4.869,319,3147,2240,3147,-5.0,27.0,25.0,113.52538299560547,-90.69823455810547,-7.019042491912842,0.4281005859375,0.7227783203125,-0.07568359375
4.878,321,3147,2328,3147,-5.0,27.0,25.0,141.9677734375,-103.39354705810547,-30.578611373901367,-0.5560302734375,1.08984375,-0.6156005859375
4.896,316,3147,2443,3147,-5.0,27.0,25.0,121.03270721435547,-89.96581268310547,-34.11865234375,-2.0340576171875,1.011962890625,-1.0657958984375
4.900,316,3147,2486,3147,-5.0,27.0,25.0,47.790523529052734,-63.049312591552734,-23.498533248901367,-3.24365234375,-0.026123046875,-0.5325927734375
4.912,319,3147,2481,3147,-5.0,27.0,25.0,-26.733396530151367,-48.400875091552734,-9.3994140625,-3.574462890625,-0.98486328125,0.5321044921875
4.928,318,3147,2407,3147,-5.0,27.0,25.0,-39.4287109375,-39.4287109375,12.390135765075684,-3.171630859375,-0.6334228515625,0.7841796875
4.936,318,3147,2435,3147,-5.0,27.0,25.0,-11.108397483825684,-17.7001953125,33.26416015625,-2.1759033203125,0.400390625,0.2691650390625
4.938,316,3147,2456,3147,-7.0,26.0,27.0,-5.798339366912842,15.808104515075684,31.188962936401367,-1.253662109375,1.1773681640625,-0.0921630859375
4.954,309,3147,2421,3147,-7.0,26.0,27.0,-30.456541061401367,46.386714935302734,9.27734375,-1.3447265625,1.1754150390625,-0.03662109375
4.960,315,3147,2340,3147,-7.0,26.0,27.0,-47.790523529052734,60.302730560302734,-11.413573265075684,-2.005859375,0.5107421875,-0.00146484375
4.968,316,3147,2319,3147,-7.0,26.0,27.0,-44.067378997802734,57.373043060302734,-16.05224609375,-2.3350830078125,0.0328369140625,-0.11328125
4.982,321,3147,2205,3147,-7.0,26.0,27.0,-30.761716842651367,48.889156341552734,-6.652831554412842,-2.1806640625,0.05712890625,-0.220458984375
5.000,319,3147,2144,3147,-7.0,26.0,27.0,-20.751951217651367,41.564937591552734,2.50244140625,-1.8011474609375,0.2542724609375,-0.2098388671875
5.001,321,3147,2105,3147,-7.0,26.0,27.0,-16.2353515625,35.15625,3.112792730331421,-1.419677734375,0.3843994140625,-0.167236328125
5.011,318,3147,1987,2505,-7.0,26.0,27.0,-13.366698265075684,30.395505905151367,-2.807616949081421,-1.0616455078125,0.435791015625,-0.211181640625
5.039,313,3147,1920,1983,-7.0,26.0,27.0,-12.329100608825684,28.686521530151367,-10.375975608825684,-0.74853515625,0.4151611328125,-0.2459716796875
5.039,300,3147,1877,1268,-7.0,26.0,27.0,-13.488768577575684,27.587888717651367,-17.88330078125,-0.5582275390625,0.296142578125,-0.192138671875
5.042,318,3051,1812,344,-6.0,30.0,26.0,-15.380858421325684,24.169919967651367,-25.024412155151367,-0.4674072265625,0.0853271484375,-0.1290283203125
5.052,314,2047,1811,336,-6.0,30.0,26.0,-14.953612327575684,18.6767578125,-30.700681686401367,-0.4061279296875,-0.11962890625,-0.13427734375
5.063,317,1170,1786,338,-6.0,30.0,26.0,-9.3994140625,13.000487327575684,-34.36279296875,-0.35986328125,-0.176025390625,-0.19140625
5.072,308,496,1709,327,-6.0,30.0,26.0,-1.9531248807907104,7.629394054412842,-36.19384765625,-0.379638671875,-0.0780029296875,-0.208984375
5.079,310,401,1632,324,-6.0,30.0,26.0,-0.2441406100988388,2.25830078125,-37.17041015625,-0.4613037109375,0.0152587890625,-0.132080078125
5.102,308,359,1572,324,-6.0,30.0,26.0,-8.60595703125,-2.929687261581421,-37.841796875,-0.5272216796875,0.0,-0.0128173828125
5.102,308,404,1546,323,-6.0,30.0,26.0,-19.4091796875,-4.638671875,-35.64453125,-0.5548095703125,0.0152587890625,0.0570068359375
5.111,310,413,1516,323,-6.0,30.0,26.0,-24.902341842651367,-0.54931640625,-27.465818405151367,-0.5543212890625,0.1220703125,0.0897216796875
5.119,308,371,1529,323,-6.0,30.0,26.0,-26.855466842651367,6.408690929412842,-15.319823265075684,-0.5440673828125,0.1444091796875,0.1492919921875
5.148,310,372,1523,323,-3.0,25.0,21.0,-26.855466842651367,11.962889671325684,-4.150390625,-0.5665283203125,0.070556640625,0.2305908203125
5.148,308,414,1543,323,-3.0,25.0,21.0,-20.324705123901367,14.465331077575684,4.638671875,-0.6260986328125,0.0572509765625,0.2537841796875
5.148,308,445,1569,300,-3.0,25.0,21.0,-6.042479991912842,13.549803733825684,10.681151390075684,-0.6929931640625,0.154541015625,0.1915283203125
5.169,310,482,1613,324,-3.0,25.0,21.0,8.9111328125,9.58251953125,12.939452171325684,-0.7685546875,0.2852783203125,0.0947265625
5.170,298,508,1650,327,-3.0,25.0,21.0,17.7001953125,3.784179449081421,12.451170921325684,-0.8238525390625,0.34375,0.015380859375
5.177,308,480,1684,324,-3.0,25.0,21.0,19.287109375,-1.0986328125,10.742186546325684,-0.817138671875,0.3125,-0.0335693359375
5.205,310,546,1695,324,-3.0,25.0,21.0,16.7236328125,-2.3193359375,9.6435546875,-0.767822265625,0.248291015625,-0.0693359375
5.205,312,603,1715,324,-3.0,25.0,21.0,11.230467796325684,0.4272460639476776,10.498045921325684,-0.7178955078125,0.1739501953125,-0.08056640625
5.209,313,794,1711,323,-3.0,25.0,21.0,2.746581792831421,5.065917491912842,13.916014671325684,-0.679443359375,0.074951171875,-0.050048828125
5.221,312,1330,1702,334,-3.0,25.0,21.0,-5.249022960662842,10.192870140075684,20.324705123901367,-0.6590576171875,-0.0430908203125,-0.0147705078125
5.236,309,1931,1739,344,-6.0,26.0,29.0,-7.934569835662842,15.258788108825684,29.846189498901367,-0.6591796875,-0.1090087890625,-0.025390625
5.252,313,2464,1743,344,-6.0,26.0,29.0,-4.2724609375,19.287109375,40.771480560302734,-0.663330078125,-0.0516357421875,-0.085693359375
5.252,316,3147,1806,519,-6.0,26.0,29.0,-2.44140625,20.629880905151367,49.499507904052734,-0.6827392578125,0.1253662109375,-0.14453125
5.259,315,3147,1850,1096,-6.0,26.0,29.0,-11.230467796325684,17.2119140625,53.833003997802734,-0.6815185546875,0.287109375,-0.1336669921875
5.274,316,3147,1863,1769,-6.0,26.0,29.0,-11.230467796325684,17.2119140625,53.833003997802734,-0.5101318359375,0.2490234375,-0.0498046875
5.281,314,3147,1921,2703,-6.0,26.0,29.0,-30.822751998901367,-4.33349609375,52.612300872802734,-0.0672607421875,0.0413818359375,0.087158203125
5.289,314,3147,2010,2974,-6.0,26.0,29.0,-14.343260765075684,-22.399900436401367,46.325679779052734,0.493896484375,-0.086181640625,0.274169921875
5.310,315,3147,2104,3056,-6.0,26.0,29.0,-14.343260765075684,-22.399900436401367,46.325679779052734,0.7650146484375,0.185302734375,0.3355712890625
5.312,302,3147,2268,3147,-6.0,26.0,29.0,91.18651580810547,-76.0498046875,5.859374523162842,0.4537353515625,0.71240234375,0.1341552734375
5.319,316,3147,2295,3147,-6.0,26.0,29.0,143.98193359375,-100.83007049560547,-26.611326217651367,-0.421142578125,1.052734375,-0.3817138671875
5.328,323,3147,2359,3147,-7.0,26.0,22.0,143.98193359375,-100.83007049560547,-26.611326217651367,-1.66162109375,1.108154296875,-1.127685546875
5.346,323,3147,2440,3147,-7.0,26.0,22.0,101.62352752685547,-84.53368377685547,-48.828121185302734,-2.852783203125,0.4434814453125,-1.071533203125
5.350,316,3147,2473,3147,-7.0,26.0,22.0,15.686034202575684,-69.2138671875,-39.73388671875,-3.4556884765625,-0.5888671875,0.0499267578125
5.364,316,3147,2456,3147,-7.0,26.0,22.0,15.686034202575684,-69.2138671875,-39.73388671875,-3.443115234375,-0.73291015625,0.8746337890625
5.372,321,3147,2467,3147,-7.0,26.0,22.0,-4.5166015625,-52.673336029052734,11.779784202575684,-2.8270263671875,-0.065185546875,0.6258544921875
5.380,318,3147,2491,3147,-7.0,26.0,22.0,10.681151390075684,-18.9208984375,24.780271530151367,-1.691162109375,0.7117919921875,-0.02685546875
5.387,317,3147,2494,3147,-7.0,26.0,22.0,10.681151390075684,-18.9208984375,24.780271530151367,-1.1929931640625,1.038818359375,-0.10302734375
5.409,316,3147,2415,3147,-7.0,26.0,22.0,-67.5048828125,55.603023529052734,0.9765624403953552,-1.700927734375,0.6260986328125,0.2249755859375
5.409,319,3147,2350,3147,-7.0,26.0,22.0,-86.54784393310547,70.3125,-2.13623046875,-2.241455078125,0.1065673828125,0.2933349609375
5.418,318,3147,2271,3147,-7.0,26.0,22.0,-86.54784393310547,70.3125,-2.13623046875,-2.2559814453125,0.0943603515625,0.031982421875
5.432,324,3147,2183,3147,-8.0,26.0,26.0,-43.762203216552734,69.64111328125,15.441893577575684,-1.88623046875,0.3526611328125,-0.218994140625
5.448,316,3147,2115,3147,-8.0,26.0,26.0,-30.517576217651367,64.8193359375,14.465331077575684,-1.5025634765625,0.47412109375,-0.2593994140625
5.449,313,3147,2035,3147,-8.0,26.0,26.0,-30.517576217651367,64.8193359375,14.465331077575684,-1.2183837890625,0.4552001953125,-0.2747802734375
5.461,315,3147,1920,2728,-8.0,26.0,26.0,-29.785154342651367,46.569820404052734,0.30517578125,-0.9326171875,0.4439697265625,-0.3626708984375
5.475,322,3147,1867,2194,-8.0,26.0,26.0,-29.296873092651367,38.63525390625,-6.347655773162842,-0.68603515625,0.4005126953125,-0.3643798828125
5.477,316,3147,1787,1424,-8.0,26.0,26.0,-29.296873092651367,38.63525390625,-6.347655773162842,-0.5638427734375,0.2049560546875,-0.2669677734375
5.491,316,3147,1786,356,-8.0,26.0,26.0,-22.399900436401367,24.353025436401367,-22.827146530151367,-0.463623046875,-0.1058349609375,-0.21484375
5.501,309,2328,1755,345,-8.0,26.0,26.0,-22.399900436401367,24.353025436401367,-22.827146530151367,-0.34130859375,-0.2445068359375,-0.2315673828125
5.516,309,1629,1741,334,-8.0,26.0,26.0,-8.85009765625,16.845703125,-30.456541061401367,-0.34130859375,-0.2445068359375,-0.2315673828125
5.521,307,691,1628,328,-7.0,26.0,26.0,10.559081077575684,5.981444835662842,-38.818359375,-0.310791015625,0.037353515625,-0.1400146484375
5.529,308,518,1557,321,-7.0,26.0,26.0,10.559081077575684,5.981444835662842,-38.818359375,-0.3583984375,0.0633544921875,0.027099609375
5.552,306,421,1528,318,-7.0,26.0,26.0,-1.7089842557907104,1.2817381620407104,-40.832515716552734,-0.3583984375,0.0633544921875,0.027099609375
5.552,313,433,1416,300,-7.0,26.0,26.0,-33.87451171875,4.21142578125,-33.8134765625,-0.4520263671875,0.13134765625,0.1158447265625
5.560,313,438,1428,326,-7.0,26.0,26.0,-33.87451171875,4.21142578125,-33.8134765625,-0.503662109375,0.2425537109375,0.127685546875
5.573,308,467,1463,324,-7.0,26.0,26.0,-39.73388671875,12.390135765075684,-21.728513717651367,-0.503662109375,0.2425537109375,0.127685546875
5.618,308,576,1469,323,-7.0,26.0,26.0,-41.870113372802734,21.423337936401367,2.746581792831421,-0.646728515625,0.1865234375,0.269775390625
5.618,305,559,1488,324,-7.0,26.0,26.0,-41.870113372802734,21.423337936401367,2.746581792831421,-0.695068359375,0.185546875,0.253173828125
5.618,309,578,1488,310,-7.0,26.0,26.0,-36.7431640625,19.287109375,7.873534679412842,-0.695068359375,0.185546875,0.253173828125
5.618,311,645,1557,323,-7.0,26.0,26.0,-13.183592796325684,8.6669921875,7.751464366912842,-0.7276611328125,0.1990966796875,0.046142578125
5.621,313,756,1615,325,-2.0,28.0,24.0,-13.183592796325684,8.6669921875,7.751464366912842,-0.7398681640625,0.1806640625,-0.05517578125
5.628,313,1043,1627,330,-2.0,28.0,24.0,1.7089842557907104,4.08935546875,7.324218273162842,-0.7398681640625,0.1806640625,-0.05517578125
5.655,310,1429,1653,328,-2.0,28.0,24.0,20.568845748901367,0.6713866591453552,13.244627952575684,-0.74365234375,0.09033203125,-0.125244140625
5.655,313,1846,1669,333,-2.0,28.0,24.0,20.568845748901367,0.6713866591453552,13.244627952575684,-0.7523193359375,0.02734375,-0.1177978515625
5.658,313,2222,1703,330,-2.0,28.0,24.0,19.83642578125,1.9531248807907104,18.12744140625,-0.7523193359375,0.02734375,-0.1177978515625
5.674,315,2930,1750,344,-2.0,28.0,24.0,7.507323741912842,8.60595703125,28.625486373901367,-0.8321533203125,-0.0506591796875,-0.12744140625
5.680,313,3147,1772,499,-2.0,28.0,24.0,7.507323741912842,8.60595703125,28.625486373901367,-0.806396484375,-0.0538330078125,-0.13232421875
5.689,315,3147,1815,922,-2.0,28.0,24.0,5.676269054412842,9.1552734375,36.0107421875,-0.806396484375,-0.0538330078125,-0.13232421875
5.716,317,3147,1854,1821,-2.0,28.0,24.0,10.437010765075684,1.5869139432907104,50.109859466552734,-0.570556640625,0.1463623046875,-0.10546875
5.716,315,3147,1860,2258,-2.0,28.0,24.0,10.437010765075684,1.5869139432907104,50.109859466552734,-0.461181640625,0.2843017578125,-0.1051025390625
5.720,310,3147,1869,2573,-4.0,25.0,23.0,14.343260765075684,-4.0283203125,49.438472747802734,-0.461181640625,0.2843017578125,-0.1051025390625
5.733,314,3147,2050,2869,-4.0,25.0,23.0,41.137691497802734,-37.4755859375,21.423337936401367,0.1094970703125,0.14599609375,0.221923828125
5.753,315,3147,2141,3115,-4.0,25.0,23.0,41.137691497802734,-37.4755859375,21.423337936401367,0.5416259765625,0.135986328125,0.345458984375
5.753,318,3147,2224,3147,-4.0,25.0,23.0,83.00780487060547,-63.293453216552734,-3.601073980331421,0.5416259765625,0.135986328125,0.345458984375
5.762,321,3147,2247,3147,-4.0,25.0,23.0,177.24607849121094,-106.99462127685547,-40.0390625,0.03173828125,1.031982421875,-0.48291015625
5.771,318,3147,2287,3147,-4.0,25.0,23.0,177.24607849121094,-106.99462127685547,-40.0390625,-1.263671875,1.5926513671875,-1.2730712890625
5.780,323,3147,2359,3147,-4.0,25.0,23.0,166.01560974121094,-106.01805877685547,-38.818359375,-1.263671875,1.5926513671875,-1.2730712890625
5.792,316,3147,2435,3147,-4.0,25.0,23.0,-16.05224609375,-73.486328125,-31.188962936401367,-3.6561279296875,-0.298583984375,0.3939208984375
5.821,318,3147,2396,3147,-4.0,25.0,23.0,-16.05224609375,-73.486328125,-31.188962936401367,-3.9273681640625,-1.130859375,1.240478515625
5.821,323,3147,2412,3147,-4.0,25.0,23.0,-57.678218841552734,-66.650390625,-21.789548873901367,-3.9273681640625,-1.130859375,1.240478515625
5.822,317,3147,2428,3147,-7.0,25.0,23.0,-21.850584030151367,-44.494625091552734,1.03759765625,-1.6014404296875,0.363525390625,-0.4876708984375
5.831,316,3147,2464,3147,-7.0,25.0,23.0,2.563476324081421,-8.48388671875,13.122557640075684,-1.6014404296875,0.363525390625,-0.4876708984375
5.839,318,3147,2419,3147,-7.0,25.0,23.0,-23.559568405151367,24.475095748901367,6.408690929412842,-1.34912109375,0.96240234375,-0.220947265625
5.858,316,3147,2290,3147,-7.0,25.0,23.0,-54.870601654052734,41.442867279052734,-5.065917491912842,-2.2174072265625,0.13427734375,0.2401123046875
5.861,317,3147,2213,3147,-7.0,25.0,23.0,-57.006832122802734,45.349117279052734,-7.629394054412842,-2.2174072265625,0.13427734375,0.2401123046875
5.869,319,3147,2153,3147,-7.0,25.0,23.0,-42.602535247802734,49.255367279052734,2.25830078125,-2.1575927734375,0.107666015625,-0.0006103515625
5.883,321,3147,2063,3147,-7.0,25.0,23.0,-36.4990234375,56.091304779052734,14.343260765075684,-1.48876953125,0.4312744140625,-0.028564453125
5.891,314,3147,1983,3147,-7.0,25.0,23.0,-40.649410247802734,61.340328216552734,20.568845748901367,-1.48876953125,0.4312744140625,-0.028564453125
5.899,314,3147,1912,2853,-7.0,25.0,23.0,-43.884273529052734,61.523433685302734,18.24951171875,-1.2449951171875,0.5321044921875,-0.1444091796875
5.927,319,3147,1803,1656,-8.0,26.0,21.0,-41.503902435302734,56.762691497802734,8.60595703125,-0.693603515625,0.3526611328125,-0.45263671875
5.927,316,3147,1748,958,-8.0,26.0,21.0,-36.19384765625,47.973628997802734,-5.615233898162842,-0.693603515625,0.3526611328125,-0.45263671875
5.929,310,2912,1755,337,-8.0,26.0,21.0,-31.188962936401367,34.60693359375,-22.094724655151367,-0.428955078125,0.1182861328125,-0.3892822265625
5.943,308,1248,1739,342,-8.0,26.0,21.0,-27.526853561401367,18.85986328125,-36.92626953125,-0.13232421875,-0.1873779296875,-0.241455078125
5.961,299,621,1686,324,-8.0,26.0,21.0,-22.216794967651367,8.11767578125,-45.593257904052734,-0.13232421875,-0.1873779296875,-0.241455078125
5.961,308,552,1569,327,-8.0,26.0,21.0,-17.333984375,4.45556640625,-46.936031341552734,-0.2186279296875,-0.0396728515625,-0.130615234375
5.975,313,390,1516,321,-8.0,26.0,21.0,-20.01953125,2.868652105331421,-44.067378997802734,-0.4642333984375,0.0001220703125,0.108642578125
5.981,308,390,1462,323,-8.0,26.0,21.0,-29.968259811401367,2.44140625,-41.137691497802734,-0.4642333984375,0.0001220703125,0.108642578125
5.989,313,369,1419,324,-8.0,26.0,21.0,-38.63525390625,5.371093273162842,-36.43798828125,-0.5230712890625,0.0482177734375,0.092529296875
6.003,310,417,1372,324,-8.0,26.0,21.0,-38.0859375,10.314940452575684,-26.977537155151367,-0.5791015625,0.255126953125,0.0704345703125
6.028,308,385,1399,321,-7.0,29.0,24.0,-32.28759765625,13.305663108825684,-16.357421875,-0.5791015625,0.255126953125,0.0704345703125
6.028,310,439,1427,321,-7.0,29.0,24.0,-30.151365280151367,11.535643577575684,-8.544921875,-0.545654296875,0.2130126953125,0.1485595703125
6.038,314,401,1506,321,-7.0,29.0,24.0,-31.188962936401367,6.774901866912842,-4.5166015625,-0.51171875,0.07080078125,0.28125
6.040,315,391,1548,323,-7.0,29.0,24.0,-30.395505905151367,1.9531248807907104,-2.38037109375,-0.51171875,0.07080078125,0.28125
6.062,315,388,1575,322,-7.0,29.0,24.0,-24.169919967651367,-1.7700194120407104,1.4038084745407104,-0.552490234375,0.1058349609375,0.25390625
6.063,316,521,1584,323,-7.0,29.0,24.0,-11.718749046325684,-3.234863042831421,6.774901866912842,-0.5970458984375,0.1468505859375,0.1456298828125
6.070,313,586,1613,323,-7.0,29.0,24.0,2.44140625,-2.990722417831421,11.169432640075684,-0.6651611328125,0.1533203125,0.02783203125
6.080,315,648,1624,331,-7.0,29.0,24.0,13.916014671325684,-2.685546636581421,14.770506858825684,-0.749267578125,0.1131591796875,-0.0430908203125
6.093,316,1020,1683,326,-7.0,29.0,24.0,22.766111373901367,-2.685546636581421,19.04296875,-0.7938232421875,0.0516357421875,-0.0772705078125
6.102,316,1398,1730,330,-7.0,29.0,24.0,28.991697311401367,-2.3193359375,23.925779342651367,-0.7982177734375,-0.01123046875,-0.0780029296875
6.134,316,1798,1756,332,-6.0,28.0,26.0,33.0810546875,-0.9155272841453552,29.296873092651367,-0.80810546875,-0.060791015625,-0.0601806640625
6.134,316,2748,1732,346,-6.0,28.0,26.0,37.17041015625,2.197265625,35.7666015625,-0.8387451171875,-0.0809326171875,-0.0731201171875
6.135,316,3040,1753,342,-6.0,28.0,26.0,40.283199310302734,6.958007335662842,43.029781341552734,-0.8609619140625,-0.04345703125,-0.126708984375
6.139,317,3147,1772,691,-6.0,28.0,26.0,33.0810546875,11.779784202575684,49.621578216552734,-0.8551025390625,0.0887451171875,-0.167724609375
6.152,318,3147,1806,1662,-6.0,28.0,26.0,8.544921875,14.831542015075684,54.199214935302734,-0.810546875,0.2352294921875,-0.1513671875
6.166,318,3147,1800,2135,-6.0,28.0,26.0,-21.789548873901367,15.319823265075684,56.213375091552734,-0.6971435546875,0.28466796875,-0.1092529296875
6.173,318,3147,1843,2445,-6.0,28.0,26.0,-39.0625,12.084959983825684,54.809566497802734,-0.449951171875,0.21875,-0.02392578125
6.182,318,3147,2010,2833,-6.0,28.0,26.0,-35.94970703125,1.2817381620407104,48.400875091552734,0.035888671875,0.01025390625,0.1534423828125
6.190,314,3147,2104,3047,-6.0,28.0,26.0,-10.314940452575684,-19.22607421875,34.66796875,0.6812744140625,-0.1058349609375,0.3231201171875
6.199,315,3147,2170,3147,-6.0,28.0,26.0,41.381832122802734,-46.630855560302734,11.779784202575684,1.0343017578125,0.1959228515625,0.33154296875
6.212,321,3147,2240,3147,-3.0,28.0,23.0,115.84471893310547,-77.880859375,-17.4560546875,0.55419921875,0.8121337890625,0.0299072265625
6.235,315,3147,2372,3147,-3.0,28.0,23.0,180.54197692871094,-103.02733612060547,-38.818359375,-0.6771240234375,1.496337890625,-0.75927734375
6.236,316,3147,2463,3147,-3.0,28.0,23.0,179.62644958496094,-107.05565643310547,-42.236324310302734,-2.1065673828125,1.71044921875,-1.43701171875
6.242,316,3147,2498,3147,-3.0,28.0,23.0,95.82518768310547,-94.72655487060547,-37.2314453125,-3.395751953125,0.6895751953125,-0.739013671875
6.251,322,3147,2445,3147,-3.0,28.0,23.0,-5.493163585662842,-84.65575408935547,-27.770994186401367,-4.0,-0.7398681640625,0.8441162109375
6.272,316,3147,2517,3147,-3.0,28.0,23.0,-31.982419967651367,-68.29833984375,-5.126952648162842,-3.3271484375,-1.3282470703125,0.857177734375
6.273,321,3147,2539,3147,-3.0,28.0,23.0,-8.30078125,-32.65380859375,15.258788108825684,-1.5968017578125,-0.25927734375,-0.165283203125
6.280,323,3147,2541,3147,-3.0,28.0,23.0,-16.11328125,10.131834983825684,13.366698265075684,-0.8922119140625,1.110107421875,-0.17578125
6.288,316,3147,2519,3147,-3.0,28.0,23.0,-51.269527435302734,39.97802734375,-4.7607421875,-1.2987060546875,0.9195556640625,0.2734375
6.302,319,3147,2398,3147,-8.0,28.0,29.0,-62.438961029052734,51.330562591552734,-18.6767578125,-1.963134765625,0.2935791015625,0.271484375
6.311,321,3147,2367,3147,-8.0,28.0,29.0,-41.015621185302734,53.894039154052734,-15.808104515075684,-2.262939453125,0.116943359375,-0.070556640625
6.340,316,3147,2279,3147,-8.0,28.0,29.0,-25.878904342651367,52.490230560302734,-5.126952648162842,-2.0394287109375,0.211181640625,-0.2294921875
6.340,306,3147,2186,3147,-8.0,28.0,29.0,-30.029294967651367,50.598140716552734,3.173827886581421,-1.6380615234375,0.3837890625,-0.1588134765625
6.341,304,3147,2093,3147,-8.0,28.0,29.0,-43.090816497802734,52.307125091552734,6.713866710662842,-1.3406982421875,0.4342041015625,-0.05859375
6.349,314,3147,2019,3147,-8.0,28.0,29.0,-56.640621185302734,57.373043060302734,7.019042491912842,-1.15771484375,0.3775634765625,-0.0762939453125
6.362,316,3147,1891,2230,-8.0,28.0,29.0,-62.072750091552734,61.828609466552734,6.103515148162842,-0.9705810546875,0.328125,-0.1849365234375
6.378,316,3147,1819,1506,-8.0,28.0,29.0,-53.222652435302734,57.128902435302734,1.6479490995407104,-0.74609375,0.268310546875,-0.2637939453125
6.379,318,3147,1808,890,-8.0,28.0,29.0,-33.0810546875,39.85595703125,-10.681151390075684,-0.5301513671875,0.1429443359375,-0.2724609375
6.392,308,2221,1826,334,-8.0,28.0,29.0,-10.742186546325684,17.822265625,-26.916501998901367,-0.3538818359375,-0.0655517578125,-0.2608642578125
6.401,308,1404,1805,333,-5.0,28.0,20.0,10.009765625,2.929687261581421,-38.57421875,-0.275146484375,-0.0986328125,-0.29345703125
6.409,308,834,1722,330,-5.0,28.0,20.0,21.728513717651367,-1.3427733182907104,-42.724605560302734,-0.3076171875,0.0765380859375,-0.2843017578125
6.435,308,523,1591,327,-5.0,28.0,20.0,11.291502952575684,-0.9155272841453552,-42.297359466552734,-0.3729248046875,0.147705078125,-0.160888671875
6.435,306,418,1504,315,-5.0,28.0,20.0,-16.17431640625,0.7324218153953552,-41.015621185302734,-0.428955078125,0.0228271484375,-0.0030517578125
6.446,310,383,1526,323,-5.0,28.0,20.0,-41.320796966552734,4.82177734375,-37.78076171875,-0.4935302734375,-0.058349609375,0.084228515625
6.453,311,351,1453,323,-5.0,28.0,20.0,-52.551265716552734,11.230467796325684,-29.418943405151367,-0.5731201171875,0.063232421875,0.08349609375
6.464,310,336,1422,323,-5.0,28.0,20.0,-52.917476654052734,16.66259765625,-17.822265625,-0.6510009765625,0.23291015625,0.0733642578125
6.475,308,378,1401,324,-5.0,28.0,20.0,-51.818843841552734,17.08984375,-8.30078125,-0.7064208984375,0.27001953125,0.1317138671875
6.489,313,360,1433,323,-5.0,28.0,20.0,-51.696773529052734,12.084959983825684,-3.173827886581421,-0.708251953125,0.1724853515625,0.226806640625
6.491,313,344,1474,323,-5.0,28.0,20.0,-46.752925872802734,5.371093273162842,-1.0986328125,-0.65625,0.070556640625,0.264892578125
6.498,313,363,1501,322,-3.0,30.0,22.0,-32.77587890625,0.7934569716453552,0.30517578125,-0.603515625,0.0672607421875,0.215087890625
6.512,315,526,1548,323,-3.0,30.0,22.0,-14.160155296325684,-1.0986328125,2.868652105331421,-0.569091796875,0.1290283203125,0.11083984375
6.536,315,525,1569,328,-3.0,30.0,22.0,0.54931640625,-2.25830078125,5.676269054412842,-0.5595703125,0.1695556640625,-0.00146484375
6.537,316,559,1580,326,-3.0,30.0,22.0,0.54931640625,-2.25830078125,5.676269054412842,-0.590576171875,0.1595458984375,-0.064697265625
6.542,316,676,1627,323,-3.0,30.0,22.0,10.925292015075684,-6.408690929412842,11.108397483825684,-0.6492919921875,0.10107421875,-0.070556640625
6.550,315,957,1691,327,-3.0,30.0,22.0,16.78466796875,-9.033203125,15.136717796325684,-0.7095947265625,0.029296875,-0.0703125
6.565,317,1416,1727,332,-3.0,30.0,22.0,16.78466796875,-9.033203125,15.136717796325684,-0.7677001953125,-0.00830078125,-0.091552734375
6.572,318,2108,1800,336,-3.0,30.0,22.0,42.724605560302734,-11.657713890075684,25.329587936401367,-0.821533203125,0.0001220703125,-0.125
6.580,316,2581,1808,336,-3.0,30.0,22.0,54.443355560302734,-11.047362327575684,31.372068405151367,-0.85791015625,0.056884765625,-0.1552734375
6.588,315,3065,1824,346,-3.0,30.0,22.0,54.443355560302734,-11.047362327575684,31.372068405151367,-0.814208984375,0.086181640625,-0.151123046875
6.602,318,3147,1823,1143,-4.0,27.0,24.0,36.43798828125,-7.141112804412842,37.78076171875,-0.6865234375,0.05419921875,-0.1068115234375
6.611,318,3147,1829,1743,-4.0,27.0,24.0,9.033203125,-6.408690929412842,39.36767578125,-0.53076171875,0.02685546875,-0.0667724609375
6.618,316,3147,1840,2141,-4.0,27.0,24.0,9.033203125,-6.408690929412842,39.36767578125,-0.2763671875,0.0185546875,0.0023193359375
6.639,313,3147,1981,2526,-4.0,27.0,24.0,10.070799827575684,-24.475095748901367,44.982906341552734,0.12841796875,0.1055908203125,0.1705322265625
6.641,321,3147,2100,2820,-4.0,27.0,24.0,45.898433685302734,-46.142574310302734,34.66796875,0.5279541015625,0.3367919921875,0.2872314453125
6.649,315,3147,2188,3127,-4.0,27.0,24.0,45.898433685302734,-46.142574310302734,34.66796875,0.6204833984375,0.6209716796875,0.244873046875
6.666,315,3147,2308,3147,-4.0,27.0,24.0,104.73632049560547,-89.59960174560547,-22.644041061401367,0.0877685546875,0.88720703125,-0.027099609375
6.671,318,3147,2432,3147,-4.0,27.0,24.0,114.68505096435547,-91.85790252685547,-34.423828125,-1.0728759765625,1.1329345703125,-0.626953125
6.679,323,3147,2534,3147,-4.0,27.0,24.0,114.68505096435547,-91.85790252685547,-34.423828125,-2.504150390625,0.65625,-0.8345947265625
6.693,318,3147,2653,3147,-4.0,27.0,24.0,34.66796875,-56.579586029052734,-15.869139671325684,-3.4405517578125,-0.5479736328125,-0.18310546875
6.701,318,3147,2645,3147,-5.0,25.0,24.0,-4.94384765625,-50.109859466552734,-2.807616949081421,-3.5538330078125,-0.89892578125,0.47705078125
6.714,323,3147,2585,3147,-5.0,25.0,24.0,-4.94384765625,-50.109859466552734,-2.807616949081421,-3.08544921875,-0.0693359375,0.4798583984375
6.722,317,3147,2599,3147,-5.0,25.0,24.0,0.4272460639476776,-13.854979515075684,30.456541061401367,-1.99169921875,0.7734375,0.0262451171875
6.741,318,3147,2601,3147,-5.0,25.0,24.0,-27.832029342651367,20.01953125,20.141599655151367,-1.2147216796875,1.0989990234375,-0.212158203125
6.741,316,3147,2587,3147,-5.0,25.0,24.0,-27.832029342651367,20.01953125,20.141599655151367,-1.5220947265625,0.79248046875,-0.048828125
6.752,321,3147,2521,3147,-5.0,25.0,24.0,-68.2373046875,52.856441497802734,-13.549803733825684,-2.1285400390625,0.2158203125,0.089111328125
6.768,316,3147,2430,3147,-5.0,25.0,24.0,-68.2373046875,52.856441497802734,-13.549803733825684,-2.2957763671875,0.0655517578125,0.0167236328125
6.769,321,3147,2333,3147,-5.0,25.0,24.0,-49.499507904052734,45.288082122802734,-11.108397483825684,-2.2957763671875,0.0655517578125,0.0167236328125
6.779,317,3147,2281,3147,-5.0,25.0,24.0,-30.151365280151367,39.36767578125,-0.0610351525247097,-1.990234375,0.212158203125,-0.1181640625
6.791,316,3147,2179,3147,-5.0,27.0,26.0,-29.052732467651367,42.907711029052734,9.521484375,-1.287353515625,0.3782958984375,-0.0924072265625
6.812,315,3147,2105,3147,-5.0,27.0,26.0,-29.052732467651367,42.907711029052734,9.521484375,-1.0679931640625,0.383056640625,-0.130859375
6.813,317,3147,2024,2842,-5.0,27.0,26.0,-35.46142578125,44.311519622802734,8.48388671875,-1.0679931640625,0.383056640625,-0.130859375
6.843,316,3147,1908,1697,-5.0,27.0,26.0,-41.320796966552734,46.203609466552734,3.601073980331421,-0.6885986328125,0.31689453125,-0.1763916015625
6.844,309,3147,1877,1031,-5.0,27.0,26.0,-41.320796966552734,46.203609466552734,3.601073980331421,-0.5888671875,0.0836181640625,-0.114990234375
6.844,310,3115,1816,347,-5.0,27.0,26.0,-40.893550872802734,42.724605560302734,-3.723144292831421,-0.5888671875,0.0836181640625,-0.114990234375
6.851,308,1287,1822,331,-5.0,27.0,26.0,-32.89794921875,31.982419967651367,-15.380858421325684,-0.4742431640625,-0.1578369140625,-0.2232666015625
6.859,309,766,1746,331,-5.0,27.0,26.0,-10.559081077575684,18.12744140625,-28.808591842651367,-0.4742431640625,-0.1578369140625,-0.2232666015625
6.873,310,532,1733,328,-5.0,27.0,26.0,13.854979515075684,6.286620616912842,-39.9169921875,-0.4498291015625,-0.00048828125,-0.2532958984375
6.885,308,411,1588,323,-5.0,27.0,26.0,21.118162155151367,-2.685546636581421,-46.203609466552734,-0.416259765625,0.0740966796875,-0.1063232421875
6.889,308,387,1561,321,-8.0,28.0,28.0,10.192870140075684,-6.958007335662842,-48.828121185302734,-0.416259765625,0.0740966796875,-0.1063232421875
6.897,310,380,1500,321,-8.0,28.0,28.0,-11.047362327575684,-5.249022960662842,-47.058101654052734,-0.4180908203125,0.1182861328125,-0.061279296875
6.911,310,359,1412,323,-8.0,28.0,28.0,-32.470703125,1.220703125,-38.330078125,-0.4801025390625,0.272216796875,0.09619140625
6.919,310,369,1422,323,-8.0,28.0,28.0,-48.339839935302734,9.46044921875,-25.085447311401367,-0.4801025390625,0.272216796875,0.09619140625
6.927,310,371,1433,323,-8.0,28.0,28.0,-59.020992279052734,15.991209983825684,-12.451170921325684,-0.5445556640625,0.185302734375,0.2352294921875
6.948,313,382,1500,321,-8.0,28.0,28.0,-61.462398529052734,17.822265625,-2.44140625,-0.6334228515625,0.0172119140625,0.3101806640625
6.949,315,374,1540,321,-8.0,28.0,28.0,-50.354000091552734,14.892577171325684,4.08935546875,-0.6334228515625,0.0172119140625,0.3101806640625
6.957,314,385,1574,323,-8.0,28.0,28.0,-28.076169967651367,9.6435546875,8.11767578125,-0.63623046875,0.0966796875,0.221923828125
6.987,314,531,1627,328,-8.0,28.0,28.0,-4.5166015625,4.5166015625,11.047362327575684,-0.634033203125,0.1806640625,0.038330078125
6.988,314,553,1592,306,-8.0,28.0,28.0,11.840819358825684,1.15966796875,13.122557640075684,-0.634033203125,0.1806640625,0.038330078125
6.989,315,566,1596,324,-7.0,29.0,24.0,21.301267623901367,0.0,15.563963890075684,-0.642822265625,0.1109619140625,0.0133056640625
7.002,316,1034,1697,334,-7.0,29.0,24.0,28.381345748901367,0.0610351525247097,19.8974609375,-0.6219482421875,-0.069580078125,-0.0018310546875
7.010,315,1292,1705,337,-7.0,29.0,24.0,34.11865234375,1.5258787870407104,26.428220748901367,-0.6219482421875,-0.069580078125,-0.0018310546875
7.017,315,1862,1744,338,-7.0,29.0,24.0,35.5224609375,5.615233898162842,34.0576171875,-0.63720703125,-0.079345703125,-0.037353515625
7.053,315,2880,1775,337,-7.0,29.0,24.0,32.77587890625,12.329100608825684,42.724605560302734,-0.85595703125,0.16943359375,-0.197998046875
7.054,318,3147,1808,401,-7.0,29.0,24.0,27.343748092651367,20.385740280151367,52.612300872802734,-0.85595703125,0.16943359375,-0.197998046875
7.054,317,3147,1850,1018,-7.0,29.0,24.0,11.840819358825684,25.268552780151367,60.852046966552734,-0.9044189453125,0.33642578125,-0.2357177734375
7.062,316,3147,1844,2000,-7.0,29.0,24.0,-17.08984375,21.423337936401367,63.720699310302734,-0.3338623046875,0.140869140625,0.0093994140625
7.070,319,3147,1922,2503,-7.0,29.0,24.0,-37.04833984375,10.864256858825684,62.377925872802734,-0.3338623046875,0.140869140625,0.0093994140625
7.093,321,3147,1981,2813,-7.0,29.0,24.0,-27.038572311401367,-3.723144292831421,55.847164154052734,0.19140625,0.1102294921875,0.13427734375
7.093,314,3147,2162,3086,-6.0,24.0,25.0,2.563476324081421,-27.038572311401367,37.78076171875,0.6640625,0.296142578125,0.207275390625
7.099,316,3147,2271,3147,-6.0,24.0,25.0,41.992183685302734,-62.683101654052734,5.0048828125,0.74853515625,0.5667724609375,0.1907958984375
7.107,314,3147,2376,3147,-6.0,24.0,25.0,94.05516815185547,-104.37010955810547,-31.982419967651367,0.2105712890625,0.6939697265625,0.0325927734375
7.121,316,3147,2601,3147,-6.0,24.0,25.0,156.25,-129.638671875,-52.795406341552734,-0.8553466796875,0.958984375,-0.646484375
7.151,323,3147,2677,3147,-6.0,24.0,25.0,179.50437927246094,-120.97167205810547,-53.771968841552734,-2.2496337890625,0.9354248046875,-1.30810546875
7.151,316,3147,2746,3147,-6.0,24.0,25.0,109.86327362060547,-96.55760955810547,-50.415035247802734,-3.3597412109375,-0.0145263671875,-0.7322998046875
7.178,318,3147,2621,3147,-6.0,24.0,25.0,7.446288585662842,-81.23778533935547,-40.893550872802734,-3.7784423828125,-0.770751953125,0.619140625
7.178,321,3147,2637,3147,-6.0,24.0,25.0,-28.320310592651367,-66.162109375,-12.390135765075684,-3.464599609375,-0.510986328125,1.0474853515625
7.178,321,3147,2662,3147,-6.0,24.0,25.0,-10.437010765075684,-34.24072265625,16.54052734375,-2.158935546875,0.301025390625,0.315185546875
7.181,321,3147,2677,3147,-6.0,24.0,25.0,-13.610838890075684,10.437010765075684,19.53125,-1.1053466796875,1.01806640625,-0.1097412109375
7.197,316,3147,2663,3147,-8.0,26.0,26.0,-48.461910247802734,47.729488372802734,1.8920897245407104,-1.3095703125,0.906494140625,0.1285400390625
7.197,315,3147,2616,3147,-8.0,26.0,26.0,-69.51904296875,63.537593841552734,-12.756346702575684,-1.955322265625,0.291015625,0.2269287109375
7.212,322,3147,2516,3147,-8.0,26.0,26.0,-56.152339935302734,62.927242279052734,-9.58251953125,-2.27392578125,0.0697021484375,-0.006591796875
7.219,323,3147,2415,3147,-8.0,26.0,26.0,-33.8134765625,58.288570404052734,4.150390625,-2.0982666015625,0.1728515625,-0.2266845703125
7.227,321,3147,2306,3147,-8.0,26.0,26.0,-26.855466842651367,56.640621185302734,14.160155296325684,-1.7523193359375,0.30322265625,-0.234375
7.253,316,3147,2179,3147,-8.0,26.0,26.0,-31.921384811401367,56.762691497802734,17.27294921875,-1.497802734375,0.3682861328125,-0.149169921875
7.253,322,3147,2104,2946,-8.0,26.0,26.0,-36.68212890625,54.809566497802734,16.4794921875,-1.2899169921875,0.40478515625,-0.15966796875
7.258,322,3147,1989,2407,-8.0,26.0,26.0,-33.8134765625,50.903316497802734,13.793944358825684,-0.996337890625,0.4639892578125,-0.2457275390625
7.298,316,3147,1890,1018,-8.0,26.0,26.0,-26.245115280151367,44.006343841552734,7.812499523162842,-0.6597900390625,0.4287109375,-0.290771484375
7.298,309,3147,1927,347,-8.0,26.0,26.0,-19.6533203125,31.188962936401367,-4.82177734375,-0.3865966796875,0.208251953125,-0.2862548828125
7.300,310,2065,1895,337,-7.0,29.0,28.0,-13.305663108825684,14.709471702575684,-23.925779342651367,-0.2222900390625,-0.0611572265625,-0.2852783203125
7.302,318,785,1890,309,-7.0,29.0,28.0,-3.784179449081421,1.8920897245407104,-42.663570404052734,-0.2008056640625,-0.123291015625,-0.3369140625
7.310,316,592,1834,328,-7.0,29.0,28.0,2.197265625,-4.5166015625,-54.626461029052734,-0.2896728515625,0.0240478515625,-0.2840576171875
7.318,314,482,1730,318,-7.0,29.0,28.0,-5.432128429412842,-8.48388671875,-59.326168060302734,-0.4161376953125,0.0843505859375,-0.09326171875
7.331,312,402,1615,324,-7.0,29.0,28.0,-19.95849609375,-10.986327171325684,-59.082027435302734,-0.5133056640625,0.003173828125,0.0513916015625
7.356,315,425,1579,323,-7.0,29.0,28.0,-29.174802780151367,-9.27734375,-53.161617279052734,-0.55078125,-0.005859375,0.0787353515625
7.356,313,351,1529,301,-7.0,29.0,28.0,-30.090330123901367,-3.479003667831421,-40.0390625,-0.5413818359375,0.0816650390625,0.0537109375
7.361,313,401,1473,322,-7.0,29.0,28.0,-26.855466842651367,2.3193359375,-23.864744186401367,-0.5185546875,0.1221923828125,0.0821533203125
7.370,310,401,1483,323,-7.0,29.0,28.0,-25.024412155151367,4.08935546875,-10.620116233825684,-0.4981689453125,0.059326171875,0.1884765625
7.380,310,401,1521,323,-7.0,29.0,28.0,-22.094724655151367,1.7700194120407104,-3.112792730331421,-0.4779052734375,-0.0164794921875,0.29638671875
7.412,315,437,1596,324,-4.0,27.0,26.0,-12.634276390075684,-2.13623046875,-0.6103515625,-0.4825439453125,0.023193359375,0.3253173828125
7.418,312,487,1632,327,-4.0,27.0,26.0,1.4648436307907104,-5.676269054412842,0.7934569716453552,-0.534423828125,0.194091796875,0.275146484375
7.431,296,576,1689,327,-4.0,27.0,26.0,15.136717796325684,-8.30078125,3.784179449081421,-0.619140625,0.3375244140625,0.1790771484375
7.432,313,673,1759,328,-4.0,27.0,26.0,27.099607467651367,-9.94873046875,7.141112804412842,-0.702392578125,0.3319091796875,0.0777587890625
7.433,313,1017,1800,328,-4.0,27.0,26.0,38.57421875,-10.253905296325684,10.742186546325684,-0.740478515625,0.21533203125,0.00244140625
7.438,313,1427,1863,336,-4.0,27.0,26.0,48.217769622802734,-10.131834983825684,15.624999046325684,-0.7421875,0.0799560546875,-0.0498046875
7.457,316,2273,1929,336,-4.0,27.0,26.0,52.551265716552734,-10.192870140075684,21.667478561401367,-0.762939453125,-0.0140380859375,-0.090087890625
7.461,313,2795,1925,343,-4.0,27.0,26.0,51.269527435302734,-8.85009765625,29.174802780151367,-0.8160400390625,-0.051513671875,-0.1229248046875
7.469,315,3147,1922,359,-4.0,27.0,26.0,42.541500091552734,-4.8828125,37.7197265625,-0.8387451171875,-0.0582275390625,-0.1298828125
7.485,313,3147,1848,1122,-7.0,24.0,31.0,22.338865280151367,1.0986328125,44.982906341552734,-0.8001708984375,-0.0587158203125,-0.0926513671875
7.511,315,3147,1860,1555,-7.0,24.0,31.0,-6.286620616912842,9.58251953125,49.987789154052734,-0.7879638671875,0.0023193359375,-0.034912109375
7.511,316,3147,1891,2001,-7.0,24.0,31.0,-34.24072265625,20.568845748901367,55.236812591552734,-0.821044921875,0.1370849609375,0.0225830078125
7.513,300,3147,1865,2514,-7.0,24.0,31.0,-54.992671966552734,28.808591842651367,60.424800872802734,-0.794677734375,0.210205078125,0.07373046875
7.520,316,3147,1968,2820,-7.0,24.0,31.0,-63.232418060302734,28.076169967651367,61.828609466552734,-0.5537109375,0.135986328125,0.1339111328125
7.528,318,3147,2055,3032,-7.0,24.0,31.0,-49.865718841552734,13.854979515075684,55.541988372802734,-0.0380859375,0.0758056640625,0.17431640625
7.559,318,3147,2210,3147,-7.0,24.0,31.0,-7.507323741912842,-16.54052734375,36.80419921875,0.5609130859375,0.2249755859375,0.0565185546875
7.560,316,3147,2254,3147,-7.0,24.0,31.0,57.800289154052734,-60.485836029052734,4.94384765625,0.800048828125,0.5479736328125,-0.135986328125
7.560,317,3147,2299,3147,-7.0,24.0,31.0,128.41796875,-104.55321502685547,-26.794431686401367,0.288330078125,1.0640869140625,-0.4290771484375
7.573,316,3147,2587,3147,-7.0,24.0,31.0,172.36326599121094,-126.83104705810547,-40.893550872802734,-0.81884765625,1.613525390625,-0.951171875
7.581,316,3147,2659,3147,-8.0,23.0,22.0,144.71435546875,-119.50682830810547,-42.541500091552734,-2.270751953125,1.2098388671875,-0.9034423828125
7.597,317,3147,2715,3147,-8.0,23.0,22.0,54.321285247802734,-101.37938690185547,-45.715328216552734,-3.564453125,-0.2281494140625,0.237060546875
7.602,316,3147,2653,3147,-8.0,23.0,22.0,-13.549803733825684,-85.14403533935547,-36.0107421875,-4.0,-1.0333251953125,1.24169921875
7.622,318,3147,2695,3147,-8.0,23.0,22.0,-9.033203125,-57.617183685302734,-4.39453125,-3.056396484375,-0.736328125,0.6820068359375
7.623,327,3147,2701,3147,-8.0,23.0,22.0,5.0048828125,-11.962889671325684,20.385740280151367,-1.454345703125,0.305908203125,-0.211181640625
7.633,316,3147,2691,3147,-8.0,23.0,22.0,-28.076169967651367,34.36279296875,20.507810592651367,-1.0374755859375,0.9879150390625,-0.054931640625
7.640,319,3147,2658,3147,-8.0,23.0,22.0,-70.73974609375,60.729976654052734,8.36181640625,-1.534912109375,0.5906982421875,0.33251953125
7.661,318,3147,2605,3147,-8.0,23.0,22.0,-75.439453125,68.2373046875,3.662109136581421,-2.117919921875,0.2230224609375,0.2965087890625
7.662,316,3147,2471,3147,-8.0,23.0,22.0,-49.377437591552734,69.27490234375,10.070799827575684,-2.3009033203125,0.255126953125,-0.0355224609375
7.672,315,3147,2422,3147,-8.0,23.0,22.0,-25.878904342651367,66.0400390625,13.793944358825684,-2.0452880859375,0.4390869140625,-0.2733154296875
7.678,315,3147,2340,3147,-5.0,27.0,25.0,-25.878904342651367,66.0400390625,13.793944358825684,-1.6824951171875,0.5789794921875,-0.310791015625
7.693,314,3147,2178,3130,-5.0,27.0,25.0,-4.94384765625,39.306640625,0.1831054538488388,-1.4063720703125,0.5814208984375,-0.3370361328125
7.701,314,3147,2117,2664,-5.0,27.0,25.0,1.15966796875,24.719236373901367,-9.58251953125,-1.134765625,0.514404296875,-0.45947265625
7.708,313,3147,2012,2035,-5.0,27.0,25.0,1.15966796875,24.719236373901367,-9.58251953125,-0.8035888671875,0.4088134765625,-0.51708984375
7.738,315,3147,1875,725,-5.0,27.0,25.0,-17.76123046875,19.775390625,-23.620603561401367,-0.4945068359375,0.2020263671875,-0.3687744140625
7.739,308,2516,1860,346,-5.0,27.0,25.0,-39.00146484375,20.141599655151367,-28.869626998901367,-0.2703857421875,-0.1259765625,-0.12646484375
7.739,311,1182,1815,309,-5.0,27.0,25.0,-39.00146484375,20.141599655151367,-28.869626998901367,-0.190673828125,-0.3507080078125,-0.017578125
7.764,310,619,1693,328,-5.0,27.0,25.0,-35.94970703125,13.427733421325684,-37.41455078125,-0.2742919921875,-0.2215576171875,0.0257568359375
7.764,310,414,1638,321,-5.0,27.0,25.0,-21.606443405151367,2.38037109375,-43.334957122802734,-0.4244384765625,0.0224609375,0.139892578125
7.769,307,414,1596,323,-5.0,27.0,25.0,-21.606443405151367,2.38037109375,-43.334957122802734,-0.4910888671875,0.086181640625,0.2003173828125
7.782,309,404,1452,323,-5.0,26.0,28.0,-10.070799827575684,-13.549803733825684,-52.551265716552734,-0.4677734375,0.1041259765625,0.17236328125
7.801,310,388,1331,323,-5.0,26.0,28.0,-8.48388671875,-7.690429210662842,-47.058101654052734,-0.4478759765625,0.1573486328125,0.1212158203125
7.801,308,419,1331,323,-5.0,26.0,28.0,-8.48388671875,-7.690429210662842,-47.058101654052734,-0.441162109375,0.2216796875,0.095703125
7.812,310,411,1366,316,-5.0,26.0,28.0,-16.41845703125,12.023924827575684,-16.90673828125,-0.44287109375,0.215576171875,0.1380615234375
7.830,309,444,1397,316,-5.0,26.0,28.0,-30.395505905151367,15.502928733825684,-3.784179449081421,-0.4698486328125,0.0848388671875,0.224609375
7.830,312,478,1447,321,-5.0,26.0,28.0,-30.395505905151367,15.502928733825684,-3.784179449081421,-0.4990234375,-0.02587890625,0.2542724609375
7.842,315,438,1504,314,-5.0,26.0,28.0,-31.860349655151367,10.314940452575684,8.7890625,-0.4879150390625,0.0050048828125,0.1973876953125
7.867,315,364,1543,322,-5.0,26.0,28.0,-11.596678733825684,6.042479991912842,10.375975608825684,-0.4869384765625,0.1407470703125,0.106201171875
7.867,316,455,1582,324,-5.0,26.0,28.0,-11.596678733825684,6.042479991912842,10.375975608825684,-0.5362548828125,0.2467041015625,0.05224609375
7.873,316,617,1588,323,-3.0,29.0,22.0,23.254392623901367,-2.25830078125,13.793944358825684,-0.596435546875,0.2353515625,0.0594482421875
7.880,316,820,1662,332,-3.0,29.0,22.0,35.5224609375,-4.150390625,18.5546875,-0.6231689453125,0.1080322265625,0.0841064453125
7.889,318,1380,1718,332,-3.0,29.0,22.0,35.5224609375,-4.150390625,18.5546875,-0.6231689453125,0.1080322265625,0.0841064453125
7.908,321,2738,1775,338,-3.0,29.0,22.0,56.762691497802734,0.9765624403953552,32.958984375,-0.6761474609375,-0.1318359375,0.0264892578125
7.910,318,3134,1788,347,-3.0,29.0,22.0,56.762691497802734,0.9765624403953552,32.958984375,-0.829833984375,-0.0264892578125,-0.102294921875
7.918,319,3147,1801,617,-3.0,29.0,22.0,60.485836029052734,8.9111328125,44.189449310302734,-0.829833984375,-0.0264892578125,-0.102294921875
7.937,323,3147,1846,1413,-3.0,29.0,22.0,5.676269054412842,22.094724655151367,62.255855560302734,-0.963134765625,0.189208984375,-0.1715087890625
7.941,322,3147,1852,2037,-3.0,29.0,22.0,5.676269054412842,22.094724655151367,62.255855560302734,-0.8323974609375,0.1436767578125,-0.005615234375
7.969,321,3147,1860,2394,-3.0,29.0,22.0,-32.65380859375,22.033689498901367,67.07763671875,-0.8323974609375,0.1436767578125,-0.005615234375
7.969,318,3147,1935,2870,-3.0,29.0,22.0,-30.883787155151367,11.291502952575684,69.9462890625,-0.242919921875,0.1265869140625,0.19677734375
7.971,316,3147,2035,3028,-5.0,27.0,26.0,-30.883787155151367,11.291502952575684,69.9462890625,0.3060302734375,0.1949462890625,0.233642578125
7.979,316,3147,2128,3108,-5.0,27.0,26.0,-4.7607421875,-6.408690929412842,58.288570404052734,0.3060302734375,0.1949462890625,0.233642578125
7.996,317,3147,2316,3147,-5.0,27.0,26.0,95.88622283935547,-71.4111328125,-12.451170921325684,0.3682861328125,0.7589111328125,-0.0692138671875
8.009,316,3147,2489,3147,-5.0,27.0,26.0,95.88622283935547,-71.4111328125,-12.451170921325684,-0.5277099609375,1.2369384765625,-0.673095703125
8.009,315,3147,2578,3147,-5.0,27.0,26.0,158.87451171875,-99.30419158935547,-45.043941497802734,-0.5277099609375,1.2369384765625,-0.673095703125
8.022,321,3147,2683,3147,-5.0,27.0,26.0,116.51610565185547,-81.72606658935547,-50.109859466552734,-2.89501953125,0.46923828125,-1.1246337890625
8.031,321,3147,2702,3147,-5.0,27.0,26.0,116.51610565185547,-81.72606658935547,-50.109859466552734,-3.621826171875,-0.740966796875,0.3001708984375
8.043,323,3147,2665,3147,-5.0,27.0,26.0,10.253905296325684,-72.1435546875,-45.654293060302734,-3.621826171875,-0.740966796875,0.3001708984375
8.053,321,3147,2698,3147,-5.0,27.0,26.0,-4.21142578125,-52.551265716552734,1.15966796875,-2.56494140625,-0.0234375,0.452880859375
8.071,321,3147,2698,3147,-5.0,27.0,26.0,-4.21142578125,-52.551265716552734,1.15966796875,-1.359130859375,0.76025390625,-0.180419921875
8.072,316,3147,2708,3147,-7.0,25.0,28.0,9.1552734375,-15.991209983825684,10.498045921325684,-1.359130859375,0.76025390625,-0.180419921875
8.083,321,3147,2668,3147,-7.0,25.0,28.0,-54.687496185302734,42.785640716552734,-8.36181640625,-1.81103515625,0.3314208984375,0.4205322265625
8.090,321,3147,2605,3147,-7.0,25.0,28.0,-54.687496185302734,42.785640716552734,-8.36181640625,-2.1248779296875,0.1690673828125,0.307373046875
8.100,318,3147,2538,3147,-7.0,25.0,28.0,-58.044429779052734,49.865718841552734,-2.13623046875,-2.1248779296875,0.1690673828125,0.307373046875
8.113,321,3147,2400,3147,-7.0,25.0,28.0,-46.997066497802734,55.053707122802734,12.512206077575684,-1.6778564453125,0.376708984375,-0.1151123046875
8.121,321,3147,2317,3147,-7.0,25.0,28.0,-45.410152435302734,61.279293060302734,22.094724655151367,-1.6778564453125,0.376708984375,-0.1151123046875
8.129,318,3147,2225,3147,-7.0,25.0,28.0,-51.330562591552734,64.3310546875,23.986814498901367,-1.4073486328125,0.4150390625,-0.0423583984375
8.149,317,3147,2076,2484,-7.0,25.0,28.0,-50.415035247802734,61.523433685302734,20.141599655151367,-0.898193359375,0.450439453125,-0.305908203125
8.151,304,3147,2012,1648,-7.0,25.0,28.0,-38.75732421875,54.260250091552734,12.512206077575684,-0.898193359375,0.450439453125,-0.305908203125
8.190,322,3147,2021,897,-7.0,25.0,28.0,-26.672361373901367,44.189449310302734,1.220703125,-0.594482421875,0.35498046875,-0.38623046875
8.202,313,2392,2010,338,-9.0,28.0,29.0,-22.583005905151367,30.761716842651367,-13.732909202575684,-0.224365234375,-0.112548828125,-0.2716064453125
8.207,314,1613,1997,338,-9.0,28.0,29.0,-22.155759811401367,16.17431640625,-29.418943405151367,-0.224365234375,-0.112548828125,-0.2716064453125
8.226,308,1024,1904,324,-9.0,28.0,29.0,-16.90673828125,6.286620616912842,-40.832515716552734,-0.2193603515625,-0.1729736328125,-0.2911376953125
8.233,310,426,1792,301,-9.0,28.0,29.0,-11.901854515075684,1.7700194120407104,-45.776363372802734,-0.4705810546875,0.1280517578125,-0.0567626953125
8.235,311,404,1665,323,-9.0,28.0,29.0,-16.11328125,-2.01416015625,-46.386714935302734,-0.4705810546875,0.1280517578125,-0.0567626953125
8.239,307,346,1636,325,-9.0,28.0,29.0,-26.367185592651367,-5.676269054412842,-46.081539154052734,-0.5557861328125,0.0924072265625,0.1009521484375
8.247,310,362,1575,323,-9.0,28.0,29.0,-31.494138717651367,-5.859374523162842,-43.945308685302734,-0.5501708984375,0.166259765625,0.11474609375
8.284,309,375,1557,321,-9.0,28.0,29.0,-25.634763717651367,-1.4038084745407104,-36.62109375,-0.5501708984375,0.166259765625,0.11474609375
8.286,312,390,1568,322,-9.0,28.0,29.0,-18.49365234375,3.784179449081421,-26.733396530151367,-0.56591796875,0.213134765625,0.1307373046875
8.298,313,378,1575,322,-9.0,28.0,29.0,-19.34814453125,6.164550304412842,-17.88330078125,-0.601806640625,0.1473388671875,0.2115478515625
8.306,310,400,1611,321,-4.0,25.0,22.0,-23.681638717651367,6.347655773162842,-10.192870140075684,-0.636962890625,0.07080078125,0.27294921875
8.317,313,387,1652,323,-4.0,25.0,22.0,-23.437498092651367,6.164550304412842,-2.25830078125,-0.662841796875,0.101318359375,0.246337890625
8.317,313,364,1608,322,-4.0,25.0,22.0,-17.822265625,5.737304210662842,5.126952648162842,-0.6768798828125,0.2139892578125,0.1585693359375
8.320,313,500,1689,324,-4.0,25.0,22.0,-12.390135765075684,4.33349609375,9.27734375,-0.6947021484375,0.27734375,0.066650390625
8.321,313,531,1656,323,-4.0,25.0,22.0,-8.9111328125,2.13623046875,10.437010765075684,-0.73388671875,0.244873046875,-0.0067138671875
8.323,310,656,1693,326,-4.0,25.0,22.0,-4.7607421875,0.1220703050494194,11.718749046325684,-0.7747802734375,0.1693115234375,-0.060302734375
8.334,313,656,1675,328,-4.0,25.0,22.0,0.6713866591453552,-0.9765624403953552,14.160155296325684,-0.7869873046875,0.0767822265625,-0.0906982421875
8.348,314,1009,1704,334,-4.0,25.0,22.0,5.310058116912842,-0.6713866591453552,17.2119140625,-0.78271484375,-0.013427734375,-0.09033203125
8.362,315,1209,1739,332,-4.0,25.0,22.0,8.6669921875,1.4038084745407104,21.240232467651367,-0.791015625,-0.0703125,-0.07373046875
8.363,313,1925,1785,334,-4.0,26.0,22.0,11.901854515075684,4.94384765625,27.221677780151367,-0.83544921875,-0.069580078125,-0.066650390625
8.382,316,2253,1789,337,-4.0,26.0,22.0,14.831542015075684,9.82666015625,35.64453125,-0.91162109375,0.0107421875,-0.0791015625
8.382,315,2692,1803,347,-4.0,26.0,22.0,12.512206077575684,15.136717796325684,45.532222747802734,-0.953369140625,0.1265869140625,-0.082275390625
8.391,316,3147,1850,579,-4.0,26.0,22.0,-1.220703125,18.798828125,54.138179779052734,-0.877685546875,0.177001953125,-0.0548095703125
8.407,316,3147,1864,1188,-4.0,26.0,22.0,-20.629880905151367,18.73779296875,59.143062591552734,-0.6944580078125,0.175048828125,-0.0135498046875
8.410,316,3147,1892,1838,-4.0,26.0,22.0,-29.052732467651367,12.939452171325684,59.265132904052734,-0.3966064453125,0.1759033203125,0.0107421875
8.421,316,3147,1935,2484,-4.0,26.0,22.0,-17.578125,-2.01416015625,53.344722747802734,0.0972900390625,0.149658203125,0.042724609375
8.429,316,3147,2023,2749,-4.0,26.0,22.0,11.657713890075684,-28.869626998901367,39.9169921875,0.75927734375,0.1588134765625,0.13427734375
8.438,314,3147,2151,2844,-4.0,26.0,22.0,51.391597747802734,-64.14794921875,15.869139671325684,1.1650390625,0.46044921875,0.1392822265625
8.452,316,3147,2344,3147,-4.0,26.0,22.0,91.12548065185547,-99.67040252685547,-18.310546875,0.769775390625,0.795166015625,0.0255126953125
8.481,318,3147,2663,3147,-9.0,22.0,25.0,164.06248474121094,-123.77928924560547,-54.077144622802734,-1.635986328125,1.07373046875,-0.8797607421875
8.481,318,3147,2760,3147,-9.0,22.0,25.0,129.57763671875,-98.99901580810547,-43.212886810302734,-2.9417724609375,0.3604736328125,-0.489990234375
8.489,321,3147,2770,3147,-9.0,22.0,25.0,44.799800872802734,-74.89013671875,-30.517576217651367,-3.6932373046875,-0.8067626953125,0.7423095703125
8.534,318,3147,2684,3147,-9.0,22.0,25.0,-2.990722417831421,-55.358882904052734,-6.469726085662842,-3.7772216796875,-0.7750244140625,1.3319091796875
8.535,317,3147,2710,3147,-9.0,22.0,25.0,4.2724609375,-24.291990280151367,27.770994186401367,-2.8486328125,0.029052734375,0.6444091796875
8.535,316,3147,2721,3147,-9.0,22.0,25.0,-3.601073980331421,20.812986373901367,42.297359466552734,-1.4752197265625,0.7908935546875,-0.1572265625
8.536,315,3147,2717,3147,-9.0,22.0,25.0,-51.025386810302734,64.14794921875,31.311033248901367,-1.18115234375,1.0296630859375,-0.172119140625
8.541,316,3147,2702,3147,-9.0,22.0,25.0,-85.81542205810547,87.21923065185547,14.709471702575684,-1.73779296875,0.59765625,-0.00830078125
8.550,318,3147,2665,3147,-9.0,22.0,25.0,-79.345703125,84.53368377685547,7.080077648162842,-2.1961669921875,0.3402099609375,-0.1038818359375
8.558,316,3147,2622,3147,-5.0,24.0,29.0,-48.461910247802734,66.83349609375,7.385253429412842,-2.16064453125,0.484130859375,-0.3233642578125
8.585,316,3147,2473,3147,-5.0,24.0,29.0,-25.085447311401367,47.729488372802734,4.57763671875,-1.8126220703125,0.5712890625,-0.3924560546875
8.585,315,3147,2412,3147,-5.0,24.0,29.0,-20.202634811401367,34.11865234375,-2.990722417831421,-1.514892578125,0.466796875,-0.28662109375
8.587,318,3147,2328,3147,-5.0,24.0,29.0,-23.559568405151367,26.184080123901367,-9.521484375,-1.3333740234375,0.2945556640625,-0.185546875
