time,compression0,compression1,compression2,compression3,magn_x,magn_y,magn_z,gyro_x,gyro_y,gyro_z,accel_x,accel_y,accel_z
0.000,318,1713,1189,401,-5.0,31.0,17.0,-3.662109136581421,-16.41845703125,-9.09423828125,-0.87548828125,0.35302734375,-0.1544189453125
0.016,318,1727,1182,402,-5.0,31.0,17.0,-5.187987804412842,-15.014647483825684,-8.36181640625,-0.8740234375,0.340087890625,-0.145751953125
0.021,323,1643,1207,398,-5.0,31.0,17.0,-6.408690929412842,-13.610838890075684,-6.896972179412842,-0.877197265625,0.3173828125,-0.1405029296875
0.026,318,1650,1175,389,-5.0,31.0,17.0,-6.408690929412842,-12.634276390075684,-4.7607421875,-0.892822265625,0.298095703125,-0.141357421875
0.028,317,1675,1172,398,-5.0,31.0,17.0,-4.5166015625,-12.329100608825684,-2.25830078125,-0.9117431640625,0.2955322265625,-0.1507568359375
0.029,316,1608,1183,400,-5.0,31.0,17.0,-0.9765624403953552,-12.756346702575684,0.1220703050494194,-0.9176025390625,0.309326171875,-0.166748046875
0.030,318,1669,1184,390,-4.0,30.0,19.0,2.38037109375,-13.366698265075684,2.01416015625,-0.9013671875,0.3280029296875,-0.1856689453125
0.043,316,1748,1185,401,-4.0,30.0,19.0,3.723144292831421,-13.671874046325684,2.990722417831421,-0.865234375,0.3446044921875,-0.1962890625
0.043,319,1824,1176,391,-4.0,30.0,19.0,2.44140625,-13.427733421325684,2.807616949081421,-0.828369140625,0.3551025390625,-0.190185546875
0.062,318,1957,1199,401,-4.0,30.0,19.0,-0.1831054538488388,-12.756346702575684,2.0751953125,-0.8043212890625,0.349853515625,-0.1641845703125
0.166,322,2063,1198,409,-4.0,30.0,19.0,-2.197265625,-11.840819358825684,1.7700194120407104,-0.79248046875,0.3189697265625,-0.1328125
0.167,321,2167,1219,419,-4.0,30.0,19.0,-1.4038084745407104,-11.352538108825684,2.746581792831421,-0.7928466796875,0.27734375,-0.121337890625
0.167,318,2410,1191,407,-4.0,30.0,19.0,3.540038824081421,-11.901854515075684,5.493163585662842,-0.7994384765625,0.2498779296875,-0.1309814453125
0.167,321,2469,1229,433,-4.0,30.0,19.0,11.169432640075684,-13.854979515075684,9.82666015625,-0.7828369140625,0.21142578125,-0.173095703125
0.167,322,2584,1225,437,-4.0,30.0,19.0,16.90673828125,-15.869139671325684,15.930174827575684,-0.718505859375,0.1748046875,-0.238525390625
0.167,322,2984,1239,464,-4.0,30.0,19.0,13.549803733825684,-14.343260765075684,22.888181686401367,-0.634765625,0.233154296875,-0.230224609375
0.167,321,3147,1243,482,-4.0,32.0,21.0,-1.8920897245407104,-7.995604991912842,27.648923873901367,-0.5345458984375,0.3199462890625,-0.1190185546875
0.167,322,3147,1231,818,-4.0,32.0,21.0,-21.179197311401367,-1.3427733182907104,28.198240280151367,-0.380126953125,0.2823486328125,0.051025390625
0.167,325,3147,1334,1411,-4.0,32.0,21.0,-32.3486328125,1.15966796875,26.733396530151367,-0.121826171875,0.1085205078125,0.2333984375
0.167,306,687,1476,1899,-4.0,32.0,21.0,-30.029294967651367,-3.295898199081421,25.085447311401367,0.29638671875,-0.1109619140625,0.3814697265625
0.167,308,308,1627,3147,-4.0,32.0,21.0,-13.549803733825684,-18.98193359375,21.606443405151367,0.758056640625,-0.1217041015625,0.36669921875
0.168,306,308,1798,3147,-4.0,32.0,21.0,18.85986328125,-48.095699310302734,10.864256858825684,0.8900146484375,0.341064453125,0.042724609375
0.168,346,3147,1914,3147,-4.0,32.0,21.0,48.828121185302734,-81.97020721435547,-14.526366233825684,0.305908203125,1.0689697265625,-0.4388427734375
0.185,351,3147,2061,3147,-4.0,32.0,21.0,40.466304779052734,-103.45458221435547,-52.917476654052734,-0.9945068359375,1.4185791015625,-0.75927734375
0.194,361,3147,2085,3147,-4.0,32.0,21.0,-14.526366233825684,-102.78319549560547,-82.03124237060547,-2.5247802734375,1.0374755859375,-0.787109375
0.194,373,3147,2190,3147,-4.0,32.0,21.0,-77.57568359375,-86.42577362060547,-75.98876953125,-3.4730224609375,0.27197265625,-0.4713134765625
0.200,347,3147,2275,3147,0.0,32.0,20.0,-96.43553924560547,-68.29833984375,-39.00146484375,-3.5283203125,-0.3062744140625,0.0916748046875
0.213,354,3147,2162,3147,0.0,32.0,20.0,-57.556148529052734,-50.659175872802734,2.563476324081421,-3.0733642578125,-0.2435302734375,0.407958984375
0.221,348,3147,2060,3147,0.0,32.0,20.0,-3.112792730331421,-25.756834030151367,30.456541061401367,-2.0374755859375,0.0704345703125,0.4599609375
0.229,347,3147,2001,3147,0.0,32.0,20.0,20.01953125,2.624511480331421,32.71484375,-0.84228515625,0.379150390625,0.436279296875
0.279,348,3147,1975,3147,0.0,32.0,20.0,20.324705123901367,24.414060592651367,12.084959983825684,-0.560791015625,0.968017578125,0.034423828125
0.280,347,3147,2008,3147,0.0,32.0,20.0,10.070799827575684,32.53173828125,-12.451170921325684,-1.2099609375,1.3223876953125,-0.5518798828125
0.283,346,3147,2010,3147,0.0,32.0,20.0,-16.78466796875,24.597166061401367,-27.038572311401367,-1.91552734375,1.0406494140625,-0.7509765625
0.286,346,3147,1959,3147,0.0,32.0,20.0,-38.39111328125,7.873534679412842,-27.221677780151367,-2.091064453125,0.5535888671875,-0.5347900390625
0.287,345,3147,1913,3147,0.0,32.0,20.0,-33.99658203125,-7.446288585662842,-17.4560546875,-1.885009765625,0.3800048828125,-0.265380859375
0.290,344,3147,1850,3147,0.0,32.0,20.0,-12.329100608825684,-16.17431640625,-7.812499523162842,-1.60107421875,0.4915771484375,-0.1221923828125
0.304,348,3147,1757,3147,-1.0,29.0,18.0,-12.329100608825684,-16.17431640625,-7.812499523162842,-1.3160400390625,0.6082763671875,-0.0347900390625
0.312,346,3147,1695,3147,-1.0,29.0,18.0,6.896972179412842,-9.3994140625,-3.112792730331421,-0.9615478515625,0.53125,0.11572265625
0.325,346,3147,1739,3120,-1.0,29.0,18.0,3.723144292831421,2.44140625,-5.0048828125,-0.5933837890625,0.2762451171875,0.2952880859375
0.367,338,3147,1665,2853,-1.0,29.0,18.0,3.723144292831421,2.44140625,-5.0048828125,-0.3681640625,0.0810546875,0.3355712890625
0.368,334,3147,1678,2311,-1.0,29.0,18.0,5.310058116912842,22.949216842651367,-14.221190452575684,-0.32470703125,0.01416015625,0.1993408203125
0.368,332,3147,1652,1967,-1.0,29.0,18.0,3.540038824081421,24.353025436401367,-20.202634811401367,-0.395751953125,-0.02490234375,0.0037841796875
0.369,343,3147,1623,1772,-1.0,29.0,18.0,3.540038824081421,24.353025436401367,-20.202634811401367,-0.48095703125,-0.048583984375,-0.1190185546875
0.372,336,3147,1580,1146,-1.0,29.0,18.0,-6.591796398162842,14.160155296325684,-29.785154342651367,-0.5306396484375,-0.04052734375,-0.12646484375
0.394,329,3147,1577,887,-1.0,29.0,18.0,-6.774901866912842,10.314940452575684,-26.367185592651367,-0.5728759765625,-0.0047607421875,-0.0855712890625
0.394,328,3147,1523,621,-1.0,29.0,18.0,-6.774901866912842,10.314940452575684,-26.367185592651367,-0.61767578125,0.0469970703125,-0.06640625
0.422,328,2881,1467,654,0.0,29.0,17.0,4.0283203125,14.892577171325684,-11.291502952575684,-0.647705078125,0.112548828125,-0.0670166015625
0.422,327,2653,1455,721,0.0,29.0,17.0,5.065917491912842,19.287109375,-3.906249761581421,-0.655517578125,0.188232421875,-0.050537109375
0.423,324,2532,1452,708,0.0,29.0,17.0,5.065917491912842,19.287109375,-3.906249761581421,-0.653564453125,0.2567138671875,-0.0096435546875
0.454,327,2442,1434,683,0.0,29.0,17.0,1.220703125,20.507810592651367,5.432128429412842,-0.6650390625,0.32958984375,0.0072021484375
0.455,323,2468,1422,648,0.0,29.0,17.0,3.967284917831421,17.63916015625,6.591796398162842,-0.687255859375,0.436767578125,-0.017333984375
0.455,308,2599,1452,667,0.0,29.0,17.0,3.967284917831421,17.63916015625,6.591796398162842,-0.687255859375,0.436767578125,-0.017333984375
0.473,327,2869,1521,499,0.0,29.0,17.0,6.408690929412842,8.544921875,2.990722417831421,-0.762939453125,0.595458984375,-0.0750732421875
0.474,328,2912,1523,625,0.0,29.0,17.0,6.408690929412842,8.544921875,2.990722417831421,-0.843994140625,0.526611328125,-0.0887451171875
0.498,327,3032,1516,501,0.0,29.0,17.0,2.44140625,5.249022960662842,0.7934569716453552,-0.843994140625,0.526611328125,-0.0887451171875
0.498,327,2820,1503,523,0.0,30.0,15.0,-5.920409679412842,6.347655773162842,-1.3427733182907104,-1.0343017578125,0.2261962890625,-0.0865478515625
0.500,324,2844,1501,497,0.0,30.0,15.0,-5.920409679412842,6.347655773162842,-1.3427733182907104,-1.041259765625,0.134765625,-0.05078125
0.509,324,2854,1487,499,0.0,30.0,15.0,-7.507323741912842,8.544921875,1.7700194120407104,-1.041259765625,0.134765625,-0.05078125
0.586,327,2807,1467,514,0.0,30.0,15.0,3.417968511581421,11.535643577575684,14.526366233825684,-0.972900390625,0.20654296875,-0.046875
0.587,324,2750,1463,532,0.0,30.0,15.0,3.417968511581421,11.535643577575684,14.526366233825684,-0.953857421875,0.255615234375,-0.0986328125
0.589,327,2741,1441,559,0.0,30.0,15.0,13.000487327575684,12.268065452575684,20.446775436401367,-0.953857421875,0.255615234375,-0.0986328125
0.592,321,2765,1393,473,0.0,30.0,15.0,18.9208984375,11.718749046325684,28.381345748901367,-0.892578125,0.2354736328125,-0.1748046875
0.597,323,2734,1289,473,0.0,30.0,15.0,18.9208984375,11.718749046325684,28.381345748901367,-0.8634033203125,0.188720703125,-0.201416015625
0.598,323,2750,1278,478,0.0,30.0,15.0,14.953612327575684,11.535643577575684,33.87451171875,-0.8634033203125,0.188720703125,-0.201416015625
0.600,322,3012,1320,537,0.0,30.0,15.0,-0.4272460639476776,17.39501953125,56.091304779052734,-0.7005615234375,0.1011962890625,-0.083251953125
0.601,327,3147,1326,656,-3.0,29.0,21.0,-0.4272460639476776,17.39501953125,56.091304779052734,-0.5322265625,0.091796875,0.12548828125
0.601,321,3147,1336,815,-3.0,29.0,21.0,-6.591796398162842,25.085447311401367,69.091796875,-0.5322265625,0.091796875,0.12548828125
0.613,328,3147,1398,1509,-3.0,29.0,21.0,1.4648436307907104,32.53173828125,79.9560546875,0.245849609375,-0.1690673828125,0.3712158203125
0.620,327,3147,1424,1854,-3.0,29.0,21.0,1.4648436307907104,32.53173828125,79.9560546875,0.970947265625,-0.228759765625,0.4095458984375
0.628,332,3147,1523,2396,-3.0,29.0,21.0,22.827146530151367,22.460935592651367,77.5146484375,0.970947265625,-0.228759765625,0.4095458984375
0.658,334,3147,1819,2916,-3.0,29.0,21.0,75.0732421875,-25.817869186401367,33.02001953125,2.0123291015625,0.624755859375,0.0748291015625
0.662,336,3147,2047,3147,-3.0,29.0,21.0,75.0732421875,-25.817869186401367,33.02001953125,0.997802734375,1.386962890625,-0.3385009765625
0.668,348,3147,2225,3147,-3.0,29.0,21.0,87.03612518310547,-60.058589935302734,-13.183592796325684,0.997802734375,1.386962890625,-0.3385009765625
0.672,347,3147,2530,3147,-3.0,29.0,21.0,65.61279296875,-82.76366424560547,-65.36865234375,-3.167236328125,1.3935546875,-1.069580078125
0.697,383,3147,2647,3147,-3.0,29.0,21.0,2.990722417831421,-78.857421875,-95.03173065185547,-3.167236328125,1.3935546875,-1.069580078125
0.698,306,307,2616,3147,0.0,30.0,22.0,-66.162109375,-54.748531341552734,-80.26123046875,-4.0,0.4232177734375,-0.658203125
0.702,348,3147,2320,3147,0.0,30.0,22.0,-83.06884002685547,-27.587888717651367,-27.954099655151367,-3.0816650390625,-0.8048095703125,0.462890625
0.715,347,3147,2170,3147,0.0,30.0,22.0,-33.935546875,-4.0283203125,30.883787155151367,-3.0816650390625,-0.8048095703125,0.462890625
0.718,345,3147,2098,3147,0.0,30.0,22.0,17.578125,13.000487327575684,52.917476654052734,-0.8658447265625,-0.1494140625,0.52734375
0.732,354,3147,2130,3147,0.0,30.0,22.0,49.682613372802734,23.559568405151367,28.381345748901367,-0.6614990234375,1.859619140625,-1.037353515625
0.765,360,3147,2152,3147,0.0,30.0,22.0,48.706050872802734,20.751951217651367,-18.73779296875,-0.6614990234375,1.859619140625,-1.037353515625
0.765,354,3147,2172,3147,0.0,30.0,22.0,-6.591796398162842,-1.3427733182907104,-59.387203216552734,-1.711181640625,1.284423828125,-1.0440673828125
0.766,348,3147,2139,3147,0.0,30.0,22.0,-51.452632904052734,-23.925779342651367,-68.4814453125,-2.357421875,0.51416015625,-0.25341796875
0.777,346,3147,2108,3147,0.0,30.0,22.0,-45.227046966552734,-34.3017578125,-50.659175872802734,-2.357421875,0.51416015625,-0.25341796875
0.801,360,3147,2118,3147,0.0,30.0,22.0,-21.850584030151367,-36.9873046875,-30.944822311401367,-1.98974609375,0.55419921875,-0.0706787109375
0.801,344,3147,2058,3147,0.0,29.0,21.0,-6.530761241912842,-34.1796875,-20.751951217651367,-1.2080078125,0.5855712890625,-0.0045166015625
0.802,345,3147,2050,3147,0.0,29.0,21.0,0.9765624403953552,-25.268552780151367,-16.66259765625,-1.2080078125,0.5855712890625,-0.0045166015625
0.808,345,3147,2014,3112,0.0,29.0,21.0,-0.1220703050494194,-10.681151390075684,-13.916014671325684,-0.822998046875,0.4210205078125,0.06689453125
0.822,346,3147,1973,1948,0.0,29.0,21.0,-6.652831554412842,5.798339366912842,-14.892577171325684,-0.2320556640625,-0.1326904296875,0.300048828125
0.830,342,3147,1929,1003,0.0,29.0,21.0,-12.207030296325684,17.7001953125,-22.521970748901367,-0.2320556640625,-0.1326904296875,0.300048828125
0.838,336,3126,1850,447,0.0,29.0,21.0,-14.526366233825684,19.53125,-34.423828125,-0.211669921875,-0.2169189453125,0.2178955078125
0.868,328,1470,1820,607,0.0,29.0,21.0,-15.136717796325684,11.047362327575684,-46.203609466552734,-0.4910888671875,-0.07666015625,-0.0028076171875
0.869,330,1157,1694,439,0.0,29.0,21.0,-16.90673828125,-1.4648436307907104,-52.124019622802734,-0.4910888671875,-0.07666015625,-0.0028076171875
0.870,327,630,1659,401,0.0,29.0,21.0,-15.624999046325684,-8.544921875,-49.255367279052734,-0.5909423828125,-0.17041015625,-0.0689697265625
0.883,328,526,1550,362,-1.0,30.0,26.0,-2.563476324081421,-5.798339366912842,-38.6962890625,-0.4869384765625,-0.13134765625,-0.1602783203125
0.905,324,466,1442,351,-1.0,30.0,26.0,17.02880859375,1.8310545682907104,-24.597166061401367,-0.4869384765625,-0.13134765625,-0.1602783203125
0.906,315,506,1265,338,-1.0,30.0,26.0,24.841306686401367,8.30078125,-13.427733421325684,-0.4261474609375,0.106689453125,-0.201171875
0.912,316,567,1260,332,-1.0,30.0,26.0,15.380858421325684,12.634276390075684,-6.958007335662842,-0.4573974609375,0.33154296875,-0.190673828125
0.920,316,736,1266,338,-1.0,30.0,26.0,0.7934569716453552,15.136717796325684,-3.356933355331421,-0.4912109375,0.49853515625,-0.1180419921875
0.928,318,899,1323,348,-1.0,30.0,26.0,-7.812499523162842,14.404295921325684,-2.197265625,-0.493408203125,0.62060546875,-0.0072021484375
0.945,321,933,1483,359,-1.0,30.0,26.0,-9.09423828125,10.192870140075684,-3.234863042831421,-0.5262451171875,0.709716796875,0.1058349609375
0.963,318,1251,1551,369,-1.0,30.0,26.0,-8.23974609375,3.967284917831421,-4.33349609375,-0.6160888671875,0.6973876953125,0.1649169921875
0.970,323,1400,1598,369,-1.0,30.0,26.0,-10.620116233825684,-1.7700194120407104,-5.432128429412842,-0.7369384765625,0.50927734375,0.134033203125
0.972,327,1666,1616,371,-1.0,30.0,26.0,-14.892577171325684,-4.150390625,-6.835937023162842,-0.870849609375,0.2789306640625,0.0455322265625
0.980,322,1794,1669,376,0.0,30.0,19.0,-15.197752952575684,-3.295898199081421,-5.554198741912842,-0.9832763671875,0.1290283203125,-0.049560546875
1.002,328,1894,1697,378,0.0,30.0,19.0,-9.6435546875,-2.624511480331421,-0.9155272841453552,-1.0364990234375,0.040283203125,-0.119873046875
1.003,323,2007,1715,385,0.0,30.0,19.0,-0.7324218153953552,-3.356933355331421,4.0283203125,-1.040283203125,0.032470703125,-0.1444091796875
1.010,324,2068,1715,401,0.0,30.0,19.0,9.765625,-4.2724609375,8.11767578125,-1.0423583984375,0.1080322265625,-0.1204833984375
1.033,327,2113,1695,401,0.0,30.0,19.0,20.812986373901367,-4.638671875,13.061522483825684,-1.0609130859375,0.1929931640625,-0.0726318359375
1.033,323,2238,1686,396,0.0,30.0,19.0,31.372068405151367,-4.08935546875,19.4091796875,-1.0633544921875,0.231201171875,-0.0511474609375
1.047,323,2218,1735,402,0.0,30.0,19.0,38.330078125,-2.01416015625,26.245115280151367,-1.014892578125,0.2296142578125,-0.076416015625
1.069,331,2295,1711,402,0.0,30.0,19.0,36.62109375,2.624511480331421,33.75244140625,-0.9339599609375,0.232177734375,-0.1058349609375
1.070,324,2263,1675,409,0.0,30.0,19.0,22.827146530151367,10.620116233825684,41.687007904052734,-0.869873046875,0.246337890625,-0.0931396484375
1.071,323,2347,1628,411,0.0,30.0,19.0,0.3662109076976776,20.812986373901367,48.706050872802734,-0.83056640625,0.2379150390625,-0.04443359375
1.078,324,2356,1604,416,-1.0,28.0,24.0,-20.874021530151367,30.517576217651367,53.405757904052734,-0.786865234375,0.2376708984375,0.00927734375
1.109,324,2763,1629,411,-1.0,28.0,24.0,-31.311033248901367,36.865234375,54.504390716552734,-0.6942138671875,0.312255859375,0.0439453125
1.110,330,3147,1662,473,-1.0,28.0,24.0,-30.151365280151367,36.56005859375,50.170894622802734,-0.473388671875,0.336669921875,0.0225830078125
1.110,327,3147,1669,1014,-1.0,28.0,24.0,-21.911619186401367,28.015134811401367,41.442867279052734,-0.1036376953125,0.178466796875,-0.0155029296875
1.122,336,3147,1755,1863,-1.0,28.0,24.0,-3.417968511581421,13.793944358825684,33.75244140625,0.4241943359375,-0.044677734375,0.056640625
1.135,330,3147,1828,2277,-1.0,28.0,24.0,28.137205123901367,-2.990722417831421,26.611326217651367,1.1224365234375,-0.154296875,0.199951171875
1.139,331,3147,1967,2978,-1.0,28.0,24.0,60.058589935302734,-24.169919967651367,11.291502952575684,1.6978759765625,0.0142822265625,0.1824951171875
1.218,342,3147,2280,3147,-1.0,28.0,24.0,74.462890625,-55.053707122802734,-12.573241233825684,1.489013671875,0.5767822265625,-0.0927734375
1.218,345,3147,2424,3147,-1.0,28.0,24.0,67.138671875,-90.94237518310547,-40.466304779052734,0.1658935546875,1.298095703125,-0.4906005859375
1.220,347,3147,2605,3147,-1.0,28.0,24.0,40.10009765625,-114.44091033935547,-73.73046875,-1.845458984375,1.71826171875,-0.77099609375
1.221,354,3147,2798,3147,-1.0,25.0,21.0,-10.437010765075684,-115.23436737060547,-94.97069549560547,-3.5208740234375,1.3848876953125,-0.5982666015625
1.222,356,3147,2770,3147,-1.0,25.0,21.0,-68.17626953125,-102.60009002685547,-86.60887908935547,-4.0,0.2625732421875,0.121826171875
1.222,351,3147,2519,3147,-1.0,25.0,21.0,-76.0498046875,-81.90917205810547,-57.067867279052734,-4.0,-0.7520751953125,0.6221923828125
1.223,348,3147,2372,3147,-1.0,25.0,21.0,-19.59228515625,-47.180171966552734,-19.83642578125,-3.1146240234375,-1.1148681640625,0.4639892578125
1.223,346,3147,2368,3147,-1.0,25.0,21.0,33.8134765625,-11.413573265075684,5.0048828125,-1.257568359375,-0.5235595703125,0.23193359375
1.229,347,3147,2392,3147,-1.0,25.0,21.0,48.828121185302734,13.061522483825684,8.11767578125,-0.342041015625,0.7178955078125,-0.071533203125
1.279,351,3147,2430,3147,-1.0,25.0,21.0,25.878904342651367,26.550291061401367,1.7700194120407104,-0.9788818359375,1.353515625,-0.4476318359375
1.279,348,3147,2443,3147,-1.0,25.0,21.0,-21.850584030151367,28.869626998901367,-4.2724609375,-1.936279296875,1.10546875,-0.5308837890625
1.287,347,3147,2421,3147,-1.0,25.0,21.0,-49.743648529052734,25.268552780151367,-2.746581792831421,-2.29150390625,0.7222900390625,-0.38232421875
1.291,346,3147,2395,3147,1.0,28.0,25.0,-45.837398529052734,17.27294921875,4.8828125,-2.0657958984375,0.5660400390625,-0.1478271484375
1.294,346,3147,2359,3147,1.0,28.0,25.0,-30.212400436401367,6.896972179412842,9.6435546875,-1.7041015625,0.486083984375,0.0367431640625
1.301,346,3147,2296,3147,1.0,28.0,25.0,-13.244627952575684,2.25830078125,11.169432640075684,-1.4161376953125,0.4937744140625,0.0987548828125
1.308,346,3147,2260,3126,1.0,28.0,25.0,-0.3662109076976776,6.347655773162842,13.244627952575684,-1.10009765625,0.466552734375,0.10546875
1.326,338,3147,2141,2178,1.0,28.0,25.0,4.82177734375,14.221190452575684,13.854979515075684,-0.7281494140625,0.3026123046875,0.1622314453125
1.326,338,3147,2068,1662,1.0,28.0,25.0,4.638671875,20.01953125,8.544921875,-0.425048828125,0.0950927734375,0.192626953125
1.331,334,3147,1985,900,1.0,28.0,25.0,0.3662109076976776,20.874021530151367,-3.479003667831421,-0.2972412109375,-0.012451171875,0.1060791015625
1.407,330,2659,1890,385,1.0,28.0,25.0,-6.042479991912842,16.6015625,-17.51708984375,-0.3726806640625,-0.00439453125,-0.0184326171875
1.408,329,2161,1750,382,1.0,28.0,25.0,-14.038084983825684,9.58251953125,-26.367185592651367,-0.5233154296875,-0.01025390625,-0.0694580078125
1.408,332,1320,1697,426,1.0,28.0,25.0,-14.038084983825684,9.58251953125,-26.367185592651367,-0.587646484375,-0.1168212890625,-0.055419921875
1.410,318,739,1437,360,-1.0,29.0,22.0,-22.277830123901367,5.065917491912842,-18.310546875,-0.5477294921875,-0.2637939453125,-0.062744140625
1.413,310,830,1474,359,-1.0,29.0,22.0,-11.840819358825684,12.145995140075684,-8.4228515625,-0.4940185546875,-0.3128662109375,-0.058837890625
1.413,323,744,1553,356,-1.0,29.0,22.0,-11.840819358825684,12.145995140075684,-8.4228515625,-0.4425048828125,-0.2657470703125,-0.0357666015625
1.414,324,540,1569,348,-1.0,29.0,22.0,22.766111373901367,23.437498092651367,10.498045921325684,-0.4222412109375,0.0106201171875,-0.0560302734375
1.415,323,713,1550,344,-1.0,29.0,22.0,33.87451171875,19.53125,10.742186546325684,-0.5167236328125,0.4871826171875,-0.019287109375
1.419,323,660,1561,363,-1.0,29.0,22.0,22.705076217651367,7.751464366912842,3.417968511581421,-0.65380859375,0.79736328125,0.065673828125
1.435,321,673,1640,347,-1.0,29.0,22.0,0.54931640625,-2.807616949081421,-4.39453125,-0.7034912109375,0.87353515625,0.0601806640625
1.441,322,739,1677,354,-1.0,29.0,22.0,-12.634276390075684,-5.371093273162842,-6.469726085662842,-0.6732177734375,0.7886962890625,-0.0152587890625
1.449,323,806,1700,347,-1.0,29.0,22.0,-17.333984375,-3.112792730331421,-2.746581792831421,-0.655517578125,0.5347900390625,-0.0528564453125
1.481,324,1160,1761,361,-1.0,29.0,22.0,-18.73779296875,-0.9155272841453552,1.7700194120407104,-0.7115478515625,0.1917724609375,-0.0362548828125
1.483,326,1178,1794,365,0.0,29.0,20.0,-15.930174827575684,0.0610351525247097,4.150390625,-0.838623046875,-0.02685546875,-0.032470703125
1.512,327,1318,1806,373,0.0,29.0,20.0,-15.930174827575684,0.0610351525247097,4.150390625,-0.9713134765625,0.0093994140625,-0.050537109375
1.514,323,1531,1830,376,0.0,29.0,20.0,4.69970703125,-1.4648436307907104,10.070799827575684,-1.043701171875,0.1781005859375,-0.06689453125
1.517,324,1516,1850,347,0.0,29.0,20.0,14.648436546325684,-4.5166015625,14.343260765075684,-1.022216796875,0.2891845703125,-0.0606689453125
1.518,324,1552,1867,375,0.0,29.0,20.0,14.648436546325684,-4.5166015625,14.343260765075684,-0.935791015625,0.294921875,-0.032470703125
1.527,328,1792,1891,390,0.0,29.0,20.0,29.296873092651367,-8.72802734375,23.925779342651367,-0.8504638671875,0.2484130859375,-0.013671875
1.545,328,1881,1894,390,0.0,29.0,20.0,34.0576171875,-6.652831554412842,30.212400436401367,-0.807373046875,0.209716796875,-0.0205078125
1.545,328,1914,1896,393,0.0,29.0,20.0,34.0576171875,-6.652831554412842,30.212400436401367,-0.8099365234375,0.2078857421875,-0.034423828125
1.581,327,2188,1867,364,0.0,29.0,20.0,23.498533248901367,8.056640625,44.494625091552734,-0.83349609375,0.2294921875,-0.0323486328125
1.581,327,2396,1813,371,0.0,29.0,20.0,7.385253429412842,18.24951171875,50.659175872802734,-0.8497314453125,0.2587890625,-0.012451171875
1.582,327,2560,1770,411,0.0,29.0,17.0,7.385253429412842,18.24951171875,50.659175872802734,-0.8074951171875,0.2738037109375,0.01416015625
1.585,330,3147,1730,407,0.0,29.0,17.0,-15.808104515075684,29.602048873901367,55.603023529052734,-0.608642578125,0.187255859375,0.0634765625
1.595,330,3147,1709,975,0.0,29.0,17.0,-10.314940452575684,26.550291061401367,54.504390716552734,-0.2088623046875,-0.0010986328125,0.158203125
1.599,334,3147,1741,1494,0.0,29.0,17.0,-10.314940452575684,26.550291061401367,54.504390716552734,0.3206787109375,-0.0955810546875,0.260986328125
1.613,336,3147,1894,2207,0.0,29.0,17.0,18.00537109375,17.4560546875,49.804683685302734,0.9608154296875,-0.02392578125,0.2828369140625
1.626,331,3147,2024,2950,0.0,29.0,17.0,36.68212890625,1.3427733182907104,40.405269622802734,1.579833984375,0.16552734375,0.161376953125
1.629,344,3147,2176,3134,0.0,29.0,17.0,36.68212890625,1.3427733182907104,40.405269622802734,1.58837890625,0.6063232421875,-0.108642578125
1.643,348,3147,2303,3147,0.0,29.0,17.0,89.35546112060547,-88.43993377685547,-28.808591842651367,0.511962890625,1.3199462890625,-0.500732421875
1.656,351,3147,2442,3147,0.0,29.0,17.0,82.27538299560547,-123.35204315185547,-83.49608612060547,-1.4217529296875,1.7620849609375,-0.8402099609375
1.659,353,3147,2616,3147,0.0,29.0,17.0,82.27538299560547,-123.35204315185547,-83.49608612060547,-3.2725830078125,1.363037109375,-0.7593994140625
1.693,351,3147,2689,3147,0.0,26.0,22.0,-47.912593841552734,-107.29979705810547,-96.49657440185547,-4.0,0.26416015625,0.0594482421875
1.697,361,3147,2521,3147,0.0,26.0,22.0,-69.580078125,-84.96092987060547,-46.691890716552734,-4.0,-0.791259765625,0.60595703125
1.697,359,3147,2458,3147,0.0,26.0,22.0,-69.580078125,-84.96092987060547,-46.691890716552734,-2.8175048828125,-1.2423095703125,0.4892578125
1.712,348,3147,2322,3147,0.0,26.0,22.0,32.5927734375,-12.084959983825684,45.837398529052734,-0.7039794921875,-0.3797607421875,0.3787841796875
1.713,347,3147,2330,3147,0.0,26.0,22.0,32.5927734375,-12.084959983825684,45.837398529052734,-0.1436767578125,1.2177734375,-0.0128173828125
1.719,347,3147,2330,3147,0.0,26.0,22.0,52.062984466552734,17.76123046875,40.588375091552734,-0.1436767578125,1.2177734375,-0.0128173828125
1.733,309,3147,2367,3147,0.0,26.0,22.0,-34.66796875,19.1650390625,-27.038572311401367,-1.7552490234375,1.1158447265625,-0.55224609375
1.752,347,3147,2379,3147,0.0,26.0,22.0,-34.66796875,19.1650390625,-27.038572311401367,-2.210205078125,0.7440185546875,-0.4683837890625
1.753,346,3147,2364,3147,0.0,26.0,22.0,-59.875484466552734,1.4648436307907104,-41.015621185302734,-2.210205078125,0.7440185546875,-0.4683837890625
1.783,347,3147,2340,3147,-2.0,27.0,23.0,-44.433589935302734,-22.766111373901367,-25.756834030151367,-1.8570556640625,0.494384765625,-0.0328369140625
1.783,346,3147,2272,3147,-2.0,27.0,23.0,-44.433589935302734,-22.766111373901367,-25.756834030151367,-1.5347900390625,0.3729248046875,0.1702880859375
1.783,346,3147,2244,3147,-2.0,27.0,23.0,-38.2080078125,-23.010251998901367,-18.1884765625,-1.5347900390625,0.3729248046875,0.1702880859375
1.794,344,3147,2180,2801,-2.0,27.0,23.0,-14.892577171325684,2.38037109375,3.723144292831421,-0.93603515625,0.1893310546875,0.3165283203125
1.801,338,3147,2137,2268,-2.0,27.0,23.0,-14.892577171325684,2.38037109375,3.723144292831421,-0.5953369140625,-0.0023193359375,0.4093017578125
1.818,332,3147,2068,1803,-2.0,27.0,23.0,0.1831054538488388,21.118162155151367,17.578125,-0.5953369140625,-0.0023193359375,0.4093017578125
1.823,336,3147,1970,794,-2.0,27.0,23.0,20.141599655151367,40.344234466552734,22.705076217651367,-0.2354736328125,-0.0321044921875,0.283935546875
1.831,332,3012,1941,467,-2.0,27.0,23.0,20.141599655151367,40.344234466552734,22.705076217651367,-0.354248046875,0.0848388671875,0.0614013671875
1.839,331,2484,1873,411,-2.0,27.0,23.0,16.7236328125,36.4990234375,10.986327171325684,-0.354248046875,0.0848388671875,0.0614013671875
1.856,328,1834,1750,385,-2.0,27.0,23.0,-10.192870140075684,19.95849609375,-16.41845703125,-0.583251953125,0.1148681640625,-0.1339111328125
1.863,328,1732,1632,371,2.0,26.0,23.0,-10.192870140075684,19.95849609375,-16.41845703125,-0.6116943359375,-0.016845703125,-0.1287841796875
1.892,322,1280,1466,378,2.0,26.0,23.0,-15.747069358825684,17.2119140625,-21.179197311401367,-0.6116943359375,-0.016845703125,-0.1287841796875
1.892,321,840,1492,353,2.0,26.0,23.0,8.11767578125,24.902341842651367,-8.72802734375,-0.5667724609375,-0.0618896484375,-0.0880126953125
1.892,318,628,1434,348,2.0,26.0,23.0,8.11767578125,24.902341842651367,-8.72802734375,-0.5557861328125,0.1043701171875,-0.085205078125
1.901,315,479,1428,331,2.0,26.0,23.0,20.690916061401367,26.000974655151367,1.3427733182907104,-0.5557861328125,0.1043701171875,-0.085205078125
1.923,313,527,1362,330,2.0,26.0,23.0,23.986814498901367,16.11328125,5.615233898162842,-0.668701171875,0.6885986328125,0.0216064453125
1.924,312,506,1382,332,2.0,26.0,23.0,23.986814498901367,16.11328125,5.615233898162842,-0.668701171875,0.6885986328125,0.0216064453125
1.929,313,523,1411,330,2.0,26.0,23.0,6.835937023162842,6.713866710662842,-0.7324218153953552,-0.6435546875,0.669189453125,0.0546875
1.943,315,574,1494,332,2.0,26.0,23.0,-5.371093273162842,4.638671875,-6.958007335662842,-0.6038818359375,0.5467529296875,-0.006103515625
1.952,316,778,1518,338,2.0,26.0,23.0,-8.7890625,9.09423828125,-8.60595703125,-0.6038818359375,0.5467529296875,-0.006103515625
1.962,316,790,1568,344,-2.0,33.0,20.0,-13.549803733825684,12.817381858825684,-5.859374523162842,-0.6983642578125,0.4091796875,0.0054931640625
1.995,316,867,1646,344,-2.0,33.0,20.0,-21.484373092651367,13.183592796325684,-2.25830078125,-0.9217529296875,0.1488037109375,0.0242919921875
1.995,318,980,1676,346,-2.0,33.0,20.0,-24.780271530151367,11.657713890075684,0.9155272841453552,-0.9217529296875,0.1488037109375,0.0242919921875
1.998,316,1175,1715,345,-2.0,33.0,20.0,-17.27294921875,9.1552734375,4.33349609375,-0.95947265625,0.20263671875,-0.0240478515625
2.028,321,1334,1735,353,-2.0,33.0,20.0,-3.417968511581421,5.371093273162842,7.141112804412842,-0.95947265625,0.3138427734375,-0.0753173828125
2.029,321,1289,1750,353,-2.0,33.0,20.0,9.21630859375,0.7934569716453552,8.7890625,-0.95947265625,0.3138427734375,-0.0753173828125
2.030,318,1398,1781,354,-2.0,33.0,20.0,19.04296875,-3.417968511581421,10.498045921325684,-0.94384765625,0.2799072265625,-0.080078125
2.033,321,1569,1803,356,-2.0,33.0,20.0,26.977537155151367,-6.103515148162842,13.854979515075684,-0.9134521484375,0.2044677734375,-0.107177734375
2.042,321,1580,1808,359,-2.0,33.0,20.0,32.2265625,-6.835937023162842,19.47021484375,-0.9134521484375,0.2044677734375,-0.107177734375
2.067,321,1686,1803,359,-2.0,33.0,20.0,33.26416015625,-5.371093273162842,27.404783248901367,-0.9215087890625,0.177978515625,-0.0950927734375
2.069,321,1855,1735,361,-5.0,27.0,22.0,29.235837936401367,-1.03759765625,36.62109375,-0.88330078125,0.18359375,0.0140380859375
2.071,323,1877,1719,363,-5.0,27.0,22.0,18.798828125,7.446288585662842,45.349117279052734,-0.88330078125,0.18359375,0.0140380859375
2.091,323,2167,1762,363,-5.0,27.0,22.0,2.685546636581421,19.47021484375,51.086421966552734,-0.806640625,0.28271484375,0.107666015625
2.093,323,2901,1772,398,-5.0,27.0,22.0,-14.099120140075684,30.517576217651367,52.185054779052734,-0.36279296875,0.276611328125,0.156982421875
2.108,328,3147,1789,594,-5.0,27.0,22.0,-21.911619186401367,34.66796875,49.987789154052734,-0.36279296875,0.276611328125,0.156982421875
2.110,330,3147,1800,1223,-5.0,27.0,22.0,-11.840819358825684,28.503416061401367,45.593257904052734,0.0943603515625,0.115234375,0.159912109375
2.126,334,3147,1891,2113,-5.0,27.0,22.0,12.573241233825684,13.244627952575684,35.0341796875,1.63232421875,-0.0694580078125,0.1622314453125
2.131,338,3147,2019,2867,-5.0,27.0,22.0,40.954586029052734,-6.347655773162842,11.718749046325684,1.63232421875,-0.0694580078125,0.1622314453125
2.139,344,3147,2188,3112,-5.0,27.0,22.0,61.584468841552734,-34.11865234375,-24.841306686401367,2.0546875,0.2001953125,-0.1103515625
2.157,348,3147,2396,3147,-6.0,26.0,25.0,68.7255859375,-75.8056640625,-58.532711029052734,1.2620849609375,0.7247314453125,-0.525390625
2.162,354,3147,2541,3147,-6.0,26.0,25.0,66.83349609375,-113.40331268310547,-76.47705078125,-0.692626953125,1.532470703125,-0.945556640625
2.194,353,3147,2683,3147,-6.0,26.0,25.0,37.41455078125,-126.22069549560547,-82.09227752685547,-2.8509521484375,2.005126953125,-0.9383544921875
2.198,359,3147,2643,3147,-6.0,26.0,25.0,-38.57421875,-121.09374237060547,-80.87157440185547,-4.0,1.0423583984375,0.1749267578125
2.198,356,3147,2421,3147,-6.0,26.0,25.0,-97.41210174560547,-105.22460174560547,-66.89453125,-4.0,-0.3447265625,1.30419921875
2.200,351,3147,2306,3147,-6.0,26.0,25.0,-56.762691497802734,-63.232418060302734,-30.761716842651367,-3.19970703125,-1.34765625,1.1917724609375
2.228,346,3147,2287,3147,-6.0,26.0,25.0,30.944822311401367,-8.544921875,4.150390625,-0.923828125,-1.1060791015625,0.687255859375
2.233,345,3147,2328,3147,-6.0,26.0,25.0,88.01268768310547,35.0341796875,16.7236328125,-0.04638671875,0.574462890625,-0.1287841796875
2.236,347,3147,2341,3147,-6.0,26.0,25.0,74.462890625,56.640621185302734,11.047362327575684,-0.8614501953125,1.4580078125,-0.907958984375
2.238,344,3147,2343,3147,-6.0,26.0,25.0,-10.498045921325684,47.973628997802734,-4.57763671875,-1.7703857421875,1.100830078125,-0.8349609375
2.252,347,3147,2328,3147,0.0,27.0,24.0,-70.61767578125,28.137205123901367,-12.512206077575684,-2.2431640625,0.73095703125,-0.3980712890625
2.260,346,3147,2308,3147,0.0,27.0,24.0,-67.2607421875,11.352538108825684,-10.192870140075684,-2.1676025390625,0.6800537109375,-0.0631103515625
2.306,346,3147,2306,3147,0.0,27.0,24.0,-45.654293060302734,0.3662109076976776,-6.408690929412842,-1.853759765625,0.577880859375,0.1134033203125
2.306,344,3147,2214,3147,0.0,27.0,24.0,-25.695798873901367,-0.8544921278953552,-0.30517578125,-1.5667724609375,0.47265625,0.1817626953125
2.307,344,3147,2172,3147,0.0,27.0,24.0,-8.30078125,6.225585460662842,9.6435546875,-1.33349609375,0.40625,0.1495361328125
2.313,334,3147,2135,2848,0.0,27.0,24.0,6.286620616912842,18.06640625,21.484373092651367,-1.0263671875,0.3076171875,0.109130859375
2.315,334,3147,2061,2060,0.0,27.0,24.0,16.7236328125,29.724119186401367,28.381345748901367,-0.625,0.1585693359375,0.1893310546875
2.339,330,3147,2010,1472,0.0,27.0,24.0,16.11328125,37.41455078125,22.888181686401367,-0.30126953125,0.088134765625,0.2587890625
2.339,327,2240,1943,962,0.0,27.0,24.0,4.2724609375,38.9404296875,5.065917491912842,-0.221435546875,0.1549072265625,0.1871337890625
2.342,332,2299,1877,385,0.0,27.0,24.0,-10.681151390075684,31.921384811401367,-19.287109375,-0.35986328125,0.2451171875,0.0093994140625
2.350,323,1440,1808,419,-1.0,28.0,24.0,-21.911619186401367,18.85986328125,-41.992183685302734,-0.5487060546875,0.2340087890625,-0.1416015625
2.358,323,998,1691,382,-1.0,28.0,24.0,-27.954099655151367,6.958007335662842,-54.992671966552734,-0.6790771484375,0.071533203125,-0.2069091796875
2.372,317,400,1503,334,-1.0,28.0,24.0,-25.451658248901367,1.7700194120407104,-56.274410247802734,-0.6988525390625,-0.1029052734375,-0.1929931640625
2.406,310,376,1488,328,-1.0,28.0,24.0,-15.319823265075684,1.4648436307907104,-48.156734466552734,-0.6497802734375,-0.158447265625,-0.1060791015625
2.406,308,316,1516,318,-1.0,28.0,24.0,-3.356933355331421,2.563476324081421,-33.38623046875,-0.5784912109375,-0.1358642578125,-0.0343017578125
2.416,308,337,1266,319,-1.0,28.0,24.0,9.33837890625,6.896972179412842,-16.29638671875,-0.544189453125,0.02978515625,-0.0439453125
2.449,309,338,1169,321,-1.0,28.0,24.0,17.63916015625,13.977049827575684,-1.03759765625,-0.60498046875,0.2818603515625,-0.029541015625
2.454,306,346,1191,321,-1.0,28.0,24.0,8.97216796875,16.4794921875,8.544921875,-0.6346435546875,0.3436279296875,0.046875
2.455,308,363,1257,318,-1.0,28.0,24.0,-8.7890625,11.840819358825684,8.97216796875,-0.546875,0.23388671875,0.071533203125
2.455,310,330,1292,321,-1.0,28.0,24.0,-11.901854515075684,7.080077648162842,4.2724609375,-0.4344482421875,0.2398681640625,0.0357666015625
2.456,310,338,1387,321,-3.0,27.0,24.0,-0.8544921278953552,7.324218273162842,1.3427733182907104,-0.423095703125,0.408447265625,0.025634765625
2.463,310,359,1497,323,-3.0,27.0,24.0,6.103515148162842,10.986327171325684,1.5258787870407104,-0.52880859375,0.527587890625,0.0811767578125
2.471,313,594,1534,323,-3.0,27.0,24.0,2.13623046875,14.343260765075684,3.479003667831421,-0.6739501953125,0.475341796875,0.163330078125
2.479,313,479,1584,327,-3.0,27.0,24.0,-7.202147960662842,16.29638671875,6.652831554412842,-0.80859375,0.3209228515625,0.201416015625
2.506,316,619,1681,333,-3.0,27.0,24.0,-13.916014671325684,18.00537109375,11.657713890075684,-0.913818359375,0.19091796875,0.1571044921875
2.506,318,785,1697,342,-3.0,27.0,24.0,-12.634276390075684,19.8974609375,17.822265625,-0.975341796875,0.15234375,0.0457763671875
2.515,319,1000,1746,347,-3.0,27.0,24.0,-2.685546636581421,20.507810592651367,23.193357467651367,-1.003173828125,0.2109375,-0.076171875
2.523,324,1149,1775,353,-3.0,27.0,24.0,11.474608421325684,18.00537109375,26.611326217651367,-1.0174560546875,0.3045654296875,-0.155517578125
2.534,321,1439,1795,355,-3.0,27.0,24.0,24.719236373901367,12.451170921325684,28.808591842651367,-1.026611328125,0.3463134765625,-0.189453125
2.539,324,1533,1812,359,-3.0,27.0,24.0,34.0576171875,6.530761241912842,31.433103561401367,-1.029052734375,0.31494140625,-0.2027587890625
2.558,323,1748,1816,356,-6.0,28.0,24.0,38.330078125,3.356933355331421,36.1328125,-1.0155029296875,0.2493896484375,-0.1953125
2.561,323,1829,1808,356,-6.0,28.0,24.0,36.07177734375,4.33349609375,43.395992279052734,-0.97900390625,0.18115234375,-0.1527099609375
2.569,323,1959,1785,361,-6.0,28.0,24.0,26.062009811401367,10.131834983825684,52.062984466552734,-0.8973388671875,0.1243896484375,-0.068115234375
2.583,324,2601,1798,361,-6.0,28.0,24.0,7.202147960662842,20.568845748901367,59.020992279052734,-0.751953125,0.1181640625,0.0394287109375
2.603,323,3106,1759,391,-6.0,28.0,24.0,-13.305663108825684,30.822751998901367,60.791011810302734,-0.539794921875,0.177734375,0.134033203125
2.604,328,3147,1675,872,-6.0,28.0,24.0,-16.6015625,31.738279342651367,56.274410247802734,-0.1380615234375,0.181396484375,0.2071533203125
2.618,329,3147,1772,1531,-6.0,28.0,24.0,3.356933355331421,19.34814453125,46.142574310302734,0.5679931640625,0.031005859375,0.291748046875
2.621,334,3147,1770,1920,-6.0,28.0,24.0,34.24072265625,0.4272460639476776,28.564451217651367,1.47265625,-0.1981201171875,0.258056640625
2.634,337,3147,1861,2359,-6.0,28.0,24.0,34.24072265625,0.4272460639476776,28.564451217651367,2.0775146484375,0.0318603515625,0.083740234375
2.650,344,3147,2136,3134,-1.0,28.0,22.0,65.5517578125,-42.724605560302734,-35.33935546875,1.5550537109375,0.8482666015625,-0.2440185546875
2.651,346,3147,2296,3147,-1.0,28.0,22.0,57.800289154052734,-82.27538299560547,-75.68359375,-0.181640625,1.5794677734375,-0.787841796875
2.659,348,3147,2456,3147,-1.0,28.0,22.0,57.800289154052734,-82.27538299560547,-75.68359375,-2.3157958984375,2.01904296875,-1.2127685546875
2.673,360,724,2739,3147,-1.0,28.0,22.0,-22.155759811401367,-125.79344940185547,-98.69384002685547,-3.8485107421875,1.4912109375,-0.7698974609375
2.685,359,3147,2659,3147,-1.0,28.0,22.0,-84.41161346435547,-121.58202362060547,-80.078125,-4.0,0.18896484375,0.495361328125
2.722,354,3147,2560,3147,-1.0,28.0,22.0,-84.41161346435547,-121.58202362060547,-80.078125,-3.8135986328125,-1.316650390625,0.9798583984375
2.722,346,3147,2362,3147,-1.0,28.0,22.0,-18.73779296875,-58.776851654052734,-20.507810592651367,-1.7078857421875,-1.682861328125,0.9285888671875
2.723,344,3147,2361,3147,-1.0,28.0,22.0,66.34521484375,-16.11328125,-3.723144292831421,-0.0406494140625,0.0029296875,0.5816650390625
2.724,348,3147,2386,3147,-1.0,28.0,22.0,66.34521484375,-16.11328125,-3.723144292831421,-0.4188232421875,1.424560546875,-0.2337646484375
2.738,346,3147,2407,3147,-1.0,28.0,22.0,27.465818405151367,48.278804779052734,-6.774901866912842,-1.4503173828125,1.1658935546875,-0.47021484375
2.741,351,3147,2432,3147,-1.0,26.0,26.0,-56.091304779052734,51.818843841552734,-7.263183116912842,-2.2005615234375,0.4769287109375,-0.3546142578125
2.749,346,3147,2417,3147,-1.0,26.0,26.0,-56.091304779052734,51.818843841552734,-7.263183116912842,-2.304443359375,0.4058837890625,-0.248046875
2.763,345,3147,2348,3147,-1.0,26.0,26.0,-61.645503997802734,35.15625,14.770506858825684,-1.9993896484375,0.5263671875,-0.1446533203125
2.771,344,3147,2286,3147,-1.0,26.0,26.0,-46.386714935302734,25.573728561401367,18.85986328125,-1.6876220703125,0.6121826171875,-0.035888671875
2.783,338,3147,2205,3147,-1.0,26.0,26.0,-46.386714935302734,25.573728561401367,18.85986328125,-1.5113525390625,0.6309814453125,-0.0067138671875
2.813,338,3147,2127,2795,-1.0,26.0,26.0,-10.070799827575684,25.817869186401367,25.024412155151367,-1.2923583984375,0.4952392578125,-0.0234375
2.814,336,3147,2058,2277,-1.0,26.0,26.0,9.6435546875,27.587888717651367,26.489255905151367,-0.865966796875,0.2542724609375,0.0684814453125
2.814,334,3147,1973,1684,-1.0,26.0,26.0,9.6435546875,27.587888717651367,26.489255905151367,-0.347900390625,0.076904296875,0.1864013671875
2.825,332,3147,1880,465,-1.0,26.0,26.0,26.855466842651367,25.329587936401367,8.72802734375,0.0072021484375,0.0289306640625,0.2071533203125
2.846,324,2612,1800,399,-1.0,26.0,26.0,26.855466842651367,25.329587936401367,8.72802734375,0.029541015625,0.0565185546875,0.1475830078125
2.846,324,1748,1705,387,-3.0,26.0,22.0,18.12744140625,21.423337936401367,-8.6669921875,0.029541015625,0.0565185546875,0.1475830078125
2.853,315,887,1557,354,-3.0,26.0,22.0,-3.723144292831421,3.112792730331421,-36.43798828125,-0.449951171875,0.1507568359375,-0.1038818359375
2.861,315,619,1514,353,-3.0,26.0,22.0,-3.723144292831421,3.112792730331421,-36.43798828125,-0.6795654296875,0.0499267578125,-0.118896484375
2.869,314,400,1613,346,-3.0,26.0,22.0,-12.512206077575684,-3.601073980331421,-42.053218841552734,-0.6795654296875,0.0499267578125,-0.118896484375
2.883,310,354,1550,331,-3.0,26.0,22.0,-1.9531248807907104,2.929687261581421,-26.245115280151367,-0.6590576171875,-0.225830078125,-0.113525390625
2.926,309,324,1494,326,-3.0,26.0,22.0,-1.9531248807907104,2.929687261581421,-26.245115280151367,-0.594970703125,0.156494140625,-0.226806640625
2.926,310,316,1357,323,-3.0,26.0,22.0,20.812986373901367,13.000487327575684,-13.488768577575684,-0.594970703125,0.156494140625,-0.226806640625
2.926,311,337,1201,323,-3.0,26.0,22.0,-10.803221702575684,8.056640625,-3.479003667831421,-0.6744384765625,0.3170166015625,-0.0426025390625
2.926,310,338,1201,324,-3.0,26.0,22.0,-10.803221702575684,8.056640625,-3.479003667831421,-0.609130859375,0.29443359375,-0.026611328125
2.929,309,354,1231,324,-3.0,26.0,22.0,-21.484373092651367,4.2724609375,-2.624511480331421,-0.609130859375,0.29443359375,-0.026611328125
2.947,308,375,1320,323,-1.0,28.0,27.0,-7.202147960662842,6.774901866912842,-0.1220703050494194,-0.56005859375,0.4766845703125,-0.0328369140625
2.951,308,338,1397,323,-1.0,28.0,27.0,-7.202147960662842,6.774901866912842,-0.1220703050494194,-0.6380615234375,0.5308837890625,0.0819091796875
2.959,310,338,1467,323,-1.0,28.0,27.0,-2.929687261581421,7.141112804412842,-0.6103515625,-0.6380615234375,0.5308837890625,0.0819091796875
2.984,313,383,1551,324,-1.0,28.0,27.0,-2.624511480331421,0.4272460639476776,0.4272460639476776,-0.8277587890625,0.278076171875,0.2371826171875
2.986,313,388,1607,328,-1.0,28.0,27.0,-2.624511480331421,0.4272460639476776,0.4272460639476776,-0.900634765625,0.1639404296875,0.1575927734375
2.989,315,466,1652,330,-1.0,28.0,27.0,1.0986328125,-0.2441406100988388,2.44140625,-0.900634765625,0.1639404296875,0.1575927734375
3.013,315,668,1702,333,-1.0,28.0,27.0,15.441893577575684,2.3193359375,8.85009765625,-0.916015625,0.125,-0.0704345703125
3.014,316,923,1744,351,-1.0,28.0,27.0,15.441893577575684,2.3193359375,8.85009765625,-0.906005859375,0.1444091796875,-0.1375732421875
3.029,317,1071,1783,359,-1.0,28.0,27.0,21.850584030151367,4.5166015625,15.441893577575684,-0.906005859375,0.1444091796875,-0.1375732421875
3.035,319,1464,1807,363,-1.0,28.0,27.0,26.733396530151367,9.33837890625,34.24072265625,-0.89208984375,0.1783447265625,-0.1856689453125
3.046,321,1641,1820,369,-2.0,29.0,22.0,26.733396530151367,9.33837890625,34.24072265625,-0.8031005859375,0.2098388671875,-0.1689453125
3.049,323,2141,1848,378,-2.0,29.0,22.0,19.775390625,11.840819358825684,41.564937591552734,-0.8031005859375,0.2098388671875,-0.1689453125
3.105,323,2801,1846,371,-2.0,29.0,22.0,5.920409679412842,15.136717796325684,43.640132904052734,-0.651611328125,0.3765869140625,0.0035400390625
3.132,323,3147,1824,388,-2.0,29.0,22.0,-6.469726085662842,18.12744140625,41.687007904052734,-0.651611328125,0.3765869140625,0.0035400390625
3.132,325,3147,1732,972,-2.0,29.0,22.0,-10.681151390075684,19.287109375,40.405269622802734,-0.56494140625,0.265380859375,0.09228515625
3.133,327,3147,1756,1869,-2.0,29.0,22.0,-3.356933355331421,17.39501953125,41.992183685302734,0.3975830078125,-0.3272705078125,0.2664794921875
3.133,331,3147,1819,2321,-2.0,29.0,22.0,14.343260765075684,10.070799827575684,44.189449310302734,0.3975830078125,-0.3272705078125,0.2664794921875
3.134,330,3147,1981,2736,-2.0,29.0,22.0,42.297359466552734,-6.835937023162842,41.931148529052734,1.308837890625,-0.42578125,0.153564453125
3.135,346,3147,2228,3147,-2.0,29.0,22.0,83.37401580810547,-40.954586029052734,25.939939498901367,1.4110107421875,1.255615234375,-0.443603515625
3.135,347,3147,2345,3147,-2.0,29.0,22.0,120.97167205810547,-92.28514862060547,-15.624999046325684,1.4110107421875,1.255615234375,-0.443603515625
3.147,359,3147,2516,3147,-1.0,26.0,19.0,109.43602752685547,-136.16943359375,-80.99364471435547,-0.4384765625,2.03466796875,-0.8311767578125
3.153,371,3147,2788,3147,-1.0,26.0,19.0,33.447265625,-148.25439453125,-133.36181640625,-4.0,0.787353515625,-0.268798828125
3.161,356,3147,2638,2673,-1.0,26.0,19.0,-59.204097747802734,-140.31982421875,-137.02392578125,-4.0,0.787353515625,-0.268798828125
3.169,351,3147,2519,3147,-1.0,26.0,19.0,-101.74559783935547,-130.55419921875,-97.10692596435547,-4.0,-0.4781494140625,0.7900390625
3.183,349,3147,2412,3147,-1.0,26.0,19.0,-58.898921966552734,-105.52977752685547,-45.715328216552734,-0.3935546875,-1.1405029296875,1.1942138671875
3.191,346,3147,2386,3147,-1.0,26.0,19.0,36.4990234375,-57.861324310302734,-7.568358898162842,-0.3935546875,-1.1405029296875,1.1942138671875
3.217,346,3147,2384,3147,-1.0,26.0,19.0,113.64745330810547,9.09423828125,19.22607421875,0.017333984375,0.74853515625,0.5379638671875
3.217,348,3147,2432,3147,-1.0,26.0,19.0,83.19091033935547,67.81005859375,29.174802780151367,-2.0081787109375,0.4541015625,-0.3656005859375
3.221,351,3147,2400,3147,-1.0,26.0,19.0,-26.184080123901367,90.27098846435547,29.296873092651367,-2.0081787109375,0.4541015625,-0.3656005859375
3.252,346,3147,2379,3147,-1.0,26.0,19.0,-86.54784393310547,90.20995330810547,43.273921966552734,-2.4090576171875,0.2745361328125,-0.318359375
3.253,345,3147,2321,3147,-3.0,27.0,24.0,-89.47753143310547,80.56639862060547,59.997554779052734,-1.780029296875,0.91357421875,-0.1033935546875
3.255,346,3147,2273,3147,-3.0,27.0,24.0,-81.78710174560547,69.51904296875,59.692378997802734,-1.780029296875,0.91357421875,-0.1033935546875
3.259,345,3147,2221,3147,-3.0,27.0,24.0,-65.5517578125,58.227535247802734,41.931148529052734,-1.40869140625,1.009521484375,-0.155029296875
3.273,344,3147,2139,3130,-3.0,27.0,24.0,-39.0625,43.151851654052734,19.04296875,-1.0689697265625,0.7811279296875,-0.237548828125
3.281,344,3147,2105,2801,-3.0,27.0,24.0,-8.60595703125,26.916501998901367,4.57763671875,-0.676025390625,0.42724609375,-0.189697265625
3.289,338,3147,2058,2259,-3.0,27.0,24.0,19.04296875,12.634276390075684,-1.03759765625,-0.3155517578125,0.1976318359375,-0.04345703125
3.319,336,3147,1961,1276,-3.0,27.0,24.0,31.127927780151367,3.417968511581421,-5.981444835662842,-0.1627197265625,0.0916748046875,0.0751953125
3.320,334,3147,1946,566,-3.0,27.0,24.0,23.559568405151367,-0.6713866591453552,-14.038084983825684,-0.2730712890625,-0.0072021484375,0.10791015625
3.320,334,2638,1908,416,-3.0,27.0,24.0,8.9111328125,-2.44140625,-23.132322311401367,-0.531494140625,-0.0743408203125,0.0257568359375
3.335,330,1709,1852,376,-2.0,26.0,21.0,-1.220703125,-2.807616949081421,-29.235837936401367,-0.7315673828125,-0.032470703125,-0.07763671875
3.367,326,1056,1816,363,-2.0,26.0,21.0,-7.629394054412842,-1.8310545682907104,-30.822751998901367,-0.76953125,0.024658203125,-0.11474609375
3.367,322,726,1691,355,-2.0,26.0,21.0,-13.183592796325684,0.3662109076976776,-31.066892623901367,-0.7030029296875,0.0484619140625,-0.078369140625
3.368,309,455,1468,336,-2.0,26.0,21.0,-16.4794921875,3.784179449081421,-31.127927780151367,-0.6527099609375,0.06982421875,0.0020751953125
3.371,314,361,1441,328,-2.0,26.0,21.0,-16.11328125,7.934569835662842,-28.015134811401367,-0.63037109375,0.060302734375,0.08984375
3.379,308,318,1429,323,-2.0,26.0,21.0,-10.925292015075684,13.000487327575684,-21.118162155151367,-0.586669921875,0.0775146484375,0.12060546875
3.393,309,327,1355,321,-2.0,26.0,21.0,-1.4038084745407104,18.00537109375,-13.549803733825684,-0.56494140625,0.201904296875,0.0968017578125
3.401,308,346,1415,328,-2.0,26.0,21.0,3.906249761581421,19.22607421875,-7.263183116912842,-0.5968017578125,0.3514404296875,0.111328125
3.426,309,344,1430,330,-2.0,26.0,21.0,-2.624511480331421,15.441893577575684,-2.990722417831421,-0.6358642578125,0.39599609375,0.130615234375
3.426,310,406,1503,332,-2.0,26.0,21.0,-10.803221702575684,11.962889671325684,-0.6713866591453552,-0.650390625,0.372802734375,0.083251953125
3.432,310,415,1529,332,-1.0,25.0,25.0,-7.324218273162842,12.329100608825684,1.5258787870407104,-0.6683349609375,0.3946533203125,0.0076904296875
3.439,310,391,1552,332,-1.0,25.0,25.0,0.7934569716453552,14.343260765075684,5.0048828125,-0.7164306640625,0.413330078125,-0.0406494140625
3.465,310,390,1613,338,-1.0,25.0,25.0,2.0751953125,15.380858421325684,8.4228515625,-0.7781982421875,0.3746337890625,-0.0404052734375
3.465,315,433,1662,338,-1.0,25.0,25.0,-3.906249761581421,15.441893577575684,10.803221702575684,-0.83251953125,0.3018798828125,-0.012939453125
3.469,315,539,1686,338,-1.0,25.0,25.0,-11.169432640075684,14.709471702575684,12.573241233825684,-0.8753662109375,0.212158203125,-0.0010986328125
3.483,315,780,1729,348,-1.0,25.0,25.0,-13.061522483825684,13.793944358825684,14.526366233825684,-0.9097900390625,0.145263671875,-0.0289306640625
3.491,315,900,1739,356,-1.0,25.0,25.0,-6.835937023162842,13.122557640075684,16.2353515625,-0.9276123046875,0.133544921875,-0.082275390625
3.506,316,1000,1761,361,-1.0,25.0,25.0,3.417968511581421,11.840819358825684,17.63916015625,-0.9312744140625,0.154296875,-0.1287841796875
3.533,316,1351,1800,387,-1.0,25.0,25.0,13.000487327575684,9.521484375,19.6533203125,-0.937255859375,0.1943359375,-0.1488037109375
3.535,321,1478,1826,380,-1.0,25.0,25.0,20.690916061401367,7.019042491912842,23.071287155151367,-0.9559326171875,0.2476806640625,-0.1453857421875
3.535,321,1590,1830,386,-4.0,26.0,26.0,24.719236373901367,5.371093273162842,27.648923873901367,-0.9747314453125,0.280029296875,-0.125
3.543,321,1824,1838,376,-4.0,26.0,26.0,23.803709030151367,5.249022960662842,33.38623046875,-0.9710693359375,0.253173828125,-0.078857421875
3.572,318,1925,1852,387,-4.0,26.0,26.0,20.141599655151367,7.263183116912842,40.893550872802734,-0.9310302734375,0.1690673828125,-0.01611328125
3.572,323,2098,1869,387,-4.0,26.0,26.0,15.624999046325684,13.122557640075684,49.926753997802734,-0.84033203125,0.0965576171875,0.0396728515625
3.573,324,2859,1890,388,-4.0,26.0,26.0,6.591796398162842,23.437498092651367,57.617183685302734,-0.689208984375,0.1087646484375,0.0594482421875
3.581,330,3147,1821,574,-4.0,26.0,26.0,-4.7607421875,32.89794921875,60.424800872802734,-0.4415283203125,0.1666259765625,0.053466796875
3.589,329,3147,1787,1264,-4.0,26.0,26.0,-6.835937023162842,32.5927734375,57.617183685302734,-0.0113525390625,0.1873779296875,0.1134033203125
3.603,336,3147,1826,2228,-4.0,26.0,26.0,6.469726085662842,19.59228515625,49.194332122802734,0.7066650390625,0.05126953125,0.2193603515625
3.626,346,3147,1974,2758,-4.0,26.0,26.0,38.818359375,-2.868652105331421,31.005857467651367,1.622802734375,-0.1280517578125,0.1448974609375
3.626,346,3147,2063,3147,-4.0,26.0,26.0,85.44921112060547,-34.60693359375,-4.2724609375,1.9967041015625,0.368896484375,-0.2445068359375
3.633,356,3147,2379,3147,-4.0,24.0,24.0,112.79296112060547,-81.42089080810547,-55.297847747802734,1.099365234375,1.3463134765625,-0.7518310546875
3.641,369,3147,2567,3147,-4.0,24.0,24.0,81.05467987060547,-130.43212890625,-109.55809783935547,-0.8726806640625,1.7572021484375,-1.0777587890625
3.657,372,1428,2716,332,-4.0,24.0,24.0,5.981444835662842,-153.3203125,-137.02392578125,-2.9833984375,1.595947265625,-1.01806640625
3.669,376,3147,2853,3147,-4.0,24.0,24.0,-71.47216796875,-149.96337890625,-123.84032440185547,-4.0,0.5914306640625,-0.0655517578125
3.671,363,3147,2710,0,-4.0,24.0,24.0,-106.07909393310547,-135.986328125,-92.65135955810547,-4.0,-0.6961669921875,1.2197265625
3.684,356,3147,2624,2935,-4.0,24.0,24.0,-54.199214935302734,-102.66112518310547,-56.213375091552734,-3.3133544921875,-1.4874267578125,1.421142578125
3.693,351,3147,2469,3147,-4.0,24.0,24.0,40.222164154052734,-46.264644622802734,-22.094724655151367,-1.2703857421875,-1.0631103515625,1.02734375
3.701,348,3147,2486,3147,-4.0,24.0,24.0,101.56249237060547,18.1884765625,2.990722417831421,-0.255615234375,0.482666015625,0.4744873046875
3.709,347,3147,2465,3147,-4.0,24.0,24.0,79.16259765625,68.90869140625,14.709471702575684,-0.9266357421875,1.147216796875,-0.214599609375
3.726,349,3147,2491,3147,-3.0,26.0,29.0,-7.629394054412842,88.01268768310547,15.808104515075684,-1.8682861328125,0.7724609375,-0.5657958984375
3.731,348,3147,2482,3147,-3.0,26.0,29.0,-70.37353515625,81.72606658935547,21.484373092651367,-2.314453125,0.5032958984375,-0.6221923828125
3.739,348,3147,2456,3147,-3.0,26.0,29.0,-70.37353515625,81.72606658935547,21.484373092651367,-2.1571044921875,0.5194091796875,-0.428466796875
3.762,348,3147,2398,1643,-3.0,26.0,29.0,-76.66015625,40.710445404052734,28.747556686401367,-1.7791748046875,0.5970458984375,-0.175048828125
3.774,346,3147,2374,3147,-3.0,26.0,29.0,-55.664058685302734,28.076169967651367,22.583005905151367,-1.4747314453125,0.6905517578125,-0.045166015625
3.774,346,3147,2280,3147,-3.0,26.0,29.0,-55.664058685302734,28.076169967651367,22.583005905151367,-1.224609375,0.606689453125,-0.0335693359375
3.783,346,3147,2207,2552,-3.0,26.0,29.0,-8.1787109375,22.399900436401367,15.930174827575684,-0.9072265625,0.361572265625,0.033447265625
3.797,346,3147,2188,2018,-3.0,26.0,29.0,10.375975608825684,23.376462936401367,17.822265625,-0.53173828125,0.085693359375,0.1866455078125
3.799,336,3147,2137,1501,-3.0,26.0,29.0,10.375975608825684,23.376462936401367,17.822265625,-0.2362060546875,-0.0841064453125,0.2801513671875
3.833,334,3147,2028,654,-3.0,26.0,29.0,23.254392623901367,23.132322311401367,7.568358898162842,-0.17822265625,-0.105712890625,0.2646484375
3.833,330,2985,1973,387,-7.0,26.0,22.0,15.869139671325684,21.728513717651367,-2.563476324081421,-0.3465576171875,0.016845703125,0.1640625
3.836,328,2284,1929,382,-7.0,26.0,22.0,15.869139671325684,21.728513717651367,-2.563476324081421,-0.537109375,0.1689453125,0.011962890625
3.843,330,1058,1733,359,-7.0,26.0,22.0,-2.868652105331421,14.282225608825684,-18.6767578125,-0.64990234375,0.1630859375,-0.127685546875
3.851,324,808,1593,347,-7.0,26.0,22.0,-13.305663108825684,11.535643577575684,-23.437498092651367,-0.705322265625,0.0213623046875,-0.147705078125
3.866,316,490,1624,336,-7.0,26.0,22.0,-13.305663108825684,11.535643577575684,-23.437498092651367,-0.6776123046875,-0.1463623046875,-0.0830078125
3.879,315,401,1662,328,-7.0,26.0,22.0,-4.7607421875,13.305663108825684,-12.268065452575684,-0.5511474609375,-0.1553955078125,-0.1146240234375
3.881,300,401,1616,324,-7.0,26.0,22.0,15.258788108825684,18.73779296875,-0.9155272841453552,-0.4996337890625,0.0960693359375,-0.1885986328125
3.894,319,364,1550,322,-7.0,26.0,22.0,15.258788108825684,18.73779296875,-0.9155272841453552,-0.58984375,0.32080078125,-0.134765625
3.910,309,378,1397,329,-7.0,26.0,22.0,-1.0986328125,18.98193359375,12.329100608825684,-0.6817626953125,0.34912109375,-0.0576171875
3.914,315,374,1351,331,-7.0,26.0,22.0,-17.27294921875,15.319823265075684,9.8876953125,-0.69580078125,0.4083251953125,-0.06494140625
3.940,315,351,1411,324,-5.0,28.0,26.0,-17.27294921875,15.319823265075684,9.8876953125,-0.645751953125,0.54638671875,-0.1011962890625
3.941,315,406,1428,328,-5.0,28.0,26.0,-13.000487327575684,8.72802734375,2.01416015625,-0.635986328125,0.61865234375,-0.0845947265625
3.941,315,537,1499,306,-5.0,28.0,26.0,-17.27294921875,8.30078125,-0.4882812201976776,-0.7030029296875,0.58544921875,0.0029296875
3.949,314,462,1552,330,-5.0,28.0,26.0,-17.27294921875,8.30078125,-0.4882812201976776,-0.79248046875,0.4398193359375,0.1002197265625
3.972,315,571,1615,331,-5.0,28.0,26.0,-25.573728561401367,8.1787109375,-0.9155272841453552,-0.8563232421875,0.23828125,0.1439208984375
3.972,315,713,1664,338,-5.0,28.0,26.0,-25.573728561401367,8.1787109375,-0.9155272841453552,-0.890625,0.0826416015625,0.119384765625
3.984,317,830,1669,342,-5.0,28.0,26.0,-23.803709030151367,8.48388671875,2.624511480331421,-0.890625,0.0826416015625,0.119384765625
3.993,318,1064,1695,348,-5.0,28.0,26.0,-10.192870140075684,14.526366233825684,17.2119140625,-0.9171142578125,0.028076171875,-0.0543212890625
4.002,321,1318,1741,356,-5.0,28.0,26.0,-10.192870140075684,14.526366233825684,17.2119140625,-0.93212890625,0.1314697265625,-0.142578125
4.009,321,1531,1755,356,-5.0,28.0,26.0,0.7934569716453552,17.08984375,26.733396530151367,-0.93212890625,0.1314697265625,-0.142578125
4.034,323,1813,1757,359,-4.0,29.0,17.0,19.95849609375,13.061522483825684,44.372554779052734,-0.96435546875,0.26171875,-0.2135009765625
4.034,321,1864,1766,361,-4.0,29.0,17.0,19.95849609375,13.061522483825684,44.372554779052734,-0.9237060546875,0.20068359375,-0.19580078125
4.039,323,2076,1746,361,-4.0,29.0,17.0,24.291990280151367,8.9111328125,52.368160247802734,-0.9237060546875,0.20068359375,-0.19580078125
4.053,324,2634,1727,363,-4.0,29.0,17.0,22.583005905151367,13.305663108825684,70.068359375,-0.64892578125,0.076904296875,-0.0472412109375
4.072,325,3147,1697,371,-4.0,29.0,17.0,22.583005905151367,13.305663108825684,70.068359375,-0.4228515625,0.10791015625,0.068115234375
4.073,323,3147,1676,897,-4.0,29.0,17.0,9.46044921875,22.827146530151367,75.439453125,-0.4228515625,0.10791015625,0.068115234375
4.090,336,3147,1757,1899,-4.0,29.0,17.0,-6.591796398162842,26.611326217651367,66.83349609375,0.5609130859375,0.1597900390625,0.39794921875
4.091,334,3147,1801,2333,-4.0,29.0,17.0,-6.591796398162842,26.611326217651367,66.83349609375,1.593994140625,-0.16064453125,0.4678955078125
4.099,338,3147,1922,2691,-4.0,29.0,17.0,4.2724609375,13.122557640075684,48.400875091552734,1.593994140625,-0.16064453125,0.4678955078125
4.113,344,3147,2155,3147,-6.0,27.0,21.0,78.2470703125,-48.645015716552734,-19.775390625,1.603271484375,0.7376708984375,-0.1617431640625
4.136,348,3147,2296,3147,-6.0,27.0,21.0,78.2470703125,-48.645015716552734,-19.775390625,-0.35400390625,1.777099609375,-0.966552734375
4.136,359,3147,2538,3147,-6.0,27.0,21.0,110.96190643310547,-99.73143768310547,-71.47216796875,-0.35400390625,1.777099609375,-0.966552734375
4.143,364,632,2837,3147,-6.0,27.0,21.0,-14.160155296325684,-129.7607421875,-115.05126190185547,-4.0,1.520751953125,-0.983642578125
4.153,359,3147,2689,2890,-6.0,27.0,21.0,-14.160155296325684,-129.7607421875,-115.05126190185547,-4.0,0.186279296875,0.19140625
4.159,1580,3147,579,2205,-6.0,27.0,21.0,-97.77831268310547,-113.89159393310547,-71.96044921875,-4.0,0.186279296875,0.19140625
4.174,419,3147,2388,3147,-6.0,27.0,21.0,-0.9155272841453552,-61.157222747802734,-2.38037109375,0.0633544921875,-0.841796875,1.2340087890625
4.181,382,3147,2424,3147,-6.0,27.0,21.0,-0.9155272841453552,-61.157222747802734,-2.38037109375,0.3182373046875,1.3463134765625,0.0936279296875
4.189,361,3147,2461,3147,-6.0,27.0,21.0,116.08885955810547,-21.301267623901367,-5.0048828125,0.3182373046875,1.3463134765625,0.0936279296875
4.203,377,3147,2494,3147,-6.0,27.0,21.0,115.60057830810547,18.61572265625,-22.949216842651367,-2.0037841796875,0.6129150390625,-0.565185546875
4.211,370,3147,2514,3147,-1.0,28.0,24.0,-17.63916015625,26.977537155151367,-41.137691497802734,-2.0037841796875,0.6129150390625,-0.565185546875
4.219,403,3147,2465,3147,-1.0,28.0,24.0,-99.54833221435547,26.062009811401367,-31.738279342651367,-2.4521484375,0.0693359375,-0.156494140625
4.239,359,3147,2461,3147,-1.0,28.0,24.0,-84.16747283935547,26.000974655151367,-6.042479991912842,-1.9010009765625,0.492431640625,0.093505859375
4.248,376,3147,2364,3147,-1.0,28.0,24.0,-60.058589935302734,26.794431686401367,13.671874046325684,-1.9010009765625,0.492431640625,0.093505859375
4.249,361,3147,2316,3147,-1.0,28.0,24.0,-49.072261810302734,32.65380859375,26.916501998901367,-1.6221923828125,0.510009765625,0.111083984375
4.263,363,3147,2170,2662,-1.0,28.0,24.0,-34.60693359375,42.175289154052734,38.14697265625,-1.0975341796875,0.33447265625,-0.0081787109375
4.279,348,3147,2079,2221,-1.0,28.0,24.0,-14.221190452575684,50.109859466552734,45.715328216552734,-1.0975341796875,0.33447265625,-0.0081787109375
4.279,348,3147,2005,1509,-1.0,28.0,24.0,8.36181640625,49.682613372802734,43.518062591552734,-0.5693359375,0.1898193359375,0.0928955078125
4.293,346,3147,1850,399,-1.0,28.0,24.0,25.939939498901367,40.588375091552734,27.587888717651367,0.150146484375,0.193603515625,0.1580810546875
4.305,334,2409,1732,403,-1.0,28.0,24.0,30.639646530151367,27.343748092651367,1.5869139432907104,0.150146484375,0.193603515625,0.1580810546875
4.309,327,1625,1678,371,-4.0,30.0,20.0,22.766111373901367,11.657713890075684,-25.817869186401367,0.0091552734375,0.2437744140625,0.095458984375
4.323,334,660,1627,346,-4.0,30.0,20.0,11.901854515075684,-3.540038824081421,-47.241207122802734,-0.563720703125,0.0416259765625,-0.1187744140625
4.343,323,512,1669,342,-4.0,30.0,20.0,1.5258787870407104,-12.695311546325684,-59.020992279052734,-0.563720703125,0.0416259765625,-0.1187744140625
4.343,316,370,1662,332,-4.0,30.0,20.0,-5.493163585662842,-13.549803733825684,-56.884761810302734,-0.714111328125,-0.2410888671875,-0.0797119140625
4.360,317,312,1470,319,-4.0,30.0,20.0,5.187987804412842,-5.187987804412842,-40.771480560302734,-0.6318359375,0.0802001953125,-0.23583984375
4.361,316,342,1330,323,-4.0,30.0,20.0,23.132322311401367,7.812499523162842,-19.71435546875,-0.6318359375,0.0802001953125,-0.23583984375
4.382,313,334,1206,323,-4.0,30.0,20.0,14.221190452575684,14.038084983825684,-2.929687261581421,-0.69873046875,0.2984619140625,-0.1514892578125
4.383,306,360,1129,327,-4.0,30.0,20.0,-13.122557640075684,13.549803733825684,6.042479991912842,-0.6734619140625,0.26806640625,-0.097412109375
4.391,314,388,1103,322,-4.0,30.0,20.0,-25.695798873901367,13.793944358825684,9.33837890625,-0.6734619140625,0.26806640625,-0.097412109375
4.399,310,352,1156,321,-4.0,30.0,20.0,-22.094724655151367,14.038084983825684,8.85009765625,-0.5618896484375,0.3463134765625,-0.1624755859375
4.413,314,375,1243,321,-4.0,26.0,23.0,-18.49365234375,13.061522483825684,3.662109136581421,-0.5140380859375,0.4620361328125,-0.1400146484375
4.421,315,375,1336,321,-4.0,26.0,23.0,-20.385740280151367,11.962889671325684,-5.432128429412842,-0.5811767578125,0.5625,-0.0174560546875
4.444,314,376,1400,321,-4.0,26.0,23.0,-24.108884811401367,9.94873046875,-12.695311546325684,-0.69189453125,0.564208984375,0.1346435546875
4.444,316,382,1509,323,-4.0,26.0,23.0,-24.902341842651367,6.835937023162842,-13.488768577575684,-0.761474609375,0.456298828125,0.2344970703125
4.451,327,375,1541,324,-4.0,26.0,23.0,-20.690916061401367,4.45556640625,-9.70458984375,-0.774169921875,0.30908203125,0.2498779296875
4.461,324,424,1569,321,-4.0,26.0,23.0,-14.709471702575684,3.967284917831421,-5.310058116912842,-0.75537109375,0.16845703125,0.1982421875
4.480,328,636,1664,334,-4.0,26.0,23.0,-9.58251953125,4.94384765625,-0.54931640625,-0.7421875,0.0401611328125,0.094482421875
4.481,330,923,1697,348,-4.0,26.0,23.0,-2.624511480331421,7.141112804412842,6.469726085662842,-0.761474609375,-0.02734375,-0.0360107421875
4.489,330,1220,1721,361,-4.0,26.0,23.0,10.375975608825684,9.3994140625,16.357421875,-0.8236083984375,0.0244140625,-0.15625
4.503,330,1922,1775,374,-4.0,26.0,23.0,26.672361373901367,9.82666015625,28.442380905151367,-0.91943359375,0.1446533203125,-0.242431640625
4.511,332,2156,1791,378,-5.0,30.0,26.0,37.9638671875,8.23974609375,41.259761810302734,-0.98291015625,0.2218017578125,-0.2874755859375
4.551,331,2361,1811,383,-5.0,30.0,26.0,40.466304779052734,6.225585460662842,52.978511810302734,-0.942138671875,0.2239990234375,-0.262451171875
4.552,333,2988,1845,388,-5.0,30.0,26.0,33.02001953125,7.141112804412842,62.011714935302734,-0.822509765625,0.2138671875,-0.14404296875
4.552,332,3147,1806,548,-5.0,30.0,26.0,16.9677734375,13.183592796325684,67.9931640625,-0.723876953125,0.2132568359375,0.0003662109375
4.553,331,3147,1739,960,-5.0,30.0,26.0,-0.4272460639476776,22.155759811401367,70.98388671875,-0.7122802734375,0.2081298828125,0.0709228515625
4.568,344,3147,1697,1715,-5.0,30.0,26.0,-9.70458984375,28.991697311401367,69.9462890625,-0.636962890625,0.2054443359375,0.047607421875
4.581,334,3147,1761,2286,-5.0,30.0,26.0,-9.46044921875,27.954099655151367,64.0869140625,-0.21533203125,0.1654052734375,0.041748046875
4.593,338,3147,1801,2576,-5.0,30.0,26.0,-2.38037109375,16.2353515625,55.786128997802734,0.5941162109375,-0.041748046875,0.2030029296875
4.593,344,3147,1882,2992,-5.0,30.0,26.0,16.41845703125,-4.8828125,40.649410247802734,1.523193359375,-0.1053466796875,0.44970703125
4.602,347,3147,2117,3147,-5.0,29.0,23.0,48.522945404052734,-33.5693359375,6.347655773162842,1.8323974609375,0.5653076171875,0.4149169921875
4.648,348,3147,2291,3147,-5.0,29.0,23.0,72.265625,-70.73974609375,-53.344722747802734,0.8521728515625,1.458984375,-0.2742919921875
4.655,364,3147,2492,3147,-5.0,29.0,23.0,52.978511810302734,-103.45458221435547,-115.41747283935547,-1.218017578125,1.76025390625,-1.321044921875
4.655,371,3147,2792,2833,-5.0,29.0,23.0,-2.25830078125,-111.32811737060547,-132.38525390625,-3.314208984375,1.4276123046875,-1.6207275390625
4.656,364,3147,2810,3147,-5.0,29.0,23.0,-66.2841796875,-106.87255096435547,-102.35594940185547,-4.0,0.5914306640625,-0.5238037109375
4.656,359,3147,2747,212,-5.0,29.0,23.0,-101.98973846435547,-101.62352752685547,-56.945796966552734,-4.0,-0.7965087890625,0.6412353515625
4.662,361,3147,2578,3147,-5.0,29.0,23.0,-65.91796875,-82.45848846435547,-18.798828125,-2.3702392578125,-1.565185546875,1.1688232421875
4.670,356,3147,2519,3147,-5.0,29.0,23.0,26.550291061401367,-45.837398529052734,-1.9531248807907104,-0.1619873046875,-0.282470703125,0.988037109375
4.681,354,3147,2560,3147,-5.0,29.0,23.0,99.54833221435547,2.685546636581421,-2.990722417831421,-0.1485595703125,1.3875732421875,0.072021484375
4.698,359,3147,2568,3147,-5.0,29.0,23.0,68.9697265625,37.17041015625,-15.258788108825684,-1.2623291015625,1.3204345703125,-0.4366455078125
4.700,371,3147,2541,3147,-3.0,26.0,28.0,-19.775390625,45.227046966552734,-21.362302780151367,-2.1300048828125,0.458251953125,-0.4107666015625
4.708,371,3147,2555,3147,-3.0,26.0,28.0,-58.715816497802734,41.625972747802734,-8.544921875,-2.3565673828125,0.2183837890625,-0.3018798828125
4.722,352,3147,2477,3147,-3.0,26.0,28.0,-53.527828216552734,32.77587890625,9.1552734375,-2.0626220703125,0.3885498046875,-0.1707763671875
4.730,360,3147,2395,3147,-3.0,26.0,28.0,-43.945308685302734,26.489255905151367,19.53125,-1.71484375,0.5325927734375,-0.0247802734375
4.745,354,3147,2349,3147,-3.0,26.0,28.0,-34.48486328125,28.991697311401367,25.939939498901367,-1.5130615234375,0.5555419921875,0.0380859375
4.753,342,3147,2195,2777,-3.0,26.0,28.0,-23.193357467651367,40.0390625,35.15625,-1.35009765625,0.390625,0.047119140625
4.760,345,3147,2100,2526,-3.0,26.0,28.0,-9.94873046875,53.833003997802734,46.691890716552734,-1.0545654296875,0.138427734375,0.128662109375
4.768,338,3147,2008,1931,-3.0,26.0,28.0,-9.94873046875,53.833003997802734,46.691890716552734,-0.5972900390625,0.0181884765625,0.2344970703125
4.791,344,3147,1803,601,-3.0,26.0,28.0,20.385740280151367,55.847164154052734,40.893550872802734,-0.1448974609375,0.1065673828125,0.2259521484375
4.791,334,2636,1713,382,-3.0,26.0,28.0,32.53173828125,40.10009765625,14.099120140075684,0.0628662109375,0.30810546875,0.1170654296875
4.798,330,1709,1610,369,-3.0,26.0,21.0,32.53173828125,40.10009765625,14.099120140075684,-0.0467529296875,0.4368896484375,-0.0389404296875
4.812,321,737,1662,338,-3.0,26.0,21.0,30.456541061401367,-4.57763671875,-52.734371185302734,-0.3121337890625,0.35400390625,-0.1849365234375
4.820,318,364,1662,328,-3.0,26.0,21.0,14.709471702575684,-15.869139671325684,-70.98388671875,-0.5611572265625,0.106201171875,-0.2005615234375
4.828,323,336,1592,321,-3.0,26.0,21.0,14.709471702575684,-15.869139671325684,-70.98388671875,-0.684326171875,-0.064697265625,-0.197265625
4.853,313,345,1386,323,-3.0,26.0,21.0,5.981444835662842,-11.108397483825684,-53.649898529052734,-0.6663818359375,0.0029296875,-0.2586669921875
4.854,315,316,1264,321,-3.0,26.0,21.0,0.6103515625,-4.21142578125,-35.15625,-0.633056640625,0.1314697265625,-0.25
4.858,316,323,1146,323,-3.0,26.0,21.0,0.6103515625,-4.21142578125,-35.15625,-0.6209716796875,0.18603515625,-0.188232421875
4.875,316,333,1116,323,-3.0,26.0,21.0,-26.184080123901367,5.981444835662842,-10.559081077575684,-0.5933837890625,0.25048828125,-0.155029296875
4.894,314,332,1216,323,-3.0,26.0,21.0,-24.841306686401367,10.070799827575684,-0.9765624403953552,-0.57568359375,0.3194580078125,-0.113525390625
4.898,316,306,1189,321,-3.0,26.0,21.0,-24.841306686401367,10.070799827575684,-0.9765624403953552,-0.5799560546875,0.30419921875,-0.03466796875
4.904,316,334,1243,323,-4.0,28.0,24.0,-16.41845703125,6.408690929412842,9.21630859375,-0.6126708984375,0.234130859375,0.0604248046875
4.912,318,323,1294,321,-4.0,28.0,24.0,-10.009765625,4.2724609375,8.1787109375,-0.6669921875,0.2152099609375,0.14697265625
4.923,321,319,1393,321,-4.0,28.0,24.0,-10.009765625,4.2724609375,8.1787109375,-0.7314453125,0.26318359375,0.2042236328125
4.932,324,327,1483,322,-4.0,28.0,24.0,0.6713866591453552,5.249022960662842,8.23974609375,-0.796142578125,0.3162841796875,0.235107421875
4.963,324,336,1501,324,-4.0,28.0,24.0,2.50244140625,6.469726085662842,12.023924827575684,-0.840576171875,0.329345703125,0.2275390625
4.963,323,343,1560,324,-4.0,28.0,24.0,2.50244140625,6.469726085662842,12.023924827575684,-0.8572998046875,0.311279296875,0.16015625
4.964,316,373,1595,324,-4.0,28.0,24.0,4.638671875,9.521484375,18.73779296875,-0.8492431640625,0.287353515625,0.0548095703125
4.972,316,438,1628,321,-4.0,28.0,24.0,4.82177734375,10.803221702575684,20.568845748901367,-0.826171875,0.246337890625,-0.054931640625
4.978,318,444,1693,330,-4.0,28.0,24.0,4.82177734375,10.803221702575684,20.568845748901367,-0.81005859375,0.176513671875,-0.14453125
4.992,319,790,1757,349,-4.0,28.0,24.0,4.638671875,12.145995140075684,25.390623092651367,-0.8094482421875,0.1051025390625,-0.2069091796875
5.000,324,1357,1806,356,-3.0,28.0,26.0,4.638671875,12.145995140075684,25.390623092651367,-0.7958984375,0.0716552734375,-0.248046875
5.009,330,1600,1809,359,-3.0,28.0,26.0,9.8876953125,13.793944358825684,30.944822311401367,-0.7958984375,0.0716552734375,-0.248046875
5.022,332,2541,1835,364,-3.0,28.0,26.0,9.3994140625,22.033689498901367,45.776363372802734,-0.74560546875,0.2109375,-0.145751953125
5.036,332,3048,1775,373,-3.0,28.0,26.0,9.3994140625,22.033689498901367,45.776363372802734,-0.6883544921875,0.267333984375,-0.091552734375
5.038,336,3147,1746,666,-3.0,28.0,26.0,0.54931640625,26.000974655151367,48.583980560302734,-0.6883544921875,0.267333984375,-0.091552734375
5.065,336,3147,1719,1588,-3.0,28.0,26.0,3.417968511581421,19.1650390625,43.701168060302734,-0.3251953125,0.2509765625,0.0155029296875
5.065,346,3147,1747,1971,-3.0,28.0,26.0,3.417968511581421,19.1650390625,43.701168060302734,0.2047119140625,0.24853515625,0.076171875
5.068,347,3147,1852,2445,-3.0,28.0,26.0,19.83642578125,6.530761241912842,34.60693359375,0.2047119140625,0.24853515625,0.076171875
5.082,336,3147,2012,3147,-3.0,28.0,26.0,38.51318359375,-44.982906341552734,-27.221677780151367,1.5328369140625,0.07568359375,0.05322265625
5.093,351,3147,2160,3147,-3.0,28.0,26.0,38.51318359375,-44.982906341552734,-27.221677780151367,1.0128173828125,0.5595703125,-0.2001953125
5.098,391,3147,2320,3147,-2.0,28.0,21.0,38.330078125,-80.26123046875,-65.673828125,1.0128173828125,0.5595703125,-0.2001953125
5.112,390,3147,2621,3147,-2.0,28.0,21.0,31.127927780151367,-124.81688690185547,-100.89110565185547,-2.65087890625,2.024658203125,-1.080322265625
5.120,387,3147,2807,3147,-2.0,28.0,21.0,31.127927780151367,-124.81688690185547,-100.89110565185547,-3.84814453125,1.3526611328125,-0.5250244140625
5.128,387,3147,2879,2484,-2.0,28.0,21.0,-27.893064498901367,-122.37548065185547,-94.54344940185547,-3.84814453125,1.3526611328125,-0.5250244140625
5.165,363,3147,2760,3147,-2.0,28.0,21.0,-82.39745330810547,-88.98925018310547,-66.2841796875,-3.5755615234375,-1.376708984375,1.00048828125
5.166,360,3147,2647,3147,-2.0,28.0,21.0,-82.39745330810547,-88.98925018310547,-66.2841796875,-1.9058837890625,-1.1405029296875,0.804443359375
5.166,359,3147,2581,3147,-2.0,28.0,21.0,-4.8828125,-46.081539154052734,-39.12353515625,-1.9058837890625,-1.1405029296875,0.804443359375
5.172,371,3147,2578,3147,-2.0,28.0,21.0,56.274410247802734,39.36767578125,6.713866710662842,-0.8177490234375,0.9072265625,0.064208984375
5.180,361,3147,2599,3147,-2.0,28.0,21.0,56.274410247802734,39.36767578125,6.713866710662842,-1.735595703125,0.7816162109375,-0.25
5.193,371,3147,2601,3147,-2.0,28.0,21.0,2.197265625,65.0634765625,20.141599655151367,-1.735595703125,0.7816162109375,-0.25
5.207,371,3147,2552,3147,0.0,27.0,24.0,-67.44384765625,68.54248046875,45.593257904052734,-2.1839599609375,0.4195556640625,-0.3133544921875
5.210,364,3147,2507,3147,0.0,27.0,24.0,-67.44384765625,68.54248046875,45.593257904052734,-2.1839599609375,0.4195556640625,-0.3133544921875
5.218,363,3147,2432,3147,0.0,27.0,24.0,-60.729976654052734,59.875484466552734,52.856441497802734,-1.845458984375,0.5506591796875,-0.2088623046875
5.232,346,3147,2296,3070,0.0,27.0,24.0,-47.119136810302734,51.452632904052734,51.086421966552734,-1.2659912109375,0.5985107421875,-0.0657958984375
5.240,354,3147,2217,3147,0.0,27.0,24.0,-25.146482467651367,44.677730560302734,46.325679779052734,-1.2659912109375,0.5985107421875,-0.0657958984375
5.269,351,3147,2139,2913,0.0,27.0,24.0,3.906249761581421,38.57421875,40.893550872802734,-0.873779296875,0.5025634765625,-0.0107421875
5.269,360,3147,2047,2247,0.0,27.0,24.0,27.343748092651367,32.1044921875,30.944822311401367,-0.185546875,0.401123046875,0.0401611328125
5.270,347,3147,2000,1662,0.0,27.0,24.0,35.94970703125,24.902341842651367,11.413573265075684,-0.185546875,0.401123046875,0.0401611328125
5.280,347,3147,1931,998,0.0,27.0,24.0,30.090330123901367,14.770506858825684,-16.54052734375,-0.15234375,0.3494873046875,-0.0064697265625
5.304,332,2382,1821,376,-3.0,28.0,28.0,17.15087890625,1.7089842557907104,-43.029781341552734,-0.557373046875,0.03173828125,-0.113525390625
5.304,327,1419,1580,365,-3.0,28.0,28.0,8.85009765625,-7.934569835662842,-56.030269622802734,-0.557373046875,0.03173828125,-0.113525390625
5.308,331,601,1616,344,-3.0,28.0,28.0,6.774901866912842,-11.352538108825684,-54.443355560302734,-0.71435546875,-0.0748291015625,-0.1414794921875
5.322,318,470,1662,331,-3.0,28.0,28.0,2.13623046875,-11.962889671325684,-46.447750091552734,-0.676513671875,-0.3499755859375,-0.073974609375
5.330,324,371,1610,328,-3.0,28.0,28.0,1.220703125,-10.131834983825684,-35.82763671875,-0.676513671875,-0.3499755859375,-0.073974609375
5.338,322,348,1543,324,-3.0,28.0,28.0,12.329100608825684,-2.0751953125,-21.667478561401367,-0.6285400390625,-0.1024169921875,-0.1746826171875
5.375,318,330,1366,323,-3.0,28.0,28.0,12.512206077575684,5.554198741912842,-7.019042491912842,-0.6285400390625,0.1328125,-0.022705078125
5.377,316,328,1340,323,-3.0,28.0,28.0,-9.27734375,5.920409679412842,0.4882812201976776,-0.6285400390625,0.1328125,-0.022705078125
5.378,315,310,1254,328,-3.0,28.0,28.0,-24.536130905151367,6.530761241912842,1.8310545682907104,-0.587890625,0.0565185546875,0.0152587890625
5.383,313,322,1292,323,-3.0,28.0,28.0,-18.310546875,11.657713890075684,3.784179449081421,-0.5469970703125,0.4183349609375,-0.013671875
5.390,316,321,1348,323,-3.0,29.0,26.0,-5.310058116912842,16.66259765625,5.676269054412842,-0.5469970703125,0.4183349609375,-0.013671875
5.405,315,338,1429,321,-3.0,29.0,26.0,1.6479490995407104,17.578125,5.371093273162842,-0.6121826171875,0.5924072265625,0.0517578125
5.412,324,346,1519,324,-3.0,29.0,26.0,2.01416015625,14.770506858825684,5.065917491912842,-0.770751953125,0.5045166015625,0.193603515625
5.420,328,391,1577,327,-3.0,29.0,26.0,0.6103515625,9.8876953125,5.920409679412842,-0.770751953125,0.5045166015625,0.193603515625
5.428,328,495,1635,332,-3.0,29.0,26.0,1.3427733182907104,5.554198741912842,6.042479991912842,-0.81396484375,0.3087158203125,0.1478271484375
5.442,331,835,1709,344,-3.0,29.0,26.0,4.69970703125,4.08935546875,5.554198741912842,-0.8455810546875,0.1529541015625,0.0455322265625
5.451,330,1050,1718,347,-3.0,29.0,26.0,8.7890625,4.94384765625,7.141112804412842,-0.8780517578125,0.09765625,-0.0714111328125
5.491,328,1156,1757,351,-3.0,29.0,26.0,13.732909202575684,6.591796398162842,12.634276390075684,-0.919921875,0.1365966796875,-0.158203125
5.491,331,1713,1791,361,-3.0,29.0,26.0,19.59228515625,7.812499523162842,21.545408248901367,-0.9759521484375,0.20166015625,-0.1932373046875
5.504,330,1727,1790,359,-3.0,29.0,26.0,23.254392623901367,8.85009765625,32.16552734375,-1.024658203125,0.21630859375,-0.193603515625
5.510,330,1943,1739,362,-4.0,26.0,23.0,22.399900436401367,10.681151390075684,43.212886810302734,-1.0145263671875,0.173583984375,-0.1739501953125
5.510,332,2388,1798,364,-4.0,26.0,23.0,17.08984375,13.977049827575684,54.199214935302734,-0.9312744140625,0.118896484375,-0.122314453125
5.511,330,2689,1801,337,-4.0,26.0,23.0,8.48388671875,19.53125,63.720699310302734,-0.8482666015625,0.1400146484375,-0.03515625
5.519,332,2928,1761,371,-4.0,26.0,23.0,-0.30517578125,27.343748092651367,70.37353515625,-0.8314208984375,0.2408447265625,0.0247802734375
5.533,332,3147,1709,644,-4.0,26.0,23.0,-7.080077648162842,34.66796875,73.66943359375,-0.640625,0.2138671875,0.0084228515625
5.541,333,3147,1704,1143,-4.0,26.0,23.0,-11.901854515075684,37.7197265625,73.8525390625,-0.640625,0.2138671875,0.0084228515625
5.549,359,3147,1783,1729,-4.0,26.0,23.0,-10.375975608825684,33.935546875,71.4111328125,-0.125244140625,0.1031494140625,0.1339111328125
5.588,347,3147,1840,2370,-4.0,26.0,23.0,2.3193359375,23.315427780151367,64.63623046875,0.8470458984375,-0.0888671875,0.3502197265625
5.589,348,3147,1908,2853,-4.0,26.0,23.0,25.878904342651367,9.033203125,45.288082122802734,2.0262451171875,-0.2037353515625,0.4522705078125
5.590,347,3147,1996,3147,-4.0,26.0,23.0,58.044429779052734,-11.291502952575684,2.685546636581421,2.4334716796875,0.3824462890625,0.182861328125
5.608,387,3147,2370,3147,-4.0,29.0,24.0,82.09227752685547,-54.077144622802734,-62.194820404052734,1.298095703125,1.280517578125,-0.5194091796875
5.608,400,3147,2608,513,-4.0,29.0,24.0,65.73486328125,-111.93846893310547,-129.33349609375,-1.07666015625,1.628173828125,-1.3665771484375
5.610,378,3147,2890,2636,-4.0,29.0,24.0,13.732909202575684,-143.00537109375,-153.99169921875,-3.403076171875,1.614501953125,-1.6622314453125
5.618,373,3147,2890,3147,-4.0,29.0,24.0,-54.626461029052734,-141.7236328125,-125.54930877685547,-4.0,1.2613525390625,-0.6048583984375
5.635,360,3147,2662,3147,-4.0,29.0,24.0,-111.81639862060547,-125.48827362060547,-75.1953125,-4.0,-0.2255859375,0.6488037109375
5.641,363,3147,2490,3147,-4.0,29.0,24.0,-96.86278533935547,-95.64208221435547,-37.59765625,-2.2874755859375,-1.729248046875,1.3697509765625
5.648,361,3147,2487,3147,-4.0,29.0,24.0,7.385253429412842,-52.856441497802734,-17.4560546875,0.065185546875,-0.8758544921875,1.28125
5.672,355,3147,2516,3147,-4.0,29.0,24.0,116.51610565185547,5.554198741912842,1.7700194120407104,-0.0408935546875,1.064697265625,0.1407470703125
5.673,365,3147,2519,3147,-4.0,29.0,24.0,94.23827362060547,50.170894622802734,8.7890625,-1.2867431640625,1.225830078125,-0.516357421875
5.678,354,3147,2516,3147,-4.0,29.0,24.0,-26.245115280151367,63.842769622802734,13.488768577575684,-2.17041015625,0.237060546875,-0.4019775390625
5.692,351,3147,2491,3147,-2.0,28.0,22.0,-87.15819549560547,67.81005859375,34.60693359375,-2.3729248046875,0.0399169921875,-0.220703125
5.705,354,3147,2465,3147,-2.0,28.0,22.0,-76.5380859375,66.83349609375,55.847164154052734,-2.0599365234375,0.4735107421875,-0.1729736328125
5.708,348,3147,2398,3147,-2.0,28.0,22.0,-59.387203216552734,60.302730560302734,60.119625091552734,-1.6966552734375,0.83056640625,-0.1988525390625
5.722,346,3147,2225,3147,-2.0,28.0,22.0,-43.701168060302734,48.217769622802734,49.255367279052734,-1.4853515625,0.95263671875,-0.3037109375
5.730,349,3147,2127,3126,-2.0,28.0,22.0,-23.193357467651367,33.935546875,33.50830078125,-1.30517578125,0.7991943359375,-0.37060546875
5.738,346,3147,2050,2587,-2.0,28.0,22.0,-4.0283203125,22.644041061401367,21.789548873901367,-0.9752197265625,0.500732421875,-0.210205078125
5.752,347,3147,1904,1904,-2.0,28.0,22.0,13.061522483825684,14.221190452575684,13.671874046325684,-0.497802734375,0.2318115234375,0.062255859375
5.784,352,3147,1828,1009,-2.0,28.0,22.0,26.245115280151367,7.629394054412842,3.845214605331421,-0.032470703125,0.0638427734375,0.224853515625
5.785,330,2422,1838,430,-2.0,28.0,22.0,29.235837936401367,0.0,-10.925292015075684,0.177490234375,0.043701171875,0.259521484375
5.785,328,1957,1722,364,-4.0,27.0,26.0,23.803709030151367,-10.803221702575684,-28.503416061401367,0.01953125,0.124267578125,0.1689453125
5.794,328,1209,1598,347,-4.0,27.0,26.0,15.197752952575684,-19.71435546875,-42.602535247802734,-0.3001708984375,0.156982421875,-0.0167236328125
5.798,336,774,1605,336,-4.0,27.0,26.0,3.173827886581421,-22.033689498901367,-49.682613372802734,-0.549560546875,0.0865478515625,-0.118896484375
5.814,330,642,1705,336,-4.0,27.0,26.0,-10.375975608825684,-19.47021484375,-47.607418060302734,-0.683837890625,-0.0941162109375,-0.072509765625
5.825,323,562,1666,330,-4.0,27.0,26.0,-11.169432640075684,-11.169432640075684,-36.07177734375,-0.6988525390625,-0.2232666015625,-0.07861328125
5.828,324,447,1613,328,-4.0,27.0,26.0,2.13623046875,2.38037109375,-19.71435546875,-0.6737060546875,-0.0389404296875,-0.1162109375
5.842,330,369,1531,324,-4.0,27.0,26.0,2.3193359375,11.535643577575684,-4.94384765625,-0.720947265625,0.1600341796875,-0.034912109375
5.850,318,348,1428,323,-4.0,27.0,26.0,-15.136717796325684,13.610838890075684,6.103515148162842,-0.793212890625,0.1431884765625,0.0560302734375
5.858,330,428,1362,333,-4.0,27.0,26.0,-24.291990280151367,15.991209983825684,15.075682640075684,-0.8121337890625,0.1766357421875,0.0400390625
5.877,315,369,1266,322,-4.0,27.0,26.0,-20.01953125,18.61572265625,21.057126998901367,-0.7723388671875,0.318603515625,-0.0458984375
5.880,323,359,1237,321,-4.0,26.0,22.0,-16.11328125,18.00537109375,20.751951217651367,-0.709228515625,0.4393310546875,-0.1043701171875
5.888,313,371,1260,324,-4.0,26.0,22.0,-17.51708984375,16.11328125,14.099120140075684,-0.6820068359375,0.531494140625,-0.0845947265625
5.921,336,438,1336,323,-4.0,26.0,22.0,-20.690916061401367,15.319823265075684,5.615233898162842,-0.7034912109375,0.5958251953125,-0.0089111328125
5.921,327,468,1393,323,-4.0,26.0,22.0,-22.033689498901367,14.404295921325684,0.8544921278953552,-0.7294921875,0.56689453125,0.073974609375
5.923,319,490,1455,330,-4.0,26.0,22.0,-22.033689498901367,14.404295921325684,0.8544921278953552,-0.731689453125,0.42431640625,0.1265869140625
5.937,324,648,1506,334,-4.0,26.0,22.0,-14.160155296325684,11.474608421325684,5.798339366912842,-0.721923828125,0.235595703125,0.1180419921875
5.940,324,939,1580,344,-4.0,26.0,22.0,-8.4228515625,12.573241233825684,10.986327171325684,-0.7236328125,0.0947265625,0.0511474609375
5.948,324,1125,1608,346,-4.0,26.0,22.0,-8.4228515625,12.573241233825684,10.986327171325684,-0.7606201171875,0.0384521484375,-0.0379638671875
5.962,327,1861,1643,360,-4.0,26.0,22.0,-0.7934569716453552,20.935056686401367,25.512693405151367,-0.843505859375,0.066162109375,-0.1134033203125
5.979,327,2143,1655,361,-4.0,26.0,22.0,2.44140625,24.780271530151367,36.19384765625,-0.9520263671875,0.14794921875,-0.163818359375
5.979,328,2162,1655,361,-3.0,30.0,19.0,2.44140625,24.780271530151367,36.19384765625,-1.028564453125,0.188232421875,-0.192138671875
5.992,328,2803,1665,364,-3.0,30.0,19.0,9.33837890625,26.611326217651367,61.096187591552734,-0.98193359375,0.08837890625,-0.184814453125
6.014,332,3147,1595,388,-3.0,30.0,19.0,13.427733421325684,25.817869186401367,75.25634765625,-0.7926025390625,-0.0633544921875,-0.0999755859375
6.016,332,3147,1541,853,-3.0,30.0,19.0,13.427733421325684,25.817869186401367,75.25634765625,-0.5413818359375,-0.0406494140625,0.0352783203125
6.022,328,3147,1678,1843,-3.0,30.0,19.0,14.465331077575684,34.48486328125,94.90966033935547,-0.162841796875,0.1241455078125,0.2269287109375
6.030,347,3147,1683,2233,-3.0,30.0,19.0,14.282225608825684,31.494138717651367,85.38817596435547,0.708251953125,0.17431640625,0.506591796875
6.038,346,3147,1762,2713,-3.0,30.0,19.0,14.282225608825684,31.494138717651367,85.38817596435547,1.983154296875,0.0360107421875,0.52294921875
6.052,338,3147,1973,3147,-3.0,30.0,19.0,45.654293060302734,-18.24951171875,-1.03759765625,2.495361328125,0.2261962890625,0.0916748046875
6.060,347,3147,2197,3147,-3.0,30.0,19.0,94.78759002685547,-72.021484375,-63.354488372802734,1.3856201171875,0.98779296875,-0.6280517578125
6.083,376,3147,2392,3147,-3.0,30.0,19.0,94.78759002685547,-72.021484375,-63.354488372802734,-0.9515380859375,1.8043212890625,-1.3770751953125
6.084,401,3147,2770,3147,-6.0,25.0,19.0,80.68846893310547,-149.90234375,-133.7890625,-3.2799072265625,2.088623046875,-1.5181884765625
6.090,383,3147,2808,3147,-6.0,25.0,19.0,-19.71435546875,-136.71875,-111.63329315185547,-4.0,1.595458984375,-0.403564453125
6.099,361,3147,2722,1949,-6.0,25.0,19.0,-19.71435546875,-136.71875,-111.63329315185547,-4.0,-0.2841796875,0.70849609375
6.122,351,3147,2467,3147,-6.0,25.0,19.0,-104.43114471435547,-77.0263671875,-37.9638671875,-2.0213623046875,-1.6934814453125,1.1881103515625
6.122,348,3147,2427,3147,-6.0,25.0,19.0,21.850584030151367,-47.729488372802734,-23.864744186401367,0.330078125,-0.2593994140625,0.781494140625
6.128,347,3147,2398,3147,-6.0,25.0,19.0,21.850584030151367,-47.729488372802734,-23.864744186401367,0.330078125,-0.2593994140625,0.781494140625
6.142,346,3147,2465,3147,-6.0,25.0,19.0,103.45458221435547,1.8920897245407104,-39.1845703125,-1.2730712890625,1.4879150390625,-0.8077392578125
6.150,354,3147,2471,3147,-6.0,25.0,19.0,103.45458221435547,1.8920897245407104,-39.1845703125,-2.1024169921875,0.31201171875,-0.376708984375
6.162,310,3147,2514,3147,-6.0,25.0,19.0,-23.559568405151367,-4.33349609375,-51.696773529052734,-2.1024169921875,0.31201171875,-0.376708984375
6.184,348,3147,2443,3147,-3.0,25.0,22.0,-60.668941497802734,2.50244140625,-12.084959983825684,-2.0111083984375,0.2218017578125,0.1048583984375
6.184,354,3147,2415,3147,-3.0,25.0,22.0,-60.668941497802734,2.50244140625,-12.084959983825684,-1.7169189453125,0.3360595703125,0.2283935546875
6.188,359,3147,2343,3147,-3.0,25.0,22.0,-51.391597747802734,13.671874046325684,13.183592796325684,-1.7169189453125,0.3360595703125,0.2283935546875
6.202,348,3147,2167,3147,-3.0,25.0,22.0,-41.992183685302734,43.518062591552734,50.537105560302734,-1.4534912109375,0.2882080078125,0.1500244140625
6.228,344,3147,2117,3147,-3.0,25.0,22.0,-41.992183685302734,43.518062591552734,50.537105560302734,-1.173828125,0.2783203125,0.0364990234375
6.228,338,3147,2032,2760,-3.0,25.0,22.0,-22.583005905151367,56.945796966552734,62.499996185302734,-1.173828125,0.2783203125,0.0364990234375
6.232,337,3147,1869,1271,-3.0,25.0,22.0,13.305663108825684,52.978511810302734,43.518062591552734,-0.293701171875,0.3299560546875,-0.00732421875
6.240,330,3147,1838,905,-3.0,25.0,22.0,13.305663108825684,52.978511810302734,43.518062591552734,-0.057373046875,0.382080078125,-0.0550537109375
6.249,332,2965,1748,382,-3.0,25.0,22.0,17.7001953125,35.7666015625,12.573241233825684,-0.057373046875,0.382080078125,-0.0550537109375
6.262,323,1012,1575,355,-3.0,25.0,22.0,0.9155272841453552,-9.70458984375,-50.170894622802734,-0.2196044921875,0.1815185546875,-0.1326904296875
6.287,323,735,1557,338,-4.0,27.0,24.0,0.9155272841453552,-9.70458984375,-50.170894622802734,-0.4451904296875,0.0035400390625,-0.1136474609375
6.287,313,437,1595,330,-4.0,27.0,24.0,-6.225585460662842,-21.484373092651367,-63.110347747802734,-0.4451904296875,0.0035400390625,-0.1136474609375
6.292,310,324,1476,324,-4.0,27.0,24.0,1.6479490995407104,-17.2119140625,-45.410152435302734,-0.6259765625,-0.1309814453125,-0.1077880859375
6.300,310,310,1399,328,-4.0,27.0,24.0,1.6479490995407104,-17.2119140625,-45.410152435302734,-0.6109619140625,0.191650390625,-0.1719970703125
6.308,310,313,1294,323,-4.0,27.0,24.0,12.817381858825684,-5.493163585662842,-25.695798873901367,-0.6109619140625,0.191650390625,-0.1719970703125
6.335,313,323,1209,324,-4.0,27.0,24.0,-21.362302780151367,1.15966796875,-5.249022960662842,-0.6666259765625,0.296630859375,-0.013916015625
6.336,312,318,1189,323,-4.0,27.0,24.0,-21.362302780151367,1.15966796875,-5.249022960662842,-0.637939453125,0.2469482421875,-0.021484375
6.338,310,318,1188,323,-4.0,27.0,24.0,-28.869626998901367,1.15966796875,-2.990722417831421,-0.637939453125,0.2469482421875,-0.021484375
6.352,312,318,1275,321,-4.0,27.0,24.0,-21.911619186401367,2.25830078125,0.30517578125,-0.5860595703125,0.3304443359375,-0.0068359375
6.360,310,353,1315,323,-4.0,27.0,24.0,-17.39501953125,3.845214605331421,2.990722417831421,-0.5860595703125,0.3304443359375,-0.0068359375
6.368,315,372,1373,324,-8.0,28.0,24.0,-20.996091842651367,6.225585460662842,2.197265625,-0.640380859375,0.3502197265625,0.085205078125
6.392,313,375,1452,324,-8.0,28.0,24.0,-26.916501998901367,8.85009765625,0.1831054538488388,-0.802734375,0.255859375,0.25830078125
6.392,315,400,1488,325,-8.0,28.0,24.0,-27.221677780151367,11.169432640075684,1.3427733182907104,-0.802734375,0.255859375,0.25830078125
6.398,314,430,1518,327,-8.0,28.0,24.0,-20.629880905151367,12.878417015075684,5.371093273162842,-0.8406982421875,0.23828125,0.24560546875
6.412,316,414,1583,325,-8.0,28.0,24.0,-11.657713890075684,13.000487327575684,8.36181640625,-0.8564453125,0.237060546875,0.036865234375
6.426,315,437,1623,327,-8.0,28.0,24.0,-3.479003667831421,11.230467796325684,9.1552734375,-0.8564453125,0.237060546875,0.036865234375
6.437,317,536,1656,334,-8.0,28.0,24.0,4.8828125,8.9111328125,10.559081077575684,-0.8538818359375,0.2020263671875,-0.074951171875
6.442,321,834,1715,342,-8.0,28.0,24.0,13.732909202575684,7.019042491912842,14.587401390075684,-0.8731689453125,0.10009765625,-0.19140625
6.452,319,1051,1743,351,-8.0,28.0,24.0,20.812986373901367,6.469726085662842,21.545408248901367,-0.8731689453125,0.10009765625,-0.19140625
6.458,323,1533,1761,353,-8.0,28.0,24.0,24.719236373901367,8.11767578125,31.494138717651367,-0.9150390625,0.0999755859375,-0.19482421875
6.472,321,1819,1762,356,-5.0,28.0,25.0,24.780271530151367,11.413573265075684,44.433589935302734,-0.8665771484375,0.059814453125,-0.130859375
6.492,323,2345,1800,363,-5.0,28.0,25.0,19.04296875,15.869139671325684,58.837886810302734,-0.8665771484375,0.059814453125,-0.130859375
6.492,323,3147,1801,365,-5.0,28.0,25.0,5.981444835662842,22.888181686401367,72.08251953125,-0.728759765625,0.0478515625,-0.0101318359375
6.502,324,3147,1697,1211,-5.0,28.0,25.0,-8.7890625,32.04345703125,81.17675018310547,-0.342041015625,0.1392822265625,0.1923828125
6.510,327,3147,1652,1785,-5.0,28.0,25.0,-11.596678733825684,35.21728515625,84.10643768310547,-0.342041015625,0.1392822265625,0.1923828125
6.526,328,3147,1683,2472,-5.0,28.0,25.0,0.7934569716453552,26.672361373901367,78.9794921875,0.2479248046875,-0.030029296875,0.26171875
6.532,332,3147,1874,3147,-5.0,28.0,25.0,20.202634811401367,9.6435546875,64.39208984375,2.032470703125,0.1083984375,0.147216796875
6.541,332,3147,2012,3147,-5.0,28.0,25.0,51.818843841552734,-14.892577171325684,36.2548828125,2.032470703125,0.1083984375,0.147216796875
6.548,336,3147,2226,3147,-5.0,28.0,25.0,99.67040252685547,-56.884761810302734,-13.610838890075684,1.6153564453125,0.9945068359375,-0.3431396484375
6.562,345,3147,2599,3063,-2.0,29.0,22.0,123.35204315185547,-111.93846893310547,-82.27538299560547,-0.08447265625,1.8043212890625,-1.0213623046875
6.570,306,3147,2851,1333,-2.0,29.0,22.0,80.68846893310547,-144.287109375,-134.82666015625,-2.314697265625,2.1917724609375,-1.4599609375
6.594,364,3147,2932,3147,-2.0,29.0,22.0,-15.991209983825684,-143.6767578125,-139.22119140625,-3.9464111328125,1.642822265625,-0.8076171875
6.594,352,3147,2703,2489,-2.0,29.0,22.0,-113.89159393310547,-135.07080078125,-113.09813690185547,-4.0,0.061279296875,0.6627197265625
6.600,352,3147,2517,3121,-2.0,29.0,22.0,-117.79784393310547,-110.90087127685547,-76.59912109375,-3.431396484375,-1.74609375,1.3134765625
6.613,348,3147,2481,3147,-2.0,29.0,22.0,-9.58251953125,-68.7255859375,-43.090816497802734,-1.0640869140625,-1.612548828125,1.07275390625
6.627,346,3147,2484,3147,-2.0,29.0,22.0,112.36571502685547,-19.83642578125,-22.277830123901367,0.1348876953125,0.5203857421875,0.3729248046875
6.630,346,3147,2467,3147,-2.0,29.0,22.0,123.71825408935547,23.803709030151367,-15.075682640075684,-0.5823974609375,1.3663330078125,-0.2620849609375
6.638,346,3147,2481,3147,-2.0,29.0,22.0,21.057126998901367,43.823238372802734,-16.11328125,-1.5950927734375,0.5738525390625,-0.2021484375
6.652,346,3147,2479,3147,-2.0,29.0,22.0,-59.143062591552734,51.818843841552734,-3.051757574081421,-2.1810302734375,-0.0018310546875,-0.0594482421875
6.660,344,3147,2460,3147,-3.0,26.0,23.0,-73.05908203125,57.556148529052734,23.742673873901367,-2.1905517578125,0.0877685546875,-0.017578125
6.668,349,3147,2424,3147,-3.0,26.0,23.0,-68.42041015625,61.279293060302734,47.668453216552734,-1.94140625,0.341064453125,0.01416015625
6.697,343,3147,2296,3147,-3.0,26.0,23.0,-61.584468841552734,65.00244140625,60.546871185302734,-1.7159423828125,0.6207275390625,0.0
6.697,343,3147,2207,3147,-3.0,26.0,23.0,-50.415035247802734,65.7958984375,59.936519622802734,-1.5452880859375,0.7794189453125,-0.1075439453125
6.698,334,3147,2131,3147,-3.0,26.0,23.0,-35.21728515625,63.720699310302734,49.865718841552734,-1.2979736328125,0.721435546875,-0.2286376953125
6.714,338,3147,2005,2805,-3.0,26.0,23.0,-17.15087890625,59.143062591552734,36.376953125,-0.90478515625,0.524658203125,-0.175048828125
6.732,334,3147,1952,2076,-3.0,26.0,23.0,0.4882812201976776,50.048824310302734,21.728513717651367,-0.46826171875,0.355224609375,-0.0289306640625
6.733,331,3147,1869,1627,-3.0,26.0,23.0,12.817381858825684,36.80419921875,5.432128429412842,-0.147216796875,0.25,0.0673828125
6.742,328,3147,1796,382,-3.0,26.0,23.0,15.319823265075684,19.59228515625,-13.122557640075684,-0.06591796875,0.14501953125,0.0872802734375
6.752,325,1978,1650,375,-3.0,26.0,23.0,12.878417015075684,0.1220703050494194,-31.555173873901367,-0.227783203125,0.0712890625,-0.0032958984375
6.758,321,1042,1531,359,-4.0,26.0,26.0,13.488768577575684,-15.441893577575684,-45.288082122802734,-0.4713134765625,0.0205078125,-0.1290283203125
6.772,315,493,1580,336,-4.0,26.0,26.0,13.916014671325684,-23.437498092651367,-52.368160247802734,-0.669921875,-0.10888671875,-0.11767578125
6.780,313,325,1546,325,-4.0,26.0,26.0,16.41845703125,-23.925779342651367,-51.452632904052734,-0.69873046875,-0.2911376953125,-0.0850830078125
6.799,308,359,1439,326,-4.0,26.0,26.0,33.14208984375,-15.380858421325684,-43.212886810302734,-0.6363525390625,-0.121826171875,-0.1732177734375
6.802,308,382,1223,324,-4.0,26.0,26.0,43.518062591552734,-5.065917491912842,-31.494138717651367,-0.649658203125,0.2735595703125,-0.1800537109375
6.810,308,348,1148,322,-4.0,26.0,26.0,22.277830123901367,-2.685546636581421,-22.644041061401367,-0.666748046875,0.33251953125,-0.05419921875
6.842,308,332,1104,323,-4.0,26.0,26.0,-4.8828125,-1.5258787870407104,-16.90673828125,-0.646728515625,0.212890625,0.01806640625
6.843,308,330,1074,324,-4.0,26.0,26.0,-11.840819358825684,5.859374523162842,-7.690429210662842,-0.6416015625,0.21484375,-0.0062255859375
6.843,306,360,1083,323,-4.0,26.0,26.0,-8.85009765625,15.136717796325684,4.94384765625,-0.65478515625,0.3265380859375,-0.0286865234375
6.848,308,356,1132,323,-4.0,26.0,26.0,-8.72802734375,20.263669967651367,13.427733421325684,-0.6536865234375,0.4437255859375,-0.0072021484375
6.862,310,351,1224,323,-3.0,27.0,21.0,-16.29638671875,20.568845748901367,12.756346702575684,-0.6539306640625,0.5018310546875,0.0780029296875
6.870,308,356,1289,324,-3.0,27.0,21.0,-32.53173828125,18.98193359375,5.676269054412842,-0.691162109375,0.5115966796875,0.203369140625
6.878,312,348,1335,318,-3.0,27.0,21.0,-45.959468841552734,16.7236328125,-0.9765624403953552,-0.7408447265625,0.4669189453125,0.2762451171875
6.904,310,354,1370,323,-3.0,27.0,21.0,-45.349117279052734,13.977049827575684,-1.8920897245407104,-0.7537841796875,0.3536376953125,0.2552490234375
6.904,310,361,1390,324,-3.0,27.0,21.0,-34.24072265625,12.451170921325684,2.990722417831421,-0.742919921875,0.23486328125,0.1688232421875
6.920,310,385,1422,325,-3.0,27.0,21.0,-21.911619186401367,13.366698265075684,10.742186546325684,-0.734619140625,0.15087890625,0.0523681640625
6.924,313,519,1549,328,-3.0,27.0,21.0,-14.099120140075684,15.686034202575684,19.83642578125,-0.7379150390625,0.08056640625,-0.0521240234375
6.951,316,642,1572,334,-3.0,27.0,21.0,-11.108397483825684,18.85986328125,30.395505905151367,-0.76025390625,0.0169677734375,-0.1156005859375
6.952,318,1014,1588,338,-3.0,27.0,21.0,-8.9111328125,22.460935592651367,41.381832122802734,-0.810546875,-0.0211181640625,-0.154541015625
6.953,319,1702,1666,354,-2.0,28.0,24.0,-2.990722417831421,25.512693405151367,50.415035247802734,-0.8956298828125,0.0045166015625,-0.192138671875
6.963,322,2407,1745,361,-2.0,28.0,24.0,6.958007335662842,26.000974655151367,56.823726654052734,-0.9744873046875,0.082763671875,-0.259521484375
6.971,324,2853,1761,364,-2.0,28.0,24.0,17.02880859375,22.705076217651367,61.767574310302734,-0.956787109375,0.163818359375,-0.3062744140625
6.993,324,3147,1850,815,-2.0,28.0,24.0,19.10400390625,17.4560546875,64.39208984375,-0.7786865234375,0.25830078125,-0.2320556640625
7.081,326,3147,1843,1336,-2.0,28.0,24.0,11.169432640075684,12.268065452575684,62.255855560302734,-0.4483642578125,0.3297119140625,-0.0523681640625
7.081,328,3147,1711,1762,-2.0,28.0,24.0,6.347655773162842,4.2724609375,56.945796966552734,0.0089111328125,0.204833984375,0.20263671875
7.082,327,3147,1792,2842,-2.0,28.0,24.0,17.333984375,-7.934569835662842,47.546382904052734,0.641845703125,-0.0506591796875,0.3382568359375
7.082,330,3147,1941,2921,-2.0,28.0,24.0,41.625972747802734,-21.179197311401367,28.808591842651367,1.3033447265625,-0.0003662109375,0.172119140625
7.082,332,3147,2062,3147,-2.0,28.0,24.0,66.0400390625,-42.724605560302734,-5.920409679412842,1.5167236328125,0.6009521484375,-0.1456298828125
7.083,338,3147,2419,3147,-2.0,28.0,24.0,65.85693359375,-79.345703125,-60.913082122802734,0.7933349609375,1.2288818359375,-0.4822998046875
7.083,334,3147,2612,3147,-9.0,26.0,25.0,28.991697311401367,-113.70848846435547,-118.53026580810547,-0.9429931640625,1.47900390625,-0.8170166015625
7.084,348,3147,2864,3147,-9.0,26.0,25.0,-23.620603561401367,-127.19725799560547,-142.333984375,-2.928955078125,1.396728515625,-0.96044921875
7.084,359,3147,3025,3147,-9.0,26.0,25.0,-76.96533203125,-125.97655487060547,-128.173828125,-4.0,0.6680908203125,-0.300537109375
7.085,361,3147,2810,3147,-9.0,26.0,25.0,-102.96630096435547,-119.01854705810547,-96.31346893310547,-4.0,-0.3753662109375,0.6256103515625
7.089,352,3147,2763,3147,-9.0,26.0,25.0,-64.5751953125,-95.03173065185547,-62.072750091552734,-2.833740234375,-1.42822265625,0.932861328125
7.108,346,3147,2534,3147,-9.0,26.0,25.0,20.690916061401367,-54.382320404052734,-35.70556640625,-0.646240234375,-1.0833740234375,0.8236083984375
7.111,347,3147,2569,3147,-9.0,26.0,25.0,92.28514862060547,-4.94384765625,-8.60595703125,-0.156982421875,0.5655517578125,0.3438720703125
7.130,348,3147,2576,3147,-9.0,26.0,25.0,70.86181640625,35.64453125,13.305663108825684,-1.020263671875,0.938232421875,-0.019775390625
7.143,334,3147,2607,3147,-9.0,26.0,25.0,-17.27294921875,54.321285247802734,26.245115280151367,-1.897216796875,0.2999267578125,-0.0203857421875
7.143,347,3147,2576,3147,-9.0,26.0,25.0,-65.49072265625,65.3076171875,46.264644622802734,-2.1968994140625,0.1068115234375,-0.017333984375
7.149,346,3147,2541,3147,0.0,25.0,24.0,-65.49072265625,65.3076171875,46.264644622802734,-1.9849853515625,0.330322265625,0.031005859375
7.163,346,3147,2478,3147,0.0,25.0,24.0,-59.692378997802734,81.78710174560547,82.58055877685547,-1.7049560546875,0.5577392578125,0.100341796875
7.184,344,3147,2375,3147,0.0,25.0,24.0,-44.372554779052734,88.25682830810547,84.83885955810547,-1.554931640625,0.83056640625,-0.0205078125
7.191,338,3147,2271,3147,0.0,25.0,24.0,-44.372554779052734,88.25682830810547,84.83885955810547,-1.3836669921875,0.9346923828125,-0.28173828125
7.213,322,3147,2087,3147,0.0,25.0,24.0,-0.9155272841453552,67.44384765625,53.833003997802734,-1.017333984375,0.65380859375,-0.346435546875
7.214,334,3147,1985,2821,0.0,25.0,24.0,16.6015625,46.081539154052734,37.04833984375,-0.4993896484375,0.28466796875,-0.2047119140625
7.215,331,3147,1974,2424,0.0,25.0,24.0,16.6015625,46.081539154052734,37.04833984375,-0.0465087890625,0.152099609375,-0.0579833984375
7.226,330,3147,1874,1689,0.0,25.0,24.0,43.273921966552734,6.225585460662842,4.7607421875,0.135498046875,0.170166015625,0.0250244140625
7.231,328,3147,1826,1104,0.0,25.0,24.0,38.39111328125,-12.512206077575684,-19.1650390625,-0.034423828125,0.2078857421875,-0.01123046875
7.248,328,3147,1786,473,0.0,25.0,24.0,38.39111328125,-12.512206077575684,-19.1650390625,-0.3719482421875,0.2288818359375,-0.13525390625
7.253,323,2258,1638,373,-1.0,29.0,25.0,13.732909202575684,-28.076169967651367,-49.682613372802734,-0.625732421875,0.1585693359375,-0.2042236328125
7.261,319,1695,1718,363,-1.0,29.0,25.0,-5.615233898162842,-26.550291061401367,-53.710933685302734,-0.7440185546875,0.0030517578125,-0.109130859375
7.269,321,1357,1697,364,-1.0,29.0,25.0,-5.615233898162842,-26.550291061401367,-53.710933685302734,-0.78564453125,-0.2108154296875,-0.0006103515625
7.293,319,601,1573,353,-1.0,29.0,25.0,-6.347655773162842,-12.329100608825684,-42.175289154052734,-0.821533203125,-0.2158203125,-0.0435791015625
7.293,318,525,1497,346,-1.0,29.0,25.0,13.549803733825684,0.7324218153953552,-28.320310592651367,-0.8448486328125,0.123779296875,-0.09521484375
7.311,316,441,1422,332,-1.0,29.0,25.0,13.549803733825684,0.7324218153953552,-28.320310592651367,-0.8216552734375,0.2867431640625,-0.018798828125
7.313,310,389,1280,330,-1.0,29.0,25.0,-8.30078125,5.432128429412842,-10.498045921325684,-0.78369140625,0.1580810546875,0.0633544921875
7.321,310,430,1225,324,-1.0,29.0,25.0,-18.12744140625,7.568358898162842,-6.103515148162842,-0.737548828125,0.1416015625,0.0748291015625
7.329,310,441,1206,327,-1.0,29.0,25.0,-18.12744140625,7.568358898162842,-6.103515148162842,-0.70263671875,0.2705078125,0.0860595703125
7.352,313,508,1225,324,-1.0,29.0,25.0,-12.512206077575684,16.2353515625,5.981444835662842,-0.686279296875,0.4039306640625,0.1099853515625
7.352,315,553,1294,327,-3.0,26.0,22.0,-5.371093273162842,17.333984375,7.629394054412842,-0.6734619140625,0.4949951171875,0.1168212890625
7.359,313,577,1348,329,-3.0,26.0,22.0,-5.371093273162842,17.333984375,7.629394054412842,-0.67626953125,0.5372314453125,0.1170654296875
7.373,316,508,1401,332,-3.0,26.0,22.0,8.60595703125,13.061522483825684,7.507323741912842,-0.7083740234375,0.512451171875,0.0933837890625
7.381,317,689,1411,332,-3.0,26.0,22.0,8.60595703125,13.061522483825684,7.507323741912842,-0.767333984375,0.43505859375,0.0311279296875
7.412,319,695,1445,345,-3.0,26.0,22.0,10.131834983825684,9.82666015625,7.629394054412842,-0.767333984375,0.43505859375,0.0311279296875
7.455,318,968,1463,342,-3.0,26.0,22.0,7.080077648162842,6.774901866912842,8.85009765625,-0.899169921875,0.285888671875,-0.1220703125
7.455,318,1067,1501,346,-3.0,26.0,22.0,7.080077648162842,6.774901866912842,8.85009765625,-0.9422607421875,0.2198486328125,-0.159912109375
7.456,321,1282,1509,351,-3.0,26.0,22.0,5.126952648162842,7.629394054412842,14.160155296325684,-0.9422607421875,0.2198486328125,-0.159912109375
7.456,322,1483,1548,364,-3.0,26.0,22.0,-1.3427733182907104,11.169432640075684,31.127927780151367,-0.9918212890625,0.0748291015625,-0.1026611328125
7.456,323,1843,1547,359,-5.0,29.0,23.0,-1.3427733182907104,11.169432640075684,31.127927780151367,-1.0087890625,0.028564453125,-0.0550537109375
7.456,323,2047,1557,359,-5.0,29.0,23.0,-3.662109136581421,13.916014671325684,40.954586029052734,-1.0087890625,0.028564453125,-0.0550537109375
7.463,327,2279,1557,376,-5.0,29.0,23.0,1.6479490995407104,21.728513717651367,65.12451171875,-0.994140625,0.00732421875,-0.0460205078125
7.475,327,2599,1557,388,-5.0,29.0,23.0,1.6479490995407104,21.728513717651367,65.12451171875,-0.8397216796875,-0.0155029296875,-0.0821533203125
7.481,328,2996,1584,403,-5.0,29.0,23.0,7.934569835662842,24.841306686401367,78.857421875,-0.8397216796875,-0.0155029296875,-0.0821533203125
7.516,324,3147,1613,1241,-5.0,29.0,23.0,15.197752952575684,29.052732467651367,90.51512908935547,-0.17724609375,0.335693359375,0.1029052734375
7.517,324,3147,1665,1863,-5.0,29.0,23.0,15.197752952575684,29.052732467651367,90.51512908935547,0.4161376953125,0.610107421875,0.364990234375
7.517,328,3147,1686,2456,-5.0,29.0,23.0,10.986327171325684,26.489255905151367,73.2421875,0.4161376953125,0.610107421875,0.364990234375
7.523,334,3147,1882,2944,-5.0,29.0,23.0,21.728513717651367,-18.9208984375,-28.869626998901367,2.4737548828125,0.124755859375,0.3082275390625
7.532,334,3147,2037,3147,-5.0,29.0,23.0,21.728513717651367,-18.9208984375,-28.869626998901367,2.0999755859375,0.4754638671875,-0.4417724609375
7.539,342,3147,2253,3147,-5.0,26.0,23.0,71.83837890625,-62.072750091552734,-91.00341033935547,2.0999755859375,0.4754638671875,-0.4417724609375
7.558,308,310,2738,3147,-5.0,26.0,23.0,96.80175018310547,-155.517578125,-155.029296875,-2.4818115234375,1.8917236328125,-1.7314453125
7.561,328,3147,2991,3147,-5.0,26.0,23.0,96.80175018310547,-155.517578125,-155.029296875,-4.0,1.6673583984375,-1.1270751953125
7.569,323,949,3039,3147,-5.0,26.0,23.0,14.526366233825684,-163.94041442871094,-145.20263671875,-4.0,1.6673583984375,-1.1270751953125
7.583,351,3147,2765,2093,-5.0,26.0,23.0,-152.34375,-126.15966033935547,-90.33202362060547,-3.646728515625,-1.8609619140625,1.6763916015625
7.591,348,3147,2578,3147,-5.0,26.0,23.0,-152.34375,-126.15966033935547,-90.33202362060547,-1.4090576171875,-2.1953125,1.7850341796875
7.628,348,3147,2391,3147,-5.0,26.0,23.0,-61.035152435302734,-72.32666015625,-48.767086029052734,-1.4090576171875,-2.1953125,1.7850341796875
7.628,344,3147,2382,3147,-5.0,26.0,23.0,76.416015625,-2.563476324081421,-0.0610351525247097,-0.7003173828125,1.0404052734375,-0.005126953125
7.628,344,3147,2345,3147,-5.0,26.0,23.0,133.11767578125,61.950679779052734,40.710445404052734,-0.7003173828125,1.0404052734375,-0.005126953125
7.631,355,3147,2407,3147,-5.0,26.0,23.0,64.27001953125,93.13964080810547,56.640621185302734,-1.8323974609375,0.8675537109375,-0.4486083984375
7.639,343,3147,2396,3147,-2.0,28.0,24.0,-24.230955123901367,95.21483612060547,63.659664154052734,-2.414794921875,0.395751953125,-0.4898681640625
7.656,338,3147,2375,3147,-2.0,28.0,24.0,-49.682613372802734,89.66063690185547,72.509765625,-1.934814453125,0.765869140625,-0.318115234375
7.671,344,3147,2280,3147,-2.0,28.0,24.0,-47.973628997802734,83.43505096435547,74.27978515625,-1.934814453125,0.765869140625,-0.318115234375
7.671,337,3147,2194,3147,-2.0,28.0,24.0,-47.302242279052734,75.439453125,66.7724609375,-1.5830078125,0.9423828125,-0.2232666015625
7.686,336,3147,2035,3147,-2.0,28.0,24.0,-35.94970703125,63.476558685302734,51.879878997802734,-1.0693359375,0.77783203125,-0.335693359375
7.702,334,3147,1980,2703,-2.0,28.0,24.0,-21.667478561401367,47.912593841552734,31.921384811401367,-1.0693359375,0.77783203125,-0.335693359375
7.702,332,3147,1861,2117,-2.0,28.0,24.0,-15.441893577575684,31.005857467651367,11.535643577575684,-0.6939697265625,0.4324951171875,-0.1990966796875
7.725,332,3147,1695,706,-2.0,28.0,24.0,-11.596678733825684,16.845703125,-7.080077648162842,-0.296630859375,0.150390625,-0.0068359375
7.725,324,2672,1653,352,-2.0,28.0,24.0,-8.48388671875,6.225585460662842,-24.291990280151367,-0.009765625,-0.0128173828125,0.166748046875
7.728,319,1156,1483,360,-2.0,28.0,24.0,-10.131834983825684,-3.662109136581421,-39.55078125,0.027587890625,-0.072509765625,0.23486328125
7.743,314,433,1580,331,-6.0,25.0,24.0,-11.169432640075684,-12.084959983825684,-49.438472747802734,-0.1624755859375,-0.073486328125,0.1597900390625
7.761,312,411,1598,327,-6.0,25.0,24.0,-6.958007335662842,-17.51708984375,-52.795406341552734,-0.4000244140625,-0.0501708984375,0.0794677734375
7.762,308,344,1502,327,-6.0,25.0,24.0,-2.0751953125,-20.507810592651367,-49.316402435302734,-0.5323486328125,-0.0361328125,-0.015869140625
7.772,308,331,1404,323,-6.0,25.0,24.0,2.50244140625,-17.9443359375,-39.97802734375,-0.5596923828125,0.040283203125,-0.145751953125
7.780,308,356,1334,325,-6.0,25.0,24.0,2.0751953125,-10.803221702575684,-29.479978561401367,-0.53662109375,0.16748046875,-0.167236328125
7.835,308,346,1316,323,-6.0,25.0,24.0,-5.371093273162842,-5.493163585662842,-21.850584030151367,-0.4884033203125,0.1490478515625,-0.101806640625
7.836,308,376,1254,321,-6.0,25.0,24.0,-6.408690929412842,-0.7324218153953552,-15.930174827575684,-0.460205078125,0.1026611328125,-0.063232421875
7.836,308,360,1292,322,-6.0,25.0,24.0,2.25830078125,6.652831554412842,-7.385253429412842,-0.50830078125,0.2279052734375,-0.0889892578125
7.836,308,352,1326,321,-6.0,25.0,24.0,6.530761241912842,12.939452171325684,1.8920897245407104,-0.6361083984375,0.431884765625,-0.101318359375
7.837,308,494,1393,324,-6.0,25.0,24.0,-2.807616949081421,12.817381858825684,5.432128429412842,-0.7572021484375,0.534423828125,-0.0679931640625
7.840,310,548,1444,328,-1.0,27.0,17.0,-18.310546875,6.835937023162842,1.220703125,-0.8321533203125,0.4759521484375,-0.0111083984375
7.866,312,541,1494,328,-1.0,27.0,17.0,-26.733396530151367,-0.1831054538488388,-5.310058116912842,-0.897216796875,0.326171875,0.05908203125
7.874,314,536,1557,331,-1.0,27.0,17.0,-20.263669967651367,-3.967284917831421,-8.1787109375,-0.9508056640625,0.210205078125,0.10986328125
7.877,315,603,1592,334,-1.0,27.0,17.0,-2.929687261581421,-4.7607421875,-7.141112804412842,-0.9676513671875,0.166748046875,0.1142578125
7.879,315,711,1662,336,-1.0,27.0,17.0,13.916014671325684,-4.39453125,-4.5166015625,-0.9503173828125,0.1578369140625,0.0880126953125
8.281,321,1224,1759,348,-1.0,27.0,17.0,25.390623092651367,0.0,6.835937023162842,-0.92919921875,0.1527099609375,0.0054931640625
8.283,317,1527,1757,348,-1.0,27.0,17.0,25.451658248901367,4.150390625,17.2119140625,-0.9571533203125,0.1536865234375,-0.0548095703125
8.283,318,1739,1809,359,-1.0,27.0,17.0,24.291990280151367,8.60595703125,28.991697311401367,-0.992919921875,0.1654052734375,-0.113037109375
8.284,321,1959,1815,361,-1.0,27.0,17.0,21.301267623901367,12.084959983825684,39.9169921875,-1.0177001953125,0.1796875,-0.153564453125
8.284,321,2135,1792,363,-3.0,28.0,25.0,16.6015625,14.038084983825684,48.767086029052734,-1.0240478515625,0.192626953125,-0.165771484375
8.284,321,2370,1739,364,-3.0,28.0,25.0,10.070799827575684,15.258788108825684,56.213375091552734,-1.0111083984375,0.2008056640625,-0.1475830078125
8.284,321,2631,1627,334,-3.0,28.0,25.0,0.9765624403953552,18.49365234375,63.171382904052734,-0.9658203125,0.216064453125,-0.083740234375
8.284,321,2974,1613,364,-3.0,28.0,25.0,-11.474608421325684,24.658201217651367,68.78662109375,-0.831787109375,0.23291015625,0.0032958984375
8.284,321,3147,1604,1012,-3.0,28.0,25.0,-23.681638717651367,29.663084030151367,71.2890625,-0.5367431640625,0.18798828125,0.0826416015625
8.284,323,3147,1615,1627,-3.0,28.0,25.0,-23.437498092651367,26.916501998901367,70.068359375,-0.0859375,0.0908203125,0.2054443359375
8.284,323,3147,1686,2203,-3.0,28.0,25.0,-1.8920897245407104,15.747069358825684,62.194820404052734,0.6175537109375,0.0555419921875,0.34716796875
8.284,328,3147,1826,3012,-3.0,28.0,25.0,37.29248046875,-0.8544921278953552,41.503902435302734,1.5999755859375,0.0733642578125,0.3414306640625
8.284,332,3147,1973,3147,-3.0,28.0,25.0,82.64159393310547,-24.414060592651367,0.4272460639476776,2.15380859375,0.4373779296875,0.061767578125
8.284,336,3147,2151,3147,-6.0,26.0,26.0,105.59081268310547,-61.767574310302734,-55.969234466552734,1.4925537109375,1.084716796875,-0.4669189453125
8.284,346,3147,2552,3147,-6.0,26.0,26.0,88.80614471435547,-111.57225799560547,-111.02294158935547,-0.3375244140625,1.326171875,-1.0389404296875
8.284,307,442,2777,3147,-6.0,26.0,26.0,51.513668060302734,-150.32958984375,-141.9677734375,-2.6063232421875,1.29638671875,-1.34375
8.284,307,3147,2899,3147,-6.0,26.0,26.0,2.25830078125,-157.16552734375,-133.60595703125,-4.0,1.0223388671875,-0.87646484375
8.284,348,1054,2789,2197,-6.0,26.0,26.0,-62.866207122802734,-143.98193359375,-105.59081268310547,-4.0,0.0516357421875,0.4744873046875
8.284,346,3147,2638,2906,-6.0,26.0,26.0,-88.68407440185547,-116.94335174560547,-75.3173828125,-3.7283935546875,-1.0791015625,1.442138671875
8.285,344,3147,2449,3147,-6.0,26.0,26.0,-35.2783203125,-67.7490234375,-43.334957122802734,-1.824951171875,-1.2860107421875,1.3994140625
8.285,344,3147,2382,3147,-6.0,26.0,26.0,39.61181640625,-6.591796398162842,-13.122557640075684,-0.27099609375,-0.324462890625,0.8814697265625
8.285,346,3147,2410,3147,-6.0,26.0,26.0,63.354488372802734,47.546382904052734,12.878417015075684,-0.5992431640625,0.653564453125,0.1966552734375
8.285,338,3147,2456,3147,-6.0,26.0,26.0,18.798828125,77.392578125,30.090330123901367,-1.664794921875,0.69677734375,-0.2720947265625
8.285,338,3147,2443,3147,-4.0,27.0,29.0,-41.137691497802734,82.27538299560547,41.870113372802734,-2.327392578125,0.4091796875,-0.3935546875
8.285,343,3147,2422,3147,-4.0,27.0,29.0,-65.00244140625,76.416015625,53.344722747802734,-2.3157958984375,0.4678955078125,-0.3359375
8.285,342,3147,2409,3147,-4.0,27.0,29.0,-60.729976654052734,68.42041015625,58.044429779052734,-1.9415283203125,0.7017822265625,-0.2413330078125
8.285,342,3147,2261,3147,-4.0,27.0,29.0,-50.170894622802734,59.936519622802734,52.062984466552734,-1.6015625,0.8541259765625,-0.18408203125
8.285,336,3147,2162,3147,-4.0,27.0,29.0,-36.31591796875,50.354000091552734,40.649410247802734,-1.3870849609375,0.8333740234375,-0.2176513671875
8.285,334,3147,2087,3147,-4.0,27.0,29.0,-18.9208984375,40.527339935302734,30.334470748901367,-1.1307373046875,0.60107421875,-0.2276611328125
8.285,334,3147,1943,2593,-4.0,27.0,29.0,-2.685546636581421,31.249998092651367,23.681638717651367,-0.7166748046875,0.294189453125,-0.10986328125
8.285,332,3147,1929,2104,-4.0,27.0,29.0,8.23974609375,22.521970748901367,16.90673828125,-0.293212890625,0.1009521484375,0.0389404296875
8.285,318,3147,1888,1373,-4.0,27.0,29.0,11.657713890075684,12.878417015075684,4.638671875,-0.0938720703125,0.048583984375,0.098388671875
8.286,328,3147,1800,382,-4.0,27.0,29.0,9.1552734375,0.2441406100988388,-13.366698265075684,-0.1773681640625,0.094970703125,0.0491943359375
8.286,327,2076,1703,371,-5.0,27.0,26.0,5.310058116912842,-13.305663108825684,-31.494138717651367,-0.3817138671875,0.1865234375,-0.05224609375
8.286,322,1050,1575,361,-5.0,27.0,26.0,-0.7934569716453552,-23.376462936401367,-45.227046966552734,-0.556396484375,0.18896484375,-0.1209716796875
8.286,316,479,1604,333,-5.0,27.0,26.0,-12.634276390075684,-27.709959030151367,-53.039546966552734,-0.66552734375,0.0439453125,-0.0584716796875
8.286,312,478,1557,330,-5.0,27.0,26.0,-20.629880905151367,-25.634763717651367,-51.391597747802734,-0.6732177734375,-0.230224609375,0.02978515625
8.286,310,348,1437,328,-5.0,27.0,26.0,-6.652831554412842,-15.136717796325684,-39.12353515625,-0.6031494140625,-0.274169921875,-0.0234375
8.286,308,355,1268,324,-5.0,27.0,26.0,13.366698265075684,0.1220703050494194,-20.263669967651367,-0.5673828125,0.0504150390625,-0.065185546875
8.396,308,357,1160,322,-5.0,27.0,26.0,7.446288585662842,8.7890625,-2.13623046875,-0.67529296875,0.176513671875,0.09326171875
8.405,310,330,1173,321,-5.0,27.0,26.0,-16.17431640625,12.878417015075684,15.319823265075684,-0.669677734375,0.23876953125,0.0352783203125
8.472,308,372,1198,323,-3.0,26.0,23.0,-10.681151390075684,14.038084983825684,15.014647483825684,-0.58935546875,0.49853515625,-0.0501708984375
8.478,308,428,1282,316,-3.0,26.0,23.0,-22.399900436401367,11.535643577575684,1.3427733182907104,-0.635986328125,0.526611328125,0.0264892578125
8.479,310,447,1369,322,-3.0,26.0,23.0,-28.930662155151367,9.765625,-4.45556640625,-0.6929931640625,0.4603271484375,0.1182861328125
8.479,313,482,1419,329,-3.0,26.0,23.0,-28.930662155151367,9.765625,-4.45556640625,-0.7342529296875,0.3197021484375,0.1763916015625
8.483,315,526,1499,334,-3.0,26.0,23.0,-17.822265625,5.676269054412842,-1.6479490995407104,-0.774658203125,0.196533203125,0.188232421875
8.483,316,737,1545,337,-3.0,26.0,23.0,-6.103515148162842,6.530761241912842,4.69970703125,-0.8260498046875,0.1431884765625,0.1422119140625
8.484,316,998,1608,347,-3.0,26.0,23.0,-6.103515148162842,6.530761241912842,4.69970703125,-0.904541015625,0.1566162109375,0.05908203125
8.484,318,1456,1650,356,-3.0,26.0,23.0,8.544921875,15.075682640075684,23.376462936401367,-1.0037841796875,0.21435546875,-0.0338134765625
8.484,321,1697,1628,359,-3.0,26.0,23.0,13.305663108825684,18.00537109375,32.28759765625,-1.091064453125,0.2515869140625,-0.1287841796875
8.485,321,2028,1678,360,-3.0,26.0,23.0,13.305663108825684,18.00537109375,32.28759765625,-1.1448974609375,0.2230224609375,-0.2047119140625
8.485,319,2312,1711,361,-5.0,26.0,22.0,16.6015625,15.563963890075684,45.288082122802734,-1.155029296875,0.1597900390625,-0.2305908203125
8.486,321,2364,1695,363,-5.0,26.0,22.0,15.380858421325684,14.465331077575684,54.016109466552734,-1.1240234375,0.108642578125,-0.1966552734375
8.486,322,2397,1703,344,-5.0,26.0,22.0,15.380858421325684,14.465331077575684,54.016109466552734,-1.053466796875,0.064453125,-0.1263427734375
8.487,321,2890,1659,364,-5.0,26.0,22.0,14.160155296325684,16.54052734375,77.57568359375,-0.882568359375,-0.0064697265625,-0.0662841796875
8.488,321,3147,1616,388,-5.0,26.0,22.0,9.33837890625,22.033689498901367,88.31786346435547,-0.5972900390625,0.05615234375,0.0391845703125
8.488,322,3147,1599,846,-5.0,26.0,22.0,9.33837890625,22.033689498901367,88.31786346435547,-0.29833984375,0.3321533203125,0.1912841796875
8.489,321,3147,1627,1387,-5.0,26.0,22.0,-1.03759765625,29.296873092651367,92.04100799560547,-0.29833984375,0.3321533203125,0.1912841796875
8.503,323,3147,1689,2320,-5.0,26.0,22.0,11.596678733825684,10.681151390075684,52.795406341552734,1.0416259765625,0.1697998046875,0.398681640625
8.511,331,3147,1850,2681,-5.0,26.0,22.0,11.596678733825684,10.681151390075684,52.795406341552734,2.0447998046875,0.03369140625,0.2352294921875
8.520,331,3147,1931,3099,-7.0,25.0,23.0,47.729488372802734,-16.66259765625,9.33837890625,2.0447998046875,0.03369140625,0.2352294921875
8.542,338,3147,2255,3147,-7.0,25.0,23.0,113.89159393310547,-89.78270721435547,-87.15819549560547,0.867431640625,1.150146484375,-0.953369140625
8.543,327,338,2571,3147,-7.0,25.0,23.0,113.89159393310547,-89.78270721435547,-87.15819549560547,-1.3594970703125,1.5721435546875,-1.39794921875
8.550,332,1282,2820,3147,-7.0,25.0,23.0,81.66503143310547,-131.04248046875,-128.35693359375,-1.3594970703125,1.5721435546875,-1.39794921875
8.564,356,3147,2981,3147,-7.0,25.0,23.0,-72.08251953125,-150.08544921875,-114.92919158935547,-4.0,0.7373046875,0.140625
8.574,351,3147,2813,3147,-7.0,25.0,23.0,-72.08251953125,-150.08544921875,-114.92919158935547,-4.0,-0.751708984375,1.3201904296875
