time,compression0,compression1,compression2,compression3,magn_x,magn_y,magn_z,gyro_x,gyro_y,gyro_z,accel_x,accel_y,accel_z
0.001,315,2850,1169,359,-12.0,38.0,7.0,-4.8828125,-14.465331077575684,-0.54931640625,-0.7935791015625,0.25537109375,-0.532958984375
0.002,316,2851,1184,355,-12.0,38.0,7.0,-5.371093273162842,-14.404295921325684,0.2441406100988388,-0.7928466796875,0.253173828125,-0.527099609375
0.009,318,2870,1211,356,-12.0,38.0,7.0,-5.615233898162842,-13.793944358825684,1.2817381620407104,-0.7894287109375,0.2496337890625,-0.522216796875
0.021,318,2861,1222,359,-12.0,38.0,7.0,-5.920409679412842,-12.573241233825684,2.563476324081421,-0.7882080078125,0.241943359375,-0.515625
0.031,316,2876,1241,356,-12.0,38.0,7.0,-6.164550304412842,-10.742186546325684,4.45556640625,-0.787353515625,0.23681640625,-0.507080078125
0.042,318,2886,1241,360,-12.0,38.0,7.0,-6.408690929412842,-8.30078125,6.652831554412842,-0.78173828125,0.240478515625,-0.49267578125
0.047,317,2901,1239,359,-12.0,37.0,6.0,-7.202147960662842,-5.126952648162842,8.97216796875,-0.769775390625,0.24365234375,-0.4681396484375
0.061,319,3000,1266,359,-12.0,37.0,6.0,-8.4228515625,-1.15966796875,11.047362327575684,-0.74609375,0.242431640625,-0.428955078125
0.069,321,3011,1266,360,-12.0,37.0,6.0,-9.8876953125,2.990722417831421,12.878417015075684,-0.702392578125,0.2442626953125,-0.377685546875
0.077,318,3106,1258,362,-12.0,37.0,6.0,-11.413573265075684,7.019042491912842,14.343260765075684,-0.646240234375,0.2470703125,-0.344482421875
0.104,321,3147,1253,497,-12.0,37.0,6.0,-12.512206077575684,10.681151390075684,15.441893577575684,-0.5791015625,0.2484130859375,-0.33984375
0.104,321,3147,1233,766,-12.0,37.0,6.0,-15.258788108825684,13.610838890075684,16.845703125,-0.490478515625,0.2479248046875,-0.3173828125
0.107,316,3147,1223,1038,-12.0,37.0,6.0,-22.155759811401367,14.770506858825684,18.73779296875,-0.3857421875,0.2388916015625,-0.2293701171875
0.128,323,3147,1241,1773,-12.0,37.0,6.0,-31.249998092651367,12.817381858825684,20.324705123901367,-0.2659912109375,0.2249755859375,-0.09521484375
0.129,322,3147,1224,2123,-12.0,37.0,6.0,-38.0859375,5.859374523162842,20.385740280151367,-0.126708984375,0.239990234375,0.01953125
0.145,321,3147,1274,2379,-12.0,37.0,6.0,-43.090816497802734,-9.82666015625,17.51708984375,0.0372314453125,0.3243408203125,0.169677734375
0.151,338,3147,1715,3006,-12.0,35.0,12.0,-53.527828216552734,-37.2314453125,12.268065452575684,0.218017578125,0.3314208984375,0.36181640625
0.159,338,3147,1941,3147,-12.0,35.0,12.0,-62.255855560302734,-69.27490234375,9.6435546875,0.335693359375,0.1905517578125,0.3485107421875
0.167,334,3147,1808,3147,-12.0,35.0,12.0,-49.316402435302734,-86.85301971435547,9.33837890625,0.269775390625,0.0250244140625,-0.13720703125
0.181,343,3147,1943,3147,-12.0,35.0,12.0,-15.686034202575684,-70.61767578125,-2.01416015625,-0.2283935546875,-0.2076416015625,-0.8607177734375
0.189,346,3147,2267,3147,-12.0,35.0,12.0,7.507323741912842,-36.31591796875,-24.719236373901367,-0.9676513671875,0.006591796875,-1.22021484375
0.211,359,3147,2807,3147,-12.0,35.0,12.0,-7.568358898162842,-17.51708984375,-48.461910247802734,-1.4727783203125,0.6600341796875,-1.2933349609375
0.211,447,3147,3147,3147,-12.0,35.0,12.0,-57.006832122802734,-15.808104515075684,-66.2841796875,-1.7315673828125,0.808837890625,-1.204345703125
0.219,731,3147,3147,3147,-12.0,35.0,12.0,-105.95702362060547,-23.132322311401367,-70.1904296875,-2.00634765625,0.6595458984375,-0.78662109375
0.237,689,3147,3147,3147,-12.0,35.0,12.0,-111.20604705810547,-11.596678733825684,-55.114742279052734,-2.7421875,1.189208984375,-1.3231201171875
0.241,799,3147,3147,3147,-9.0,36.0,12.0,-89.96581268310547,24.902341842651367,-39.36767578125,-2.6751708984375,0.595703125,-0.9649658203125
0.250,688,3147,3147,3147,-9.0,36.0,12.0,-66.0400390625,41.870113372802734,-32.3486328125,-1.6053466796875,-0.4466552734375,0.542724609375
0.257,535,3147,3147,3147,-9.0,36.0,12.0,-14.892577171325684,55.541988372802734,-14.465331077575684,-0.875732421875,-0.0833740234375,0.3695068359375
0.271,481,3147,3147,3147,-9.0,36.0,12.0,39.0625,76.72119140625,2.13623046875,-0.5751953125,0.3055419921875,-0.7618408203125
0.279,512,3147,3147,3147,-9.0,36.0,12.0,53.710933685302734,70.3125,-1.220703125,-0.6295166015625,0.5289306640625,-1.5098876953125
0.287,522,3147,3147,3147,-9.0,36.0,12.0,32.40966796875,30.883787155151367,-16.41845703125,-0.791259765625,0.5411376953125,-1.4385986328125
0.320,526,3147,3147,3147,-9.0,36.0,12.0,3.845214605331421,-19.34814453125,-29.907224655151367,-0.9202880859375,0.3861083984375,-1.0067138671875
0.330,537,3147,3147,3147,-9.0,36.0,12.0,-7.202147960662842,-54.016109466552734,-32.958984375,-1.014892578125,0.3402099609375,-0.6326904296875
0.330,525,3147,3147,3147,-9.0,36.0,12.0,-7.202147960662842,-54.016109466552734,-32.958984375,-1.185791015625,0.43994140625,-0.5540771484375
0.376,521,3147,3147,3147,-9.0,36.0,12.0,6.103515148162842,-69.091796875,-24.230955123901367,-1.4869384765625,0.5989990234375,-0.7947998046875
0.377,473,3147,3147,3147,-10.0,35.0,10.0,3.051757574081421,-63.232418060302734,-21.301267623901367,-1.7724609375,0.6385498046875,-1.0234375
0.377,532,3147,3147,3147,-10.0,35.0,10.0,3.051757574081421,-63.232418060302734,-21.301267623901367,-1.8524169921875,0.4844970703125,-0.952880859375
0.377,398,3147,3127,3147,-10.0,35.0,10.0,-23.071287155151367,-50.598140716552734,-13.122557640075684,-1.6878662109375,0.334716796875,-0.7069091796875
0.377,382,3147,3014,3147,-10.0,35.0,10.0,-27.038572311401367,-44.738765716552734,-6.958007335662842,-1.4381103515625,0.3258056640625,-0.5452880859375
0.377,381,3147,2798,3147,-10.0,35.0,10.0,-27.038572311401367,-44.738765716552734,-6.958007335662842,-1.189208984375,0.3580322265625,-0.5047607421875
0.394,371,3147,2555,3147,-10.0,35.0,10.0,-19.1650390625,-23.193357467651367,1.8310545682907104,-0.9302978515625,0.3187255859375,-0.39111328125
0.412,361,3147,2370,3147,-10.0,35.0,10.0,-15.930174827575684,-10.803221702575684,2.25830078125,-0.765625,0.2137451171875,-0.173828125
0.413,346,3147,2330,3147,-10.0,35.0,10.0,-15.930174827575684,-10.803221702575684,2.25830078125,-0.68017578125,0.063720703125,0.015380859375
0.421,345,3147,2190,2419,-10.0,35.0,10.0,-2.990722417831421,3.051757574081421,-9.3994140625,-0.5989990234375,-0.1231689453125,0.0897216796875
0.434,337,3147,1968,1881,-10.0,35.0,10.0,11.047362327575684,5.493163585662842,-15.869139671325684,-0.4912109375,-0.248046875,0.05859375
0.437,332,3147,1770,1228,-11.0,32.0,14.0,11.047362327575684,5.493163585662842,-15.869139671325684,-0.314453125,-0.2755126953125,0.1170654296875
0.451,328,3147,1572,667,-11.0,32.0,14.0,31.982419967651367,-1.5258787870407104,-18.73779296875,-0.145751953125,-0.1900634765625,0.234130859375
0.459,324,3147,1357,384,-11.0,32.0,14.0,33.14208984375,-6.164550304412842,-13.427733421325684,-0.165283203125,0.0186767578125,0.166259765625
0.467,323,2959,1178,371,-11.0,32.0,14.0,33.14208984375,-6.164550304412842,-13.427733421325684,-0.34375,0.2269287109375,-0.075927734375
0.481,319,2645,1117,363,-11.0,32.0,14.0,36.43798828125,-6.958007335662842,-5.737304210662842,-0.4615478515625,0.3192138671875,-0.363525390625
0.489,318,2395,1095,359,-11.0,32.0,14.0,39.306640625,-4.57763671875,-4.8828125,-0.4765625,0.360595703125,-0.5955810546875
0.513,318,2257,1079,359,-11.0,32.0,14.0,39.306640625,-4.57763671875,-4.8828125,-0.4879150390625,0.433349609375,-0.6612548828125
0.513,316,2267,974,348,-11.0,32.0,14.0,35.15625,3.967284917831421,-1.5258787870407104,-0.53857421875,0.4591064453125,-0.5496826171875
0.519,315,2392,976,354,-11.0,32.0,14.0,20.568845748901367,5.554198741912842,-0.54931640625,-0.5966796875,0.4254150390625,-0.3668212890625
0.527,316,2492,1018,356,-11.0,32.0,14.0,20.568845748901367,5.554198741912842,-0.54931640625,-0.6405029296875,0.3919677734375,-0.2408447265625
0.541,314,2793,968,354,-11.0,36.0,17.0,3.601073980331421,0.1220703050494194,1.03759765625,-0.6900634765625,0.3543701171875,-0.2659912109375
0.558,316,2868,977,357,-11.0,36.0,17.0,3.601073980331421,0.1220703050494194,1.03759765625,-0.7396240234375,0.3284912109375,-0.3973388671875
0.558,316,2953,936,359,-11.0,36.0,17.0,6.774901866912842,-1.5869139432907104,0.7934569716453552,-0.7396240234375,0.3284912109375,-0.3973388671875
0.571,314,3066,947,356,-11.0,36.0,17.0,10.498045921325684,0.7934569716453552,0.1220703050494194,-0.76123046875,0.278076171875,-0.4876708984375
0.579,315,3133,918,360,-11.0,36.0,17.0,10.498045921325684,0.7934569716453552,0.1220703050494194,-0.7576904296875,0.237548828125,-0.4093017578125
0.587,316,3147,958,361,-11.0,36.0,17.0,6.286620616912842,2.44140625,-1.03759765625,-0.7576904296875,0.237548828125,-0.4093017578125
0.617,315,3147,1067,409,-11.0,36.0,17.0,-0.0610351525247097,7.324218273162842,1.4648436307907104,-0.7587890625,0.17138671875,-0.333984375
0.617,321,3147,1091,540,-11.0,36.0,17.0,-0.0610351525247097,7.324218273162842,1.4648436307907104,-0.760009765625,0.1583251953125,-0.3564453125
0.619,321,3147,1103,662,-11.0,36.0,17.0,-3.173827886581421,12.023924827575684,6.347655773162842,-0.760009765625,0.1583251953125,-0.3564453125
0.631,321,3147,1214,1054,-9.0,35.0,14.0,-15.624999046325684,24.902341842651367,20.935056686401367,-0.72119140625,0.07763671875,-0.3060302734375
0.641,324,3147,1204,1251,-9.0,35.0,14.0,-15.624999046325684,24.902341842651367,20.935056686401367,-0.6729736328125,-0.014404296875,-0.1917724609375
0.647,332,3147,1351,1417,-9.0,35.0,14.0,-23.498533248901367,32.1044921875,30.273435592651367,-0.6729736328125,-0.014404296875,-0.1917724609375
0.664,336,3147,1638,1973,-9.0,35.0,14.0,-31.494138717651367,27.282712936401367,55.969234466552734,-0.3470458984375,-0.0445556640625,0.1016845703125
0.669,338,3147,1783,2295,-9.0,35.0,14.0,-31.494138717651367,27.282712936401367,55.969234466552734,0.0172119140625,0.17431640625,0.28955078125
0.677,346,3147,1914,2621,-9.0,35.0,14.0,-25.756834030151367,2.868652105331421,59.875484466552734,0.0172119140625,0.17431640625,0.28955078125
0.691,362,3147,2469,3147,-9.0,35.0,14.0,-38.87939453125,-58.959957122802734,21.240232467651367,0.5970458984375,0.75244140625,0.383544921875
0.699,375,3147,2440,3147,-9.0,35.0,14.0,-38.87939453125,-58.959957122802734,21.240232467651367,0.3876953125,0.2030029296875,0.175537109375
0.719,378,3147,2624,3147,-9.0,35.0,14.0,-65.49072265625,-62.805171966552734,8.36181640625,0.3876953125,0.2030029296875,0.175537109375
0.722,387,3147,3147,3147,-9.0,35.0,14.0,8.30078125,-44.494625091552734,-18.37158203125,-0.8997802734375,-0.9210205078125,-0.8604736328125
0.729,509,3147,3147,3147,-9.0,37.0,14.0,8.30078125,-44.494625091552734,-18.37158203125,-1.447265625,0.505126953125,-1.376708984375
0.744,844,3147,3147,3147,-9.0,37.0,14.0,46.813961029052734,-49.316402435302734,-8.6669921875,-1.447265625,0.505126953125,-1.376708984375
0.752,1013,3147,3147,3147,-9.0,37.0,14.0,-57.189937591552734,-54.870601654052734,2.868652105331421,-3.0147705078125,2.431396484375,-2.339111328125
0.775,1067,3147,3147,3147,-9.0,37.0,14.0,-57.189937591552734,-54.870601654052734,2.868652105331421,-3.0147705078125,2.431396484375,-2.339111328125
0.775,1082,3147,3147,3147,-9.0,37.0,14.0,-151.0009765625,-30.334470748901367,-16.54052734375,-3.228759765625,0.9056396484375,-1.4749755859375
0.783,971,3147,3147,3147,-9.0,37.0,14.0,-156.3720703125,-49.682613372802734,-31.616209030151367,-0.7418212890625,-0.47412109375,1.290771484375
0.790,778,3147,3147,3147,-9.0,37.0,14.0,-32.04345703125,-68.78662109375,-12.268065452575684,-0.7418212890625,-0.47412109375,1.290771484375
0.797,735,3147,3147,3147,-9.0,37.0,14.0,94.60448455810547,-21.728513717651367,9.765625,-0.523681640625,0.75048828125,-0.600830078125
0.827,695,3147,3147,3147,-9.0,37.0,14.0,111.57225799560547,15.624999046325684,-6.591796398162842,-1.2174072265625,0.613037109375,-1.573486328125
0.828,625,3147,3147,3147,-9.0,37.0,14.0,42.602535247802734,8.9111328125,-30.395505905151367,-1.2174072265625,0.613037109375,-1.573486328125
0.828,536,3147,3147,3147,-12.0,32.0,20.0,-27.038572311401367,-22.460935592651367,-34.5458984375,-1.5968017578125,0.6995849609375,-1.1439208984375
0.844,378,3147,3147,3147,-12.0,32.0,20.0,-57.373043060302734,-49.011226654052734,-28.747556686401367,-1.965576171875,0.3917236328125,-0.435791015625
0.850,359,3147,3147,3147,-12.0,32.0,20.0,-56.091304779052734,-61.584468841552734,-22.583005905151367,-1.965576171875,0.3917236328125,-0.435791015625
0.863,359,3147,3134,3147,-12.0,32.0,20.0,-37.9638671875,-58.715816497802734,-12.207030296325684,-1.708984375,0.2581787109375,-0.1019287109375
0.874,355,3147,2884,3147,-12.0,32.0,20.0,-17.822265625,-44.982906341552734,-0.7934569716453552,-1.0650634765625,0.551025390625,-0.0240478515625
0.885,352,3147,2769,3147,-12.0,32.0,20.0,-3.112792730331421,-26.794431686401367,2.563476324081421,-1.0650634765625,0.551025390625,-0.0240478515625
0.887,348,3147,2579,3147,-12.0,32.0,20.0,5.859374523162842,-6.469726085662842,-2.929687261581421,-0.799560546875,0.4825439453125,-0.103271484375
0.901,344,3147,2254,3147,-12.0,32.0,20.0,10.192870140075684,14.465331077575684,-10.986327171325684,-0.518310546875,-0.0506591796875,0.0400390625
0.924,338,3147,2133,3118,-12.0,32.0,20.0,11.840819358825684,32.71484375,-14.648436546325684,-0.518310546875,-0.0506591796875,0.0400390625
0.924,332,3147,1891,2757,-12.0,32.0,20.0,15.197752952575684,45.410152435302734,-12.878417015075684,-0.42626953125,-0.3284912109375,0.2188720703125
0.932,329,3147,1474,2117,-14.0,33.0,14.0,28.747556686401367,52.917476654052734,-7.873534679412842,-0.2315673828125,-0.3714599609375,0.0455322265625
0.941,326,3147,1351,1892,-14.0,33.0,14.0,50.048824310302734,52.490230560302734,0.7324218153953552,-0.2315673828125,-0.3714599609375,0.0455322265625
0.948,314,3147,1243,1723,-14.0,33.0,14.0,63.171382904052734,41.015621185302734,10.620116233825684,-0.1370849609375,-0.1302490234375,-0.12451171875
0.963,321,3147,1069,1531,-14.0,33.0,14.0,61.889644622802734,25.512693405151367,17.02880859375,-0.4237060546875,0.52099609375,-0.440185546875
0.970,316,3147,989,1386,-14.0,33.0,14.0,51.696773529052734,12.268065452575684,18.00537109375,-0.4237060546875,0.52099609375,-0.440185546875
0.979,316,3147,957,1331,-14.0,33.0,14.0,37.41455078125,3.784179449081421,12.329100608825684,-0.5118408203125,0.6400146484375,-0.5489501953125
0.997,316,3147,922,1202,-14.0,33.0,14.0,19.8974609375,2.624511480331421,3.723144292831421,-0.617431640625,0.4580078125,-0.4697265625
1.000,315,3147,938,1157,-14.0,33.0,14.0,0.30517578125,5.798339366912842,-2.44140625,-0.617431640625,0.4580078125,-0.4697265625
1.008,316,3147,883,1130,-14.0,33.0,14.0,-15.808104515075684,7.507323741912842,-8.7890625,-0.642822265625,0.3460693359375,-0.3153076171875
1.027,304,3147,913,1103,-11.0,36.0,14.0,-23.803709030151367,6.225585460662842,-16.9677734375,-0.7867431640625,0.3524169921875,-0.1888427734375
1.030,314,3147,933,1063,-11.0,36.0,14.0,-26.123044967651367,3.662109136581421,-22.583005905151367,-0.7867431640625,0.3524169921875,-0.1888427734375
1.039,301,3147,891,992,-11.0,36.0,14.0,-25.573728561401367,2.38037109375,-23.620603561401367,-0.8397216796875,0.3133544921875,-0.17919921875
1.052,310,3147,849,923,-11.0,36.0,14.0,-19.71435546875,4.08935546875,-22.033689498901367,-0.8831787109375,0.2117919921875,-0.2645263671875
1.066,315,3147,859,922,-11.0,36.0,14.0,-9.21630859375,9.70458984375,-18.00537109375,-0.8831787109375,0.2117919921875,-0.2645263671875
1.068,313,3147,854,921,-11.0,36.0,14.0,0.4882812201976776,17.4560546875,-12.207030296325684,-0.8699951171875,0.23828125,-0.30322265625
1.138,315,3147,894,989,-11.0,36.0,14.0,4.94384765625,29.907224655151367,-5.371093273162842,-0.8262939453125,0.224609375,-0.30224609375
1.138,313,3147,887,1014,-11.0,36.0,14.0,3.051757574081421,34.97314453125,-2.990722417831421,-0.7967529296875,0.16943359375,-0.2906494140625
1.150,308,3147,913,1147,-11.0,36.0,14.0,2.563476324081421,41.320796966552734,1.5258787870407104,-0.75,0.1158447265625,-0.2830810546875
1.150,312,3147,936,1266,-8.0,37.0,13.0,3.356933355331421,49.987789154052734,8.36181640625,-0.711181640625,0.0792236328125,-0.2740478515625
1.150,315,3147,955,1386,-8.0,37.0,13.0,3.906249761581421,59.570308685302734,16.29638671875,-0.6893310546875,0.0440673828125,-0.234375
1.150,316,3147,1026,1677,-8.0,37.0,13.0,3.173827886581421,66.58935546875,24.719236373901367,-0.660400390625,0.018798828125,-0.151611328125
1.163,321,3147,1151,1880,-8.0,37.0,13.0,4.2724609375,66.89453125,34.48486328125,-0.5833740234375,0.0728759765625,-0.0869140625
1.168,324,3147,1328,2220,-8.0,37.0,13.0,11.474608421325684,53.833003997802734,42.907711029052734,-0.3685302734375,0.20556640625,-0.0133056640625
1.177,333,3147,1869,2704,-8.0,37.0,13.0,19.8974609375,23.376462936401367,39.12353515625,0.0081787109375,0.3807373046875,0.1136474609375
1.212,338,3147,2093,3077,-8.0,37.0,13.0,16.11328125,-15.502928733825684,15.258788108825684,0.3934326171875,0.6541748046875,0.1715087890625
1.213,352,3147,2366,3147,-8.0,37.0,13.0,-22.033689498901367,-43.395992279052734,-16.90673828125,0.536376953125,0.956787109375,0.1395263671875
1.213,357,3147,2541,3147,-8.0,37.0,13.0,-94.72655487060547,-51.879878997802734,-32.470703125,0.4359130859375,0.6856689453125,0.021728515625
1.241,364,3147,2822,3147,-9.0,35.0,14.0,-84.65575408935547,-44.982906341552734,-56.091304779052734,-0.5511474609375,-1.581787109375,-0.801025390625
1.281,430,3147,3147,3147,-9.0,35.0,14.0,-17.578125,-43.701168060302734,-46.508785247802734,-1.235595703125,-0.3988037109375,-1.03271484375
1.282,814,3147,3147,3147,-9.0,35.0,14.0,5.859374523162842,-48.645015716552734,-12.145995140075684,-1.7755126953125,1.329345703125,-1.2791748046875
1.282,788,3147,3147,3147,-9.0,35.0,14.0,-31.738279342651367,-52.551265716552734,2.0751953125,-2.5372314453125,2.3236083984375,-1.6639404296875
1.283,895,3147,3147,3147,-9.0,35.0,14.0,-105.52977752685547,-16.357421875,-6.164550304412842,-3.314453125,1.6390380859375,-1.8720703125
1.283,853,3147,3147,3147,-9.0,35.0,14.0,-132.6904296875,7.934569835662842,-28.869626998901367,-2.66455078125,-0.548828125,-0.0706787109375
1.283,754,3147,3147,3147,-9.0,35.0,14.0,-49.499507904052734,-5.310058116912842,-26.977537155151367,-1.2838134765625,-0.8223876953125,1.4798583984375
1.299,445,3147,3147,3147,-9.0,35.0,14.0,74.21875,18.49365234375,1.4648436307907104,-0.7039794921875,0.339599609375,0.3055419921875
1.300,424,3147,3147,3147,-9.0,35.0,14.0,131.04248046875,54.321285247802734,2.990722417831421,-0.70654296875,0.6868896484375,-1.3436279296875
1.308,484,3147,3147,3147,-9.0,35.0,14.0,101.01317596435547,52.185054779052734,-15.930174827575684,-0.8785400390625,0.65625,-1.9063720703125
1.336,391,3147,3147,3147,-6.0,35.0,14.0,39.00146484375,16.2353515625,-29.357908248901367,-1.1500244140625,0.7294921875,-1.6890869140625
1.336,373,3147,3144,3147,-6.0,35.0,14.0,-10.437010765075684,-23.071287155151367,-34.0576171875,-1.58740234375,0.75439453125,-1.36767578125
1.339,330,3147,3078,3147,-6.0,35.0,14.0,-40.649410247802734,-46.020503997802734,-34.36279296875,-1.9080810546875,0.5223388671875,-0.886962890625
1.353,363,3147,2930,3147,-6.0,35.0,14.0,-50.842281341552734,-50.292964935302734,-27.587888717651367,-1.9398193359375,0.252197265625,-0.3173828125
1.361,361,3147,2861,3147,-6.0,35.0,14.0,-39.61181640625,-41.625972747802734,-16.357421875,-1.7413330078125,0.109130859375,0.0184326171875
1.374,361,3147,2677,3147,-6.0,35.0,14.0,-14.709471702575684,-27.282712936401367,-4.8828125,-1.4451904296875,0.16748046875,-0.0025634765625
1.383,348,3147,2292,3147,-6.0,35.0,14.0,9.70458984375,-11.901854515075684,4.69970703125,-1.101318359375,0.280029296875,-0.17138671875
1.392,347,3147,2085,3147,-6.0,35.0,14.0,24.108884811401367,2.50244140625,9.765625,-0.816650390625,0.2562255859375,-0.2540283203125
1.400,344,3147,1974,3147,-6.0,35.0,14.0,28.259275436401367,15.502928733825684,9.94873046875,-0.631591796875,0.157958984375,-0.1844482421875
1.414,344,3147,2048,3147,-7.0,35.0,20.0,25.695798873901367,25.634763717651367,6.469726085662842,-0.481201171875,0.024658203125,0.0020751953125
1.467,337,3147,1834,2876,-7.0,35.0,20.0,24.047849655151367,33.50830078125,0.4882812201976776,-0.4027099609375,-0.1805419921875,0.152099609375
1.467,332,3147,1429,2424,-7.0,35.0,20.0,32.2265625,37.53662109375,-2.807616949081421,-0.37158203125,-0.2960205078125,0.1397705078125
1.487,324,3147,1204,1183,-7.0,35.0,20.0,54.748531341552734,-8.30078125,7.019042491912842,-0.4771728515625,0.43359375,-0.462890625
1.487,322,3147,1151,1009,-7.0,35.0,20.0,46.630855560302734,-13.366698265075684,1.9531248807907104,-0.61962890625,0.4439697265625,-0.6041259765625
1.488,318,3147,1132,869,-7.0,35.0,20.0,38.14697265625,-11.596678733825684,-0.30517578125,-0.715576171875,0.3876953125,-0.6455078125
1.502,319,3147,1125,644,-7.0,35.0,20.0,29.846189498901367,-7.080077648162842,1.7700194120407104,-0.734375,0.3203125,-0.5404052734375
1.518,322,3147,1143,552,-8.0,35.0,14.0,20.385740280151367,-4.8828125,1.8310545682907104,-0.727294921875,0.2315673828125,-0.3660888671875
1.518,323,3147,1120,484,-8.0,35.0,14.0,14.770506858825684,-4.5166015625,-0.9765624403953552,-0.77587890625,0.2052001953125,-0.219970703125
1.541,322,3147,1129,359,-8.0,35.0,14.0,14.526366233825684,-4.0283203125,0.1831054538488388,-0.8260498046875,0.2694091796875,-0.1549072265625
1.541,323,3115,1117,356,-8.0,35.0,14.0,16.11328125,-3.417968511581421,5.310058116912842,-0.818115234375,0.3154296875,-0.1627197265625
1.550,322,3104,1169,361,-8.0,35.0,14.0,18.4326171875,-4.33349609375,7.080077648162842,-0.72509765625,0.34716796875,-0.240234375
1.562,323,3147,1132,354,-8.0,35.0,14.0,17.333984375,-10.131834983825684,-0.9765624403953552,-0.6746826171875,0.380615234375,-0.3623046875
1.571,318,3137,1083,359,-8.0,35.0,14.0,9.765625,-13.977049827575684,-14.160155296325684,-0.785400390625,0.32177734375,-0.4200439453125
1.578,321,3110,1115,354,-8.0,35.0,14.0,9.765625,-13.977049827575684,-14.160155296325684,-0.850341796875,0.2279052734375,-0.3988037109375
1.592,321,3121,1071,356,-8.0,35.0,14.0,5.432128429412842,-0.2441406100988388,-10.986327171325684,-0.782958984375,0.1737060546875,-0.366943359375
1.601,322,3147,1083,359,-8.0,35.0,14.0,7.324218273162842,6.530761241912842,-4.638671875,-0.7354736328125,0.1190185546875,-0.337158203125
1.608,316,3147,1104,386,-9.0,33.0,19.0,7.324218273162842,6.530761241912842,-4.638671875,-0.7344970703125,0.0560302734375,-0.2965087890625
1.623,321,3147,1093,593,-9.0,33.0,19.0,4.82177734375,15.991209983825684,6.530761241912842,-0.732666015625,0.029296875,-0.265380859375
1.641,323,3147,1148,826,-9.0,33.0,19.0,0.9155272841453552,21.545408248901367,13.183592796325684,-0.714599609375,0.0628662109375,-0.27880859375
1.641,318,3147,1182,1074,-9.0,33.0,19.0,0.9155272841453552,21.545408248901367,13.183592796325684,-0.70654296875,0.05419921875,-0.288330078125
1.652,319,3147,1269,1480,-9.0,33.0,19.0,-15.563963890075684,30.822751998901367,27.832029342651367,-0.6883544921875,-0.056396484375,-0.197998046875
1.660,323,3147,1348,1770,-9.0,33.0,19.0,-10.803221702575684,32.28759765625,47.912593841552734,-0.563720703125,-0.0941162109375,-0.0518798828125
1.683,323,3147,1453,2085,-9.0,33.0,19.0,-10.803221702575684,32.28759765625,47.912593841552734,-0.2886962890625,0.0860595703125,0.08154296875
1.683,331,3147,1844,2727,-9.0,33.0,19.0,21.667478561401367,-8.11767578125,56.701656341552734,0.0576171875,0.4324951171875,0.1461181640625
1.690,329,3147,2093,3068,-9.0,33.0,19.0,9.82666015625,-38.63525390625,29.418943405151367,0.376220703125,0.9083251953125,0.017333984375
1.698,344,3147,2215,3147,-9.0,33.0,19.0,9.82666015625,-38.63525390625,29.418943405151367,0.545166015625,1.4185791015625,-0.164794921875
1.712,344,3147,2478,3147,-7.0,32.0,14.0,-138.61083984375,-67.7490234375,-18.5546875,0.353759765625,1.13525390625,-0.1761474609375
1.726,359,3147,2758,3147,-7.0,32.0,14.0,-199.09666442871094,-62.011714935302734,-38.6962890625,-0.168212890625,-0.724365234375,-0.2659912109375
1.745,359,3147,3010,3147,-7.0,32.0,14.0,-199.09666442871094,-62.011714935302734,-38.6962890625,-0.8262939453125,-2.1234130859375,-0.35498046875
1.745,432,3147,3147,3147,-7.0,32.0,14.0,-66.5283203125,-45.776363372802734,-50.842281341552734,-1.41357421875,-0.999267578125,-0.36572265625
1.750,710,3147,3147,3147,-7.0,32.0,14.0,-9.765625,-49.377437591552734,-3.112792730331421,-1.87158203125,0.9932861328125,-0.6978759765625
1.758,840,3147,3147,3147,-7.0,32.0,14.0,-9.765625,-49.377437591552734,-3.112792730331421,-2.6773681640625,2.4874267578125,-1.5677490234375
1.772,879,3147,3147,3147,-7.0,32.0,14.0,-64.88037109375,-13.732909202575684,23.803709030151367,-3.33447265625,1.639404296875,-2.001708984375
1.790,933,3147,3147,3147,-7.0,32.0,14.0,-86.30370330810547,-8.36181640625,-3.540038824081421,-2.346435546875,-0.7032470703125,-0.147216796875
1.791,859,3147,3147,3147,-7.0,32.0,14.0,-86.30370330810547,-8.36181640625,-3.540038824081421,-2.346435546875,-0.7032470703125,-0.147216796875
1.802,607,3147,3147,3147,-7.0,32.0,14.0,92.10204315185547,-9.70458984375,12.756346702575684,-0.553955078125,0.7342529296875,-0.063232421875
1.810,605,3147,3147,3147,-5.0,33.0,16.0,92.10204315185547,-9.70458984375,12.756346702575684,-0.830078125,0.8890380859375,-1.408447265625
1.818,630,3147,3147,3147,-5.0,33.0,16.0,118.10301971435547,30.029294967651367,3.112792730331421,-0.830078125,0.8890380859375,-1.408447265625
1.846,600,3147,3147,3147,-5.0,33.0,16.0,-2.563476324081421,0.3662109076976776,-29.907224655151367,-1.5308837890625,0.6512451171875,-1.343017578125
1.847,473,3147,3147,3147,-5.0,33.0,16.0,-2.563476324081421,0.3662109076976776,-29.907224655151367,-1.93212890625,0.64599609375,-1.0313720703125
1.849,379,3147,3147,3147,-5.0,33.0,16.0,-36.68212890625,-31.127927780151367,-27.404783248901367,-1.93212890625,0.64599609375,-1.0313720703125
1.862,363,3147,3082,3147,-5.0,33.0,16.0,-45.776363372802734,-44.433589935302734,-13.183592796325684,-1.906005859375,0.2216796875,-0.0426025390625
1.870,361,3147,2909,3147,-5.0,33.0,16.0,-45.776363372802734,-44.433589935302734,-13.183592796325684,-1.62451171875,0.2286376953125,0.1636962890625
1.885,359,3147,2619,3147,-5.0,33.0,16.0,-28.686521530151367,-27.038572311401367,-3.906249761581421,-1.62451171875,0.2286376953125,0.1636962890625
1.899,348,3147,2321,3147,-5.0,33.0,16.0,13.000487327575684,20.01953125,12.451170921325684,-0.9886474609375,0.3106689453125,-0.0634765625
1.901,346,3147,2170,3147,-5.0,33.0,16.0,13.000487327575684,20.01953125,12.451170921325684,-0.750732421875,0.2529296875,-0.1708984375
1.908,342,3147,2126,3147,-7.0,32.0,13.0,25.512693405151367,39.00146484375,13.793944358825684,-0.750732421875,0.2529296875,-0.1708984375
1.922,332,3147,1925,2787,-7.0,32.0,13.0,35.33935546875,59.692378997802734,2.44140625,-0.3192138671875,-0.2490234375,0.172607421875
1.930,328,3147,1541,2180,-7.0,32.0,13.0,35.33935546875,59.692378997802734,2.44140625,-0.107177734375,-0.538330078125,0.3018798828125
1.949,328,3147,1452,1789,-7.0,32.0,13.0,47.119136810302734,62.866207122802734,-3.906249761581421,-0.107177734375,-0.538330078125,0.3018798828125
1.953,328,3147,1330,1320,-7.0,32.0,13.0,83.98436737060547,42.968746185302734,0.9155272841453552,0.0567626953125,-0.04931640625,-0.1214599609375
1.961,327,3147,1278,1094,-7.0,32.0,13.0,83.98436737060547,42.968746185302734,0.9155272841453552,-0.1834716796875,0.3758544921875,-0.4681396484375
1.970,324,3147,1175,934,-7.0,32.0,13.0,84.71678924560547,19.1650390625,3.234863042831421,-0.1834716796875,0.3758544921875,-0.4681396484375
1.991,321,3147,1108,714,-7.0,32.0,13.0,51.513668060302734,-17.9443359375,-6.347655773162842,-0.669189453125,0.5428466796875,-0.73583984375
1.993,323,3147,1076,629,-7.0,32.0,13.0,51.513668060302734,-17.9443359375,-6.347655773162842,-0.7200927734375,0.531494140625,-0.68896484375
1.998,321,3147,1078,473,-7.0,32.0,13.0,34.5458984375,-19.287109375,-0.7934569716453552,-0.7200927734375,0.531494140625,-0.68896484375
2.012,321,3147,1175,353,-9.0,34.0,17.0,19.04296875,-16.2353515625,4.2724609375,-0.6280517578125,0.29296875,-0.19970703125
2.020,323,3147,1178,351,-9.0,34.0,17.0,1.0986328125,-15.930174827575684,-1.8310545682907104,-0.6280517578125,0.29296875,-0.19970703125
2.028,323,3147,1225,356,-9.0,34.0,17.0,-10.864256858825684,-17.02880859375,-12.084959983825684,-0.6661376953125,0.1798095703125,0.0181884765625
2.052,323,3147,1236,487,-9.0,34.0,17.0,-10.620116233825684,-16.6015625,-16.7236328125,-0.8231201171875,0.2510986328125,-0.0538330078125
2.053,323,3147,1261,539,-9.0,34.0,17.0,-3.540038824081421,-13.671874046325684,-15.869139671325684,-0.8231201171875,0.2510986328125,-0.0538330078125
2.058,323,3147,1236,582,-9.0,34.0,17.0,1.5869139432907104,-8.9111328125,-12.878417015075684,-0.8900146484375,0.275634765625,-0.2081298828125
2.073,323,3147,1189,646,-9.0,34.0,17.0,2.13623046875,-2.746581792831421,-9.21630859375,-0.8804931640625,0.237548828125,-0.3302001953125
2.080,321,3147,1157,653,-9.0,34.0,17.0,-0.1831054538488388,4.5166015625,-6.103515148162842,-0.8804931640625,0.237548828125,-0.3302001953125
2.090,323,3147,1202,703,-9.0,34.0,17.0,-2.990722417831421,12.268065452575684,-4.39453125,-0.8720703125,0.186767578125,-0.28955078125
2.102,323,3147,1206,802,-5.0,32.0,17.0,-4.69970703125,20.202634811401367,-2.929687261581421,-0.8653564453125,0.1033935546875,-0.2410888671875
2.111,322,3147,1184,849,-5.0,32.0,17.0,-4.57763671875,27.709959030151367,-0.2441406100988388,-0.8653564453125,0.1033935546875,-0.2410888671875
2.125,323,3147,1217,922,-5.0,32.0,17.0,-2.25830078125,34.60693359375,4.57763671875,-0.8502197265625,0.0926513671875,-0.270263671875
2.135,321,3147,1184,1089,-5.0,32.0,17.0,1.0986328125,41.320796966552734,11.596678733825684,-0.77001953125,0.0765380859375,-0.304931640625
2.153,321,3147,1185,1229,-5.0,32.0,17.0,2.50244140625,48.034664154052734,20.202634811401367,-0.77001953125,0.0765380859375,-0.304931640625
2.153,323,3147,1183,1393,-5.0,32.0,17.0,0.7324218153953552,53.588863372802734,29.785154342651367,-0.69384765625,0.07763671875,-0.30029296875
2.162,327,3147,1318,1745,-5.0,32.0,17.0,-3.051757574081421,55.969234466552734,39.4287109375,-0.546142578125,0.258056640625,-0.2449951171875
2.170,327,3147,1411,1970,-5.0,32.0,17.0,-8.60595703125,53.405757904052734,47.424312591552734,-0.546142578125,0.258056640625,-0.2449951171875
2.178,328,3147,1533,2233,-5.0,32.0,17.0,-17.39501953125,43.823238372802734,52.307125091552734,-0.409912109375,0.3094482421875,-0.143798828125
2.192,338,3147,1838,2769,-5.0,32.0,17.0,-28.808591842651367,23.925779342651367,50.476070404052734,0.215087890625,0.446044921875,0.149658203125
2.201,338,3147,2132,3126,-9.0,33.0,14.0,-41.076656341552734,-6.591796398162842,36.865234375,0.215087890625,0.446044921875,0.149658203125
2.208,351,3147,2242,3147,-9.0,33.0,14.0,-61.035152435302734,-36.92626953125,14.465331077575684,0.4571533203125,0.7037353515625,0.122314453125
2.222,356,3147,2386,3147,-9.0,33.0,14.0,-93.81102752685547,-53.222652435302734,-5.249022960662842,0.3565673828125,0.555908203125,-0.0076904296875
2.236,356,3147,2481,3147,-9.0,33.0,14.0,-115.41747283935547,-51.513668060302734,-22.888181686401367,-0.0914306640625,-0.43701171875,-0.1898193359375
2.265,348,3147,2700,3147,-9.0,33.0,14.0,-99.18212127685547,-36.376953125,-39.794921875,-0.5711669921875,-1.2816162109375,-0.2969970703125
2.266,361,3147,3092,3147,-9.0,33.0,14.0,-59.082027435302734,-20.935056686401367,-34.423828125,-0.965576171875,-0.6396484375,-0.36279296875
2.267,426,3147,3147,3147,-9.0,33.0,14.0,-29.968259811401367,-15.258788108825684,-3.234863042831421,-1.4525146484375,0.83056640625,-0.7803955078125
2.269,570,3147,3147,3147,-9.0,33.0,14.0,-33.0810546875,-19.59228515625,19.04296875,-2.1368408203125,1.7601318359375,-1.3323974609375
2.282,605,3147,3147,3147,-9.0,33.0,14.0,-67.07763671875,-14.953612327575684,18.5546875,-3.11328125,2.052734375,-2.117431640625
2.295,578,3147,3147,3147,-9.0,33.0,14.0,-99.42626190185547,0.6103515625,-0.4882812201976776,-3.0120849609375,0.4300537109375,-1.311279296875
2.298,548,3147,3147,3147,-5.0,35.0,11.0,-60.913082122802734,-23.193357467651367,-21.606443405151367,-1.615234375,-1.089111328125,1.04736328125
2.312,391,3147,3147,3147,-5.0,35.0,11.0,39.55078125,-32.65380859375,-9.09423828125,-0.7344970703125,-0.21728515625,1.2236328125
2.320,360,3147,3147,3147,-5.0,35.0,11.0,111.63329315185547,12.329100608825684,9.3994140625,-0.7076416015625,0.7471923828125,-0.4876708984375
2.328,362,3147,3147,3147,-5.0,35.0,11.0,110.16844940185547,40.771480560302734,-5.859374523162842,-0.9676513671875,0.7930908203125,-1.561767578125
2.366,418,3147,3147,3147,-5.0,35.0,11.0,62.072750091552734,29.602048873901367,-28.076169967651367,-1.3485107421875,0.666748046875,-1.6502685546875
2.367,362,3147,3147,3147,-5.0,35.0,11.0,16.845703125,-2.0751953125,-32.470703125,-1.89013671875,0.76123046875,-1.4844970703125
2.367,336,3147,3094,3147,-5.0,35.0,11.0,-14.587401390075684,-29.785154342651367,-25.756834030151367,-2.182373046875,0.5484619140625,-1.09033203125
2.373,361,3147,2949,3147,-5.0,35.0,11.0,-32.40966796875,-41.381832122802734,-13.488768577575684,-2.0054931640625,0.1954345703125,-0.450927734375
2.381,356,3147,2828,3147,-5.0,35.0,11.0,-27.343748092651367,-32.77587890625,3.234863042831421,-1.60791015625,0.1065673828125,0.0250244140625
2.389,348,3147,2551,3147,-5.0,35.0,11.0,-5.371093273162842,-11.779784202575684,16.05224609375,-1.241455078125,0.2703857421875,0.0899658203125
2.402,347,3147,2268,3147,-2.0,33.0,16.0,15.808104515075684,10.559081077575684,21.911619186401367,-0.9354248046875,0.4083251953125,-0.0841064453125
2.410,347,3147,2145,3147,-2.0,33.0,16.0,27.099607467651367,26.489255905151367,20.629880905151367,-0.6724853515625,0.3839111328125,-0.1884765625
2.419,338,3147,2226,3147,-2.0,33.0,16.0,30.639646530151367,33.447265625,12.390135765075684,-0.5133056640625,0.2728271484375,-0.1319580078125
2.432,338,3147,1855,2934,-2.0,33.0,16.0,31.677244186401367,30.090330123901367,1.220703125,-0.3726806640625,0.0347900390625,0.0499267578125
2.440,333,3147,1650,2473,-2.0,33.0,16.0,39.61181640625,20.263669967651367,-8.9111328125,-0.233154296875,-0.25,0.113037109375
2.463,330,3147,1627,2028,-2.0,33.0,16.0,57.800289154052734,11.291502952575684,-13.427733421325684,-0.1494140625,-0.2860107421875,-0.0665283203125
2.471,330,3147,1452,1455,-2.0,33.0,16.0,72.8759765625,1.7089842557907104,-12.573241233825684,-0.098876953125,-0.107177734375,-0.294677734375
2.471,327,3147,1390,1231,-2.0,33.0,16.0,73.66943359375,-9.94873046875,-12.390135765075684,-0.2342529296875,0.0943603515625,-0.4453125
2.479,328,3147,1365,1000,-2.0,33.0,16.0,63.293453216552734,-19.8974609375,-12.451170921325684,-0.50244140625,0.2159423828125,-0.4676513671875
2.492,321,3147,1253,688,-8.0,36.0,17.0,52.673336029052734,-22.949216842651367,-8.11767578125,-0.6759033203125,0.248291015625,-0.4296875
2.500,321,3147,1236,562,-8.0,36.0,17.0,49.072261810302734,-17.08984375,2.25830078125,-0.7335205078125,0.306640625,-0.3800048828125
2.508,323,3147,1243,454,-8.0,36.0,17.0,48.095699310302734,-8.6669921875,13.061522483825684,-0.705322265625,0.343017578125,-0.2572021484375
2.523,322,3147,1239,359,-8.0,36.0,17.0,42.663570404052734,-2.990722417831421,17.578125,-0.6605224609375,0.27880859375,-0.0892333984375
2.530,322,3147,1239,359,-8.0,36.0,17.0,35.2783203125,0.2441406100988388,18.37158203125,-0.6405029296875,0.2362060546875,0.02001953125
2.538,323,3147,1236,372,-8.0,36.0,17.0,31.616209030151367,1.9531248807907104,20.01953125,-0.6357421875,0.3218994140625,0.003662109375
2.563,323,3147,1234,468,-8.0,36.0,17.0,30.578611373901367,2.929687261581421,20.812986373901367,-0.65869140625,0.4710693359375,-0.1241455078125
2.563,321,3147,1220,574,-8.0,36.0,17.0,24.414060592651367,3.662109136581421,15.930174827575684,-0.7125244140625,0.537109375,-0.2677001953125
2.581,319,3147,1189,665,-8.0,36.0,17.0,9.6435546875,5.371093273162842,6.408690929412842,-0.752197265625,0.453125,-0.336669921875
2.585,321,3147,1160,797,-8.0,36.0,17.0,-7.019042491912842,10.559081077575684,-2.01416015625,-0.7645263671875,0.3001708984375,-0.3726806640625
2.592,321,3147,1175,864,-9.0,33.0,14.0,-16.29638671875,19.6533203125,-5.981444835662842,-0.7845458984375,0.1954345703125,-0.416015625
2.606,321,3147,1184,899,-9.0,33.0,14.0,-18.98193359375,29.418943405151367,-6.347655773162842,-0.81689453125,0.156005859375,-0.408935546875
2.612,323,3147,1198,999,-9.0,33.0,14.0,-20.812986373901367,36.865234375,-4.82177734375,-0.853515625,0.1529541015625,-0.3548583984375
2.620,323,3147,1222,1014,-9.0,33.0,14.0,-21.301267623901367,41.687007904052734,-2.563476324081421,-0.882568359375,0.1778564453125,-0.3243408203125
2.628,321,3147,1268,1067,-9.0,33.0,14.0,-18.85986328125,44.738765716552734,-0.4272460639476776,-0.8955078125,0.2149658203125,-0.3428955078125
2.642,323,3147,1366,1122,-9.0,33.0,14.0,-15.075682640075684,47.302242279052734,1.3427733182907104,-0.882568359375,0.2340087890625,-0.3798828125
2.668,323,3147,1397,1216,-9.0,33.0,14.0,-12.695311546325684,49.377437591552734,2.929687261581421,-0.831787109375,0.2142333984375,-0.3892822265625
2.668,328,3147,1428,1349,-9.0,33.0,14.0,-14.892577171325684,49.377437591552734,4.94384765625,-0.7388916015625,0.167724609375,-0.3355712890625
2.672,330,3147,1509,1613,-9.0,33.0,14.0,-21.972654342651367,45.959468841552734,8.1787109375,-0.6217041015625,0.1402587890625,-0.2572021484375
2.693,332,3147,1611,1855,-9.0,33.0,14.0,-29.052732467651367,40.344234466552734,13.610838890075684,-0.5234375,0.1866455078125,-0.19384765625
2.694,334,3147,1761,2124,-8.0,36.0,14.0,-33.935546875,29.968259811401367,19.8974609375,-0.364501953125,0.2510986328125,-0.0908203125
2.707,338,3147,2030,2652,-8.0,36.0,14.0,-38.2080078125,10.314940452575684,23.071287155151367,-0.055908203125,0.273681640625,0.0447998046875
2.710,347,3147,2244,3012,-8.0,36.0,14.0,-45.654293060302734,-15.624999046325684,21.667478561401367,0.3072509765625,0.3607177734375,0.107421875
2.719,355,3147,2458,3147,-8.0,36.0,14.0,-45.654293060302734,-15.624999046325684,21.667478561401367,0.6107177734375,0.4801025390625,0.126220703125
2.732,360,3147,2653,3147,-8.0,36.0,14.0,-79.58984375,-58.471675872802734,17.822265625,0.6444091796875,0.259521484375,0.1160888671875
2.740,363,3147,2772,3147,-8.0,36.0,14.0,-69.091796875,-57.250972747802734,3.601073980331421,0.1517333984375,-0.498779296875,-0.16748046875
2.748,363,3147,2965,3147,-8.0,36.0,14.0,-69.091796875,-57.250972747802734,3.601073980331421,-0.640380859375,-0.9866943359375,-0.5140380859375
2.770,409,3147,3147,3147,-8.0,36.0,14.0,7.385253429412842,-44.006343841552734,-32.04345703125,-1.334716796875,-0.25439453125,-0.6534423828125
2.770,684,3147,3147,3147,-8.0,36.0,14.0,7.507323741912842,-51.147457122802734,-9.8876953125,-1.8896484375,1.0335693359375,-0.9520263671875
2.778,706,3147,3147,3147,-8.0,36.0,14.0,7.507323741912842,-51.147457122802734,-9.8876953125,-2.741455078125,2.33203125,-1.847900390625
2.796,822,3147,3147,3147,-7.0,36.0,14.0,-113.28124237060547,-13.916014671325684,5.615233898162842,-3.3590087890625,1.615478515625,-2.1307373046875
2.801,867,3147,3147,3147,-7.0,36.0,14.0,-159.3017578125,-22.094724655151367,-22.583005905151367,-2.3939208984375,-0.7637939453125,0.063232421875
2.820,844,3147,3147,3147,-7.0,36.0,14.0,-159.3017578125,-22.094724655151367,-22.583005905151367,-1.048095703125,-0.797607421875,1.568603515625
2.822,636,3147,3147,3147,-7.0,36.0,14.0,62.988277435302734,-23.620603561401367,13.061522483825684,-0.6783447265625,0.446533203125,0.194580078125
2.833,564,3147,3147,3147,-7.0,36.0,14.0,136.23046875,23.803709030151367,9.8876953125,-0.796875,0.720947265625,-1.4407958984375
2.839,639,3147,3147,3147,-7.0,36.0,14.0,136.23046875,23.803709030151367,9.8876953125,-1.0087890625,0.6865234375,-1.902587890625
2.852,573,3147,3147,3147,-7.0,36.0,14.0,28.259275436401367,-3.417968511581421,-19.8974609375,-1.3729248046875,0.9166259765625,-1.6927490234375
2.869,490,3147,3147,3147,-7.0,36.0,14.0,-30.090330123901367,-37.53662109375,-25.695798873901367,-1.8629150390625,0.981201171875,-1.397216796875
2.870,491,3147,3147,3147,-7.0,36.0,14.0,-30.090330123901367,-37.53662109375,-25.695798873901367,-2.0655517578125,0.6309814453125,-0.7965087890625
2.882,376,3147,3147,3147,-4.0,37.0,16.0,-75.5615234375,-54.626461029052734,-26.794431686401367,-1.912353515625,0.2958984375,-0.0899658203125
2.914,364,3147,3126,3147,-4.0,37.0,16.0,-56.396480560302734,-36.865234375,-19.47021484375,-1.62353515625,0.2381591796875,0.2476806640625
2.914,360,3147,2851,3147,-4.0,37.0,16.0,-56.396480560302734,-36.865234375,-19.47021484375,-1.314208984375,0.3861083984375,0.1168212890625
2.914,354,3147,2507,3147,-4.0,37.0,16.0,1.8310545682907104,17.02880859375,-0.30517578125,-0.9444580078125,0.364013671875,-0.0423583984375
2.920,348,3147,2310,3147,-4.0,37.0,16.0,16.845703125,35.888671875,2.3193359375,-0.614990234375,0.08154296875,0.040283203125
2.934,347,3147,2214,3146,-4.0,37.0,16.0,16.845703125,35.888671875,2.3193359375,-0.614990234375,0.08154296875,0.040283203125
2.942,331,3147,1705,2419,-4.0,37.0,16.0,39.1845703125,56.030269622802734,-2.807616949081421,-0.3564453125,-0.4456787109375,0.3316650390625
2.950,330,3147,1557,1989,-4.0,37.0,16.0,39.1845703125,56.030269622802734,-2.807616949081421,-0.2386474609375,-0.5302734375,0.2373046875
2.971,327,3147,1568,1640,-4.0,37.0,16.0,61.340328216552734,53.588863372802734,-1.15966796875,-0.2386474609375,-0.5302734375,0.2373046875
2.972,327,3147,1377,1051,-4.0,37.0,16.0,101.19628143310547,12.023924827575684,9.94873046875,-0.0084228515625,0.1060791015625,-0.04248046875
2.980,322,3147,1312,835,-8.0,34.0,18.0,101.19628143310547,12.023924827575684,9.94873046875,-0.2003173828125,0.3936767578125,-0.3509521484375
2.989,324,3147,1233,684,-8.0,34.0,18.0,102.47801971435547,-8.1787109375,12.023924827575684,-0.2003173828125,0.3936767578125,-0.3509521484375
3.016,321,3147,1116,480,-8.0,34.0,18.0,79.1015625,-18.61572265625,0.30517578125,-0.6318359375,0.4786376953125,-0.78125
3.017,318,3147,1070,360,-8.0,34.0,18.0,79.1015625,-18.61572265625,0.30517578125,-0.70947265625,0.610595703125,-0.818603515625
3.025,318,3088,1108,359,-8.0,34.0,18.0,57.067867279052734,-14.648436546325684,3.112792730331421,-0.70947265625,0.610595703125,-0.818603515625
3.037,316,2758,1095,354,-8.0,34.0,18.0,1.9531248807907104,-17.2119140625,-10.620116233825684,-0.7138671875,0.3603515625,-0.3251953125
3.044,318,2698,1091,355,-8.0,34.0,18.0,1.9531248807907104,-17.2119140625,-10.620116233825684,-0.74609375,0.160888671875,-0.07373046875
3.049,319,2527,1103,356,-8.0,34.0,18.0,-20.385740280151367,-21.118162155151367,-19.04296875,-0.74609375,0.160888671875,-0.07373046875
3.073,319,2497,1098,354,-8.0,34.0,18.0,-6.774901866912842,-19.59228515625,-13.916014671325684,-0.799072265625,0.2230224609375,-0.1348876953125
3.074,318,2419,1105,327,-8.0,34.0,18.0,-6.774901866912842,-19.59228515625,-13.916014671325684,-0.8134765625,0.2740478515625,-0.26611328125
3.079,321,2486,1101,355,-9.0,33.0,19.0,7.995604991912842,-12.939452171325684,-9.33837890625,-0.8134765625,0.2740478515625,-0.26611328125
3.092,321,2598,1078,355,-9.0,33.0,19.0,13.854979515075684,1.5258787870407104,-2.197265625,-0.7679443359375,0.3685302734375,-0.2960205078125
3.103,321,2657,1104,351,-9.0,33.0,19.0,13.854979515075684,1.5258787870407104,-2.197265625,-0.7449951171875,0.317138671875,-0.248291015625
3.121,317,2803,1078,360,-9.0,33.0,19.0,8.30078125,6.530761241912842,-1.7089842557907104,-0.7449951171875,0.317138671875,-0.248291015625
3.122,319,2989,1067,359,-9.0,33.0,19.0,3.906249761581421,11.230467796325684,-1.9531248807907104,-0.737548828125,0.22216796875,-0.235595703125
3.142,323,3147,1098,463,-9.0,33.0,19.0,0.3662109076976776,14.953612327575684,-0.3662109076976776,-0.6849365234375,0.1197509765625,-0.293701171875
3.146,316,3147,1120,646,-9.0,33.0,19.0,-4.94384765625,13.977049827575684,1.2817381620407104,-0.6849365234375,0.1197509765625,-0.293701171875
3.150,318,3147,1156,802,-9.0,33.0,19.0,-11.047362327575684,12.329100608825684,3.662109136581421,-0.7615966796875,0.047119140625,-0.2786865234375
3.176,318,3147,1199,1101,-9.0,33.0,19.0,-11.352538108825684,16.29638671875,13.854979515075684,-0.7548828125,0.1365966796875,-0.2381591796875
3.176,324,3147,1224,1413,-9.0,33.0,19.0,-5.920409679412842,21.667478561401367,28.625486373901367,-0.7548828125,0.1365966796875,-0.2381591796875
3.178,324,3147,1184,1593,-9.0,34.0,14.0,-3.540038824081421,23.864744186401367,37.4755859375,-0.6854248046875,0.2415771484375,-0.232421875
3.192,328,3147,1440,1941,-9.0,34.0,14.0,-6.896972179412842,24.658201217651367,39.55078125,-0.6177978515625,0.311767578125,-0.2841796875
3.201,332,3147,1547,2213,-9.0,34.0,14.0,-13.610838890075684,24.108884811401367,39.61181640625,-0.6177978515625,0.311767578125,-0.2841796875
3.222,332,3147,1822,2498,-9.0,34.0,14.0,-22.644041061401367,16.7236328125,38.63525390625,-0.45703125,0.32568359375,-0.166748046875
3.222,336,3147,2218,3056,-9.0,34.0,14.0,-30.212400436401367,-0.1220703050494194,31.372068405151367,0.1632080078125,0.5406494140625,0.0625
3.230,346,3147,2582,3147,-9.0,34.0,14.0,-36.4990234375,-24.353025436401367,10.070799827575684,0.1632080078125,0.5406494140625,0.0625
3.237,359,3147,2723,3147,-9.0,34.0,14.0,-59.204097747802734,-45.349117279052734,-23.315427780151367,0.300537109375,0.615234375,-0.0164794921875
3.252,363,3147,2624,3147,-9.0,34.0,14.0,-107.54393768310547,-46.264644622802734,-48.034664154052734,0.0533447265625,0.106201171875,-0.1842041015625
3.259,364,3147,2801,3147,-9.0,34.0,14.0,-139.22119140625,-29.357908248901367,-55.236812591552734,-0.3245849609375,-0.893310546875,-0.26513671875
3.279,373,3147,2950,3147,-9.0,34.0,14.0,-118.34716033935547,-14.404295921325684,-49.194332122802734,-0.588623046875,-1.1966552734375,-0.0736083984375
3.281,378,3147,3147,3147,-7.0,33.0,14.0,-67.7490234375,-9.82666015625,-24.291990280151367,-0.884033203125,-0.2159423828125,0.0447998046875
3.290,567,3147,3147,3147,-7.0,33.0,14.0,-26.245115280151367,-11.230467796325684,9.70458984375,-1.341064453125,1.0806884765625,-0.4017333984375
3.298,745,3147,3147,3147,-7.0,33.0,14.0,-16.05224609375,-15.502928733825684,22.155759811401367,-2.0115966796875,1.770751953125,-1.1444091796875
3.311,778,3147,3147,3147,-7.0,33.0,14.0,-39.97802734375,-7.202147960662842,11.291502952575684,-3.04248046875,2.0479736328125,-2.1751708984375
3.326,739,3147,3147,3147,-7.0,33.0,14.0,-78.9794921875,10.559081077575684,-11.108397483825684,-3.1356201171875,0.4271240234375,-1.568359375
3.327,675,3147,3147,3147,-7.0,33.0,14.0,-64.51416015625,-14.221190452575684,-29.785154342651367,-1.829345703125,-1.172119140625,0.756591796875
3.341,473,3147,3147,3147,-7.0,33.0,14.0,25.207517623901367,-26.184080123901367,-13.610838890075684,-0.866455078125,-0.359130859375,1.08984375
3.350,401,3147,3147,3147,-7.0,33.0,14.0,103.02733612060547,15.197752952575684,9.765625,-0.796875,0.56884765625,-0.5133056640625
3.363,442,3147,3147,3147,-7.0,33.0,14.0,102.47801971435547,38.2080078125,4.33349609375,-1.0181884765625,0.7000732421875,-1.595703125
3.381,487,3147,3147,3147,-6.0,30.0,19.0,51.635738372802734,20.812986373901367,-10.009765625,-1.3201904296875,0.7293701171875,-1.6932373046875
3.381,388,3147,3147,3147,-6.0,30.0,19.0,3.295898199081421,-16.17431640625,-16.2353515625,-1.7607421875,0.921142578125,-1.494384765625
3.387,361,3147,3130,3147,-6.0,30.0,19.0,-27.282712936401367,-46.264644622802734,-19.287109375,-2.087158203125,0.7252197265625,-1.10205078125
3.405,355,3147,2963,3147,-6.0,30.0,19.0,-40.161128997802734,-58.349605560302734,-18.6767578125,-2.060546875,0.337890625,-0.457275390625
3.409,354,3147,2821,3147,-6.0,30.0,19.0,-32.8369140625,-51.208492279052734,-9.58251953125,-1.794189453125,0.2054443359375,0.1107177734375
3.421,347,3147,2571,3147,-6.0,30.0,19.0,-9.6435546875,-31.433103561401367,1.9531248807907104,-1.465576171875,0.3160400390625,0.322998046875
3.431,345,3147,2194,3147,-6.0,30.0,19.0,16.9677734375,-7.568358898162842,10.498045921325684,-1.0609130859375,0.3685302734375,0.267333984375
3.439,338,3147,2102,3147,-6.0,30.0,19.0,37.109375,14.892577171325684,13.122557640075684,-0.6654052734375,0.23291015625,0.1741943359375
3.447,334,3147,2089,3147,-6.0,30.0,19.0,49.865718841552734,34.24072265625,9.70458984375,-0.428466796875,0.1002197265625,0.13134765625
3.461,330,3147,1709,2981,-6.0,30.0,19.0,56.457515716552734,46.874996185302734,3.540038824081421,-0.307373046875,-0.0008544921875,0.0625
3.485,327,3147,1474,2325,-8.0,36.0,12.0,60.302730560302734,50.292964935302734,-4.2724609375,-0.243408203125,-0.190673828125,-0.0693359375
3.486,306,3147,1415,1996,-8.0,36.0,12.0,67.93212890625,43.151851654052734,-10.742186546325684,-0.1697998046875,-0.3642578125,-0.2037353515625
3.492,324,3147,1198,1409,-8.0,36.0,12.0,78.06396484375,26.367185592651367,-11.779784202575684,-0.0963134765625,-0.3525390625,-0.2618408203125
3.499,328,3147,1155,1160,-8.0,36.0,12.0,82.58055877685547,8.9111328125,-7.568358898162842,-0.1990966796875,-0.1396484375,-0.3033447265625
3.507,324,3147,1116,920,-8.0,36.0,12.0,81.23778533935547,-2.50244140625,-1.8920897245407104,-0.442138671875,0.1380615234375,-0.3675537109375
3.524,323,3147,1029,545,-8.0,36.0,12.0,80.01708984375,-6.591796398162842,4.5166015625,-0.635498046875,0.3427734375,-0.451416015625
3.536,321,3147,1001,361,-8.0,36.0,12.0,76.416015625,-4.57763671875,14.465331077575684,-0.7215576171875,0.4906005859375,-0.535888671875
3.537,318,3058,951,354,-8.0,36.0,12.0,62.988277435302734,-3.845214605331421,22.949216842651367,-0.66796875,0.594482421875,-0.5093994140625
3.551,321,2612,1031,348,-8.0,36.0,12.0,37.17041015625,-10.681151390075684,17.822265625,-0.5908203125,0.568359375,-0.351806640625
3.561,321,2541,1056,351,-8.0,36.0,12.0,7.690429210662842,-21.606443405151367,0.4882812201976776,-0.6197509765625,0.4346923828125,-0.1302490234375
3.568,323,2631,1081,351,-9.0,32.0,16.0,-10.192870140075684,-29.479978561401367,-14.038084983825684,-0.712158203125,0.30908203125,0.02783203125
3.588,318,2658,1079,348,-9.0,32.0,16.0,-6.896972179412842,-29.052732467651367,-15.624999046325684,-0.809814453125,0.2578125,0.009033203125
3.589,318,2723,1097,327,-9.0,32.0,16.0,13.000487327575684,-20.874021530151367,-6.164550304412842,-0.841064453125,0.29736328125,-0.144287109375
3.597,321,2760,1071,356,-9.0,32.0,16.0,31.860349655151367,-11.596678733825684,2.807616949081421,-0.8001708984375,0.3526611328125,-0.2811279296875
3.612,318,2886,1045,354,-9.0,32.0,16.0,33.5693359375,-5.0048828125,2.44140625,-0.7738037109375,0.334228515625,-0.318359375
3.621,321,3000,1055,359,-9.0,32.0,16.0,21.728513717651367,1.0986328125,-3.356933355331421,-0.774658203125,0.2479248046875,-0.300048828125
3.627,323,3121,1042,360,-9.0,32.0,16.0,9.94873046875,7.934569835662842,-7.507323741912842,-0.78271484375,0.1693115234375,-0.289306640625
3.643,319,3147,1032,401,-9.0,32.0,16.0,2.807616949081421,14.465331077575684,-7.629394054412842,-0.8018798828125,0.148193359375,-0.3045654296875
3.649,321,3147,1050,590,-9.0,32.0,16.0,-1.3427733182907104,18.9208984375,-4.5166015625,-0.8121337890625,0.148681640625,-0.337158203125
3.657,321,3147,1051,746,-9.0,32.0,16.0,-4.0283203125,20.324705123901367,0.2441406100988388,-0.79296875,0.1348876953125,-0.3603515625
3.671,322,3147,1055,984,-9.0,33.0,13.0,-6.530761241912842,19.6533203125,6.347655773162842,-0.7542724609375,0.117431640625,-0.3621826171875
3.689,321,3147,1112,1122,-9.0,33.0,13.0,-8.9111328125,18.98193359375,12.939452171325684,-0.7208251953125,0.126953125,-0.33837890625
3.692,323,3147,1183,1306,-9.0,33.0,13.0,-10.925292015075684,19.71435546875,18.85986328125,-0.695556640625,0.167236328125,-0.2904052734375
3.702,327,3147,1229,1681,-9.0,33.0,13.0,-12.634276390075684,21.362302780151367,22.888181686401367,-0.6685791015625,0.194580078125,-0.2359619140625
3.711,328,3147,1385,1929,-9.0,33.0,13.0,-14.526366233825684,22.460935592651367,24.841306686401367,-0.619140625,0.1849365234375,-0.1905517578125
3.718,325,3147,1602,2233,-9.0,33.0,13.0,-14.526366233825684,22.460935592651367,24.841306686401367,-0.495849609375,0.153076171875,-0.1221923828125
3.731,328,3147,1878,2792,-9.0,33.0,13.0,-24.414060592651367,7.263183116912842,22.583005905151367,-0.2642822265625,0.1983642578125,-0.016845703125
3.764,333,3147,2035,3064,-9.0,33.0,13.0,-36.7431640625,-9.09423828125,15.808104515075684,0.0084228515625,0.4554443359375,0.0380859375
3.764,346,3147,2176,3147,-9.0,33.0,13.0,-36.7431640625,-9.09423828125,15.808104515075684,0.1986083984375,0.7939453125,0.010009765625
3.764,364,3147,2418,3147,-7.0,35.0,14.0,-100.46385955810547,-28.747556686401367,-15.380858421325684,0.192138671875,0.7376708984375,-0.02099609375
3.770,359,3147,2430,3147,-7.0,35.0,14.0,-144.1650390625,-24.291990280151367,-26.550291061401367,-0.0504150390625,-0.123291015625,-0.08837890625
3.791,359,3147,2578,3147,-7.0,35.0,14.0,-144.1650390625,-24.291990280151367,-26.550291061401367,-0.4254150390625,-1.208740234375,-0.1414794921875
3.791,371,3147,3065,3147,-7.0,35.0,14.0,-100.58592987060547,-13.427733421325684,-37.2314453125,-0.7569580078125,-1.1297607421875,-0.146240234375
3.799,373,3147,3147,3147,-7.0,35.0,14.0,-33.203125,-20.080564498901367,-8.4228515625,-1.1163330078125,0.2762451171875,-0.4962158203125
3.814,604,3147,3147,3147,-7.0,35.0,14.0,-33.203125,-20.080564498901367,-8.4228515625,-1.597900390625,1.4564208984375,-1.155517578125
3.830,777,3147,3147,3147,-7.0,35.0,14.0,-23.742673873901367,-38.330078125,18.798828125,-2.4671630859375,2.21728515625,-1.8558349609375
3.831,869,3147,3147,3147,-7.0,35.0,14.0,-98.69384002685547,-9.3994140625,1.7700194120407104,-3.2864990234375,1.3330078125,-2.0970458984375
3.837,946,3147,3147,3147,-7.0,35.0,14.0,-98.69384002685547,-9.3994140625,1.7700194120407104,-2.466796875,-0.694580078125,-0.1751708984375
3.855,963,3147,3147,3147,-7.0,35.0,14.0,-97.47313690185547,-30.517576217651367,-4.638671875,-0.9794921875,-0.5819091796875,1.5499267578125
3.859,922,3147,3147,3147,-5.0,33.0,19.0,18.1884765625,-10.192870140075684,22.399900436401367,-0.585693359375,0.5465087890625,0.3702392578125
3.868,909,3147,3147,3147,-5.0,33.0,19.0,18.1884765625,-10.192870140075684,22.399900436401367,-0.9005126953125,0.8453369140625,-1.3521728515625
3.901,934,3147,3147,3147,-5.0,33.0,19.0,58.410640716552734,29.357908248901367,-7.080077648162842,-1.2254638671875,0.63525390625,-1.65185546875
3.901,912,3147,3147,3147,-5.0,33.0,19.0,5.126952648162842,-7.934569835662842,-20.324705123901367,-1.4346923828125,0.534423828125,-1.1051025390625
3.902,827,3147,3147,3147,-5.0,33.0,19.0,5.126952648162842,-7.934569835662842,-20.324705123901367,-1.810791015625,0.6588134765625,-0.81787109375
3.912,582,3147,3147,3147,-5.0,33.0,19.0,-37.841796875,-48.706050872802734,-15.869139671325684,-2.092529296875,0.63818359375,-0.5765380859375
3.919,400,3147,3147,3147,-5.0,33.0,19.0,-49.377437591552734,-40.466304779052734,-10.498045921325684,-2.010986328125,0.4869384765625,-0.1644287109375
3.937,371,3147,3147,3147,-5.0,33.0,19.0,-49.377437591552734,-40.466304779052734,-10.498045921325684,-1.753173828125,0.444580078125,0.12646484375
3.941,363,3147,2798,3147,-5.0,33.0,19.0,-26.977537155151367,8.23974609375,-7.995604991912842,-1.44677734375,0.486328125,0.18505859375
3.949,356,3147,2494,3147,-5.0,33.0,19.0,-26.977537155151367,8.23974609375,-7.995604991912842,-1.078369140625,0.389404296875,0.152099609375
3.962,348,3147,2368,3147,-6.0,32.0,15.0,-1.4648436307907104,33.935546875,-6.591796398162842,-1.078369140625,0.389404296875,0.152099609375
3.971,338,3147,1966,3147,-6.0,32.0,15.0,53.649898529052734,69.15283203125,3.417968511581421,-0.57568359375,-0.1416015625,0.02880859375
3.998,337,3147,1949,2978,-6.0,32.0,15.0,53.649898529052734,69.15283203125,3.417968511581421,-0.45556640625,-0.3724365234375,0.097412109375
3.998,330,3147,1504,2514,-6.0,32.0,15.0,73.18115234375,72.021484375,8.30078125,-0.45556640625,-0.3724365234375,0.097412109375
4.002,334,3147,1336,1675,-6.0,32.0,15.0,104.18700408935547,49.011226654052734,17.4560546875,-0.10791015625,-0.510986328125,0.0272216796875
4.010,323,3147,1260,1351,-6.0,32.0,15.0,104.18700408935547,49.011226654052734,17.4560546875,-0.0328369140625,-0.188232421875,-0.1636962890625
4.018,318,3147,1213,864,-6.0,32.0,15.0,120.11717987060547,28.564451217651367,24.353025436401367,-0.0328369140625,-0.188232421875,-0.1636962890625
4.043,317,3147,1146,497,-6.0,32.0,15.0,120.84960174560547,-11.657713890075684,25.878904342651367,-0.4385986328125,0.3602294921875,-0.6177978515625
4.043,317,3147,1076,361,-6.0,32.0,15.0,120.84960174560547,-11.657713890075684,25.878904342651367,-0.5826416015625,0.3377685546875,-0.755859375
4.048,316,3053,1005,356,-6.0,32.0,15.0,111.81639862060547,-24.841306686401367,19.47021484375,-0.5826416015625,0.3377685546875,-0.755859375
4.061,318,2599,1070,344,-11.0,34.0,13.0,67.7490234375,-30.151365280151367,29.357908248901367,-0.5914306640625,0.6553955078125,-0.6024169921875
4.070,321,2456,1137,348,-11.0,34.0,13.0,67.7490234375,-30.151365280151367,29.357908248901367,-0.53466796875,0.67724609375,-0.3494873046875
4.077,318,2379,1198,347,-11.0,34.0,13.0,39.36767578125,-30.334470748901367,25.756834030151367,-0.53466796875,0.67724609375,-0.3494873046875
4.098,319,2494,1248,346,-11.0,34.0,13.0,-18.798828125,-35.09521484375,-8.056640625,-0.7618408203125,0.40966796875,0.0609130859375
4.100,306,2504,1251,349,-11.0,34.0,13.0,-18.798828125,-35.09521484375,-8.056640625,-0.85498046875,0.3641357421875,-0.0205078125
4.107,317,2507,1251,352,-11.0,34.0,13.0,-14.648436546325684,-31.188962936401367,-10.498045921325684,-0.85498046875,0.3641357421875,-0.0205078125
4.121,318,2579,1216,348,-11.0,34.0,13.0,10.009765625,-18.61572265625,-6.591796398162842,-0.82080078125,0.314697265625,-0.25537109375
4.140,316,2668,1224,354,-11.0,34.0,13.0,10.009765625,-18.61572265625,-6.591796398162842,-0.814453125,0.23388671875,-0.272705078125
4.140,316,2717,1231,352,-11.0,34.0,13.0,6.896972179412842,-11.901854515075684,-11.352538108825684,-0.814453125,0.23388671875,-0.272705078125
4.152,317,2935,1211,352,-11.0,34.0,13.0,1.5869139432907104,3.234863042831421,-14.038084983825684,-0.806884765625,0.139404296875,-0.2340087890625
4.159,316,3058,1185,359,-11.0,35.0,17.0,1.5869139432907104,3.234863042831421,-14.038084983825684,-0.7972412109375,0.1234130859375,-0.2196044921875
4.167,318,3147,1155,359,-11.0,35.0,17.0,3.295898199081421,10.681151390075684,-8.9111328125,-0.7972412109375,0.1234130859375,-0.2196044921875
4.181,318,3147,1130,644,-11.0,35.0,17.0,6.042479991912842,17.08984375,-1.15966796875,-0.7259521484375,0.1002197265625,-0.2332763671875
4.200,317,3147,1147,811,-11.0,35.0,17.0,10.986327171325684,22.155759811401367,7.507323741912842,-0.7259521484375,0.1002197265625,-0.2332763671875
4.202,318,3147,1170,1063,-11.0,35.0,17.0,16.90673828125,25.634763717651367,15.747069358825684,-0.675048828125,0.1466064453125,-0.263427734375
4.211,319,3147,1157,1415,-11.0,35.0,17.0,19.83642578125,27.954099655151367,21.911619186401367,-0.607177734375,0.349609375,-0.3345947265625
4.219,321,3147,1160,1595,-11.0,35.0,17.0,15.502928733825684,29.663084030151367,24.291990280151367,-0.607177734375,0.349609375,-0.3345947265625
4.236,321,3147,1189,1826,-11.0,35.0,17.0,2.685546636581421,30.456541061401367,22.033689498901367,-0.6011962890625,0.383544921875,-0.335205078125
4.241,324,3147,1312,2161,-11.0,35.0,17.0,-14.221190452575684,29.357908248901367,16.9677734375,-0.6175537109375,0.2864990234375,-0.2808837890625
4.250,324,3147,1441,2430,-11.0,35.0,17.0,-27.648923873901367,24.719236373901367,12.451170921325684,-0.6175537109375,0.2864990234375,-0.2808837890625
4.264,327,3147,1609,2757,-12.0,34.0,14.0,-36.80419921875,15.258788108825684,9.33837890625,-0.505859375,0.2509765625,-0.1732177734375
4.271,336,3147,1981,3147,-12.0,34.0,14.0,-47.790523529052734,1.2817381620407104,4.45556640625,0.001220703125,0.50390625,0.0086669921875
4.284,349,3147,2218,3147,-12.0,34.0,14.0,-65.49072265625,-18.24951171875,-9.33837890625,0.001220703125,0.50390625,0.0086669921875
4.305,356,3147,2395,3147,-12.0,34.0,14.0,-98.20555877685547,-37.65869140625,-33.203125,0.1158447265625,0.65576171875,-0.038818359375
4.305,361,3147,2580,3147,-12.0,34.0,14.0,-151.3671875,-45.532222747802734,-50.109859466552734,-0.224365234375,-0.97705078125,-0.01220703125
4.309,371,3147,2912,3147,-12.0,34.0,14.0,-184.14305114746094,-44.311519622802734,-50.476070404052734,-0.224365234375,-0.97705078125,-0.01220703125
4.317,376,3147,3147,3147,-12.0,34.0,14.0,-142.333984375,-40.161128997802734,-40.954586029052734,-0.453369140625,-1.5050048828125,0.07421875
4.338,553,3147,3147,3147,-12.0,34.0,14.0,-52.062984466552734,-35.58349609375,-15.319823265075684,-1.386474609375,1.3013916015625,-0.92041015625
4.339,860,3147,3147,3147,-12.0,34.0,14.0,9.3994140625,-36.376953125,14.953612327575684,-1.386474609375,1.3013916015625,-0.92041015625
4.347,995,3147,3147,3147,-12.0,34.0,14.0,6.347655773162842,-42.724605560302734,16.7236328125,-2.0989990234375,1.9854736328125,-1.4276123046875
4.361,1043,3147,3147,3147,-4.0,31.0,16.0,-43.151851654052734,-28.442380905151367,2.929687261581421,-3.0604248046875,0.085205078125,-0.7723388671875
4.369,1018,3147,3147,3147,-4.0,31.0,16.0,-88.19579315185547,1.220703125,-13.610838890075684,-3.0604248046875,0.085205078125,-0.7723388671875
4.377,992,3147,3147,3147,-4.0,31.0,16.0,-63.110347747802734,-11.718749046325684,-15.258788108825684,-1.5386962890625,-1.005615234375,1.3328857421875
4.405,818,3147,3147,3147,-4.0,31.0,16.0,44.189449310302734,-13.122557640075684,7.141112804412842,-0.6619873046875,0.0997314453125,0.919677734375
4.405,797,3147,3147,3147,-4.0,31.0,16.0,128.35693359375,30.334470748901367,12.817381858825684,-0.87158203125,0.708251953125,-1.0230712890625
4.408,835,3147,3147,3147,-4.0,31.0,16.0,105.28563690185547,44.738765716552734,-3.295898199081421,-1.189697265625,0.5072021484375,-1.8365478515625
4.421,786,3147,3147,3147,-4.0,31.0,16.0,28.930662155151367,13.793944358825684,-13.183592796325684,-1.3878173828125,0.41015625,-1.520751953125
4.429,678,3147,3147,3147,-4.0,31.0,16.0,-27.099607467651367,-29.235837936401367,-11.047362327575684,-1.6490478515625,0.640869140625,-1.094482421875
4.437,547,3147,3147,3147,-4.0,31.0,16.0,-52.429195404052734,-55.725093841552734,-7.507323741912842,-1.91259765625,0.7008056640625,-0.7489013671875
4.451,376,3147,3147,3147,-4.0,31.0,16.0,-58.654781341552734,-61.340328216552734,-5.126952648162842,-1.9210205078125,0.55810546875,-0.2490234375
4.459,378,3147,3147,3147,-4.0,31.0,16.0,-48.339839935302734,-48.217769622802734,-3.906249761581421,-1.7227783203125,0.476806640625,0.1416015625
4.467,371,3147,2920,3147,-4.0,31.0,16.0,-26.672361373901367,-23.010251998901367,-4.21142578125,-1.48828125,0.4886474609375,0.233642578125
4.481,361,3147,2440,3147,-4.0,31.0,16.0,-1.8310545682907104,6.042479991912842,-4.2724609375,-1.22021484375,0.501708984375,0.103759765625
4.508,352,3147,2233,3147,-4.0,31.0,16.0,17.51708984375,32.53173828125,-3.601073980331421,-0.8734130859375,0.371826171875,0.012939453125
4.509,347,3147,2083,3147,-4.0,31.0,16.0,29.846189498901367,56.091304779052734,-4.33349609375,-0.6121826171875,0.12353515625,-0.003662109375
4.511,338,3147,1806,2887,-4.0,31.0,16.0,35.94970703125,74.89013671875,-5.249022960662842,-0.4866943359375,-0.094482421875,0.065185546875
4.519,331,3147,1437,2321,-4.0,31.0,16.0,38.330078125,83.80126190185547,-4.82177734375,-0.3778076171875,-0.3438720703125,0.1971435546875
4.527,326,3147,1306,1892,-4.0,31.0,16.0,49.682613372802734,82.45848846435547,-4.8828125,-0.256591796875,-0.520263671875,0.2325439453125
4.549,323,3147,1093,1397,-4.0,31.0,16.0,70.49560546875,68.54248046875,-3.417968511581421,-0.16162109375,-0.3206787109375,0.162353515625
4.550,321,3147,1132,963,-6.0,32.0,18.0,84.16747283935547,43.334957122802734,0.6103515625,-0.1573486328125,0.0859375,-0.027587890625
4.557,321,3147,1022,794,-6.0,32.0,18.0,87.82958221435547,18.310546875,1.15966796875,-0.306884765625,0.283203125,-0.405517578125
4.571,319,3147,996,683,-6.0,32.0,18.0,85.38817596435547,-0.30517578125,-1.2817381620407104,-0.49072265625,0.27392578125,-0.7489013671875
4.579,318,3147,1025,621,-6.0,32.0,18.0,71.59423828125,-14.282225608825684,1.9531248807907104,-0.5841064453125,0.2991943359375,-0.8453369140625
4.587,317,3147,1032,553,-6.0,32.0,18.0,51.635738372802734,-22.216794967651367,12.329100608825684,-0.615478515625,0.4552001953125,-0.7760009765625
4.612,318,3147,1063,385,-6.0,32.0,18.0,32.470703125,-26.550291061401367,16.66259765625,-0.611572265625,0.544921875,-0.5682373046875
4.612,318,3147,1131,362,-6.0,32.0,18.0,9.70458984375,-30.334470748901367,7.568358898162842,-0.632080078125,0.427978515625,-0.27294921875
4.617,318,3147,1156,430,-6.0,32.0,18.0,-12.084959983825684,-32.53173828125,-4.2724609375,-0.675048828125,0.298583984375,-0.0435791015625
4.634,322,3147,1241,601,-6.0,32.0,18.0,-21.484373092651367,-32.71484375,-10.070799827575684,-0.711669921875,0.286865234375,-0.0042724609375
4.640,323,3147,1264,702,-6.0,32.0,18.0,-19.22607421875,-29.968259811401367,-12.573241233825684,-0.7581787109375,0.3006591796875,-0.0928955078125
4.650,323,3147,1278,777,-6.0,32.0,18.0,-13.977049827575684,-23.254392623901367,-14.587401390075684,-0.81494140625,0.29248046875,-0.21142578125
4.661,322,3147,1283,854,-6.0,32.0,18.0,-10.986327171325684,-12.939452171325684,-14.831542015075684,-0.86962890625,0.3057861328125,-0.2930908203125
4.669,321,3147,1267,900,-6.0,32.0,18.0,-13.549803733825684,-2.25830078125,-13.427733421325684,-0.9058837890625,0.3302001953125,-0.26025390625
4.677,323,3147,1294,938,-6.0,32.0,18.0,-20.385740280151367,6.347655773162842,-11.962889671325684,-0.9266357421875,0.2933349609375,-0.1610107421875
4.691,322,3147,1262,1109,-6.0,32.0,18.0,-24.536130905151367,13.488768577575684,-10.803221702575684,-0.939208984375,0.186279296875,-0.104248046875
4.715,321,3147,1228,1223,-6.0,32.0,18.0,-22.399900436401367,19.22607421875,-8.056640625,-0.9327392578125,0.0771484375,-0.106201171875
4.716,321,3147,1233,1278,-6.0,32.0,18.0,-15.686034202575684,23.559568405151367,-1.7700194120407104,-0.90966796875,0.0462646484375,-0.1552734375
4.721,323,3147,1250,1382,-6.0,32.0,18.0,-5.981444835662842,27.465818405151367,7.812499523162842,-0.878173828125,0.10888671875,-0.2471923828125
4.729,323,3147,1236,1472,-6.0,32.0,18.0,3.051757574081421,31.127927780151367,17.27294921875,-0.8363037109375,0.192626953125,-0.328369140625
4.738,324,3147,1225,1602,-6.0,32.0,18.0,6.469726085662842,34.0576171875,23.559568405151367,-0.7841796875,0.246826171875,-0.3402099609375
4.753,324,3147,1219,1798,-8.0,35.0,13.0,3.173827886581421,36.19384765625,26.672361373901367,-0.7236328125,0.263916015625,-0.3052978515625
4.759,324,3147,1258,1920,-8.0,35.0,13.0,-3.112792730331421,36.9873046875,28.076169967651367,-0.662841796875,0.26318359375,-0.2760009765625
4.768,327,3147,1409,2060,-8.0,35.0,13.0,-8.11767578125,35.0341796875,28.991697311401367,-0.5926513671875,0.2794189453125,-0.257568359375
4.781,334,3147,1640,2435,-8.0,35.0,13.0,-11.108397483825684,28.381345748901367,29.235837936401367,-0.468994140625,0.2991943359375,-0.214111328125
4.789,332,3147,1750,2727,-8.0,35.0,13.0,-15.441893577575684,15.869139671325684,25.939939498901367,-0.256103515625,0.2840576171875,-0.075927734375
4.797,338,3147,1877,3000,-8.0,35.0,13.0,-26.550291061401367,-1.15966796875,15.991209983825684,0.0010986328125,0.275634765625,0.10546875
4.827,348,3147,2106,3147,-8.0,35.0,13.0,-50.598140716552734,-18.6767578125,3.295898199081421,0.227294921875,0.36669921875,0.1824951171875
4.828,354,3147,2400,3147,-8.0,35.0,13.0,-87.03612518310547,-34.24072265625,-4.33349609375,0.384765625,0.3123779296875,0.20361328125
4.828,363,3147,2584,3147,-8.0,35.0,13.0,-110.41259002685547,-44.189449310302734,-9.27734375,0.25830078125,-0.10791015625,0.1190185546875
4.841,363,3147,2960,3147,-7.0,32.0,13.0,-90.39305877685547,-41.748043060302734,-21.545408248901367,-0.253173828125,-0.7529296875,-0.180419921875
4.855,371,3147,3147,3147,-7.0,32.0,13.0,-36.2548828125,-33.87451171875,-30.883787155151367,-0.8095703125,-0.736083984375,-0.4599609375
4.857,419,3147,3147,3147,-7.0,32.0,13.0,-36.2548828125,-33.87451171875,-30.883787155151367,-1.3033447265625,0.4122314453125,-0.764404296875
4.871,803,3147,3147,3147,-7.0,32.0,13.0,7.934569835662842,-33.63037109375,7.812499523162842,-1.7611083984375,1.2762451171875,-1.131103515625
4.880,829,3147,3147,3147,-7.0,32.0,13.0,-30.029294967651367,-41.015621185302734,9.1552734375,-2.4786376953125,1.8037109375,-1.518310546875
4.887,890,3147,3147,3147,-7.0,32.0,13.0,-30.029294967651367,-41.015621185302734,9.1552734375,-3.2633056640625,1.3343505859375,-1.7862548828125
4.922,1014,3147,3147,3147,-7.0,32.0,13.0,-105.65184783935547,-12.573241233825684,-10.498045921325684,-2.466064453125,-0.506103515625,-0.1697998046875
4.922,992,3147,3147,3147,-7.0,32.0,13.0,-52.734371185302734,-37.29248046875,-15.930174827575684,-0.974609375,-0.6923828125,1.490234375
4.922,897,3147,3147,3147,-7.0,32.0,13.0,-52.734371185302734,-37.29248046875,-15.930174827575684,-0.689697265625,0.45361328125,0.4581298828125
4.931,799,3147,3147,3147,-7.0,32.0,13.0,97.90038299560547,16.9677734375,-8.97216796875,-1.0,0.7203369140625,-1.1253662109375
4.943,841,3147,3147,3147,-5.0,35.0,16.0,74.15771484375,20.141599655151367,-25.268552780151367,-1.2623291015625,0.5079345703125,-1.488037109375
4.947,800,3147,3147,3147,-5.0,35.0,16.0,74.15771484375,20.141599655151367,-25.268552780151367,-1.600830078125,0.60888671875,-1.18798828125
4.961,673,3147,3147,3147,-5.0,35.0,16.0,-21.972654342651367,-24.475095748901367,-19.287109375,-1.936767578125,0.721435546875,-0.8944091796875
4.970,538,3147,3147,3147,-5.0,35.0,16.0,-44.555660247802734,-33.203125,-15.502928733825684,-1.974853515625,0.50244140625,-0.499755859375
4.977,391,3147,3147,3147,-5.0,35.0,16.0,-44.555660247802734,-33.203125,-15.502928733825684,-1.7908935546875,0.3658447265625,-0.0997314453125
4.992,361,3147,3078,3147,-5.0,35.0,16.0,-39.794921875,-13.366698265075684,-8.36181640625,-1.5877685546875,0.40087890625,0.0947265625
5.000,360,3147,2801,3147,-5.0,35.0,16.0,-22.460935592651367,8.60595703125,-4.150390625,-1.36474609375,0.42578125,0.0355224609375
5.029,356,3147,2532,3147,-5.0,35.0,16.0,-22.460935592651367,8.60595703125,-4.150390625,-1.0301513671875,0.36474609375,-0.047607421875
5.029,344,3147,2078,3147,-5.0,35.0,16.0,15.136717796325684,50.231929779052734,-1.7089842557907104,-0.734375,0.2298583984375,-0.02880859375
5.030,336,3147,1877,3147,-5.0,35.0,16.0,28.930662155151367,63.110347747802734,-5.249022960662842,-0.5758056640625,0.0247802734375,0.0732421875
5.037,330,3147,1682,2930,-3.0,32.0,16.0,28.930662155151367,63.110347747802734,-5.249022960662842,-0.43798828125,-0.293701171875,0.20263671875
5.062,317,3147,1191,2110,-3.0,32.0,16.0,50.903316497802734,52.062984466552734,-8.97216796875,-0.2376708984375,-0.5443115234375,0.247802734375
5.062,317,3147,1067,1744,-3.0,32.0,16.0,69.82421875,32.40966796875,-3.967284917831421,-0.0169677734375,-0.481689453125,0.1951904296875
5.068,314,3147,939,1415,-3.0,32.0,16.0,69.82421875,32.40966796875,-3.967284917831421,0.0391845703125,-0.1556396484375,0.0291748046875
5.082,314,3147,883,1026,-3.0,32.0,16.0,95.21483612060547,0.54931640625,10.681151390075684,-0.18896484375,0.156982421875,-0.2598876953125
5.090,314,3147,846,757,-3.0,32.0,16.0,95.21483612060547,0.54931640625,10.681151390075684,-0.4697265625,0.2899169921875,-0.5283203125
5.098,313,3147,800,603,-3.0,32.0,16.0,100.03661346435547,-1.5258787870407104,10.131834983825684,-0.4697265625,0.2899169921875,-0.5283203125
5.123,308,3147,784,356,-3.0,32.0,16.0,81.72606658935547,2.746581792831421,22.216794967651367,-0.7137451171875,0.6068115234375,-0.8035888671875
5.123,307,3110,803,342,-3.0,32.0,16.0,81.72606658935547,2.746581792831421,22.216794967651367,-0.67236328125,0.6492919921875,-0.697265625
5.133,312,2937,815,344,-3.0,32.0,16.0,59.936519622802734,-0.9765624403953552,26.062009811401367,-0.67236328125,0.6492919921875,-0.697265625
5.142,308,2769,853,345,-10.0,33.0,18.0,1.3427733182907104,-14.160155296325684,3.417968511581421,-0.7137451171875,0.2261962890625,-0.1468505859375
5.150,310,2876,859,345,-10.0,33.0,18.0,1.3427733182907104,-14.160155296325684,3.417968511581421,-0.75537109375,0.1724853515625,0.0177001953125
5.171,313,2952,867,347,-10.0,33.0,18.0,-8.60595703125,-16.05224609375,1.5869139432907104,-0.75537109375,0.1724853515625,0.0177001953125
5.173,310,3031,872,318,-10.0,33.0,18.0,11.718749046325684,-12.573241233825684,9.8876953125,-0.7530517578125,0.3331298828125,-0.142333984375
5.180,314,3107,883,347,-10.0,33.0,18.0,11.718749046325684,-12.573241233825684,9.8876953125,-0.7464599609375,0.4293212890625,-0.296142578125
5.187,309,3095,912,346,-10.0,33.0,18.0,21.545408248901367,-14.099120140075684,5.920409679412842,-0.7464599609375,0.4293212890625,-0.296142578125
5.201,313,3147,938,347,-10.0,33.0,18.0,8.11767578125,-5.371093273162842,-7.690429210662842,-0.8883056640625,0.3045654296875,-0.2869873046875
5.242,313,3147,946,354,-10.0,33.0,18.0,8.11767578125,-5.371093273162842,-7.690429210662842,-0.79931640625,0.253662109375,-0.2515869140625
5.242,308,3147,922,391,-10.0,33.0,18.0,2.44140625,4.8828125,-4.8828125,-0.79931640625,0.253662109375,-0.2515869140625
5.242,313,3147,891,553,-9.0,31.0,21.0,-8.9111328125,17.578125,-4.45556640625,-0.7799072265625,0.15673828125,-0.1923828125
5.242,310,3147,934,725,-9.0,31.0,21.0,-8.9111328125,17.578125,-4.45556640625,-0.8048095703125,0.11865234375,-0.201904296875
5.248,313,3147,923,887,-9.0,31.0,21.0,-14.099120140075684,22.155759811401367,-1.6479490995407104,-0.8048095703125,0.11865234375,-0.201904296875
5.266,314,3147,989,1199,-9.0,31.0,21.0,-20.690916061401367,31.799314498901367,11.352538108825684,-0.805419921875,0.152587890625,-0.26513671875
5.269,314,3147,1029,1387,-9.0,31.0,21.0,-20.690916061401367,31.799314498901367,11.352538108825684,-0.7633056640625,0.1607666015625,-0.2593994140625
5.278,315,3147,1085,1569,-9.0,31.0,21.0,-25.146482467651367,35.46142578125,17.7001953125,-0.7633056640625,0.1607666015625,-0.2593994140625
5.292,319,3147,1214,2030,-9.0,31.0,21.0,-29.846189498901367,35.15625,28.991697311401367,-0.58251953125,0.120361328125,-0.20068359375
5.299,328,3147,1355,2370,-9.0,31.0,21.0,-29.846189498901367,35.15625,28.991697311401367,-0.3656005859375,0.19970703125,-0.09375
5.308,334,3147,1508,2654,-9.0,31.0,21.0,-29.968259811401367,22.705076217651367,31.372068405151367,-0.3656005859375,0.19970703125,-0.09375
5.327,336,3147,1796,3147,-9.0,31.0,21.0,-35.09521484375,0.0,25.634763717651367,0.1654052734375,0.5928955078125,0.0927734375
5.333,348,3147,2005,3147,-9.0,36.0,16.0,-51.818843841552734,-22.338865280151367,12.023924827575684,0.1654052734375,0.5928955078125,0.0927734375
5.337,360,3147,2266,3147,-9.0,36.0,16.0,-84.71678924560547,-37.4755859375,-1.3427733182907104,0.3756103515625,0.5443115234375,0.1173095703125
5.352,364,3147,2525,3147,-9.0,36.0,16.0,-116.21092987060547,-44.677730560302734,-8.544921875,0.017822265625,-0.438720703125,-0.226318359375
5.367,371,3147,2652,3147,-9.0,36.0,16.0,-110.65673065185547,-36.92626953125,-16.66259765625,0.017822265625,-0.438720703125,-0.226318359375
5.368,375,3147,2958,3147,-9.0,36.0,16.0,-63.415523529052734,-21.606443405151367,-31.494138717651367,-0.58447265625,-0.847412109375,-0.483642578125
5.381,467,3147,3147,3147,-9.0,36.0,16.0,-13.793944358825684,-19.10400390625,-32.28759765625,-1.6885986328125,0.974365234375,-0.841552734375
5.391,750,3147,3147,3147,-9.0,36.0,16.0,-0.54931640625,-29.052732467651367,-10.864256858825684,-1.6885986328125,0.974365234375,-0.841552734375
5.397,799,3147,3147,3147,-9.0,36.0,16.0,-24.963376998901367,-40.283199310302734,2.3193359375,-2.236083984375,1.4788818359375,-1.0977783203125
5.411,865,3147,3147,3147,-9.0,36.0,16.0,-66.71142578125,-26.611326217651367,6.225585460662842,-3.0386962890625,0.258056640625,-0.95556640625
5.430,860,3147,3147,3147,-9.0,36.0,16.0,-98.38866424560547,5.920409679412842,5.126952648162842,-3.0386962890625,0.258056640625,-0.95556640625
5.431,833,3147,3147,3147,-8.0,35.0,14.0,-72.20458984375,-10.864256858825684,-2.0751953125,-1.6746826171875,-1.0760498046875,1.06982421875
5.443,643,3147,3147,3147,-8.0,35.0,14.0,18.1884765625,-28.503416061401367,8.544921875,-0.8333740234375,0.6766357421875,-0.6944580078125
5.455,646,3147,3147,3147,-8.0,35.0,14.0,100.15868377685547,3.906249761581421,16.17431640625,-0.8333740234375,0.6766357421875,-0.6944580078125
5.458,695,3147,3147,3147,-8.0,35.0,14.0,108.52050018310547,21.179197311401367,0.6713866591453552,-1.07763671875,0.7237548828125,-1.6624755859375
5.472,630,3147,3147,3147,-8.0,35.0,14.0,59.997554779052734,0.30517578125,-13.854979515075684,-1.7664794921875,0.95263671875,-1.2894287109375
5.480,509,3147,3147,3147,-8.0,35.0,14.0,5.859374523162842,-33.447265625,-17.76123046875,-1.7664794921875,0.95263671875,-1.2894287109375
5.488,403,3147,3147,3147,-8.0,35.0,14.0,-33.0810546875,-58.349605560302734,-21.606443405151367,-2.0006103515625,0.7584228515625,-0.888671875
5.503,371,3147,3126,3147,-8.0,35.0,14.0,-51.635738372802734,-67.3828125,-25.329587936401367,-1.5770263671875,0.2940673828125,0.207275390625
5.510,370,3147,2989,3147,-8.0,35.0,14.0,-49.255367279052734,-56.213375091552734,-21.240232467651367,-1.5770263671875,0.2940673828125,0.207275390625
5.532,361,3147,2744,3147,-8.0,35.0,14.0,-33.5693359375,-30.212400436401367,-14.770506858825684,-1.31640625,0.4263916015625,0.3236083984375
5.532,344,3147,2316,3147,-4.0,32.0,16.0,-14.221190452575684,3.295898199081421,-10.375975608825684,-0.748779296875,0.411865234375,0.0782470703125
5.540,349,3147,2155,3147,-4.0,32.0,16.0,2.563476324081421,36.19384765625,-7.324218273162842,-0.748779296875,0.411865234375,0.0782470703125
5.549,344,3147,1912,3147,-4.0,32.0,16.0,16.4794921875,64.94140625,-7.629394054412842,-0.6064453125,0.1455078125,0.138671875
5.569,327,3147,1440,2769,-4.0,32.0,16.0,29.296873092651367,84.41161346435547,-9.3994140625,-0.4534912109375,-0.4962158203125,0.3985595703125
5.571,304,3147,1222,2340,-4.0,32.0,16.0,46.936031341552734,88.43993377685547,-8.6669921875,-0.4534912109375,-0.4962158203125,0.3985595703125
5.578,316,3147,1122,1989,-4.0,32.0,16.0,73.18115234375,76.84326171875,-3.295898199081421,-0.2720947265625,-0.568603515625,0.316162109375
5.592,315,3147,975,1506,-4.0,32.0,16.0,95.33690643310547,52.124019622802734,8.23974609375,-0.0203857421875,-0.0552978515625,-0.080322265625
5.601,313,3147,978,1335,-4.0,32.0,16.0,107.48290252685547,25.207517623901367,20.935056686401367,-0.0203857421875,-0.0552978515625,-0.080322265625
5.608,314,3147,891,1214,-4.0,32.0,16.0,120.17821502685547,11.901854515075684,26.245115280151367,-0.27880859375,0.121337890625,-0.4368896484375
5.636,312,3147,837,1057,-10.0,35.0,14.0,126.28173065185547,10.925292015075684,29.968259811401367,-0.6585693359375,0.5518798828125,-0.9180908203125
5.637,313,3147,871,1018,-10.0,35.0,14.0,115.11229705810547,10.620116233825684,41.503902435302734,-0.6585693359375,0.5518798828125,-0.9180908203125
5.639,314,3147,837,917,-10.0,35.0,14.0,92.22411346435547,6.164550304412842,47.302242279052734,-0.6546630859375,0.794921875,-0.9525146484375
5.648,316,3147,846,858,-10.0,35.0,14.0,56.884761810302734,-1.220703125,33.14208984375,-0.656005859375,0.67138671875,-0.7523193359375
5.666,314,3147,834,826,-10.0,35.0,14.0,15.014647483825684,-7.202147960662842,11.230467796325684,-0.7088623046875,0.3270263671875,-0.389892578125
5.676,316,3147,874,874,-10.0,35.0,14.0,-9.94873046875,-10.803221702575684,0.6103515625,-0.7451171875,0.1639404296875,-0.0792236328125
5.678,316,3147,894,895,-10.0,35.0,14.0,-7.385253429412842,-13.610838890075684,1.2817381620407104,-0.7711181640625,0.216552734375,0.0267333984375
5.691,316,3147,922,846,-10.0,35.0,14.0,8.36181640625,-15.869139671325684,1.4648436307907104,-0.8369140625,0.2843017578125,-0.0703125
5.700,317,3147,907,829,-10.0,35.0,14.0,20.01953125,-16.4794921875,-1.3427733182907104,-0.903564453125,0.324462890625,-0.2569580078125
5.707,318,3147,897,757,-10.0,35.0,14.0,21.667478561401367,-15.136717796325684,-3.601073980331421,-0.913818359375,0.3544921875,-0.392578125
5.739,318,3147,907,730,-8.0,35.0,18.0,14.221190452575684,-12.451170921325684,-5.676269054412842,-0.8839111328125,0.3345947265625,-0.41259765625
5.740,318,3147,907,746,-8.0,35.0,18.0,3.784179449081421,-8.7890625,-9.033203125,-0.8514404296875,0.2611083984375,-0.357421875
5.740,308,3147,944,802,-8.0,35.0,18.0,-3.601073980331421,-4.150390625,-11.901854515075684,-0.837890625,0.1998291015625,-0.294189453125
5.752,318,3147,938,912,-8.0,35.0,18.0,-8.1787109375,0.8544921278953552,-11.718749046325684,-0.8372802734375,0.17724609375,-0.2464599609375
5.759,318,3147,971,987,-8.0,35.0,18.0,-12.023924827575684,5.371093273162842,-8.36181640625,-0.830322265625,0.1654052734375,-0.2205810546875
5.782,318,3147,1025,1095,-8.0,35.0,18.0,-13.854979515075684,9.3994140625,-2.990722417831421,-0.81005859375,0.1531982421875,-0.2279052734375
5.783,321,3147,972,1279,-8.0,35.0,18.0,-13.305663108825684,13.122557640075684,3.234863042831421,-0.77978515625,0.149658203125,-0.255126953125
5.790,317,3147,992,1424,-8.0,35.0,18.0,-12.573241233825684,17.27294921875,9.765625,-0.7412109375,0.1651611328125,-0.2783203125
5.798,323,3147,1004,1555,-8.0,35.0,18.0,-13.671874046325684,22.216794967651367,16.9677734375,-0.68505859375,0.1898193359375,-0.2691650390625
5.812,321,3147,1004,1847,-8.0,35.0,18.0,-18.49365234375,26.367185592651367,24.536130905151367,-0.61181640625,0.1854248046875,-0.2039794921875
5.820,323,3147,1132,2076,-9.0,34.0,14.0,-24.475095748901367,27.404783248901367,31.738279342651367,-0.542236328125,0.141357421875,-0.1041259765625
5.843,327,3147,1310,2334,-9.0,34.0,14.0,-22.888181686401367,22.583005905151367,37.7197265625,-0.4439697265625,0.1295166015625,0.001220703125
5.843,336,3147,1798,2901,-9.0,34.0,14.0,-11.047362327575684,6.347655773162842,36.92626953125,-0.21484375,0.2333984375,0.1102294921875
5.849,349,3147,2080,3147,-9.0,34.0,14.0,-3.295898199081421,-23.010251998901367,18.61572265625,0.165771484375,0.484375,0.1212158203125
5.857,354,3147,2299,3147,-9.0,34.0,14.0,-24.719236373901367,-51.330562591552734,-14.221190452575684,0.4676513671875,0.74462890625,-0.01513671875
5.881,364,3147,2541,3147,-9.0,34.0,14.0,-87.52440643310547,-59.387203216552734,-35.58349609375,0.4583740234375,0.5472412109375,-0.06201171875
5.881,364,3147,2557,3147,-9.0,34.0,14.0,-142.15087890625,-41.381832122802734,-33.63037109375,0.0859375,-0.2808837890625,-0.15185546875
5.887,371,3147,2769,3147,-9.0,34.0,14.0,-126.52587127685547,-13.000487327575684,-29.296873092651367,-0.52587890625,-0.893798828125,-0.33935546875
5.901,387,3147,3147,3147,-9.0,34.0,14.0,-70.73974609375,-4.7607421875,-26.306150436401367,-1.1026611328125,-0.4345703125,-0.4962158203125
5.909,525,3147,3147,3147,-9.0,34.0,14.0,-39.794921875,-19.6533203125,-9.1552734375,-1.567626953125,0.6856689453125,-0.8853759765625
5.917,700,3147,3147,3147,-8.0,31.0,19.0,-51.086421966552734,-35.70556640625,9.94873046875,-1.9237060546875,1.205322265625,-1.1138916015625
5.942,906,3147,3147,3147,-8.0,31.0,19.0,-78.0029296875,-40.832515716552734,13.916014671325684,-2.5155029296875,1.580078125,-1.2235107421875
5.943,947,3147,3147,3147,-8.0,31.0,19.0,-113.40331268310547,-16.4794921875,19.59228515625,-3.203369140625,1.2574462890625,-1.3975830078125
5.954,1010,3147,3147,3147,-8.0,31.0,19.0,-126.89208221435547,-2.197265625,12.573241233825684,-2.566162109375,-0.5599365234375,-0.13232421875
5.964,959,3147,3147,3147,-8.0,31.0,19.0,-64.5751953125,-25.329587936401367,-2.929687261581421,-1.1611328125,-0.9464111328125,1.307861328125
5.969,905,3147,3147,3147,-8.0,31.0,19.0,27.465818405151367,-16.54052734375,4.33349609375,-0.6116943359375,0.408203125,0.5479736328125
5.992,860,3147,3147,3147,-8.0,31.0,19.0,69.4580078125,25.451658248901367,1.4648436307907104,-0.8275146484375,1.0567626953125,-0.9422607421875
5.992,868,3147,3147,3147,-8.0,31.0,19.0,47.851558685302734,37.841796875,-26.550291061401367,-1.2227783203125,0.841552734375,-1.40283203125
6.001,820,3147,3147,3147,-8.0,31.0,19.0,1.03759765625,14.770506858825684,-46.020503997802734,-1.5914306640625,0.6651611328125,-1.1597900390625
6.007,765,3147,3147,3147,-8.0,31.0,19.0,1.03759765625,14.770506858825684,-46.020503997802734,-1.8797607421875,0.5804443359375,-0.881103515625
6.021,551,3147,3147,3147,-6.0,33.0,18.0,-46.569820404052734,-31.860349655151367,-29.846189498901367,-1.8883056640625,0.4154052734375,-0.5286865234375
6.043,419,3147,3147,3147,-6.0,33.0,18.0,-40.161128997802734,-39.12353515625,-20.690916061401367,-1.6732177734375,0.3419189453125,-0.146728515625
6.044,382,3147,3147,3147,-6.0,33.0,18.0,-40.161128997802734,-39.12353515625,-20.690916061401367,-1.461181640625,0.389892578125,0.031494140625
6.052,378,3147,2834,3147,-6.0,33.0,18.0,-13.793944358825684,-13.244627952575684,-4.33349609375,-1.3065185546875,0.4422607421875,-0.014892578125
6.059,357,3147,2608,3147,-6.0,33.0,18.0,0.9765624403953552,9.21630859375,3.479003667831421,-1.08740234375,0.3836669921875,-0.076904296875
6.067,342,3147,2394,3147,-6.0,33.0,18.0,0.9765624403953552,9.21630859375,3.479003667831421,-0.8570556640625,0.2191162109375,-0.030517578125
6.092,344,3147,2026,3147,-6.0,33.0,18.0,31.799314498901367,50.720211029052734,6.774901866912842,-0.7264404296875,0.004638671875,0.105712890625
6.092,334,3147,1732,3015,-6.0,33.0,18.0,42.419429779052734,62.011714935302734,2.624511480331421,-0.6400146484375,-0.2413330078125,0.2296142578125
6.099,330,3147,1490,2676,-6.0,33.0,18.0,42.419429779052734,62.011714935302734,2.624511480331421,-0.520263671875,-0.415283203125,0.2261962890625
6.112,316,3147,1149,2119,-6.0,33.0,18.0,73.54736328125,54.260250091552734,2.563476324081421,-0.3302001953125,-0.3515625,0.175537109375
6.120,315,3147,1078,1743,-6.0,33.0,18.0,85.44921112060547,31.616209030151367,10.070799827575684,-0.08154296875,-0.058837890625,0.150390625
6.127,315,3147,1067,1541,-6.0,33.0,18.0,85.44921112060547,31.616209030151367,10.070799827575684,0.0140380859375,0.205078125,-0.0069580078125
6.148,313,3147,887,1125,-6.0,33.0,18.0,96.43553924560547,-13.671874046325684,-1.4648436307907104,-0.2205810546875,0.288818359375,-0.3492431640625
6.150,312,3147,888,959,-6.0,33.0,18.0,100.89110565185547,-13.488768577575684,-12.268065452575684,-0.5458984375,0.28662109375,-0.6304931640625
6.158,313,3147,883,793,-6.0,33.0,18.0,100.89110565185547,-13.488768577575684,-12.268065452575684,-0.7030029296875,0.3480224609375,-0.697509765625
6.172,313,3147,832,675,-6.0,33.0,18.0,75.74462890625,1.3427733182907104,18.798828125,-0.6973876953125,0.5123291015625,-0.662109375
6.188,313,3147,832,562,-6.0,33.0,18.0,58.288570404052734,0.1220703050494194,28.076169967651367,-0.63916015625,0.5845947265625,-0.5953369140625
6.188,299,3147,816,525,-6.0,33.0,18.0,58.288570404052734,0.1220703050494194,28.076169967651367,-0.6656494140625,0.4521484375,-0.450439453125
6.202,316,3147,874,522,-6.0,33.0,18.0,-3.356933355331421,-16.17431640625,4.21142578125,-0.750244140625,0.274169921875,-0.243896484375
6.210,314,3147,887,519,-9.0,33.0,20.0,-20.385740280151367,-20.141599655151367,-0.0610351525247097,-0.798095703125,0.1881103515625,-0.0975341796875
6.219,316,3147,900,536,-9.0,33.0,20.0,-20.385740280151367,-20.141599655151367,-0.0610351525247097,-0.82373046875,0.189453125,-0.0968017578125
6.251,314,3147,922,571,-9.0,33.0,20.0,4.21142578125,-14.282225608825684,5.0048828125,-0.85546875,0.262451171875,-0.210205078125
6.252,310,3147,894,551,-9.0,33.0,20.0,18.37158203125,-8.30078125,6.652831554412842,-0.869873046875,0.3802490234375,-0.312744140625
6.252,313,3147,899,561,-9.0,33.0,20.0,18.37158203125,-8.30078125,6.652831554412842,-0.85400390625,0.4483642578125,-0.335693359375
6.262,313,3147,947,562,-9.0,33.0,20.0,9.033203125,-0.8544921278953552,-1.3427733182907104,-0.8291015625,0.3985595703125,-0.316162109375
6.271,315,3147,951,667,-9.0,33.0,20.0,-3.234863042831421,3.112792730331421,-7.202147960662842,-0.8150634765625,0.2861328125,-0.2841796875
6.293,313,3147,951,740,-9.0,33.0,20.0,-3.234863042831421,3.112792730331421,-7.202147960662842,-0.8115234375,0.1903076171875,-0.2479248046875
6.293,313,3147,946,933,-9.0,33.0,20.0,-19.775390625,8.85009765625,-7.202147960662842,-0.80859375,0.136962890625,-0.229248046875
6.305,313,3147,975,1051,-9.0,33.0,20.0,-22.644041061401367,9.3994140625,-1.4038084745407104,-0.8006591796875,0.135009765625,-0.239990234375
6.309,315,3147,973,1206,-9.0,32.0,21.0,-22.644041061401367,9.3994140625,-1.4038084745407104,-0.786865234375,0.1663818359375,-0.2593994140625
6.322,313,3147,1000,1456,-9.0,32.0,21.0,-25.146482467651367,8.60595703125,12.451170921325684,-0.7703857421875,0.19677734375,-0.254638671875
6.330,313,3147,1009,1608,-9.0,32.0,21.0,-25.146482467651367,8.60595703125,12.451170921325684,-0.7376708984375,0.201171875,-0.209716796875
6.354,317,3147,1071,1773,-9.0,32.0,21.0,-27.526853561401367,9.521484375,19.47021484375,-0.7376708984375,0.201171875,-0.209716796875
6.355,317,3147,1163,2085,-9.0,32.0,21.0,-30.029294967651367,16.357421875,31.860349655151367,-0.603759765625,0.1600341796875,-0.0985107421875
6.361,327,3147,1390,2412,-9.0,32.0,21.0,-30.029294967651367,16.357421875,31.860349655151367,-0.4688720703125,0.190185546875,-0.067138671875
6.369,328,3147,1687,2652,-9.0,32.0,21.0,-27.282712936401367,15.319823265075684,35.2783203125,-0.4688720703125,0.190185546875,-0.067138671875
6.384,334,3147,2139,3147,-9.0,32.0,21.0,-19.71435546875,-25.878904342651367,14.282225608825684,0.12353515625,0.4033203125,0.15966796875
6.391,337,3147,2308,3147,-9.0,32.0,21.0,-19.71435546875,-25.878904342651367,14.282225608825684,0.3931884765625,0.4542236328125,0.1826171875
6.413,346,3147,2580,3147,-9.0,32.0,21.0,-31.494138717651367,-51.513668060302734,-10.742186546325684,0.3931884765625,0.4542236328125,0.1826171875
6.413,355,3147,2657,3147,-7.0,34.0,18.0,-87.03612518310547,-43.273921966552734,-17.15087890625,0.0518798828125,-0.2257080078125,-0.02392578125
6.421,361,3147,2741,3147,-7.0,34.0,18.0,-87.03612518310547,-43.273921966552734,-17.15087890625,-0.537353515625,-0.8333740234375,-0.20947265625
6.428,370,3147,2990,3147,-7.0,34.0,18.0,-70.4345703125,-19.287109375,-13.977049827575684,-0.537353515625,-0.8333740234375,-0.20947265625
6.456,481,3147,3147,3147,-7.0,34.0,18.0,-1.2817381620407104,-18.310546875,10.131834983825684,-1.48583984375,0.631591796875,-0.7236328125
6.456,632,3147,3147,3147,-7.0,34.0,18.0,-1.2817381620407104,-18.310546875,10.131834983825684,-1.8453369140625,1.4732666015625,-1.2940673828125
6.459,963,3147,3147,3147,-7.0,34.0,18.0,-8.11767578125,-33.14208984375,31.127927780151367,-1.8453369140625,1.4732666015625,-1.2940673828125
6.473,1004,3147,3147,3147,-7.0,34.0,18.0,-101.50145721435547,-32.04345703125,16.845703125,-3.2037353515625,1.5450439453125,-1.7745361328125
6.480,1117,3147,3147,3147,-7.0,34.0,18.0,-101.50145721435547,-32.04345703125,16.845703125,-2.489501953125,-0.6951904296875,-0.0609130859375
6.495,1096,3147,3147,3147,-7.0,34.0,18.0,-139.83154296875,-34.36279296875,-4.2724609375,-2.489501953125,-0.6951904296875,-0.0609130859375
6.502,972,3147,3147,3147,-7.0,34.0,21.0,41.809078216552734,-55.480953216552734,-7.507323741912842,-0.6759033203125,-0.01123046875,1.0523681640625
6.524,920,3147,3147,3147,-7.0,34.0,21.0,41.809078216552734,-55.480953216552734,-7.507323741912842,-0.88330078125,0.86376953125,-0.6693115234375
6.524,900,3147,3147,3147,-7.0,34.0,21.0,116.51610565185547,1.7700194120407104,6.469726085662842,-0.88330078125,0.86376953125,-0.6693115234375
6.533,897,3147,3147,3147,-7.0,34.0,21.0,34.7900390625,25.451658248901367,-17.39501953125,-1.541015625,0.8746337890625,-1.138427734375
6.559,844,3147,3147,3147,-7.0,34.0,21.0,34.7900390625,25.451658248901367,-17.39501953125,-1.8046875,0.84814453125,-0.918212890625
6.559,765,3147,3147,3147,-7.0,34.0,21.0,-28.991697311401367,6.286620616912842,-22.277830123901367,-1.8046875,0.84814453125,-0.918212890625
6.563,644,3147,3147,3147,-7.0,34.0,21.0,-61.950679779052734,-11.230467796325684,-24.230955123901367,-1.6622314453125,0.3443603515625,-0.227783203125
6.570,506,3147,3147,3147,-7.0,34.0,21.0,-61.889644622802734,-26.733396530151367,-24.047849655151367,-1.6622314453125,0.3443603515625,-0.227783203125
6.579,390,3147,3147,3147,-7.0,34.0,21.0,-43.395992279052734,-31.860349655151367,-17.578125,-1.427978515625,0.3218994140625,0.049560546875
6.596,373,3147,2797,3147,-7.0,34.0,21.0,-20.874021530151367,-24.230955123901367,-8.30078125,-1.01220703125,0.5281982421875,0.0054931640625
6.601,371,3147,2514,3147,-7.0,30.0,27.0,0.7324218153953552,-8.11767578125,-1.8310545682907104,-1.01220703125,0.5281982421875,0.0054931640625
6.608,363,3147,2296,3147,-7.0,30.0,27.0,17.51708984375,10.803221702575684,-1.5869139432907104,-0.79345703125,0.5167236328125,-0.046142578125
6.631,359,3147,2058,3147,-7.0,30.0,27.0,26.306150436401367,27.282712936401367,-8.544921875,-0.639404296875,-0.0704345703125,0.1234130859375
6.632,348,3147,1922,3147,-7.0,30.0,27.0,30.883787155151367,38.26904296875,-17.333984375,-0.639404296875,-0.0704345703125,0.1234130859375
6.639,336,3147,1557,2952,-7.0,30.0,27.0,38.14697265625,42.053218841552734,-20.080564498901367,-0.572265625,-0.3544921875,0.1690673828125
6.660,327,3147,1330,2456,-7.0,30.0,27.0,50.964351654052734,40.161128997802734,-13.854979515075684,-0.1842041015625,-0.34130859375,0.1488037109375
6.661,326,3147,1237,2223,-7.0,30.0,27.0,64.51416015625,32.71484375,-1.7700194120407104,-0.1842041015625,-0.34130859375,0.1488037109375
6.669,323,3147,1178,1959,-7.0,30.0,27.0,72.32666015625,21.118162155151367,10.375975608825684,-0.1060791015625,-0.139892578125,0.13916015625
6.683,321,3147,1024,1691,-7.0,30.0,27.0,77.94189453125,13.854979515075684,17.4560546875,-0.5089111328125,0.254638671875,-0.2763671875
6.691,319,3147,1025,1602,-7.0,30.0,27.0,87.58544158935547,14.648436546325684,16.845703125,-0.5089111328125,0.254638671875,-0.2763671875
6.718,318,3147,1014,1529,-9.0,30.0,21.0,91.55272674560547,20.080564498901367,15.930174827575684,-0.662353515625,0.3387451171875,-0.4852294921875
6.718,323,3147,977,1380,-9.0,30.0,21.0,84.28954315185547,28.259275436401367,22.888181686401367,-0.754638671875,0.5404052734375,-0.575927734375
6.731,318,3147,1024,1328,-9.0,30.0,21.0,69.580078125,32.1044921875,30.090330123901367,-0.754638671875,0.5404052734375,-0.575927734375
6.743,321,3147,1004,1255,-9.0,30.0,21.0,46.264644622802734,28.137205123901367,27.832029342651367,-0.671875,0.498046875,-0.4332275390625
6.751,321,3147,1022,1224,-9.0,30.0,21.0,19.22607421875,16.845703125,15.563963890075684,-0.765380859375,0.38232421875,-0.17236328125
6.760,318,3147,1025,1137,-9.0,30.0,21.0,-3.845214605331421,3.601073980331421,-1.8920897245407104,-0.765380859375,0.38232421875,-0.17236328125
6.761,316,3147,1024,1116,-9.0,30.0,21.0,-11.108397483825684,-0.54931640625,-9.27734375,-0.9193115234375,0.2557373046875,-0.077880859375
6.773,316,3147,1014,1163,-9.0,30.0,21.0,4.7607421875,3.601073980331421,-0.9765624403953552,-0.8597412109375,0.368408203125,-0.24755859375
6.783,319,3147,1012,1160,-9.0,30.0,21.0,28.320310592651367,9.765625,9.27734375,-0.8597412109375,0.368408203125,-0.24755859375
6.788,321,3147,1025,1162,-9.0,30.0,21.0,39.9169921875,13.671874046325684,11.596678733825684,-0.826416015625,0.4425048828125,-0.3468017578125
6.802,318,3147,992,1258,-11.0,31.0,19.0,35.33935546875,14.343260765075684,6.530761241912842,-0.8060302734375,0.4197998046875,-0.3729248046875
6.810,318,3147,1001,1326,-11.0,31.0,19.0,23.620603561401367,13.671874046325684,-0.1831054538488388,-0.78564453125,0.3172607421875,-0.3712158203125
6.818,316,3147,1047,1399,-11.0,31.0,19.0,14.221190452575684,13.671874046325684,-3.662109136581421,-0.7691650390625,0.20263671875,-0.3724365234375
6.838,317,3147,1025,1499,-11.0,31.0,19.0,8.6669921875,14.160155296325684,-2.3193359375,-0.7392578125,0.1419677734375,-0.362548828125
6.840,318,3147,996,1584,-11.0,31.0,19.0,3.051757574081421,14.526366233825684,1.4648436307907104,-0.724365234375,0.1224365234375,-0.3167724609375
6.864,317,3147,1022,1689,-11.0,31.0,19.0,-2.0751953125,17.02880859375,6.652831554412842,-0.7366943359375,0.12255859375,-0.252685546875
6.866,321,3147,976,1900,-11.0,31.0,19.0,-2.746581792831421,22.094724655151367,13.549803733825684,-0.7095947265625,0.1536865234375,-0.2086181640625
6.870,313,3147,991,2014,-11.0,31.0,19.0,-2.563476324081421,26.672361373901367,19.4091796875,-0.6536865234375,0.1829833984375,-0.1805419921875
6.879,316,3147,1042,2156,-11.0,31.0,19.0,-5.737304210662842,29.113767623901367,22.827146530151367,-0.5986328125,0.2171630859375,-0.1485595703125
6.899,324,3147,1202,2610,-11.0,31.0,19.0,-9.09423828125,25.146482467651367,23.620603561401367,-0.4959716796875,0.270263671875,-0.0992431640625
6.900,331,3147,1454,2879,-12.0,32.0,14.0,-9.521484375,8.9111328125,18.24951171875,-0.3197021484375,0.345947265625,-0.0123291015625
6.909,343,3147,1861,3147,-12.0,32.0,14.0,-12.207030296325684,-17.08984375,4.69970703125,-0.022216796875,0.4892578125,0.099609375
6.922,362,3147,2541,3147,-12.0,32.0,14.0,-30.578611373901367,-47.241207122802734,-16.17431640625,0.3931884765625,0.7650146484375,0.10986328125
6.930,351,3147,2757,3147,-12.0,32.0,14.0,-86.66991424560547,-67.32177734375,-38.330078125,0.58349609375,0.9716796875,-0.01953125
6.945,371,3147,2698,3147,-12.0,32.0,14.0,-172.66844177246094,-60.180660247802734,-46.203609466552734,0.3065185546875,0.267578125,-0.100830078125
6.959,374,3147,2978,3147,-12.0,32.0,14.0,-198.60838317871094,-30.944822311401367,-49.560543060302734,-0.3143310546875,-1.3936767578125,-0.15283203125
6.968,383,3147,3147,3147,-12.0,32.0,14.0,-123.65721893310547,-6.103515148162842,-50.964351654052734,-0.96337890625,-1.7169189453125,-0.21875
6.969,411,3147,3147,3147,-12.0,32.0,14.0,-39.48974609375,-7.629394054412842,-21.789548873901367,-1.436767578125,0.093994140625,-0.4501953125
6.982,801,3147,3147,3147,-12.0,32.0,14.0,-14.648436546325684,-26.184080123901367,15.747069358825684,-1.9132080078125,1.7227783203125,-1.0418701171875
6.990,835,3147,3147,3147,-12.0,32.0,14.0,-39.0625,-33.8134765625,27.099607467651367,-2.8223876953125,2.5927734375,-1.97216796875
7.006,871,3147,3147,3147,-6.0,34.0,20.0,-85.44921112060547,-8.9111328125,15.747069358825684,-3.3131103515625,1.25537109375,-1.8482666015625
7.013,867,3147,3147,3147,-6.0,34.0,20.0,-93.68895721435547,-21.911619186401367,-11.718749046325684,-2.1707763671875,-1.106689453125,0.4927978515625
7.020,744,3147,3147,3147,-6.0,34.0,20.0,-19.287109375,-53.894039154052734,-14.526366233825684,-0.9031982421875,-0.8438720703125,1.7457275390625
7.028,638,3147,3147,3147,-6.0,34.0,20.0,86.12059783935547,-14.892577171325684,7.141112804412842,-0.780029296875,0.4835205078125,0.275634765625
7.042,653,3147,3147,3147,-6.0,34.0,20.0,126.03759002685547,38.51318359375,5.859374523162842,-1.0731201171875,0.8408203125,-1.2076416015625
7.050,682,3147,3147,3147,-6.0,34.0,20.0,79.833984375,47.302242279052734,-10.620116233825684,-1.3402099609375,0.74853515625,-1.5406494140625
7.068,661,3147,3147,3147,-6.0,34.0,20.0,8.23974609375,23.498533248901367,-17.2119140625,-1.677001953125,0.9703369140625,-1.4400634765625
7.072,464,3147,3147,3147,-6.0,34.0,20.0,-46.142574310302734,-4.150390625,-18.1884765625,-1.94189453125,0.943603515625,-1.1796875
7.080,361,3147,3147,3147,-6.0,34.0,20.0,-72.08251953125,-23.803709030151367,-23.315427780151367,-1.888671875,0.4744873046875,-0.5772705078125
7.090,360,3147,3147,3147,-6.0,34.0,20.0,-68.05419921875,-28.747556686401367,-22.827146530151367,-1.666748046875,0.2503662109375,-0.0001220703125
7.108,351,3147,2858,3147,-4.0,35.0,17.0,-42.297359466552734,-19.59228515625,-13.854979515075684,-1.4517822265625,0.3541259765625,0.2025146484375
7.111,345,3147,2567,3147,-4.0,35.0,17.0,-7.446288585662842,-2.3193359375,-4.39453125,-1.2159423828125,0.4364013671875,0.0650634765625
7.119,337,3147,2320,3147,-4.0,35.0,17.0,23.620603561401367,16.29638671875,2.746581792831421,-0.9156494140625,0.39453125,-0.0791015625
7.134,330,3147,1900,3147,-4.0,35.0,17.0,45.288082122802734,33.14208984375,4.94384765625,-0.6773681640625,0.2364501953125,-0.0758056640625
7.149,328,3147,1730,3147,-4.0,35.0,17.0,58.837886810302734,47.851558685302734,0.8544921278953552,-0.5279541015625,-0.04931640625,0.0479736328125
7.175,321,3147,1386,2801,-4.0,35.0,17.0,65.673828125,58.227535247802734,-3.601073980331421,-0.3831787109375,-0.4266357421875,0.2706298828125
7.176,317,3147,1146,2144,-4.0,35.0,17.0,70.80078125,61.157222747802734,-0.54931640625,-0.19140625,-0.708740234375,0.5208740234375
7.179,316,3147,1045,1809,-4.0,35.0,17.0,80.44432830810547,53.771968841552734,13.549803733825684,0.0013427734375,-0.6417236328125,0.647705078125
7.181,316,3147,923,1514,-4.0,35.0,17.0,97.71727752685547,39.00146484375,32.2265625,0.0120849609375,-0.1988525390625,0.44140625
7.195,313,3147,849,1201,-10.0,32.0,20.0,127.44139862060547,26.184080123901367,40.527339935302734,-0.2333984375,0.2880859375,-0.1065673828125
7.201,310,3147,853,1157,-10.0,32.0,20.0,155.09033203125,19.34814453125,33.3251953125,-0.5274658203125,0.5645751953125,-0.704345703125
7.210,308,3147,855,1026,-10.0,32.0,20.0,147.27783203125,16.17431640625,26.000974655151367,-0.6634521484375,0.69287109375,-1.0362548828125
7.222,309,3147,840,853,-10.0,32.0,20.0,102.41698455810547,15.686034202575684,27.343748092651367,-0.6290283203125,0.7210693359375,-1.035888671875
7.230,312,3147,841,774,-10.0,32.0,20.0,47.729488372802734,15.747069358825684,25.695798873901367,-0.568359375,0.6304931640625,-0.826904296875
7.238,313,3147,895,759,-10.0,32.0,20.0,1.8310545682907104,14.709471702575684,14.526366233825684,-0.635009765625,0.465576171875,-0.5355224609375
7.253,313,3147,895,803,-10.0,32.0,20.0,-27.587888717651367,11.413573265075684,2.685546636581421,-0.75439453125,0.30322265625,-0.220458984375
7.273,311,3147,905,816,-10.0,32.0,20.0,-35.7666015625,4.8828125,-2.868652105331421,-0.821533203125,0.191162109375,-0.0208740234375
7.274,309,3147,927,799,-10.0,32.0,20.0,-35.7666015625,4.8828125,-2.868652105331421,-0.869140625,0.1773681640625,-0.0745849609375
7.292,315,3147,951,749,-10.0,32.0,20.0,6.103515148162842,-1.7700194120407104,-3.356933355331421,-0.8841552734375,0.253173828125,-0.2662353515625
7.295,313,3147,974,753,-11.0,32.0,17.0,23.803709030151367,0.6103515625,-1.9531248807907104,-0.8516845703125,0.3160400390625,-0.39111328125
7.299,315,3147,991,803,-11.0,32.0,17.0,23.803709030151367,0.6103515625,-1.9531248807907104,-0.8076171875,0.3055419921875,-0.3944091796875
7.313,313,3147,939,935,-11.0,32.0,17.0,20.690916061401367,7.629394054412842,-0.9155272841453552,-0.77392578125,0.25830078125,-0.3525390625
7.320,318,3147,933,1004,-11.0,32.0,17.0,16.6015625,11.596678733825684,0.0610351525247097,-0.766357421875,0.245849609375,-0.3353271484375
7.328,318,3147,944,1079,-11.0,32.0,17.0,16.6015625,11.596678733825684,0.0610351525247097,-0.7657470703125,0.25634765625,-0.32763671875
7.342,321,3147,936,1290,-11.0,32.0,17.0,5.981444835662842,18.24951171875,5.676269054412842,-0.7449951171875,0.2421875,-0.30322265625
7.350,317,3147,971,1344,-11.0,32.0,17.0,-0.9765624403953552,20.935056686401367,8.85009765625,-0.711669921875,0.228271484375,-0.2864990234375
7.377,316,3147,999,1478,-11.0,32.0,17.0,-0.9765624403953552,20.935056686401367,8.85009765625,-0.6884765625,0.252685546875,-0.306884765625
7.379,317,3147,971,1739,-11.0,32.0,17.0,-8.30078125,26.855466842651367,12.329100608825684,-0.6787109375,0.2880859375,-0.32958984375
7.387,302,3147,1039,1844,-11.0,32.0,17.0,-13.122557640075684,28.564451217651367,12.512206077575684,-0.6661376953125,0.2822265625,-0.296630859375
7.390,316,3147,1050,2048,-12.0,36.0,18.0,-13.122557640075684,28.564451217651367,12.512206077575684,-0.646484375,0.2430419921875,-0.215087890625
7.400,321,3147,1125,2246,-12.0,36.0,18.0,-19.8974609375,29.113767623901367,13.305663108825684,-0.646484375,0.2430419921875,-0.215087890625
7.423,324,3147,1377,2557,-12.0,36.0,18.0,-23.742673873901367,20.263669967651367,17.15087890625,-0.4091796875,0.274169921875,-0.0606689453125
7.423,324,3147,1675,2840,-12.0,36.0,18.0,-23.742673873901367,20.263669967651367,17.15087890625,-0.1483154296875,0.4178466796875,-0.0653076171875
7.428,333,3147,1904,3147,-12.0,36.0,18.0,-24.536130905151367,3.234863042831421,10.070799827575684,-0.1483154296875,0.4178466796875,-0.0653076171875
7.441,359,3147,2417,3147,-12.0,36.0,18.0,-81.54296112060547,-42.480464935302734,-34.5458984375,0.1016845703125,0.843505859375,-0.1727294921875
7.449,364,3147,2716,3147,-12.0,36.0,18.0,-81.54296112060547,-42.480464935302734,-34.5458984375,-0.0740966796875,0.3370361328125,-0.1820068359375
7.457,371,3147,2788,3147,-12.0,36.0,18.0,-146.17919921875,-53.527828216552734,-50.598140716552734,-0.0740966796875,0.3370361328125,-0.1820068359375
7.481,373,3147,2765,3147,-12.0,36.0,18.0,-147.39990234375,-30.761716842651367,-50.964351654052734,-0.778564453125,-1.3753662109375,0.023193359375
7.482,376,3147,2881,3147,-12.0,36.0,18.0,-147.39990234375,-30.761716842651367,-50.964351654052734,-1.0399169921875,-0.336181640625,0.0426025390625
7.488,383,3147,3112,3147,-5.0,33.0,18.0,-71.4111328125,-8.4228515625,-25.573728561401367,-1.0399169921875,-0.336181640625,0.0426025390625
7.501,401,3147,3147,3147,-5.0,33.0,18.0,-5.798339366912842,-4.21142578125,29.235837936401367,-1.558349609375,1.2474365234375,-0.7493896484375
7.517,562,3147,3147,3147,-5.0,33.0,18.0,-5.798339366912842,-4.21142578125,29.235837936401367,-1.9508056640625,1.2401123046875,-1.2586669921875
7.519,708,3147,3147,3147,-5.0,33.0,18.0,-5.798339366912842,-8.97216796875,22.277830123901367,-1.9508056640625,1.2401123046875,-1.2586669921875
7.531,645,3147,3147,3147,-5.0,33.0,18.0,-37.109375,0.0610351525247097,-3.112792730331421,-2.87890625,0.5665283203125,-0.9434814453125
7.539,654,3147,3147,3147,-5.0,33.0,18.0,-37.109375,0.0610351525247097,-3.112792730331421,-1.78125,-0.6251220703125,0.71484375
7.547,553,3147,3147,3147,-5.0,33.0,18.0,-33.26416015625,-4.638671875,-8.544921875,-1.78125,-0.6251220703125,0.71484375
7.561,508,3147,3147,3147,-5.0,33.0,18.0,88.68407440185547,30.334470748901367,19.1650390625,-0.796142578125,0.6927490234375,-0.8575439453125
7.589,518,3147,3147,3147,-5.0,33.0,18.0,88.68407440185547,30.334470748901367,19.1650390625,-1.0250244140625,0.775146484375,-1.765380859375
7.590,521,3147,3147,3147,-5.0,33.0,18.0,85.32714080810547,32.958984375,3.112792730331421,-1.0250244140625,0.775146484375,-1.765380859375
7.591,490,3147,3147,3147,-5.0,33.0,17.0,27.587888717651367,2.197265625,-19.4091796875,-1.7406005859375,0.5885009765625,-1.1646728515625
7.599,390,3147,3147,3147,-5.0,33.0,17.0,-33.14208984375,-37.41455078125,-25.512693405151367,-1.7406005859375,0.5885009765625,-1.1646728515625
7.608,385,3147,3147,3147,-5.0,33.0,17.0,-67.7490234375,-59.631343841552734,-18.85986328125,-1.956787109375,0.529296875,-0.72216796875
7.622,387,3147,3144,3147,-5.0,33.0,17.0,-77.08740234375,-60.791011810302734,-9.521484375,-1.6048583984375,0.417236328125,-0.031494140625
7.629,382,3147,3079,3147,-5.0,33.0,17.0,-65.185546875,-46.447750091552734,-3.845214605331421,-1.6048583984375,0.417236328125,-0.031494140625
7.644,371,3147,2955,3147,-5.0,33.0,17.0,-40.161128997802734,-22.766111373901367,-3.234863042831421,-1.3819580078125,0.5267333984375,-0.0015869140625
7.652,363,3147,2544,3147,-5.0,33.0,17.0,-14.953612327575684,3.051757574081421,-5.065917491912842,-0.832763671875,0.4835205078125,-0.0526123046875
7.659,359,3147,2356,3147,-5.0,33.0,17.0,4.69970703125,27.404783248901367,-7.995604991912842,-0.832763671875,0.4835205078125,-0.0526123046875
7.682,359,3147,2160,3147,-5.0,33.0,17.0,22.216794967651367,50.354000091552734,-12.390135765075684,-0.63525390625,0.1973876953125,0.019775390625
7.689,336,3147,1652,2872,-7.0,35.0,14.0,39.61181640625,69.88525390625,-15.258788108825684,-0.5802001953125,-0.468994140625,0.32568359375
7.690,331,3147,1399,2445,-7.0,35.0,14.0,54.748531341552734,79.7119140625,-12.878417015075684,-0.5802001953125,-0.468994140625,0.32568359375
7.698,325,3147,1312,2072,-7.0,35.0,14.0,72.93701171875,74.40185546875,-3.662109136581421,-0.394775390625,-0.7144775390625,0.51904296875
7.713,323,3147,1146,1440,-7.0,35.0,14.0,98.93798065185547,52.124019622802734,13.244627952575684,-0.0479736328125,-0.237060546875,0.1591796875
7.723,321,3147,1050,1014,-7.0,35.0,14.0,129.5166015625,22.460935592651367,32.65380859375,-0.0479736328125,-0.237060546875,0.1591796875
7.728,321,3147,1004,794,-7.0,35.0,14.0,163.94041442871094,2.746581792831421,44.433589935302734,-0.2698974609375,0.11376953125,-0.3896484375
7.741,317,3147,976,371,-7.0,35.0,14.0,187.68309020996094,-3.234863042831421,48.950191497802734,-0.5948486328125,0.5926513671875,-1.0699462890625
7.756,318,3018,963,355,-7.0,35.0,14.0,179.50437927246094,-3.112792730331421,55.725093841552734,-0.5948486328125,0.5926513671875,-1.0699462890625
7.757,318,2821,944,356,-7.0,35.0,14.0,140.80810546875,-3.601073980331421,56.884761810302734,-0.490234375,0.8355712890625,-1.07568359375
7.785,321,2407,938,348,-7.0,35.0,14.0,84.41161346435547,-6.896972179412842,38.26904296875,-0.60302734375,0.5843505859375,-0.5498046875
7.786,321,2348,923,354,-10.0,33.0,17.0,24.230955123901367,-10.864256858825684,9.6435546875,-0.60302734375,0.5843505859375,-0.5498046875
7.788,306,2306,951,347,-10.0,33.0,17.0,-19.04296875,-15.197752952575684,-10.681151390075684,-0.6912841796875,0.3155517578125,-0.2374267578125
7.801,321,2192,913,348,-10.0,33.0,17.0,-32.16552734375,-19.34814453125,-19.6533203125,-0.71337890625,0.2059326171875,-0.1297607421875
7.809,321,2083,1004,348,-10.0,33.0,17.0,-23.620603561401367,-20.446775436401367,-21.850584030151367,-0.7508544921875,0.214599609375,-0.213134765625
7.824,318,1973,992,351,-10.0,33.0,17.0,-8.7890625,-18.12744140625,-19.287109375,-0.7764892578125,0.259765625,-0.3243408203125
7.831,319,2115,1042,346,-10.0,33.0,17.0,2.685546636581421,-13.854979515075684,-14.953612327575684,-0.765380859375,0.30126953125,-0.3533935546875
7.840,321,2183,1056,348,-10.0,33.0,17.0,7.263183116912842,-8.23974609375,-11.596678733825684,-0.755859375,0.3310546875,-0.3040771484375
7.848,321,2374,1031,349,-10.0,33.0,17.0,6.713866710662842,-1.5258787870407104,-9.09423828125,-0.75,0.31494140625,-0.24560546875
7.862,318,2599,1005,351,-10.0,33.0,17.0,3.845214605331421,6.530761241912842,-5.798339366912842,-0.743408203125,0.2437744140625,-0.2283935546875
7.870,317,2887,1014,354,-10.0,33.0,17.0,-1.4648436307907104,16.11328125,-0.7324218153953552,-0.7481689453125,0.179443359375,-0.2225341796875
7.887,317,3147,1018,354,-10.0,33.0,14.0,-9.27734375,25.268552780151367,5.920409679412842,-0.7486572265625,0.15869140625,-0.2113037109375
7.891,316,3147,1031,513,-10.0,33.0,14.0,-14.892577171325684,32.5927734375,13.244627952575684,-0.7352294921875,0.166259765625,-0.24462890625
7.902,316,3147,1039,683,-10.0,33.0,14.0,-14.160155296325684,38.2080078125,20.080564498901367,-0.724609375,0.1866455078125,-0.3248291015625
7.910,316,3147,991,890,-10.0,33.0,14.0,-8.7890625,41.320796966552734,25.268552780151367,-0.717529296875,0.2298583984375,-0.38330078125
7.928,317,3147,947,1271,-10.0,33.0,14.0,-3.906249761581421,39.1845703125,27.404783248901367,-0.65576171875,0.3231201171875,-0.396484375
7.929,305,3147,966,1494,-10.0,33.0,14.0,-4.57763671875,27.282712936401367,22.644041061401367,-0.596435546875,0.3980712890625,-0.3807373046875
7.937,318,3147,1053,1813,-10.0,33.0,14.0,-12.390135765075684,12.817381858825684,14.770506858825684,-0.606689453125,0.3760986328125,-0.317138671875
7.951,321,3147,1129,2268,-10.0,33.0,14.0,-20.263669967651367,0.7934569716453552,15.380858421325684,-0.5491943359375,0.3216552734375,-0.21484375
7.959,328,3147,1320,2679,-10.0,33.0,14.0,-22.460935592651367,-12.817381858825684,22.827146530151367,-0.3905029296875,0.32470703125,-0.092041015625
7.968,332,3147,1722,3056,-10.0,33.0,14.0,-22.460935592651367,-34.0576171875,21.667478561401367,-0.06005859375,0.4642333984375,0.05078125
7.990,361,3147,2544,3147,-11.0,32.0,19.0,-36.56005859375,-70.556640625,-6.896972179412842,0.3870849609375,0.8189697265625,0.087158203125
7.990,344,3147,2879,3147,-11.0,32.0,19.0,-89.41649627685547,-106.50634002685547,-59.936519622802734,0.42529296875,1.01025390625,-0.0408935546875
7.997,349,3147,2803,3147,-11.0,32.0,19.0,-178.58885192871094,-118.65233612060547,-103.02733612060547,-0.02978515625,-0.1263427734375,-0.0860595703125
8.013,359,3147,2881,3147,-11.0,32.0,19.0,-223.32762145996094,-102.90526580810547,-106.99462127685547,-0.532958984375,-1.94091796875,0.0118408203125
8.030,373,3147,3147,3147,-11.0,32.0,19.0,-162.71971130371094,-65.73486328125,-66.58935546875,-0.942626953125,-1.6417236328125,-0.0604248046875
8.033,398,3147,3147,3147,-11.0,32.0,19.0,-72.81494140625,-28.015134811401367,-4.45556640625,-1.4097900390625,0.5753173828125,-0.5126953125
8.042,787,3147,3147,3147,-11.0,32.0,19.0,-43.640132904052734,-10.742186546325684,29.602048873901367,-1.9417724609375,2.02587890625,-1.010498046875
8.049,787,3147,3147,3147,-11.0,32.0,19.0,-65.85693359375,-0.3662109076976776,20.446775436401367,-2.8128662109375,2.53857421875,-1.685546875
8.057,784,3147,3147,3147,-11.0,32.0,19.0,-92.83446502685547,27.465818405151367,-5.310058116912842,-3.29833984375,0.9989013671875,-1.419189453125
8.071,765,3147,3147,3147,-7.0,36.0,18.0,-75.439453125,22.277830123901367,-21.301267623901367,-2.1444091796875,-0.9134521484375,0.5533447265625
8.095,604,3147,3147,3147,-7.0,36.0,18.0,19.04296875,5.187987804412842,-8.72802734375,-0.920654296875,-0.3531494140625,1.02490234375
8.095,498,3147,3147,3147,-7.0,36.0,18.0,124.38964080810547,28.198240280151367,6.591796398162842,-0.7957763671875,0.5748291015625,-0.57861328125
8.102,552,3147,3147,3147,-7.0,36.0,18.0,144.59228515625,39.1845703125,-1.6479490995407104,-0.983642578125,0.637451171875,-1.6856689453125
8.118,533,3147,3147,3147,-7.0,36.0,18.0,88.80614471435547,18.00537109375,-13.488768577575684,-1.2301025390625,0.6099853515625,-1.7984619140625
8.119,457,3147,3147,3147,-7.0,36.0,18.0,20.202634811401367,-17.51708984375,-18.06640625,-1.5684814453125,0.8424072265625,-1.5439453125
8.132,373,3147,3147,3147,-7.0,36.0,18.0,-34.0576171875,-46.264644622802734,-22.033689498901367,-1.872802734375,0.766357421875,-1.135986328125
8.139,373,3147,3147,3147,-7.0,36.0,18.0,-67.68798828125,-59.020992279052734,-24.658201217651367,-1.9091796875,0.434814453125,-0.529541015625
8.148,369,3147,3133,3147,-7.0,36.0,18.0,-71.83837890625,-57.067867279052734,-22.827146530151367,-1.733642578125,0.218505859375,-0.02490234375
8.161,364,3147,3015,3147,-7.0,36.0,18.0,-51.025386810302734,-45.227046966552734,-18.4326171875,-1.536376953125,0.2811279296875,0.095947265625
8.169,361,3147,2848,3147,-5.0,33.0,19.0,-23.193357467651367,-29.113767623901367,-13.244627952575684,-1.361328125,0.5159912109375,-0.1005859375
8.177,356,3147,2630,3147,-5.0,33.0,19.0,-2.807616949081421,-14.099120140075684,-9.94873046875,-1.09375,0.581298828125,-0.2254638671875
8.194,351,3147,2356,3147,-5.0,33.0,19.0,9.33837890625,-1.9531248807907104,-13.488768577575684,-0.781982421875,0.315185546875,-0.1219482421875
8.199,351,3147,2210,2927,-5.0,33.0,19.0,21.423337936401367,10.375975608825684,-22.827146530151367,-0.6025390625,-0.030029296875,-0.010498046875
8.207,344,3147,1978,1949,-5.0,33.0,19.0,35.7666015625,21.179197311401367,-30.456541061401367,-0.5599365234375,-0.30029296875,0.0244140625
8.233,328,3147,1733,360,-5.0,33.0,19.0,50.903316497802734,27.587888717651367,-32.04345703125,-0.5338134765625,-0.44384765625,0.0164794921875
8.233,328,2230,1555,351,-5.0,33.0,19.0,63.537593841552734,27.893064498901367,-25.207517623901367,-0.43408203125,-0.404541015625,0.0782470703125
8.237,325,1085,1422,344,-5.0,33.0,19.0,66.89453125,20.202634811401367,-12.023924827575684,-0.346923828125,-0.290283203125,0.283447265625
8.252,322,517,1243,323,-5.0,33.0,19.0,70.80078125,14.343260765075684,1.6479490995407104,-0.359375,-0.2918701171875,0.322021484375
8.260,318,418,1251,317,-5.0,33.0,19.0,95.70311737060547,20.202634811401367,13.671874046325684,-0.425537109375,-0.33203125,0.0528564453125
8.268,314,328,1064,316,-10.0,33.0,16.0,95.70311737060547,20.202634811401367,13.671874046325684,-0.50146484375,-0.2012939453125,-0.192138671875
8.296,310,378,936,317,-10.0,33.0,16.0,168.39598083496094,42.663570404052734,44.738765716552734,-0.5426025390625,0.039306640625,-0.2418212890625
8.297,307,344,828,318,-10.0,33.0,16.0,186.03514099121094,41.625972747802734,52.978511810302734,-0.514404296875,0.2723388671875,-0.2647705078125
8.300,308,360,879,314,-10.0,33.0,16.0,186.03514099121094,41.625972747802734,52.978511810302734,-0.409423828125,0.534912109375,-0.4173583984375
8.312,310,346,890,317,-10.0,33.0,16.0,168.82322692871094,16.2353515625,27.038572311401367,-0.2763671875,0.8250732421875,-0.5838623046875
8.330,310,316,894,316,-10.0,33.0,16.0,115.96678924560547,-5.371093273162842,-8.544921875,-0.3162841796875,0.998291015625,-0.5894775390625
8.338,310,359,895,316,-10.0,33.0,16.0,115.96678924560547,-5.371093273162842,-8.544921875,-0.5885009765625,0.993408203125,-0.5052490234375
8.341,309,359,946,318,-10.0,33.0,16.0,3.173827886581421,-25.512693405151367,-44.555660247802734,-0.8214111328125,0.9027099609375,-0.501708984375
8.349,313,369,975,321,-10.0,33.0,16.0,-19.83642578125,-24.658201217651367,-33.935546875,-0.8314208984375,0.779541015625,-0.543212890625
8.357,313,413,1003,317,-10.0,33.0,16.0,-19.83642578125,-24.658201217651367,-33.935546875,-0.712890625,0.605224609375,-0.47998046875
8.371,316,454,1107,321,-10.0,32.0,15.0,-66.34521484375,-24.658201217651367,-23.498533248901367,-0.62646484375,0.3818359375,-0.313720703125
8.379,318,540,1241,324,-10.0,32.0,15.0,-83.86229705810547,-22.644041061401367,-21.789548873901367,-0.61572265625,0.1483154296875,-0.1812744140625
8.402,321,654,1370,321,-10.0,32.0,15.0,-83.86229705810547,-22.644041061401367,-21.789548873901367,-0.6434326171875,-0.0452880859375,-0.14990234375
8.402,321,912,1411,334,-10.0,32.0,15.0,-62.316890716552734,-7.385253429412842,-5.859374523162842,-0.6744384765625,-0.165283203125,-0.1468505859375
8.409,323,1478,1399,337,-10.0,32.0,15.0,-42.297359466552734,1.8310545682907104,5.432128429412842,-0.6912841796875,-0.2464599609375,-0.115234375
8.418,323,2268,1395,346,-10.0,32.0,15.0,-42.297359466552734,1.8310545682907104,5.432128429412842,-0.71142578125,-0.293212890625,-0.1025390625
8.431,328,3147,1440,359,-10.0,32.0,15.0,-12.268065452575684,20.629880905151367,26.733396530151367,-0.7882080078125,-0.208740234375,-0.1900634765625
8.446,328,3147,1445,739,-10.0,32.0,15.0,0.9765624403953552,30.944822311401367,36.92626953125,-0.9129638671875,0.0230712890625,-0.3441162109375
8.456,328,3147,1415,1178,-10.0,32.0,15.0,0.9765624403953552,30.944822311401367,36.92626953125,-0.981201171875,0.2349853515625,-0.426513671875
8.462,326,3147,1387,1860,-11.0,31.0,14.0,-7.751464366912842,36.9873046875,47.973628997802734,-0.923828125,0.2679443359375,-0.3741455078125
8.469,329,3147,1463,2210,-11.0,31.0,14.0,-21.850584030151367,28.564451217651367,46.691890716552734,-0.7940673828125,0.165283203125,-0.2391357421875
8.478,330,3147,1564,2601,-11.0,31.0,14.0,-21.850584030151367,28.564451217651367,46.691890716552734,-0.6287841796875,0.1212158203125,-0.05615234375
8.500,346,3147,1855,3147,-11.0,31.0,14.0,-15.502928733825684,-11.169432640075684,24.658201217651367,-0.3370361328125,0.27197265625,0.109375
8.501,346,3147,2195,3147,-11.0,31.0,14.0,-15.502928733825684,-11.169432640075684,24.658201217651367,0.098876953125,0.7032470703125,0.0894775390625
8.507,360,3147,2657,3147,-11.0,31.0,14.0,-16.4794921875,-37.78076171875,3.051757574081421,0.098876953125,0.7032470703125,0.0894775390625
8.528,364,3147,3076,3147,-11.0,31.0,14.0,-141.54052734375,-67.32177734375,-40.710445404052734,0.185302734375,0.642578125,-0.33984375
8.530,372,3147,3071,3147,-11.0,31.0,14.0,-141.54052734375,-67.32177734375,-40.710445404052734,-0.1356201171875,-1.1900634765625,-0.0400390625
8.556,375,3147,3106,3147,-11.0,31.0,14.0,-205.99363708496094,-62.927242279052734,-48.767086029052734,-0.1356201171875,-1.1900634765625,-0.0400390625
8.557,414,3147,3147,3147,-11.0,31.0,14.0,-92.22411346435547,-13.061522483825684,-7.812499523162842,-1.0472412109375,-0.4691162109375,0.1279296875
