time,compression0,compression1,compression2,compression3,magn_x,magn_y,magn_z,gyro_x,gyro_y,gyro_z,accel_x,accel_y,accel_z
0.003,310,780,437,328,4.0,36.0,7.0,2.13623046875,0.30517578125,-6.591796398162842,-0.843505859375,0.48095703125,-0.047119140625
0.012,313,780,437,330,4.0,36.0,7.0,2.624511480331421,0.6713866591453552,-7.690429210662842,-0.841552734375,0.481201171875,-0.04296875
0.040,313,865,420,329,4.0,36.0,7.0,3.417968511581421,0.9155272841453552,-8.48388671875,-0.8499755859375,0.47705078125,-0.06640625
0.041,315,874,418,333,5.0,38.0,7.0,5.0048828125,0.9155272841453552,-8.60595703125,-0.8499755859375,0.47705078125,-0.06640625
0.041,313,939,401,310,5.0,38.0,7.0,7.263183116912842,0.54931640625,-7.995604991912842,-0.852783203125,0.475341796875,-0.0848388671875
0.055,313,1038,411,334,5.0,38.0,7.0,9.46044921875,-0.0610351525247097,-7.385253429412842,-0.8663330078125,0.4796142578125,-0.09326171875
0.063,313,1056,423,332,5.0,38.0,7.0,11.230467796325684,-0.7934569716453552,-7.263183116912842,-0.8663330078125,0.4796142578125,-0.09326171875
0.072,314,1079,426,332,5.0,38.0,7.0,12.207030296325684,-1.4648436307907104,-7.629394054412842,-0.870849609375,0.5042724609375,-0.092529296875
0.100,313,1207,404,332,5.0,38.0,7.0,11.657713890075684,-1.8310545682907104,-8.544921875,-0.8629150390625,0.5556640625,-0.0794677734375
0.101,313,1236,424,330,5.0,38.0,7.0,9.46044921875,-1.7700194120407104,-10.131834983825684,-0.8629150390625,0.5556640625,-0.0794677734375
0.101,314,1241,387,308,5.0,38.0,7.0,6.835937023162842,-1.5869139432907104,-12.084959983825684,-0.8575439453125,0.564697265625,-0.080078125
0.110,315,1267,406,334,5.0,38.0,7.0,4.94384765625,-1.6479490995407104,-13.977049827575684,-0.8526611328125,0.5506591796875,-0.07763671875
0.124,314,1220,402,332,5.0,38.0,7.0,4.7607421875,-1.9531248807907104,-15.686034202575684,-0.854736328125,0.5272216796875,-0.075439453125
0.149,313,1228,407,336,3.0,36.0,10.0,6.164550304412842,-2.38037109375,-17.15087890625,-0.863525390625,0.51806640625,-0.0809326171875
0.150,314,1175,378,330,3.0,36.0,10.0,7.507323741912842,-2.624511480331421,-18.12744140625,-0.87060546875,0.5177001953125,-0.086669921875
0.156,318,1198,373,332,3.0,36.0,10.0,6.835937023162842,-2.624511480331421,-18.98193359375,-0.8731689453125,0.5152587890625,-0.0899658203125
0.162,316,1234,363,334,3.0,36.0,10.0,4.2724609375,-2.3193359375,-19.8974609375,-0.870849609375,0.5107421875,-0.0943603515625
0.172,315,1198,351,332,3.0,36.0,10.0,0.54931640625,-1.8920897245407104,-20.812986373901367,-0.8665771484375,0.49462890625,-0.0960693359375
0.184,315,1173,347,332,3.0,36.0,10.0,-3.112792730331421,-1.6479490995407104,-21.606443405151367,-0.8685302734375,0.4664306640625,-0.0927734375
0.204,316,1185,343,334,3.0,36.0,10.0,-4.7607421875,-1.7700194120407104,-21.789548873901367,-0.8763427734375,0.4423828125,-0.08984375
0.204,315,1156,338,332,3.0,36.0,10.0,-3.662109136581421,-2.25830078125,-20.996091842651367,-0.8834228515625,0.425537109375,-0.088623046875
0.216,315,1137,338,330,3.0,36.0,10.0,-1.0986328125,-2.929687261581421,-19.6533203125,-0.8885498046875,0.417724609375,-0.0860595703125
0.222,315,1111,348,332,3.0,36.0,10.0,0.9765624403953552,-3.479003667831421,-18.5546875,-0.8900146484375,0.4205322265625,-0.083740234375
0.241,315,1120,330,330,8.0,37.0,7.0,1.7089842557907104,-3.906249761581421,-17.578125,-0.8873291015625,0.42578125,-0.0821533203125
0.259,313,1188,328,328,8.0,37.0,7.0,1.03759765625,-4.21142578125,-16.54052734375,-0.8829345703125,0.4296875,-0.07958984375
0.259,313,1173,328,327,8.0,37.0,7.0,-0.1831054538488388,-4.57763671875,-15.502928733825684,-0.8798828125,0.4295654296875,-0.073486328125
0.264,313,1253,322,324,8.0,37.0,7.0,-0.8544921278953552,-4.8828125,-14.587401390075684,-0.8807373046875,0.4327392578125,-0.06689453125
0.274,314,1220,329,327,8.0,37.0,7.0,-0.7934569716453552,-5.065917491912842,-13.854979515075684,-0.885009765625,0.4443359375,-0.0673828125
0.282,313,1172,330,331,8.0,37.0,7.0,-0.7324218153953552,-5.187987804412842,-13.305663108825684,-0.890380859375,0.451171875,-0.0726318359375
0.297,315,1236,330,322,8.0,37.0,7.0,-0.7324218153953552,-5.432128429412842,-13.000487327575684,-0.89404296875,0.4512939453125,-0.0804443359375
0.306,313,1204,328,328,8.0,37.0,7.0,-0.7934569716453552,-5.676269054412842,-13.061522483825684,-0.8896484375,0.4559326171875,-0.08984375
0.312,313,1162,342,332,8.0,37.0,7.0,-1.7089842557907104,-5.798339366912842,-13.244627952575684,-0.8751220703125,0.461181640625,-0.0965576171875
0.320,315,1224,354,331,8.0,37.0,7.0,-3.540038824081421,-5.859374523162842,-13.488768577575684,-0.8592529296875,0.460205078125,-0.0977783203125
0.344,313,1254,356,330,9.0,35.0,9.0,-5.615233898162842,-5.737304210662842,-13.549803733825684,-0.85205078125,0.4503173828125,-0.0933837890625
0.344,314,1243,356,308,9.0,35.0,9.0,-7.629394054412842,-5.493163585662842,-13.366698265075684,-0.8568115234375,0.435546875,-0.079833984375
0.366,315,1262,344,332,9.0,35.0,9.0,-9.6435546875,-5.187987804412842,-13.305663108825684,-0.872314453125,0.42626953125,-0.0599365234375
0.366,308,1243,344,328,9.0,35.0,9.0,-11.230467796325684,-5.0048828125,-13.549803733825684,-0.89013671875,0.4207763671875,-0.0469970703125
0.373,313,1214,362,334,9.0,35.0,9.0,-11.840819358825684,-4.94384765625,-13.854979515075684,-0.90185546875,0.4139404296875,-0.04443359375
0.385,314,1169,373,332,9.0,35.0,9.0,-11.779784202575684,-5.126952648162842,-14.038084983825684,-0.908935546875,0.4073486328125,-0.0445556640625
0.408,310,1185,385,330,9.0,35.0,9.0,-11.718749046325684,-5.310058116912842,-13.793944358825684,-0.912353515625,0.40234375,-0.0439453125
0.408,315,1156,371,329,9.0,35.0,9.0,-12.329100608825684,-5.432128429412842,-12.939452171325684,-0.9091796875,0.393310546875,-0.0384521484375
0.411,313,1184,376,332,9.0,35.0,9.0,-13.610838890075684,-5.187987804412842,-11.840819358825684,-0.901611328125,0.3765869140625,-0.030029296875
0.425,314,1251,374,332,8.0,34.0,8.0,-15.014647483825684,-4.7607421875,-10.681151390075684,-0.889404296875,0.3592529296875,-0.0289306640625
0.447,315,1239,370,334,8.0,34.0,8.0,-15.319823265075684,-4.57763671875,-9.765625,-0.875732421875,0.3599853515625,-0.0377197265625
0.447,313,1248,371,332,8.0,34.0,8.0,-14.526366233825684,-4.69970703125,-9.21630859375,-0.8699951171875,0.384033203125,-0.05078125
0.455,313,1258,359,332,8.0,34.0,8.0,-13.427733421325684,-4.94384765625,-9.033203125,-0.8697509765625,0.4107666015625,-0.061279296875
0.466,310,1228,371,332,8.0,34.0,8.0,-13.000487327575684,-5.310058116912842,-9.09423828125,-0.8707275390625,0.43212890625,-0.0653076171875
0.476,313,1183,348,328,8.0,34.0,8.0,-13.610838890075684,-5.798339366912842,-9.82666015625,-0.875244140625,0.4493408203125,-0.05908203125
0.490,313,1216,360,332,8.0,34.0,8.0,-16.05224609375,-6.347655773162842,-11.352538108825684,-0.8846435546875,0.44677734375,-0.041259765625
0.513,314,1250,354,331,8.0,34.0,8.0,-19.04296875,-6.896972179412842,-13.122557640075684,-0.897705078125,0.4168701171875,-0.0245361328125
0.513,299,1264,354,330,8.0,34.0,8.0,-20.080564498901367,-7.629394054412842,-14.038084983825684,-0.9056396484375,0.3790283203125,-0.0203857421875
0.518,314,1265,348,332,8.0,34.0,8.0,-18.24951171875,-8.30078125,-13.793944358825684,-0.9031982421875,0.3570556640625,-0.0228271484375
0.539,316,1336,347,332,9.0,32.0,7.0,-15.075682640075684,-8.72802734375,-12.939452171325684,-0.8956298828125,0.3536376953125,-0.02685546875
0.548,314,1338,348,334,9.0,32.0,7.0,-12.634276390075684,-8.97216796875,-12.268065452575684,-0.8909912109375,0.3603515625,-0.0296630859375
0.553,315,1343,371,334,9.0,32.0,7.0,-12.207030296325684,-9.27734375,-12.329100608825684,-0.8929443359375,0.3695068359375,-0.0269775390625
0.564,315,1413,364,336,9.0,32.0,7.0,-13.427733421325684,-9.6435546875,-12.817381858825684,-0.8990478515625,0.3724365234375,-0.0230712890625
0.578,316,1422,375,336,9.0,32.0,7.0,-14.587401390075684,-10.192870140075684,-12.695311546325684,-0.905517578125,0.3670654296875,-0.0250244140625
0.579,316,1464,344,330,9.0,32.0,7.0,-14.160155296325684,-10.986327171325684,-11.718749046325684,-0.9002685546875,0.36376953125,-0.03466796875
0.588,315,1557,347,334,9.0,32.0,7.0,-12.939452171325684,-11.962889671325684,-10.314940452575684,-0.8756103515625,0.3641357421875,-0.038818359375
0.591,317,1561,346,334,9.0,32.0,7.0,-12.939452171325684,-11.962889671325684,-10.314940452575684,-0.8560791015625,0.36572265625,-0.0272216796875
0.613,317,1695,347,332,9.0,32.0,7.0,-14.282225608825684,-13.244627952575684,-8.60595703125,-0.8594970703125,0.3731689453125,-0.0108642578125
0.613,316,1762,348,338,9.0,32.0,7.0,-17.88330078125,-13.366698265075684,-7.263183116912842,-0.8697509765625,0.37841796875,0.000732421875
0.621,316,1743,387,342,10.0,34.0,9.0,-17.88330078125,-13.366698265075684,-7.263183116912842,-0.8734130859375,0.3668212890625,0.0001220703125
0.635,316,1895,411,336,10.0,34.0,9.0,-27.587888717651367,-12.329100608825684,-1.4038084745407104,-0.878662109375,0.3531494140625,-0.017578125
0.649,310,2100,402,338,10.0,34.0,9.0,-32.04345703125,-11.840819358825684,3.295898199081421,-0.888916015625,0.3499755859375,-0.0472412109375
0.651,318,2142,426,343,10.0,34.0,9.0,-32.04345703125,-11.840819358825684,3.295898199081421,-0.905517578125,0.3341064453125,-0.054931640625
0.666,321,2334,430,342,10.0,34.0,9.0,-47.424312591552734,-10.253905296325684,16.845703125,-0.9189453125,0.280517578125,-0.0318603515625
0.679,318,2565,401,344,10.0,34.0,9.0,-56.640621185302734,-8.4228515625,24.902341842651367,-0.89111328125,0.198486328125,0.0167236328125
0.682,307,2887,416,346,10.0,34.0,9.0,-56.640621185302734,-8.4228515625,24.902341842651367,-0.775634765625,0.11962890625,0.0863037109375
0.715,323,3147,441,423,10.0,34.0,9.0,-59.020992279052734,-7.141112804412842,34.11865234375,-0.5723876953125,0.0550537109375,0.1151123046875
0.715,313,3147,385,853,10.0,34.0,9.0,-47.180171966552734,-10.375975608825684,29.541013717651367,-0.3167724609375,0.0394287109375,0.0826416015625
0.715,328,3147,458,1133,10.0,34.0,9.0,-47.180171966552734,-10.375975608825684,29.541013717651367,-0.0123291015625,0.0994873046875,0.056884765625
0.725,334,3147,551,1759,9.0,34.0,15.0,-20.385740280151367,-31.921384811401367,3.479003667831421,0.3258056640625,0.1708984375,0.0716552734375
0.733,344,3147,695,2122,9.0,34.0,15.0,-15.686034202575684,-49.621578216552734,-22.827146530151367,0.6041259765625,0.2205810546875,0.1419677734375
0.752,360,3147,824,2458,9.0,34.0,15.0,-15.686034202575684,-49.621578216552734,-22.827146530151367,0.6727294921875,0.2913818359375,0.221435546875
0.755,399,3147,1231,2868,9.0,34.0,15.0,-19.10400390625,-72.6318359375,-101.86766815185547,0.416748046875,0.52783203125,0.204345703125
0.767,409,3147,1478,3112,9.0,34.0,15.0,-25.817869186401367,-68.4814453125,-127.07518768310547,-0.2154541015625,1.1246337890625,0.113525390625
0.771,424,3147,1748,3147,9.0,34.0,15.0,-25.817869186401367,-68.4814453125,-127.07518768310547,-1.0333251953125,1.756103515625,0.0499267578125
0.787,466,3147,2231,3147,9.0,34.0,15.0,-73.6083984375,-50.109859466552734,-94.72655487060547,-1.766845703125,1.6419677734375,0.1820068359375
0.796,478,3147,2489,3147,9.0,34.0,15.0,-107.84911346435547,-50.354000091552734,-69.091796875,-2.4547119140625,0.47119140625,0.3580322265625
0.818,485,3147,2716,3147,9.0,34.0,15.0,-107.84911346435547,-50.354000091552734,-69.091796875,-3.005126953125,-0.913818359375,0.4942626953125
0.818,481,3147,2808,3147,16.0,29.0,12.0,-86.97509002685547,-37.2314453125,-54.077144622802734,-3.312744140625,-1.1856689453125,0.5428466796875
0.823,480,3147,2612,3147,16.0,29.0,12.0,-86.97509002685547,-37.2314453125,-54.077144622802734,-3.0157470703125,-0.5352783203125,0.178955078125
0.833,479,3147,2430,3147,16.0,29.0,12.0,-17.08984375,-22.460935592651367,-25.207517623901367,-3.0157470703125,-0.5352783203125,0.178955078125
0.840,473,3147,2284,3147,16.0,29.0,12.0,48.645015716552734,-5.371093273162842,12.634276390075684,-1.913330078125,0.1134033203125,-0.2076416015625
0.855,470,3147,2319,3147,16.0,29.0,12.0,34.11865234375,28.747556686401367,-2.50244140625,-0.8450927734375,1.4654541015625,-0.0074462890625
0.864,473,3147,2310,3147,16.0,29.0,12.0,34.11865234375,28.747556686401367,-2.50244140625,-1.418701171875,1.58203125,0.2220458984375
0.873,473,3147,2225,3147,16.0,29.0,12.0,-28.320310592651367,44.860836029052734,-36.68212890625,-1.418701171875,1.58203125,0.2220458984375
0.892,470,3147,1967,3147,16.0,29.0,12.0,-85.57128143310547,39.55078125,-54.931636810302734,-2.3529052734375,0.298828125,0.4393310546875
0.892,462,3147,1716,3072,16.0,29.0,12.0,-85.57128143310547,39.55078125,-54.931636810302734,-2.2384033203125,-0.1051025390625,0.3865966796875
0.900,454,3147,1535,2993,16.0,29.0,12.0,-56.701656341552734,22.216794967651367,-41.992183685302734,-2.2384033203125,-0.1051025390625,0.3865966796875
0.926,419,3147,1222,2557,15.0,30.0,8.0,13.732909202575684,3.723144292831421,-4.21142578125,-1.3638916015625,-0.0677490234375,0.283203125
0.927,390,3147,1031,2287,15.0,30.0,8.0,13.732909202575684,3.723144292831421,-4.21142578125,-1.3638916015625,-0.0677490234375,0.283203125
0.930,376,3147,803,1934,15.0,30.0,8.0,22.583005905151367,8.4228515625,13.916014671325684,-0.9295654296875,0.078369140625,0.326416015625
0.959,354,3147,463,1149,15.0,30.0,8.0,18.00537109375,19.04296875,28.442380905151367,-0.444580078125,-0.04833984375,0.0718994140625
0.959,332,3147,417,779,15.0,30.0,8.0,9.70458984375,32.3486328125,34.11865234375,-0.444580078125,-0.04833984375,0.0718994140625
0.960,327,3147,356,438,15.0,30.0,8.0,3.173827886581421,42.175289154052734,28.259275436401367,-0.4049072265625,-0.239501953125,-0.248779296875
0.975,321,2047,391,337,15.0,30.0,8.0,21.972654342651367,40.588375091552734,8.4228515625,-0.3995361328125,-0.0589599609375,-0.6922607421875
0.983,318,1430,347,344,15.0,30.0,8.0,21.972654342651367,40.588375091552734,8.4228515625,-0.26611328125,0.3602294921875,-0.4820556640625
0.999,318,1237,355,342,15.0,30.0,8.0,41.320796966552734,33.63037109375,8.85009765625,-0.26611328125,0.3602294921875,-0.4820556640625
1.007,315,737,383,330,15.0,30.0,8.0,21.362302780151367,22.155759811401367,-4.08935546875,-0.318115234375,0.5506591796875,0.2034912109375
1.025,315,707,391,336,16.0,29.0,7.0,21.362302780151367,22.155759811401367,-4.08935546875,-0.568115234375,0.470458984375,0.3590087890625
1.025,300,543,414,332,16.0,29.0,7.0,-1.7700194120407104,24.108884811401367,-11.596678733825684,-0.568115234375,0.470458984375,0.3590087890625
1.038,315,536,385,332,16.0,29.0,7.0,-10.559081077575684,26.672361373901367,-9.33837890625,-0.5323486328125,0.1087646484375,0.2166748046875
1.043,315,588,416,332,16.0,29.0,7.0,-8.36181640625,28.625486373901367,-9.70458984375,-0.5323486328125,0.1087646484375,0.2166748046875
1.060,316,624,415,334,16.0,29.0,7.0,-2.624511480331421,27.160642623901367,-16.41845703125,-0.5921630859375,-0.0001220703125,0.2288818359375
1.065,317,645,387,336,16.0,29.0,7.0,7.751464366912842,17.27294921875,-19.47021484375,-0.6358642578125,0.259033203125,0.2718505859375
1.073,316,673,388,336,16.0,29.0,7.0,18.24951171875,4.638671875,-15.686034202575684,-0.6358642578125,0.259033203125,0.2718505859375
1.081,316,687,390,346,16.0,29.0,7.0,17.4560546875,-2.624511480331421,-10.192870140075684,-0.6055908203125,0.326904296875,0.2451171875
1.095,316,1126,414,338,16.0,29.0,7.0,7.324218273162842,-4.69970703125,-5.737304210662842,-0.6939697265625,0.171630859375,0.2728271484375
1.103,318,1258,411,336,16.0,29.0,7.0,0.0610351525247097,-5.310058116912842,-1.03759765625,-0.6939697265625,0.171630859375,0.2728271484375
1.111,318,1590,411,336,15.0,28.0,7.0,-0.1220703050494194,-5.920409679412842,4.21142578125,-0.7750244140625,0.1104736328125,0.236083984375
1.126,319,1798,391,331,15.0,28.0,7.0,3.051757574081421,-6.103515148162842,9.33837890625,-0.8743896484375,0.14404296875,0.0618896484375
1.133,318,1880,401,346,15.0,28.0,7.0,6.713866710662842,-5.920409679412842,13.549803733825684,-0.8743896484375,0.14404296875,0.0618896484375
1.153,321,2041,390,338,15.0,28.0,7.0,9.94873046875,-7.080077648162842,15.808104515075684,-0.8861083984375,0.2520751953125,0.0206298828125
1.161,321,2410,391,338,15.0,28.0,7.0,11.474608421325684,-10.437010765075684,15.075682640075684,-0.869384765625,0.3687744140625,0.0047607421875
1.163,321,2648,441,346,15.0,28.0,7.0,9.765625,-13.977049827575684,11.596678733825684,-0.869384765625,0.3687744140625,0.0047607421875
1.171,321,2922,426,355,15.0,28.0,7.0,5.554198741912842,-16.17431640625,7.934569835662842,-0.8565673828125,0.3272705078125,0.0076904296875
1.185,323,3147,466,354,15.0,28.0,7.0,2.01416015625,-17.578125,7.263183116912842,-0.8099365234375,0.153076171875,0.010009765625
1.193,324,3147,465,484,15.0,28.0,7.0,-0.6103515625,-19.53125,9.6435546875,-0.8099365234375,0.153076171875,0.010009765625
1.201,327,3147,416,714,15.0,28.0,7.0,-0.2441406100988388,-22.827146530151367,12.939452171325684,-0.6922607421875,0.064697265625,0.02197265625
1.228,333,3147,466,1000,18.0,31.0,11.0,5.737304210662842,-27.770994186401367,15.808104515075684,-0.427001953125,-0.024658203125,0.107666015625
1.228,334,3147,470,1264,18.0,31.0,11.0,12.817381858825684,-33.69140625,17.578125,-0.427001953125,-0.024658203125,0.107666015625
1.232,327,3147,540,1529,18.0,31.0,11.0,17.822265625,-38.9404296875,17.15087890625,-0.2784423828125,-0.021484375,0.1732177734375
1.245,356,3147,691,1801,18.0,31.0,11.0,21.606443405151367,-43.395992279052734,12.329100608825684,0.0322265625,0.247314453125,0.2352294921875
1.272,375,3147,813,2063,18.0,31.0,11.0,21.667478561401367,-47.668453216552734,-1.0986328125,0.0322265625,0.247314453125,0.2352294921875
1.272,375,3147,1078,2249,18.0,31.0,11.0,14.099120140075684,-49.743648529052734,-23.376462936401367,-0.092041015625,0.587646484375,0.13818359375
1.275,414,3147,1676,2554,18.0,31.0,11.0,-0.4272460639476776,-44.799800872802734,-42.541500091552734,-0.4388427734375,1.1024169921875,-0.0880126953125
1.283,433,3147,1985,2638,18.0,31.0,11.0,-20.446775436401367,-34.3017578125,-47.668453216552734,-0.9254150390625,1.4810791015625,-0.2225341796875
1.291,439,3147,2150,2700,18.0,31.0,11.0,-47.058101654052734,-27.160642623901367,-42.419429779052734,-1.57958984375,1.332275390625,-0.1239013671875
1.306,456,3147,2364,2807,16.0,30.0,7.0,-79.345703125,-27.709959030151367,-39.97802734375,-2.2178955078125,0.4859619140625,0.17529296875
1.331,462,3147,2484,2898,16.0,30.0,7.0,-102.23387908935547,-28.076169967651367,-48.828121185302734,-2.6689453125,-0.2794189453125,0.45166015625
1.332,456,3147,2464,2911,16.0,30.0,7.0,-93.81102752685547,-18.6767578125,-54.748531341552734,-2.8096923828125,-0.3292236328125,0.5517578125
1.336,445,3147,2168,2668,16.0,30.0,7.0,-58.776851654052734,-3.784179449081421,-45.104976654052734,-2.524658203125,-0.1851806640625,0.40673828125
1.343,442,3147,2144,2664,16.0,30.0,7.0,-23.498533248901367,12.878417015075684,-32.8369140625,-1.7498779296875,-0.0482177734375,0.228759765625
1.361,441,3147,2176,2616,16.0,30.0,7.0,-6.103515148162842,32.53173828125,-31.616209030151367,-1.0670166015625,0.3309326171875,0.23828125
1.368,440,3147,2019,2453,16.0,30.0,7.0,-16.4794921875,49.987789154052734,-35.09521484375,-1.26611328125,0.6265869140625,0.286865234375
1.379,437,3147,1908,2424,16.0,30.0,7.0,-49.133296966552734,57.861324310302734,-29.724119186401367,-2.0091552734375,0.36083984375,0.2584228515625
1.383,415,3147,1709,2333,16.0,30.0,7.0,-67.626953125,52.490230560302734,-11.474608421325684,-2.48828125,-0.1131591796875,0.222900390625
1.395,423,3147,1382,2160,16.0,30.0,7.0,-42.907711029052734,35.888671875,15.624999046325684,-2.412109375,-0.2537841796875,0.2786865234375
1.406,416,3147,1067,1989,16.0,29.0,7.0,7.690429210662842,17.15087890625,42.114253997802734,-1.9791259765625,-0.1263427734375,0.3779296875
1.411,401,3147,802,1801,16.0,29.0,7.0,53.405757904052734,7.080077648162842,59.265132904052734,-1.5006103515625,0.0999755859375,0.3995361328125
1.437,364,3147,493,1384,16.0,29.0,7.0,77.63671875,8.4228515625,65.5517578125,-1.027587890625,0.343505859375,0.3060302734375
1.437,328,3147,441,784,16.0,29.0,7.0,74.462890625,17.88330078125,62.744136810302734,-0.5863037109375,0.44482421875,0.169921875
1.441,332,3147,430,356,16.0,29.0,7.0,48.522945404052734,31.921384811401367,50.720211029052734,-0.28515625,0.2877197265625,-0.000244140625
1.455,323,1948,411,354,16.0,29.0,7.0,18.798828125,46.264644622802734,28.930662155151367,-0.1595458984375,0.05029296875,-0.25634765625
1.470,319,1504,382,344,16.0,29.0,7.0,4.2724609375,55.480953216552734,3.906249761581421,-0.172607421875,0.0128173828125,-0.5570068359375
1.473,321,1213,338,314,16.0,29.0,7.0,4.150390625,56.457515716552734,-11.840819358825684,-0.2484130859375,0.1981201171875,-0.6595458984375
1.489,318,976,342,332,16.0,29.0,7.0,6.286620616912842,49.255367279052734,-12.451170921325684,-0.29150390625,0.4134521484375,-0.4415283203125
1.494,316,803,342,330,16.0,29.0,7.0,1.9531248807907104,37.17041015625,-6.652831554412842,-0.3494873046875,0.42138671875,-0.0921630859375
1.501,315,625,398,330,17.0,31.0,6.0,-8.6669921875,27.648923873901367,-3.295898199081421,-0.5274658203125,0.27734375,0.1661376953125
1.515,313,537,378,330,17.0,31.0,6.0,-14.831542015075684,24.902341842651367,1.4648436307907104,-0.6748046875,0.1920166015625,0.3133544921875
1.542,314,679,371,332,17.0,31.0,6.0,-10.925292015075684,23.376462936401367,9.82666015625,-0.6475830078125,0.21484375,0.3994140625
1.542,316,669,372,328,17.0,31.0,6.0,-3.967284917831421,18.85986328125,12.878417015075684,-0.5211181640625,0.2352294921875,0.3773193359375
1.548,316,561,380,330,17.0,31.0,6.0,0.7934569716453552,13.671874046325684,4.7607421875,-0.4481201171875,0.2008056640625,0.3115234375
1.553,315,586,371,330,17.0,31.0,6.0,7.080077648162842,7.812499523162842,-8.056640625,-0.4573974609375,0.1922607421875,0.277099609375
1.569,315,563,390,328,17.0,31.0,6.0,13.122557640075684,-0.2441406100988388,-17.4560546875,-0.4830322265625,0.237548828125,0.2099609375
1.575,316,777,383,330,17.0,31.0,6.0,10.192870140075684,-6.347655773162842,-21.240232467651367,-0.5391845703125,0.2789306640625,0.1107177734375
1.584,315,890,388,333,17.0,31.0,6.0,-1.5869139432907104,-7.751464366912842,-19.53125,-0.6492919921875,0.2359619140625,0.0445556640625
1.592,316,1339,391,344,17.0,31.0,6.0,-10.681151390075684,-7.873534679412842,-13.122557640075684,-0.75390625,0.1314697265625,0.001708984375
1.605,316,2115,411,345,14.0,28.0,5.0,-8.60595703125,-9.70458984375,-4.638671875,-0.8134765625,0.0645751953125,-0.0198974609375
1.613,316,2530,419,334,14.0,28.0,5.0,1.9531248807907104,-13.366698265075684,2.624511480331421,-0.8394775390625,0.076171875,-0.0037841796875
1.621,318,2704,461,338,14.0,28.0,5.0,14.221190452575684,-18.24951171875,6.896972179412842,-0.8505859375,0.1422119140625,0.0133056640625
1.650,323,3147,387,411,14.0,28.0,5.0,22.583005905151367,-22.949216842651367,8.23974609375,-0.8709716796875,0.215087890625,0.004638671875
1.651,322,3147,400,656,14.0,28.0,5.0,23.925779342651367,-26.916501998901367,7.629394054412842,-0.9217529296875,0.2476806640625,-0.000244140625
1.652,322,3147,465,840,14.0,28.0,5.0,18.6767578125,-30.517576217651367,5.676269054412842,-0.923583984375,0.2105712890625,-0.0126953125
1.673,327,3147,499,1173,14.0,28.0,5.0,11.413573265075684,-33.447265625,3.051757574081421,-0.8209228515625,0.153564453125,-0.04736328125
1.675,330,3147,466,1224,14.0,28.0,5.0,8.60595703125,-35.70556640625,0.6103515625,-0.710205078125,0.1282958984375,-0.0853271484375
1.681,333,3147,484,1529,14.0,28.0,5.0,9.58251953125,-38.57421875,-0.54931640625,-0.6630859375,0.1153564453125,-0.11572265625
1.695,338,3147,546,1676,18.0,28.0,7.0,8.48388671875,-41.992183685302734,-0.1220703050494194,-0.6636962890625,0.09228515625,-0.10009765625
1.703,344,3147,588,1826,18.0,28.0,7.0,3.662109136581421,-45.410152435302734,1.2817381620407104,-0.6590576171875,0.0477294921875,-0.0233154296875
1.716,348,3147,625,1996,18.0,28.0,7.0,-1.03759765625,-47.912593841552734,2.38037109375,-0.6181640625,-0.03369140625,0.061279296875
1.742,364,3147,913,2178,18.0,28.0,7.0,0.0610351525247097,-48.645015716552734,1.9531248807907104,-0.5208740234375,-0.096923828125,0.117919921875
1.745,378,3147,1191,2228,18.0,28.0,7.0,8.72802734375,-48.339839935302734,0.2441406100988388,-0.3150634765625,-0.0386962890625,0.145751953125
1.745,391,3147,1328,2323,18.0,28.0,7.0,8.72802734375,-48.339839935302734,0.2441406100988388,-0.0867919921875,0.1614990234375,0.1768798828125
1.755,416,3147,1574,2778,18.0,28.0,7.0,15.014647483825684,-49.804683685302734,-2.990722417831421,-0.040771484375,0.464111328125,0.3643798828125
1.776,430,3147,1719,3107,18.0,28.0,7.0,2.868652105331421,-52.856441497802734,-3.601073980331421,-0.2198486328125,0.862060546875,0.650634765625
1.778,438,3147,1936,3147,18.0,28.0,7.0,2.868652105331421,-52.856441497802734,-3.601073980331421,-0.694091796875,1.0526123046875,0.7618408203125
1.786,470,3147,2541,3147,18.0,28.0,7.0,-28.320310592651367,-46.997066497802734,-11.718749046325684,-1.6790771484375,0.857421875,0.510986328125
1.793,478,3147,2565,3147,17.0,29.0,9.0,-53.894039154052734,-31.188962936401367,-15.991209983825684,-2.978759765625,0.638427734375,0.2845458984375
1.802,473,3147,2330,3147,17.0,29.0,9.0,-53.894039154052734,-31.188962936401367,-15.991209983825684,-3.5728759765625,0.0791015625,0.030517578125
1.815,468,3147,2144,3147,17.0,29.0,9.0,-49.865718841552734,-23.986814498901367,34.11865234375,-2.53662109375,-0.912109375,-0.1328125
1.840,465,3147,2019,3147,17.0,29.0,9.0,25.878904342651367,-26.184080123901367,46.142574310302734,-1.0184326171875,-0.593017578125,0.2147216796875
1.849,458,3147,1908,3147,17.0,29.0,9.0,25.878904342651367,-26.184080123901367,46.142574310302734,-0.5657958984375,1.0277099609375,0.4700927734375
1.849,438,3147,1808,3147,17.0,29.0,9.0,71.10595703125,19.287109375,18.310546875,-0.9798583984375,1.71826171875,0.46142578125
1.856,445,3147,1693,3147,17.0,29.0,9.0,-28.564451217651367,62.438961029052734,-8.30078125,-1.6898193359375,1.1370849609375,0.34423828125
1.861,441,3147,1506,3147,17.0,29.0,9.0,-28.564451217651367,62.438961029052734,-8.30078125,-2.32275390625,0.345703125,0.193603515625
1.878,424,3147,1173,3140,17.0,29.0,9.0,-90.69823455810547,71.533203125,-19.287109375,-2.5667724609375,0.001220703125,0.13134765625
1.884,411,3147,996,3014,17.0,29.0,9.0,-38.51318359375,41.320796966552734,-0.4882812201976776,-2.3145751953125,0.0771484375,0.1307373046875
1.895,391,3147,872,2859,13.0,29.0,9.0,-38.51318359375,41.320796966552734,-0.4882812201976776,-1.7418212890625,0.166748046875,0.206298828125
1.906,364,3147,632,2479,13.0,29.0,9.0,37.841796875,2.624511480331421,20.996091842651367,-1.15673828125,0.1961669921875,0.3465576171875
1.913,351,3147,519,2263,13.0,29.0,9.0,47.180171966552734,4.08935546875,22.766111373901367,-0.664794921875,0.2633056640625,0.4149169921875
1.922,338,3147,519,1908,13.0,29.0,9.0,47.180171966552734,4.08935546875,22.766111373901367,-0.3297119140625,0.2403564453125,0.2962646484375
1.943,332,3147,376,994,13.0,29.0,9.0,33.26416015625,37.7197265625,8.1787109375,-0.2247314453125,0.0809326171875,0.07373046875
1.943,321,3147,442,642,13.0,29.0,9.0,16.2353515625,54.138179779052734,-7.385253429412842,-0.2532958984375,-0.097900390625,-0.1314697265625
1.955,321,3147,385,347,13.0,29.0,9.0,16.2353515625,54.138179779052734,-7.385253429412842,-0.2532958984375,-0.097900390625,-0.1314697265625
1.965,323,1686,388,338,13.0,29.0,9.0,2.25830078125,55.114742279052734,-20.263669967651367,-0.4246826171875,-0.0306396484375,-0.4493408203125
1.980,319,1294,378,344,13.0,29.0,9.0,2.25830078125,55.114742279052734,-20.263669967651367,-0.4002685546875,0.1998291015625,-0.4151611328125
1.981,318,1163,328,324,13.0,29.0,9.0,5.371093273162842,45.593257904052734,-11.169432640075684,-0.4002685546875,0.1998291015625,-0.4151611328125
1.995,317,614,374,328,14.0,30.0,7.0,7.934569835662842,25.268552780151367,-1.220703125,-0.3634033203125,0.365234375,0.036865234375
2.004,316,518,373,336,14.0,30.0,7.0,7.934569835662842,25.268552780151367,-1.220703125,-0.490234375,0.4249267578125,0.25439453125
2.012,315,494,372,329,14.0,30.0,7.0,5.859374523162842,22.338865280151367,-5.432128429412842,-0.490234375,0.4249267578125,0.25439453125
2.025,316,639,391,331,14.0,30.0,7.0,8.056640625,18.798828125,-4.39453125,-0.535400390625,0.5462646484375,0.5185546875
2.054,316,669,385,328,14.0,30.0,7.0,8.056640625,18.798828125,-4.39453125,-0.5546875,0.403564453125,0.4869384765625
2.054,316,766,334,327,14.0,30.0,7.0,1.5869139432907104,14.343260765075684,-8.6669921875,-0.5546875,0.403564453125,0.4869384765625
2.062,317,944,385,332,14.0,30.0,7.0,-19.59228515625,5.310058116912842,-25.634763717651367,-0.7037353515625,0.078125,0.127685546875
2.063,316,1070,398,334,14.0,30.0,7.0,-19.59228515625,5.310058116912842,-25.634763717651367,-0.7784423828125,0.038330078125,-0.051025390625
2.081,316,1306,402,338,14.0,30.0,7.0,-24.475095748901367,2.990722417831421,-25.878904342651367,-0.7784423828125,0.038330078125,-0.051025390625
2.085,319,1604,400,331,15.0,29.0,13.0,-17.578125,-2.868652105331421,-9.6435546875,-0.853271484375,0.0020751953125,-0.111572265625
2.094,318,1983,419,330,15.0,29.0,13.0,-17.578125,-2.868652105331421,-9.6435546875,-0.8720703125,0.0389404296875,-0.0394287109375
2.102,318,2362,411,342,15.0,29.0,13.0,-5.432128429412842,-6.774901866912842,0.0,-0.8720703125,0.0389404296875,-0.0394287109375
2.115,321,2763,430,336,15.0,29.0,13.0,13.916014671325684,-12.756346702575684,11.840819358825684,-0.8570556640625,0.141845703125,0.04443359375
2.123,323,2954,481,338,15.0,29.0,13.0,13.916014671325684,-12.756346702575684,11.840819358825684,-0.8416748046875,0.196533203125,0.0440673828125
2.151,323,3147,464,346,15.0,29.0,13.0,15.808104515075684,-13.854979515075684,12.207030296325684,-0.8416748046875,0.196533203125,0.0440673828125
2.151,323,3147,416,478,15.0,29.0,13.0,8.9111328125,-17.578125,7.751464366912842,-0.7423095703125,0.245849609375,0.0494384765625
2.154,323,3147,478,669,15.0,29.0,13.0,8.9111328125,-17.578125,7.751464366912842,-0.679443359375,0.2376708984375,0.0382080078125
2.172,328,3147,470,874,15.0,29.0,13.0,3.662109136581421,-19.775390625,5.859374523162842,-0.679443359375,0.2376708984375,0.0382080078125
2.188,332,3147,482,1175,15.0,29.0,13.0,-0.8544921278953552,-21.850584030151367,5.187987804412842,-0.603271484375,0.095947265625,0.0479736328125
2.189,342,3147,473,1454,18.0,32.0,5.0,-4.150390625,-25.329587936401367,5.493163585662842,-0.603271484375,0.095947265625,0.0479736328125
2.192,347,3147,546,1656,18.0,32.0,5.0,-2.807616949081421,-30.761716842651367,6.652831554412842,-0.488037109375,0.0045166015625,0.0458984375
2.205,359,3147,739,1959,18.0,32.0,5.0,4.69970703125,-37.2314453125,7.324218273162842,-0.1669921875,0.040771484375,0.05078125
2.214,370,3147,968,2128,18.0,32.0,5.0,12.512206077575684,-43.029781341552734,5.126952648162842,-0.1669921875,0.040771484375,0.05078125
2.222,387,3147,1010,2230,18.0,32.0,5.0,13.183592796325684,-45.532222747802734,-3.112792730331421,-0.0694580078125,0.1947021484375,0.0701904296875
2.251,414,3147,1287,2543,18.0,32.0,5.0,4.7607421875,-42.419429779052734,-18.61572265625,-0.3502197265625,0.775390625,0.31494140625
2.253,428,3147,1504,2703,18.0,32.0,5.0,-11.108397483825684,-34.5458984375,-36.92626953125,-0.3502197265625,0.775390625,0.31494140625
2.254,440,3147,1868,2991,18.0,32.0,5.0,-31.372068405151367,-26.184080123901367,-48.278804779052734,-0.72607421875,1.1611328125,0.5601806640625
2.265,467,3147,2166,3147,18.0,32.0,5.0,-51.879878997802734,-21.911619186401367,-47.302242279052734,-1.8814697265625,0.3897705078125,0.437255859375
2.289,473,3147,2376,3147,18.0,32.0,5.0,-69.51904296875,-18.49365234375,-46.081539154052734,-1.8814697265625,0.3897705078125,0.437255859375
2.290,478,3147,2532,3147,18.0,30.0,4.0,-79.28466796875,-8.48388671875,-50.598140716552734,-2.7166748046875,-0.3104248046875,0.0936279296875
2.296,473,3147,2194,3147,18.0,30.0,4.0,-65.673828125,-1.220703125,-42.053218841552734,-3.0478515625,-0.59130859375,-0.164306640625
2.304,472,3147,2087,3147,18.0,30.0,4.0,-20.080564498901367,-5.920409679412842,-10.559081077575684,-3.0478515625,-0.59130859375,-0.164306640625
2.312,473,3147,2028,3147,18.0,30.0,4.0,37.90283203125,-11.047362327575684,23.925779342651367,-1.820556640625,-0.53564453125,-0.0426025390625
2.325,468,3147,1954,3147,18.0,30.0,4.0,74.21875,-4.8828125,39.61181640625,-1.2423095703125,0.845703125,0.4686279296875
2.333,465,3147,1838,3147,18.0,30.0,4.0,64.208984375,14.282225608825684,37.7197265625,-1.2423095703125,0.845703125,0.4686279296875
2.347,462,3147,1637,3147,18.0,30.0,4.0,14.953612327575684,37.4755859375,30.517576217651367,-1.88916015625,0.9342041015625,0.3994140625
2.355,446,3147,1216,3147,18.0,30.0,4.0,-27.709959030151367,48.522945404052734,28.625486373901367,-2.24560546875,0.2574462890625,0.19482421875
2.363,437,3147,998,3010,18.0,30.0,4.0,-28.686521530151367,41.442867279052734,35.15625,-2.24560546875,0.2574462890625,0.19482421875
2.372,424,3147,811,2833,18.0,30.0,4.0,1.3427733182907104,25.512693405151367,43.762203216552734,-1.9635009765625,0.205810546875,0.1859130859375
2.396,382,3147,567,2428,15.0,27.0,7.0,32.71484375,12.695311546325684,48.278804779052734,-1.2266845703125,0.2008056640625,0.2393798828125
2.396,361,3147,508,2186,15.0,27.0,7.0,51.025386810302734,8.30078125,49.011226654052734,-1.2266845703125,0.2008056640625,0.2393798828125
2.402,348,3147,455,1890,15.0,27.0,7.0,56.579586029052734,11.352538108825684,49.194332122802734,-0.7978515625,0.2918701171875,0.2103271484375
2.415,328,3147,456,1085,15.0,27.0,7.0,51.208492279052734,21.606443405151367,43.945308685302734,-0.4124755859375,0.3388671875,0.077880859375
2.423,326,3147,372,584,15.0,27.0,7.0,34.85107421875,37.109375,27.099607467651367,-0.203857421875,0.321533203125,-0.1190185546875
2.432,324,2769,338,331,15.0,27.0,7.0,11.474608421325684,51.696773529052734,3.845214605331421,-0.150390625,0.244140625,-0.36181640625
2.456,321,1292,346,336,15.0,27.0,7.0,-4.82177734375,61.157222747802734,-12.390135765075684,-0.212890625,0.303466796875,-0.5013427734375
2.459,321,1029,304,314,15.0,27.0,7.0,-9.33837890625,60.974117279052734,-15.869139671325684,-0.2579345703125,0.392333984375,-0.4185791015625
2.461,315,721,324,334,15.0,27.0,7.0,-12.695311546325684,50.903316497802734,-14.892577171325684,-0.3271484375,0.2620849609375,-0.2061767578125
2.475,314,607,369,328,15.0,27.0,7.0,-13.732909202575684,38.818359375,-14.709471702575684,-0.5108642578125,0.109619140625,-0.015625
2.503,314,524,334,330,15.0,32.0,4.0,-6.042479991912842,30.273435592651367,-10.498045921325684,-0.6522216796875,0.099365234375,0.12646484375
2.504,314,416,371,328,15.0,32.0,4.0,6.774901866912842,24.719236373901367,-2.3193359375,-0.640380859375,0.1766357421875,0.25927734375
2.506,315,442,373,329,15.0,32.0,4.0,16.9677734375,21.911619186401367,0.1220703050494194,-0.6004638671875,0.2083740234375,0.3033447265625
2.514,315,430,383,332,15.0,32.0,4.0,21.606443405151367,20.568845748901367,-5.920409679412842,-0.62939453125,0.22314453125,0.3338623046875
2.523,309,426,384,332,15.0,32.0,4.0,21.362302780151367,14.892577171325684,-12.695311546325684,-0.6553955078125,0.291015625,0.40380859375
2.535,314,499,383,330,15.0,32.0,4.0,14.831542015075684,4.7607421875,-15.380858421325684,-0.6334228515625,0.3572998046875,0.3966064453125
2.559,312,500,373,328,15.0,32.0,4.0,2.13623046875,-2.685546636581421,-15.502928733825684,-0.6153564453125,0.343505859375,0.31884765625
2.563,313,406,371,331,15.0,32.0,4.0,-12.878417015075684,-6.103515148162842,-14.221190452575684,-0.62451171875,0.2515869140625,0.226318359375
2.565,313,526,376,327,15.0,32.0,4.0,-24.353025436401367,-8.1787109375,-11.413573265075684,-0.6292724609375,0.160888671875,0.134521484375
2.574,315,751,385,336,15.0,32.0,4.0,-28.808591842651367,-9.6435546875,-8.4228515625,-0.63037109375,0.107177734375,0.0426025390625
2.581,316,1167,378,331,15.0,31.0,7.0,-25.756834030151367,-10.498045921325684,-7.080077648162842,-0.665771484375,0.0870361328125,-0.05615234375
2.596,316,1920,402,334,15.0,31.0,7.0,-15.624999046325684,-11.169432640075684,-6.896972179412842,-0.7696533203125,0.1170654296875,-0.148193359375
2.604,317,2212,424,332,15.0,31.0,7.0,-2.13623046875,-12.084959983825684,-4.8828125,-0.89501953125,0.1998291015625,-0.18017578125
2.617,317,2465,364,346,15.0,31.0,7.0,8.23974609375,-14.587401390075684,0.0,-0.944580078125,0.2825927734375,-0.147705078125
2.625,317,3114,382,336,15.0,31.0,7.0,12.268065452575684,-18.6767578125,4.638671875,-0.9132080078125,0.3194580078125,-0.0867919921875
2.633,321,3147,428,475,15.0,31.0,7.0,11.596678733825684,-23.010251998901367,5.615233898162842,-0.8848876953125,0.3094482421875,-0.022216796875
2.641,323,3147,464,673,15.0,31.0,7.0,9.033203125,-26.184080123901367,3.295898199081421,-0.9130859375,0.251708984375,0.018798828125
2.660,323,3147,455,927,15.0,31.0,7.0,5.371093273162842,-27.832029342651367,0.6103515625,-0.93994140625,0.1527099609375,0.0223388671875
2.663,324,3147,473,1155,15.0,31.0,7.0,0.54931640625,-28.381345748901367,-0.0610351525247097,-0.875244140625,0.0634765625,-0.002197265625
2.674,327,3147,472,1312,15.0,31.0,7.0,-1.5869139432907104,-28.686521530151367,2.197265625,-0.7723388671875,0.020263671875,-0.0362548828125
2.706,331,3147,444,1709,18.0,33.0,7.0,1.9531248807907104,-29.541013717651367,6.530761241912842,-0.736572265625,0.037841796875,-0.050048828125
2.710,336,3147,523,1820,18.0,33.0,7.0,8.60595703125,-31.372068405151367,10.864256858825684,-0.7086181640625,0.1009521484375,-0.00244140625
2.710,347,3147,518,2012,18.0,33.0,7.0,12.939452171325684,-33.69140625,12.939452171325684,-0.5665283203125,0.1058349609375,0.08447265625
2.717,361,3147,674,2230,18.0,33.0,7.0,10.742186546325684,-35.5224609375,10.925292015075684,-0.35498046875,0.0341796875,0.18505859375
2.728,371,3147,1014,2344,18.0,33.0,7.0,3.662109136581421,-36.31591796875,4.8828125,-0.144287109375,-0.0245361328125,0.2958984375
2.732,385,3147,1276,2478,18.0,33.0,7.0,-1.8310545682907104,-35.2783203125,-4.82177734375,0.0250244140625,0.032958984375,0.3631591796875
2.745,418,3147,1478,2820,18.0,33.0,7.0,-3.906249761581421,-33.14208984375,-18.73779296875,0.0697021484375,0.294189453125,0.4097900390625
2.766,430,3147,1627,3064,18.0,33.0,7.0,-7.446288585662842,-32.5927734375,-34.97314453125,-0.1475830078125,0.7298583984375,0.4981689453125
2.766,454,3147,1806,3147,18.0,33.0,7.0,-16.66259765625,-33.63037109375,-45.166011810302734,-0.64013671875,1.2073974609375,0.588134765625
2.776,466,3147,2093,3147,18.0,30.0,10.0,-32.28759765625,-32.8369140625,-41.687007904052734,-1.4305419921875,1.2203369140625,0.3636474609375
2.783,473,3147,2223,3147,18.0,30.0,10.0,-53.527828216552734,-23.559568405151367,-29.724119186401367,-2.376220703125,0.51806640625,-0.1453857421875
2.798,479,3147,2340,3147,18.0,30.0,10.0,-72.6318359375,-12.084959983825684,-17.02880859375,-3.0499267578125,-0.352294921875,-0.3837890625
2.812,475,3147,2080,3147,18.0,30.0,10.0,-65.673828125,-11.962889671325684,2.13623046875,-3.327392578125,-0.7310791015625,-0.241455078125
2.814,473,3147,1861,3147,18.0,30.0,10.0,-23.315427780151367,-20.935056686401367,32.89794921875,-2.749267578125,-0.6722412109375,0.0045166015625
2.822,473,3147,1847,3147,18.0,30.0,10.0,34.97314453125,-24.169919967651367,54.809566497802734,-1.4625244140625,-0.180908203125,0.283447265625
2.841,470,3147,1770,3147,18.0,30.0,10.0,72.93701171875,-11.291502952575684,47.790523529052734,-0.7830810546875,0.92626953125,0.483154296875
2.843,470,3147,1719,3147,18.0,30.0,10.0,49.377437591552734,14.953612327575684,23.315427780151367,-1.1588134765625,1.5955810546875,0.441650390625
2.867,466,3147,1627,3147,18.0,30.0,10.0,-22.644041061401367,39.73388671875,3.967284917831421,-1.8765869140625,1.0777587890625,0.3267822265625
2.868,462,3147,1371,3147,18.0,30.0,10.0,-66.58935546875,46.142574310302734,1.4648436307907104,-2.249267578125,0.234375,0.2530517578125
2.873,447,3147,1160,3147,15.0,30.0,5.0,-45.959468841552734,34.11865234375,13.244627952575684,-2.19580078125,-0.081298828125,0.1820068359375
2.881,437,3147,1009,3147,15.0,30.0,5.0,-45.959468841552734,34.11865234375,13.244627952575684,-1.89208984375,0.03076171875,0.1614990234375
2.904,409,3147,849,2936,15.0,30.0,5.0,30.761716842651367,5.615233898162842,36.865234375,-1.508056640625,0.1468505859375,0.187744140625
2.904,387,3147,562,2652,15.0,30.0,5.0,42.480464935302734,2.746581792831421,36.31591796875,-1.116455078125,0.243896484375,0.2296142578125
2.914,373,3147,470,2359,15.0,30.0,5.0,42.480464935302734,2.746581792831421,36.31591796875,-0.6910400390625,0.405517578125,0.233642578125
2.926,354,3147,487,1700,15.0,30.0,5.0,42.419429779052734,12.817381858825684,17.4560546875,-0.345947265625,0.507568359375,0.1361083984375
2.933,344,3147,479,1216,15.0,30.0,5.0,28.808591842651367,24.536130905151367,-2.44140625,-0.2276611328125,0.46484375,-0.019287109375
2.942,342,3147,430,545,15.0,30.0,5.0,28.808591842651367,24.536130905151367,-2.44140625,-0.3375244140625,0.28564453125,-0.2320556640625
2.967,332,2538,401,348,15.0,30.0,5.0,-15.441893577575684,43.334957122802734,-28.991697311401367,-0.46533203125,0.1712646484375,-0.4111328125
2.968,328,2287,360,346,15.0,30.0,5.0,-15.624999046325684,44.860836029052734,-23.254392623901367,-0.4564208984375,0.244384765625,-0.4312744140625
2.971,322,1815,390,347,15.0,30.0,11.0,-15.624999046325684,44.860836029052734,-23.254392623901367,-0.4212646484375,0.349365234375,-0.3084716796875
2.985,324,1258,426,347,15.0,30.0,11.0,-1.8920897245407104,31.616209030151367,-9.82666015625,-0.4588623046875,0.3211669921875,-0.0745849609375
3.003,323,998,445,344,15.0,30.0,11.0,-3.234863042831421,23.193357467651367,-11.291502952575684,-0.552978515625,0.2218017578125,0.185791015625
3.007,323,733,351,334,15.0,30.0,11.0,-3.234863042831421,23.193357467651367,-11.291502952575684,-0.6107177734375,0.1754150390625,0.376220703125
3.021,321,642,419,336,15.0,30.0,11.0,-7.934569835662842,16.6015625,-21.545408248901367,-0.6043701171875,0.18505859375,0.453125
3.024,321,605,385,336,15.0,30.0,11.0,-13.244627952575684,15.686034202575684,-24.902341842651367,-0.6025390625,0.2073974609375,0.44384765625
3.032,321,621,382,336,15.0,30.0,11.0,-13.244627952575684,15.686034202575684,-24.902341842651367,-0.6060791015625,0.1650390625,0.3968505859375
3.046,316,725,402,334,15.0,30.0,11.0,-13.122557640075684,5.432128429412842,-19.59228515625,-0.605712890625,0.0692138671875,0.305908203125
3.069,321,774,404,334,15.0,30.0,11.0,-8.4228515625,-1.03759765625,-15.624999046325684,-0.6317138671875,0.0311279296875,0.17919921875
3.071,318,920,387,338,15.0,30.0,11.0,-8.4228515625,-1.03759765625,-15.624999046325684,-0.678466796875,0.0655517578125,0.063232421875
3.075,321,1369,398,334,16.0,30.0,3.0,-8.544921875,-5.981444835662842,-8.1787109375,-0.7164306640625,0.1060791015625,-0.0096435546875
3.084,319,1395,389,344,16.0,30.0,3.0,-11.535643577575684,-6.286620616912842,-4.150390625,-0.75,0.13134765625,-0.025146484375
3.092,321,1739,372,344,16.0,30.0,3.0,-11.535643577575684,-6.286620616912842,-4.150390625,-0.75,0.13134765625,-0.025146484375
3.109,323,2314,389,344,16.0,30.0,3.0,-5.310058116912842,-8.36181640625,4.5166015625,-0.7967529296875,0.156494140625,0.0296630859375
3.114,324,2784,399,346,16.0,30.0,3.0,-5.310058116912842,-8.36181640625,4.5166015625,-0.7911376953125,0.21630859375,0.035888671875
3.128,324,3102,390,346,16.0,30.0,3.0,4.33349609375,-11.413573265075684,7.690429210662842,-0.7911376953125,0.21630859375,0.035888671875
3.136,324,3147,465,620,16.0,30.0,3.0,13.916014671325684,-19.71435546875,4.8828125,-0.7882080078125,0.241943359375,0.0203857421875
3.143,328,3147,506,895,16.0,30.0,3.0,13.916014671325684,-19.71435546875,4.8828125,-0.7808837890625,0.1993408203125,0.013671875
3.151,328,3147,439,1116,16.0,30.0,3.0,11.718749046325684,-23.437498092651367,1.5258787870407104,-0.7808837890625,0.1993408203125,0.013671875
3.179,336,3147,481,1468,18.0,28.0,10.0,14.160155296325684,-31.188962936401367,-2.746581792831421,-0.67724609375,0.0919189453125,0.0382080078125
3.180,345,3147,495,1693,18.0,28.0,10.0,14.160155296325684,-31.188962936401367,-2.746581792831421,-0.5054931640625,0.0496826171875,0.01171875
3.181,354,3147,642,1844,18.0,28.0,10.0,18.5546875,-34.3017578125,-5.065917491912842,-0.5054931640625,0.0496826171875,0.01171875
3.190,364,3147,711,2108,18.0,28.0,10.0,21.179197311401367,-36.4990234375,-8.23974609375,-0.3504638671875,0.0433349609375,-0.0091552734375
3.211,385,3147,1025,2330,18.0,28.0,10.0,20.812986373901367,-39.1845703125,-12.145995140075684,-0.0982666015625,0.1590576171875,0.1090087890625
3.212,379,3147,1359,2479,18.0,28.0,10.0,19.83642578125,-42.724605560302734,-17.88330078125,-0.0982666015625,0.1590576171875,0.1090087890625
3.222,414,3147,1518,2698,18.0,28.0,10.0,20.324705123901367,-45.959468841552734,-28.015134811401367,0.013671875,0.389892578125,0.2064208984375
3.235,442,3147,1889,3084,18.0,28.0,10.0,19.53125,-47.851558685302734,-43.273921966552734,-0.5101318359375,1.0889892578125,0.4698486328125
3.244,464,3147,2083,3147,18.0,28.0,10.0,10.253905296325684,-47.546382904052734,-56.823726654052734,-0.5101318359375,1.0889892578125,0.4698486328125
3.250,473,3147,2254,3147,18.0,28.0,10.0,-9.94873046875,-44.677730560302734,-57.861324310302734,-1.272216796875,1.229248046875,0.4156494140625
3.274,479,3147,2490,3147,19.0,28.0,7.0,-34.72900390625,-40.283199310302734,-47.973628997802734,-2.4603271484375,-0.296875,-0.0703125
3.275,482,3147,2665,3147,19.0,28.0,7.0,-53.588863372802734,-34.1796875,-41.809078216552734,-2.4603271484375,-0.296875,-0.0703125
3.280,482,3147,2760,3147,19.0,28.0,7.0,-52.612300872802734,-27.770994186401367,-45.654293060302734,-2.68310546875,-0.89111328125,-0.0711669921875
3.294,480,3147,2347,3147,19.0,28.0,7.0,-26.367185592651367,-23.376462936401367,-45.043941497802734,-2.41845703125,-0.0689697265625,0.3602294921875
3.313,473,3147,2230,3147,19.0,28.0,7.0,7.202147960662842,-18.310546875,-28.320310592651367,-2.41845703125,-0.0689697265625,0.3602294921875
3.313,473,3147,2258,3147,19.0,28.0,7.0,22.277830123901367,-3.173827886581421,-8.97216796875,-1.56005859375,0.2047119140625,0.3221435546875
3.325,470,3147,2141,3147,19.0,28.0,7.0,10.986327171325684,22.216794967651367,-0.0610351525247097,-1.515869140625,0.3929443359375,0.5146484375
3.332,470,3147,2000,3147,19.0,28.0,7.0,-19.53125,41.503902435302734,6.042479991912842,-1.515869140625,0.3929443359375,0.5146484375
3.340,469,3147,1783,3147,19.0,28.0,7.0,-49.133296966552734,44.860836029052734,19.83642578125,-2.1077880859375,0.0751953125,0.39892578125
3.354,458,3147,1380,3040,19.0,28.0,7.0,-50.781246185302734,35.5224609375,40.344234466552734,-2.0240478515625,-0.0916748046875,0.265380859375
3.379,445,3147,1131,2943,19.0,28.0,5.0,-22.521970748901367,19.6533203125,60.668941497802734,-2.0240478515625,-0.0916748046875,0.265380859375
3.379,433,3147,922,2692,19.0,28.0,5.0,14.709471702575684,6.408690929412842,74.462890625,-1.6396484375,0.1759033203125,0.3809814453125
3.384,405,3147,651,2396,19.0,28.0,5.0,41.137691497802734,3.784179449081421,79.16259765625,-0.8631591796875,0.532470703125,0.334228515625
3.392,378,3147,571,2111,19.0,28.0,5.0,46.508785247802734,10.803221702575684,77.2705078125,-0.8631591796875,0.532470703125,0.334228515625
3.411,363,3147,426,1703,19.0,28.0,5.0,33.447265625,21.545408248901367,69.03076171875,-0.5345458984375,0.40478515625,0.1651611328125
3.415,330,3147,466,888,19.0,28.0,5.0,13.732909202575684,31.616209030151367,51.696773529052734,-0.2938232421875,-0.0355224609375,-0.28076171875
3.423,330,3147,484,362,19.0,28.0,5.0,-0.7324218153953552,38.39111328125,26.123044967651367,-0.2938232421875,-0.0355224609375,-0.28076171875
3.433,324,2748,431,346,19.0,28.0,5.0,-2.990722417831421,41.687007904052734,1.2817381620407104,-0.3297119140625,-0.005859375,-0.4794921875
3.445,327,1838,363,332,19.0,28.0,5.0,3.295898199081421,40.710445404052734,-12.451170921325684,-0.380126953125,0.1441650390625,-0.5855712890625
3.462,323,1383,348,330,19.0,28.0,5.0,8.72802734375,37.04833984375,-11.840819358825684,-0.4290771484375,0.3880615234375,-0.46337890625
3.462,321,1318,356,332,18.0,30.0,7.0,8.60595703125,31.616209030151367,-2.44140625,-0.4635009765625,0.52734375,-0.1087646484375
3.483,319,1133,323,334,18.0,30.0,7.0,0.7324218153953552,25.085447311401367,3.784179449081421,-0.501220703125,0.4173583984375,0.2135009765625
3.484,319,844,318,332,18.0,30.0,7.0,-10.498045921325684,22.216794967651367,2.50244140625,-0.5924072265625,0.2567138671875,0.3577880859375
3.490,321,695,334,328,18.0,30.0,7.0,-15.014647483825684,22.521970748901367,0.2441406100988388,-0.6348876953125,0.151611328125,0.3514404296875
3.520,322,720,402,332,18.0,30.0,7.0,-11.779784202575684,20.751951217651367,0.2441406100988388,-0.5894775390625,0.1761474609375,0.2957763671875
3.520,321,726,406,334,18.0,30.0,7.0,-8.30078125,15.319823265075684,-0.7934569716453552,-0.5458984375,0.231689453125,0.2860107421875
3.521,304,778,388,310,18.0,30.0,7.0,-9.521484375,7.873534679412842,-4.45556640625,-0.5653076171875,0.213134765625,0.3333740234375
3.537,318,1185,428,338,18.0,30.0,7.0,-10.253905296325684,0.9155272841453552,-6.896972179412842,-0.622802734375,0.1566162109375,0.3585205078125
3.543,321,1467,430,336,18.0,30.0,7.0,-5.676269054412842,-3.112792730331421,-4.8828125,-0.6689453125,0.1378173828125,0.2930908203125
3.555,323,1713,433,346,18.0,30.0,7.0,-0.7324218153953552,-3.601073980331421,0.30517578125,-0.7047119140625,0.1474609375,0.1864013671875
3.589,322,2170,464,338,18.0,31.0,6.0,0.0610351525247097,-3.540038824081421,4.69970703125,-0.7401123046875,0.1416015625,0.110595703125
3.589,304,2308,462,336,18.0,31.0,6.0,-0.7934569716453552,-5.065917491912842,5.676269054412842,-0.7664794921875,0.156005859375,0.071044921875
3.589,318,2704,433,336,18.0,31.0,6.0,0.7934569716453552,-8.23974609375,3.417968511581421,-0.787353515625,0.2069091796875,0.0546875
3.602,322,3042,461,344,18.0,31.0,6.0,4.5166015625,-12.207030296325684,-0.54931640625,-0.8104248046875,0.25390625,0.039794921875
3.605,321,3147,464,356,18.0,31.0,6.0,6.103515148162842,-15.686034202575684,-4.0283203125,-0.8135986328125,0.2569580078125,0.0274658203125
3.621,324,3147,465,592,18.0,31.0,6.0,3.967284917831421,-18.310546875,-5.310058116912842,-0.7862548828125,0.21630859375,0.0189208984375
3.633,331,3147,537,1031,18.0,31.0,6.0,1.7700194120407104,-20.751951217651367,-4.0283203125,-0.7646484375,0.1802978515625,-0.0059814453125
3.633,319,3147,579,1278,18.0,31.0,6.0,1.15966796875,-22.888181686401367,-2.0751953125,-0.7296142578125,0.1298828125,-0.0313720703125
3.644,337,3147,607,1498,18.0,31.0,6.0,1.3427733182907104,-25.146482467651367,-1.6479490995407104,-0.6279296875,0.054931640625,-0.024169921875
3.655,347,3147,586,1900,17.0,29.0,9.0,5.859374523162842,-28.686521530151367,-2.0751953125,-0.4959716796875,0.0118408203125,-0.0010986328125
3.666,359,3147,707,2008,17.0,29.0,9.0,13.916014671325684,-33.87451171875,-1.7700194120407104,-0.4024658203125,0.0015869140625,0.0531005859375
3.692,369,3147,787,2152,17.0,29.0,9.0,20.263669967651367,-39.85595703125,-0.4272460639476776,-0.366943359375,0.016357421875,0.158203125
3.692,391,3147,1009,2461,17.0,29.0,9.0,23.193357467651367,-45.715328216552734,0.7934569716453552,-0.3084716796875,0.0484619140625,0.2518310546875
3.695,411,3147,1320,2750,17.0,29.0,9.0,24.536130905151367,-49.621578216552734,-0.3662109076976776,-0.2628173828125,0.174560546875,0.236328125
3.726,426,3147,1648,3053,17.0,29.0,9.0,25.207517623901367,-49.072261810302734,-3.417968511581421,-0.3118896484375,0.5323486328125,0.072509765625
3.728,447,3147,2085,3147,17.0,29.0,9.0,18.73779296875,-43.212886810302734,-6.774901866912842,-0.499755859375,0.9263916015625,-0.0758056640625
3.728,464,3147,2271,3147,17.0,29.0,9.0,-2.563476324081421,-35.09521484375,-13.427733421325684,-0.9345703125,1.08251953125,-0.0042724609375
3.734,470,3147,2397,3147,17.0,29.0,9.0,-33.0810546875,-29.968259811401367,-23.376462936401367,-1.4580078125,0.8343505859375,0.197265625
3.748,482,3147,2736,3147,17.0,29.0,9.0,-54.870601654052734,-26.306150436401367,-33.50830078125,-1.9783935546875,0.1927490234375,0.2734375
3.754,485,3147,2801,3147,12.0,29.0,7.0,-56.518550872802734,-18.73779296875,-39.4287109375,-2.55078125,-0.136962890625,0.312744140625
3.767,481,3147,2590,3147,12.0,29.0,7.0,-42.419429779052734,-13.061522483825684,-30.029294967651367,-3.058349609375,-0.0450439453125,0.4730224609375
3.789,473,3147,2268,3147,12.0,29.0,7.0,-15.808104515075684,-11.962889671325684,-1.220703125,-2.771728515625,-0.230224609375,0.5
3.789,473,3147,2135,3147,12.0,29.0,7.0,15.991209983825684,-3.173827886581421,26.611326217651367,-1.62255859375,-0.453857421875,0.49072265625
3.791,472,3147,1987,3147,12.0,29.0,7.0,30.700681686401367,18.24951171875,39.00146484375,-1.0426025390625,-0.00732421875,0.5623779296875
3.807,465,3147,1783,3147,12.0,29.0,7.0,14.526366233825684,41.198726654052734,44.555660247802734,-1.4595947265625,0.653564453125,0.4761962890625
3.827,456,3147,1580,3147,12.0,29.0,7.0,-16.2353515625,54.077144622802734,48.461910247802734,-2.0260009765625,0.853271484375,0.2879638671875
3.827,447,3147,1390,3147,12.0,29.0,7.0,-34.423828125,51.574703216552734,49.682613372802734,-2.2181396484375,0.6605224609375,0.1767578125
3.842,432,3147,1024,3112,12.0,29.0,7.0,-30.212400436401367,37.7197265625,48.645015716552734,-2.05810546875,0.3486328125,0.20751953125
3.844,424,3147,890,2890,12.0,29.0,7.0,-6.652831554412842,24.169919967651367,46.936031341552734,-1.7340087890625,0.1588134765625,0.2735595703125
3.856,406,3147,759,2701,14.0,28.0,6.0,22.888181686401367,18.37158203125,45.959468841552734,-1.3944091796875,0.1163330078125,0.2913818359375
3.894,364,3147,441,2316,14.0,28.0,6.0,42.968746185302734,19.34814453125,48.828121185302734,-1.0753173828125,0.2293701171875,0.298095703125
3.895,348,3147,487,1934,14.0,28.0,6.0,46.997066497802734,24.230955123901367,55.053707122802734,-0.728271484375,0.33984375,0.2591552734375
3.895,316,3147,338,1509,14.0,28.0,6.0,35.70556640625,32.958984375,54.992671966552734,-0.4219970703125,0.304443359375,0.0823974609375
3.899,328,3147,423,497,14.0,28.0,6.0,17.7001953125,43.945308685302734,40.527339935302734,-0.2371826171875,0.150390625,-0.256103515625
3.906,353,2911,321,333,14.0,28.0,6.0,7.202147960662842,53.100582122802734,17.4560546875,-0.196044921875,0.116455078125,-0.56005859375
3.929,324,2063,357,327,14.0,28.0,6.0,13.305663108825684,55.419918060302734,1.03759765625,-0.1739501953125,0.3309326171875,-0.6126708984375
3.929,317,1173,391,336,14.0,28.0,6.0,24.841306686401367,48.583980560302734,-5.493163585662842,-0.141357421875,0.546142578125,-0.408203125
3.934,318,958,405,333,14.0,28.0,6.0,24.047849655151367,37.29248046875,-10.681151390075684,-0.275146484375,0.5872802734375,-0.1060791015625
3.942,318,753,364,328,14.0,28.0,6.0,9.33837890625,28.137205123901367,-15.686034202575684,-0.5145263671875,0.4229736328125,0.1204833984375
3.955,316,613,375,337,15.0,31.0,8.0,-4.08935546875,23.315427780151367,-15.502928733825684,-0.64794921875,0.2459716796875,0.2713623046875
3.967,316,473,330,331,15.0,31.0,8.0,-5.554198741912842,20.01953125,-10.498045921325684,-0.6536865234375,0.2125244140625,0.368896484375
3.971,316,526,332,330,15.0,31.0,8.0,-3.356933355331421,14.831542015075684,-6.591796398162842,-0.6182861328125,0.195068359375,0.4056396484375
3.997,316,548,328,325,15.0,31.0,8.0,-5.371093273162842,9.1552734375,-7.873534679412842,-0.572998046875,0.1551513671875,0.3692626953125
3.997,316,543,330,332,15.0,31.0,8.0,-7.507323741912842,5.249022960662842,-12.145995140075684,-0.546875,0.1630859375,0.2869873046875
4.002,316,594,324,330,15.0,31.0,8.0,-7.507323741912842,5.249022960662842,-12.145995140075684,-0.5538330078125,0.2171630859375,0.2056884765625
4.015,316,799,338,330,15.0,31.0,8.0,-1.7700194120407104,-0.4882812201976776,-12.451170921325684,-0.5909423828125,0.276123046875,0.1392822265625
4.031,317,1007,336,328,15.0,31.0,8.0,0.4272460639476776,-3.234863042831421,-8.1787109375,-0.6456298828125,0.295166015625,0.09228515625
4.032,316,1386,330,338,15.0,31.0,8.0,0.4272460639476776,-3.234863042831421,-8.1787109375,-0.7264404296875,0.2515869140625,0.053955078125
4.045,318,1952,361,331,15.0,32.0,9.0,-2.50244140625,-7.568358898162842,-2.44140625,-0.8114013671875,0.1787109375,0.00537109375
4.053,316,2412,351,336,15.0,32.0,9.0,0.54931640625,-9.46044921875,-0.9765624403953552,-0.8544921875,0.150390625,-0.045654296875
4.061,316,2598,338,338,15.0,32.0,9.0,0.54931640625,-9.46044921875,-0.9765624403953552,-0.86669921875,0.197998046875,-0.0625
4.098,316,3147,363,342,15.0,32.0,9.0,8.36181640625,-13.122557640075684,1.6479490995407104,-0.87646484375,0.2877197265625,-0.0235595703125
4.099,315,3147,356,545,15.0,32.0,9.0,6.042479991912842,-14.404295921325684,4.21142578125,-0.8980712890625,0.3470458984375,0.044677734375
4.099,319,3147,400,682,15.0,32.0,9.0,6.042479991912842,-14.404295921325684,4.21142578125,-0.916748046875,0.3328857421875,0.091796875
4.108,321,3147,473,962,15.0,32.0,9.0,-7.202147960662842,-14.282225608825684,10.620116233825684,-0.9044189453125,0.2646484375,0.0902099609375
4.113,323,3147,387,1107,15.0,32.0,9.0,-13.061522483825684,-13.977049827575684,14.282225608825684,-0.8603515625,0.1824951171875,0.0570068359375
4.133,324,3147,389,1316,15.0,32.0,9.0,-13.061522483825684,-13.977049827575684,14.282225608825684,-0.791259765625,0.1219482421875,0.0064697265625
4.135,325,3147,371,1569,15.0,32.0,9.0,-10.375975608825684,-18.4326171875,22.277830123901367,-0.7044677734375,0.1114501953125,-0.04833984375
4.143,327,3147,439,1769,12.0,33.0,8.0,-3.356933355331421,-22.949216842651367,24.902341842651367,-0.59814453125,0.12451171875,-0.05810546875
4.152,328,3147,456,1945,12.0,33.0,8.0,-3.356933355331421,-22.949216842651367,24.902341842651367,-0.453125,0.1014404296875,0.000244140625
4.165,334,3147,468,2316,12.0,33.0,8.0,4.08935546875,-33.5693359375,19.04296875,-0.26220703125,0.0693359375,0.1031494140625
4.173,334,3147,596,2461,12.0,33.0,8.0,5.676269054412842,-38.330078125,8.9111328125,-0.0418701171875,0.0615234375,0.2044677734375
4.204,348,3147,671,2565,12.0,33.0,8.0,5.676269054412842,-38.330078125,8.9111328125,0.1556396484375,0.10400390625,0.24365234375
4.204,378,3147,1151,2765,12.0,33.0,8.0,9.46044921875,-44.738765716552734,-34.11865234375,0.1917724609375,0.277587890625,0.273193359375
4.205,406,3147,1294,3082,12.0,33.0,8.0,9.033203125,-44.311519622802734,-66.7724609375,-0.0689697265625,0.67724609375,0.4019775390625
4.212,416,3147,1452,3147,12.0,33.0,8.0,9.033203125,-44.311519622802734,-66.7724609375,-0.62353515625,1.3275146484375,0.499755859375
4.234,445,3147,1683,3147,12.0,33.0,8.0,-26.000974655151367,-28.381345748901367,-88.13475799560547,-1.3797607421875,1.6484375,0.348876953125
4.235,461,3147,1890,3147,12.0,33.0,8.0,-26.000974655151367,-28.381345748901367,-88.13475799560547,-2.23779296875,0.8924560546875,0.01171875
4.242,473,3147,2028,3147,20.0,31.0,10.0,-53.833003997802734,-19.22607421875,-66.22314453125,-2.23779296875,0.8924560546875,0.01171875
4.256,475,3147,1957,3147,20.0,31.0,10.0,-80.44432830810547,-12.329100608825684,-47.363277435302734,-3.3861083984375,-0.7227783203125,0.003173828125
4.263,468,3147,1686,3147,20.0,31.0,10.0,-80.44432830810547,-12.329100608825684,-47.363277435302734,-3.0439453125,-0.6295166015625,0.1455078125
4.271,465,3147,1584,3147,20.0,31.0,10.0,-38.39111328125,-14.709471702575684,-27.404783248901367,-3.0439453125,-0.6295166015625,0.1455078125
4.306,462,3147,1502,3147,20.0,31.0,10.0,49.560543060302734,8.36181640625,11.840819358825684,-1.1002197265625,0.154052734375,0.592041015625
4.306,456,3147,1365,3147,20.0,31.0,10.0,49.560543060302734,8.36181640625,11.840819358825684,-1.4512939453125,0.596435546875,0.6102294921875
4.307,455,3147,1228,3147,20.0,31.0,10.0,33.203125,31.005857467651367,20.935056686401367,-1.4512939453125,0.596435546875,0.6102294921875
4.315,424,3147,1025,3147,20.0,31.0,10.0,-13.854979515075684,44.311519622802734,56.274410247802734,-2.23388671875,0.374267578125,0.2557373046875
4.338,414,3147,902,3147,20.0,31.0,10.0,-13.854979515075684,44.311519622802734,56.274410247802734,-2.0238037109375,0.265625,0.1885986328125
4.338,401,3147,735,3147,20.0,31.0,10.0,3.662109136581421,30.639646530151367,71.2890625,-2.0238037109375,0.265625,0.1885986328125
4.345,376,3147,562,2833,14.0,32.0,11.0,56.701656341552734,13.854979515075684,64.51416015625,-1.1265869140625,0.4271240234375,0.1279296875
4.354,360,3147,485,2529,14.0,32.0,11.0,56.701656341552734,13.854979515075684,64.51416015625,-0.739013671875,0.644287109375,0.10009765625
4.362,346,3147,485,2266,14.0,32.0,11.0,64.3310546875,16.41845703125,45.288082122802734,-0.739013671875,0.644287109375,0.10009765625
4.375,328,3147,418,1611,14.0,32.0,11.0,35.09521484375,28.869626998901367,9.1552734375,-0.397705078125,0.514404296875,-0.0621337890625
4.383,328,3147,360,1122,14.0,32.0,11.0,35.09521484375,28.869626998901367,9.1552734375,-0.494873046875,0.248046875,-0.240234375
4.409,321,3147,419,780,14.0,32.0,11.0,10.803221702575684,36.1328125,-4.8828125,-0.494873046875,0.248046875,-0.240234375
4.411,324,2510,509,343,14.0,32.0,11.0,4.5166015625,44.677730560302734,-9.82666015625,-0.422119140625,0.1363525390625,-0.350830078125
4.418,321,1753,531,347,14.0,32.0,11.0,4.5166015625,44.677730560302734,-9.82666015625,-0.2900390625,0.321044921875,-0.2738037109375
4.422,318,1409,504,344,14.0,32.0,11.0,22.521970748901367,43.395992279052734,-5.859374523162842,-0.2900390625,0.321044921875,-0.2738037109375
4.440,317,973,499,336,14.0,32.0,11.0,21.667478561401367,36.2548828125,-7.568358898162842,-0.4110107421875,0.349609375,0.0736083984375
4.443,315,533,414,331,14.0,28.0,7.0,21.667478561401367,36.2548828125,-7.568358898162842,-0.5557861328125,0.26171875,0.2335205078125
4.453,316,409,378,282,14.0,28.0,7.0,10.009765625,30.700681686401367,-11.962889671325684,-0.5557861328125,0.26171875,0.2335205078125
4.466,316,483,373,328,14.0,28.0,7.0,-1.5869139432907104,24.230955123901367,-15.319823265075684,-0.55859375,0.1768798828125,0.2384033203125
4.473,315,484,401,328,14.0,28.0,7.0,-5.493163585662842,18.85986328125,-15.014647483825684,-0.55859375,0.1768798828125,0.2384033203125
4.481,314,485,378,330,14.0,28.0,7.0,2.929687261581421,15.808104515075684,-11.535643577575684,-0.54052734375,0.209716796875,0.1328125
4.516,315,545,330,326,14.0,28.0,7.0,16.05224609375,11.291502952575684,-7.019042491912842,-0.5341796875,0.2926025390625,0.120361328125
4.519,313,572,318,321,14.0,28.0,7.0,22.766111373901367,4.0283203125,-3.479003667831421,-0.5341796875,0.2926025390625,0.120361328125
4.520,314,618,346,327,14.0,28.0,7.0,18.98193359375,-1.5258787870407104,-3.723144292831421,-0.5328369140625,0.293701171875,0.13330078125
4.539,316,1598,409,330,14.0,28.0,7.0,6.713866710662842,-4.33349609375,-8.85009765625,-0.670654296875,0.20849609375,0.1666259765625
4.540,315,1908,389,334,13.0,30.0,11.0,-7.446288585662842,-6.774901866912842,-16.11328125,-0.670654296875,0.20849609375,0.1666259765625
4.541,312,1996,419,334,13.0,30.0,11.0,-14.770506858825684,-9.521484375,-20.446775436401367,-0.78857421875,0.1865234375,0.1563720703125
4.556,316,2514,485,333,13.0,30.0,11.0,-12.573241233825684,-12.634276390075684,-19.04296875,-0.8720703125,0.173583984375,0.0596923828125
4.564,317,2793,402,344,13.0,30.0,11.0,-6.958007335662842,-15.686034202575684,-13.549803733825684,-0.8720703125,0.173583984375,0.0596923828125
4.571,316,3058,361,342,13.0,30.0,11.0,-3.173827886581421,-18.49365234375,-6.896972179412842,-0.86083984375,0.1993408203125,0.0408935546875
4.585,323,3147,420,414,13.0,30.0,11.0,-2.50244140625,-21.240232467651367,-1.7089842557907104,-0.8675537109375,0.1737060546875,-0.0391845703125
4.607,327,3147,455,543,13.0,30.0,11.0,-5.920409679412842,-23.498533248901367,-0.1220703050494194,-0.8675537109375,0.1737060546875,-0.0391845703125
4.610,330,3147,495,658,13.0,30.0,11.0,-11.352538108825684,-24.597166061401367,-1.9531248807907104,-0.857666015625,0.1259765625,-0.07666015625
4.623,334,3147,527,826,13.0,30.0,11.0,-11.962889671325684,-25.085447311401367,-4.39453125,-0.683349609375,0.12646484375,-0.0849609375
4.623,337,3147,662,1123,13.0,30.0,11.0,-6.469726085662842,-26.611326217651367,-5.065917491912842,-0.683349609375,0.12646484375,-0.0849609375
4.645,346,3147,757,1282,14.0,30.0,7.0,-0.0610351525247097,-31.066892623901367,-3.540038824081421,-0.60888671875,0.0667724609375,-0.0018310546875
4.645,348,3147,797,1478,14.0,30.0,7.0,6.408690929412842,-37.7197265625,0.3662109076976776,-0.5224609375,-0.01953125,0.087646484375
4.656,371,3147,1079,1792,14.0,30.0,7.0,14.343260765075684,-44.982906341552734,4.5166015625,-0.339599609375,-0.0809326171875,0.14794921875
4.664,391,3147,1264,1918,14.0,30.0,7.0,22.644041061401367,-51.818843841552734,3.845214605331421,-0.0428466796875,-0.0662841796875,0.1614990234375
4.670,411,3147,1483,2129,14.0,30.0,7.0,30.456541061401367,-57.678218841552734,-7.751464366912842,0.2161865234375,0.1221923828125,0.173828125
4.684,438,3147,1860,2530,14.0,30.0,7.0,34.0576171875,-61.584468841552734,-31.616209030151367,0.2030029296875,0.5428466796875,0.2679443359375
4.710,456,3147,2162,2948,14.0,30.0,7.0,22.399900436401367,-60.058589935302734,-58.898921966552734,-0.127685546875,1.1641845703125,0.4669189453125
4.710,473,3147,2330,3063,14.0,30.0,7.0,-8.60595703125,-50.964351654052734,-73.66943359375,-0.83447265625,1.5125732421875,0.5521240234375
4.714,508,3147,2850,3147,14.0,30.0,7.0,-46.081539154052734,-36.2548828125,-71.35009765625,-1.9022216796875,1.09423828125,0.2501220703125
4.724,508,3147,2864,3147,14.0,30.0,7.0,-73.486328125,-23.254392623901367,-60.607906341552734,-2.9869384765625,0.2652587890625,0.04052734375
4.730,499,3147,2601,3147,15.0,28.0,9.0,-74.64599609375,-25.085447311401367,-40.10009765625,-3.67578125,-0.3712158203125,0.048583984375
4.747,494,3147,2471,3147,15.0,28.0,9.0,-40.344234466552734,-35.5224609375,-7.263183116912842,-2.907958984375,-1.2119140625,-0.0177001953125
4.756,491,3147,2354,3147,15.0,28.0,9.0,35.7666015625,-35.21728515625,14.770506858825684,-1.258056640625,-1.185546875,0.2637939453125
4.760,487,3147,2296,3147,15.0,28.0,9.0,102.60009002685547,-14.892577171325684,16.41845703125,-0.5997314453125,0.3917236328125,0.5838623046875
4.775,485,3147,2132,3147,15.0,28.0,9.0,75.439453125,25.329587936401367,9.033203125,-0.9825439453125,1.4544677734375,0.475341796875
4.783,482,3147,2058,3147,15.0,28.0,9.0,-14.648436546325684,64.75830078125,0.0,-1.724365234375,1.231201171875,0.176025390625
4.791,480,3147,1929,3147,15.0,28.0,9.0,-72.509765625,74.27978515625,0.7934569716453552,-2.3062744140625,0.496337890625,0.0042724609375
4.811,467,3147,1607,2925,15.0,28.0,9.0,-65.3076171875,51.940914154052734,15.624999046325684,-2.42919921875,0.0250244140625,0.088623046875
4.812,455,3147,1437,2753,15.0,28.0,9.0,-21.545408248901367,21.972654342651367,36.7431640625,-2.100341796875,-0.0599365234375,0.2772216796875
4.820,437,3147,1182,2491,15.0,28.0,9.0,19.6533203125,2.990722417831421,56.457515716552734,-1.57470703125,-0.0845947265625,0.4117431640625
4.850,411,3147,871,2105,12.0,34.0,6.0,46.630855560302734,-1.03759765625,72.021484375,-1.0772705078125,0.017333984375,0.43896484375
4.856,378,3147,585,1850,12.0,34.0,6.0,61.462398529052734,4.638671875,77.69775390625,-0.65576171875,0.30810546875,0.386962890625
4.877,360,3147,516,1267,12.0,34.0,6.0,60.852046966552734,16.05224609375,65.7958984375,-0.3865966796875,0.4637451171875,0.237060546875
4.878,330,3147,424,360,12.0,34.0,6.0,43.884273529052734,32.16552734375,36.92626953125,-0.306396484375,0.3245849609375,0.0189208984375
4.885,328,3001,387,341,12.0,34.0,6.0,20.507810592651367,46.813961029052734,3.051757574081421,-0.3126220703125,0.057861328125,-0.228515625
4.885,322,2527,406,346,12.0,34.0,6.0,6.835937023162842,52.551265716552734,-20.507810592651367,-0.384765625,-0.036865234375,-0.455810546875
4.895,318,2018,343,330,12.0,34.0,6.0,8.056640625,49.133296966552734,-23.559568405151367,-0.4276123046875,0.1575927734375,-0.544921875
4.915,318,1806,338,334,12.0,34.0,6.0,12.329100608825684,40.161128997802734,-11.657713890075684,-0.31884765625,0.2950439453125,-0.421875
4.915,315,1624,348,336,12.0,34.0,6.0,11.413573265075684,29.479978561401367,-1.220703125,-0.2578125,0.2564697265625,-0.181640625
4.924,316,1005,334,328,12.0,34.0,6.0,9.765625,21.484373092651367,2.563476324081421,-0.3779296875,0.224853515625,0.029541015625
4.946,314,646,390,338,13.0,32.0,11.0,12.329100608825684,18.00537109375,6.347655773162842,-0.489501953125,0.28662109375,0.1932373046875
4.952,302,691,387,342,13.0,32.0,11.0,16.29638671875,16.90673828125,10.925292015075684,-0.5057373046875,0.452880859375,0.344970703125
4.954,315,891,383,334,13.0,32.0,11.0,11.657713890075684,14.831542015075684,10.131834983825684,-0.52734375,0.544677734375,0.471923828125
4.962,315,1107,393,334,13.0,32.0,11.0,-4.150390625,10.192870140075684,2.0751953125,-0.5870361328125,0.439208984375,0.515869140625
4.971,316,1267,400,334,13.0,32.0,11.0,-19.22607421875,4.57763671875,-8.36181640625,-0.6531982421875,0.228271484375,0.4034423828125
4.984,315,1662,432,332,13.0,32.0,11.0,-24.536130905151367,0.8544921278953552,-14.465331077575684,-0.7186279296875,0.096923828125,0.1553955078125
4.992,315,1816,430,336,13.0,32.0,11.0,-23.071287155151367,-0.6713866591453552,-12.451170921325684,-0.772705078125,0.072021484375,-0.0635986328125
5.017,314,1894,418,338,13.0,32.0,11.0,-18.61572265625,-2.807616949081421,-4.0283203125,-0.804931640625,0.0782470703125,-0.1343994140625
5.018,316,2205,418,334,13.0,32.0,11.0,-9.94873046875,-7.568358898162842,6.286620616912842,-0.828857421875,0.10888671875,-0.08740234375
5.022,315,2505,423,354,13.0,32.0,11.0,1.8920897245407104,-13.366698265075684,15.624999046325684,-0.85595703125,0.1807861328125,-0.0098876953125
5.030,315,2619,406,330,16.0,31.0,3.0,1.8920897245407104,-13.366698265075684,15.624999046325684,-0.878173828125,0.2637939453125,0.047119140625
5.051,318,3073,445,342,16.0,31.0,3.0,14.221190452575684,-18.24951171875,24.780271530151367,-0.900146484375,0.3143310546875,0.0728759765625
5.053,318,3147,430,323,16.0,31.0,3.0,10.253905296325684,-17.76123046875,22.644041061401367,-0.9163818359375,0.3204345703125,0.0765380859375
5.061,323,3147,441,347,16.0,31.0,3.0,10.253905296325684,-17.76123046875,22.644041061401367,-0.90771484375,0.29833984375,0.0712890625
5.075,324,3147,428,513,16.0,31.0,3.0,-6.896972179412842,-14.892577171325684,14.160155296325684,-0.8990478515625,0.2728271484375,0.0452880859375
5.082,323,3147,479,684,16.0,31.0,3.0,-12.390135765075684,-13.488768577575684,12.084959983825684,-0.9022216796875,0.2537841796875,-0.0076904296875
5.094,327,3147,481,648,16.0,31.0,3.0,-12.390135765075684,-13.488768577575684,12.084959983825684,-0.880859375,0.2437744140625,-0.0540771484375
5.119,328,3147,490,989,16.0,31.0,3.0,-9.82666015625,-16.29638671875,15.624999046325684,-0.83154296875,0.2222900390625,-0.0560302734375
5.120,324,3147,494,1009,16.0,31.0,3.0,-4.2724609375,-22.155759811401367,20.080564498901367,-0.757568359375,0.1529541015625,-0.01025390625
5.120,316,3147,447,1204,16.0,31.0,3.0,-4.2724609375,-22.155759811401367,20.080564498901367,-0.604736328125,0.0355224609375,0.055908203125
5.134,334,3147,571,1531,15.0,29.0,5.0,9.21630859375,-36.2548828125,32.5927734375,-0.3408203125,-0.0836181640625,0.114501953125
5.156,346,3147,578,1691,15.0,29.0,5.0,15.624999046325684,-41.076656341552734,31.555173873901367,-0.0322265625,-0.132080078125,0.1644287109375
5.159,360,3147,912,1850,15.0,29.0,5.0,15.624999046325684,-41.076656341552734,31.555173873901367,0.204345703125,-0.0443115234375,0.190185546875
5.169,403,3147,1341,2085,15.0,29.0,5.0,24.902341842651367,-46.936031341552734,-12.207030296325684,0.2373046875,0.2113037109375,0.222900390625
5.174,419,3147,1469,2295,15.0,29.0,5.0,22.399900436401367,-46.203609466552734,-48.156734466552734,-0.0408935546875,0.6729736328125,0.287353515625
5.180,426,3147,1568,2486,15.0,29.0,5.0,22.399900436401367,-46.203609466552734,-48.156734466552734,-0.5352783203125,1.3424072265625,0.3270263671875
5.194,445,3147,1808,2930,15.0,29.0,5.0,-18.49365234375,-28.076169967651367,-63.049312591552734,-0.9962158203125,1.7781982421875,0.360107421875
5.210,463,3147,2153,3056,15.0,29.0,5.0,-46.508785247802734,-20.324705123901367,-46.569820404052734,-1.6861572265625,1.551025390625,0.2598876953125
5.223,473,3147,2280,3144,15.0,29.0,5.0,-46.508785247802734,-20.324705123901367,-46.569820404052734,-2.602783203125,0.5938720703125,0.0782470703125
5.224,462,3147,2308,3147,18.0,29.0,6.0,-97.53417205810547,-10.559081077575684,-49.255367279052734,-3.232666015625,-0.5428466796875,0.096923828125
5.235,468,3147,2135,3147,18.0,29.0,6.0,-75.439453125,-10.620116233825684,-46.142574310302734,-3.18701171875,-0.9407958984375,0.0792236328125
5.240,467,3147,2003,3147,18.0,29.0,6.0,-75.439453125,-10.620116233825684,-46.142574310302734,-2.1575927734375,-0.755615234375,0.0306396484375
5.267,465,3147,1918,3147,18.0,29.0,6.0,46.386714935302734,-5.737304210662842,0.2441406100988388,-1.1231689453125,-0.173583984375,0.2783203125
5.267,456,3147,1794,3147,18.0,29.0,6.0,46.386714935302734,-5.737304210662842,0.2441406100988388,-1.1295166015625,0.5401611328125,0.5582275390625
5.272,462,3147,1675,3147,18.0,29.0,6.0,56.884761810302734,7.019042491912842,17.27294921875,-1.1295166015625,0.5401611328125,0.5582275390625
5.284,445,3147,1384,3147,18.0,29.0,6.0,-18.6767578125,36.31591796875,58.288570404052734,-2.1358642578125,0.3599853515625,0.4429931640625
5.293,437,3147,1225,3147,18.0,29.0,6.0,-18.6767578125,36.31591796875,58.288570404052734,-2.079833984375,0.213623046875,0.3197021484375
5.300,424,3147,1074,3048,18.0,29.0,6.0,-13.366698265075684,33.8134765625,79.40673828125,-2.079833984375,0.213623046875,0.3197021484375
5.325,400,3147,819,2691,18.0,29.0,6.0,54.565425872802734,14.648436546325684,86.48680877685547,-1.308837890625,0.523193359375,0.154052734375
5.325,364,3147,707,2415,11.0,30.0,11.0,54.565425872802734,14.648436546325684,86.48680877685547,-0.9600830078125,0.6422119140625,0.1085205078125
5.330,357,3147,513,2160,11.0,30.0,11.0,61.035152435302734,14.465331077575684,67.56591796875,-0.9600830078125,0.6422119140625,0.1085205078125
5.344,330,3147,465,1483,11.0,30.0,11.0,28.686521530151367,30.090330123901367,16.6015625,-0.5496826171875,0.6986083984375,-0.0067138671875
5.368,334,3147,442,1136,11.0,30.0,11.0,28.686521530151367,30.090330123901367,16.6015625,-0.548583984375,0.5784912109375,-0.1090087890625
5.370,327,3147,391,694,11.0,30.0,11.0,9.1552734375,39.9169921875,-6.408690929412842,-0.548583984375,0.5784912109375,-0.1090087890625
5.375,318,2854,355,343,11.0,30.0,11.0,-17.7001953125,53.405757904052734,-31.372068405151367,-0.426513671875,0.260986328125,-0.2947998046875
5.383,318,2368,359,353,11.0,30.0,11.0,-17.7001953125,53.405757904052734,-31.372068405151367,-0.372802734375,0.28515625,-0.305419921875
5.390,317,2024,322,330,11.0,30.0,11.0,-10.742186546325684,54.931636810302734,-31.555173873901367,-0.372802734375,0.28515625,-0.305419921875
5.404,315,1399,317,318,11.0,30.0,11.0,-0.2441406100988388,43.151851654052734,-26.367185592651367,-0.3983154296875,0.24267578125,-0.054931640625
5.432,315,845,375,312,11.0,30.0,11.0,-0.2441406100988388,43.151851654052734,-26.367185592651367,-0.421875,0.1700439453125,0.061279296875
5.433,314,567,379,328,13.0,32.0,9.0,3.601073980331421,33.50830078125,-26.000974655151367,-0.421875,0.1700439453125,0.061279296875
5.435,313,532,330,327,13.0,32.0,9.0,9.8876953125,15.563963890075684,-28.198240280151367,-0.4765625,0.2613525390625,0.3262939453125
5.443,312,548,378,331,13.0,32.0,9.0,9.8876953125,15.563963890075684,-28.198240280151367,-0.4569091796875,0.271240234375,0.3431396484375
5.461,313,494,390,329,13.0,32.0,9.0,5.0048828125,9.09423828125,-28.808591842651367,-0.4569091796875,0.271240234375,0.3431396484375
5.471,310,589,387,336,13.0,32.0,9.0,10.498045921325684,9.521484375,-25.268552780151367,-0.6090087890625,0.290771484375,0.2730712890625
5.473,310,561,400,324,13.0,32.0,9.0,10.498045921325684,9.521484375,-25.268552780151367,-0.6090087890625,0.290771484375,0.2730712890625
5.481,313,905,354,328,13.0,32.0,9.0,10.864256858825684,3.540038824081421,-18.49365234375,-0.6668701171875,0.2706298828125,0.2025146484375
5.494,315,1483,401,332,13.0,32.0,9.0,0.8544921278953552,-2.38037109375,-13.244627952575684,-0.778564453125,0.0113525390625,0.0206298828125
5.503,313,1897,401,330,13.0,32.0,9.0,-12.573241233825684,-4.08935546875,-11.596678733825684,-0.778564453125,0.0113525390625,0.0206298828125
5.510,314,2063,401,332,13.0,32.0,9.0,-18.6767578125,-4.39453125,-10.192870140075684,-0.8404541015625,-0.0789794921875,-0.02294921875
5.529,315,2238,462,336,15.0,31.0,7.0,-14.526366233825684,-5.249022960662842,-5.615233898162842,-0.80322265625,0.0609130859375,-0.0343017578125
5.533,314,2490,454,336,15.0,31.0,7.0,-5.371093273162842,-7.202147960662842,1.9531248807907104,-0.80322265625,0.0609130859375,-0.0343017578125
5.544,316,2734,465,334,15.0,31.0,7.0,1.5869139432907104,-10.070799827575684,9.8876953125,-0.788818359375,0.1492919921875,-0.0184326171875
5.565,321,3062,493,336,15.0,31.0,7.0,2.563476324081421,-12.817381858825684,16.29638671875,-0.7373046875,0.20654296875,-0.0233154296875
5.566,319,3147,411,354,15.0,31.0,7.0,-1.2817381620407104,-15.075682640075684,20.385740280151367,-0.7373046875,0.20654296875,-0.0233154296875
5.579,324,3147,508,525,15.0,31.0,7.0,-5.798339366912842,-17.822265625,21.301267623901367,-0.62939453125,0.1514892578125,-0.0242919921875
5.585,334,3147,591,1018,15.0,31.0,7.0,-5.920409679412842,-21.789548873901367,19.6533203125,-0.4122314453125,0.06884765625,-0.05126953125
5.592,337,3147,661,1213,15.0,31.0,7.0,0.54931640625,-26.428220748901367,17.39501953125,-0.4122314453125,0.06884765625,-0.05126953125
5.600,354,3147,754,1416,15.0,31.0,7.0,8.056640625,-31.249998092651367,15.502928733825684,-0.2796630859375,0.0689697265625,-0.0054931640625
5.614,386,3147,1129,1840,13.0,32.0,7.0,11.474608421325684,-35.2783203125,11.901854515075684,0.06298828125,0.1407470703125,0.1004638671875
5.631,406,3147,1370,2035,13.0,32.0,7.0,12.207030296325684,-37.17041015625,2.25830078125,0.06298828125,0.1407470703125,0.1004638671875
5.632,428,3147,1595,2340,13.0,32.0,7.0,12.084959983825684,-37.53662109375,-15.563963890075684,0.019287109375,0.2972412109375,0.1324462890625
5.644,441,3147,1837,2748,13.0,32.0,7.0,9.27734375,-38.330078125,-36.19384765625,-0.529296875,1.10107421875,0.6329345703125
5.667,461,3147,2062,3147,13.0,32.0,7.0,1.6479490995407104,-41.503902435302734,-47.302242279052734,-0.529296875,1.10107421875,0.6329345703125
5.672,479,3147,2398,3147,13.0,32.0,7.0,-6.469726085662842,-45.654293060302734,-43.457027435302734,-0.854736328125,1.42919921875,0.9259033203125
5.675,509,3147,2996,3147,13.0,32.0,7.0,-10.131834983825684,-44.067378997802734,-33.87451171875,-2.9881591796875,0.427001953125,0.311279296875
5.684,506,3147,2753,3147,13.0,32.0,7.0,-19.4091796875,-32.04345703125,-28.137205123901367,-2.9881591796875,0.427001953125,0.311279296875
5.691,499,3147,2652,3147,13.0,32.0,7.0,-28.381345748901367,-21.301267623901367,-15.197752952575684,-3.7784423828125,-0.44873046875,-0.0572509765625
5.704,496,3147,2435,3147,13.0,32.0,7.0,2.807616949081421,-16.11328125,17.39501953125,-2.8348388671875,-1.32080078125,-0.39013671875
5.712,495,3147,2284,3147,14.0,30.0,12.0,75.62255859375,-12.451170921325684,44.189449310302734,-1.287353515625,-1.1600341796875,-0.183349609375
5.734,493,3147,2233,3147,14.0,30.0,12.0,126.83104705810547,-3.967284917831421,46.936031341552734,-0.820556640625,0.563232421875,0.158203125
5.734,493,3147,2207,3147,14.0,30.0,12.0,95.09276580810547,18.98193359375,32.8369140625,-1.1639404296875,1.78564453125,0.123046875
5.742,481,3147,2074,3147,14.0,30.0,12.0,2.746581792831421,46.081539154052734,14.099120140075684,-1.7178955078125,1.6072998046875,0.02001953125
5.750,487,3147,1912,3147,14.0,30.0,12.0,-67.32177734375,56.762691497802734,7.019042491912842,-2.091796875,0.7303466796875,0.0704345703125
5.772,473,3147,1702,3147,14.0,30.0,12.0,-68.115234375,46.325679779052734,14.709471702575684,-2.1202392578125,0.095947265625,0.2386474609375
5.772,444,3147,1464,3143,14.0,30.0,12.0,-18.61572265625,29.785154342651367,29.724119186401367,-1.8253173828125,0.03662109375,0.34375
5.780,445,3147,1294,2992,14.0,30.0,12.0,27.587888717651367,18.61572265625,44.311519622802734,-1.4095458984375,0.1165771484375,0.36376953125
5.794,409,3147,737,2442,14.0,30.0,12.0,43.273921966552734,15.075682640075684,55.114742279052734,-1.013916015625,0.191650390625,0.3759765625
5.803,371,3147,625,1996,14.0,30.0,12.0,38.0859375,18.06640625,58.715816497802734,-0.626953125,0.3553466796875,0.349365234375
5.811,346,3147,523,1531,10.0,30.0,11.0,27.832029342651367,25.268552780151367,48.767086029052734,-0.3421630859375,0.5133056640625,0.2003173828125
5.839,328,3147,465,962,10.0,30.0,11.0,17.08984375,34.60693359375,23.559568405151367,-0.2685546875,0.5093994140625,-0.0262451171875
5.839,323,3147,423,587,10.0,30.0,11.0,1.7089842557907104,43.151851654052734,-6.652831554412842,-0.3414306640625,0.3544921875,-0.2882080078125
5.840,323,3147,432,382,10.0,30.0,11.0,-13.000487327575684,48.645015716552734,-27.038572311401367,-0.43603515625,0.1727294921875,-0.4974365234375
5.854,316,2897,426,352,10.0,30.0,11.0,-15.075682640075684,48.522945404052734,-31.616209030151367,-0.498291015625,0.1121826171875,-0.5482177734375
5.871,316,2748,409,336,10.0,30.0,11.0,-5.310058116912842,42.297359466552734,-25.268552780151367,-0.532470703125,0.2076416015625,-0.4600830078125
5.874,315,2576,363,334,10.0,30.0,11.0,1.7089842557907104,32.89794921875,-16.66259765625,-0.520263671875,0.27392578125,-0.2723388671875
5.885,314,2494,371,331,10.0,30.0,11.0,-1.0986328125,24.169919967651367,-12.145995140075684,-0.473388671875,0.2398681640625,-0.01611328125
5.895,313,2418,372,332,10.0,30.0,11.0,-5.676269054412842,19.04296875,-11.962889671325684,-0.458984375,0.230712890625,0.24169921875
5.900,313,2337,363,334,10.0,30.0,11.0,-6.103515148162842,17.2119140625,-12.817381858825684,-0.5343017578125,0.2996826171875,0.400634765625
5.914,314,2212,373,332,13.0,32.0,9.0,-5.737304210662842,16.41845703125,-12.329100608825684,-0.62353515625,0.365966796875,0.4163818359375
5.936,313,2330,391,334,13.0,32.0,9.0,-10.253905296325684,14.770506858825684,-11.108397483825684,-0.6380615234375,0.359375,0.3404541015625
5.937,313,2415,447,334,13.0,32.0,9.0,-18.1884765625,10.620116233825684,-10.559081077575684,-0.648193359375,0.2843017578125,0.234130859375
5.944,313,2478,441,334,13.0,32.0,9.0,-23.498533248901367,4.2724609375,-10.742186546325684,-0.7235107421875,0.180419921875,0.122802734375
5.952,315,2565,468,336,13.0,32.0,9.0,-21.972654342651367,-1.6479490995407104,-9.8876953125,-0.81396484375,0.1270751953125,0.0235595703125
5.960,315,2734,466,336,13.0,32.0,9.0,-14.709471702575684,-5.676269054412842,-6.530761241912842,-0.8721923828125,0.1680908203125,-0.03564453125
5.976,316,2949,473,334,13.0,32.0,9.0,-7.080077648162842,-8.544921875,-1.7700194120407104,-0.8931884765625,0.2373046875,-0.046630859375
5.983,316,3056,514,336,13.0,32.0,9.0,-2.563476324081421,-11.047362327575684,2.25830078125,-0.88818359375,0.2706298828125,-0.0418701171875
6.003,315,3147,467,338,13.0,32.0,9.0,-0.1220703050494194,-12.756346702575684,4.57763671875,-0.877685546875,0.2708740234375,-0.0501708984375
6.004,317,3147,502,424,14.0,33.0,9.0,1.8920897245407104,-13.916014671325684,5.493163585662842,-0.8792724609375,0.2650146484375,-0.0582275390625
6.012,321,3147,497,513,14.0,33.0,9.0,3.662109136581421,-15.502928733825684,4.94384765625,-0.8973388671875,0.263427734375,-0.0411376953125
6.020,323,3147,537,525,14.0,33.0,9.0,5.676269054412842,-18.37158203125,3.112792730331421,-0.909912109375,0.2635498046875,-0.01123046875
6.039,328,3147,555,591,14.0,33.0,9.0,10.437010765075684,-21.972654342651367,0.6103515625,-0.921630859375,0.271240234375,-0.0032958984375
6.042,331,3147,572,651,14.0,33.0,9.0,19.4091796875,-26.306150436401367,-0.9155272841453552,-0.9454345703125,0.27392578125,-0.025390625
6.050,333,3147,568,628,14.0,33.0,9.0,31.433103561401367,-31.433103561401367,0.6713866591453552,-0.9459228515625,0.2374267578125,-0.0716552734375
6.077,344,3147,567,763,14.0,33.0,9.0,44.189449310302734,-36.56005859375,6.164550304412842,-0.837158203125,0.1937255859375,-0.14306640625
6.078,347,3147,582,904,14.0,33.0,9.0,53.588863372802734,-41.015621185302734,12.756346702575684,-0.5975341796875,0.17578125,-0.1181640625
6.081,359,3147,677,987,14.0,33.0,9.0,53.222652435302734,-43.823238372802734,14.282225608825684,-0.3294677734375,0.1632080078125,0.0416259765625
6.094,385,3147,999,1236,14.0,33.0,9.0,44.494625091552734,-44.189449310302734,8.48388671875,-0.083251953125,0.1466064453125,0.1365966796875
6.107,405,3147,1328,1383,12.0,29.0,12.0,38.02490234375,-44.250484466552734,-1.7700194120407104,0.136474609375,0.1488037109375,0.1134033203125
6.117,424,3147,1546,1592,12.0,29.0,12.0,40.0390625,-46.569820404052734,-13.488768577575684,0.2291259765625,0.2442626953125,0.05029296875
6.124,440,3147,2041,1855,12.0,29.0,12.0,42.053218841552734,-49.865718841552734,-23.925779342651367,0.1043701171875,0.47607421875,0.046630859375
6.145,456,3147,2299,2176,12.0,29.0,12.0,31.311033248901367,-51.208492279052734,-33.3251953125,-0.1962890625,0.800537109375,0.1708984375
6.145,439,3147,2555,2361,12.0,29.0,12.0,6.713866710662842,-50.354000091552734,-42.602535247802734,-0.549560546875,1.1251220703125,0.3699951171875
6.156,487,3147,3111,2736,12.0,29.0,12.0,-21.179197311401367,-49.011226654052734,-47.912593841552734,-0.9796142578125,1.231689453125,0.5958251953125
6.162,497,3147,3147,2899,12.0,29.0,12.0,-42.236324310302734,-49.438472747802734,-48.461910247802734,-1.646728515625,0.6707763671875,0.60693359375
6.181,506,3147,3147,2957,12.0,29.0,12.0,-42.236324310302734,-49.438472747802734,-48.461910247802734,-2.480712890625,-0.211669921875,0.2642822265625
6.185,574,3147,3147,3147,12.0,29.0,12.0,-53.100582122802734,-31.860349655151367,-49.804683685302734,-3.015380859375,-0.5428466796875,0.004638671875
6.192,501,3147,3147,3147,12.0,29.0,12.0,-26.550291061401367,-22.644041061401367,-24.719236373901367,-3.0440673828125,-0.436279296875,-0.05078125
6.201,499,3147,3118,3147,15.0,31.0,11.0,-26.550291061401367,-22.644041061401367,-24.719236373901367,-2.351318359375,-0.367431640625,-0.0140380859375
6.223,497,3147,2995,3147,15.0,31.0,11.0,28.869626998901367,-12.268065452575684,33.26416015625,-1.2491455078125,-0.1680908203125,0.2464599609375
6.224,497,3147,2996,3147,15.0,31.0,11.0,31.982419967651367,2.3193359375,32.28759765625,-0.8238525390625,0.601318359375,0.4766845703125
6.239,497,3147,2946,3147,15.0,31.0,11.0,31.982419967651367,2.3193359375,32.28759765625,-1.2340087890625,1.450439453125,0.4376220703125
6.246,497,3147,2736,3147,15.0,31.0,11.0,-18.73779296875,38.14697265625,5.371093273162842,-1.82080078125,1.4373779296875,0.2496337890625
6.253,494,3147,2582,3082,15.0,31.0,11.0,-55.175777435302734,41.442867279052734,-2.0751953125,-2.0699462890625,0.659912109375,0.1234130859375
6.260,487,3147,2419,2974,15.0,31.0,11.0,-55.175777435302734,41.442867279052734,-2.0751953125,-1.942626953125,-0.00537109375,0.1531982421875
6.283,481,3147,2126,2744,15.0,31.0,11.0,-20.507810592651367,17.76123046875,9.94873046875,-1.6458740234375,-0.111328125,0.20751953125
6.283,473,3147,1927,2514,15.0,31.0,11.0,15.624999046325684,10.742186546325684,26.123044967651367,-1.3455810546875,0.0831298828125,0.2203369140625
6.294,462,3147,1665,2362,15.0,31.0,11.0,15.624999046325684,10.742186546325684,26.123044967651367,-1.0518798828125,0.248779296875,0.26806640625
6.307,423,3147,1108,1918,12.0,33.0,12.0,16.845703125,17.02880859375,55.114742279052734,-0.7705078125,0.2808837890625,0.2874755859375
6.312,390,3147,887,1480,12.0,33.0,12.0,5.676269054412842,26.184080123901367,56.274410247802734,-0.562744140625,0.263427734375,0.2088623046875
6.322,383,3147,713,1134,12.0,33.0,12.0,5.676269054412842,26.184080123901367,56.274410247802734,-0.4368896484375,0.2103271484375,0.069091796875
6.349,347,3147,487,654,12.0,33.0,12.0,-10.803221702575684,44.250484466552734,10.803221702575684,-0.40771484375,0.064697265625,-0.116943359375
6.349,329,3147,444,348,12.0,33.0,12.0,-18.06640625,46.386714935302734,-18.4326171875,-0.464111328125,-0.0496826171875,-0.29443359375
6.350,321,2813,406,344,12.0,33.0,12.0,-18.06640625,46.386714935302734,-18.4326171875,-0.571533203125,0.0556640625,-0.3597412109375
6.364,318,2295,442,336,12.0,33.0,12.0,-8.11767578125,36.62109375,-26.916501998901367,-0.5670166015625,0.2503662109375,-0.3011474609375
6.385,316,2102,388,333,12.0,33.0,12.0,-1.15966796875,28.503416061401367,-16.11328125,-0.4415283203125,0.342529296875,-0.1766357421875
6.386,316,1877,402,317,12.0,33.0,12.0,-1.15966796875,28.503416061401367,-16.11328125,-0.4415283203125,0.342529296875,-0.1766357421875
6.399,317,1850,433,330,12.0,33.0,12.0,-6.774901866912842,21.728513717651367,-10.009765625,-0.4754638671875,0.3463134765625,0.0687255859375
6.402,315,1607,363,338,11.0,32.0,11.0,-6.774901866912842,21.728513717651367,-10.009765625,-0.549560546875,0.3997802734375,0.1722412109375
6.412,314,1294,356,331,11.0,32.0,11.0,-7.934569835662842,21.301267623901367,-6.774901866912842,-0.549560546875,0.3997802734375,0.1722412109375
6.429,315,1755,369,332,11.0,32.0,11.0,-7.507323741912842,16.41845703125,-1.6479490995407104,-0.5439453125,0.5054931640625,0.308349609375
6.432,310,1931,388,334,11.0,32.0,11.0,-7.507323741912842,16.41845703125,-1.6479490995407104,-0.5919189453125,0.3978271484375,0.39208984375
6.451,316,2032,388,334,11.0,32.0,11.0,-15.747069358825684,10.070799827575684,-5.676269054412842,-0.5919189453125,0.3978271484375,0.39208984375
6.454,318,2207,424,336,11.0,32.0,11.0,-18.6767578125,-5.371093273162842,-10.742186546325684,-0.7626953125,0.1322021484375,0.224853515625
6.463,317,2323,419,338,11.0,32.0,11.0,-18.6767578125,-5.371093273162842,-10.742186546325684,-0.7503662109375,0.0728759765625,0.0435791015625
6.471,316,2435,427,342,11.0,32.0,11.0,-11.230467796325684,-7.812499523162842,-5.249022960662842,-0.7503662109375,0.0728759765625,0.0435791015625
6.489,318,2716,518,336,11.0,32.0,11.0,2.685546636581421,-10.620116233825684,11.962889671325684,-0.7332763671875,0.158203125,-0.022705078125
6.492,319,3147,514,346,12.0,33.0,8.0,2.685546636581421,-10.620116233825684,11.962889671325684,-0.767578125,0.2015380859375,0.01904296875
6.502,318,3143,586,342,12.0,33.0,8.0,4.21142578125,-14.404295921325684,17.7001953125,-0.767578125,0.2015380859375,0.01904296875
6.514,328,3147,548,513,12.0,33.0,8.0,2.868652105331421,-18.00537109375,23.376462936401367,-0.8514404296875,0.2305908203125,-0.0142822265625
6.522,328,3147,548,684,12.0,33.0,8.0,2.868652105331421,-18.00537109375,23.376462936401367,-0.85009765625,0.2020263671875,-0.029296875
6.559,331,3147,571,682,12.0,33.0,8.0,-1.5258787870407104,-18.00537109375,25.329587936401367,-0.85009765625,0.2020263671875,-0.029296875
6.559,343,3147,634,1035,12.0,33.0,8.0,-14.038084983825684,-16.41845703125,30.883787155151367,-0.8028564453125,0.0550537109375,-0.0218505859375
6.560,344,3147,666,1170,12.0,33.0,8.0,-14.038084983825684,-16.41845703125,30.883787155151367,-0.6197509765625,-0.0631103515625,-0.0506591796875
6.561,355,3147,710,1419,12.0,33.0,8.0,-8.60595703125,-19.22607421875,35.0341796875,-0.6197509765625,-0.0631103515625,-0.0506591796875
6.578,388,3147,1038,1704,12.0,33.0,8.0,36.4990234375,-39.306640625,30.273435592651367,0.2174072265625,-0.0889892578125,-0.0384521484375
6.587,416,3147,1527,1920,12.0,33.0,8.0,36.4990234375,-39.306640625,30.273435592651367,0.5850830078125,0.1417236328125,0.059326171875
6.595,431,3147,1790,2113,14.0,32.0,9.0,52.795406341552734,-50.476070404052734,11.230467796325684,0.5850830078125,0.1417236328125,0.059326171875
6.614,457,3147,2258,2530,14.0,32.0,9.0,27.221677780151367,-48.339839935302734,-60.913082122802734,0.23046875,1.3092041015625,0.315673828125
6.614,468,3147,2565,2976,14.0,32.0,9.0,27.221677780151367,-48.339839935302734,-60.913082122802734,-0.460693359375,2.0,0.4298095703125
6.621,490,3147,2891,3147,14.0,32.0,9.0,-10.803221702575684,-38.57421875,-75.3173828125,-0.460693359375,2.0,0.4298095703125
6.656,551,3147,3147,3147,14.0,32.0,9.0,-80.99364471435547,-28.076169967651367,-33.50830078125,-2.7503662109375,0.9105224609375,0.2379150390625
6.657,519,3147,3147,3147,14.0,32.0,9.0,-80.99364471435547,-28.076169967651367,-33.50830078125,-3.903564453125,-0.2996826171875,0.2178955078125
6.657,514,3147,3089,3147,14.0,32.0,9.0,-104.73632049560547,-24.963376998901367,-19.775390625,-3.903564453125,-0.2996826171875,0.2178955078125
6.671,509,3147,2919,3147,14.0,32.0,9.0,-41.015621185302734,-21.911619186401367,24.780271530151367,-1.599609375,-2.152587890625,0.2188720703125
6.673,508,3147,2777,3147,14.0,32.0,9.0,-41.015621185302734,-21.911619186401367,24.780271530151367,-0.75830078125,-0.470703125,0.4202880859375
6.690,506,3147,2713,3147,14.0,32.0,9.0,77.20947265625,-9.033203125,35.7666015625,-0.75830078125,-0.470703125,0.4202880859375
6.695,499,3147,2585,3147,12.0,30.0,13.0,66.5283203125,49.194332122802734,23.620603561401367,-1.5740966796875,2.1865234375,0.0301513671875
6.705,497,3147,2435,3147,12.0,30.0,13.0,66.5283203125,49.194332122802734,23.620603561401367,-2.009521484375,1.1900634765625,0.0855712890625
6.713,496,3147,2266,3147,12.0,30.0,13.0,-45.349117279052734,61.889644622802734,9.6435546875,-2.009521484375,1.1900634765625,0.0855712890625
6.727,487,3147,1994,3112,12.0,30.0,13.0,-80.68846893310547,49.865718841552734,9.6435546875,-1.822265625,-0.0140380859375,0.3846435546875
6.733,481,3147,1806,2941,12.0,30.0,13.0,-30.700681686401367,28.320310592651367,23.315427780151367,-1.822265625,-0.0140380859375,0.3846435546875
6.805,469,3147,1598,2683,12.0,30.0,13.0,35.7666015625,12.207030296325684,36.92626953125,-1.46240234375,0.1920166015625,0.4102783203125
6.805,430,3147,922,2115,12.0,30.0,13.0,65.73486328125,5.310058116912842,41.320796966552734,-0.7703857421875,0.4765625,0.2723388671875
6.805,375,3147,656,1681,12.0,30.0,13.0,62.072750091552734,6.652831554412842,39.0625,-0.7703857421875,0.4765625,0.2723388671875
6.806,364,3147,464,1260,12.0,30.0,13.0,46.752925872802734,14.892577171325684,32.1044921875,-0.48388671875,0.497314453125,0.1290283203125
6.806,327,3147,378,559,12.0,30.0,13.0,28.503416061401367,27.648923873901367,19.04296875,-0.3514404296875,0.1458740234375,-0.3280029296875
6.806,323,3117,359,317,12.0,33.0,11.0,9.82666015625,41.259761810302734,2.13623046875,-0.3514404296875,0.1458740234375,-0.3280029296875
6.806,316,2465,421,342,12.0,33.0,11.0,-0.7934569716453552,51.269527435302734,-12.207030296325684,-0.3916015625,0.0091552734375,-0.549072265625
6.815,315,2035,387,330,12.0,33.0,11.0,2.13623046875,52.124019622802734,-19.83642578125,-0.394287109375,0.1357421875,-0.4228515625
6.825,313,1786,315,315,12.0,33.0,11.0,11.657713890075684,44.006343841552734,-21.972654342651367,-0.394287109375,0.1357421875,-0.4228515625
6.831,313,1636,315,319,12.0,33.0,11.0,16.29638671875,33.87451171875,-22.705076217651367,-0.4024658203125,0.2606201171875,-0.1788330078125
6.858,313,962,315,311,12.0,33.0,11.0,12.207030296325684,25.878904342651367,-25.695798873901367,-0.5218505859375,0.4447021484375,0.2296142578125
6.861,314,654,315,316,12.0,33.0,11.0,6.225585460662842,22.338865280151367,-29.907224655151367,-0.5218505859375,0.4447021484375,0.2296142578125
6.861,313,619,299,294,12.0,33.0,11.0,2.01416015625,22.216794967651367,-30.578611373901367,-0.6082763671875,0.5718994140625,0.3648681640625
6.875,313,667,316,316,12.0,33.0,11.0,-3.417968511581421,21.301267623901367,-26.977537155151367,-0.613525390625,0.5115966796875,0.3956298828125
6.898,313,951,328,324,12.0,33.0,11.0,-10.437010765075684,17.7001953125,-23.315427780151367,-0.613525390625,0.5115966796875,0.3956298828125
6.898,316,1115,321,323,14.0,31.0,13.0,-16.11328125,11.718749046325684,-23.132322311401367,-0.63671875,0.339111328125,0.3233642578125
6.905,310,1328,321,322,14.0,31.0,13.0,-17.15087890625,4.39453125,-24.658201217651367,-0.7310791015625,0.0728759765625,0.0386962890625
6.913,313,1588,323,321,14.0,31.0,13.0,-14.160155296325684,-1.9531248807907104,-24.230955123901367,-0.7310791015625,0.0728759765625,0.0386962890625
6.932,310,1850,348,334,14.0,31.0,13.0,-10.498045921325684,-5.920409679412842,-20.324705123901367,-0.7374267578125,0.0623779296875,-0.059814453125
6.937,310,1900,351,332,14.0,31.0,13.0,-7.385253429412842,-8.6669921875,-13.671874046325684,-0.7711181640625,0.13671875,-0.0296630859375
6.943,310,2089,370,331,14.0,31.0,13.0,-4.2724609375,-11.474608421325684,-5.981444835662842,-0.7711181640625,0.13671875,-0.0296630859375
6.965,313,2233,364,332,14.0,31.0,13.0,-0.7324218153953552,-13.610838890075684,1.0986328125,-0.7802734375,0.1812744140625,-0.0050048828125
6.966,315,2579,363,330,14.0,31.0,13.0,1.6479490995407104,-14.587401390075684,6.042479991912842,-0.7994384765625,0.2470703125,-0.001220703125
6.976,316,2636,365,343,14.0,31.0,13.0,0.8544921278953552,-15.014647483825684,8.60595703125,-0.83642578125,0.289306640625,-0.0084228515625
6.981,316,3094,402,336,14.0,31.0,13.0,-2.746581792831421,-15.380858421325684,9.70458984375,-0.8623046875,0.30078125,-0.027587890625
7.000,316,3147,500,362,11.0,30.0,14.0,-7.324218273162842,-15.686034202575684,10.498045921325684,-0.86181640625,0.301513671875,-0.05712890625
7.010,321,3147,531,482,11.0,30.0,14.0,-13.000487327575684,-16.29638671875,11.047362327575684,-0.8128662109375,0.2630615234375,-0.0732421875
7.011,324,3147,571,567,11.0,30.0,14.0,-18.4326171875,-18.00537109375,11.291502952575684,-0.70947265625,0.162109375,-0.0565185546875
7.025,332,3147,548,1043,11.0,30.0,14.0,-18.12744140625,-20.935056686401367,11.901854515075684,-0.5787353515625,0.025634765625,-0.0338134765625
7.033,336,3147,593,1272,11.0,30.0,14.0,-9.09423828125,-24.536130905151367,13.732909202575684,-0.4129638671875,-0.0662841796875,-0.0155029296875
7.041,348,3147,678,1483,11.0,30.0,14.0,4.69970703125,-28.869626998901367,16.78466796875,-0.19384765625,-0.084716796875,0.0179443359375
7.074,383,3147,980,1943,11.0,30.0,14.0,15.136717796325684,-34.36279296875,18.49365234375,0.051025390625,-0.0400390625,0.0640869140625
7.074,402,3147,1411,2178,11.0,30.0,14.0,15.991209983825684,-39.9169921875,12.268065452575684,0.2342529296875,0.1016845703125,0.12841796875
7.074,418,3147,1646,2370,11.0,30.0,14.0,9.033203125,-42.846675872802734,-8.056640625,0.2203369140625,0.364501953125,0.2169189453125
7.086,433,3147,1941,2685,14.0,29.0,14.0,-1.2817381620407104,-43.090816497802734,-39.00146484375,-0.14990234375,0.78759765625,0.3614501953125
7.098,441,3147,2188,2973,14.0,29.0,14.0,-14.465331077575684,-44.067378997802734,-60.729976654052734,-0.6583251953125,1.339111328125,0.5679931640625
7.103,467,3147,2505,3053,14.0,29.0,14.0,-29.418943405151367,-44.433589935302734,-58.593746185302734,-1.1187744140625,1.6748046875,0.757568359375
7.122,497,3147,2872,3147,14.0,29.0,14.0,-45.532222747802734,-38.63525390625,-46.386714935302734,-1.9522705078125,1.2332763671875,0.516357421875
7.123,488,3147,2901,3147,14.0,29.0,14.0,-71.044921875,-23.742673873901367,-45.104976654052734,-3.087158203125,0.2000732421875,0.0308837890625
7.131,494,3147,2650,3147,14.0,29.0,14.0,-88.01268768310547,-12.023924827575684,-43.884273529052734,-3.7786865234375,-0.5418701171875,-0.159912109375
7.145,484,3147,2498,3147,14.0,29.0,14.0,-54.504390716552734,-12.145995140075684,-21.606443405151367,-3.0810546875,-1.0504150390625,-0.21142578125
7.166,482,3147,2414,3147,14.0,29.0,14.0,28.015134811401367,-14.648436546325684,2.746581792831421,-1.6033935546875,-0.8592529296875,0.043701171875
7.167,479,3147,2356,3147,14.0,29.0,14.0,94.60448455810547,-8.23974609375,10.192870140075684,-0.9945068359375,0.3836669921875,0.3521728515625
7.179,473,3147,2167,3147,14.0,29.0,14.0,80.56639862060547,14.343260765075684,8.6669921875,-1.359375,1.2484130859375,0.3431396484375
7.183,467,3147,1951,3147,15.0,29.0,13.0,7.995604991912842,41.076656341552734,6.164550304412842,-1.9598388671875,1.1046142578125,0.28857421875
7.199,456,3147,1806,3147,15.0,29.0,13.0,-43.029781341552734,49.499507904052734,7.873534679412842,-2.2803955078125,0.517822265625,0.277099609375
7.206,431,3147,1543,2981,15.0,29.0,13.0,-31.127927780151367,36.92626953125,15.747069358825684,-2.15771484375,0.2000732421875,0.3275146484375
7.215,418,3147,1226,2721,15.0,29.0,13.0,20.751951217651367,19.1650390625,24.475095748901367,-1.6805419921875,0.308349609375,0.3779296875
7.225,398,3147,1107,2340,15.0,29.0,13.0,61.828609466552734,9.765625,23.559568405151367,-1.1214599609375,0.458251953125,0.3643798828125
7.240,361,3147,834,1608,15.0,29.0,13.0,67.44384765625,13.061522483825684,11.962889671325684,-0.7103271484375,0.5361328125,0.2855224609375
7.243,345,3147,548,1107,15.0,29.0,13.0,49.133296966552734,25.756834030151367,-1.8310545682907104,-0.511962890625,0.5147705078125,0.108642578125
7.251,330,3147,464,765,15.0,29.0,13.0,24.169919967651367,40.0390625,-11.901854515075684,-0.4619140625,0.32763671875,-0.1077880859375
7.268,317,3022,419,336,15.0,29.0,13.0,2.929687261581421,48.461910247802734,-17.76123046875,-0.446044921875,0.0135498046875,-0.2813720703125
7.281,315,2391,357,332,15.0,29.0,13.0,-5.432128429412842,48.400875091552734,-18.9208984375,-0.426513671875,-0.238525390625,-0.3868408203125
7.284,313,1922,323,324,13.0,30.0,12.0,3.784179449081421,43.395992279052734,-13.793944358825684,-0.3673095703125,-0.2188720703125,-0.3623046875
7.305,313,1572,328,328,13.0,30.0,12.0,19.287109375,36.376953125,-6.042479991912842,-0.2559814453125,-0.0765380859375,-0.20947265625
7.307,310,976,344,328,13.0,30.0,12.0,27.648923873901367,30.517576217651367,-3.479003667831421,-0.2545166015625,0.0838623046875,-0.0479736328125
7.312,310,827,317,318,13.0,30.0,12.0,26.306150436401367,28.503416061401367,-6.896972179412842,-0.39111328125,0.246826171875,0.07177734375
7.326,308,739,316,316,13.0,30.0,12.0,18.73779296875,28.015134811401367,-10.437010765075684,-0.4896240234375,0.39599609375,0.212646484375
7.334,308,725,318,318,13.0,30.0,12.0,11.657713890075684,25.451658248901367,-10.375975608825684,-0.4931640625,0.534912109375,0.304443359375
7.389,310,778,318,318,13.0,30.0,12.0,8.85009765625,21.606443405151367,-9.46044921875,-0.51123046875,0.537109375,0.2830810546875
7.390,308,713,318,323,13.0,30.0,12.0,9.3994140625,16.05224609375,-10.070799827575684,-0.5537109375,0.4171142578125,0.245849609375
7.391,310,846,323,323,13.0,30.0,12.0,8.1787109375,5.859374523162842,-10.986327171325684,-0.5318603515625,0.293212890625,0.193603515625
7.391,306,902,336,327,13.0,30.0,12.0,-0.4272460639476776,-4.45556640625,-12.512206077575684,-0.4866943359375,0.2169189453125,0.093017578125
7.391,308,1646,356,328,16.0,30.0,13.0,-14.709471702575684,-8.85009765625,-15.136717796325684,-0.5338134765625,0.1500244140625,-0.0003662109375
7.393,310,1837,426,324,16.0,30.0,13.0,-24.536130905151367,-9.09423828125,-16.2353515625,-0.6812744140625,0.1031494140625,-0.0517578125
7.412,308,2030,445,332,16.0,30.0,13.0,-22.827146530151367,-9.765625,-12.390135765075684,-0.7999267578125,0.133056640625,-0.0677490234375
7.416,316,2467,512,338,16.0,30.0,13.0,-13.488768577575684,-12.390135765075684,-4.57763671875,-0.8231201171875,0.2078857421875,-0.0477294921875
7.423,318,2820,439,336,16.0,30.0,13.0,-5.737304210662842,-16.41845703125,2.38037109375,-0.837646484375,0.23828125,0.0
7.432,319,2981,493,346,16.0,30.0,13.0,-5.737304210662842,-16.41845703125,2.38037109375,-0.9156494140625,0.2017822265625,0.008544921875
7.445,323,3147,574,348,16.0,30.0,13.0,-9.09423828125,-21.484373092651367,6.896972179412842,-0.9888916015625,0.14453125,-0.0338134765625
7.473,324,3147,619,374,16.0,30.0,13.0,-16.41845703125,-20.446775436401367,7.019042491912842,-0.990234375,0.111572265625,-0.07470703125
7.474,328,3147,653,589,16.0,30.0,13.0,-16.41845703125,-20.446775436401367,7.019042491912842,-0.9652099609375,0.1302490234375,-0.0963134765625
7.476,332,3147,682,794,15.0,29.0,8.0,-16.4794921875,-18.61572265625,11.962889671325684,-0.960693359375,0.163330078125,-0.0772705078125
7.485,334,3147,713,1054,15.0,29.0,8.0,-12.207030296325684,-20.568845748901367,20.141599655151367,-0.9700927734375,0.1539306640625,-0.011474609375
7.495,338,3147,711,1182,15.0,29.0,8.0,-10.925292015075684,-24.841306686401367,32.71484375,-0.945068359375,0.0731201171875,0.0892333984375
7.510,343,3147,654,1415,15.0,29.0,8.0,-10.925292015075684,-24.841306686401367,32.71484375,-0.8287353515625,-0.087158203125,0.1904296875
7.514,346,3147,816,1787,15.0,29.0,8.0,-3.234863042831421,-40.527339935302734,59.020992279052734,-0.5899658203125,-0.278076171875,0.2388916015625
7.524,359,3147,890,2114,15.0,29.0,8.0,-3.234863042831421,-40.527339935302734,59.020992279052734,-0.216796875,-0.3348388671875,0.2183837890625
7.530,375,3147,1115,2296,15.0,29.0,8.0,15.747069358825684,-49.194332122802734,59.448238372802734,-0.216796875,-0.3348388671875,0.2183837890625
7.544,415,3147,1478,2668,15.0,29.0,8.0,54.443355560302734,-57.434078216552734,23.681638717651367,0.418701171875,0.33349609375,0.1304931640625
7.553,433,3147,1691,2936,15.0,29.0,8.0,54.443355560302734,-57.434078216552734,23.681638717651367,0.357666015625,1.021728515625,0.2039794921875
7.577,454,3147,1922,3080,15.0,29.0,8.0,55.541988372802734,-55.419918060302734,-12.634276390075684,0.357666015625,1.021728515625,0.2039794921875
7.578,470,3147,2458,3147,14.0,30.0,10.0,-20.507810592651367,-35.94970703125,-79.65087890625,-0.5677490234375,1.9820556640625,0.504638671875
7.582,495,3147,2840,3147,14.0,30.0,10.0,-20.507810592651367,-35.94970703125,-79.65087890625,-1.47607421875,1.384521484375,0.3905029296875
7.590,514,3147,3147,3147,14.0,30.0,10.0,-71.1669921875,-26.000974655151367,-81.23778533935547,-1.47607421875,1.384521484375,0.3905029296875
7.612,521,3147,3064,3147,14.0,30.0,10.0,-106.26219940185547,-15.258788108825684,-56.884761810302734,-3.780517578125,-0.4931640625,-0.04833984375
7.614,523,3147,3017,3147,14.0,30.0,10.0,-106.26219940185547,-15.258788108825684,-56.884761810302734,-3.2490234375,-1.2884521484375,-0.150390625
7.637,519,3147,2981,3147,14.0,30.0,10.0,-75.37841796875,-22.094724655151367,-19.59228515625,-3.2490234375,-1.2884521484375,-0.150390625
7.637,513,3147,2760,3147,14.0,30.0,10.0,97.16796112060547,-24.902341842651367,32.2265625,-0.656005859375,-0.07470703125,0.4659423828125
7.643,513,3147,2723,3147,14.0,30.0,10.0,97.16796112060547,-24.902341842651367,32.2265625,-0.823486328125,1.5628662109375,0.4315185546875
7.651,509,3147,2643,3147,14.0,30.0,10.0,110.53466033935547,1.0986328125,28.808591842651367,-0.823486328125,1.5628662109375,0.4315185546875
7.675,508,3147,2449,3147,14.0,30.0,10.0,-61.157222747802734,61.035152435302734,-14.587401390075684,-1.9532470703125,0.923828125,0.1058349609375
7.688,505,3147,2330,3147,17.0,30.0,10.0,-61.157222747802734,61.035152435302734,-14.587401390075684,-2.19873046875,0.1895751953125,0.1636962890625
7.689,497,3147,2212,3147,17.0,30.0,10.0,-79.833984375,52.917476654052734,-22.399900436401367,-2.19873046875,0.1895751953125,0.1636962890625
7.695,479,3147,1806,3147,17.0,30.0,10.0,16.11328125,14.648436546325684,4.39453125,-1.6903076171875,0.1490478515625,0.3853759765625
7.715,473,3147,1588,3084,17.0,30.0,10.0,16.11328125,14.648436546325684,4.39453125,-1.3424072265625,0.121337890625,0.3681640625
7.716,442,3147,1328,2723,17.0,30.0,10.0,35.64453125,9.33837890625,19.287109375,-1.3424072265625,0.121337890625,0.3681640625
7.731,402,3147,922,2024,17.0,30.0,10.0,26.733396530151367,21.362302780151367,46.508785247802734,-0.6513671875,0.1748046875,0.234130859375
7.735,376,3147,738,1575,17.0,30.0,10.0,26.733396530151367,21.362302780151367,46.508785247802734,-0.4205322265625,0.1868896484375,0.0926513671875
7.741,356,3147,601,986,17.0,30.0,10.0,22.277830123901367,31.249998092651367,49.682613372802734,-0.4205322265625,0.1868896484375,0.0926513671875
7.755,332,3147,465,348,17.0,30.0,10.0,6.225585460662842,50.109859466552734,9.94873046875,-0.3128662109375,-0.0218505859375,-0.1949462890625
7.763,323,2938,414,344,17.0,30.0,10.0,6.225585460662842,50.109859466552734,9.94873046875,-0.4552001953125,0.000244140625,-0.2762451171875
7.783,321,2525,484,342,15.0,31.0,9.0,-5.615233898162842,52.307125091552734,-17.822265625,-0.4552001953125,0.000244140625,-0.2762451171875
7.785,316,1852,406,336,15.0,31.0,9.0,-11.718749046325684,41.015621185302734,-27.526853561401367,-0.524658203125,0.2098388671875,-0.1695556640625
7.797,318,1629,398,332,15.0,31.0,9.0,-11.718749046325684,41.015621185302734,-27.526853561401367,-0.4993896484375,0.25537109375,-0.121826171875
7.802,314,1129,376,330,15.0,31.0,9.0,-5.859374523162842,32.16552734375,-20.080564498901367,-0.4993896484375,0.25537109375,-0.121826171875
7.824,314,858,360,328,15.0,31.0,9.0,7.507323741912842,23.315427780151367,-7.080077648162842,-0.567138671875,0.27099609375,0.0458984375
7.826,313,731,321,318,15.0,31.0,9.0,7.507323741912842,23.315427780151367,-7.080077648162842,-0.5567626953125,0.45361328125,0.19970703125
7.831,310,607,401,327,15.0,31.0,9.0,18.24951171875,19.95849609375,-0.2441406100988388,-0.5567626953125,0.45361328125,0.19970703125
7.846,310,678,404,327,15.0,31.0,9.0,19.10400390625,8.7890625,3.234863042831421,-0.4957275390625,0.4864501953125,0.3409423828125
7.857,310,730,426,324,15.0,31.0,9.0,19.10400390625,8.7890625,3.234863042831421,-0.547607421875,0.334228515625,0.2786865234375
7.861,313,996,430,332,15.0,31.0,9.0,11.779784202575684,3.356933355331421,-4.5166015625,-0.547607421875,0.334228515625,0.2786865234375
7.883,316,1357,374,330,14.0,30.0,9.0,6.286620616912842,-1.6479490995407104,-12.817381858825684,-0.7152099609375,0.177734375,0.0301513671875
7.885,315,1531,364,328,14.0,30.0,9.0,-1.8920897245407104,-4.8828125,-16.6015625,-0.7152099609375,0.177734375,0.0301513671875
7.891,315,1757,401,328,14.0,30.0,9.0,-11.962889671325684,-5.371093273162842,-14.709471702575684,-0.768310546875,0.109375,-0.04248046875
7.925,315,2273,421,336,14.0,30.0,9.0,-15.502928733825684,-5.554198741912842,-7.934569835662842,-0.777099609375,0.0738525390625,-0.0655517578125
7.925,316,2440,446,330,14.0,30.0,9.0,-9.8876953125,-8.23974609375,1.6479490995407104,-0.777099609375,0.0738525390625,-0.0655517578125
7.926,315,2448,426,338,14.0,30.0,9.0,-0.6713866591453552,-13.122557640075684,11.108397483825684,-0.7626953125,0.11376953125,-0.042724609375
7.936,318,2902,493,345,14.0,30.0,9.0,5.737304210662842,-17.822265625,18.49365234375,-0.7867431640625,0.140380859375,-0.0277099609375
7.944,318,3110,513,346,14.0,30.0,9.0,7.019042491912842,-20.935056686401367,24.169919967651367,-0.7867431640625,0.140380859375,-0.0277099609375
7.952,323,3147,525,582,14.0,30.0,9.0,4.33349609375,-23.010251998901367,29.663084030151367,-0.8162841796875,0.117431640625,-0.0196533203125
7.966,330,3147,721,907,11.0,30.0,7.0,-0.7324218153953552,-25.024412155151367,35.21728515625,-0.6177978515625,0.011962890625,-0.1146240234375
7.987,338,3147,695,1201,11.0,30.0,7.0,-0.7324218153953552,-27.770994186401367,38.63525390625,-0.6177978515625,0.011962890625,-0.1146240234375
7.987,349,3147,710,1429,11.0,30.0,7.0,8.60595703125,-32.53173828125,37.04833984375,-0.435302734375,0.0313720703125,-0.142578125
7.995,376,3147,1143,1838,11.0,30.0,7.0,19.4091796875,-39.12353515625,29.663084030151367,0.028564453125,0.222900390625,0.01123046875
8.004,410,3147,1263,2024,11.0,30.0,7.0,25.451658248901367,-44.250484466552734,16.29638671875,0.028564453125,0.222900390625,0.01123046875
8.039,426,3147,1488,2281,11.0,30.0,7.0,24.108884811401367,-45.837398529052734,-4.08935546875,0.0263671875,0.441162109375,0.1436767578125
8.040,447,3147,1819,2810,11.0,30.0,7.0,11.291502952575684,-44.372554779052734,-28.808591842651367,-0.6981201171875,0.7998046875,0.4967041015625
8.042,466,3147,2024,2990,11.0,30.0,7.0,-9.765625,-42.724605560302734,-46.386714935302734,-0.6981201171875,0.7998046875,0.4967041015625
8.042,491,3147,2280,3064,11.0,30.0,7.0,-24.902341842651367,-45.715328216552734,-42.907711029052734,-0.972412109375,0.926513671875,0.8721923828125
8.051,495,3147,2527,3147,11.0,30.0,7.0,-22.888181686401367,-51.879878997802734,-23.986814498901367,-1.0809326171875,0.80859375,1.22509765625
8.064,509,3147,2840,3147,15.0,29.0,14.0,-11.596678733825684,-51.025386810302734,-12.573241233825684,-1.571044921875,0.417236328125,1.0299072265625
8.090,513,3147,2948,3147,15.0,29.0,14.0,-14.587401390075684,-30.395505905151367,-18.5546875,-2.44677734375,0.0841064453125,0.2530517578125
8.090,512,3147,2871,3147,15.0,29.0,14.0,-29.724119186401367,1.2817381620407104,-21.850584030151367,-3.1513671875,0.0421142578125,-0.43359375
8.094,507,3147,2652,3147,15.0,29.0,14.0,-27.099607467651367,20.568845748901367,-3.906249761581421,-3.053466796875,-0.02294921875,-0.76220703125
8.103,509,3147,2622,3147,15.0,29.0,14.0,-1.15966796875,20.202634811401367,16.4794921875,-2.0291748046875,-0.1881103515625,-0.5291748046875
8.111,508,3147,2622,3147,15.0,29.0,14.0,30.273435592651367,10.070799827575684,13.488768577575684,-1.1341552734375,0.1944580078125,0.132080078125
8.140,507,3147,2573,3147,15.0,29.0,14.0,40.527339935302734,9.033203125,-4.8828125,-1.1895751953125,1.0479736328125,0.484375
8.145,502,3147,2489,3147,15.0,29.0,14.0,7.263183116912842,22.216794967651367,-18.12744140625,-1.7303466796875,1.2998046875,0.4429931640625
8.147,500,3147,2364,3147,15.0,29.0,14.0,-43.151851654052734,34.24072265625,-19.775390625,-2.09765625,0.7406005859375,0.340087890625
8.154,496,3147,2007,3147,15.0,29.0,14.0,-53.161617279052734,33.0810546875,-9.8876953125,-2.0672607421875,0.135986328125,0.322021484375
8.162,487,3147,1837,3008,18.0,30.0,12.0,-11.657713890075684,23.376462936401367,6.530761241912842,-1.7919921875,0.0289306640625,0.333984375
8.171,479,3147,1616,2677,18.0,30.0,12.0,36.19384765625,16.9677734375,20.01953125,-1.4498291015625,0.2149658203125,0.283935546875
8.193,439,3147,1051,1927,18.0,30.0,12.0,51.330562591552734,18.00537109375,26.550291061401367,-1.110595703125,0.3489990234375,0.224365234375
8.194,411,3147,848,1463,18.0,30.0,12.0,38.57421875,23.254392623901367,29.235837936401367,-0.8179931640625,0.334228515625,0.1453857421875
8.200,378,3147,605,978,18.0,30.0,12.0,20.690916061401367,30.090330123901367,27.526853561401367,-0.59716796875,0.1925048828125,0.013916015625
8.222,348,3147,454,362,18.0,30.0,12.0,8.97216796875,37.109375,16.9677734375,-0.4227294921875,-0.04345703125,-0.11669921875
8.228,330,2749,389,344,18.0,30.0,12.0,3.662109136581421,41.503902435302734,-1.4648436307907104,-0.330322265625,-0.239013671875,-0.2220458984375
8.230,321,2333,401,336,18.0,30.0,12.0,6.164550304412842,42.053218841552734,-17.63916015625,-0.3466796875,-0.145751953125,-0.262451171875
8.250,315,1855,413,330,18.0,30.0,12.0,14.282225608825684,39.48974609375,-22.888181686401367,-0.32958984375,0.121337890625,-0.1680908203125
8.253,315,1409,423,334,18.0,30.0,12.0,17.88330078125,34.3017578125,-21.728513717651367,-0.286865234375,0.30615234375,-0.042236328125
8.260,315,949,423,336,14.0,30.0,7.0,10.253905296325684,29.968259811401367,-21.545408248901367,-0.3817138671875,0.3616943359375,-0.021484375
8.274,313,697,362,324,14.0,30.0,7.0,-4.2724609375,28.686521530151367,-21.301267623901367,-0.5347900390625,0.3009033203125,-0.0279541015625
8.287,312,707,323,323,14.0,30.0,7.0,-12.573241233825684,26.733396530151367,-16.41845703125,-0.6177978515625,0.2847900390625,0.0472412109375
8.294,310,667,398,328,14.0,30.0,7.0,-6.713866710662842,21.240232467651367,-6.591796398162842,-0.6240234375,0.368896484375,0.154541015625
8.307,308,509,330,323,14.0,30.0,7.0,4.2724609375,14.587401390075684,2.197265625,-0.5909423828125,0.3795166015625,0.1849365234375
8.312,310,506,361,327,14.0,30.0,7.0,12.817381858825684,10.620116233825684,4.5166015625,-0.5875244140625,0.310302734375,0.181396484375
8.329,308,490,373,328,14.0,30.0,7.0,18.4326171875,6.347655773162842,1.6479490995407104,-0.609619140625,0.2747802734375,0.2080078125
8.335,313,799,420,324,14.0,30.0,7.0,15.808104515075684,-1.03759765625,-2.746581792831421,-0.59912109375,0.274169921875,0.1962890625
8.346,315,1003,356,330,14.0,30.0,7.0,3.662109136581421,-6.713866710662842,-7.080077648162842,-0.5853271484375,0.260498046875,0.1273193359375
8.350,314,1312,371,332,14.0,30.0,7.0,-10.253905296325684,-7.934569835662842,-9.82666015625,-0.6378173828125,0.2039794921875,0.0433349609375
8.365,315,1662,378,327,15.0,32.0,11.0,-16.90673828125,-7.568358898162842,-8.48388671875,-0.7374267578125,0.130615234375,-0.0306396484375
8.373,316,2001,361,338,15.0,32.0,11.0,-14.465331077575684,-8.48388671875,-2.3193359375,-0.804443359375,0.0943603515625,-0.07177734375
8.395,321,2166,363,338,15.0,32.0,11.0,-7.568358898162842,-11.230467796325684,6.286620616912842,-0.8240966796875,0.0958251953125,-0.0633544921875
8.395,321,2477,513,345,15.0,32.0,11.0,-0.7934569716453552,-15.075682640075684,14.343260765075684,-0.8436279296875,0.1063232421875,-0.04345703125
8.403,327,2785,543,348,15.0,32.0,11.0,3.417968511581421,-18.24951171875,20.141599655151367,-0.891845703125,0.1427001953125,-0.060546875
8.410,327,2863,629,349,15.0,32.0,11.0,3.112792730331421,-19.22607421875,24.169919967651367,-0.942626953125,0.1903076171875,-0.09033203125
8.430,332,3147,669,378,15.0,32.0,11.0,-2.746581792831421,-18.61572265625,27.893064498901367,-0.9349365234375,0.19140625,-0.0826416015625
8.434,337,3147,683,617,15.0,32.0,11.0,-9.94873046875,-17.02880859375,32.77587890625,-0.84814453125,0.14208984375,-0.0499267578125
8.441,347,3147,754,932,15.0,32.0,11.0,-9.94873046875,-17.02880859375,32.77587890625,-0.7147216796875,0.06103515625,-0.0130615234375
8.454,363,3147,1011,1331,13.0,28.0,13.0,-3.173827886581421,-19.287109375,42.663570404052734,-0.558837890625,-0.0169677734375,0.0391845703125
8.463,373,3147,1103,1666,13.0,28.0,13.0,12.817381858825684,-27.343748092651367,40.588375091552734,-0.324462890625,-0.0478515625,0.093017578125
8.473,400,3147,1306,2001,13.0,28.0,13.0,12.817381858825684,-27.343748092651367,40.588375091552734,0.01513671875,0.006591796875,0.129150390625
8.498,426,3147,1518,2468,13.0,28.0,13.0,31.616209030151367,-42.724605560302734,13.793944358825684,0.3233642578125,0.1375732421875,0.13623046875
8.498,439,3147,1676,2953,13.0,28.0,13.0,22.460935592651367,-43.395992279052734,-10.131834983825684,0.3970947265625,0.364013671875,0.159423828125
8.501,456,3147,1918,3147,13.0,28.0,13.0,22.460935592651367,-43.395992279052734,-10.131834983825684,-0.034423828125,0.8350830078125,0.2994384765625
8.514,470,3147,2240,3147,13.0,28.0,13.0,-14.221190452575684,-37.7197265625,-41.076656341552734,-0.7039794921875,1.46875,0.5567626953125
8.532,487,3147,2460,3147,13.0,28.0,13.0,-31.921384811401367,-39.55078125,-33.5693359375,-1.1431884765625,1.6123046875,0.8909912109375
8.535,513,3147,2833,3147,13.0,28.0,13.0,-31.921384811401367,-39.55078125,-33.5693359375,-1.8363037109375,0.95849609375,0.8875732421875
8.547,521,3147,3023,3147,13.0,28.0,13.0,-65.00244140625,-26.855466842651367,-36.68212890625,-2.9598388671875,0.126220703125,0.4049072265625
8.560,513,3147,2757,3147,16.0,29.0,9.0,-73.42529296875,-2.685546636581421,-32.5927734375,-3.763427734375,-0.438232421875,-0.1619873046875
8.561,504,3147,2601,3147,16.0,29.0,9.0,-73.42529296875,-2.685546636581421,-32.5927734375,-3.169189453125,-0.964599609375,-0.498779296875
8.576,499,3147,2361,3147,16.0,29.0,9.0,13.427733421325684,17.9443359375,31.005857467651367,-1.7330322265625,-0.9423828125,-0.31591796875
8.604,497,3147,2299,3147,16.0,29.0,9.0,73.91357421875,15.075682640075684,42.785640716552734,-1.19580078125,0.18017578125,0.01318359375
8.604,497,3147,2233,3147,16.0,29.0,9.0,73.91357421875,15.075682640075684,42.785640716552734,-1.560791015625,1.23046875,0.0889892578125
8.605,466,3147,2039,3147,16.0,29.0,9.0,24.841306686401367,31.005857467651367,29.479978561401367,-1.9893798828125,1.289794921875,0.1273193359375
8.614,487,3147,1931,3147,16.0,29.0,9.0,-19.8974609375,35.15625,27.038572311401367,-2.06689453125,0.826416015625,0.23779296875
8.622,482,3147,1741,3147,16.0,29.0,9.0,-19.8974609375,35.15625,27.038572311401367,-1.791748046875,0.484375,0.365478515625
8.637,465,3147,1434,3147,16.0,29.0,9.0,28.869626998901367,15.869139671325684,44.921871185302734,-1.3662109375,0.459228515625,0.394775390625
