time,compression0,compression1,compression2,compression3,magn_x,magn_y,magn_z,gyro_x,gyro_y,gyro_z,accel_x,accel_y,accel_z
0.363,317,468,432,361,-2.0,35.0,16.0,-2.25830078125,-6.225585460662842,-11.535643577575684,-0.8494873046875,0.4774169921875,-0.1932373046875
0.367,318,472,428,347,-2.0,35.0,16.0,-2.563476324081421,-6.103515148162842,-11.047362327575684,-0.851806640625,0.4716796875,-0.1851806640625
0.367,316,468,424,333,-2.0,35.0,16.0,-2.624511480331421,-6.103515148162842,-10.681151390075684,-0.8529052734375,0.4652099609375,-0.1788330078125
0.367,315,467,430,330,-2.0,35.0,16.0,-2.50244140625,-6.286620616912842,-10.314940452575684,-0.851806640625,0.4610595703125,-0.1763916015625
0.369,316,512,437,336,-2.0,35.0,16.0,-2.44140625,-6.286620616912842,-10.009765625,-0.8515625,0.460693359375,-0.17626953125
0.369,318,519,438,330,-2.0,35.0,16.0,-2.563476324081421,-6.103515148162842,-9.765625,-0.8536376953125,0.4608154296875,-0.1763916015625
0.369,316,499,437,328,0.0,32.0,16.0,-2.929687261581421,-5.981444835662842,-9.3994140625,-0.8564453125,0.4603271484375,-0.176513671875
0.369,317,532,427,330,0.0,32.0,16.0,-3.234863042831421,-5.920409679412842,-9.033203125,-0.8572998046875,0.4595947265625,-0.1748046875
0.370,318,506,432,336,0.0,32.0,16.0,-3.356933355331421,-5.920409679412842,-8.60595703125,-0.8555908203125,0.4554443359375,-0.1705322265625
0.370,316,527,424,332,0.0,32.0,16.0,-3.417968511581421,-5.920409679412842,-8.30078125,-0.851806640625,0.4482421875,-0.16650390625
0.370,316,524,436,338,0.0,32.0,16.0,-3.173827886581421,-5.920409679412842,-7.934569835662842,-0.8485107421875,0.4423828125,-0.1646728515625
0.370,315,481,445,369,0.0,32.0,16.0,-2.624511480331421,-5.920409679412842,-7.507323741912842,-0.8468017578125,0.43994140625,-0.1629638671875
0.370,318,537,442,332,0.0,32.0,16.0,-1.7700194120407104,-5.920409679412842,-6.896972179412842,-0.8468017578125,0.4415283203125,-0.15966796875
0.370,318,533,440,328,0.0,32.0,16.0,-1.15966796875,-5.920409679412842,-6.286620616912842,-0.848876953125,0.44580078125,-0.1572265625
0.370,317,541,454,334,0.0,32.0,16.0,-1.03759765625,-5.920409679412842,-5.798339366912842,-0.8516845703125,0.44775390625,-0.1566162109375
0.371,310,527,442,346,0.0,32.0,16.0,-1.0986328125,-5.981444835662842,-5.493163585662842,-0.8541259765625,0.447021484375,-0.1572265625
0.371,316,578,437,332,-5.0,34.0,13.0,-1.3427733182907104,-6.042479991912842,-5.432128429412842,-0.85595703125,0.4461669921875,-0.1590576171875
0.371,317,555,447,332,-5.0,34.0,13.0,-1.6479490995407104,-6.225585460662842,-5.310058116912842,-0.858154296875,0.447021484375,-0.1619873046875
0.371,318,561,455,332,-5.0,34.0,13.0,-2.13623046875,-6.347655773162842,-5.126952648162842,-0.8587646484375,0.448974609375,-0.1644287109375
0.371,316,551,438,330,-5.0,34.0,13.0,-3.112792730331421,-6.469726085662842,-4.8828125,-0.8570556640625,0.45166015625,-0.166748046875
0.371,318,562,442,332,-5.0,34.0,13.0,-4.5166015625,-6.530761241912842,-4.5166015625,-0.856201171875,0.4544677734375,-0.168212890625
0.371,319,551,456,330,-5.0,34.0,13.0,-6.408690929412842,-6.652831554412842,-4.150390625,-0.8564453125,0.4505615234375,-0.1668701171875
0.371,323,568,482,330,-5.0,34.0,13.0,-8.30078125,-6.896972179412842,-3.784179449081421,-0.8582763671875,0.4365234375,-0.1627197265625
0.371,327,567,490,330,-5.0,34.0,13.0,-9.521484375,-7.202147960662842,-3.295898199081421,-0.86181640625,0.42431640625,-0.1568603515625
0.371,324,561,484,328,-5.0,34.0,13.0,-9.82666015625,-7.690429210662842,-2.50244140625,-0.8621826171875,0.4300537109375,-0.1519775390625
0.371,326,564,497,330,0.0,33.0,16.0,-9.3994140625,-8.36181640625,-1.220703125,-0.8582763671875,0.440185546875,-0.146728515625
0.371,327,547,512,330,0.0,33.0,16.0,-8.1787109375,-9.33837890625,0.1220703050494194,-0.8524169921875,0.4395751953125,-0.139404296875
0.372,328,590,523,330,0.0,33.0,16.0,-6.896972179412842,-10.375975608825684,1.15966796875,-0.845947265625,0.4307861328125,-0.1353759765625
0.372,328,607,523,328,0.0,33.0,16.0,-6.103515148162842,-11.413573265075684,1.5869139432907104,-0.8402099609375,0.417236328125,-0.1329345703125
0.372,330,553,527,328,0.0,33.0,16.0,-5.920409679412842,-12.329100608825684,1.3427733182907104,-0.8363037109375,0.404541015625,-0.1273193359375
0.372,330,508,543,330,0.0,33.0,16.0,-5.920409679412842,-13.061522483825684,0.6713866591453552,-0.8319091796875,0.39501953125,-0.1243896484375
0.372,334,566,546,334,0.0,33.0,16.0,-5.920409679412842,-13.549803733825684,0.0,-0.8245849609375,0.39208984375,-0.123779296875
0.372,348,575,551,334,0.0,33.0,16.0,-5.859374523162842,-13.793944358825684,-0.30517578125,-0.817138671875,0.400634765625,-0.1168212890625
0.372,361,607,532,332,0.0,33.0,16.0,-6.530761241912842,-13.793944358825684,-0.0610351525247097,-0.8123779296875,0.413818359375,-0.1064453125
0.372,347,648,605,338,0.0,33.0,16.0,-8.4228515625,-13.488768577575684,0.6713866591453552,-0.8104248046875,0.4166259765625,-0.097412109375
0.372,354,653,614,334,0.0,35.0,14.0,-10.925292015075684,-13.000487327575684,1.5869139432907104,-0.812744140625,0.411865234375,-0.0970458984375
0.372,334,656,644,338,0.0,35.0,14.0,-12.878417015075684,-12.390135765075684,2.624511480331421,-0.8175048828125,0.41748046875,-0.1036376953125
0.372,324,687,666,336,0.0,35.0,14.0,-13.427733421325684,-11.962889671325684,3.845214605331421,-0.8236083984375,0.4337158203125,-0.10400390625
0.372,321,765,675,338,0.0,35.0,14.0,-12.878417015075684,-12.023924827575684,5.432128429412842,-0.835693359375,0.447998046875,-0.098876953125
0.372,323,841,683,347,0.0,35.0,14.0,-11.657713890075684,-12.451170921325684,7.568358898162842,-0.8507080078125,0.460205078125,-0.09716796875
0.372,323,984,694,348,0.0,35.0,14.0,-10.620116233825684,-12.512206077575684,10.375975608825684,-0.86474609375,0.47216796875,-0.1043701171875
0.373,323,1057,724,354,0.0,35.0,14.0,-10.742186546325684,-11.901854515075684,13.732909202575684,-0.8807373046875,0.474853515625,-0.1143798828125
0.373,327,1156,746,346,0.0,35.0,14.0,-11.779784202575684,-11.047362327575684,17.4560546875,-0.8876953125,0.46142578125,-0.11572265625
0.373,328,1242,766,355,0.0,35.0,14.0,-12.634276390075684,-10.314940452575684,21.118162155151367,-0.88037109375,0.4432373046875,-0.1090087890625
0.373,330,1351,785,363,0.0,35.0,14.0,-12.451170921325684,-9.8876953125,24.108884811401367,-0.8662109375,0.427978515625,-0.0968017578125
0.373,330,1453,799,393,1.0,35.0,15.0,-11.108397483825684,-9.8876953125,26.000974655151367,-0.8323974609375,0.4071044921875,-0.0831298828125
0.373,328,774,891,661,1.0,35.0,15.0,-10.009765625,-9.82666015625,26.611326217651367,-0.7679443359375,0.3963623046875,-0.0677490234375
0.378,333,1989,865,391,1.0,35.0,15.0,-10.375975608825684,-9.33837890625,25.756834030151367,-0.675048828125,0.3980712890625,-0.0572509765625
0.382,334,2247,872,430,1.0,35.0,15.0,-10.375975608825684,-9.33837890625,25.756834030151367,-0.5504150390625,0.388427734375,-0.067626953125
0.414,333,2936,951,465,1.0,35.0,15.0,-8.7890625,-10.375975608825684,15.686034202575684,-0.3974609375,0.359619140625,-0.070068359375
0.416,361,3147,1191,579,1.0,35.0,15.0,-2.01416015625,-15.319823265075684,2.746581792831421,-0.224853515625,0.316162109375,-0.0440673828125
0.417,411,3147,1422,1011,1.0,35.0,15.0,-2.01416015625,-15.319823265075684,2.746581792831421,-0.07763671875,0.3729248046875,0.009765625
0.426,402,3147,1785,1664,1.0,35.0,15.0,11.230467796325684,-33.935546875,-40.10009765625,-0.0360107421875,0.5977783203125,0.098876953125
0.434,1954,3147,323,424,1.0,35.0,15.0,5.0048828125,-44.311519622802734,-59.570308685302734,-0.0811767578125,0.7110595703125,0.1258544921875
0.442,373,3147,2188,2102,1.0,35.0,15.0,5.0048828125,-44.311519622802734,-59.570308685302734,-0.2032470703125,0.576904296875,0.060302734375
0.469,383,3147,2384,2386,2.0,35.0,21.0,-22.338865280151367,-51.391597747802734,-80.078125,-0.5311279296875,0.5714111328125,0.0064697265625
0.469,371,3147,2516,2497,2.0,35.0,21.0,-23.864744186401367,-48.828121185302734,-73.42529296875,-1.0494384765625,0.8641357421875,-0.0108642578125
0.472,375,3147,2612,2601,2.0,35.0,21.0,-23.864744186401367,-48.828121185302734,-73.42529296875,-1.5745849609375,1.09326171875,-0.061279296875
0.493,390,3147,2744,2801,2.0,35.0,21.0,-43.212886810302734,-29.724119186401367,-35.33935546875,-2.11865234375,0.8623046875,-0.1419677734375
0.495,393,3147,2769,2876,2.0,35.0,21.0,-56.152339935302734,-14.160155296325684,-13.305663108825684,-2.683349609375,0.2655029296875,-0.150634765625
0.511,388,3147,2754,2921,2.0,35.0,21.0,-56.152339935302734,-14.160155296325684,-13.305663108825684,-2.7261962890625,-0.3955078125,-0.0838623046875
0.521,389,3147,2715,2867,2.0,35.0,21.0,-32.2265625,9.58251953125,20.935056686401367,-1.9246826171875,-0.6873779296875,-0.0673828125
0.525,390,3147,2734,2898,2.0,35.0,21.0,13.183592796325684,16.6015625,25.268552780151367,-1.0169677734375,-0.017822265625,-0.0865478515625
0.532,390,3147,2748,2904,2.0,35.0,21.0,13.183592796325684,16.6015625,25.268552780151367,-0.7923583984375,1.141845703125,-0.0645751953125
0.554,390,3147,2684,2850,2.0,32.0,17.0,33.75244140625,15.808104515075684,13.488768577575684,-1.123291015625,1.5843505859375,-0.0855712890625
0.606,389,3147,2610,2795,2.0,32.0,17.0,-7.995604991912842,19.47021484375,2.807616949081421,-1.4639892578125,1.165283203125,-0.116455078125
0.606,387,3147,2507,2710,2.0,32.0,17.0,-7.995604991912842,19.47021484375,2.807616949081421,-1.5809326171875,0.6385498046875,-0.06982421875
0.606,383,3147,2317,2424,2.0,32.0,17.0,-22.888181686401367,21.057126998901367,-1.03759765625,-1.5234375,0.432373046875,-0.018310546875
0.606,378,3147,2183,2190,2.0,32.0,17.0,0.1831054538488388,16.7236328125,1.6479490995407104,-1.3660888671875,0.4464111328125,-0.0072021484375
0.606,378,3147,1987,1954,2.0,32.0,17.0,0.1831054538488388,16.7236328125,1.6479490995407104,-1.3660888671875,0.4464111328125,-0.0072021484375
0.612,371,3147,1653,1359,2.0,32.0,17.0,22.216794967651367,7.141112804412842,0.6103515625,-0.936279296875,0.394775390625,-0.085205078125
0.614,364,3147,1487,900,2.0,32.0,17.0,22.216794967651367,7.141112804412842,0.6103515625,-0.738037109375,0.2850341796875,-0.20849609375
0.630,401,3147,1330,472,2.0,32.0,17.0,23.193357467651367,7.141112804412842,-5.187987804412842,-0.738037109375,0.2850341796875,-0.20849609375
0.639,382,2469,1182,400,2.0,32.0,17.0,22.644041061401367,18.5546875,-20.446775436401367,-0.4669189453125,0.3828125,-0.4324951171875
0.644,376,1846,1067,383,3.0,34.0,16.0,22.644041061401367,18.5546875,-20.446775436401367,-0.4241943359375,0.4915771484375,-0.313720703125
0.652,402,1492,555,308,3.0,34.0,16.0,15.441893577575684,20.446775436401367,-26.489255905151367,-0.4241943359375,0.4915771484375,-0.313720703125
0.684,966,1116,363,315,3.0,34.0,16.0,-14.770506858825684,15.014647483825684,-40.0390625,-0.6181640625,0.35205078125,-0.0911865234375
0.685,334,958,653,315,3.0,34.0,16.0,-14.770506858825684,15.014647483825684,-40.0390625,-0.706787109375,0.285400390625,-0.0548095703125
0.686,447,883,702,318,3.0,34.0,16.0,-24.658201217651367,15.380858421325684,-43.212886810302734,-0.706787109375,0.285400390625,-0.0548095703125
0.697,404,689,590,327,3.0,34.0,16.0,-14.038084983825684,11.657713890075684,-30.212400436401367,-0.762939453125,0.39599609375,0.0279541015625
0.722,679,481,310,306,3.0,34.0,16.0,-14.038084983825684,11.657713890075684,-30.212400436401367,-0.7374267578125,0.3675537109375,0.0560302734375
0.723,364,512,586,323,3.0,34.0,16.0,-8.60595703125,7.995604991912842,-22.888181686401367,-0.7374267578125,0.3675537109375,0.0560302734375
0.737,346,553,456,323,3.0,34.0,16.0,-4.33349609375,1.7700194120407104,-22.827146530151367,-0.69775390625,0.177001953125,0.12939453125
0.738,328,606,373,321,3.0,34.0,16.0,-4.33349609375,1.7700194120407104,-22.827146530151367,-0.715087890625,0.2025146484375,0.15966796875
0.742,371,697,313,309,-1.0,32.0,13.0,4.57763671875,-0.9155272841453552,-24.414060592651367,-0.715087890625,0.2025146484375,0.15966796875
0.756,323,646,355,323,-1.0,32.0,13.0,28.625486373901367,-5.126952648162842,-19.22607421875,-0.71630859375,0.443359375,0.10986328125
0.778,318,679,345,324,-1.0,32.0,13.0,28.625486373901367,-5.126952648162842,-19.22607421875,-0.7161865234375,0.4892578125,0.0787353515625
0.778,330,707,382,327,-1.0,32.0,13.0,29.113767623901367,-6.530761241912842,-16.41845703125,-0.7161865234375,0.4892578125,0.0787353515625
0.786,328,765,411,324,-1.0,32.0,13.0,11.535643577575684,-8.4228515625,-14.404295921325684,-0.752197265625,0.3504638671875,-0.0130615234375
0.794,336,713,484,328,-1.0,32.0,13.0,11.535643577575684,-8.4228515625,-14.404295921325684,-0.776611328125,0.2901611328125,-0.0352783203125
0.803,347,713,548,327,-1.0,32.0,13.0,6.164550304412842,-8.7890625,-13.916014671325684,-0.776611328125,0.2901611328125,-0.0352783203125
0.818,360,815,642,326,-1.0,32.0,13.0,5.493163585662842,-9.58251953125,-12.817381858825684,-0.794921875,0.2735595703125,-0.0498046875
0.839,363,1081,673,331,-1.0,32.0,13.0,6.713866710662842,-10.375975608825684,-11.230467796325684,-0.798583984375,0.302734375,-0.0557861328125
0.843,355,1014,654,316,-1.0,32.0,13.0,6.225585460662842,-10.131834983825684,-9.46044921875,-0.798583984375,0.302734375,-0.0557861328125
0.843,385,1189,683,351,3.0,32.0,19.0,2.197265625,-9.27734375,-7.690429210662842,-0.805908203125,0.318115234375,-0.0531005859375
0.855,323,1592,790,388,3.0,32.0,19.0,-3.540038824081421,-8.6669921875,-5.432128429412842,-0.7698974609375,0.248779296875,-0.0474853515625
0.880,321,1869,794,414,3.0,32.0,19.0,-7.629394054412842,-8.72802734375,-2.685546636581421,-0.7698974609375,0.248779296875,-0.0474853515625
0.880,333,2271,794,404,3.0,32.0,19.0,-8.97216796875,-9.46044921875,0.54931640625,-0.7149658203125,0.216552734375,-0.05078125
0.885,328,2949,883,411,3.0,32.0,19.0,-8.1787109375,-10.803221702575684,3.906249761581421,-0.59033203125,0.216064453125,-0.0404052734375
0.893,344,3147,949,689,3.0,32.0,19.0,-6.347655773162842,-12.573241233825684,6.835937023162842,-0.59033203125,0.216064453125,-0.0404052734375
0.901,464,3147,1009,1095,3.0,32.0,19.0,-5.0048828125,-14.953612327575684,8.30078125,-0.5096435546875,0.208740234375,-0.0372314453125
0.918,348,3147,1396,1796,3.0,32.0,19.0,-5.493163585662842,-18.310546875,7.080077648162842,-0.411376953125,0.248779296875,0.03125
0.923,348,3147,1582,2100,3.0,32.0,19.0,-9.21630859375,-23.376462936401367,3.051757574081421,-0.411376953125,0.248779296875,0.03125
0.932,344,3147,1795,2293,3.0,32.0,19.0,-16.845703125,-30.395505905151367,-5.187987804412842,-0.361572265625,0.234375,0.0828857421875
0.950,371,3147,2054,2492,6.0,32.0,19.0,-22.521970748901367,-37.109375,-18.61572265625,-0.33056640625,0.2374267578125,0.149169921875
0.956,361,3147,2221,2702,6.0,32.0,19.0,-19.83642578125,-41.870113372802734,-32.28759765625,-0.414794921875,0.3822021484375,0.2421875
0.961,363,3147,2308,2820,6.0,32.0,19.0,-13.061522483825684,-43.090816497802734,-39.97802734375,-0.6123046875,0.6182861328125,0.2796630859375
0.984,364,3147,2453,3090,6.0,32.0,19.0,-10.925292015075684,-38.330078125,-39.61181640625,-0.9696044921875,0.9141845703125,0.180908203125
0.984,371,3147,2505,3147,6.0,32.0,19.0,-14.282225608825684,-27.465818405151367,-29.052732467651367,-1.477783203125,1.1171875,-0.092529296875
0.991,373,3147,2578,3147,6.0,32.0,19.0,-20.874021530151367,-14.648436546325684,-11.596678733825684,-1.8953857421875,0.8868408203125,-0.332763671875
1.005,373,3147,2673,3147,6.0,32.0,19.0,-26.428220748901367,-7.141112804412842,-0.4882812201976776,-2.2015380859375,0.3758544921875,-0.3436279296875
1.021,371,3147,2624,3147,6.0,32.0,19.0,-25.146482467651367,-6.774901866912842,0.1220703050494194,-2.439208984375,-0.013671875,-0.2218017578125
1.022,374,3147,2534,3147,6.0,32.0,19.0,-17.822265625,-7.507323741912842,-0.2441406100988388,-2.2696533203125,-0.2296142578125,-0.17333984375
1.035,373,3147,2538,3147,7.0,29.0,16.0,-1.8310545682907104,-2.3193359375,1.4648436307907104,-1.603515625,-0.1651611328125,-0.1903076171875
1.046,375,3147,2554,3147,7.0,29.0,16.0,18.24951171875,7.080077648162842,1.5258787870407104,-1.068115234375,0.363525390625,-0.0916748046875
1.054,375,3147,2526,3130,7.0,29.0,16.0,20.263669967651367,13.732909202575684,0.54931640625,-1.1851806640625,0.951904296875,0.1258544921875
1.143,371,3147,2437,2909,7.0,29.0,16.0,-6.103515148162842,18.06640625,1.15966796875,-1.62939453125,0.9495849609375,0.2315673828125
1.155,371,3147,2359,2756,7.0,29.0,16.0,-35.2783203125,23.681638717651367,5.310058116912842,-1.8648681640625,0.483642578125,0.15625
1.155,371,3147,2223,2529,7.0,29.0,16.0,-35.5224609375,28.198240280151367,14.526366233825684,-1.79345703125,0.1778564453125,0.0623779296875
1.155,360,3147,1985,2058,7.0,29.0,16.0,-10.253905296325684,27.709959030151367,25.573728561401367,-1.5162353515625,0.25,-0.0137939453125
1.155,359,3147,1854,1757,7.0,29.0,16.0,14.282225608825684,22.705076217651367,30.212400436401367,-1.144775390625,0.45068359375,-0.09033203125
1.155,354,3147,1627,1310,7.0,29.0,16.0,24.108884811401367,16.6015625,23.132322311401367,-0.8310546875,0.513916015625,-0.1583251953125
1.155,344,3147,1348,398,7.0,29.0,16.0,24.047849655151367,13.916014671325684,7.995604991912842,-0.6429443359375,0.43310546875,-0.2476806640625
1.155,346,2645,1251,361,7.0,32.0,16.0,22.033689498901367,16.6015625,-7.751464366912842,-0.528076171875,0.3489990234375,-0.371826171875
1.155,334,2070,1122,384,7.0,32.0,16.0,19.6533203125,22.155759811401367,-19.71435546875,-0.4525146484375,0.3798828125,-0.4498291015625
1.155,327,1115,960,354,7.0,32.0,16.0,12.512206077575684,25.268552780151367,-26.245115280151367,-0.460693359375,0.48193359375,-0.37548828125
1.232,323,942,910,345,7.0,32.0,16.0,-3.234863042831421,21.789548873901367,-29.296873092651367,-0.516845703125,0.410400390625,-0.181884765625
1.238,316,778,841,344,7.0,32.0,16.0,-23.132322311401367,15.747069358825684,-32.16552734375,-0.5714111328125,0.1737060546875,-0.0145263671875
1.238,299,579,703,331,7.0,32.0,16.0,-32.71484375,12.939452171325684,-32.28759765625,-0.64111328125,0.05029296875,0.0780029296875
1.238,310,562,644,330,7.0,32.0,16.0,-25.146482467651367,12.268065452575684,-25.695798873901367,-0.684326171875,0.110595703125,0.12890625
1.238,308,582,607,328,7.0,32.0,16.0,-9.1552734375,10.498045921325684,-14.587401390075684,-0.6650390625,0.2197265625,0.1695556640625
1.238,313,695,516,328,7.0,32.0,16.0,2.13623046875,6.896972179412842,-6.164550304412842,-0.6138916015625,0.25537109375,0.2132568359375
1.238,309,732,509,327,7.0,32.0,16.0,3.784179449081421,2.25830078125,-4.0283203125,-0.5777587890625,0.225830078125,0.2608642578125
1.243,308,761,548,328,7.0,30.0,14.0,2.197265625,-2.13623046875,-5.065917491912842,-0.56787109375,0.2144775390625,0.2816162109375
1.245,313,754,636,328,7.0,30.0,14.0,3.601073980331421,-5.0048828125,-5.065917491912842,-0.56982421875,0.2591552734375,0.2520751953125
1.253,313,739,683,328,7.0,30.0,14.0,5.554198741912842,-6.042479991912842,-3.479003667831421,-0.5797119140625,0.2840576171875,0.1907958984375
1.289,315,766,697,324,7.0,30.0,14.0,4.45556640625,-6.225585460662842,-2.0751953125,-0.604736328125,0.2384033203125,0.111083984375
1.290,315,1085,738,334,7.0,30.0,14.0,0.8544921278953552,-7.019042491912842,-1.15966796875,-0.6412353515625,0.16943359375,0.03759765625
1.290,300,1292,754,347,7.0,30.0,14.0,-1.4648436307907104,-9.3994140625,0.4272460639476776,-0.6766357421875,0.132568359375,-0.0118408203125
1.291,304,1790,799,337,7.0,30.0,14.0,-0.4882812201976776,-12.390135765075684,3.845214605331421,-0.70263671875,0.1484375,-0.0482177734375
1.305,323,2409,871,360,7.0,30.0,14.0,2.38037109375,-14.282225608825684,9.21630859375,-0.7205810546875,0.208251953125,-0.076171875
1.313,322,2997,919,363,7.0,30.0,14.0,4.8828125,-15.380858421325684,15.136717796325684,-0.72021484375,0.2813720703125,-0.0902099609375
1.330,328,3147,943,481,7.0,30.0,14.0,5.187987804412842,-18.00537109375,19.1650390625,-0.6773681640625,0.314208984375,-0.078857421875
1.336,328,3147,1120,1204,8.0,31.0,14.0,3.173827886581421,-23.376462936401367,18.61572265625,-0.61767578125,0.3209228515625,-0.0400390625
1.343,327,3147,1243,1545,8.0,31.0,14.0,0.4272460639476776,-30.151365280151367,13.916014671325684,-0.6064453125,0.3472900390625,0.010009765625
1.351,332,3147,1359,1897,8.0,31.0,14.0,-2.990722417831421,-36.56005859375,6.958007335662842,-0.6131591796875,0.3248291015625,0.03515625
1.365,344,3147,1611,2247,8.0,31.0,14.0,-9.521484375,-41.015621185302734,-3.234863042831421,-0.5269775390625,0.228759765625,0.036865234375
1.373,348,3147,1770,2504,8.0,31.0,14.0,-16.6015625,-43.395992279052734,-16.2353515625,-0.3895263671875,0.1783447265625,0.0927734375
1.394,352,3147,1900,2599,8.0,31.0,14.0,-18.49365234375,-45.471187591552734,-27.526853561401367,-0.355712890625,0.2442626953125,0.180908203125
1.395,363,3147,2130,2820,8.0,31.0,14.0,-16.11328125,-45.837398529052734,-32.958984375,-0.4703369140625,0.4078369140625,0.2088623046875
1.403,364,3147,2280,3063,8.0,31.0,14.0,-13.488768577575684,-42.663570404052734,-30.944822311401367,-0.75439453125,0.65234375,0.1705322265625
1.412,376,3147,2348,3147,8.0,31.0,14.0,-13.488768577575684,-42.663570404052734,-30.944822311401367,-1.2239990234375,0.861083984375,0.020263671875
1.431,382,3147,2480,3147,6.0,35.0,17.0,-14.892577171325684,-25.512693405151367,-6.958007335662842,-1.780029296875,0.775634765625,-0.1295166015625
1.433,383,3147,2516,3147,6.0,35.0,17.0,-18.85986328125,-15.563963890075684,4.5166015625,-2.23388671875,0.3631591796875,-0.1361083984375
1.441,381,3147,2541,3147,6.0,35.0,17.0,-18.85986328125,-15.563963890075684,4.5166015625,-2.39501953125,-0.0655517578125,-0.0426025390625
1.455,375,3147,2456,3147,6.0,35.0,17.0,-11.718749046325684,-6.835937023162842,18.49365234375,-2.224365234375,-0.19677734375,0.07666015625
1.463,373,3147,2388,3147,6.0,35.0,17.0,0.0610351525247097,-0.7934569716453552,24.291990280151367,-1.716552734375,-0.013427734375,0.0750732421875
1.495,371,3147,2394,3147,6.0,35.0,17.0,0.0610351525247097,-0.7934569716453552,24.291990280151367,-1.11865234375,0.445068359375,0.0198974609375
1.496,371,3147,2419,3147,6.0,35.0,17.0,8.11767578125,25.268552780151367,9.521484375,-0.96337890625,0.9888916015625,0.0443115234375
1.496,371,3147,2410,3147,6.0,35.0,17.0,-12.939452171325684,33.02001953125,-6.591796398162842,-1.335693359375,1.11669921875,0.0950927734375
1.501,371,3147,2375,3147,6.0,35.0,17.0,-12.939452171325684,33.02001953125,-6.591796398162842,-1.79296875,0.766357421875,0.0941162109375
1.515,364,3147,2230,2981,6.0,35.0,17.0,-48.889156341552734,32.8369140625,-15.319823265075684,-1.961669921875,0.374755859375,0.0545654296875
1.534,364,3147,2087,2756,8.0,33.0,16.0,-30.883787155151367,25.634763717651367,-6.042479991912842,-1.8372802734375,0.22216796875,0.038330078125
1.534,361,3147,1908,2503,8.0,33.0,16.0,-30.883787155151367,25.634763717651367,-6.042479991912842,-1.547119140625,0.234130859375,0.034912109375
1.547,355,3147,1656,2019,8.0,33.0,16.0,14.648436546325684,11.596678733825684,6.958007335662842,-1.192138671875,0.2860107421875,0.00732421875
1.553,351,3147,1483,1623,8.0,33.0,16.0,22.644041061401367,9.765625,5.798339366912842,-0.865478515625,0.360107421875,-0.0352783203125
1.561,351,3147,1268,1280,8.0,33.0,16.0,22.644041061401367,9.765625,5.798339366912842,-0.6317138671875,0.3719482421875,-0.110595703125
1.575,342,3147,1050,430,8.0,33.0,16.0,18.12744140625,15.563963890075684,-8.9111328125,-0.512939453125,0.302490234375,-0.263916015625
1.602,346,2750,969,378,8.0,33.0,16.0,10.314940452575684,23.986814498901367,-19.53125,-0.4598388671875,0.2828369140625,-0.42041015625
1.602,328,2172,853,361,8.0,33.0,16.0,10.314940452575684,23.986814498901367,-19.53125,-0.451416015625,0.3431396484375,-0.44921875
1.605,324,1172,808,359,8.0,33.0,16.0,-6.469726085662842,27.587888717651367,-26.367185592651367,-0.49169921875,0.3486328125,-0.281982421875
1.620,327,865,790,349,8.0,33.0,16.0,-16.845703125,18.5546875,-26.184080123901367,-0.5550537109375,0.20849609375,-0.0531005859375
1.622,318,746,749,330,8.0,31.0,16.0,-16.845703125,18.5546875,-26.184080123901367,-0.5550537109375,0.20849609375,-0.0531005859375
1.635,308,631,620,330,8.0,31.0,16.0,-22.644041061401367,10.620116233825684,-24.108884811401367,-0.6806640625,0.026611328125,0.1466064453125
1.643,312,566,584,329,8.0,31.0,16.0,-22.644041061401367,10.620116233825684,-24.108884811401367,-0.69384765625,0.1441650390625,0.183837890625
1.651,308,559,532,328,8.0,31.0,16.0,-10.986327171325684,11.413573265075684,-16.41845703125,-0.69384765625,0.1441650390625,0.183837890625
1.665,306,648,414,328,8.0,31.0,16.0,7.019042491912842,6.042479991912842,-0.1831054538488388,-0.6424560546875,0.274169921875,0.2783203125
1.673,306,706,374,330,8.0,31.0,16.0,7.019042491912842,6.042479991912842,-0.1831054538488388,-0.6304931640625,0.2440185546875,0.317626953125
1.704,306,759,386,328,8.0,31.0,16.0,7.324218273162842,1.2817381620407104,1.3427733182907104,-0.6304931640625,0.2440185546875,0.317626953125
1.705,312,765,479,328,8.0,31.0,16.0,12.207030296325684,-5.432128429412842,0.6713866591453552,-0.6461181640625,0.246826171875,0.2108154296875
1.705,313,819,567,328,8.0,31.0,16.0,12.207030296325684,-5.432128429412842,0.6713866591453552,-0.677490234375,0.2401123046875,0.1282958984375
1.711,316,788,631,324,8.0,31.0,16.0,14.709471702575684,-6.347655773162842,1.5258787870407104,-0.677490234375,0.2401123046875,0.1282958984375
1.737,316,883,634,329,10.0,30.0,17.0,10.986327171325684,-7.873534679412842,4.2724609375,-0.7572021484375,0.15966796875,0.0140380859375
1.737,318,1042,646,333,10.0,30.0,17.0,10.986327171325684,-7.873534679412842,4.2724609375,-0.7679443359375,0.1431884765625,-0.0286865234375
1.741,315,1271,678,336,10.0,30.0,17.0,9.09423828125,-9.6435546875,6.774901866912842,-0.7679443359375,0.1431884765625,-0.0286865234375
1.755,315,2035,713,344,10.0,30.0,17.0,9.33837890625,-14.831542015075684,11.352538108825684,-0.733154296875,0.1944580078125,-0.0501708984375
1.763,316,2440,761,354,10.0,30.0,17.0,9.33837890625,-14.831542015075684,11.352538108825684,-0.68310546875,0.227783203125,-0.0570068359375
1.771,318,2820,849,364,10.0,30.0,17.0,10.559081077575684,-18.06640625,12.756346702575684,-0.68310546875,0.227783203125,-0.0570068359375
1.803,324,3147,1043,496,10.0,30.0,17.0,16.17431640625,-26.184080123901367,13.488768577575684,-0.5491943359375,0.2540283203125,-0.05224609375
1.803,313,3147,1129,1014,10.0,30.0,17.0,16.17431640625,-26.184080123901367,13.488768577575684,-0.471435546875,0.2176513671875,-0.037353515625
1.804,331,3147,1271,1437,10.0,30.0,17.0,19.287109375,-30.578611373901367,11.840819358825684,-0.471435546875,0.2176513671875,-0.037353515625
1.815,363,3147,1487,1931,10.0,30.0,17.0,20.629880905151367,-40.588375091552734,4.8828125,-0.42431640625,0.1458740234375,0.0494384765625
1.824,348,3147,1662,2127,8.0,28.0,22.0,20.629880905151367,-40.588375091552734,4.8828125,-0.315185546875,0.171630859375,0.115234375
1.848,356,3147,1795,2261,8.0,28.0,22.0,15.991209983825684,-46.020503997802734,-1.15966796875,-0.315185546875,0.171630859375,0.115234375
1.849,361,3147,2060,2571,8.0,28.0,22.0,-2.929687261581421,-54.748531341552734,-16.29638671875,-0.2716064453125,0.6083984375,0.2611083984375
1.856,373,3147,2195,3045,8.0,28.0,22.0,-2.929687261581421,-54.748531341552734,-16.29638671875,-0.498046875,0.873291015625,0.28515625
1.863,371,3147,2316,3147,8.0,28.0,22.0,-20.568845748901367,-52.978511810302734,-22.094724655151367,-0.498046875,0.873291015625,0.28515625
1.876,375,3147,2437,3147,8.0,28.0,22.0,-56.884761810302734,-29.846189498901367,-22.094724655151367,-1.6561279296875,0.8065185546875,0.0228271484375
1.884,378,3147,2507,3147,8.0,28.0,22.0,-56.884761810302734,-29.846189498901367,-22.094724655151367,-2.22802734375,0.18017578125,-0.0970458984375
1.906,376,3147,2569,3147,8.0,28.0,22.0,-62.866207122802734,-15.747069358825684,-20.812986373901367,-2.22802734375,0.18017578125,-0.0970458984375
1.906,378,3147,2532,3147,8.0,28.0,22.0,-36.7431640625,-9.6435546875,-16.357421875,-2.5616455078125,-0.2242431640625,0.0362548828125
1.914,378,3147,2518,3147,8.0,28.0,22.0,-36.7431640625,-9.6435546875,-16.357421875,-2.252685546875,0.0164794921875,0.037353515625
1.924,375,3147,2435,3147,11.0,34.0,18.0,-6.958007335662842,-10.803221702575684,-3.540038824081421,-2.252685546875,0.0164794921875,0.037353515625
1.943,377,3147,2464,3147,11.0,34.0,18.0,27.099607467651367,9.94873046875,15.563963890075684,-1.0120849609375,0.5595703125,0.015380859375
1.944,371,3147,2489,3147,11.0,34.0,18.0,27.099607467651367,9.94873046875,15.563963890075684,-1.1373291015625,0.982666015625,0.2425537109375
1.955,373,3147,2481,3147,11.0,34.0,18.0,13.244627952575684,24.719236373901367,14.587401390075684,-1.1373291015625,0.982666015625,0.2425537109375
1.968,378,3147,2372,3147,11.0,34.0,18.0,-17.822265625,35.21728515625,8.056640625,-2.0093994140625,0.505859375,0.2694091796875
1.975,371,3147,2308,3147,11.0,34.0,18.0,-40.771480560302734,40.405269622802734,-0.1220703050494194,-2.0093994140625,0.505859375,0.2694091796875
1.982,369,3147,2217,3072,11.0,34.0,18.0,-36.376953125,38.57421875,-2.990722417831421,-2.04052734375,0.1875,0.168701171875
2.013,361,3147,1963,2521,11.0,34.0,18.0,-10.986327171325684,30.273435592651367,2.746581792831421,-1.4857177734375,0.3109130859375,0.098876953125
2.013,361,3147,1800,2295,11.0,34.0,18.0,15.686034202575684,21.972654342651367,12.390135765075684,-1.4857177734375,0.3109130859375,0.098876953125
2.013,356,3147,1588,1809,11.0,34.0,18.0,32.470703125,19.59228515625,18.5546875,-1.0928955078125,0.322509765625,0.072265625
2.027,344,3147,1292,890,9.0,28.0,14.0,36.92626953125,21.484373092651367,17.88330078125,-0.44970703125,0.2523193359375,-0.0467529296875
2.045,336,3147,1134,431,9.0,28.0,14.0,30.273435592651367,25.878904342651367,9.765625,-0.44970703125,0.2523193359375,-0.0467529296875
2.047,330,2688,1014,371,9.0,28.0,14.0,17.4560546875,33.38623046875,-5.615233898162842,-0.356689453125,0.199951171875,-0.271484375
2.056,319,1662,883,351,9.0,28.0,14.0,4.39453125,41.931148529052734,-21.118162155151367,-0.464111328125,0.2958984375,-0.5059814453125
2.068,317,1251,840,346,9.0,28.0,14.0,-7.507323741912842,44.006343841552734,-28.137205123901367,-0.464111328125,0.2958984375,-0.5059814453125
2.072,313,883,787,337,9.0,28.0,14.0,-19.34814453125,36.07177734375,-28.625486373901367,-0.5321044921875,0.2000732421875,-0.348876953125
2.086,315,554,636,321,9.0,28.0,14.0,-28.625486373901367,26.733396530151367,-27.160642623901367,-0.6878662109375,-0.00048828125,-0.028076171875
2.106,310,570,509,327,9.0,28.0,14.0,-28.259275436401367,22.766111373901367,-22.583005905151367,-0.6878662109375,-0.00048828125,-0.028076171875
2.107,307,555,413,324,9.0,28.0,14.0,-14.648436546325684,21.789548873901367,-13.549803733825684,-0.66064453125,0.0823974609375,0.0850830078125
2.118,306,628,371,324,7.0,31.0,16.0,5.0048828125,19.34814453125,-3.479003667831421,-0.5360107421875,0.2850341796875,0.3287353515625
2.125,304,794,361,323,7.0,31.0,16.0,18.798828125,14.099120140075684,1.7700194120407104,-0.5360107421875,0.2850341796875,0.3287353515625
2.132,306,840,371,324,7.0,31.0,16.0,22.949216842651367,8.30078125,-1.4038084745407104,-0.510009765625,0.216064453125,0.3990478515625
2.147,308,905,391,324,7.0,31.0,16.0,22.949216842651367,4.0283203125,-7.934569835662842,-0.578369140625,0.291259765625,0.3515625
2.154,307,848,363,327,7.0,31.0,16.0,21.301267623901367,0.6103515625,-9.6435546875,-0.578369140625,0.291259765625,0.3515625
2.162,306,852,413,324,7.0,31.0,16.0,16.78466796875,-2.13623046875,-6.286620616912842,-0.6087646484375,0.2938232421875,0.2547607421875
2.180,313,744,572,324,7.0,31.0,16.0,10.437010765075684,-3.540038824081421,-2.38037109375,-0.6370849609375,0.204833984375,0.1435546875
2.184,313,959,607,327,7.0,31.0,16.0,6.530761241912842,-4.39453125,0.7324218153953552,-0.6717529296875,0.1083984375,0.038330078125
2.192,314,1050,683,332,7.0,31.0,16.0,7.324218273162842,-5.859374523162842,4.94384765625,-0.6982421875,0.085205078125,-0.034912109375
2.209,315,1676,706,345,7.0,31.0,16.0,10.253905296325684,-8.056640625,9.70458984375,-0.714111328125,0.1414794921875,-0.0599365234375
2.214,316,2117,714,348,8.0,32.0,21.0,11.108397483825684,-10.498045921325684,12.878417015075684,-0.739990234375,0.2293701171875,-0.040283203125
2.225,321,2648,746,357,8.0,32.0,21.0,9.6435546875,-13.061522483825684,13.977049827575684,-0.778564453125,0.302490234375,-0.0103759765625
2.241,327,3147,849,360,8.0,32.0,21.0,7.812499523162842,-16.11328125,13.854979515075684,-0.8055419921875,0.3394775390625,0.001220703125
2.251,333,3147,963,669,8.0,32.0,21.0,5.249022960662842,-19.53125,12.390135765075684,-0.7982177734375,0.318115234375,-0.006103515625
2.252,346,3147,1054,991,8.0,32.0,21.0,1.4648436307907104,-22.399900436401367,9.3994140625,-0.7723388671875,0.2567138671875,-0.019287109375
2.266,370,3147,1289,1653,8.0,32.0,21.0,-1.2817381620407104,-25.207517623901367,6.591796398162842,-0.7760009765625,0.203125,-0.0057373046875
2.274,390,3147,1397,1846,8.0,32.0,21.0,-2.0751953125,-28.991697311401367,4.8828125,-0.7568359375,0.142333984375,0.0194091796875
2.284,378,3147,1521,2113,8.0,32.0,21.0,-3.417968511581421,-32.65380859375,3.112792730331421,-0.649169921875,0.0494384765625,0.037841796875
2.319,388,3147,1705,2448,8.0,32.0,21.0,-3.784179449081421,-35.09521484375,1.220703125,-0.5386962890625,0.0240478515625,0.0908203125
2.319,411,3147,1823,2585,8.0,32.0,21.0,-1.2817381620407104,-37.53662109375,1.03759765625,-0.5029296875,0.125,0.171875
2.320,372,3147,2034,2788,8.0,32.0,19.0,1.3427733182907104,-39.73388671875,2.50244140625,-0.5106201171875,0.239990234375,0.2301025390625
2.336,364,3147,2243,3147,8.0,32.0,19.0,3.356933355331421,-40.10009765625,3.479003667831421,-0.6171875,0.384521484375,0.2244873046875
2.336,378,3147,2295,3147,8.0,32.0,19.0,6.896972179412842,-36.7431640625,5.737304210662842,-0.8857421875,0.618896484375,0.0875244140625
2.354,382,3147,2361,3147,8.0,32.0,19.0,7.751464366912842,-29.052732467651367,11.474608421325684,-1.1773681640625,0.7603759765625,-0.1488037109375
2.356,373,3147,2458,3147,8.0,32.0,19.0,0.8544921278953552,-20.080564498901367,16.9677734375,-1.3568115234375,0.7008056640625,-0.2584228515625
2.364,371,3147,2504,3147,8.0,32.0,19.0,-9.70458984375,-14.709471702575684,17.08984375,-1.546875,0.5223388671875,-0.1689453125
2.375,371,3147,2532,3147,8.0,32.0,19.0,-18.49365234375,-13.732909202575684,11.291502952575684,-1.8089599609375,0.3128662109375,0.0050048828125
2.386,373,3147,2578,3147,8.0,32.0,19.0,-23.315427780151367,-12.268065452575684,4.638671875,-2.0196533203125,0.232421875,0.1409912109375
2.394,371,3147,2519,3147,8.0,32.0,19.0,-20.874021530151367,-6.408690929412842,2.563476324081421,-2.0968017578125,0.311279296875,0.2022705078125
2.417,369,3147,2424,3147,8.0,32.0,19.0,-13.305663108825684,4.21142578125,3.662109136581421,-1.8258056640625,0.37744140625,0.127197265625
2.417,371,3147,2410,3147,11.0,28.0,18.0,-6.896972179412842,16.9677734375,2.13623046875,-1.3017578125,0.4969482421875,-0.00244140625
2.424,371,3147,2398,3147,11.0,28.0,18.0,-6.286620616912842,25.634763717651367,-2.3193359375,-1.167724609375,0.7713623046875,0.082763671875
2.457,371,3147,2333,3147,11.0,28.0,18.0,-16.54052734375,26.367185592651367,-5.432128429412842,-1.55029296875,0.771728515625,0.2386474609375
2.457,354,3147,2190,3147,11.0,28.0,18.0,-31.249998092651367,24.414060592651367,-5.676269054412842,-1.8756103515625,0.330078125,0.2406005859375
2.458,360,3147,2141,3147,11.0,28.0,18.0,-29.907224655151367,22.766111373901367,-1.7700194120407104,-1.8818359375,0.020751953125,0.1893310546875
2.462,382,3147,1994,2955,11.0,28.0,18.0,-6.042479991912842,18.4326171875,7.629394054412842,-1.659423828125,0.10888671875,0.140380859375
2.476,371,3147,1772,2430,11.0,28.0,18.0,21.911619186401367,13.061522483825684,17.333984375,-1.2996826171875,0.3350830078125,0.0511474609375
2.484,364,3147,1656,2078,11.0,28.0,18.0,35.2783203125,11.657713890075684,19.775390625,-0.943115234375,0.5086669921875,-0.025146484375
2.492,361,3147,1508,1727,11.0,28.0,18.0,29.479978561401367,14.770506858825684,13.305663108825684,-0.7115478515625,0.5570068359375,-0.0479736328125
2.520,356,3147,1236,1091,8.0,30.0,16.0,11.779784202575684,20.385740280151367,0.8544921278953552,-0.5958251953125,0.4730224609375,-0.0849609375
2.520,351,3147,1117,700,8.0,30.0,16.0,-5.615233898162842,26.733396530151367,-13.061522483825684,-0.5294189453125,0.3399658203125,-0.228515625
2.522,346,3080,1014,365,8.0,30.0,16.0,-15.258788108825684,32.40966796875,-24.169919967651367,-0.489501953125,0.2750244140625,-0.3936767578125
2.555,332,2137,833,363,8.0,30.0,16.0,-19.47021484375,34.423828125,-28.564451217651367,-0.4700927734375,0.295654296875,-0.393310546875
2.558,330,1694,799,351,8.0,30.0,16.0,-23.620603561401367,29.296873092651367,-26.916501998901367,-0.4949951171875,0.273193359375,-0.2000732421875
2.559,324,1555,761,351,8.0,30.0,16.0,-29.663084030151367,19.1650390625,-25.024412155151367,-0.5499267578125,0.1309814453125,0.01171875
2.567,321,1472,707,344,8.0,30.0,16.0,-33.87451171875,11.779784202575684,-26.123044967651367,-0.6109619140625,-0.0333251953125,0.129150390625
2.574,316,1217,673,344,8.0,30.0,16.0,-29.357908248901367,10.131834983825684,-26.306150436401367,-0.67333984375,-0.0748291015625,0.1749267578125
2.583,315,1010,642,342,8.0,30.0,16.0,-15.624999046325684,10.620116233825684,-20.935056686401367,-0.6964111328125,0.0157470703125,0.1732177734375
2.596,313,858,631,328,8.0,30.0,16.0,-1.15966796875,9.70458984375,-11.840819358825684,-0.665771484375,0.137451171875,0.1759033203125
2.621,313,986,653,334,9.0,30.0,14.0,5.920409679412842,5.676269054412842,-5.249022960662842,-0.625244140625,0.19970703125,0.24609375
2.623,313,1156,646,316,9.0,30.0,14.0,6.042479991912842,-1.2817381620407104,-4.0283203125,-0.61767578125,0.2073974609375,0.3399658203125
2.631,313,1518,722,346,9.0,30.0,14.0,6.286620616912842,-7.812499523162842,-5.126952648162842,-0.6356201171875,0.2076416015625,0.33056640625
2.637,315,1860,757,348,9.0,30.0,14.0,10.070799827575684,-10.131834983825684,-5.310058116912842,-0.672119140625,0.2021484375,0.2215576171875
2.642,316,2018,797,347,9.0,30.0,14.0,12.451170921325684,-8.7890625,-3.967284917831421,-0.7279052734375,0.1990966796875,0.0892333984375
2.658,321,2432,869,356,9.0,30.0,14.0,10.498045921325684,-6.713866710662842,-0.6103515625,-0.77197265625,0.211181640625,-0.0123291015625
2.664,321,2573,916,357,9.0,30.0,14.0,7.263183116912842,-7.568358898162842,4.57763671875,-0.7742919921875,0.216796875,-0.0423583984375
2.673,321,2887,963,363,9.0,30.0,14.0,7.263183116912842,-7.568358898162842,4.57763671875,-0.735107421875,0.1949462890625,-0.0146484375
2.686,327,3147,1078,630,9.0,30.0,14.0,8.30078125,-19.22607421875,11.352538108825684,-0.6845703125,0.164306640625,0.023193359375
2.694,331,3147,1185,968,9.0,30.0,14.0,14.038084983825684,-26.000974655151367,11.352538108825684,-0.6605224609375,0.16162109375,0.0399169921875
2.702,338,3147,1262,1258,9.0,33.0,16.0,14.038084983825684,-26.000974655151367,11.352538108825684,-0.6822509765625,0.1744384765625,0.0450439453125
2.723,464,3147,1278,1711,9.0,33.0,16.0,25.695798873901367,-36.62109375,9.94873046875,-0.7039794921875,0.1590576171875,0.04638671875
2.725,693,3147,1078,1908,9.0,33.0,16.0,26.611326217651367,-41.503902435302734,8.1787109375,-0.6478271484375,0.0899658203125,0.04931640625
2.733,582,3147,1274,2218,9.0,33.0,16.0,26.611326217651367,-41.503902435302734,8.1787109375,-0.5450439453125,0.021728515625,0.058349609375
2.747,1616,3147,406,1026,9.0,33.0,16.0,31.066892623901367,-54.077144622802734,4.82177734375,-0.4820556640625,0.044677734375,0.0528564453125
2.771,428,3147,1747,2557,9.0,33.0,16.0,37.78076171875,-61.950679779052734,3.906249761581421,-0.4569091796875,0.1810302734375,0.0611572265625
2.771,426,3147,1920,2778,9.0,33.0,16.0,37.78076171875,-61.950679779052734,3.906249761581421,-0.477783203125,0.419921875,0.1217041015625
2.772,359,3147,2035,3144,9.0,33.0,16.0,40.405269622802734,-67.68798828125,1.0986328125,-0.477783203125,0.419921875,0.1217041015625
2.785,365,3147,2186,3147,9.0,33.0,16.0,21.789548873901367,-58.105464935302734,-4.45556640625,-0.9478759765625,0.8447265625,0.0263671875
2.793,371,3147,2258,3147,9.0,33.0,16.0,21.789548873901367,-58.105464935302734,-4.45556640625,-1.1962890625,0.7073974609375,-0.058837890625
2.801,371,3147,2344,3147,10.0,28.0,21.0,2.50244140625,-44.738765716552734,-1.2817381620407104,-1.1962890625,0.7073974609375,-0.058837890625
2.826,371,3147,2456,3147,10.0,28.0,21.0,-21.301267623901367,-24.047849655151367,3.906249761581421,-1.859375,0.384033203125,0.186767578125
2.826,371,3147,2493,3147,10.0,28.0,21.0,-21.301267623901367,-24.047849655151367,3.906249761581421,-2.1800537109375,0.1888427734375,0.340576171875
2.832,369,3147,2491,3147,10.0,28.0,21.0,-16.7236328125,-18.9208984375,5.859374523162842,-2.1800537109375,0.1888427734375,0.340576171875
2.846,363,3147,2330,3147,10.0,28.0,21.0,5.798339366912842,-8.23974609375,13.366698265075684,-1.8917236328125,0.029296875,0.2735595703125
2.865,361,3147,2287,3147,10.0,28.0,21.0,5.798339366912842,-8.23974609375,13.366698265075684,-1.2490234375,0.3525390625,0.052978515625
2.865,361,3147,2268,3147,10.0,28.0,21.0,14.404295921325684,3.784179449081421,14.953612327575684,-1.2490234375,0.3525390625,0.052978515625
2.875,361,3147,2337,3147,10.0,28.0,21.0,-6.591796398162842,26.550291061401367,-1.8310545682907104,-1.15771484375,1.0716552734375,0.1710205078125
2.883,361,3147,2312,3147,10.0,28.0,21.0,-6.591796398162842,26.550291061401367,-1.8310545682907104,-1.66357421875,0.632568359375,0.27783203125
2.891,360,3147,2249,3147,10.0,28.0,21.0,-38.330078125,30.456541061401367,-16.78466796875,-1.66357421875,0.632568359375,0.27783203125
2.905,357,3147,2091,3147,9.0,29.0,17.0,-36.7431640625,27.832029342651367,-13.854979515075684,-1.94287109375,-0.0592041015625,0.270263671875
2.929,356,3147,1996,3144,9.0,29.0,17.0,-36.7431640625,27.832029342651367,-13.854979515075684,-1.702880859375,0.1336669921875,0.2381591796875
2.930,354,3147,1878,2930,9.0,29.0,17.0,-6.958007335662842,21.789548873901367,2.0751953125,-1.702880859375,0.1336669921875,0.2381591796875
2.935,346,3147,1665,2344,9.0,29.0,17.0,18.12744140625,17.39501953125,19.775390625,-1.0491943359375,0.4163818359375,0.05517578125
2.943,343,3147,1529,1996,9.0,29.0,17.0,18.12744140625,17.39501953125,19.775390625,-0.821533203125,0.3905029296875,-0.0322265625
2.951,336,3147,1416,1702,9.0,29.0,17.0,14.831542015075684,20.935056686401367,17.4560546875,-0.821533203125,0.3905029296875,-0.0322265625
2.984,328,3147,1225,1095,9.0,29.0,17.0,-0.0610351525247097,28.076169967651367,1.3427733182907104,-0.5767822265625,0.283447265625,-0.1429443359375
2.984,328,3147,1108,588,9.0,29.0,17.0,-0.0610351525247097,28.076169967651367,1.3427733182907104,-0.5064697265625,0.3016357421875,-0.302734375
2.985,327,2765,1003,375,9.0,29.0,17.0,-6.347655773162842,31.311033248901367,-8.544921875,-0.5064697265625,0.3016357421875,-0.302734375
2.995,323,1912,878,360,10.0,30.0,21.0,-12.390135765075684,34.912109375,-16.78466796875,-0.4620361328125,0.3748779296875,-0.3131103515625
3.003,318,1697,772,352,10.0,30.0,21.0,-21.179197311401367,34.24072265625,-21.179197311401367,-0.4620361328125,0.3748779296875,-0.3131103515625
3.011,316,1387,706,348,10.0,30.0,21.0,-32.3486328125,27.526853561401367,-23.010251998901367,-0.5433349609375,0.2254638671875,-0.137451171875
3.030,313,811,512,334,10.0,30.0,21.0,-41.076656341552734,20.385740280151367,-23.742673873901367,-0.644287109375,-0.01220703125,0.092041015625
3.034,307,631,466,327,10.0,30.0,21.0,-40.832515716552734,16.66259765625,-22.338865280151367,-0.644287109375,-0.01220703125,0.092041015625
3.041,306,684,458,328,10.0,30.0,21.0,-29.479978561401367,15.258788108825684,-17.39501953125,-0.637451171875,0.0899658203125,0.1593017578125
3.060,304,739,424,328,10.0,30.0,21.0,-14.831542015075684,12.756346702575684,-11.352538108825684,-0.6396484375,0.2332763671875,0.4920654296875
3.086,306,801,402,327,10.0,30.0,21.0,-6.408690929412842,6.530761241912842,-8.544921875,-0.6396484375,0.2332763671875,0.4920654296875
3.086,306,894,411,330,10.0,30.0,21.0,-3.723144292831421,-0.9155272841453552,-9.3994140625,-0.63037109375,0.1719970703125,0.545166015625
3.086,307,1138,484,330,10.0,30.0,21.0,0.9765624403953552,-4.39453125,-10.803221702575684,-0.55810546875,0.1275634765625,0.27001953125
3.093,308,1348,582,334,11.0,29.0,16.0,8.4228515625,-3.845214605331421,-10.314940452575684,-0.55810546875,0.1275634765625,0.27001953125
3.101,313,1775,702,344,11.0,29.0,16.0,12.390135765075684,-2.3193359375,-7.995604991912842,-0.58984375,0.1717529296875,0.1475830078125
3.134,313,2330,800,348,11.0,29.0,16.0,11.169432640075684,-1.8310545682907104,-4.638671875,-0.739013671875,0.2208251953125,0.0543212890625
3.135,316,2534,846,359,11.0,29.0,16.0,8.36181640625,-3.662109136581421,-0.2441406100988388,-0.739013671875,0.2208251953125,0.0543212890625
3.135,316,2985,846,342,11.0,29.0,16.0,7.080077648162842,-7.202147960662842,4.8828125,-0.775390625,0.18212890625,-0.012939453125
3.145,318,3147,989,605,11.0,29.0,16.0,7.507323741912842,-10.070799827575684,9.82666015625,-0.662841796875,0.12255859375,-0.0345458984375
3.154,321,3147,1025,1003,11.0,29.0,16.0,8.23974609375,-12.634276390075684,12.939452171325684,-0.662841796875,0.12255859375,-0.0345458984375
3.173,323,3147,1101,1323,11.0,29.0,16.0,10.375975608825684,-17.27294921875,13.732909202575684,-0.61572265625,0.1363525390625,0.04150390625
3.182,324,3147,1278,1820,11.0,29.0,16.0,15.014647483825684,-23.010251998901367,12.390135765075684,-0.684326171875,0.156982421875,0.0928955078125
3.183,331,3147,1382,1994,11.0,29.0,16.0,18.12744140625,-27.282712936401367,8.9111328125,-0.684326171875,0.156982421875,0.0928955078125
3.194,333,3147,1508,2221,9.0,28.0,22.0,15.624999046325684,-29.724119186401367,3.601073980331421,-0.60546875,0.0753173828125,0.08251953125
3.205,344,3147,1748,2525,9.0,28.0,22.0,10.559081077575684,-32.16552734375,-2.44140625,-0.4609375,0.0257568359375,0.1240234375
3.213,348,3147,1861,2667,9.0,28.0,22.0,9.33837890625,-35.21728515625,-7.690429210662842,-0.3662109375,0.1136474609375,0.186279296875
3.236,354,3147,1960,2738,9.0,28.0,22.0,9.765625,-37.4755859375,-11.962889671325684,-0.3477783203125,0.2509765625,0.2431640625
3.236,361,3147,2194,3147,9.0,28.0,22.0,7.141112804412842,-38.26904296875,-15.563963890075684,-0.4656982421875,0.401611328125,0.2911376953125
3.243,361,3147,2254,3147,9.0,28.0,22.0,4.5166015625,-35.82763671875,-15.319823265075684,-0.806396484375,0.6668701171875,0.2412109375
3.251,364,3147,2330,3147,9.0,28.0,22.0,0.54931640625,-28.808591842651367,-7.934569835662842,-1.2259521484375,0.878662109375,0.1065673828125
3.274,369,3147,2449,3147,9.0,28.0,22.0,-10.925292015075684,-19.59228515625,1.3427733182907104,-1.528564453125,0.7803955078125,-0.010498046875
3.274,373,3147,2519,3147,9.0,28.0,22.0,-22.766111373901367,-10.192870140075684,4.82177734375,-1.8306884765625,0.5057373046875,-0.032958984375
3.291,371,3147,2587,3147,9.0,28.0,22.0,-23.315427780151367,-2.624511480331421,3.662109136581421,-2.183349609375,0.19091796875,0.0665283203125
3.295,372,3147,2517,3147,11.0,28.0,19.0,-12.268065452575684,2.624511480331421,3.845214605331421,-2.377197265625,-0.035400390625,0.2286376953125
3.307,365,3147,2437,3147,11.0,28.0,19.0,3.662109136581421,8.11767578125,8.1787109375,-2.1673583984375,-0.0880126953125,0.2054443359375
3.311,365,3147,2427,3147,11.0,28.0,19.0,18.5546875,17.15087890625,14.526366233825684,-1.51123046875,0.13916015625,-0.002685546875
3.336,363,3147,2456,3147,11.0,28.0,19.0,25.512693405151367,27.038572311401367,15.502928733825684,-0.9656982421875,0.7325439453125,-0.0655517578125
3.336,341,3147,2414,3147,11.0,28.0,19.0,9.765625,32.40966796875,4.2724609375,-1.069091796875,1.112548828125,0.09375
3.341,364,3147,2437,3147,11.0,28.0,19.0,-28.808591842651367,34.912109375,-15.441893577575684,-1.57275390625,0.831787109375,0.266845703125
3.358,364,3147,2334,3147,11.0,28.0,19.0,-59.020992279052734,37.17041015625,-29.541013717651367,-1.961181640625,0.2900390625,0.307373046875
3.375,361,3147,2228,3147,11.0,28.0,19.0,-54.321285247802734,36.56005859375,-28.198240280151367,-2.026611328125,0.042724609375,0.2540283203125
3.375,345,3147,2129,3055,11.0,28.0,19.0,-25.390623092651367,32.40966796875,-16.41845703125,-1.843017578125,0.1339111328125,0.1817626953125
3.386,356,3147,1929,2541,9.0,29.0,21.0,-0.2441406100988388,28.259275436401367,-4.33349609375,-1.5469970703125,0.3092041015625,0.1376953125
3.396,349,3147,1789,2240,9.0,29.0,21.0,10.559081077575684,27.404783248901367,3.906249761581421,-1.2227783203125,0.353271484375,0.0958251953125
3.401,347,3147,1650,1850,9.0,29.0,21.0,13.793944358825684,29.724119186401367,7.812499523162842,-0.9398193359375,0.2867431640625,0.03173828125
3.420,334,3147,1336,986,9.0,29.0,21.0,15.441893577575684,31.555173873901367,7.446288585662842,-0.7142333984375,0.237060546875,-0.0540771484375
3.439,330,3147,1183,376,9.0,29.0,21.0,14.099120140075684,31.188962936401367,2.01416015625,-0.541748046875,0.1978759765625,-0.1719970703125
3.440,327,2422,1056,364,9.0,29.0,21.0,7.385253429412842,32.28759765625,-8.4228515625,-0.4256591796875,0.1954345703125,-0.3626708984375
3.445,323,1373,882,359,9.0,29.0,21.0,-4.45556640625,37.17041015625,-18.61572265625,-0.349609375,0.2342529296875,-0.5003662109375
3.453,316,1063,827,349,9.0,29.0,21.0,-17.822265625,39.6728515625,-22.827146530151367,-0.3656005859375,0.2232666015625,-0.40966796875
3.462,316,905,748,344,9.0,29.0,21.0,-29.724119186401367,34.5458984375,-22.216794967651367,-0.46484375,0.1041259765625,-0.187255859375
3.479,314,740,586,332,9.0,29.0,21.0,-36.9873046875,27.038572311401367,-20.812986373901367,-0.5718994140625,-0.056396484375,0.0057373046875
3.483,306,685,526,332,9.0,30.0,18.0,-33.935546875,23.315427780151367,-17.51708984375,-0.6456298828125,-0.0867919921875,0.12744140625
3.491,308,601,382,325,9.0,30.0,18.0,-19.59228515625,21.850584030151367,-9.94873046875,-0.6539306640625,0.0462646484375,0.2030029296875
3.506,308,740,439,327,9.0,30.0,18.0,-1.9531248807907104,18.798828125,-1.7089842557907104,-0.6258544921875,0.190673828125,0.2989501953125
3.513,308,765,442,328,9.0,30.0,18.0,10.437010765075684,12.512206077575684,1.4648436307907104,-0.5936279296875,0.2476806640625,0.4215087890625
3.521,308,829,462,327,9.0,30.0,18.0,14.404295921325684,4.8828125,-1.7089842557907104,-0.555419921875,0.2294921875,0.453857421875
3.541,313,975,513,330,9.0,30.0,18.0,14.099120140075684,0.3662109076976776,-7.202147960662842,-0.5260009765625,0.2200927734375,0.374755859375
3.543,313,1026,621,330,9.0,30.0,18.0,12.512206077575684,-1.0986328125,-10.192870140075684,-0.52392578125,0.2132568359375,0.2581787109375
3.551,315,1262,691,336,9.0,30.0,18.0,9.8876953125,-2.3193359375,-9.765625,-0.551025390625,0.150146484375,0.1436767578125
3.565,318,1959,757,347,9.0,30.0,18.0,8.544921875,-4.45556640625,-6.835937023162842,-0.5966796875,0.0894775390625,0.055908203125
3.581,321,2280,790,359,9.0,30.0,18.0,10.314940452575684,-7.751464366912842,-1.220703125,-0.6510009765625,0.088623046875,-0.021728515625
3.582,323,2716,838,360,12.0,32.0,15.0,13.977049827575684,-11.779784202575684,5.920409679412842,-0.698486328125,0.156005859375,-0.0823974609375
3.595,328,3147,938,519,12.0,32.0,15.0,16.357421875,-16.2353515625,11.901854515075684,-0.7144775390625,0.2366943359375,-0.090087890625
3.610,330,3147,1010,899,12.0,32.0,15.0,16.66259765625,-22.277830123901367,14.038084983825684,-0.7147216796875,0.2823486328125,-0.0396728515625
3.612,330,3147,1064,1318,12.0,32.0,15.0,17.02880859375,-29.846189498901367,11.474608421325684,-0.755615234375,0.287353515625,0.0125732421875
3.625,337,3147,1236,1711,12.0,32.0,15.0,17.822265625,-36.80419921875,4.2724609375,-0.8212890625,0.2471923828125,0.0203857421875
3.645,344,3147,1427,1914,12.0,32.0,15.0,16.66259765625,-41.198726654052734,-6.958007335662842,-0.8006591796875,0.1650390625,0.0042724609375
3.647,348,3147,1540,2035,12.0,32.0,15.0,14.404295921325684,-43.579097747802734,-19.83642578125,-0.6658935546875,0.118896484375,0.023681640625
3.655,359,3147,1735,2316,12.0,32.0,15.0,14.160155296325684,-45.166011810302734,-29.968259811401367,-0.5205078125,0.163818359375,0.074462890625
3.665,352,3147,1826,2460,12.0,32.0,15.0,13.732909202575684,-45.288082122802734,-34.0576171875,-0.4378662109375,0.21630859375,0.14208984375
3.676,364,3147,1959,2599,12.0,32.0,15.0,13.732909202575684,-45.288082122802734,-34.0576171875,-0.46728515625,0.24755859375,0.2554931640625
3.685,369,3147,2168,3042,12.0,29.0,19.0,-1.03759765625,-35.7666015625,-25.817869186401367,-0.605712890625,0.27685546875,0.364013671875
3.694,378,3147,2268,3147,12.0,29.0,19.0,-8.544921875,-28.015134811401367,-16.845703125,-0.8837890625,0.31689453125,0.3685302734375
3.703,371,3147,2362,3147,12.0,29.0,19.0,-8.544921875,-28.015134811401367,-16.845703125,-1.2559814453125,0.31884765625,0.2274169921875
3.720,371,3147,2484,3147,12.0,29.0,19.0,-9.58251953125,-10.192870140075684,4.94384765625,-1.690185546875,0.1612548828125,0.0277099609375
3.723,373,3147,2541,3147,12.0,29.0,19.0,-4.82177734375,-3.112792730331421,14.282225608825684,-2.1036376953125,-0.0123291015625,-0.05859375
3.746,372,3147,2578,3147,12.0,29.0,19.0,-4.82177734375,-3.112792730331421,14.282225608825684,-2.2686767578125,-0.065185546875,-0.001953125
3.746,371,3147,2519,3147,12.0,29.0,19.0,17.9443359375,-2.25830078125,33.02001953125,-2.1751708984375,-0.032470703125,0.0572509765625
3.757,365,3147,2437,3147,12.0,29.0,19.0,29.479978561401367,-0.6103515625,37.4755859375,-1.786376953125,0.190185546875,0.0074462890625
3.761,363,3147,2379,3147,12.0,29.0,19.0,29.479978561401367,-0.6103515625,37.4755859375,-1.2125244140625,0.6751708984375,-0.057373046875
3.791,363,3147,2400,3147,12.0,29.0,19.0,32.3486328125,19.34814453125,25.146482467651367,-0.9093017578125,1.095947265625,-0.041748046875
3.792,361,3147,2400,3147,11.0,29.0,28.0,5.859374523162842,29.541013717651367,5.249022960662842,-1.15869140625,1.01953125,0.0777587890625
3.792,361,3147,2379,3147,11.0,29.0,28.0,5.859374523162842,29.541013717651367,5.249022960662842,-1.721923828125,0.5302734375,0.193359375
3.806,361,3147,2268,3147,11.0,29.0,28.0,-37.2314453125,32.04345703125,-19.287109375,-2.1302490234375,0.05126953125,0.1983642578125
3.813,360,3147,2190,3147,11.0,29.0,28.0,-22.888181686401367,23.864744186401367,-10.498045921325684,-2.1705322265625,-0.146484375,0.143798828125
3.822,357,3147,2078,3057,11.0,29.0,28.0,-22.888181686401367,23.864744186401367,-10.498045921325684,-1.923828125,-0.0401611328125,0.1005859375
3.849,348,3147,1865,2407,11.0,29.0,28.0,28.198240280151367,7.202147960662842,16.4794921875,-1.515625,0.181396484375,0.093017578125
3.849,347,3147,1753,2100,11.0,29.0,28.0,42.907711029052734,6.103515148162842,22.827146530151367,-1.105224609375,0.30908203125,0.0528564453125
3.851,346,3147,1598,1676,11.0,29.0,28.0,42.907711029052734,6.103515148162842,22.827146530151367,-0.804443359375,0.3978271484375,0.0096435546875
3.870,332,3147,1202,962,11.0,29.0,28.0,39.12353515625,20.751951217651367,9.46044921875,-0.6103515625,0.4951171875,-0.0242919921875
3.878,328,3147,1012,438,8.0,30.0,18.0,18.798828125,30.395505905151367,-5.554198741912842,-0.5103759765625,0.5091552734375,-0.140625
3.889,327,2765,816,371,8.0,30.0,18.0,18.798828125,30.395505905151367,-5.554198741912842,-0.46142578125,0.4232177734375,-0.34521484375
3.896,317,1499,614,336,8.0,30.0,18.0,-20.507810592651367,45.715328216552734,-29.724119186401367,-0.4705810546875,0.2811279296875,-0.476806640625
3.904,316,1131,527,342,8.0,30.0,18.0,-27.648923873901367,43.945308685302734,-30.456541061401367,-0.5260009765625,0.1243896484375,-0.4161376953125
3.912,321,777,455,328,8.0,30.0,18.0,-27.648923873901367,43.945308685302734,-30.456541061401367,-0.5609130859375,-0.0103759765625,-0.2025146484375
3.926,316,619,307,308,8.0,30.0,18.0,-27.343748092651367,25.268552780151367,-20.385740280151367,-0.5633544921875,-0.052001953125,0.0404052734375
3.950,304,494,316,317,8.0,30.0,18.0,-23.193357467651367,19.83642578125,-14.282225608825684,-0.5433349609375,0.0008544921875,0.2200927734375
3.950,302,514,316,316,8.0,30.0,18.0,-23.193357467651367,19.83642578125,-14.282225608825684,-0.516357421875,0.0350341796875,0.291259765625
3.957,304,590,316,322,8.0,30.0,18.0,-2.990722417831421,22.277830123901367,-6.347655773162842,-0.5238037109375,0.02490234375,0.29150390625
3.964,304,572,316,316,8.0,30.0,18.0,12.512206077575684,22.338865280151367,-6.652831554412842,-0.5704345703125,0.1143798828125,0.3583984375
3.972,302,644,316,323,10.0,29.0,16.0,12.512206077575684,22.338865280151367,-6.652831554412842,-0.585205078125,0.2308349609375,0.402587890625
3.996,317,829,307,307,10.0,29.0,16.0,15.502928733825684,5.676269054412842,-0.9155272841453552,-0.568115234375,0.24609375,0.328857421875
3.996,304,759,314,321,10.0,29.0,16.0,2.685546636581421,2.25830078125,-0.6103515625,-0.58740234375,0.1900634765625,0.230224609375
4.002,306,767,313,318,10.0,29.0,16.0,2.685546636581421,2.25830078125,-0.6103515625,-0.634765625,0.0904541015625,0.120361328125
4.016,326,891,331,318,10.0,29.0,16.0,-8.23974609375,-0.54931640625,1.4038084745407104,-0.6650390625,0.0416259765625,0.017578125
4.024,388,1262,420,328,10.0,29.0,16.0,-8.23974609375,-0.54931640625,1.4038084745407104,-0.67822265625,0.076171875,-0.0440673828125
4.035,403,1653,456,330,10.0,29.0,16.0,-2.13623046875,-4.2724609375,6.469726085662842,-0.67822265625,0.076171875,-0.0440673828125
4.052,357,2359,501,346,10.0,29.0,16.0,13.244627952575684,-13.305663108825684,13.854979515075684,-0.7529296875,0.2364501953125,-0.0631103515625
4.054,423,2627,479,336,10.0,29.0,16.0,13.244627952575684,-13.305663108825684,13.854979515075684,-0.785400390625,0.29931640625,-0.048828125
4.063,424,3048,481,347,10.0,29.0,16.0,18.06640625,-17.88330078125,15.502928733825684,-0.785400390625,0.29931640625,-0.048828125
4.077,505,3147,592,750,9.0,26.0,17.0,21.789548873901367,-29.785154342651367,10.314940452575684,-0.7294921875,0.2845458984375,0.015869140625
4.103,590,3147,713,999,9.0,26.0,17.0,21.545408248901367,-36.9873046875,4.150390625,-0.7362060546875,0.2205810546875,0.05126953125
4.104,359,3147,1129,1355,9.0,26.0,17.0,21.545408248901367,-36.9873046875,4.150390625,-0.71142578125,0.118896484375,0.053955078125
4.104,546,3147,1156,1514,9.0,26.0,17.0,19.83642578125,-42.602535247802734,-2.868652105331421,-0.71142578125,0.118896484375,0.053955078125
4.117,860,3147,1071,1713,9.0,26.0,17.0,15.014647483825684,-44.982906341552734,-10.803221702575684,-0.4893798828125,0.0032958984375,0.1124267578125
4.128,899,3147,1184,1943,9.0,26.0,17.0,10.192870140075684,-45.288082122802734,-17.578125,-0.4893798828125,0.0032958984375,0.1124267578125
4.132,906,3147,1345,2162,9.0,26.0,17.0,8.11767578125,-44.677730560302734,-20.568845748901367,-0.4361572265625,0.08251953125,0.13525390625
4.157,2062,3147,1056,2089,9.0,26.0,17.0,5.981444835662842,-41.870113372802734,-18.798828125,-0.75341796875,0.4183349609375,0.001953125
4.158,2178,3147,465,360,9.0,26.0,17.0,1.2817381620407104,-35.15625,-12.145995140075684,-0.75341796875,0.4183349609375,0.001953125
4.161,378,3147,2318,3068,9.0,26.0,17.0,-3.356933355331421,-27.404783248901367,-2.807616949081421,-1.127197265625,0.507568359375,-0.0372314453125
4.177,364,3147,2435,3147,10.0,27.0,21.0,-7.019042491912842,-22.766111373901367,5.371093273162842,-1.7423095703125,0.4044189453125,0.0855712890625
4.196,369,3147,2484,3147,10.0,27.0,21.0,-11.840819358825684,-21.118162155151367,10.070799827575684,-1.7423095703125,0.4044189453125,0.0855712890625
4.196,364,3147,2507,3147,10.0,27.0,21.0,-12.145995140075684,-18.1884765625,12.695311546325684,-1.928466796875,0.3382568359375,0.1343994140625
4.210,364,3147,2492,3147,10.0,27.0,21.0,-3.967284917831421,-13.244627952575684,15.380858421325684,-2.1021728515625,0.0780029296875,0.196044921875
4.214,364,3147,2418,3147,10.0,27.0,21.0,6.530761241912842,-7.690429210662842,16.90673828125,-2.1021728515625,0.0780029296875,0.196044921875
4.221,361,3147,2375,3147,10.0,27.0,21.0,12.451170921325684,0.1220703050494194,17.27294921875,-1.7711181640625,0.00048828125,0.056396484375
4.235,359,3147,2384,3147,10.0,27.0,21.0,13.488768577575684,11.047362327575684,17.02880859375,-1.0089111328125,0.8304443359375,-0.1092529296875
4.258,359,3147,2381,3147,10.0,27.0,21.0,8.6669921875,20.751951217651367,12.756346702575684,-1.0089111328125,0.8304443359375,-0.1092529296875
4.259,354,3147,2334,3147,10.0,27.0,21.0,-9.521484375,23.742673873901367,1.8310545682907104,-1.368408203125,0.94921875,0.0396728515625
4.266,355,3147,2220,2886,10.0,27.0,21.0,-34.3017578125,21.301267623901367,-11.169432640075684,-2.0126953125,-0.0423583984375,0.20556640625
4.273,354,3147,2145,2652,10.0,26.0,17.0,-42.724605560302734,16.6015625,-16.2353515625,-2.0126953125,-0.0423583984375,0.20556640625
4.282,346,3147,2030,2207,10.0,26.0,17.0,-25.573728561401367,10.986327171325684,-9.765625,-1.8673095703125,-0.1724853515625,0.1810302734375
4.298,352,3147,1796,1739,10.0,26.0,17.0,1.03759765625,6.469726085662842,2.50244140625,-1.246337890625,0.193115234375,0.1214599609375
4.304,346,3147,1669,1429,10.0,26.0,17.0,19.47021484375,6.042479991912842,12.939452171325684,-1.246337890625,0.193115234375,0.1214599609375
4.313,336,3147,1561,1145,10.0,26.0,17.0,28.320310592651367,10.314940452575684,18.06640625,-0.997314453125,0.2840576171875,0.0478515625
4.326,332,3147,1239,513,10.0,26.0,17.0,32.2265625,15.991209983825684,18.1884765625,-0.6983642578125,0.40966796875,-0.123291015625
4.334,328,3065,1010,381,10.0,26.0,17.0,30.883787155151367,20.324705123901367,14.343260765075684,-0.6983642578125,0.40966796875,-0.123291015625
4.342,322,2652,790,371,10.0,26.0,17.0,21.179197311401367,23.864744186401367,6.469726085662842,-0.5745849609375,0.445068359375,-0.2633056640625
4.364,316,1636,632,347,10.0,26.0,17.0,3.112792730331421,27.648923873901367,-4.08935546875,-0.477294921875,0.3548583984375,-0.36962890625
4.364,316,1241,553,344,9.0,29.0,15.0,-16.17431640625,29.785154342651367,-13.000487327575684,-0.477294921875,0.3548583984375,-0.36962890625
4.372,308,905,426,345,9.0,29.0,15.0,-27.893064498901367,27.404783248901367,-17.2119140625,-0.5201416015625,0.216796875,-0.2451171875
4.388,306,582,317,316,9.0,29.0,15.0,-30.883787155151367,20.751951217651367,-18.24951171875,-0.589599609375,-0.0013427734375,0.135009765625
4.400,304,584,316,321,9.0,29.0,15.0,-28.259275436401367,13.793944358825684,-17.822265625,-0.589599609375,-0.0013427734375,0.135009765625
4.402,302,603,316,321,9.0,29.0,15.0,-23.376462936401367,10.253905296325684,-14.770506858825684,-0.5985107421875,0.010498046875,0.226318359375
4.416,306,660,316,323,9.0,29.0,15.0,-18.73779296875,9.27734375,-8.1787109375,-0.5780029296875,0.1531982421875,0.3203125
4.424,308,702,308,307,9.0,29.0,15.0,-14.404295921325684,7.202147960662842,-0.3662109076976776,-0.5780029296875,0.1531982421875,0.3203125
4.434,310,757,308,308,9.0,29.0,15.0,-10.742186546325684,2.25830078125,4.7607421875,-0.58447265625,0.1685791015625,0.365478515625
4.466,310,889,308,310,9.0,29.0,15.0,-8.544921875,-3.417968511581421,5.371093273162842,-0.6180419921875,0.0728759765625,0.2479248046875
4.467,313,827,307,308,9.0,29.0,15.0,-6.652831554412842,-6.347655773162842,2.990722417831421,-0.6180419921875,0.0728759765625,0.2479248046875
4.468,308,1003,313,318,9.0,34.0,17.0,-2.868652105331421,-6.408690929412842,0.7324218153953552,-0.63427734375,0.05322265625,0.1436767578125
4.476,315,1533,337,342,9.0,34.0,17.0,2.746581792831421,-6.042479991912842,0.4272460639476776,-0.660400390625,0.070556640625,0.0684814453125
4.484,333,1943,439,354,9.0,34.0,17.0,7.507323741912842,-6.469726085662842,2.25830078125,-0.6942138671875,0.103759765625,0.024658203125
4.505,323,2271,499,360,9.0,34.0,17.0,10.131834983825684,-7.568358898162842,5.676269054412842,-0.73095703125,0.1351318359375,0.00537109375
4.506,323,2840,620,364,9.0,34.0,17.0,11.291502952575684,-9.33837890625,10.070799827575684,-0.74267578125,0.1727294921875,0.006591796875
4.517,344,3147,668,360,9.0,34.0,17.0,11.657713890075684,-12.451170921325684,14.587401390075684,-0.6876220703125,0.197509765625,0.0169677734375
4.525,411,3147,784,589,9.0,34.0,17.0,10.681151390075684,-17.08984375,16.845703125,-0.5936279296875,0.2030029296875,0.0416259765625
4.537,364,3147,1050,1231,9.0,34.0,17.0,8.85009765625,-22.644041061401367,15.319823265075684,-0.544921875,0.185546875,0.076904296875
4.546,504,3147,1151,1443,9.0,34.0,17.0,6.835937023162842,-27.954099655151367,10.742186546325684,-0.5733642578125,0.1275634765625,0.1097412109375
4.571,413,3147,1409,1761,9.0,34.0,17.0,3.967284917831421,-31.677244186401367,4.150390625,-0.5609130859375,0.0296630859375,0.12451171875
4.571,590,3147,1529,2007,10.0,31.0,20.0,1.03759765625,-33.26416015625,-3.112792730331421,-0.456298828125,-0.029052734375,0.14404296875
4.574,1891,3147,323,423,10.0,31.0,20.0,1.4648436307907104,-33.935546875,-7.751464366912842,-0.3922119140625,0.0479736328125,0.1466064453125
4.583,923,3147,1473,2372,10.0,31.0,20.0,4.94384765625,-34.423828125,-6.896972179412842,-0.4586181640625,0.2340087890625,0.05908203125
4.606,409,3147,2195,3095,10.0,31.0,20.0,6.103515148162842,-33.02001953125,-1.03759765625,-0.6446533203125,0.441650390625,-0.0777587890625
4.606,378,3147,2347,3147,10.0,31.0,20.0,4.2724609375,-29.602048873901367,6.469726085662842,-0.9560546875,0.612548828125,-0.173583984375
4.614,376,3147,2421,3147,10.0,31.0,20.0,0.30517578125,-26.000974655151367,11.535643577575684,-1.2652587890625,0.70068359375,-0.1478271484375
4.627,376,3147,2493,3147,10.0,31.0,20.0,-8.9111328125,-24.047849655151367,11.718749046325684,-1.452880859375,0.703125,-0.0035400390625
4.634,378,3147,2563,3147,10.0,31.0,20.0,-21.667478561401367,-22.705076217651367,5.920409679412842,-1.6719970703125,0.5977783203125,0.14208984375
4.642,378,3147,2619,3147,10.0,31.0,20.0,-30.334470748901367,-17.51708984375,-3.479003667831421,-2.0054931640625,0.3955078125,0.2314453125
4.665,382,3147,2598,3147,10.0,31.0,20.0,-26.733396530151367,-9.58251953125,-9.82666015625,-2.3134765625,0.181396484375,0.2874755859375
4.673,376,3147,2484,3147,11.0,28.0,20.0,-12.451170921325684,-3.723144292831421,-7.751464366912842,-2.3509521484375,0.0225830078125,0.276611328125
4.673,373,3147,2487,3147,11.0,28.0,20.0,4.638671875,2.563476324081421,0.30517578125,-1.841796875,-0.02392578125,0.1156005859375
4.686,375,3147,2484,3147,11.0,28.0,20.0,20.202634811401367,12.573241233825684,7.934569835662842,-1.26220703125,0.27783203125,0.07958984375
4.710,375,3147,2458,3147,11.0,28.0,20.0,24.902341842651367,20.141599655151367,11.047362327575684,-1.3048095703125,0.6434326171875,0.2313232421875
4.710,371,3147,2388,3147,11.0,28.0,20.0,8.4228515625,22.888181686401367,7.690429210662842,-1.675048828125,0.52197265625,0.2900390625
4.717,371,3147,2233,3147,11.0,28.0,20.0,-10.742186546325684,24.597166061401367,1.5258787870407104,-1.8892822265625,0.228271484375,0.2176513671875
4.724,364,3147,2085,2964,11.0,28.0,20.0,-8.544921875,24.108884811401367,1.2817381620407104,-1.8179931640625,0.1689453125,0.1055908203125
4.733,362,3147,1967,2619,11.0,28.0,20.0,7.568358898162842,20.935056686401367,6.103515148162842,-1.5364990234375,0.2554931640625,0.04150390625
4.746,354,3147,1783,1980,11.0,28.0,20.0,19.47021484375,19.4091796875,7.873534679412842,-1.2562255859375,0.3070068359375,-0.0018310546875
4.782,351,3147,1679,1615,11.0,28.0,20.0,22.705076217651367,21.484373092651367,6.835937023162842,-1.06103515625,0.324951171875,-0.014404296875
4.782,347,3147,1580,1345,11.0,29.0,19.0,22.277830123901367,25.329587936401367,6.958007335662842,-0.907958984375,0.3436279296875,-0.0145263671875
4.783,334,3147,1271,855,11.0,29.0,19.0,19.47021484375,29.602048873901367,5.859374523162842,-0.7989501953125,0.341064453125,-0.035888671875
4.784,329,3147,1024,441,11.0,29.0,19.0,11.535643577575684,33.50830078125,1.03759765625,-0.716552734375,0.31201171875,-0.0726318359375
4.793,324,2935,811,378,11.0,29.0,19.0,1.2817381620407104,36.376953125,-4.21142578125,-0.60400390625,0.331298828125,-0.1822509765625
4.810,321,1996,689,352,11.0,29.0,19.0,-6.591796398162842,38.330078125,-7.324218273162842,-0.484130859375,0.370849609375,-0.314697265625
4.814,323,1681,625,359,11.0,29.0,19.0,-11.413573265075684,37.90283203125,-9.82666015625,-0.455078125,0.3333740234375,-0.3280029296875
4.822,328,976,537,336,11.0,29.0,19.0,-13.916014671325684,33.63037109375,-12.512206077575684,-0.495361328125,0.2135009765625,-0.207763671875
4.836,307,636,321,324,11.0,29.0,19.0,-13.366698265075684,26.611326217651367,-14.526366233825684,-0.53466796875,0.0860595703125,-0.0120849609375
4.844,306,678,323,328,11.0,29.0,19.0,-10.437010765075684,19.10400390625,-14.953612327575684,-0.567626953125,0.062255859375,0.1632080078125
4.852,306,457,330,328,11.0,29.0,19.0,-7.751464366912842,13.427733421325684,-13.183592796325684,-0.5902099609375,0.1092529296875,0.2711181640625
4.869,304,497,321,323,12.0,29.0,18.0,-6.286620616912842,10.070799827575684,-9.46044921875,-0.6024169921875,0.1409912109375,0.32763671875
4.874,306,568,324,330,12.0,29.0,18.0,-4.150390625,6.835937023162842,-4.7607421875,-0.600830078125,0.155517578125,0.350341796875
4.895,304,654,323,324,12.0,29.0,18.0,-0.6713866591453552,2.13623046875,-0.6713866591453552,-0.583251953125,0.1649169921875,0.31494140625
4.896,317,778,290,292,12.0,29.0,18.0,1.4038084745407104,-1.9531248807907104,1.5258787870407104,-0.5567626953125,0.13427734375,0.20703125
4.915,318,887,308,308,12.0,29.0,18.0,0.4272460639476776,-3.479003667831421,1.4038084745407104,-0.5438232421875,0.0758056640625,0.1016845703125
4.916,348,939,310,308,12.0,29.0,18.0,-0.6713866591453552,-4.94384765625,0.9155272841453552,-0.544189453125,0.040771484375,0.0477294921875
4.926,572,1455,309,307,12.0,29.0,18.0,1.03759765625,-8.30078125,1.8920897245407104,-0.5408935546875,0.0377197265625,0.017333984375
4.934,574,1948,388,315,12.0,29.0,18.0,4.5166015625,-12.329100608825684,4.7607421875,-0.5518798828125,0.0731201171875,-0.00537109375
4.942,582,2319,398,321,12.0,29.0,18.0,4.5166015625,-12.329100608825684,4.7607421875,-0.61181640625,0.1451416015625,-0.0269775390625
4.956,685,3070,447,324,11.0,34.0,14.0,9.3994140625,-18.24951171875,12.145995140075684,-0.674560546875,0.2220458984375,-0.034912109375
4.974,734,3147,473,576,11.0,34.0,14.0,9.521484375,-21.728513717651367,14.587401390075684,-0.6734619140625,0.275390625,0.009521484375
4.975,748,3147,853,883,11.0,34.0,14.0,9.521484375,-21.728513717651367,14.587401390075684,-0.6583251953125,0.2835693359375,0.102783203125
5.000,1003,3147,740,1132,11.0,34.0,14.0,7.873534679412842,-33.87451171875,10.742186546325684,-0.6556396484375,0.206787109375,0.1539306640625
5.000,644,3147,1122,1483,11.0,34.0,14.0,4.638671875,-36.56005859375,4.82177734375,-0.60400390625,0.050537109375,0.1314697265625
5.013,364,3147,1700,1755,11.0,34.0,14.0,4.638671875,-36.56005859375,4.82177734375,-0.5142822265625,-0.0594482421875,0.100830078125
5.017,519,3147,1662,1997,11.0,34.0,14.0,3.723144292831421,-34.423828125,-5.920409679412842,-0.4422607421875,-0.02880859375,0.1199951171875
5.026,785,3147,1783,2359,11.0,34.0,14.0,7.873534679412842,-36.7431640625,-7.995604991912842,-0.452880859375,0.1097412109375,0.1898193359375
5.032,497,3147,2127,2677,11.0,34.0,14.0,7.873534679412842,-36.7431640625,-7.995604991912842,-0.617919921875,0.3126220703125,0.1700439453125
5.046,400,3147,2388,3146,11.0,34.0,14.0,4.21142578125,-32.77587890625,-7.019042491912842,-0.9608154296875,0.5322265625,0.016357421875
5.054,382,3147,2472,3147,11.0,29.0,17.0,1.7089842557907104,-22.888181686401367,2.44140625,-1.34912109375,0.6778564453125,-0.121826171875
5.078,375,3147,2539,3147,11.0,29.0,17.0,1.7089842557907104,-22.888181686401367,2.44140625,-1.619384765625,0.693603515625,-0.1142578125
5.078,383,3147,2621,3147,11.0,29.0,17.0,-11.352538108825684,-12.512206077575684,18.12744140625,-1.8690185546875,0.584716796875,0.0006103515625
5.084,384,3147,2717,3147,11.0,29.0,17.0,-16.66259765625,-9.58251953125,14.770506858825684,-2.1309814453125,0.3822021484375,0.1485595703125
5.099,385,3147,2726,3147,11.0,29.0,17.0,-16.66259765625,-9.58251953125,14.770506858825684,-2.2901611328125,0.1993408203125,0.2781982421875
5.117,398,3147,2555,3147,11.0,29.0,17.0,-8.30078125,0.54931640625,2.929687261581421,-2.112060546875,0.09423828125,0.21142578125
5.118,390,3147,2554,3147,11.0,29.0,17.0,4.150390625,10.437010765075684,0.54931640625,-1.4930419921875,0.23193359375,0.0057373046875
5.122,400,3147,2568,3147,11.0,29.0,17.0,4.150390625,10.437010765075684,0.54931640625,-1.09423828125,0.704833984375,-0.0338134765625
5.137,393,3147,2532,3147,11.0,29.0,17.0,5.371093273162842,25.756834030151367,-7.812499523162842,-1.3936767578125,0.900146484375,0.0931396484375
5.144,391,3147,2492,3147,11.0,29.0,17.0,-23.376462936401367,26.794431686401367,-14.343260765075684,-1.9190673828125,0.453857421875,0.202880859375
5.154,390,3147,2415,3061,9.0,28.0,19.0,-23.376462936401367,26.794431686401367,-14.343260765075684,-1.9190673828125,0.453857421875,0.202880859375
5.182,378,3147,2215,2601,9.0,28.0,19.0,-19.4091796875,22.399900436401367,-1.4648436307907104,-1.9581298828125,-0.25048828125,0.1888427734375
5.183,361,3147,2087,2194,9.0,28.0,19.0,-19.4091796875,22.399900436401367,-1.4648436307907104,-1.574462890625,-0.0230712890625,0.0982666015625
5.183,355,3147,1931,1880,9.0,28.0,19.0,15.197752952575684,17.578125,14.587401390075684,-1.574462890625,-0.0230712890625,0.0982666015625
5.196,344,3147,1681,1195,9.0,28.0,19.0,40.405269622802734,20.202634811401367,27.770994186401367,-0.8865966796875,0.41748046875,-0.0849609375
5.216,351,3147,1533,955,9.0,28.0,19.0,40.405269622802734,20.202634811401367,27.770994186401367,-0.686279296875,0.505615234375,-0.1212158203125
5.216,352,3147,1289,497,9.0,28.0,19.0,32.71484375,24.658201217651367,23.132322311401367,-0.686279296875,0.505615234375,-0.1212158203125
5.231,348,2955,1064,383,9.0,28.0,19.0,20.812986373901367,27.893064498901367,12.695311546325684,-0.5386962890625,0.5482177734375,-0.120361328125
5.235,385,2153,725,361,9.0,28.0,19.0,-9.33837890625,35.400390625,-18.24951171875,-0.397705078125,0.4556884765625,-0.312744140625
5.244,518,1899,482,328,9.0,28.0,19.0,-9.33837890625,35.400390625,-18.24951171875,-0.4730224609375,0.3214111328125,-0.324462890625
5.251,696,1317,308,306,11.0,28.0,19.0,-18.9208984375,36.31591796875,-29.541013717651367,-0.4730224609375,0.3214111328125,-0.324462890625
5.282,532,766,308,308,11.0,28.0,19.0,-20.935056686401367,31.311033248901367,-32.16552734375,-0.6263427734375,0.1458740234375,-0.098388671875
5.282,444,574,313,308,11.0,28.0,19.0,-18.49365234375,23.498533248901367,-27.343748092651367,-0.6263427734375,0.1458740234375,-0.098388671875
5.284,309,461,354,324,11.0,28.0,19.0,-17.27294921875,15.075682640075684,-20.996091842651367,-0.62646484375,0.13134765625,0.096435546875
5.298,306,594,316,323,11.0,28.0,19.0,-18.12744140625,8.11767578125,-17.51708984375,-0.5948486328125,0.122314453125,0.3228759765625
5.319,304,579,330,326,11.0,28.0,19.0,-17.02880859375,4.69970703125,-16.78466796875,-0.5948486328125,0.122314453125,0.3228759765625
5.323,328,554,307,306,11.0,28.0,19.0,-10.681151390075684,2.563476324081421,-15.808104515075684,-0.586181640625,0.1553955078125,0.3875732421875
5.327,324,631,308,308,11.0,28.0,19.0,-2.197265625,-1.0986328125,-13.122557640075684,-0.520263671875,0.1712646484375,0.320556640625
5.339,315,673,308,308,11.0,28.0,19.0,2.38037109375,-4.5166015625,-10.437010765075684,-0.520263671875,0.1712646484375,0.320556640625
5.344,348,695,307,306,11.0,28.0,19.0,0.9765624403953552,-5.615233898162842,-9.8876953125,-0.5047607421875,0.05712890625,0.212158203125
5.358,559,976,308,308,9.0,28.0,20.0,-2.38037109375,-6.347655773162842,-9.8876953125,-0.5126953125,-0.09130859375,0.03759765625
5.365,632,1476,310,307,9.0,28.0,20.0,-2.13623046875,-8.7890625,-7.263183116912842,-0.5126953125,-0.09130859375,0.03759765625
5.388,413,2000,620,356,9.0,28.0,20.0,3.112792730331421,-11.718749046325684,-1.4038084745407104,-0.5142822265625,-0.051025390625,-0.0294189453125
5.388,707,2756,315,307,9.0,28.0,20.0,9.521484375,-14.343260765075684,5.859374523162842,-0.6717529296875,0.1668701171875,-0.035400390625
5.393,859,3147,308,308,9.0,28.0,20.0,13.854979515075684,-16.9677734375,13.671874046325684,-0.6717529296875,0.1668701171875,-0.035400390625
5.401,922,3147,308,318,9.0,28.0,20.0,15.624999046325684,-20.324705123901367,20.385740280151367,-0.6934814453125,0.2364501953125,0.00830078125
5.433,457,3147,1173,1191,9.0,28.0,20.0,14.831542015075684,-25.390623092651367,23.010251998901367,-0.6812744140625,0.189453125,0.152099609375
5.433,348,3147,1428,1494,9.0,28.0,20.0,12.329100608825684,-31.982419967651367,20.568845748901367,-0.6812744140625,0.189453125,0.152099609375
5.433,359,3147,1596,1715,9.0,28.0,20.0,8.7890625,-36.68212890625,13.183592796325684,-0.6561279296875,0.0753173828125,0.1163330078125
5.450,1439,3147,842,1675,9.0,30.0,16.0,5.859374523162842,-37.90283203125,2.868652105331421,-0.471435546875,0.0440673828125,0.08154296875
5.453,1715,3147,336,587,9.0,30.0,16.0,7.568358898162842,-39.00146484375,-7.324218273162842,-0.471435546875,0.0440673828125,0.08154296875
5.461,423,3147,2110,2569,9.0,30.0,16.0,12.451170921325684,-41.809078216552734,-15.197752952575684,-0.479248046875,0.2080078125,0.1192626953125
5.489,401,3147,2312,3058,9.0,30.0,16.0,14.587401390075684,-42.114253997802734,-17.578125,-0.682373046875,0.4825439453125,0.0364990234375
5.489,376,3147,2419,3147,9.0,30.0,16.0,10.498045921325684,-36.19384765625,-10.620116233825684,-1.0311279296875,0.6905517578125,-0.130859375
5.491,398,3147,2472,3147,9.0,30.0,16.0,0.1831054538488388,-27.221677780151367,2.807616949081421,-1.3580322265625,0.66357421875,-0.1873779296875
5.506,404,3147,2544,3147,9.0,30.0,16.0,-11.657713890075684,-20.324705123901367,13.977049827575684,-1.637939453125,0.5235595703125,-0.0877685546875
5.529,408,3147,2581,3147,9.0,30.0,16.0,-17.51708984375,-15.808104515075684,19.6533203125,-1.9197998046875,0.3880615234375,0.1068115234375
5.529,400,3147,2590,3147,9.0,30.0,16.0,-15.502928733825684,-11.779784202575684,20.935056686401367,-2.1640625,0.233642578125,0.302734375
5.535,409,3147,2479,3147,9.0,30.0,16.0,-10.498045921325684,-6.835937023162842,18.798828125,-2.28564453125,0.1002197265625,0.4207763671875
5.545,382,3147,2484,3147,12.0,28.0,18.0,-5.493163585662842,2.50244140625,16.54052734375,-1.967041015625,0.0084228515625,0.3033447265625
5.551,378,3147,2489,3147,12.0,28.0,18.0,3.601073980331421,17.578125,15.197752952575684,-1.3173828125,0.2147216796875,0.08203125
5.565,375,3147,2448,3147,12.0,28.0,18.0,12.084959983825684,30.029294967651367,12.756346702575684,-1.1351318359375,0.7501220703125,0.0484619140625
5.589,374,3147,2409,3147,12.0,28.0,18.0,0.9765624403953552,33.26416015625,7.934569835662842,-1.5467529296875,0.885009765625,0.1053466796875
5.590,361,3147,2340,3147,12.0,28.0,18.0,-26.367185592651367,32.65380859375,2.01416015625,-1.9368896484375,0.418701171875,0.1292724609375
5.595,373,3147,2167,2859,12.0,28.0,18.0,-36.80419921875,30.700681686401367,0.9765624403953552,-1.99169921875,-0.02978515625,0.1409912109375
5.607,402,3147,2024,2492,12.0,28.0,18.0,-17.2119140625,25.329587936401367,7.446288585662842,-1.7596435546875,-0.0784912109375,0.14453125
5.611,379,3147,1912,2144,12.0,28.0,18.0,12.512206077575684,20.874021530151367,16.845703125,-1.40380859375,0.15185546875,0.0994873046875
5.638,360,3147,1704,1483,12.0,28.0,18.0,31.188962936401367,21.972654342651367,23.803709030151367,-1.07421875,0.328125,0.01025390625
5.638,361,3147,1548,1173,12.0,28.0,18.0,34.24072265625,26.367185592651367,26.306150436401367,-0.841552734375,0.3695068359375,-0.0599365234375
5.641,361,3147,1349,829,9.0,28.0,17.0,28.442380905151367,31.005857467651367,23.986814498901367,-0.6846923828125,0.385986328125,-0.0966796875
5.655,411,3020,995,378,9.0,28.0,17.0,19.95849609375,33.935546875,16.7236328125,-0.5595703125,0.4091796875,-0.1390380859375
5.664,468,2541,767,356,9.0,28.0,17.0,10.803221702575684,35.400390625,5.249022960662842,-0.459228515625,0.4398193359375,-0.250244140625
5.672,540,2166,546,347,9.0,28.0,17.0,1.4038084745407104,36.865234375,-7.568358898162842,-0.440673828125,0.417724609375,-0.3377685546875
5.694,725,1646,312,309,9.0,28.0,17.0,-7.324218273162842,36.2548828125,-17.51708984375,-0.5130615234375,0.3355712890625,-0.3056640625
5.694,660,1316,308,308,9.0,28.0,17.0,-13.916014671325684,31.433103561401367,-21.911619186401367,-0.58349609375,0.2237548828125,-0.1866455078125
5.701,600,947,308,308,9.0,28.0,17.0,-17.51708984375,24.047849655151367,-21.667478561401367,-0.6083984375,0.128173828125,-0.0235595703125
5.715,328,631,465,331,9.0,28.0,17.0,-16.78466796875,17.39501953125,-18.61572265625,-0.6058349609375,0.1077880859375,0.1214599609375
5.740,416,616,307,310,9.0,28.0,17.0,-12.634276390075684,13.366698265075684,-13.549803733825684,-0.594482421875,0.13818359375,0.21875
5.740,313,653,365,330,9.0,28.0,17.0,-7.629394054412842,11.108397483825684,-7.812499523162842,-0.5816650390625,0.1800537109375,0.2767333984375
5.745,316,790,333,323,9.0,30.0,22.0,-3.723144292831421,7.995604991912842,-3.356933355331421,-0.56787109375,0.1953125,0.3304443359375
5.753,417,841,308,308,9.0,30.0,22.0,-1.5869139432907104,2.563476324081421,-1.8310545682907104,-0.55810546875,0.1864013671875,0.3594970703125
5.761,523,962,315,308,9.0,30.0,22.0,-1.5258787870407104,-2.563476324081421,-2.685546636581421,-0.5567626953125,0.1610107421875,0.307373046875
5.775,614,1428,316,309,9.0,30.0,22.0,-2.44140625,-4.21142578125,-4.0283203125,-0.5831298828125,0.123779296875,0.2049560546875
5.798,654,1659,318,310,9.0,30.0,22.0,-2.197265625,-4.0283203125,-3.845214605331421,-0.6412353515625,0.10986328125,0.1083984375
5.798,679,1867,317,310,9.0,30.0,22.0,-0.6103515625,-4.69970703125,-0.4882812201976776,-0.712158203125,0.125,0.0157470703125
5.805,697,2482,324,310,9.0,30.0,22.0,0.6713866591453552,-6.530761241912842,5.126952648162842,-0.7642822265625,0.1497802734375,-0.04638671875
5.816,334,2651,748,371,9.0,30.0,22.0,0.8544921278953552,-9.521484375,10.559081077575684,-0.7684326171875,0.160400390625,-0.0455322265625
5.834,370,2944,803,371,9.0,30.0,22.0,1.5258787870407104,-14.038084983825684,13.671874046325684,-0.73095703125,0.17041015625,-0.0009765625
5.835,499,3147,907,666,9.0,32.0,15.0,3.784179449081421,-19.22607421875,14.587401390075684,-0.693115234375,0.1968994140625,0.0430908203125
5.848,442,3147,1117,916,9.0,32.0,15.0,6.591796398162842,-24.047849655151367,13.732909202575684,-0.7076416015625,0.218017578125,0.070068359375
5.851,439,3147,1267,1282,9.0,32.0,15.0,6.286620616912842,-28.259275436401367,10.681151390075684,-0.7161865234375,0.17578125,0.090087890625
5.865,430,3147,1550,1609,9.0,32.0,15.0,2.3193359375,-31.616209030151367,5.371093273162842,-0.614501953125,0.0494384765625,0.0921630859375
5.874,360,3147,1756,1914,9.0,32.0,15.0,1.7089842557907104,-34.85107421875,-0.6103515625,-0.4757080078125,-0.024658203125,0.090576171875
5.899,387,3147,1880,2186,9.0,32.0,15.0,7.934569835662842,-39.36767578125,-5.249022960662842,-0.4200439453125,0.101806640625,0.0859375
5.900,414,3147,2075,2650,9.0,32.0,15.0,14.099120140075684,-42.968746185302734,-7.690429210662842,-0.43408203125,0.3587646484375,0.0252685546875
5.903,391,3147,2217,2925,9.0,32.0,15.0,12.207030296325684,-41.748043060302734,-9.521484375,-0.510986328125,0.5599365234375,-0.0823974609375
5.951,426,3147,2295,3147,9.0,32.0,15.0,1.7700194120407104,-35.5224609375,-11.596678733825684,-0.689697265625,0.6141357421875,-0.2083740234375
5.951,400,3147,2430,3147,9.0,32.0,15.0,-11.413573265075684,-28.381345748901367,-12.573241233825684,-0.9627685546875,0.5450439453125,-0.276611328125
5.951,390,3147,2530,3147,11.0,29.0,20.0,-21.240232467651367,-24.230955123901367,-12.084959983825684,-1.32177734375,0.51220703125,-0.193115234375
5.954,390,3147,2608,3147,11.0,29.0,20.0,-21.240232467651367,-24.230955123901367,-12.084959983825684,-1.6741943359375,0.579833984375,0.0028076171875
5.955,391,3147,2679,3147,11.0,29.0,20.0,-27.404783248901367,-20.568845748901367,-3.234863042831421,-1.984619140625,0.5157470703125,0.2454833984375
5.963,391,3147,2691,3147,11.0,29.0,20.0,-24.108884811401367,-16.9677734375,2.01416015625,-2.235595703125,0.2281494140625,0.4595947265625
5.972,375,3147,2633,3147,11.0,29.0,20.0,-24.108884811401367,-16.9677734375,2.01416015625,-2.2762451171875,-0.1240234375,0.5291748046875
6.001,383,3147,2527,3147,11.0,29.0,20.0,-13.793944358825684,1.03759765625,8.11767578125,-1.890380859375,-0.234130859375,0.2547607421875
6.001,376,3147,2555,3147,11.0,29.0,20.0,3.112792730331421,17.578125,10.681151390075684,-1.2861328125,0.2261962890625,-0.074951171875
6.001,359,3147,2576,3147,11.0,29.0,20.0,3.112792730331421,17.578125,10.681151390075684,-1.1937255859375,0.8804931640625,-0.0693359375
6.015,374,3147,2538,3147,11.0,29.0,20.0,14.526366233825684,26.062009811401367,-0.0610351525247097,-1.62451171875,0.9207763671875,0.07373046875
6.023,372,3147,2489,3147,11.0,29.0,20.0,-10.314940452575684,22.460935592651367,-12.512206077575684,-1.9744873046875,0.4017333984375,0.156005859375
6.040,372,3147,2418,3147,10.0,29.0,12.0,-10.314940452575684,22.460935592651367,-12.512206077575684,-1.98486328125,0.0103759765625,0.1578369140625
6.047,369,3147,2268,2683,10.0,29.0,12.0,3.906249761581421,15.136717796325684,-4.21142578125,-1.7191162109375,0.0166015625,0.126708984375
6.059,361,3147,2188,2217,10.0,29.0,12.0,30.029294967651367,12.695311546325684,8.11767578125,-1.3753662109375,0.2197265625,0.0845947265625
6.061,356,3147,2072,1878,10.0,29.0,12.0,30.029294967651367,12.695311546325684,8.11767578125,-1.085693359375,0.378662109375,0.0211181640625
6.076,354,3147,1860,1411,10.0,29.0,12.0,41.870113372802734,20.263669967651367,14.587401390075684,-0.8702392578125,0.460693359375,-0.037841796875
6.083,351,3147,1715,1076,10.0,29.0,12.0,33.3251953125,26.184080123901367,10.009765625,-0.7322998046875,0.4971923828125,-0.0833740234375
6.101,376,3147,1506,634,10.0,29.0,12.0,33.3251953125,26.184080123901367,10.009765625,-0.6475830078125,0.4827880859375,-0.1080322265625
6.105,377,2498,1112,375,10.0,29.0,12.0,-0.30517578125,36.2548828125,-12.878417015075684,-0.568603515625,0.4466552734375,-0.177734375
6.114,347,1943,900,363,10.0,29.0,12.0,-14.953612327575684,38.57421875,-22.827146530151367,-0.49560546875,0.3892822265625,-0.2947998046875
6.125,338,1527,740,359,10.0,29.0,12.0,-14.953612327575684,38.57421875,-22.827146530151367,-0.4892578125,0.3057861328125,-0.3126220703125
6.142,382,808,576,324,11.0,30.0,13.0,-25.756834030151367,31.005857467651367,-29.235837936401367,-0.5352783203125,0.1778564453125,-0.196044921875
6.144,348,532,485,306,11.0,30.0,13.0,-28.320310592651367,21.423337936401367,-29.846189498901367,-0.580810546875,0.0533447265625,-0.0294189453125
6.152,327,514,398,325,11.0,30.0,13.0,-28.320310592651367,21.423337936401367,-29.846189498901367,-0.619140625,0.04541015625,0.103515625
6.169,313,540,308,308,11.0,30.0,13.0,-22.766111373901367,9.70458984375,-23.010251998901367,-0.631591796875,0.12548828125,0.196044921875
6.174,315,514,307,308,11.0,30.0,13.0,-16.29638671875,7.019042491912842,-15.075682640075684,-0.6170654296875,0.1927490234375,0.2650146484375
6.182,321,586,310,308,11.0,30.0,13.0,-16.29638671875,7.019042491912842,-15.075682640075684,-0.5867919921875,0.188232421875,0.3240966796875
6.204,307,546,327,324,11.0,30.0,13.0,-9.33837890625,-1.5258787870407104,-1.7089842557907104,-0.5450439453125,0.1171875,0.3271484375
6.206,301,661,313,313,11.0,30.0,13.0,-9.6435546875,-5.676269054412842,0.7324218153953552,-0.49951171875,0.00341796875,0.2509765625
6.213,346,753,318,310,11.0,30.0,13.0,-9.6435546875,-5.676269054412842,0.7324218153953552,-0.4749755859375,-0.1004638671875,0.1810302734375
6.226,360,707,328,308,11.0,30.0,16.0,-9.3994140625,-7.934569835662842,2.746581792831421,-0.4619140625,-0.1346435546875,0.14111328125
6.245,469,920,359,316,11.0,30.0,16.0,-2.50244140625,-9.8876953125,5.0048828125,-0.428466796875,-0.0885009765625,0.0889892578125
6.246,546,1516,378,316,11.0,30.0,16.0,-2.50244140625,-9.8876953125,5.0048828125,-0.396484375,0.01513671875,0.0323486328125
6.288,519,2364,572,336,11.0,30.0,16.0,13.793944358825684,-17.27294921875,8.056640625,-0.427978515625,0.145263671875,-0.013916015625
6.319,514,2851,625,338,11.0,30.0,16.0,18.5546875,-21.667478561401367,9.8876953125,-0.5548095703125,0.296142578125,-0.0411376953125
6.355,447,3147,905,371,11.0,30.0,16.0,18.5546875,-21.667478561401367,9.8876953125,-0.6561279296875,0.3956298828125,-0.0147705078125
6.375,1026,3147,840,858,11.0,30.0,16.0,16.11328125,-32.89794921875,16.845703125,-0.644287109375,0.3856201171875,0.0799560546875
6.375,1419,3147,1120,1176,11.0,30.0,16.0,16.11328125,-32.89794921875,16.845703125,-0.5770263671875,0.2886962890625,0.1436767578125
6.375,838,3147,633,1318,11.0,30.0,16.0,11.291502952575684,-40.405269622802734,14.160155296325684,-0.5770263671875,0.2886962890625,0.1436767578125
6.375,1880,3147,1478,1822,11.0,30.0,16.0,5.249022960662842,-47.546382904052734,-5.249022960662842,-0.494873046875,0.1070556640625,0.1585693359375
6.375,1973,3147,360,1951,9.0,29.0,19.0,5.249022960662842,-47.546382904052734,-5.249022960662842,-0.5025634765625,0.1781005859375,0.18603515625
6.377,508,3147,2085,2309,9.0,29.0,19.0,5.126952648162842,-47.302242279052734,-13.977049827575684,-0.5025634765625,0.1781005859375,0.18603515625
6.377,441,3147,2340,2778,9.0,29.0,19.0,3.234863042831421,-46.203609466552734,-22.827146530151367,-0.89013671875,0.4462890625,0.2467041015625
6.377,509,3147,2356,2976,9.0,29.0,19.0,3.234863042831421,-46.203609466552734,-22.827146530151367,-1.394287109375,0.45361328125,0.0006103515625
6.377,497,3147,2435,3147,9.0,29.0,19.0,-0.7324218153953552,-39.4287109375,-18.798828125,-1.394287109375,0.45361328125,0.0006103515625
6.378,460,3147,2610,3147,9.0,29.0,19.0,-13.732909202575684,-15.808104515075684,-0.6103515625,-2.1768798828125,0.0169677734375,-0.20849609375
6.444,423,3147,2684,3147,9.0,29.0,19.0,-13.732909202575684,-15.808104515075684,-0.6103515625,-2.217041015625,0.030517578125,0.026611328125
6.446,378,3147,2750,3147,9.0,29.0,19.0,-10.009765625,-12.451170921325684,9.58251953125,-2.217041015625,0.030517578125,0.026611328125
6.446,404,3147,2612,3147,9.0,29.0,19.0,11.047362327575684,-7.812499523162842,26.794431686401367,-1.8206787109375,0.2869873046875,0.3201904296875
6.446,383,3147,2567,3147,9.0,29.0,19.0,11.047362327575684,-7.812499523162842,26.794431686401367,-1.33642578125,0.529541015625,0.16552734375
6.446,383,3147,2543,3147,11.0,29.0,23.0,17.27294921875,4.150390625,28.320310592651367,-1.33642578125,0.529541015625,0.16552734375
6.447,373,3147,2557,3147,11.0,29.0,23.0,-6.774901866912842,32.40966796875,5.310058116912842,-1.082275390625,1.08544921875,-0.0369873046875
6.452,372,3147,2507,3147,11.0,29.0,23.0,-6.774901866912842,32.40966796875,5.310058116912842,-1.5955810546875,0.7554931640625,0.0775146484375
6.453,377,3147,2514,3147,11.0,29.0,23.0,-39.36767578125,36.92626953125,-14.343260765075684,-1.5955810546875,0.7554931640625,0.0775146484375
6.470,370,3147,2412,2928,11.0,29.0,23.0,-51.452632904052734,25.817869186401367,-20.996091842651367,-2.107421875,-0.2337646484375,0.188232421875
6.474,365,3147,2308,2621,11.0,29.0,23.0,-51.452632904052734,25.817869186401367,-20.996091842651367,-1.852783203125,-0.23681640625,0.2054443359375
6.486,373,3147,2214,2296,11.0,29.0,23.0,-20.385740280151367,16.11328125,-5.0048828125,-1.852783203125,-0.23681640625,0.2054443359375
6.517,363,3147,2021,1715,11.0,29.0,23.0,24.902341842651367,11.047362327575684,26.245115280151367,-1.0841064453125,0.2794189453125,0.2337646484375
6.517,364,3147,1852,1331,11.0,29.0,23.0,24.902341842651367,11.047362327575684,26.245115280151367,-1.0841064453125,0.2794189453125,0.2337646484375
6.517,355,3147,1713,1091,11.0,29.0,23.0,23.986814498901367,20.874021530151367,30.334470748901367,-0.8065185546875,0.42919921875,0.148193359375
6.526,338,3147,1437,479,10.0,29.0,17.0,13.549803733825684,32.65380859375,24.658201217651367,-0.5186767578125,0.482177734375,-0.1363525390625
6.535,337,2922,1243,376,10.0,29.0,17.0,0.7324218153953552,38.51318359375,11.718749046325684,-0.5186767578125,0.482177734375,-0.1363525390625
6.552,331,2478,978,378,10.0,29.0,17.0,-10.070799827575684,38.0859375,-4.8828125,-0.4735107421875,0.4505615234375,-0.3580322265625
6.553,332,1900,859,343,10.0,29.0,17.0,-18.798828125,35.400390625,-19.71435546875,-0.4976806640625,0.396240234375,-0.4932861328125
6.565,563,1409,314,330,10.0,29.0,17.0,-24.353025436401367,31.188962936401367,-27.160642623901367,-0.6180419921875,0.1827392578125,-0.3045654296875
6.574,656,1137,508,308,10.0,29.0,17.0,-25.024412155151367,25.146482467651367,-26.611326217651367,-0.6180419921875,0.1827392578125,-0.3045654296875
6.581,359,773,519,344,10.0,29.0,17.0,-21.728513717651367,18.37158203125,-22.216794967651367,-0.6275634765625,0.0482177734375,-0.0731201171875
6.595,315,694,365,342,10.0,29.0,17.0,-15.441893577575684,12.695311546325684,-17.7001953125,-0.6031494140625,0.0159912109375,0.264892578125
6.614,306,499,329,323,10.0,29.0,17.0,-9.33837890625,10.375975608825684,-13.671874046325684,-0.6031494140625,0.0159912109375,0.264892578125
6.614,299,651,311,306,10.0,29.0,17.0,-5.920409679412842,11.169432640075684,-9.58251953125,-0.5733642578125,0.1171875,0.331787109375
6.625,315,767,307,308,4.0,30.0,16.0,-5.371093273162842,12.145995140075684,-5.798339366912842,-0.5498046875,0.2177734375,0.3753662109375
6.635,315,846,306,308,4.0,30.0,16.0,-7.507323741912842,10.620116233825684,-2.807616949081421,-0.549072265625,0.23583984375,0.42138671875
6.645,306,998,364,336,4.0,30.0,16.0,-10.253905296325684,6.286620616912842,-1.15966796875,-0.5611572265625,0.15185546875,0.427978515625
6.656,385,1320,495,327,4.0,30.0,16.0,-10.375975608825684,2.25830078125,-0.9155272841453552,-0.569580078125,0.034912109375,0.337646484375
6.663,323,1589,591,359,4.0,30.0,16.0,-6.652831554412842,0.7934569716453552,-0.6713866591453552,-0.5789794921875,-0.0264892578125,0.177490234375
6.671,328,2019,643,369,4.0,30.0,16.0,-1.220703125,0.1831054538488388,1.3427733182907104,-0.60302734375,-0.006103515625,0.0291748046875
6.688,332,2507,698,388,4.0,30.0,16.0,3.051757574081421,-2.3193359375,5.126952648162842,-0.6595458984375,0.06298828125,-0.03662109375
6.715,356,2898,800,383,4.0,30.0,16.0,5.737304210662842,-7.385253429412842,9.765625,-0.7120361328125,0.12939453125,-0.0269775390625
6.718,336,3147,963,398,4.0,30.0,16.0,8.4228515625,-13.244627952575684,14.038084983825684,-0.71484375,0.179931640625,0.010009765625
6.718,352,3147,1226,899,9.0,29.0,19.0,13.122557640075684,-19.04296875,16.7236328125,-0.69970703125,0.2100830078125,0.064453125
6.723,364,3147,1370,1143,9.0,29.0,19.0,18.4326171875,-25.085447311401367,16.4794921875,-0.6893310546875,0.1884765625,0.113037109375
6.731,481,3147,1097,1339,9.0,29.0,19.0,20.385740280151367,-30.090330123901367,12.634276390075684,-0.6181640625,0.0911865234375,0.1385498046875
6.755,803,3147,1319,1676,9.0,29.0,19.0,19.47021484375,-33.26416015625,6.347655773162842,-0.485107421875,-0.0286865234375,0.1590576171875
6.758,1920,3147,352,683,9.0,29.0,19.0,21.240232467651367,-35.46142578125,0.0,-0.381591796875,-0.0557861328125,0.166259765625
6.761,512,3147,1880,2320,9.0,29.0,19.0,26.977537155151367,-37.78076171875,-4.94384765625,-0.4036865234375,0.0948486328125,0.1348876953125
6.775,382,3147,2330,2898,9.0,29.0,19.0,33.99658203125,-39.48974609375,-7.446288585662842,-0.59423828125,0.3812255859375,0.043212890625
6.783,377,3147,2418,3147,9.0,29.0,19.0,36.865234375,-38.4521484375,-6.652831554412842,-0.90478515625,0.6451416015625,-0.1075439453125
6.792,371,3147,2494,3147,9.0,29.0,19.0,30.639646530151367,-32.89794921875,-2.624511480331421,-1.2232666015625,0.73486328125,-0.24365234375
6.824,372,3147,2599,3147,9.0,29.0,19.0,15.930174827575684,-24.536130905151367,2.0751953125,-1.4910888671875,0.622314453125,-0.2626953125
6.824,373,3147,2607,3147,9.0,28.0,19.0,0.0610351525247097,-17.76123046875,5.126952648162842,-1.7008056640625,0.476318359375,-0.1240234375
6.824,376,3147,2688,3147,9.0,28.0,19.0,-8.60595703125,-15.075682640075684,7.263183116912842,-1.852294921875,0.3590087890625,0.10791015625
6.835,376,3147,2713,3147,9.0,28.0,19.0,-7.507323741912842,-13.854979515075684,8.1787109375,-2.0006103515625,0.231689453125,0.2935791015625
6.843,376,3147,2632,3147,9.0,28.0,19.0,-0.6713866591453552,-9.33837890625,8.23974609375,-2.087890625,0.1103515625,0.337890625
6.858,371,3147,2565,3147,9.0,28.0,19.0,7.629394054412842,0.7324218153953552,11.291502952575684,-1.8134765625,0.0531005859375,0.1702880859375
6.865,364,3147,2519,3147,9.0,28.0,19.0,15.441893577575684,14.160155296325684,15.991209983825684,-1.2301025390625,0.2967529296875,-0.0494384765625
6.873,371,3147,2514,3147,9.0,28.0,19.0,15.686034202575684,23.864744186401367,14.404295921325684,-0.9722900390625,0.8009033203125,-0.083740234375
6.881,371,3147,2490,3147,9.0,28.0,19.0,-0.7934569716453552,25.390623092651367,2.929687261581421,-1.3240966796875,0.96728515625,0.039794921875
6.896,376,3147,2391,3147,9.0,28.0,19.0,-26.489255905151367,23.315427780151367,-11.596678733825684,-1.8480224609375,0.5498046875,0.1572265625
6.922,376,3147,2320,3035,9.0,28.0,19.0,-36.1328125,21.301267623901367,-17.333984375,-2.0555419921875,0.0333251953125,0.1893310546875
6.922,376,3147,2212,2701,10.0,31.0,15.0,-19.1650390625,17.4560546875,-10.742186546325684,-1.9024658203125,-0.1234130859375,0.1878662109375
6.926,371,3147,2054,2100,10.0,31.0,15.0,7.507323741912842,12.756346702575684,1.4648436307907104,-1.5672607421875,0.061767578125,0.18212890625
6.933,370,3147,1934,1798,10.0,31.0,15.0,24.047849655151367,11.657713890075684,11.413573265075684,-1.2286376953125,0.255126953125,0.1365966796875
6.942,364,3147,1783,1447,10.0,31.0,15.0,28.198240280151367,16.845703125,16.29638671875,-0.98046875,0.306396484375,0.0262451171875
6.962,411,3147,1404,844,10.0,31.0,15.0,26.611326217651367,25.573728561401367,17.7001953125,-0.77783203125,0.326416015625,-0.0718994140625
6.965,766,3147,957,518,10.0,31.0,15.0,21.118162155151367,32.1044921875,14.770506858825684,-0.589599609375,0.385498046875,-0.12548828125
6.973,1039,2981,309,323,10.0,31.0,15.0,11.352538108825684,34.85107421875,4.82177734375,-0.4478759765625,0.46337890625,-0.2225341796875
6.988,499,2085,582,351,10.0,31.0,15.0,-1.4648436307907104,35.888671875,-9.3994140625,-0.398681640625,0.4864501953125,-0.31884765625
6.994,682,1772,409,361,10.0,31.0,15.0,-14.770506858825684,34.5458984375,-21.423337936401367,-0.4552001953125,0.4144287109375,-0.3056640625
7.002,349,1494,465,328,10.0,31.0,15.0,-26.428220748901367,29.357908248901367,-27.343748092651367,-0.54248046875,0.2530517578125,-0.19091796875
7.027,313,986,369,332,12.0,29.0,16.0,-35.21728515625,22.644041061401367,-27.954099655151367,-0.599609375,0.0701904296875,-0.0372314453125
7.027,334,763,313,318,12.0,29.0,16.0,-37.59765625,17.27294921875,-24.841306686401367,-0.6265869140625,-0.0218505859375,0.09326171875
7.033,316,656,306,307,12.0,29.0,16.0,-32.16552734375,13.610838890075684,-18.85986328125,-0.6275634765625,0.00244140625,0.1951904296875
7.048,308,598,319,328,12.0,29.0,16.0,-21.911619186401367,10.803221702575684,-11.779784202575684,-0.61767578125,0.0941162109375,0.273193359375
7.065,316,803,330,336,12.0,29.0,16.0,-11.901854515075684,8.056640625,-5.798339366912842,-0.60302734375,0.1829833984375,0.339111328125
7.067,306,793,324,334,12.0,29.0,16.0,-6.408690929412842,4.94384765625,-2.38037109375,-0.59619140625,0.20947265625,0.3876953125
7.077,305,910,316,326,12.0,29.0,16.0,-5.554198741912842,1.9531248807907104,-1.0986328125,-0.6031494140625,0.173095703125,0.36279296875
7.084,306,899,317,332,12.0,29.0,16.0,-6.408690929412842,0.7934569716453552,-0.3662109076976776,-0.615966796875,0.1075439453125,0.2587890625
7.092,306,1282,333,348,12.0,29.0,16.0,-5.981444835662842,0.54931640625,1.03759765625,-0.63037109375,0.04296875,0.1400146484375
7.106,310,1775,406,362,6.0,29.0,15.0,-2.807616949081421,-1.2817381620407104,3.784179449081421,-0.645263671875,0.00927734375,0.0350341796875
7.130,313,2128,426,378,6.0,29.0,15.0,2.624511480331421,-4.82177734375,7.751464366912842,-0.6695556640625,0.030029296875,-0.0443115234375
7.137,315,2364,454,383,6.0,29.0,15.0,7.934569835662842,-9.1552734375,12.145995140075684,-0.6929931640625,0.0797119140625,-0.091552734375
7.137,323,3071,697,404,6.0,29.0,15.0,12.268065452575684,-14.221190452575684,15.380858421325684,-0.6849365234375,0.121337890625,-0.09521484375
7.147,323,3147,865,430,6.0,29.0,15.0,16.05224609375,-20.446775436401367,16.357421875,-0.6357421875,0.1512451171875,-0.0389404296875
7.165,344,3147,989,872,6.0,29.0,15.0,20.324705123901367,-26.733396530151367,14.953612327575684,-0.614501953125,0.1651611328125,0.038330078125
7.169,376,3147,1318,1348,6.0,29.0,15.0,24.047849655151367,-31.677244186401367,11.169432640075684,-0.6507568359375,0.1571044921875,0.091796875
7.174,391,3147,1452,1608,6.0,29.0,15.0,21.972654342651367,-35.0341796875,5.615233898162842,-0.62060546875,0.0787353515625,0.1285400390625
7.183,1062,3147,1361,1878,6.0,29.0,15.0,15.258788108825684,-37.41455078125,0.30517578125,-0.5045166015625,0.0164794921875,0.17431640625
7.198,1855,3147,371,725,6.0,29.0,15.0,15.380858421325684,-39.9169921875,-0.9765624403953552,-0.447998046875,0.113525390625,0.16748046875
7.205,1970,3147,361,706,10.0,29.0,16.0,25.756834030151367,-43.762203216552734,3.845214605331421,-0.4927978515625,0.3084716796875,0.06982421875
7.234,887,3147,2026,2985,10.0,29.0,16.0,25.756834030151367,-43.762203216552734,3.845214605331421,-0.6480712890625,0.5570068359375,-0.0203857421875
7.235,2226,3147,310,346,10.0,29.0,16.0,31.127927780151367,-48.889156341552734,16.4794921875,-0.9056396484375,0.7490234375,-0.100830078125
7.235,2233,3147,334,411,10.0,29.0,16.0,12.207030296325684,-44.372554779052734,14.770506858825684,-1.1702880859375,0.752197265625,-0.15234375
7.242,487,3147,2333,3147,10.0,29.0,16.0,12.207030296325684,-44.372554779052734,14.770506858825684,-1.453857421875,0.6785888671875,-0.0931396484375
7.269,414,3147,2486,3147,10.0,29.0,16.0,-32.470703125,-25.207517623901367,-0.9765624403953552,-1.7279052734375,0.570556640625,0.0638427734375
7.270,414,3147,2527,3147,10.0,29.0,16.0,-41.442867279052734,-19.22607421875,-5.920409679412842,-1.952880859375,0.3001708984375,0.219482421875
7.272,425,3147,2568,3147,10.0,29.0,16.0,-41.442867279052734,-19.22607421875,-5.920409679412842,-2.1107177734375,0.000732421875,0.308349609375
7.289,418,3147,2456,3147,10.0,29.0,16.0,-20.996091842651367,-9.09423828125,-3.295898199081421,-2.0858154296875,-0.1417236328125,0.299560546875
7.294,416,3147,2391,3147,10.0,29.0,16.0,0.54931640625,1.5869139432907104,7.751464366912842,-1.66552734375,-0.0823974609375,0.1378173828125
7.302,424,3147,2337,3147,10.0,27.0,19.0,0.54931640625,1.5869139432907104,7.751464366912842,-1.0516357421875,0.3436279296875,0.0245361328125
7.341,420,3147,2330,3147,10.0,27.0,19.0,13.061522483825684,28.686521530151367,21.301267623901367,-0.84521484375,0.87939453125,0.0792236328125
7.341,386,3147,2325,3147,10.0,27.0,19.0,-15.014647483825684,35.400390625,9.09423828125,-1.2197265625,0.9342041015625,0.1754150390625
7.342,400,3147,2284,3147,10.0,27.0,19.0,-15.014647483825684,35.400390625,9.09423828125,-1.7822265625,0.4970703125,0.1937255859375
7.348,445,3147,2110,3143,10.0,27.0,19.0,-50.537105560302734,31.921384811401367,-14.709471702575684,-2.0645751953125,0.07666015625,0.1368408203125
7.362,458,3147,1983,2827,10.0,27.0,19.0,-28.564451217651367,24.230955123901367,-9.46044921875,-1.9742431640625,-0.0089111328125,0.0797119140625
7.366,723,3147,1599,2417,10.0,27.0,19.0,-28.564451217651367,24.230955123901367,-9.46044921875,-1.65966796875,0.1629638671875,0.081787109375
7.378,456,3147,1798,1852,10.0,27.0,19.0,15.441893577575684,13.549803733825684,7.202147960662842,-1.3031005859375,0.32373046875,0.1297607421875
7.384,442,3147,1678,1569,10.0,27.0,19.0,19.04296875,16.29638671875,10.864256858825684,-1.0545654296875,0.3280029296875,0.11181640625
7.392,378,3147,1568,1195,10.0,27.0,19.0,19.04296875,16.29638671875,10.864256858825684,-0.9130859375,0.267333984375,0.0137939453125
7.407,1328,3147,1222,644,11.0,32.0,13.0,22.583005905151367,31.738279342651367,14.404295921325684,-0.76513671875,0.2528076171875,-0.1051025390625
7.414,371,3106,980,378,11.0,32.0,13.0,22.277830123901367,35.33935546875,13.366698265075684,-0.5938720703125,0.335205078125,-0.2261962890625
7.432,345,2797,906,357,11.0,32.0,13.0,22.277830123901367,35.33935546875,13.366698265075684,-0.5938720703125,0.335205078125,-0.2261962890625
7.445,328,1863,710,360,11.0,32.0,13.0,-0.9765624403953552,33.69140625,-7.446288585662842,-0.4075927734375,0.5167236328125,-0.3486328125
7.446,344,1386,625,330,11.0,32.0,13.0,-0.9765624403953552,33.69140625,-7.446288585662842,-0.451171875,0.4163818359375,-0.2550048828125
7.454,561,1039,514,346,11.0,32.0,13.0,-17.02880859375,29.724119186401367,-20.01953125,-0.451171875,0.4163818359375,-0.2550048828125
7.482,310,631,364,328,11.0,32.0,13.0,-32.04345703125,17.15087890625,-32.470703125,-0.6085205078125,0.087890625,0.0343017578125
7.482,315,567,324,322,11.0,32.0,13.0,-32.04345703125,17.15087890625,-32.470703125,-0.6546630859375,0.0728759765625,0.1470947265625
7.484,309,525,337,321,11.0,32.0,13.0,-29.479978561401367,12.329100608825684,-29.968259811401367,-0.6546630859375,0.0728759765625,0.1470947265625
7.498,307,455,345,327,11.0,32.0,13.0,-14.831542015075684,6.164550304412842,-11.657713890075684,-0.68212890625,0.157958984375,0.2977294921875
7.504,302,493,327,324,9.0,28.0,16.0,-14.831542015075684,6.164550304412842,-11.657713890075684,-0.67919921875,0.1234130859375,0.3587646484375
7.512,308,517,332,325,9.0,28.0,16.0,-7.263183116912842,3.173827886581421,-2.868652105331421,-0.67919921875,0.1234130859375,0.3587646484375
7.535,302,562,323,323,9.0,28.0,16.0,5.432128429412842,-2.563476324081421,7.385253429412842,-0.62744140625,0.0391845703125,0.2401123046875
7.536,304,619,323,327,9.0,28.0,16.0,5.432128429412842,-2.563476324081421,7.385253429412842,-0.5828857421875,0.0244140625,0.1151123046875
7.550,306,754,321,325,9.0,28.0,16.0,8.85009765625,-3.479003667831421,10.009765625,-0.5828857421875,0.0244140625,0.1151123046875
7.556,313,1018,308,313,9.0,28.0,16.0,11.352538108825684,-6.958007335662842,9.27734375,-0.525390625,0.05517578125,0.0224609375
7.588,347,1412,308,308,9.0,28.0,16.0,11.352538108825684,-6.958007335662842,9.27734375,-0.5333251953125,0.08056640625,0.027099609375
7.631,334,1894,382,355,9.0,28.0,16.0,14.404295921325684,-10.986327171325684,7.263183116912842,-0.5333251953125,0.08056640625,0.027099609375
7.631,572,2719,306,308,9.0,28.0,16.0,23.315427780151367,-17.76123046875,8.97216796875,-0.6446533203125,0.2318115234375,0.0010986328125
7.631,316,3056,536,376,9.0,28.0,16.0,23.315427780151367,-17.76123046875,8.97216796875,-0.683349609375,0.2974853515625,-0.0126953125
7.631,346,3147,600,527,11.0,29.0,15.0,23.437498092651367,-20.751951217651367,13.610838890075684,-0.683349609375,0.2974853515625,-0.0126953125
7.631,861,3147,323,431,11.0,29.0,15.0,13.305663108825684,-31.799314498901367,12.634276390075684,-0.5994873046875,0.2127685546875,0.1136474609375
7.631,1108,3147,328,572,11.0,29.0,15.0,13.305663108825684,-31.799314498901367,12.634276390075684,-0.562255859375,0.0648193359375,0.131103515625
7.646,404,3147,1345,1600,11.0,29.0,15.0,12.145995140075684,-39.48974609375,1.8920897245407104,-0.562255859375,0.0648193359375,0.131103515625
7.647,386,3147,1662,2041,11.0,29.0,15.0,13.427733421325684,-44.799800872802734,-12.817381858825684,-0.5323486328125,0.0335693359375,0.18896484375
7.658,1829,3147,513,2244,11.0,29.0,15.0,14.587401390075684,-47.790523529052734,-26.123044967651367,-0.5323486328125,0.0335693359375,0.18896484375
7.680,895,3147,1323,2345,11.0,29.0,15.0,17.9443359375,-49.438472747802734,-33.3251953125,-0.50244140625,0.2374267578125,0.2012939453125
7.680,1641,3147,561,1478,11.0,29.0,15.0,21.301267623901367,-47.546382904052734,-33.26416015625,-0.751708984375,0.7484130859375,0.0540771484375
7.685,2330,3147,310,383,11.0,29.0,15.0,17.02880859375,-40.161128997802734,-27.954099655151367,-0.751708984375,0.7484130859375,0.0540771484375
7.693,2409,3147,426,346,11.0,29.0,15.0,2.3193359375,-30.639646530151367,-19.83642578125,-1.091552734375,0.80029296875,0.0338134765625
7.708,2541,3147,313,347,11.0,28.0,19.0,-17.578125,-22.705076217651367,-11.413573265075684,-1.7532958984375,0.485107421875,0.0545654296875
7.714,2573,3147,312,355,11.0,28.0,19.0,-32.28759765625,-14.343260765075684,-6.408690929412842,-1.7532958984375,0.485107421875,0.0545654296875
7.722,2568,3147,360,684,11.0,28.0,19.0,-37.29248046875,-5.737304210662842,-4.45556640625,-2.0526123046875,0.337158203125,0.1357421875
7.738,803,3147,2337,3147,11.0,28.0,19.0,-33.447265625,-0.8544921278953552,-3.295898199081421,-2.247314453125,-0.14208984375,0.191162109375
7.745,2539,3147,348,2133,11.0,28.0,19.0,-24.841306686401367,2.50244140625,-5.676269054412842,-2.247314453125,-0.14208984375,0.191162109375
7.764,1365,3147,1636,3147,11.0,28.0,19.0,-12.817381858825684,10.559081077575684,-7.385253429412842,-1.86572265625,-0.09521484375,-0.0426025390625
7.780,1355,3147,1239,2683,11.0,28.0,19.0,3.356933355331421,21.850584030151367,-3.356933355331421,-0.9765625,0.81591796875,-0.0126953125
7.781,1588,3147,1334,2573,11.0,28.0,19.0,7.629394054412842,27.954099655151367,-2.685546636581421,-0.9765625,0.81591796875,-0.0126953125
7.788,2505,3147,820,2100,11.0,28.0,19.0,-14.953612327575684,26.855466842651367,-12.084959983825684,-1.3997802734375,0.65234375,0.240966796875
7.816,2422,3147,401,1529,13.0,30.0,25.0,-42.663570404052734,24.963376998901367,-21.545408248901367,-2.102294921875,-0.11083984375,0.2650146484375
7.816,829,3147,1914,2571,13.0,30.0,25.0,-41.564937591552734,22.949216842651367,-18.4326171875,-2.102294921875,-0.11083984375,0.2650146484375
7.820,895,3147,1714,2202,13.0,30.0,25.0,-12.817381858825684,18.6767578125,-4.82177734375,-1.9263916015625,-0.031494140625,0.143310546875
7.841,2085,3147,310,324,13.0,30.0,25.0,16.05224609375,14.770506858825684,8.85009765625,-1.19140625,0.3077392578125,0.053955078125
7.842,1176,3147,334,391,13.0,30.0,25.0,28.259275436401367,14.282225608825684,16.7236328125,-1.19140625,0.3077392578125,0.053955078125
7.843,1838,3147,704,1163,13.0,30.0,25.0,27.404783248901367,18.61572265625,18.00537109375,-0.906494140625,0.3365478515625,0.028564453125
7.856,1584,3147,1138,674,13.0,30.0,25.0,21.850584030151367,25.390623092651367,14.099120140075684,-0.7154541015625,0.3394775390625,-0.0203857421875
7.880,1328,3147,310,307,13.0,30.0,25.0,13.122557640075684,29.907224655151367,6.652831554412842,-0.5853271484375,0.346923828125,-0.0794677734375
7.880,401,2833,987,352,13.0,30.0,25.0,0.1831054538488388,31.249998092651367,-2.990722417831421,-0.5150146484375,0.355224609375,-0.205078125
7.887,787,2047,308,306,13.0,30.0,25.0,-14.465331077575684,32.04345703125,-11.230467796325684,-0.4869384765625,0.3314208984375,-0.3399658203125
7.894,707,1560,310,308,11.0,30.0,19.0,-25.451658248901367,32.04345703125,-14.343260765075684,-0.5086669921875,0.26953125,-0.345458984375
7.902,593,1278,308,308,11.0,30.0,19.0,-28.869626998901367,29.602048873901367,-12.329100608825684,-0.5513916015625,0.1865234375,-0.2388916015625
7.918,314,678,409,330,11.0,30.0,19.0,-28.137205123901367,25.878904342651367,-9.1552734375,-0.5806884765625,0.1182861328125,-0.0692138671875
7.925,308,601,322,308,11.0,30.0,19.0,-25.878904342651367,22.399900436401367,-7.385253429412842,-0.6162109375,0.107666015625,0.10009765625
7.944,328,579,307,308,11.0,30.0,19.0,-21.972654342651367,19.34814453125,-5.676269054412842,-0.642822265625,0.134765625,0.22021484375
7.946,321,513,310,308,11.0,30.0,19.0,-16.78466796875,15.930174827575684,-2.807616949081421,-0.6539306640625,0.1461181640625,0.286865234375
7.956,310,523,319,318,11.0,30.0,19.0,-10.864256858825684,11.718749046325684,0.7934569716453552,-0.6558837890625,0.107421875,0.3350830078125
7.963,308,541,316,323,11.0,30.0,19.0,-4.39453125,5.920409679412842,4.0283203125,-0.65087890625,0.0245361328125,0.377685546875
7.983,310,648,330,324,11.0,30.0,19.0,3.967284917831421,-0.4882812201976776,6.774901866912842,-0.640380859375,-0.0450439453125,0.3406982421875
7.984,306,780,302,327,11.0,30.0,19.0,13.793944358825684,-4.39453125,10.009765625,-0.6141357421875,-0.0599365234375,0.202880859375
7.992,306,951,316,327,12.0,29.0,18.0,21.728513717651367,-5.432128429412842,14.038084983825684,-0.5789794921875,-0.0111083984375,0.0726318359375
8.007,308,1188,328,336,12.0,29.0,18.0,23.742673873901367,-5.920409679412842,17.7001953125,-0.5565185546875,0.063232421875,0.0181884765625
8.014,318,1540,402,360,12.0,29.0,18.0,20.812986373901367,-6.958007335662842,19.6533203125,-0.56201171875,0.1162109375,0.0118408203125
8.022,324,2062,466,371,12.0,29.0,18.0,17.51708984375,-8.72802734375,19.6533203125,-0.612548828125,0.1680908203125,0.012451171875
8.047,328,2585,607,391,12.0,29.0,18.0,17.51708984375,-11.474608421325684,19.34814453125,-0.7113037109375,0.2415771484375,-0.0010986328125
8.048,371,2788,694,398,12.0,29.0,18.0,19.8974609375,-15.319823265075684,20.507810592651367,-0.7777099609375,0.3131103515625,-0.0260009765625
8.052,409,3130,753,390,12.0,29.0,18.0,20.996091842651367,-20.141599655151367,20.812986373901367,-0.7420654296875,0.3486328125,-0.023681640625
8.069,383,3147,1130,867,12.0,29.0,18.0,18.6767578125,-26.000974655151367,16.9677734375,-0.6649169921875,0.332763671875,0.0299072265625
8.093,334,3147,1366,1151,12.0,29.0,18.0,16.17431640625,-32.5927734375,9.46044921875,-0.6463623046875,0.2813720703125,0.0753173828125
8.094,336,3147,1527,1328,12.0,29.0,18.0,15.258788108825684,-37.41455078125,0.9155272841453552,-0.6595458984375,0.1700439453125,0.0670166015625
8.096,361,3147,1742,1703,11.0,30.0,22.0,13.916014671325684,-39.73388671875,-7.141112804412842,-0.598876953125,0.013427734375,0.085205078125
8.105,844,3147,631,1323,11.0,30.0,22.0,13.977049827575684,-41.809078216552734,-13.061522483825684,-0.473388671875,-0.033447265625,0.1768798828125
8.112,951,3147,966,2005,11.0,30.0,22.0,18.00537109375,-45.104976654052734,-15.930174827575684,-0.399169921875,0.1014404296875,0.280517578125
8.126,537,3147,2080,2601,11.0,30.0,22.0,21.057126998901367,-47.119136810302734,-17.08984375,-0.4635009765625,0.319580078125,0.3023681640625
8.152,2354,3147,338,2316,11.0,30.0,22.0,17.822265625,-43.029781341552734,-16.66259765625,-0.697265625,0.5369873046875,0.2137451171875
8.153,1264,3147,2381,3147,11.0,30.0,22.0,9.33837890625,-32.89794921875,-12.390135765075684,-1.072998046875,0.698486328125,0.0682373046875
8.156,553,3147,2445,3147,11.0,30.0,22.0,-3.356933355331421,-22.094724655151367,-4.39453125,-1.46630859375,0.7413330078125,-0.025390625
8.164,427,3147,2580,3147,11.0,30.0,22.0,-20.446775436401367,-14.160155296325684,2.01416015625,-1.769287109375,0.60107421875,-0.0364990234375
8.172,651,3147,2368,3147,11.0,30.0,22.0,-35.888671875,-8.11767578125,2.25830078125,-2.06298828125,0.344970703125,-0.01220703125
8.196,473,3147,2581,3147,11.0,29.0,17.0,-40.344234466552734,-1.220703125,-0.7324218153953552,-2.296142578125,0.1322021484375,0.0557861328125
8.198,454,3147,2505,3147,11.0,29.0,17.0,-34.60693359375,6.103515148162842,-1.2817381620407104,-2.251953125,0.0263671875,0.1162109375
8.206,439,3147,2460,3147,11.0,29.0,17.0,-27.465818405151367,15.197752952575684,0.8544921278953552,-1.7625732421875,0.064208984375,0.0496826171875
8.217,424,3147,2465,3147,11.0,29.0,17.0,-23.437498092651367,26.916501998901367,1.6479490995407104,-1.17626953125,0.3685302734375,0.03271484375
8.224,431,3147,2435,3147,11.0,29.0,17.0,-26.367185592651367,34.7900390625,-1.5258787870407104,-1.2113037109375,0.65869140625,0.199462890625
8.233,651,3147,2180,3147,11.0,29.0,17.0,-39.48974609375,35.5224609375,-6.225585460662842,-1.712890625,0.427734375,0.31884765625
8.251,533,3147,2166,2858,11.0,29.0,17.0,-46.569820404052734,33.50830078125,-5.615233898162842,-2.025634765625,-0.0230712890625,0.2823486328125
8.254,735,3147,1848,2407,11.0,29.0,17.0,-27.160642623901367,29.968259811401367,4.45556640625,-1.9420166015625,-0.1217041015625,0.1634521484375
8.263,682,3147,1853,2104,11.0,29.0,17.0,5.981444835662842,24.536130905151367,18.1884765625,-1.62646484375,0.1092529296875,0.04345703125
8.276,1821,3147,334,481,11.0,29.0,17.0,27.954099655151367,21.179197311401367,26.916501998901367,-1.2806396484375,0.349609375,-0.0335693359375
8.299,426,3147,1623,1231,12.0,32.0,14.0,31.555173873901367,21.972654342651367,29.113767623901367,-0.9969482421875,0.4534912109375,-0.0665283203125
8.299,466,3147,737,383,12.0,32.0,14.0,23.437498092651367,24.780271530151367,26.672361373901367,-0.7978515625,0.4586181640625,-0.0872802734375
8.307,411,3147,1029,462,12.0,32.0,14.0,11.047362327575684,27.038572311401367,20.080564498901367,-0.6654052734375,0.4256591796875,-0.0970458984375
8.314,386,2780,849,369,12.0,32.0,14.0,-0.7934569716453552,27.648923873901367,9.3994140625,-0.568115234375,0.417236328125,-0.189208984375
8.322,332,2448,751,369,12.0,32.0,14.0,-10.131834983825684,28.198240280151367,-2.746581792831421,-0.494384765625,0.4134521484375,-0.330322265625
8.336,327,1557,554,344,12.0,32.0,14.0,-17.578125,28.259275436401367,-12.634276390075684,-0.4892578125,0.3603515625,-0.369384765625
8.353,324,1312,465,347,12.0,32.0,14.0,-22.705076217651367,25.390623092651367,-17.4560546875,-0.5386962890625,0.2744140625,-0.288330078125
8.353,314,958,382,336,12.0,32.0,14.0,-22.705076217651367,25.390623092651367,-17.4560546875,-0.5772705078125,0.1654052734375,-0.1151123046875
8.366,310,614,328,329,12.0,32.0,14.0,-27.709959030151367,12.390135765075684,-16.9677734375,-0.5963134765625,0.0911865234375,0.0875244140625
8.380,336,562,310,308,12.0,32.0,14.0,-26.672361373901367,6.958007335662842,-15.197752952575684,-0.6021728515625,0.0787353515625,0.25439453125
8.391,314,568,336,323,12.0,33.0,17.0,-26.672361373901367,6.958007335662842,-15.197752952575684,-0.610107421875,0.0811767578125,0.359375
8.403,332,546,308,308,12.0,33.0,17.0,-15.563963890075684,1.7089842557907104,-9.21630859375,-0.623291015625,0.0802001953125,0.42724609375
8.404,321,571,313,308,12.0,33.0,17.0,-6.347655773162842,-1.6479490995407104,-6.530761241912842,-0.63427734375,0.072998046875,0.438232421875
8.412,305,593,331,325,12.0,33.0,17.0,-6.347655773162842,-1.6479490995407104,-6.530761241912842,-0.6182861328125,0.0516357421875,0.328857421875
8.426,310,750,354,328,12.0,33.0,17.0,14.099120140075684,-8.48388671875,-3.051757574081421,-0.5726318359375,0.0308837890625,0.1468505859375
8.435,306,816,325,328,12.0,33.0,17.0,20.141599655151367,-10.009765625,-1.03759765625,-0.5345458984375,0.039306640625,0.0301513671875
8.458,306,853,316,332,12.0,33.0,17.0,20.141599655151367,-10.009765625,-1.03759765625,-0.5281982421875,0.064697265625,0.015625
8.458,313,1492,369,348,12.0,33.0,17.0,18.9208984375,-13.183592796325684,4.33349609375,-0.5548095703125,0.079833984375,0.044677734375
8.464,317,1967,425,359,12.0,33.0,17.0,18.6767578125,-15.075682640075684,6.835937023162842,-0.6097412109375,0.0980224609375,0.058837890625
8.473,318,2347,465,359,12.0,33.0,17.0,18.6767578125,-15.075682640075684,6.835937023162842,-0.68359375,0.1597900390625,0.03955078125
8.497,430,2820,625,362,12.0,30.0,19.0,26.611326217651367,-19.59228515625,13.793944358825684,-0.7294921875,0.250244140625,0.014404296875
8.497,433,3098,777,373,12.0,30.0,19.0,28.381345748901367,-23.498533248901367,15.197752952575684,-0.7030029296875,0.301513671875,0.03125
8.508,348,3147,1066,487,12.0,30.0,19.0,28.381345748901367,-23.498533248901367,15.197752952575684,-0.6583251953125,0.2783203125,0.0972900390625
8.516,364,3147,1466,922,12.0,30.0,19.0,23.010251998901367,-35.46142578125,3.234863042831421,-0.669921875,0.2010498046875,0.1419677734375
8.524,409,3147,1627,1236,12.0,30.0,19.0,21.362302780151367,-38.75732421875,-4.82177734375,-0.6746826171875,0.064208984375,0.13671875
8.532,411,3147,1770,1419,12.0,30.0,19.0,21.362302780151367,-38.75732421875,-4.82177734375,-0.605712890625,-0.0438232421875,0.1416015625
8.560,414,3147,2000,1844,12.0,30.0,19.0,20.01953125,-39.73388671875,-10.192870140075684,-0.5147705078125,0.0162353515625,0.1873779296875
