time,compression0,compression1,compression2,compression3,magn_x,magn_y,magn_z,gyro_x,gyro_y,gyro_z,accel_x,accel_y,accel_z
0.000,289,724,540,383,-8.0,41.0,3.0,-13.732909202575684,-3.723144292831421,-5.798339366912842,-0.7657470703125,0.2596435546875,-0.54443359375
0.008,289,739,526,378,-5.0,38.0,6.0,-12.451170921325684,-3.356933355331421,-5.981444835662842,-0.7657470703125,0.2596435546875,-0.54443359375
0.030,286,723,539,378,-5.0,38.0,6.0,-10.620116233825684,-3.234863042831421,-5.737304210662842,-0.7642822265625,0.27001953125,-0.5328369140625
0.035,286,707,513,373,-5.0,38.0,6.0,-8.7890625,-3.479003667831421,-5.371093273162842,-0.766845703125,0.29541015625,-0.5233154296875
0.045,282,720,512,383,-5.0,38.0,6.0,-6.774901866912842,-3.723144292831421,-4.94384765625,-0.766845703125,0.29541015625,-0.5233154296875
0.046,289,761,519,362,-5.0,38.0,6.0,-4.94384765625,-3.906249761581421,-4.94384765625,-0.7662353515625,0.299560546875,-0.5330810546875
0.069,291,815,512,386,-5.0,38.0,6.0,-4.0283203125,-3.967284917831421,-5.187987804412842,-0.7633056640625,0.29638671875,-0.543212890625
0.070,287,790,513,376,-5.0,38.0,6.0,-3.540038824081421,-4.08935546875,-5.371093273162842,-0.763671875,0.2880859375,-0.550048828125
0.077,286,815,504,387,-5.0,38.0,6.0,-2.197265625,-4.2724609375,-5.310058116912842,-0.77197265625,0.28125,-0.549072265625
0.090,289,794,508,375,-5.0,38.0,6.0,0.54931640625,-4.638671875,-5.0048828125,-0.7845458984375,0.2769775390625,-0.541748046875
0.100,290,744,518,382,-5.0,38.0,6.0,4.21142578125,-4.94384765625,-4.45556640625,-0.7962646484375,0.274658203125,-0.5360107421875
0.106,286,765,514,384,-4.0,37.0,8.0,7.385253429412842,-5.065917491912842,-3.906249761581421,-0.808349609375,0.277099609375,-0.5367431640625
0.131,286,725,506,362,-4.0,37.0,8.0,9.033203125,-5.187987804412842,-3.723144292831421,-0.8216552734375,0.2784423828125,-0.5447998046875
0.131,289,711,512,364,-4.0,37.0,8.0,9.82666015625,-5.554198741912842,-3.967284917831421,-0.82861328125,0.279296875,-0.554931640625
0.136,286,698,512,371,-4.0,37.0,8.0,10.986327171325684,-6.408690929412842,-4.150390625,-0.823974609375,0.2930908203125,-0.5635986328125
0.150,290,711,497,363,-4.0,37.0,8.0,12.451170921325684,-7.690429210662842,-4.33349609375,-0.811279296875,0.319580078125,-0.5771484375
0.177,294,721,509,361,-4.0,37.0,8.0,12.573241233825684,-9.21630859375,-4.82177734375,-0.7955322265625,0.3431396484375,-0.593994140625
0.177,291,777,497,323,-4.0,37.0,8.0,10.253905296325684,-10.620116233825684,-5.920409679412842,-0.780517578125,0.3477783203125,-0.6085205078125
0.180,290,710,499,360,-4.0,37.0,8.0,5.859374523162842,-11.901854515075684,-7.263183116912842,-0.77294921875,0.3306884765625,-0.61328125
0.188,304,744,510,321,-4.0,37.0,8.0,2.0751953125,-13.244627952575684,-8.6669921875,-0.7694091796875,0.304443359375,-0.60498046875
0.196,289,707,513,361,-4.0,37.0,8.0,1.0986328125,-14.770506858825684,-10.192870140075684,-0.76806640625,0.2913818359375,-0.5928955078125
0.210,289,680,506,362,-7.0,39.0,8.0,2.807616949081421,-16.2353515625,-11.901854515075684,-0.776123046875,0.3072509765625,-0.58642578125
0.230,304,746,521,319,-7.0,39.0,8.0,4.2724609375,-17.7001953125,-13.549803733825684,-0.790771484375,0.3294677734375,-0.5849609375
0.241,302,642,521,317,-7.0,39.0,8.0,2.990722417831421,-19.04296875,-15.075682640075684,-0.80517578125,0.329833984375,-0.573486328125
0.247,294,548,531,321,-7.0,39.0,8.0,-0.6713866591453552,-19.71435546875,-15.991209983825684,-0.8101806640625,0.311767578125,-0.5499267578125
0.284,299,564,539,334,-7.0,39.0,8.0,-5.798339366912842,-19.71435546875,-16.11328125,-0.801513671875,0.2763671875,-0.5244140625
0.285,302,526,540,328,-7.0,39.0,8.0,-10.620116233825684,-19.47021484375,-15.624999046325684,-0.7923583984375,0.23193359375,-0.5025634765625
0.286,302,563,537,318,-7.0,39.0,8.0,-13.183592796325684,-19.287109375,-14.343260765075684,-0.7908935546875,0.2027587890625,-0.48388671875
0.288,302,572,531,317,-7.0,39.0,8.0,-13.305663108825684,-18.98193359375,-12.573241233825684,-0.79248046875,0.185791015625,-0.4700927734375
0.289,302,586,537,318,-7.0,39.0,8.0,-12.145995140075684,-18.61572265625,-11.169432640075684,-0.796630859375,0.17529296875,-0.4737548828125
0.304,302,537,539,318,-2.0,37.0,9.0,-10.620116233825684,-18.24951171875,-10.681151390075684,-0.8087158203125,0.1806640625,-0.4835205078125
0.309,302,525,543,317,-2.0,37.0,9.0,-8.85009765625,-18.06640625,-10.070799827575684,-0.8232421875,0.2119140625,-0.485107421875
0.316,304,493,535,316,-2.0,37.0,9.0,-6.591796398162842,-17.9443359375,-8.72802734375,-0.8267822265625,0.2491455078125,-0.4794921875
0.342,304,506,548,316,-2.0,37.0,9.0,-4.638671875,-18.00537109375,-7.141112804412842,-0.8194580078125,0.2574462890625,-0.4681396484375
0.342,286,525,548,316,-2.0,37.0,9.0,-2.868652105331421,-18.00537109375,-5.615233898162842,-0.8114013671875,0.244384765625,-0.4599609375
0.346,302,521,543,321,-2.0,37.0,9.0,-0.4272460639476776,-17.63916015625,-3.845214605331421,-0.8077392578125,0.2330322265625,-0.4617919921875
0.360,304,512,536,319,-2.0,37.0,9.0,2.01416015625,-17.2119140625,-1.8920897245407104,-0.808349609375,0.2276611328125,-0.472412109375
0.394,304,526,538,323,-2.0,37.0,9.0,3.601073980331421,-16.9677734375,0.0,-0.8125,0.2232666015625,-0.48388671875
0.394,302,525,537,318,-2.0,37.0,9.0,3.845214605331421,-16.845703125,1.6479490995407104,-0.814697265625,0.218017578125,-0.4896240234375
0.394,302,541,535,317,-2.0,37.0,9.0,3.295898199081421,-16.7236328125,3.173827886581421,-0.8114013671875,0.215576171875,-0.48388671875
0.398,292,506,527,347,-4.0,37.0,13.0,2.563476324081421,-16.66259765625,4.33349609375,-0.8065185546875,0.210205078125,-0.46826171875
0.406,290,519,532,348,-4.0,37.0,13.0,2.0751953125,-16.66259765625,5.065917491912842,-0.801513671875,0.2027587890625,-0.4501953125
0.420,294,551,513,318,-4.0,37.0,13.0,1.9531248807907104,-16.78466796875,5.615233898162842,-0.794921875,0.20263671875,-0.4329833984375
0.438,296,561,517,328,-4.0,37.0,13.0,2.807616949081421,-16.7236328125,6.652831554412842,-0.786865234375,0.209716796875,-0.4188232421875
0.439,292,540,523,334,-4.0,37.0,13.0,5.065917491912842,-16.2353515625,8.4228515625,-0.7796630859375,0.2218017578125,-0.4144287109375
0.450,302,631,513,321,-4.0,37.0,13.0,8.11767578125,-15.136717796325684,10.925292015075684,-0.7779541015625,0.24267578125,-0.420166015625
0.459,292,706,519,349,-4.0,37.0,13.0,10.681151390075684,-13.854979515075684,13.671874046325684,-0.7811279296875,0.265869140625,-0.4266357421875
0.468,289,621,519,348,-4.0,37.0,13.0,11.657713890075684,-13.061522483825684,15.624999046325684,-0.78271484375,0.2733154296875,-0.4307861328125
0.486,282,617,514,364,-4.0,37.0,13.0,11.047362327575684,-12.939452171325684,16.29638671875,-0.7841796875,0.2681884765625,-0.43896484375
0.496,289,665,519,371,-4.0,37.0,13.0,9.765625,-13.122557640075684,15.869139671325684,-0.7930908203125,0.2685546875,-0.452880859375
0.496,286,679,521,372,-6.0,36.0,13.0,9.1552734375,-13.183592796325684,15.319823265075684,-0.804931640625,0.2886962890625,-0.4630126953125
0.510,289,705,533,357,-6.0,36.0,13.0,8.6669921875,-13.305663108825684,15.136717796325684,-0.8150634765625,0.314453125,-0.463623046875
0.518,291,801,526,385,-6.0,36.0,13.0,7.568358898162842,-13.122557640075684,15.136717796325684,-0.8289794921875,0.3209228515625,-0.45751953125
0.541,286,820,531,385,-6.0,36.0,13.0,7.568358898162842,-13.122557640075684,15.136717796325684,-0.8433837890625,0.30810546875,-0.4498291015625
0.542,289,918,527,376,-6.0,36.0,13.0,3.540038824081421,-11.108397483825684,16.29638671875,-0.853759765625,0.283447265625,-0.4415283203125
0.549,283,976,532,378,-6.0,36.0,13.0,1.6479490995407104,-9.3994140625,17.7001953125,-0.8580322265625,0.2445068359375,-0.4263916015625
0.556,302,1039,539,323,-6.0,36.0,13.0,1.6479490995407104,-9.3994140625,17.7001953125,-0.8480224609375,0.1890869140625,-0.4075927734375
0.572,300,1120,522,324,-6.0,36.0,13.0,1.7700194120407104,-7.507323741912842,20.690916061401367,-0.835205078125,0.148681640625,-0.397216796875
0.590,289,1092,519,389,-6.0,36.0,13.0,5.981444835662842,-7.934569835662842,23.193357467651367,-0.8370361328125,0.1705322265625,-0.3994140625
0.590,287,1184,526,402,-6.0,36.0,13.0,5.981444835662842,-7.934569835662842,23.193357467651367,-0.8460693359375,0.2388916015625,-0.4163818359375
0.600,289,1264,527,401,-10.0,36.0,9.0,21.057126998901367,-8.056640625,31.066892623901367,-0.8516845703125,0.308349609375,-0.4541015625
0.608,282,1370,555,428,-10.0,36.0,9.0,22.827146530151367,-6.042479991912842,34.5458984375,-0.848876953125,0.361083984375,-0.4962158203125
0.616,286,1386,551,430,-10.0,36.0,9.0,22.827146530151367,-6.042479991912842,34.5458984375,-0.8297119140625,0.3797607421875,-0.5001220703125
0.644,286,1665,532,428,-10.0,36.0,9.0,5.859374523162842,3.295898199081421,40.649410247802734,-0.7801513671875,0.3192138671875,-0.443115234375
0.644,289,1812,527,475,-10.0,36.0,9.0,-7.873534679412842,6.958007335662842,42.480464935302734,-0.7147216796875,0.1689453125,-0.355712890625
0.647,301,2111,540,387,-10.0,36.0,9.0,-7.873534679412842,6.958007335662842,42.480464935302734,-0.68115234375,0.042724609375,-0.2943115234375
0.660,286,2716,456,473,-10.0,36.0,9.0,-14.099120140075684,8.9111328125,50.537105560302734,-0.6588134765625,0.038818359375,-0.2650146484375
0.671,289,3082,465,543,-10.0,36.0,9.0,3.234863042831421,7.080077648162842,55.847164154052734,-0.607666015625,0.08740234375,-0.2164306640625
0.683,286,3147,411,757,-10.0,36.0,9.0,3.234863042831421,7.080077648162842,55.847164154052734,-0.476806640625,0.076416015625,-0.0989990234375
0.694,298,3147,376,1569,-11.0,36.0,14.0,49.133296966552734,-17.9443359375,54.077144622802734,-0.1741943359375,-0.037841796875,0.037353515625
0.698,292,3147,464,2111,-11.0,36.0,14.0,63.415523529052734,-42.724605560302734,43.518062591552734,0.1363525390625,-0.006103515625,0.0645751953125
0.706,302,3147,523,2598,-11.0,36.0,14.0,63.415523529052734,-42.724605560302734,43.518062591552734,0.2821044921875,0.460693359375,0.033935546875
0.720,302,3147,481,2954,-11.0,36.0,14.0,17.88330078125,-93.32274627685547,3.112792730331421,0.2864990234375,1.0582275390625,0.009521484375
0.728,304,3147,525,3147,-11.0,36.0,14.0,-21.423337936401367,-103.88182830810547,-20.996091842651367,-0.0264892578125,1.5062255859375,-0.3819580078125
0.747,304,3147,531,3147,-11.0,36.0,14.0,-21.423337936401367,-103.88182830810547,-20.996091842651367,-0.5587158203125,1.574462890625,-1.0255126953125
0.751,302,3147,487,3147,-11.0,36.0,14.0,-65.73486328125,-63.049312591552734,-53.955074310302734,-0.9200439453125,0.9716796875,-1.1905517578125
0.758,299,3147,497,3147,-11.0,36.0,14.0,-65.73486328125,-63.049312591552734,-53.955074310302734,-1.28759765625,0.3265380859375,-0.972412109375
0.766,292,3147,513,3147,-11.0,36.0,14.0,-98.69384002685547,-47.851558685302734,-63.171382904052734,-1.28759765625,0.3265380859375,-0.972412109375
0.788,282,3147,551,3147,-11.0,36.0,14.0,-78.18603515625,-25.512693405151367,-50.903316497802734,-2.7161865234375,0.639892578125,-0.9384765625
0.789,291,3147,578,3147,-6.0,36.0,18.0,-78.18603515625,-25.512693405151367,-50.903316497802734,-3.1214599609375,0.0185546875,-0.783447265625
0.802,295,3147,605,3147,-6.0,36.0,18.0,-52.368160247802734,-15.319823265075684,-44.616695404052734,-3.1214599609375,0.0185546875,-0.783447265625
0.810,293,3147,634,3147,-6.0,36.0,18.0,16.05224609375,-22.033689498901367,-32.958984375,-1.2904052734375,-0.8055419921875,-0.1929931640625
0.818,302,3147,631,3147,-6.0,36.0,18.0,16.05224609375,-22.033689498901367,-32.958984375,-0.8321533203125,0.593017578125,-0.58154296875
0.851,302,3147,572,3147,-6.0,36.0,18.0,40.283199310302734,-31.677244186401367,-44.128414154052734,-1.6640625,1.2774658203125,-1.0867919921875
0.851,304,3147,537,3147,-6.0,36.0,18.0,40.283199310302734,-31.677244186401367,-44.128414154052734,-1.768310546875,0.38134765625,-0.7681884765625
0.857,301,3147,548,3147,-6.0,36.0,18.0,-22.460935592651367,-31.799314498901367,-55.908199310302734,-1.768310546875,0.38134765625,-0.7681884765625
0.870,301,3147,532,3020,-6.0,36.0,18.0,-41.076656341552734,-24.108884811401367,-43.151851654052734,-1.495849609375,0.07470703125,-0.4090576171875
0.878,294,3147,497,2673,-6.0,36.0,18.0,-41.076656341552734,-24.108884811401367,-43.151851654052734,-1.276123046875,0.20751953125,-0.3551025390625
0.888,304,3147,487,2258,-6.0,34.0,17.0,-24.353025436401367,-18.9208984375,-27.038572311401367,-1.276123046875,0.20751953125,-0.3551025390625
0.909,302,3147,508,1287,-6.0,34.0,17.0,-8.056640625,-10.986327171325684,-7.873534679412842,-0.7244873046875,0.0126953125,-0.132568359375
0.911,296,3147,464,442,-6.0,34.0,17.0,-8.056640625,-10.986327171325684,-7.873534679412842,-0.4871826171875,-0.1744384765625,-0.057861328125
0.916,289,1957,487,456,-6.0,34.0,17.0,4.21142578125,-9.6435546875,-7.873534679412842,-0.4871826171875,-0.1744384765625,-0.057861328125
0.930,292,1117,423,361,-6.0,34.0,17.0,39.48974609375,-3.784179449081421,-21.972654342651367,-0.31591796875,-0.2236328125,-0.161376953125
0.952,291,733,493,371,-6.0,34.0,17.0,39.48974609375,-3.784179449081421,-21.972654342651367,-0.4598388671875,0.1380615234375,-0.230224609375
0.952,286,628,414,343,-6.0,34.0,17.0,37.78076171875,-1.5258787870407104,-25.878904342651367,-0.4598388671875,0.1380615234375,-0.230224609375
0.961,301,495,423,318,-6.0,34.0,17.0,-6.652831554412842,-0.9765624403953552,-34.3017578125,-0.6446533203125,0.5638427734375,-0.3812255859375
0.968,299,505,405,348,-6.0,34.0,17.0,-6.652831554412842,-0.9765624403953552,-34.3017578125,-0.6446533203125,0.5638427734375,-0.3812255859375
0.979,300,390,402,336,-6.0,34.0,17.0,-26.855466842651367,-0.54931640625,-35.58349609375,-0.623046875,0.5289306640625,-0.4090576171875
0.990,306,294,441,332,-5.0,33.0,18.0,-39.9169921875,-1.5869139432907104,-31.188962936401367,-0.6298828125,0.0810546875,-0.154541015625
0.999,292,330,424,334,-5.0,33.0,18.0,-46.691890716552734,-3.479003667831421,-26.733396530151367,-0.6298828125,0.0810546875,-0.154541015625
1.013,302,336,414,338,-5.0,33.0,18.0,-42.480464935302734,-3.479003667831421,-26.733396530151367,-0.6739501953125,-0.2110595703125,-0.0531005859375
1.020,305,404,391,324,-5.0,33.0,18.0,-21.545408248901367,-0.7324218153953552,-27.404783248901367,-0.7294921875,-0.2078857421875,-0.00390625
1.028,294,375,409,336,-5.0,33.0,18.0,12.512206077575684,3.051757574081421,-23.864744186401367,-0.7294921875,-0.2078857421875,-0.00390625
1.037,296,359,378,334,-5.0,33.0,18.0,46.691890716552734,5.737304210662842,-17.51708984375,-0.7174072265625,0.0101318359375,-0.0362548828125
1.059,299,387,364,316,-5.0,33.0,18.0,68.115234375,6.347655773162842,-11.718749046325684,-0.5882568359375,0.2110595703125,-0.1259765625
1.059,304,401,364,316,-5.0,33.0,18.0,73.66943359375,6.347655773162842,-5.493163585662842,-0.5882568359375,0.2110595703125,-0.1259765625
1.066,302,386,369,318,-5.0,33.0,18.0,70.3125,7.446288585662842,3.417968511581421,-0.564697265625,0.2110595703125,-0.1864013671875
1.082,302,527,356,317,-5.0,33.0,18.0,64.94140625,10.131834983825684,14.526366233825684,-0.614990234375,0.2237548828125,-0.2281494140625
1.094,302,537,347,316,-5.0,34.0,18.0,59.143062591552734,13.610838890075684,26.428220748901367,-0.614990234375,0.2237548828125,-0.2281494140625
1.096,292,536,354,347,-5.0,34.0,18.0,52.978511810302734,16.78466796875,37.41455078125,-0.593017578125,0.2135009765625,-0.1724853515625
1.110,302,594,371,315,-5.0,34.0,18.0,48.095699310302734,18.6767578125,45.288082122802734,-0.4195556640625,0.11865234375,-0.0157470703125
1.122,302,864,402,316,-5.0,34.0,18.0,48.889156341552734,18.310546875,48.400875091552734,-0.4195556640625,0.11865234375,-0.0157470703125
1.126,294,1853,411,424,-5.0,34.0,18.0,57.922359466552734,14.831542015075684,47.729488372802734,-0.230712890625,0.052001953125,0.0224609375
1.163,294,3147,347,644,-5.0,34.0,18.0,72.57080078125,7.812499523162842,47.302242279052734,0.111083984375,0.394775390625,-0.1588134765625
1.163,302,3147,360,1323,-5.0,34.0,18.0,90.75926971435547,-1.220703125,51.025386810302734,0.111083984375,0.394775390625,-0.1588134765625
1.163,306,3147,371,1700,-5.0,34.0,18.0,99.67040252685547,-10.375975608825684,50.537105560302734,0.0263671875,1.1778564453125,-0.409912109375
1.172,302,3147,371,2275,-5.0,34.0,18.0,69.39697265625,-26.489255905151367,30.273435592651367,0.127197265625,0.876220703125,-0.071533203125
1.178,306,3147,466,2587,-5.0,34.0,18.0,8.36181640625,-54.260250091552734,-6.652831554412842,0.127197265625,0.876220703125,-0.071533203125
1.186,329,3147,594,2993,-8.0,32.0,20.0,-35.21728515625,-78.857421875,-40.649410247802734,-0.1182861328125,0.571044921875,-0.057373046875
1.200,324,3147,799,3147,-8.0,32.0,20.0,-50.720211029052734,-83.31298065185547,-61.828609466552734,-0.8367919921875,0.8079833984375,-0.389404296875
1.208,356,3147,865,3147,-8.0,32.0,20.0,-68.2373046875,-70.068359375,-77.5146484375,-1.6881103515625,0.7564697265625,-0.792724609375
1.216,318,3147,963,3147,-8.0,32.0,20.0,-98.51073455810547,-49.072261810302734,-96.61864471435547,-2.3756103515625,0.03466796875,-0.880859375
1.230,321,3147,1014,3147,-8.0,32.0,20.0,-122.37548065185547,-27.526853561401367,-105.59081268310547,-2.857177734375,-0.734375,-0.7159423828125
1.238,316,3147,913,3147,-8.0,32.0,20.0,-117.43163299560547,-9.1552734375,-86.05956268310547,-3.1209716796875,-0.884521484375,-0.6495361328125
1.258,325,3147,899,3147,-8.0,32.0,20.0,-79.9560546875,4.33349609375,-43.212886810302734,-3.042724609375,-0.757568359375,-0.6629638671875
1.260,364,3147,957,3147,-8.0,32.0,20.0,-21.118162155151367,8.056640625,1.2817381620407104,-2.2147216796875,-0.8887939453125,-0.546142578125
1.268,331,3147,952,3147,-8.0,32.0,20.0,49.560543060302734,5.310058116912842,33.8134765625,-1.4486083984375,-0.10888671875,-0.5089111328125
1.276,375,3147,894,3147,-8.0,32.0,20.0,90.45409393310547,7.263183116912842,46.691890716552734,-1.5819091796875,1.2122802734375,-0.65576171875
1.299,331,3147,815,3147,-5.0,33.0,22.0,63.415523529052734,13.549803733825684,32.2265625,-1.8006591796875,1.21826171875,-0.622802734375
1.299,327,3147,740,3147,-5.0,33.0,22.0,8.23974609375,20.874021530151367,5.493163585662842,-1.685302734375,0.4744873046875,-0.44287109375
1.306,321,3147,644,3121,-5.0,33.0,22.0,-21.301267623901367,29.479978561401367,-8.60595703125,-1.48681640625,0.109130859375,-0.360107421875
1.320,310,3147,518,2504,-5.0,33.0,22.0,-20.446775436401367,35.15625,-4.94384765625,-1.3304443359375,0.060302734375,-0.4593505859375
1.335,305,3147,526,1914,-5.0,33.0,22.0,-4.2724609375,35.5224609375,5.920409679412842,-1.192626953125,0.12841796875,-0.5726318359375
1.336,313,3147,465,1370,-5.0,33.0,22.0,10.986327171325684,31.555173873901367,16.29638671875,-1.0142822265625,0.17333984375,-0.528564453125
1.350,291,3022,342,426,-5.0,33.0,22.0,18.00537109375,24.841306686401367,24.841306686401367,-0.781005859375,0.073974609375,-0.271484375
1.358,300,1806,458,386,-5.0,33.0,22.0,24.902341842651367,15.930174827575684,28.076169967651367,-0.5025634765625,-0.223388671875,0.009765625
1.366,280,1112,421,378,-5.0,33.0,22.0,43.762203216552734,11.047362327575684,22.277830123901367,-0.2711181640625,-0.4847412109375,0.0638427734375
1.390,280,802,385,328,-6.0,36.0,18.0,69.3359375,14.648436546325684,13.488768577575684,-0.1943359375,-0.3221435546875,-0.0394287109375
1.405,300,548,384,323,-6.0,36.0,18.0,79.7119140625,21.606443405151367,9.521484375,-0.3096923828125,0.2215576171875,-0.200439453125
1.406,282,416,398,345,-6.0,36.0,18.0,59.020992279052734,23.559568405151367,8.60595703125,-0.4981689453125,0.7564697265625,-0.343017578125
1.410,286,402,409,347,-6.0,36.0,18.0,12.268065452575684,16.41845703125,5.126952648162842,-0.56982421875,0.933837890625,-0.384033203125
1.418,281,430,376,346,-6.0,36.0,18.0,-37.90283203125,6.835937023162842,-1.15966796875,-0.510498046875,0.7442626953125,-0.3616943359375
1.426,289,455,382,344,-6.0,36.0,18.0,-69.82421875,2.746581792831421,-8.1787109375,-0.4420166015625,0.400390625,-0.3121337890625
1.441,287,484,375,336,-6.0,36.0,18.0,-78.55224609375,2.25830078125,-14.099120140075684,-0.4320068359375,0.077880859375,-0.231689453125
1.463,301,512,372,317,-6.0,36.0,18.0,-69.03076171875,0.9155272841453552,-16.6015625,-0.4625244140625,-0.131103515625,-0.14306640625
1.464,302,513,398,317,-6.0,36.0,18.0,-47.912593841552734,-1.15966796875,-15.197752952575684,-0.517578125,-0.210205078125,-0.124267578125
1.470,301,487,419,317,-6.0,36.0,18.0,-23.986814498901367,-1.15966796875,-11.047362327575684,-0.5810546875,-0.1717529296875,-0.1805419921875
1.478,301,497,433,318,-6.0,34.0,16.0,-5.371093273162842,1.6479490995407104,-5.371093273162842,-0.6392822265625,-0.0513916015625,-0.228515625
1.486,302,508,424,318,-6.0,34.0,16.0,3.906249761581421,5.065917491912842,1.03759765625,-0.6868896484375,0.0697021484375,-0.2391357421875
1.509,304,586,409,315,-6.0,34.0,16.0,5.676269054412842,7.507323741912842,7.446288585662842,-0.7186279296875,0.1163330078125,-0.23828125
1.509,302,624,416,321,-6.0,34.0,16.0,4.69970703125,8.72802734375,13.244627952575684,-0.7265625,0.096435546875,-0.2344970703125
1.516,281,721,414,371,-6.0,34.0,16.0,4.7607421875,9.33837890625,18.12744140625,-0.7135009765625,0.0667724609375,-0.2265625
1.530,280,1198,379,385,-6.0,34.0,16.0,7.019042491912842,9.94873046875,22.583005905151367,-0.681640625,0.07080078125,-0.2059326171875
1.538,280,1837,361,442,-6.0,34.0,16.0,10.925292015075684,10.009765625,27.038572311401367,-0.63720703125,0.1292724609375,-0.17626953125
1.546,289,2372,364,479,-6.0,34.0,16.0,16.845703125,9.33837890625,32.1044921875,-0.6181640625,0.2635498046875,-0.1832275390625
1.565,282,3147,307,523,-6.0,34.0,16.0,25.390623092651367,8.056640625,37.53662109375,-0.5684814453125,0.4097900390625,-0.212646484375
1.568,282,3147,333,1055,-6.0,34.0,16.0,31.921384811401367,4.638671875,40.527339935302734,-0.4207763671875,0.4114990234375,-0.17919921875
1.576,280,3147,332,1478,-9.0,36.0,15.0,34.72900390625,-3.234863042831421,39.97802734375,-0.1934814453125,0.37841796875,-0.015380859375
1.592,302,3147,418,2005,-9.0,36.0,15.0,35.46142578125,-18.73779296875,36.9873046875,0.15087890625,0.30859375,0.2384033203125
1.605,299,3147,495,2386,-9.0,36.0,15.0,29.846189498901367,-42.785640716552734,24.169919967651367,0.4134521484375,0.1842041015625,0.360595703125
1.607,302,3147,659,2367,-9.0,36.0,15.0,9.3994140625,-64.453125,-1.9531248807907104,0.26708984375,0.23095703125,0.21923828125
1.622,304,3147,891,3031,-9.0,36.0,15.0,-21.606443405151367,-68.42041015625,-26.367185592651367,-0.238037109375,0.4559326171875,-0.122314453125
1.628,306,3147,974,3147,-9.0,36.0,15.0,-37.04833984375,-47.119136810302734,-38.6962890625,-0.980712890625,0.7308349609375,-0.6119384765625
1.636,313,3147,1029,3147,-9.0,36.0,15.0,-39.12353515625,-13.183592796325684,-45.288082122802734,-1.7913818359375,0.840576171875,-0.9898681640625
1.670,308,3147,1065,3147,-9.0,36.0,15.0,-57.678218841552734,10.803221702575684,-51.940914154052734,-2.41845703125,0.5013427734375,-1.0694580078125
1.670,307,3147,1125,3147,-9.0,36.0,15.0,-84.47264862060547,21.728513717651367,-52.612300872802734,-2.8563232421875,-0.0157470703125,-0.9190673828125
1.671,304,3147,1039,3147,-9.0,36.0,15.0,-84.47264862060547,21.728513717651367,-52.612300872802734,-3.1041259765625,-0.3770751953125,-0.73779296875
1.680,299,3147,899,3147,-6.0,34.0,15.0,-65.73486328125,24.963376998901367,-15.258788108825684,-2.8846435546875,-0.7149658203125,-0.7681884765625
1.688,306,3147,963,3147,-6.0,34.0,15.0,-17.02880859375,15.136717796325684,8.7890625,-1.9462890625,-0.6983642578125,-0.9088134765625
1.696,306,3147,963,3147,-6.0,34.0,15.0,-17.02880859375,15.136717796325684,8.7890625,-1.310302734375,0.46826171875,-1.095703125
1.710,299,3147,864,3147,-6.0,34.0,15.0,56.701656341552734,-9.1552734375,30.090330123901367,-1.659423828125,1.622802734375,-1.115966796875
1.718,300,3147,813,3147,-6.0,34.0,15.0,16.78466796875,-13.916014671325684,8.97216796875,-2.002197265625,1.1356201171875,-0.7484130859375
1.726,295,3147,737,3147,-6.0,34.0,15.0,16.78466796875,-13.916014671325684,8.97216796875,-1.8812255859375,0.0994873046875,-0.2830810546875
1.740,291,3147,558,2803,-6.0,34.0,15.0,-36.43798828125,-4.8828125,-20.751951217651367,-1.6207275390625,-0.2152099609375,-0.0914306640625
1.749,287,3147,512,2473,-6.0,34.0,15.0,-15.197752952575684,9.82666015625,-4.638671875,-1.388427734375,0.02490234375,-0.2193603515625
1.776,289,3147,458,2083,-6.0,34.0,15.0,-15.197752952575684,9.82666015625,-4.638671875,-1.1368408203125,0.25146484375,-0.3878173828125
1.777,282,3147,378,999,-5.0,34.0,14.0,12.817381858825684,26.123044967651367,24.719236373901367,-0.8280029296875,0.2158203125,-0.417724609375
1.779,292,3142,387,490,-5.0,34.0,14.0,17.27294921875,22.949216842651367,25.634763717651367,-0.5135498046875,0.0059814453125,-0.2327880859375
1.786,291,2286,428,465,-5.0,34.0,14.0,17.27294921875,22.949216842651367,25.634763717651367,-0.244140625,-0.3492431640625,-0.0164794921875
1.810,280,887,398,347,-5.0,34.0,14.0,52.978511810302734,7.324218273162842,8.11767578125,-0.1119384765625,-0.532958984375,-0.0369873046875
1.810,280,661,424,361,-5.0,34.0,14.0,80.62743377685547,12.207030296325684,-2.25830078125,-0.1470947265625,-0.182373046875,-0.15966796875
1.817,277,463,406,352,-5.0,34.0,14.0,80.62743377685547,12.207030296325684,-2.25830078125,-0.296875,0.3533935546875,-0.2579345703125
1.830,282,400,420,346,-5.0,34.0,14.0,51.696773529052734,18.6767578125,-7.568358898162842,-0.4737548828125,0.6622314453125,-0.363525390625
1.838,289,464,468,348,-5.0,34.0,14.0,10.620116233825684,13.610838890075684,-8.544921875,-0.5537109375,0.7332763671875,-0.414306640625
1.847,289,418,461,348,-5.0,34.0,14.0,10.620116233825684,13.610838890075684,-8.544921875,-0.5357666015625,0.614501953125,-0.35791015625
1.876,292,441,456,346,-5.0,34.0,14.0,-49.621578216552734,2.0751953125,-10.437010765075684,-0.5350341796875,0.3489990234375,-0.258544921875
1.877,302,423,466,344,-7.0,33.0,16.0,-57.678218841552734,0.4882812201976776,-11.657713890075684,-0.5828857421875,0.0760498046875,-0.16259765625
1.878,286,378,464,346,-7.0,33.0,16.0,-57.678218841552734,0.4882812201976776,-11.657713890075684,-0.623779296875,-0.0738525390625,-0.074462890625
1.890,280,441,433,347,-7.0,33.0,16.0,-49.133296966552734,-1.7700194120407104,-18.5546875,-0.655517578125,-0.090576171875,-0.0335693359375
1.903,281,406,414,348,-7.0,33.0,16.0,-49.133296966552734,-1.7700194120407104,-18.5546875,-0.688232421875,0.020263671875,-0.05419921875
1.911,282,437,418,348,-7.0,33.0,16.0,-34.85107421875,-1.7089842557907104,-21.057126998901367,-0.688232421875,0.020263671875,-0.05419921875
1.920,281,478,410,348,-7.0,33.0,16.0,-6.286620616912842,0.9765624403953552,-13.366698265075684,-0.7186279296875,0.2437744140625,-0.1639404296875
1.929,282,478,418,351,-7.0,33.0,16.0,-6.286620616912842,0.9765624403953552,-13.366698265075684,-0.73046875,0.2366943359375,-0.212890625
1.936,282,442,423,353,-7.0,33.0,16.0,-1.5258787870407104,3.479003667831421,-4.7607421875,-0.73046875,0.2366943359375,-0.212890625
1.950,280,441,418,348,-7.0,33.0,16.0,6.652831554412842,8.85009765625,13.061522483825684,-0.7559814453125,0.143310546875,-0.242431640625
1.978,280,457,414,351,-7.0,33.0,16.0,6.652831554412842,8.85009765625,13.061522483825684,-0.7633056640625,0.1270751953125,-0.252685546875
1.979,280,512,411,346,-6.0,33.0,18.0,14.343260765075684,10.925292015075684,20.385740280151367,-0.7633056640625,0.1270751953125,-0.252685546875
1.980,282,711,454,371,-6.0,33.0,18.0,25.695798873901367,14.099120140075684,31.494138717651367,-0.7186279296875,0.1690673828125,-0.265869140625
1.988,286,737,423,364,-6.0,33.0,18.0,25.695798873901367,14.099120140075684,31.494138717651367,-0.640625,0.180908203125,-0.2467041015625
1.996,282,1050,424,390,-6.0,33.0,18.0,22.888181686401367,15.686034202575684,35.64453125,-0.640625,0.180908203125,-0.2467041015625
2.014,292,2278,356,413,-6.0,33.0,18.0,5.065917491912842,15.319823265075684,45.043941497802734,-0.3411865234375,-0.0240478515625,-0.1112060546875
2.018,286,2955,321,527,-6.0,33.0,18.0,5.065917491912842,15.319823265075684,45.043941497802734,-0.25732421875,-0.0743408203125,-0.0596923828125
2.026,286,3147,324,749,-6.0,33.0,18.0,10.620116233825684,12.634276390075684,53.527828216552734,-0.25732421875,-0.0743408203125,-0.0596923828125
2.040,280,3147,274,1637,-6.0,33.0,18.0,86.30370330810547,0.7934569716453552,72.44873046875,0.0970458984375,0.4422607421875,0.1524658203125
2.048,295,3147,416,2050,-6.0,33.0,18.0,86.30370330810547,0.7934569716453552,72.44873046875,0.428955078125,0.7005615234375,0.2117919921875
2.056,299,3147,698,2345,-6.0,33.0,18.0,100.03661346435547,-23.315427780151367,59.326168060302734,0.428955078125,0.7005615234375,0.2117919921875
2.080,308,3147,1064,2840,-7.0,34.0,21.0,-35.888671875,-89.53856658935547,-26.489255905151367,0.2548828125,0.5992431640625,-0.05908203125
2.080,312,3147,1103,3147,-7.0,34.0,21.0,-35.888671875,-89.53856658935547,-26.489255905151367,-0.648193359375,0.7608642578125,-0.77978515625
2.086,310,3147,1095,3147,-7.0,34.0,21.0,-64.51416015625,-80.87157440185547,-59.692378997802734,-0.648193359375,0.7608642578125,-0.77978515625
2.101,313,3147,1188,3147,-7.0,34.0,21.0,-61.828609466552734,-13.549803733825684,-87.95165252685547,-2.38916015625,0.874267578125,-1.5494384765625
2.115,310,3147,1271,3147,-7.0,34.0,21.0,-61.828609466552734,-13.549803733825684,-87.95165252685547,-3.0050048828125,0.135986328125,-1.2667236328125
2.116,315,3147,1344,3147,-7.0,34.0,21.0,-109.25292205810547,-4.39453125,-96.31346893310547,-3.0050048828125,0.135986328125,-1.2667236328125
2.131,310,3147,1233,3147,-7.0,34.0,21.0,-137.51220703125,-3.417968511581421,-82.94676971435547,-3.322265625,-1.0272216796875,-0.366455078125
2.138,313,3147,1236,3147,-7.0,34.0,21.0,-115.53954315185547,-6.347655773162842,-50.720211029052734,-3.322265625,-1.0272216796875,-0.366455078125
2.146,311,3147,1294,3147,-7.0,34.0,21.0,-48.095699310302734,-11.047362327575684,-14.892577171325684,-2.3828125,-1.26953125,-0.3580322265625
2.160,308,3147,1272,3147,-5.0,35.0,18.0,36.92626953125,-12.512206077575684,18.61572265625,-1.65234375,1.5894775390625,-0.9473876953125
2.169,307,3147,1220,3147,-5.0,35.0,18.0,76.904296875,-7.385253429412842,36.92626953125,-1.65234375,1.5894775390625,-0.9473876953125
2.192,308,3147,1143,3111,-5.0,35.0,18.0,36.31591796875,-0.6713866591453552,23.925779342651367,-2.0076904296875,1.2691650390625,-0.772216796875
2.192,308,3147,980,2785,-5.0,35.0,18.0,-23.193357467651367,3.173827886581421,-2.563476324081421,-1.5924072265625,-0.263671875,-0.0064697265625
2.198,307,3147,890,2782,-5.0,35.0,18.0,-33.69140625,8.97216796875,-9.1552734375,-1.5924072265625,-0.263671875,-0.0064697265625
2.207,300,3147,735,2417,-5.0,35.0,18.0,-3.112792730331421,18.06640625,6.713866710662842,-1.3355712890625,-0.0037841796875,-0.0703125
2.220,300,3147,518,1411,-5.0,35.0,18.0,32.2265625,27.465818405151367,25.085447311401367,-0.786865234375,0.3231201171875,-0.4248046875
2.228,291,3147,473,800,-5.0,35.0,18.0,51.147457122802734,32.53173828125,31.860349655151367,-0.786865234375,0.3231201171875,-0.4248046875
2.237,289,3084,426,495,-5.0,35.0,18.0,52.856441497802734,32.958984375,29.602048873901367,-0.46728515625,0.186767578125,-0.4091796875
2.251,301,1786,487,327,-5.0,35.0,18.0,47.607418060302734,28.991697311401367,22.888181686401367,-0.1087646484375,-0.3778076171875,-0.20947265625
2.258,291,1050,505,383,-6.0,34.0,16.0,48.339839935302734,23.010251998901367,10.925292015075684,-0.1087646484375,-0.3778076171875,-0.20947265625
2.283,296,871,470,354,-6.0,34.0,16.0,59.020992279052734,21.179197311401367,-0.1831054538488388,-0.1170654296875,-0.347412109375,-0.192626953125
2.284,300,564,424,322,-6.0,34.0,16.0,63.171382904052734,21.545408248901367,-2.746581792831421,-0.3922119140625,0.4732666015625,-0.223388671875
2.299,289,430,437,334,-6.0,34.0,16.0,46.813961029052734,17.822265625,-0.1831054538488388,-0.3922119140625,0.4732666015625,-0.223388671875
2.299,289,404,455,338,-6.0,34.0,16.0,16.7236328125,10.620116233825684,0.0,-0.5211181640625,0.6319580078125,-0.279541015625
2.322,289,416,441,346,-6.0,34.0,16.0,-15.014647483825684,5.187987804412842,-2.868652105331421,-0.5528564453125,0.490966796875,-0.2877197265625
2.323,304,487,440,317,-6.0,34.0,16.0,-40.0390625,3.906249761581421,-6.042479991912842,-0.5528564453125,0.490966796875,-0.2877197265625
2.326,280,466,454,349,-6.0,34.0,16.0,-54.443355560302734,5.310058116912842,-7.995604991912842,-0.537353515625,0.2852783203125,-0.2313232421875
2.341,286,461,402,347,-6.0,34.0,16.0,-58.898921966552734,5.859374523162842,-10.070799827575684,-0.5443115234375,0.10791015625,-0.150146484375
2.348,286,442,409,349,-6.0,34.0,16.0,-55.908199310302734,4.33349609375,-13.427733421325684,-0.5782470703125,0.0352783203125,-0.0986328125
2.356,287,456,425,353,-7.0,32.0,15.0,-46.386714935302734,2.807616949081421,-16.05224609375,-0.655029296875,0.0677490234375,-0.1116943359375
2.386,282,468,433,347,-7.0,32.0,15.0,-33.14208984375,2.50244140625,-15.808104515075684,-0.739013671875,0.1517333984375,-0.1513671875
2.387,280,482,416,354,-7.0,32.0,15.0,-21.179197311401367,2.563476324081421,-13.000487327575684,-0.7908935546875,0.2108154296875,-0.185791015625
2.388,291,508,418,354,-7.0,32.0,15.0,-12.573241233825684,2.685546636581421,-9.33837890625,-0.818603515625,0.20263671875,-0.2236328125
2.400,289,519,427,351,-7.0,32.0,15.0,-6.713866710662842,2.746581792831421,-5.920409679412842,-0.8314208984375,0.14892578125,-0.2646484375
2.425,282,673,411,359,-7.0,32.0,15.0,-2.563476324081421,3.112792730331421,-2.3193359375,-0.82275390625,0.1171875,-0.2918701171875
2.426,289,591,419,371,-7.0,32.0,15.0,0.8544921278953552,3.723144292831421,2.01416015625,-0.77392578125,0.125,-0.29931640625
2.430,280,800,403,378,-7.0,32.0,15.0,2.868652105331421,4.39453125,6.408690929412842,-0.69189453125,0.129638671875,-0.2874755859375
2.438,282,1155,416,398,-7.0,32.0,15.0,2.13623046875,5.615233898162842,10.742186546325684,-0.613037109375,0.1295166015625,-0.2567138671875
2.446,289,1695,381,442,-7.0,32.0,15.0,-0.30517578125,7.507323741912842,15.075682640075684,-0.535400390625,0.138427734375,-0.1907958984375
2.461,301,2848,356,333,-7.0,35.0,20.0,-1.0986328125,8.72802734375,20.080564498901367,-0.4307861328125,0.1268310546875,-0.100830078125
2.468,302,3147,360,614,-7.0,35.0,20.0,5.676269054412842,7.568358898162842,27.221677780151367,-0.27587890625,0.0958251953125,-0.011962890625
2.488,280,3147,275,1081,-7.0,35.0,20.0,24.291990280151367,3.295898199081421,35.15625,-0.0543212890625,0.0672607421875,0.071044921875
2.490,291,3147,473,1931,-7.0,35.0,20.0,48.156734466552734,-5.676269054412842,39.306640625,0.22216796875,0.1959228515625,0.1407470703125
2.505,294,3147,731,2202,-7.0,35.0,20.0,47.546382904052734,-23.681638717651367,32.71484375,0.4677734375,0.365234375,0.201904296875
2.506,300,3147,888,2604,-7.0,35.0,20.0,4.638671875,-47.485347747802734,14.343260765075684,0.44873046875,0.4315185546875,0.2764892578125
2.532,306,3147,1108,3147,-7.0,35.0,20.0,-40.283199310302734,-59.448238372802734,-3.601073980331421,0.0621337890625,0.5977783203125,0.238037109375
2.532,308,3147,1209,3147,-7.0,35.0,20.0,-44.311519622802734,-47.546382904052734,-15.197752952575684,-0.670654296875,0.8330078125,-0.23486328125
2.537,312,3147,1241,3147,-7.0,35.0,20.0,-24.353025436401367,-17.15087890625,-28.137205123901367,-1.606201171875,1.0367431640625,-0.99169921875
2.550,310,3147,1365,3147,-7.0,35.0,20.0,-30.639646530151367,10.986327171325684,-45.898433685302734,-2.4200439453125,0.7724609375,-1.4632568359375
2.559,314,3147,1470,3147,-2.0,36.0,19.0,-70.86181640625,23.803709030151367,-60.058589935302734,-2.9830322265625,0.0865478515625,-1.38671875
2.566,313,3147,1469,3147,-2.0,36.0,19.0,-99.06005096435547,25.512693405151367,-54.199214935302734,-3.22412109375,-0.4984130859375,-0.9842529296875
2.590,309,3147,1268,3147,-2.0,36.0,19.0,-80.93260955810547,20.080564498901367,-27.709959030151367,-3.077880859375,-0.8145751953125,-0.74560546875
2.590,308,3147,1336,3147,-2.0,36.0,19.0,-24.963376998901367,9.33837890625,6.530761241912842,-2.2818603515625,-0.887451171875,-0.694580078125
2.596,310,3147,1370,3147,-2.0,36.0,19.0,41.381832122802734,-4.7607421875,36.62109375,-1.3369140625,-0.0528564453125,-0.7572021484375
2.611,308,3147,1253,3147,-2.0,36.0,19.0,79.58984375,-12.634276390075684,49.926753997802734,-1.38916015625,1.511474609375,-0.9490966796875
2.619,306,3147,1155,3147,-2.0,36.0,19.0,52.673336029052734,-11.413573265075684,33.99658203125,-1.8760986328125,1.7152099609375,-0.9166259765625
2.628,300,3147,1095,3147,-2.0,36.0,19.0,-8.60595703125,-7.446288585662842,-0.7934569716453552,-1.906005859375,0.6217041015625,-0.5673828125
2.641,298,3147,860,3007,-2.0,36.0,19.0,-37.59765625,0.0,-19.95849609375,-1.6954345703125,-0.126953125,-0.23486328125
2.648,300,3147,777,2627,-2.0,36.0,19.0,-21.728513717651367,10.742186546325684,-11.169432640075684,-1.471435546875,-0.1319580078125,-0.1741943359375
2.656,292,3147,644,2261,-5.0,33.0,22.0,8.48388671875,20.690916061401367,10.314940452575684,-1.2510986328125,0.1614990234375,-0.314697265625
2.670,291,3147,406,1357,-5.0,33.0,22.0,30.334470748901367,25.695798873901367,26.245115280151367,-0.957275390625,0.2476806640625,-0.4073486328125
2.692,290,3147,404,761,-5.0,33.0,22.0,41.442867279052734,25.268552780151367,31.066892623901367,-0.6243896484375,0.1136474609375,-0.342529296875
2.692,286,3084,433,514,-5.0,33.0,22.0,45.227046966552734,19.775390625,30.212400436401367,-0.3167724609375,-0.1007080078125,-0.1849365234375
2.701,289,1820,419,419,-5.0,33.0,22.0,49.377437591552734,11.169432640075684,23.132322311401367,-0.086669921875,-0.4013671875,-0.093017578125
2.709,280,1233,470,410,-5.0,33.0,22.0,64.697265625,8.30078125,8.85009765625,-0.04736328125,-0.4482421875,-0.1494140625
2.723,280,972,445,383,-5.0,33.0,22.0,78.9794921875,12.084959983825684,-3.906249761581421,-0.172119140625,0.0389404296875,-0.269775390625
2.732,281,466,445,356,-5.0,33.0,22.0,63.537593841552734,12.756346702575684,-11.779784202575684,-0.34619140625,0.5802001953125,-0.3258056640625
2.738,282,439,438,346,-5.0,33.0,22.0,20.385740280151367,6.896972179412842,-18.00537109375,-0.5074462890625,0.7763671875,-0.3323974609375
2.748,282,404,439,354,-5.0,33.0,22.0,-21.972654342651367,0.1220703050494194,-20.263669967651367,-0.5843505859375,0.740966796875,-0.3497314453125
2.761,280,487,457,354,-6.0,36.0,16.0,-46.447750091552734,-3.540038824081421,-18.85986328125,-0.571533203125,0.57568359375,-0.32958984375
2.769,281,470,461,359,-6.0,36.0,16.0,-55.175777435302734,-5.249022960662842,-18.12744140625,-0.5767822265625,0.3455810546875,-0.2603759765625
2.808,282,499,455,360,-6.0,36.0,16.0,-56.579586029052734,-6.896972179412842,-18.1884765625,-0.610595703125,0.1368408203125,-0.1541748046875
2.810,280,512,432,354,-6.0,36.0,16.0,-53.161617279052734,-9.1552734375,-18.85986328125,-0.63525390625,-0.0091552734375,-0.0675048828125
2.811,279,504,437,357,-6.0,36.0,16.0,-42.175289154052734,-10.925292015075684,-18.9208984375,-0.66259765625,-0.0419921875,-0.055908203125
2.811,281,497,445,361,-6.0,36.0,16.0,-42.175289154052734,-10.925292015075684,-18.9208984375,-0.68603515625,0.0396728515625,-0.0899658203125
2.828,282,555,437,364,-6.0,36.0,16.0,-8.4228515625,-9.8876953125,-10.742186546325684,-0.6865234375,0.131103515625,-0.1265869140625
2.838,286,531,411,332,-6.0,36.0,16.0,-0.9155272841453552,-9.1552734375,-6.347655773162842,-0.667724609375,0.1336669921875,-0.155517578125
2.838,302,553,407,321,-6.0,36.0,16.0,-0.9155272841453552,-9.1552734375,-6.347655773162842,-0.6444091796875,0.0623779296875,-0.175048828125
2.850,302,691,387,321,-5.0,35.0,15.0,-1.7089842557907104,-6.958007335662842,0.9155272841453552,-0.6221923828125,-0.0089111328125,-0.184814453125
2.861,301,969,387,323,-5.0,35.0,15.0,1.7700194120407104,-4.2724609375,6.896972179412842,-0.609375,-0.0032958984375,-0.2030029296875
2.867,300,1398,376,328,-5.0,35.0,15.0,1.7700194120407104,-4.2724609375,6.896972179412842,-0.603759765625,0.0863037109375,-0.2244873046875
2.898,280,2093,328,432,-5.0,35.0,15.0,16.357421875,2.685546636581421,21.728513717651367,-0.61376953125,0.17919921875,-0.2303466796875
2.899,293,2590,337,475,-5.0,35.0,15.0,22.644041061401367,4.5166015625,28.259275436401367,-0.645263671875,0.24658203125,-0.2156982421875
2.901,280,3001,327,470,-5.0,35.0,15.0,22.644041061401367,4.5166015625,28.259275436401367,-0.6351318359375,0.22265625,-0.1622314453125
2.910,280,3147,332,790,-5.0,35.0,15.0,53.527828216552734,-5.432128429412842,34.1796875,-0.5050048828125,0.171142578125,-0.0819091796875
2.918,286,3147,424,1202,-5.0,35.0,15.0,71.96044921875,-19.83642578125,31.372068405151367,-0.1475830078125,0.29052734375,0.009521484375
2.942,292,3147,710,1652,-5.0,35.0,15.0,71.96044921875,-19.83642578125,31.372068405151367,0.2750244140625,0.4129638671875,0.1739501953125
2.942,304,3147,992,2375,-5.0,35.0,15.0,14.770506858825684,-65.12451171875,4.0283203125,0.4599609375,0.3941650390625,0.32861328125
2.949,309,3147,1268,2820,-7.0,34.0,18.0,-25.024412155151367,-73.974609375,-7.690429210662842,0.311279296875,0.4329833984375,0.2183837890625
2.956,307,3147,1278,3147,-7.0,34.0,18.0,-25.024412155151367,-73.974609375,-7.690429210662842,-0.201416015625,0.6495361328125,-0.2607421875
2.974,316,3147,1393,3147,-7.0,34.0,18.0,-21.484373092651367,-32.40966796875,-15.014647483825684,-1.0211181640625,1.0347900390625,-0.86474609375
2.978,328,3147,1546,3147,-7.0,34.0,18.0,-24.047849655151367,-8.97216796875,-21.545408248901367,-1.8616943359375,1.176513671875,-1.2344970703125
3.003,323,3147,1653,3147,-7.0,34.0,18.0,-24.047849655151367,-8.97216796875,-21.545408248901367,-2.5853271484375,0.4642333984375,-1.2620849609375
3.003,329,3147,1837,3147,-7.0,34.0,18.0,-81.66503143310547,1.6479490995407104,-44.006343841552734,-3.095458984375,-0.3304443359375,-0.9554443359375
3.009,327,3147,1826,3147,-7.0,34.0,18.0,-84.83885955810547,2.929687261581421,-39.306640625,-3.1395263671875,-0.5992431640625,-0.5496826171875
3.016,323,3147,1607,3147,-7.0,34.0,18.0,-84.83885955810547,2.929687261581421,-39.306640625,-2.704833984375,-0.757080078125,-0.4205322265625
3.038,315,3147,1480,3147,-7.0,34.0,18.0,-9.70458984375,-2.563476324081421,-0.1220703050494194,-1.7783203125,-0.6031494140625,-0.5609130859375
3.038,321,3147,1529,3147,-7.0,34.0,18.0,-9.70458984375,-2.563476324081421,-0.1220703050494194,-1.173828125,0.5257568359375,-0.8065185546875
3.046,316,3147,1483,3147,-5.0,33.0,15.0,50.842281341552734,-9.21630859375,19.6533203125,-1.173828125,0.5257568359375,-0.8065185546875
3.060,308,3147,1341,3147,-5.0,33.0,15.0,28.747556686401367,-13.916014671325684,7.019042491912842,-1.9403076171875,1.1693115234375,-0.6500244140625
3.068,306,3147,1258,3147,-5.0,33.0,15.0,28.747556686401367,-13.916014671325684,7.019042491912842,-1.92431640625,0.2052001953125,-0.302734375
3.077,308,3147,1097,3147,-5.0,33.0,15.0,-23.193357467651367,-8.6669921875,-20.263669967651367,-1.92431640625,0.2052001953125,-0.302734375
3.102,296,3147,818,2708,-5.0,33.0,15.0,-22.277830123901367,14.221190452575684,-12.145995140075684,-1.4716796875,-0.072509765625,-0.1138916015625
3.103,296,3147,706,2317,-5.0,33.0,15.0,-22.277830123901367,14.221190452575684,-12.145995140075684,-1.2410888671875,0.196533203125,-0.267822265625
3.106,289,3147,621,1914,-5.0,33.0,15.0,4.0283203125,24.597166061401367,9.033203125,-1.2410888671875,0.196533203125,-0.267822265625
3.120,291,3147,526,800,-5.0,33.0,15.0,41.442867279052734,29.724119186401367,24.169919967651367,-0.67578125,0.097412109375,-0.3363037109375
3.131,302,3147,540,485,-5.0,33.0,15.0,41.442867279052734,29.724119186401367,24.169919967651367,-0.3968505859375,-0.049072265625,-0.24853515625
3.146,291,2364,564,475,-5.0,33.0,15.0,54.199214935302734,29.357908248901367,22.949216842651367,-0.3968505859375,-0.049072265625,-0.24853515625
3.151,292,1365,555,379,-5.0,33.0,18.0,75.37841796875,26.184080123901367,4.33349609375,-0.0870361328125,-0.3878173828125,-0.1751708984375
3.158,304,856,601,324,-5.0,33.0,18.0,75.37841796875,26.184080123901367,4.33349609375,-0.1986083984375,0.0191650390625,-0.2021484375
3.166,304,659,543,308,-5.0,33.0,18.0,85.08300018310547,26.855466842651367,-6.469726085662842,-0.1986083984375,0.0191650390625,-0.2021484375
3.180,292,345,509,348,-5.0,33.0,18.0,18.49365234375,12.634276390075684,-21.606443405151367,-0.470458984375,0.6552734375,-0.27783203125
3.204,289,423,497,360,-5.0,33.0,18.0,18.49365234375,12.634276390075684,-21.606443405151367,-0.522216796875,0.5443115234375,-0.263671875
3.205,280,464,481,360,-5.0,33.0,18.0,-29.541013717651367,6.530761241912842,-26.794431686401367,-0.522216796875,0.5443115234375,-0.263671875
3.210,289,426,519,351,-5.0,33.0,18.0,-56.213375091552734,11.352538108825684,-16.2353515625,-0.5401611328125,0.2965087890625,-0.177490234375
3.218,304,514,523,318,-5.0,33.0,18.0,-56.213375091552734,11.352538108825684,-16.2353515625,-0.58740234375,0.132568359375,-0.0888671875
3.226,291,473,475,355,-5.0,33.0,18.0,-57.250972747802734,11.291502952575684,-10.009765625,-0.58740234375,0.132568359375,-0.0888671875
3.249,291,524,434,319,-5.0,36.0,17.0,-42.846675872802734,2.990722417831421,-7.080077648162842,-0.654296875,0.010986328125,-0.0657958984375
3.250,279,513,430,328,-5.0,36.0,17.0,-42.846675872802734,2.990722417831421,-7.080077648162842,-0.6927490234375,0.11572265625,-0.1439208984375
3.257,287,501,437,348,-5.0,36.0,17.0,-32.5927734375,1.3427733182907104,-7.995604991912842,-0.6927490234375,0.11572265625,-0.1439208984375
3.270,286,512,430,348,-5.0,36.0,17.0,-27.099607467651367,1.0986328125,-7.324218273162842,-0.7452392578125,0.31494140625,-0.1859130859375
3.278,286,543,424,348,-5.0,36.0,17.0,-21.606443405151367,-0.4882812201976776,-6.103515148162842,-0.7452392578125,0.31494140625,-0.1859130859375
3.286,280,598,388,359,-5.0,36.0,17.0,-12.329100608825684,-2.990722417831421,-4.94384765625,-0.726318359375,0.251953125,-0.19287109375
3.312,302,824,401,316,-5.0,36.0,17.0,-1.15966796875,-4.8828125,-2.746581792831421,-0.63232421875,-0.0108642578125,-0.2474365234375
3.312,302,959,424,318,-5.0,36.0,17.0,8.85009765625,-5.249022960662842,1.3427733182907104,-0.63232421875,-0.0108642578125,-0.2474365234375
3.316,286,1323,426,390,-5.0,36.0,17.0,16.29638671875,-4.0283203125,7.568358898162842,-0.634521484375,-0.04736328125,-0.2557373046875
3.330,291,2134,376,426,-5.0,36.0,17.0,21.606443405151367,-1.6479490995407104,15.502928733825684,-0.638427734375,0.084228515625,-0.2325439453125
3.345,289,2758,328,456,-4.0,34.0,16.0,26.794431686401367,0.9155272841453552,23.742673873901367,-0.638427734375,0.084228515625,-0.2325439453125
3.346,282,3147,308,548,-4.0,34.0,16.0,32.40966796875,0.30517578125,31.249998092651367,-0.5537109375,0.1986083984375,-0.2039794921875
3.360,282,3147,371,1336,-4.0,34.0,16.0,39.6728515625,-7.446288585662842,36.31591796875,0.033935546875,0.220947265625,0.0946044921875
3.368,291,3147,426,1867,-4.0,34.0,16.0,51.330562591552734,-23.254392623901367,36.43798828125,0.033935546875,0.220947265625,0.0946044921875
3.377,299,3147,814,2233,-4.0,34.0,16.0,54.748531341552734,-47.485347747802734,28.198240280151367,0.4281005859375,0.2554931640625,0.2547607421875
3.391,304,3147,1126,2925,-4.0,34.0,16.0,26.672361373901367,-72.998046875,9.033203125,0.1949462890625,0.4295654296875,0.1873779296875
3.409,306,3147,1334,3147,-4.0,34.0,16.0,-21.362302780151367,-81.72606658935547,-9.1552734375,0.1949462890625,0.4295654296875,0.1873779296875
3.410,308,3147,1415,3147,-4.0,34.0,16.0,-46.997066497802734,-63.049312591552734,-18.12744140625,-0.4635009765625,0.8275146484375,-0.3038330078125
3.424,319,3147,1588,3147,-4.0,34.0,16.0,-44.799800872802734,-27.587888717651367,-27.404783248901367,-2.1734619140625,1.148681640625,-1.173583984375
3.428,324,3147,1704,3147,-4.0,34.0,16.0,-59.326168060302734,0.2441406100988388,-40.0390625,-2.1734619140625,1.148681640625,-1.173583984375
3.437,330,3147,1819,3147,-2.0,34.0,19.0,-96.80175018310547,12.390135765075684,-49.011226654052734,-2.7557373046875,0.2078857421875,-1.0579833984375
3.450,313,3147,1850,3147,-2.0,34.0,19.0,-105.16356658935547,20.996091842651367,-43.151851654052734,-3.097412109375,-0.65234375,-0.5870361328125
3.463,316,3147,1628,3147,-2.0,34.0,19.0,-74.76806640625,25.756834030151367,-22.644041061401367,-3.097412109375,-0.65234375,-0.5870361328125
3.467,316,3147,1557,3147,-2.0,34.0,19.0,-36.19384765625,17.9443359375,-0.9155272841453552,-2.5162353515625,-0.9033203125,-0.5211181640625
3.480,304,3147,1689,3147,-2.0,34.0,19.0,13.793944358825684,4.0283203125,19.47021484375,-1.637939453125,-0.4852294921875,-0.696044921875
3.488,309,3147,1689,3147,-2.0,34.0,19.0,62.866207122802734,-4.21142578125,40.710445404052734,-1.458740234375,0.9827880859375,-0.9261474609375
3.500,308,3147,1634,3147,-2.0,34.0,19.0,61.767574310302734,-8.60595703125,44.006343841552734,-1.8197021484375,1.4627685546875,-0.7923583984375
3.512,308,3147,1375,3147,-2.0,34.0,19.0,22.216794967651367,-11.474608421325684,22.766111373901367,-1.8765869140625,0.62744140625,-0.393310546875
3.518,302,3147,1262,3147,-2.0,34.0,19.0,-0.3662109076976776,-7.751464366912842,3.967284917831421,-1.6466064453125,0.0262451171875,-0.0672607421875
3.526,299,3147,1057,3020,-2.0,34.0,19.0,6.896972179412842,3.234863042831421,2.929687261581421,-1.3543701171875,-0.0191650390625,0.0147705078125
3.548,298,3147,826,2388,-4.0,35.0,21.0,25.024412155151367,18.06640625,12.145995140075684,-1.123779296875,0.13427734375,-0.13427734375
3.549,292,3147,702,1954,-4.0,35.0,21.0,41.259761810302734,30.700681686401367,20.263669967651367,-0.9345703125,0.2735595703125,-0.345458984375
3.556,291,3147,574,1369,-4.0,35.0,21.0,51.330562591552734,35.5224609375,20.812986373901367,-0.7537841796875,0.3258056640625,-0.463623046875
3.570,281,3147,526,500,-4.0,35.0,21.0,51.513668060302734,32.04345703125,15.197752952575684,-0.590576171875,0.236083984375,-0.426025390625
3.578,286,2652,518,512,-4.0,35.0,21.0,44.433589935302734,23.193357467651367,7.568358898162842,-0.4031982421875,-0.022705078125,-0.30908203125
3.587,291,1981,580,468,-4.0,35.0,21.0,44.128414154052734,16.54052734375,-0.6713866591453552,-0.2392578125,-0.3470458984375,-0.2786865234375
3.613,294,1026,553,363,-4.0,35.0,21.0,57.678218841552734,17.51708984375,-7.263183116912842,-0.2005615234375,-0.357177734375,-0.3231201171875
3.614,290,748,538,376,-4.0,35.0,21.0,66.0400390625,18.73779296875,-8.6669921875,-0.2667236328125,0.0347900390625,-0.299072265625
3.617,280,590,531,356,-4.0,35.0,21.0,52.429195404052734,12.390135765075684,-6.958007335662842,-0.3841552734375,0.4688720703125,-0.2257080078125
3.631,292,387,551,344,-7.0,30.0,16.0,25.451658248901367,2.685546636581421,-6.469726085662842,-0.4892578125,0.685791015625,-0.1971435546875
3.643,292,424,537,356,-7.0,30.0,16.0,-3.417968511581421,-3.784179449081421,-8.23974609375,-0.5196533203125,0.654052734375,-0.1993408203125
3.661,300,536,506,316,-7.0,30.0,16.0,-28.869626998901367,-5.249022960662842,-11.413573265075684,-0.5211181640625,0.453857421875,-0.19482421875
3.661,294,553,512,331,-7.0,30.0,16.0,-43.884273529052734,-3.356933355331421,-13.427733421325684,-0.5565185546875,0.2568359375,-0.157958984375
3.670,287,525,522,361,-7.0,30.0,16.0,-47.607418060302734,-1.4038084745407104,-12.756346702575684,-0.59619140625,0.1514892578125,-0.0843505859375
3.677,287,561,525,360,-7.0,30.0,16.0,-45.776363372802734,-0.9765624403953552,-11.169432640075684,-0.62109375,0.0765380859375,-0.029541015625
3.690,289,625,512,354,-7.0,30.0,16.0,-40.10009765625,-0.7324218153953552,-9.70458984375,-0.6614990234375,0.045166015625,-0.03271484375
3.698,289,844,509,374,-7.0,30.0,16.0,-30.700681686401367,-0.2441406100988388,-6.469726085662842,-0.7021484375,0.0748291015625,-0.0648193359375
3.717,289,963,513,371,-7.0,30.0,16.0,-20.324705123901367,-0.4272460639476776,-1.7700194120407104,-0.72412109375,0.09423828125,-0.1051025390625
3.720,291,1261,514,323,-7.0,30.0,16.0,-9.8876953125,-0.1220703050494194,2.807616949081421,-0.7484130859375,0.0872802734375,-0.1614990234375
3.728,300,1584,525,327,-5.0,33.0,20.0,2.01416015625,1.2817381620407104,7.873534679412842,-0.7933349609375,0.1124267578125,-0.233154296875
3.736,289,1735,497,441,-5.0,33.0,20.0,14.465331077575684,3.112792730331421,14.648436546325684,-0.8416748046875,0.1932373046875,-0.2987060546875
3.755,282,2286,419,338,-5.0,33.0,20.0,20.446775436401367,4.150390625,22.216794967651367,-0.8118896484375,0.2203369140625,-0.3216552734375
3.762,287,2799,414,442,-5.0,33.0,20.0,15.624999046325684,2.807616949081421,28.198240280151367,-0.677978515625,0.092529296875,-0.28271484375
3.767,294,3147,483,636,-5.0,33.0,20.0,11.657713890075684,-1.3427733182907104,34.1796875,-0.4742431640625,-0.0692138671875,-0.17919921875
3.782,283,3147,391,1344,-5.0,33.0,20.0,25.329587936401367,-8.544921875,43.823238372802734,-0.2510986328125,-0.0341796875,0.001953125
3.788,289,3147,468,1815,-5.0,33.0,20.0,53.161617279052734,-21.850584030151367,52.734371185302734,0.031982421875,0.169921875,0.266845703125
3.796,304,3147,827,2172,-5.0,33.0,20.0,74.3408203125,-44.677730560302734,48.034664154052734,0.39404296875,0.338134765625,0.5086669921875
3.819,313,3147,1294,2610,-5.0,33.0,20.0,71.6552734375,-70.98388671875,20.507810592651367,0.5260009765625,0.5479736328125,0.482666015625
3.820,310,3147,1441,2985,-5.0,33.0,20.0,39.24560546875,-81.84813690185547,-19.287109375,0.1502685546875,0.8363037109375,-0.0443115234375
3.826,310,3147,1552,3147,-6.0,30.0,21.0,-3.234863042831421,-63.354488372802734,-49.743648529052734,-0.5931396484375,0.89306640625,-0.86865234375
3.840,323,3147,1655,3147,-6.0,30.0,21.0,-34.5458984375,-29.907224655151367,-65.673828125,-1.3651123046875,0.716064453125,-1.4073486328125
3.856,322,3147,1753,3147,-6.0,30.0,21.0,-62.499996185302734,-9.58251953125,-75.439453125,-1.97314453125,0.4808349609375,-1.5467529296875
3.857,321,3147,1837,3147,-6.0,30.0,21.0,-93.20067596435547,-10.498045921325684,-82.15331268310547,-2.4986572265625,0.1732177734375,-1.3280029296875
3.875,332,3147,1894,3147,-6.0,30.0,21.0,-115.72264862060547,-21.972654342651367,-76.84326171875,-2.9493408203125,-0.14990234375,-0.7445068359375
3.878,323,3147,1801,3147,-6.0,30.0,21.0,-116.39403533935547,-32.65380859375,-53.466793060302734,-3.078857421875,-0.48291015625,-0.166015625
3.889,319,3147,1704,3147,-6.0,30.0,21.0,-85.51024627685547,-35.400390625,-20.751951217651367,-2.560546875,-0.954833984375,0.0777587890625
3.900,323,3147,1787,3147,-6.0,30.0,21.0,-19.95849609375,-26.672361373901367,10.559081077575684,-1.6298828125,-0.703125,-0.1591796875
3.923,323,3147,1819,3147,-6.0,30.0,21.0,44.494625091552734,-10.559081077575684,35.70556640625,-1.36572265625,0.7646484375,-0.56982421875
3.923,304,3147,1730,3147,-6.0,30.0,21.0,49.682613372802734,0.3662109076976776,40.344234466552734,-1.7193603515625,1.42919921875,-0.5738525390625
3.930,310,3147,1593,3147,-2.0,32.0,22.0,12.023924827575684,3.173827886581421,19.4091796875,-1.8260498046875,0.65625,-0.2232666015625
3.938,313,3147,1464,3147,-2.0,32.0,22.0,-6.774901866912842,7.446288585662842,0.0,-1.6575927734375,-0.0208740234375,0.0462646484375
3.949,307,3147,1310,3137,-2.0,32.0,22.0,5.615233898162842,17.4560546875,0.1831054538488388,-1.4276123046875,-0.0986328125,0.020263671875
3.960,302,3147,1029,2505,-2.0,32.0,22.0,26.184080123901367,30.883787155151367,12.573241233825684,-1.239501953125,0.093505859375,-0.224609375
3.968,296,3147,868,2174,-2.0,32.0,22.0,39.4287109375,41.931148529052734,23.620603561401367,-1.07763671875,0.26220703125,-0.4605712890625
3.976,296,3147,764,1665,-2.0,32.0,22.0,39.4287109375,41.931148529052734,23.620603561401367,-0.890380859375,0.3143310546875,-0.5618896484375
3.997,306,3147,711,846,-2.0,32.0,22.0,33.935546875,44.250484466552734,25.817869186401367,-0.6868896484375,0.1563720703125,-0.478759765625
3.999,291,3147,630,418,-2.0,32.0,22.0,26.611326217651367,36.43798828125,21.301267623901367,-0.4759521484375,-0.223876953125,-0.3016357421875
4.023,304,2532,721,342,-2.0,32.0,22.0,26.611326217651367,36.43798828125,21.301267623901367,-0.2891845703125,-0.5113525390625,-0.2235107421875
4.024,293,1278,698,404,-2.0,32.0,22.0,69.27490234375,21.484373092651367,6.713866710662842,-0.227783203125,-0.3895263671875,-0.2567138671875
4.029,294,869,713,387,-5.0,35.0,17.0,91.24755096435547,18.06640625,2.13623046875,-0.3038330078125,0.0928955078125,-0.2791748046875
4.036,294,694,723,382,-5.0,35.0,17.0,91.24755096435547,18.06640625,2.13623046875,-0.4266357421875,0.545654296875,-0.25830078125
4.052,289,399,548,347,-5.0,35.0,17.0,45.837398529052734,7.934569835662842,-3.906249761581421,-0.5330810546875,0.7332763671875,-0.2515869140625
4.062,291,385,574,359,-5.0,35.0,17.0,6.713866710662842,5.126952648162842,-10.070799827575684,-0.5887451171875,0.748291015625,-0.272216796875
4.066,291,427,588,359,-5.0,35.0,17.0,6.713866710662842,5.126952648162842,-10.070799827575684,-0.5909423828125,0.59228515625,-0.2545166015625
4.081,292,423,561,348,-5.0,35.0,17.0,-51.696773529052734,7.141112804412842,-16.9677734375,-0.58154296875,0.330322265625,-0.1636962890625
4.089,289,470,572,348,-5.0,35.0,17.0,-61.950679779052734,8.056640625,-15.075682640075684,-0.6014404296875,0.140625,-0.0562744140625
4.100,291,521,568,359,-5.0,35.0,17.0,-61.950679779052734,8.056640625,-15.075682640075684,-0.633056640625,0.037353515625,0.01123046875
4.125,294,559,559,332,-5.0,35.0,17.0,-54.565425872802734,8.23974609375,-6.225585460662842,-0.654541015625,-0.027099609375,0.0147705078125
4.125,289,540,574,361,-5.0,35.0,17.0,-40.893550872802734,9.33837890625,-2.746581792831421,-0.6787109375,-0.008056640625,-0.033203125
4.127,291,519,566,324,-6.0,36.0,18.0,-40.893550872802734,9.33837890625,-2.746581792831421,-0.6917724609375,0.0760498046875,-0.09228515625
4.140,291,607,548,359,-6.0,36.0,18.0,-11.352538108825684,11.718749046325684,6.896972179412842,-0.688720703125,0.14453125,-0.1383056640625
4.149,289,688,555,373,-6.0,36.0,18.0,-1.8310545682907104,11.474608421325684,11.596678733825684,-0.681396484375,0.1649169921875,-0.171142578125
4.166,302,922,539,373,-6.0,36.0,18.0,-1.8310545682907104,11.474608421325684,11.596678733825684,-0.65673828125,0.1412353515625,-0.189453125
4.170,291,1652,493,416,-6.0,36.0,18.0,10.253905296325684,8.9111328125,22.888181686401367,-0.6014404296875,0.0838623046875,-0.208251953125
4.180,286,2316,442,485,-6.0,36.0,18.0,18.1884765625,7.568358898162842,30.395505905151367,-0.5435791015625,0.04736328125,-0.2369384765625
4.187,287,2823,521,481,-6.0,36.0,18.0,18.1884765625,7.568358898162842,30.395505905151367,-0.5435791015625,0.04736328125,-0.2369384765625
4.223,282,3147,438,854,-6.0,36.0,18.0,40.710445404052734,3.967284917831421,48.828121185302734,-0.3505859375,0.1363525390625,-0.1580810546875
4.229,287,3147,464,1411,-6.0,36.0,18.0,40.710445404052734,3.967284917831421,48.828121185302734,-0.21630859375,0.229736328125,0.0703125
4.230,289,3147,532,1800,-6.0,36.0,18.0,57.617183685302734,-1.7700194120407104,56.640621185302734,-0.21630859375,0.229736328125,0.0703125
4.231,302,3147,1054,2543,-8.0,35.0,16.0,86.91405487060547,-42.175289154052734,41.748043060302734,0.353759765625,0.5091552734375,0.4163818359375
4.239,313,3147,1362,2962,-8.0,35.0,16.0,86.91405487060547,-42.175289154052734,41.748043060302734,0.2630615234375,0.6654052734375,0.165771484375
4.246,317,3147,1541,3147,-8.0,35.0,16.0,54.809566497802734,-68.359375,3.112792730331421,0.2630615234375,0.6654052734375,0.165771484375
4.266,315,3147,1642,3147,-8.0,35.0,16.0,-40.954586029052734,-41.503902435302734,-57.434078216552734,-1.1209716796875,0.7547607421875,-1.1683349609375
4.268,321,3147,1739,3147,-8.0,35.0,16.0,-40.954586029052734,-41.503902435302734,-57.434078216552734,-1.731689453125,0.38232421875,-1.25244140625
4.276,323,3147,1908,3147,-8.0,35.0,16.0,-61.218257904052734,-7.568358898162842,-71.2890625,-1.731689453125,0.38232421875,-1.25244140625
4.290,328,3147,1934,3147,-8.0,35.0,16.0,-103.69872283935547,10.192870140075684,-77.57568359375,-2.6729736328125,-0.052734375,-0.85791015625
4.298,328,3147,1994,3147,-8.0,35.0,16.0,-103.69872283935547,10.192870140075684,-77.57568359375,-2.9803466796875,-0.2720947265625,-0.5390625
4.306,328,3147,1860,3147,-8.0,35.0,16.0,-109.00878143310547,1.7089842557907104,-61.279293060302734,-2.9803466796875,-0.2720947265625,-0.5390625
4.332,323,3147,1588,3147,-6.0,33.0,16.0,-25.756834030151367,-12.207030296325684,-10.620116233825684,-1.9586181640625,-0.61328125,-0.38232421875
4.332,323,3147,1600,3147,-6.0,33.0,16.0,-25.756834030151367,-12.207030296325684,-10.620116233825684,-1.247314453125,0.1231689453125,-0.6680908203125
4.336,323,3147,1580,3147,-6.0,33.0,16.0,35.400390625,-10.192870140075684,12.268065452575684,-1.247314453125,0.1231689453125,-0.6680908203125
4.350,316,3147,1429,3147,-6.0,33.0,16.0,21.545408248901367,0.54931640625,11.413573265075684,-1.8082275390625,1.1788330078125,-0.6324462890625
4.359,315,3147,1387,3147,-6.0,33.0,16.0,21.545408248901367,0.54931640625,11.413573265075684,-1.808349609375,0.1966552734375,-0.2188720703125
4.369,313,3147,1318,3147,-6.0,33.0,16.0,-27.160642623901367,1.6479490995407104,-14.465331077575684,-1.808349609375,0.1966552734375,-0.2188720703125
4.380,305,3147,1014,2984,-6.0,33.0,16.0,-17.08984375,17.4560546875,-11.230467796325684,-1.3739013671875,-0.077392578125,-0.1116943359375
4.389,302,3147,899,2677,-6.0,33.0,16.0,-17.08984375,17.4560546875,-11.230467796325684,-1.135009765625,0.1259765625,-0.3192138671875
4.396,299,3147,818,2308,-6.0,33.0,16.0,10.009765625,27.282712936401367,5.0048828125,-1.135009765625,0.1259765625,-0.3192138671875
4.410,293,3147,578,1471,-6.0,33.0,16.0,31.860349655151367,31.372068405151367,14.343260765075684,-0.6942138671875,0.20458984375,-0.5050048828125
4.440,287,3147,607,889,-4.0,33.0,20.0,41.625972747802734,29.724119186401367,17.02880859375,-0.6942138671875,0.20458984375,-0.5050048828125
4.441,292,3147,617,553,-4.0,33.0,20.0,41.137691497802734,24.719236373901367,15.808104515075684,-0.530517578125,-0.0091552734375,-0.429931640625
4.441,292,1809,679,418,-4.0,33.0,20.0,42.907711029052734,17.88330078125,8.7890625,-0.3448486328125,-0.3438720703125,-0.2340087890625
4.448,294,1156,723,423,-4.0,33.0,20.0,52.856441497802734,13.305663108825684,-2.0751953125,-0.3448486328125,-0.3438720703125,-0.2340087890625
4.457,294,803,737,388,-4.0,33.0,20.0,61.645503997802734,13.488768577575684,-8.1787109375,-0.3656005859375,-0.0347900390625,-0.1829833984375
4.473,289,481,646,359,-4.0,33.0,20.0,54.870601654052734,13.183592796325684,-7.507323741912842,-0.538330078125,0.4661865234375,-0.12158203125
4.479,289,401,572,356,-4.0,33.0,20.0,30.090330123901367,8.48388671875,-7.324218273162842,-0.538330078125,0.4661865234375,-0.12158203125
4.487,289,391,600,338,-4.0,33.0,20.0,0.0,2.807616949081421,-11.413573265075684,-0.5885009765625,0.4527587890625,-0.1451416015625
4.501,291,424,555,351,-4.0,33.0,20.0,-24.108884811401367,1.4648436307907104,-14.465331077575684,-0.6304931640625,0.3468017578125,-0.2222900390625
4.509,290,456,529,347,-4.0,33.0,20.0,-37.29248046875,4.7607421875,-11.779784202575684,-0.6304931640625,0.3468017578125,-0.2222900390625
4.517,290,455,523,351,-9.0,33.0,16.0,-41.137691497802734,7.202147960662842,-6.164550304412842,-0.6646728515625,0.2568359375,-0.184326171875
4.536,289,485,513,347,-9.0,33.0,16.0,-39.794921875,5.493163585662842,-2.990722417831421,-0.677734375,0.1138916015625,-0.1591796875
4.538,291,508,501,351,-9.0,33.0,16.0,-33.69140625,2.01416015625,-3.417968511581421,-0.677734375,0.1138916015625,-0.1591796875
4.550,289,487,472,351,-9.0,33.0,16.0,-24.536130905151367,-0.4272460639476776,-5.859374523162842,-0.67333984375,0.09130859375,-0.1761474609375
4.565,287,483,481,346,-9.0,33.0,16.0,-20.324705123901367,-0.8544921278953552,-7.934569835662842,-0.667236328125,0.0872802734375,-0.1826171875
4.575,292,482,490,354,-9.0,33.0,16.0,-23.742673873901367,0.1220703050494194,-8.23974609375,-0.667236328125,0.0872802734375,-0.1826171875
4.577,291,472,490,336,-9.0,33.0,16.0,-26.855466842651367,1.5258787870407104,-6.591796398162842,-0.6671142578125,0.064697265625,-0.196533203125
4.591,290,518,481,347,-9.0,33.0,16.0,-24.230955123901367,2.624511480331421,-2.685546636581421,-0.7110595703125,0.0626220703125,-0.238525390625
4.598,291,682,464,342,-9.0,33.0,16.0,-18.310546875,3.173827886581421,2.807616949081421,-0.7110595703125,0.0626220703125,-0.238525390625
4.606,289,858,496,361,-9.0,33.0,16.0,-12.756346702575684,3.234863042831421,9.21630859375,-0.7275390625,0.0906982421875,-0.2486572265625
4.620,289,1424,499,383,-6.0,34.0,12.0,-8.48388671875,3.295898199081421,16.11328125,-0.7188720703125,0.109130859375,-0.2362060546875
4.640,291,1869,491,406,-6.0,34.0,12.0,-4.45556640625,3.417968511581421,23.254392623901367,-0.66796875,0.1077880859375,-0.192138671875
4.640,292,2587,527,371,-6.0,34.0,12.0,1.7700194120407104,3.234863042831421,30.639646530151367,-0.584716796875,0.10205078125,-0.1473388671875
4.650,300,3147,482,697,-6.0,34.0,12.0,13.671874046325684,0.7934569716453552,39.306640625,-0.44873046875,0.089111328125,-0.099609375
4.669,299,3147,473,1213,-6.0,34.0,12.0,35.94970703125,-6.286620616912842,48.339839935302734,-0.2503662109375,0.0439453125,-0.0108642578125
4.677,282,3147,537,1675,-6.0,34.0,12.0,70.37353515625,-21.606443405151367,53.344722747802734,0.0308837890625,0.1688232421875,0.138671875
4.680,313,3147,1185,2238,-6.0,34.0,12.0,93.44481658935547,-47.790523529052734,46.264644622802734,0.3990478515625,0.45654296875,0.209716796875
4.688,318,3147,1536,2744,-6.0,34.0,12.0,61.462398529052734,-78.55224609375,18.73779296875,0.579833984375,0.65185546875,0.1824951171875
4.696,323,3147,1704,3102,-6.0,34.0,12.0,-18.310546875,-98.26659393310547,-20.507810592651367,0.271728515625,0.7921142578125,0.025390625
4.710,332,3147,1918,3147,-4.0,34.0,18.0,-68.17626953125,-86.36473846435547,-52.124019622802734,-0.4876708984375,0.8599853515625,-0.466064453125
4.718,338,3147,2041,3147,-4.0,34.0,18.0,-61.279293060302734,-47.058101654052734,-71.47216796875,-1.3941650390625,0.8140869140625,-0.9373779296875
4.732,343,3147,2141,3147,-4.0,34.0,18.0,-56.030269622802734,-12.145995140075684,-83.98436737060547,-2.1650390625,0.5765380859375,-1.1744384765625
4.744,365,3147,2308,3147,-4.0,34.0,18.0,-85.75438690185547,1.15966796875,-88.74510955810547,-2.725341796875,0.0264892578125,-1.0804443359375
4.748,371,3147,2337,3147,-4.0,34.0,18.0,-120.54442596435547,-2.685546636581421,-74.70703125,-3.1217041015625,-0.7283935546875,-0.5836181640625
4.757,361,3147,2158,3147,-4.0,34.0,18.0,-111.57225799560547,-9.58251953125,-40.222164154052734,-3.2564697265625,-1.07763671875,-0.25439453125
4.771,318,3147,2135,3147,-4.0,34.0,18.0,-55.419918060302734,-9.21630859375,2.746581792831421,-2.7142333984375,-0.981201171875,-0.319580078125
4.779,346,3147,2160,3147,-4.0,34.0,18.0,16.845703125,-4.08935546875,39.36767578125,-1.7550048828125,-0.3406982421875,-0.5638427734375
4.786,343,3147,2162,3147,-4.0,34.0,18.0,68.66455078125,-0.6103515625,58.288570404052734,-1.51953125,1.1397705078125,-0.757080078125
4.800,332,3147,2001,3147,-4.0,34.0,18.0,58.105464935302734,-2.868652105331421,48.095699310302734,-1.841064453125,1.6793212890625,-0.6678466796875
4.808,325,3147,1855,3147,-4.0,32.0,21.0,9.8876953125,-5.798339366912842,13.610838890075684,-1.876708984375,0.7591552734375,-0.3524169921875
4.816,324,3147,1686,3146,-4.0,32.0,21.0,-11.413573265075684,-1.15966796875,-12.573241233825684,-1.68017578125,-0.01171875,-0.068115234375
4.850,319,3147,1357,2633,-4.0,32.0,21.0,4.08935546875,9.58251953125,-13.244627952575684,-1.4486083984375,-0.11279296875,0.009521484375
4.851,318,3147,1294,2310,-4.0,32.0,21.0,30.822751998901367,20.751951217651367,1.3427733182907104,-1.2164306640625,0.089599609375,-0.1387939453125
4.851,304,3147,1155,1828,-4.0,32.0,21.0,50.170894622802734,28.442380905151367,14.099120140075684,-0.98095703125,0.23193359375,-0.33984375
4.860,299,3147,846,944,-4.0,32.0,21.0,52.917476654052734,31.249998092651367,17.27294921875,-0.754638671875,0.2030029296875,-0.4427490234375
4.881,295,3147,784,342,-4.0,32.0,21.0,41.381832122802734,30.212400436401367,15.808104515075684,-0.534423828125,0.01708984375,-0.4237060546875
4.888,300,2497,767,414,-4.0,32.0,21.0,33.38623046875,26.428220748901367,12.939452171325684,-0.387939453125,-0.2916259765625,-0.37451171875
4.890,300,1127,767,377,-4.0,32.0,21.0,43.823238372802734,21.545408248901367,6.103515148162842,-0.32763671875,-0.502685546875,-0.3756103515625
4.900,296,731,802,376,-4.0,32.0,21.0,64.0869140625,17.08984375,-1.4648436307907104,-0.32470703125,-0.358154296875,-0.3450927734375
4.907,306,509,838,317,-7.0,31.0,14.0,73.30322265625,11.230467796325684,-4.45556640625,-0.3892822265625,0.0169677734375,-0.2410888671875
4.920,299,391,801,348,-7.0,31.0,14.0,64.51416015625,3.234863042831421,-5.981444835662842,-0.4942626953125,0.333251953125,-0.155029296875
4.946,300,329,834,323,-7.0,31.0,14.0,45.654293060302734,-4.33349609375,-9.765625,-0.5633544921875,0.483154296875,-0.1551513671875
4.953,300,375,829,332,-7.0,31.0,14.0,26.306150436401367,-6.896972179412842,-13.122557640075684,-0.5609130859375,0.527099609375,-0.2061767578125
4.954,298,383,767,356,-7.0,31.0,14.0,11.169432640075684,-2.685546636581421,-13.732909202575684,-0.5216064453125,0.4991455078125,-0.211669921875
4.959,300,428,753,360,-7.0,31.0,14.0,-3.417968511581421,3.295898199081421,-11.718749046325684,-0.5020751953125,0.413818359375,-0.123779296875
4.966,297,470,803,347,-7.0,31.0,14.0,-20.690916061401367,6.042479991912842,-7.507323741912842,-0.52880859375,0.2818603515625,-0.0181884765625
4.984,294,495,694,356,-7.0,31.0,14.0,-34.48486328125,5.0048828125,-3.967284917831421,-0.5765380859375,0.1278076171875,0.03662109375
4.988,292,497,698,362,-7.0,31.0,14.0,-38.14697265625,2.685546636581421,-3.051757574081421,-0.6195068359375,0.03173828125,0.039306640625
5.001,289,546,702,364,-7.0,31.0,14.0,-32.16552734375,1.6479490995407104,-2.868652105331421,-0.64208984375,0.0406494140625,0.0130615234375
5.011,294,482,694,351,-5.0,31.0,20.0,-21.972654342651367,2.44140625,-1.4038084745407104,-0.6488037109375,0.10595703125,-0.019287109375
5.019,293,519,725,360,-5.0,31.0,20.0,-10.803221702575684,3.784179449081421,1.03759765625,-0.6505126953125,0.1590576171875,-0.0643310546875
5.026,297,568,720,369,-5.0,31.0,20.0,0.8544921278953552,3.967284917831421,4.08935546875,-0.6453857421875,0.1680908203125,-0.1156005859375
5.047,296,1104,733,399,-5.0,31.0,20.0,11.779784202575684,2.197265625,8.85009765625,-0.5968017578125,0.1151123046875,-0.1392822265625
5.049,304,1646,744,371,-5.0,31.0,20.0,20.751951217651367,-0.4882812201976776,17.02880859375,-0.49609375,0.01513671875,-0.1378173828125
5.060,294,2306,695,454,-5.0,31.0,20.0,30.944822311401367,-2.746581792831421,28.076169967651367,-0.4346923828125,-0.0577392578125,-0.153564453125
5.070,295,3147,721,509,-5.0,31.0,20.0,47.363277435302734,-3.967284917831421,39.6728515625,-0.4425048828125,0.0438232421875,-0.193603515625
5.087,294,3147,642,987,-5.0,31.0,20.0,66.22314453125,-7.324218273162842,46.997066497802734,-0.416748046875,0.2784423828125,-0.197265625
5.087,305,3147,784,1386,-5.0,31.0,20.0,70.1904296875,-19.287109375,43.090816497802734,-0.2896728515625,0.5609130859375,-0.1478271484375
5.100,310,3147,1232,1981,-5.0,31.0,16.0,36.9873046875,-40.161128997802734,27.221677780151367,-0.008544921875,0.5909423828125,-0.033203125
5.114,323,3147,1666,2374,-5.0,31.0,16.0,-22.521970748901367,-64.0869140625,5.371093273162842,0.1829833984375,0.36865234375,0.1109619140625
5.116,334,3147,1811,2769,-5.0,31.0,16.0,-22.521970748901367,-64.0869140625,5.371093273162842,-0.041015625,0.3836669921875,0.0589599609375
5.130,348,3147,2024,3147,-5.0,31.0,16.0,-46.569820404052734,-71.35009765625,-30.334470748901367,-0.580078125,0.478515625,-0.3092041015625
5.150,348,3147,2117,3147,-5.0,31.0,16.0,-17.02880859375,-44.799800872802734,-46.630855560302734,-1.2213134765625,0.3419189453125,-0.630615234375
5.151,356,3147,2180,3147,-5.0,31.0,16.0,-17.02880859375,-44.799800872802734,-46.630855560302734,-1.82763671875,0.128662109375,-0.7454833984375
5.168,346,3147,2296,3147,-5.0,31.0,16.0,-43.457027435302734,-5.432128429412842,-70.61767578125,-2.2896728515625,0.0631103515625,-0.8411865234375
5.169,359,3147,2392,3147,-5.0,31.0,16.0,-78.30810546875,0.7934569716453552,-55.175777435302734,-2.664794921875,-0.1317138671875,-0.7578125
5.177,360,3147,2398,3147,-5.0,31.0,16.0,-78.30810546875,0.7934569716453552,-55.175777435302734,-2.937255859375,-0.518798828125,-0.4713134765625
5.191,348,3147,2174,3147,-5.0,31.0,16.0,-64.88037109375,-6.408690929412842,0.4882812201976776,-2.7664794921875,-0.676513671875,-0.3243408203125
5.198,359,3147,2247,3147,-4.0,34.0,23.0,-16.357421875,-5.310058116912842,29.968259811401367,-1.94677734375,-0.515869140625,-0.3753662109375
5.206,359,3147,2293,3147,-4.0,34.0,23.0,-16.357421875,-5.310058116912842,29.968259811401367,-1.3380126953125,0.4808349609375,-0.49462890625
5.227,354,3147,2179,3147,-4.0,34.0,23.0,60.485836029052734,-1.5869139432907104,50.842281341552734,-1.467041015625,1.4345703125,-0.486083984375
5.228,345,3147,2058,3147,-4.0,34.0,23.0,31.921384811401367,-2.807616949081421,23.925779342651367,-1.6690673828125,1.07373046875,-0.3109130859375
5.253,338,3147,1960,3147,-4.0,34.0,23.0,31.921384811401367,-2.807616949081421,23.925779342651367,-1.6494140625,0.3319091796875,-0.1724853515625
5.254,328,3147,1643,3147,-4.0,34.0,23.0,-10.986327171325684,13.122557640075684,-18.49365234375,-1.5533447265625,0.0045166015625,-0.142578125
5.259,322,3147,1555,3016,-4.0,34.0,23.0,-3.173827886581421,23.437498092651367,-12.207030296325684,-1.453125,0.0390625,-0.2193603515625
5.275,321,3147,1365,2727,-4.0,34.0,23.0,-3.173827886581421,23.437498092651367,-12.207030296325684,-1.322998046875,0.12451171875,-0.34130859375
5.283,312,3147,1064,2113,-4.0,34.0,23.0,23.193357467651367,30.639646530151367,7.629394054412842,-1.1612548828125,0.0894775390625,-0.423828125
5.291,304,3147,1054,1604,-4.0,34.0,23.0,29.235837936401367,29.235837936401367,12.756346702575684,-0.9586181640625,0.0291748046875,-0.43603515625
5.296,300,3147,910,1148,-4.0,32.0,23.0,29.235837936401367,29.235837936401367,12.756346702575684,-0.7027587890625,-0.0465087890625,-0.366943359375
5.311,306,2803,710,467,-4.0,32.0,23.0,29.357908248901367,22.094724655151367,18.85986328125,-0.458984375,-0.2520751953125,-0.265869140625
5.319,308,2202,806,327,-4.0,32.0,23.0,37.04833984375,16.357421875,12.451170921325684,-0.2840576171875,-0.44873046875,-0.2156982421875
5.328,304,1412,803,354,-4.0,32.0,23.0,37.04833984375,16.357421875,12.451170921325684,-0.2840576171875,-0.44873046875,-0.2156982421875
5.354,301,737,763,359,-4.0,32.0,23.0,56.762691497802734,11.291502952575684,-2.746581792831421,-0.2772216796875,-0.0013427734375,-0.091064453125
5.355,300,564,809,372,-4.0,32.0,23.0,56.762691497802734,11.291502952575684,-2.746581792831421,-0.39794921875,0.3515625,-0.08056640625
5.356,300,482,785,363,-4.0,32.0,23.0,52.001949310302734,8.6669921875,-3.906249761581421,-0.39794921875,0.3515625,-0.08056640625
5.371,299,466,759,351,-4.0,32.0,23.0,17.02880859375,6.774901866912842,-6.591796398162842,-0.58984375,0.6812744140625,-0.2396240234375
5.385,298,490,750,361,-4.0,32.0,23.0,17.02880859375,6.774901866912842,-6.591796398162842,-0.590087890625,0.645263671875,-0.22509765625
5.395,300,508,753,364,-4.0,32.0,23.0,-5.249022960662842,7.873534679412842,-6.164550304412842,-0.590087890625,0.645263671875,-0.22509765625
5.401,299,453,720,347,-5.0,34.0,18.0,-42.175289154052734,6.774901866912842,-7.629394054412842,-0.5679931640625,0.2376708984375,-0.03173828125
5.409,294,481,698,354,-5.0,34.0,18.0,-42.175289154052734,6.774901866912842,-7.629394054412842,-0.56494140625,0.0330810546875,0.0211181640625
5.416,299,497,724,361,-5.0,34.0,18.0,-50.842281341552734,4.94384765625,-8.7890625,-0.56494140625,0.0330810546875,0.0211181640625
5.431,299,614,725,346,-5.0,34.0,18.0,-38.26904296875,5.676269054412842,-5.981444835662842,-0.532958984375,-0.058349609375,0.0074462890625
5.438,300,794,723,323,-5.0,34.0,18.0,-38.26904296875,5.676269054412842,-5.981444835662842,-0.5185546875,0.0096435546875,-0.0255126953125
5.458,300,1167,714,401,-5.0,34.0,18.0,-26.428220748901367,7.690429210662842,0.54931640625,-0.5185546875,0.0096435546875,-0.0255126953125
5.460,300,2100,630,439,-5.0,34.0,18.0,-6.103515148162842,11.901854515075684,17.15087890625,-0.586669921875,0.115966796875,-0.170166015625
5.468,299,2497,594,497,-5.0,34.0,18.0,-6.103515148162842,11.901854515075684,17.15087890625,-0.6820068359375,0.21728515625,-0.2476806640625
5.477,295,3008,548,507,-5.0,34.0,18.0,3.417968511581421,13.244627952575684,24.230955123901367,-0.6820068359375,0.21728515625,-0.2476806640625
5.493,289,3147,593,966,-5.0,34.0,18.0,4.21142578125,8.48388671875,30.883787155151367,-0.5625,0.2003173828125,-0.1195068359375
5.508,292,3147,562,1387,-5.0,30.0,21.0,4.21142578125,8.48388671875,30.883787155151367,-0.445068359375,0.189453125,0.1090087890625
5.508,304,3147,606,1687,-5.0,30.0,21.0,2.868652105331421,0.54931640625,35.2783203125,-0.445068359375,0.189453125,0.1090087890625
5.520,304,3147,1096,2320,-5.0,30.0,21.0,45.410152435302734,-34.97314453125,47.119136810302734,-0.114013671875,0.0748291015625,0.5909423828125
5.528,309,3147,1516,2946,-5.0,30.0,21.0,45.410152435302734,-34.97314453125,47.119136810302734,0.157958984375,0.3408203125,0.219482421875
5.536,315,3147,1711,3147,-5.0,30.0,21.0,79.833984375,-53.344722747802734,34.7900390625,0.157958984375,0.3408203125,0.219482421875
5.566,314,3147,1952,3147,-5.0,30.0,21.0,75.13427734375,-55.297847747802734,-3.051757574081421,-0.587158203125,0.34130859375,-1.1964111328125
5.566,313,3147,2188,3147,-5.0,30.0,21.0,17.88330078125,-38.2080078125,-43.823238372802734,-0.587158203125,0.34130859375,-1.1964111328125
5.567,332,3147,2253,3147,-5.0,30.0,21.0,-40.588375091552734,-13.793944358825684,-61.218257904052734,-1.256103515625,0.1197509765625,-1.3065185546875
5.580,332,3147,2317,3147,-5.0,30.0,21.0,-66.89453125,2.50244140625,-60.485836029052734,-2.43505859375,0.4581298828125,-1.059814453125
5.605,347,3147,2372,3147,-5.0,30.0,21.0,-81.05467987060547,1.6479490995407104,-52.124019622802734,-2.43505859375,0.4581298828125,-1.059814453125
5.605,348,3147,2422,3147,-6.0,31.0,22.0,-96.86278533935547,-12.207030296325684,-41.198726654052734,-2.8555908203125,0.0855712890625,-0.62158203125
5.611,338,3147,2321,3147,-6.0,31.0,22.0,-99.73143768310547,-27.160642623901367,-26.062009811401367,-2.4747314453125,-0.627197265625,-0.0009765625
5.618,388,3147,2341,3147,-6.0,31.0,22.0,-72.93701171875,-30.151365280151367,-4.7607421875,-2.4747314453125,-0.627197265625,-0.0009765625
5.626,359,3147,2337,3147,-6.0,31.0,22.0,-18.310546875,-19.10400390625,17.2119140625,-1.58544921875,-0.22412109375,-0.271728515625
5.640,374,3147,2191,3147,-6.0,31.0,22.0,30.700681686401367,-5.0048828125,31.982419967651367,-1.6905517578125,1.3160400390625,-0.5169677734375
5.667,369,3147,2087,3147,-6.0,31.0,22.0,28.015134811401367,1.3427733182907104,26.611326217651367,-1.6905517578125,1.3160400390625,-0.5169677734375
5.667,357,3147,1954,3147,-6.0,31.0,22.0,-9.46044921875,2.990722417831421,2.3193359375,-1.8841552734375,0.55322265625,-0.2471923828125
5.677,328,3147,1775,3147,-6.0,31.0,22.0,-27.954099655151367,7.507323741912842,-15.075682640075684,-1.5413818359375,-0.1910400390625,-0.0654296875
5.678,334,3147,1580,3087,-6.0,31.0,22.0,-15.747069358825684,15.075682640075684,-12.512206077575684,-1.5413818359375,-0.1910400390625,-0.0654296875
5.692,327,3147,1440,2756,-6.0,31.0,22.0,8.48388671875,23.132322311401367,0.9765624403953552,-1.2861328125,0.0399169921875,-0.23046875
5.708,336,3147,1149,2144,-7.0,32.0,21.0,26.733396530151367,27.587888717651367,12.817381858825684,-0.8267822265625,0.217041015625,-0.505126953125
5.708,330,3147,998,1701,-7.0,32.0,21.0,33.5693359375,27.221677780151367,17.02880859375,-0.8267822265625,0.217041015625,-0.505126953125
5.717,310,3147,859,1251,-7.0,32.0,21.0,32.65380859375,24.414060592651367,15.441893577575684,-0.6617431640625,0.136474609375,-0.50146484375
5.730,307,2882,714,479,-7.0,32.0,21.0,30.212400436401367,20.568845748901367,10.131834983825684,-0.41748046875,-0.1571044921875,-0.2596435546875
5.738,304,2110,725,470,-7.0,32.0,21.0,31.921384811401367,16.05224609375,1.03759765625,-0.41748046875,-0.1571044921875,-0.2596435546875
5.746,310,1545,787,401,-7.0,32.0,21.0,37.78076171875,14.343260765075684,-8.6669921875,-0.338623046875,-0.1607666015625,-0.19384765625
5.764,308,723,799,371,-7.0,32.0,21.0,40.710445404052734,16.6015625,-14.526366233825684,-0.4000244140625,0.2427978515625,-0.0780029296875
5.768,308,468,794,371,-7.0,32.0,21.0,29.235837936401367,16.7236328125,-15.380858421325684,-0.4000244140625,0.2427978515625,-0.0780029296875
5.776,306,396,799,361,-7.0,32.0,21.0,5.676269054412842,11.718749046325684,-13.427733421325684,-0.527587890625,0.3701171875,-0.052734375
5.812,300,346,714,351,-9.0,32.0,18.0,-14.343260765075684,5.920409679412842,-12.023924827575684,-0.6260986328125,0.40234375,-0.10791015625
5.813,300,370,697,334,-9.0,32.0,18.0,-26.123044967651367,3.417968511581421,-11.108397483825684,-0.647705078125,0.3795166015625,-0.1693115234375
5.813,300,388,714,336,-9.0,32.0,18.0,-32.71484375,4.45556640625,-9.27734375,-0.631591796875,0.328125,-0.1771240234375
5.822,300,456,680,354,-9.0,32.0,18.0,-36.43798828125,5.981444835662842,-6.835937023162842,-0.6451416015625,0.166015625,-0.0784912109375
5.830,298,440,667,359,-9.0,32.0,18.0,-38.2080078125,5.676269054412842,-5.249022960662842,-0.6451416015625,0.166015625,-0.0784912109375
5.837,299,493,678,363,-9.0,32.0,18.0,-36.56005859375,4.21142578125,-4.39453125,-0.6649169921875,0.08203125,-0.0499267578125
5.867,299,490,657,354,-9.0,32.0,18.0,-30.761716842651367,3.173827886581421,-3.173827886581421,-0.6805419921875,0.0455322265625,-0.0765380859375
5.868,299,546,693,359,-9.0,32.0,18.0,-23.071287155151367,3.295898199081421,-0.7934569716453552,-0.6805419921875,0.0455322265625,-0.0765380859375
5.868,300,548,705,364,-9.0,32.0,18.0,-16.05224609375,4.21142578125,2.563476324081421,-0.6697998046875,0.0758056640625,-0.099609375
5.881,302,841,651,352,-9.0,32.0,18.0,-9.70458984375,5.432128429412842,6.408690929412842,-0.647216796875,0.1007080078125,-0.1304931640625
5.890,302,1137,645,411,-5.0,34.0,15.0,-3.540038824081421,6.164550304412842,10.803221702575684,-0.61083984375,0.1060791015625,-0.148681640625
5.922,293,1662,579,438,-5.0,34.0,15.0,2.807616949081421,5.432128429412842,16.29638671875,-0.5638427734375,0.081298828125,-0.1412353515625
5.924,300,2503,603,405,-5.0,34.0,15.0,11.718749046325684,3.540038824081421,23.437498092651367,-0.5496826171875,0.052490234375,-0.140869140625
5.926,299,3105,568,507,-5.0,34.0,15.0,26.000974655151367,1.8920897245407104,31.555173873901367,-0.5504150390625,0.1029052734375,-0.1505126953125
5.927,302,3147,537,767,-5.0,34.0,15.0,41.687007904052734,-1.6479490995407104,37.353515625,-0.4361572265625,0.152587890625,-0.122314453125
5.941,318,3147,774,1497,-5.0,34.0,15.0,51.879878997802734,-11.413573265075684,37.41455078125,-0.2315673828125,0.2158203125,-0.0242919921875
5.950,344,3147,1214,1957,-5.0,34.0,15.0,51.147457122802734,-30.273435592651367,30.395505905151367,0.029052734375,0.41455078125,0.1014404296875
5.970,360,3147,1640,2368,-5.0,34.0,15.0,27.709959030151367,-56.762691497802734,12.268065452575684,0.236328125,0.4932861328125,0.18115234375
5.971,371,3147,1973,3134,-5.0,34.0,15.0,-14.343260765075684,-77.33154296875,-12.939452171325684,0.111328125,0.384521484375,0.0533447265625
5.979,404,3147,2207,3147,-5.0,34.0,15.0,-41.320796966552734,-71.35009765625,-28.869626998901367,-0.3321533203125,0.3248291015625,-0.4005126953125
5.987,391,3147,2310,3147,-5.0,32.0,25.0,-40.893550872802734,-42.236324310302734,-33.447265625,-0.8948974609375,0.304931640625,-0.7825927734375
6.007,411,3147,2521,3147,-5.0,32.0,25.0,-41.870113372802734,-17.7001953125,-39.97802734375,-1.4593505859375,0.2216796875,-0.8140869140625
6.022,426,3147,2612,3147,-5.0,32.0,25.0,-56.762691497802734,-8.36181640625,-47.607418060302734,-1.9844970703125,0.2703857421875,-0.77001953125
6.022,430,3147,2713,3147,-5.0,32.0,25.0,-72.69287109375,-6.774901866912842,-44.799800872802734,-2.47216796875,0.30859375,-0.634033203125
6.031,411,3147,2788,3147,-5.0,32.0,25.0,-81.97020721435547,-9.033203125,-31.921384811401367,-2.8267822265625,-0.039794921875,-0.270263671875
6.039,401,3147,2695,3147,-5.0,32.0,25.0,-72.57080078125,-11.108397483825684,-15.136717796325684,-2.8563232421875,-0.4034423828125,-0.0244140625
6.047,404,3147,2622,3147,-5.0,32.0,25.0,-36.31591796875,-3.967284917831421,3.784179449081421,-2.3018798828125,-0.509521484375,-0.150390625
6.072,430,3147,2624,3147,-5.0,32.0,25.0,13.671874046325684,9.33837890625,20.996091842651367,-1.365234375,-0.221923828125,-0.4140625
6.072,418,3147,2662,3147,-5.0,32.0,25.0,50.415035247802734,16.7236328125,31.311033248901367,-1.0438232421875,0.7186279296875,-0.588134765625
6.078,419,3147,2608,3147,-5.0,32.0,25.0,46.264644622802734,14.770506858825684,25.146482467651367,-1.4732666015625,1.31298828125,-0.6029052734375
6.092,404,3147,2432,3147,-4.0,32.0,18.0,8.7890625,9.70458984375,0.7324218153953552,-1.8404541015625,0.8560791015625,-0.4971923828125
6.102,406,3147,2328,3147,-4.0,32.0,18.0,-23.071287155151367,8.9111328125,-21.728513717651367,-1.89111328125,0.180419921875,-0.3753662109375
6.110,393,3147,2139,3147,-4.0,32.0,18.0,-30.395505905151367,13.061522483825684,-26.306150436401367,-1.764892578125,-0.1568603515625,-0.26904296875
6.132,375,3147,1722,3035,-4.0,32.0,18.0,-18.24951171875,18.1884765625,-14.953612327575684,-1.5771484375,-0.142578125,-0.205810546875
6.133,351,3147,1557,2635,-4.0,32.0,18.0,2.25830078125,20.996091842651367,2.990722417831421,-1.351318359375,0.0419921875,-0.21240234375
6.137,347,3147,1393,2350,-4.0,32.0,18.0,20.629880905151367,22.033689498901367,17.333984375,-1.1075439453125,0.1141357421875,-0.260498046875
6.151,324,3147,1079,1666,-4.0,32.0,18.0,32.04345703125,23.864744186401367,24.719236373901367,-0.8607177734375,0.092041015625,-0.3104248046875
6.174,313,3147,992,1163,-4.0,32.0,18.0,36.2548828125,26.794431686401367,27.221677780151367,-0.599609375,0.0594482421875,-0.3182373046875
6.175,306,3147,849,625,-4.0,32.0,18.0,36.62109375,26.916501998901367,23.132322311401367,-0.3729248046875,-0.0948486328125,-0.2442626953125
6.181,310,2310,726,424,-7.0,33.0,20.0,41.442867279052734,23.193357467651367,10.681151390075684,-0.2568359375,-0.21826171875,-0.1710205078125
6.190,313,1693,814,371,-7.0,33.0,20.0,54.748531341552734,20.690916061401367,-3.601073980331421,-0.27001953125,-0.0948486328125,-0.1915283203125
6.197,306,1228,832,361,-7.0,33.0,20.0,64.94140625,20.385740280151367,-11.230467796325684,-0.3526611328125,0.1917724609375,-0.239501953125
6.213,308,579,813,359,-7.0,33.0,20.0,55.419918060302734,17.63916015625,-12.084959983825684,-0.45751953125,0.4410400390625,-0.2342529296875
6.220,313,484,780,348,-7.0,33.0,20.0,28.808591842651367,11.840819358825684,-11.413573265075684,-0.5655517578125,0.5596923828125,-0.219482421875
6.232,308,479,750,359,-7.0,33.0,20.0,1.15966796875,6.958007335662842,-11.657713890075684,-0.6246337890625,0.54052734375,-0.2314453125
6.241,306,426,713,348,-7.0,33.0,20.0,-20.202634811401367,4.69970703125,-11.291502952575684,-0.6239013671875,0.3848876953125,-0.22119140625
6.249,300,455,706,359,-7.0,33.0,20.0,-33.14208984375,3.967284917831421,-9.033203125,-0.611572265625,0.1910400390625,-0.1461181640625
6.257,300,473,706,359,-7.0,33.0,20.0,-37.53662109375,3.173827886581421,-6.164550304412842,-0.6156005859375,0.038818359375,-0.05224609375
6.276,295,433,707,352,-7.0,33.0,20.0,-36.0107421875,2.01416015625,-3.784179449081421,-0.6346435546875,-0.0433349609375,-0.0068359375
6.279,299,468,702,361,-6.0,32.0,17.0,-30.029294967651367,1.3427733182907104,-0.6713866591453552,-0.64892578125,-0.03857421875,-0.0179443359375
6.287,296,510,721,364,-6.0,32.0,17.0,-20.568845748901367,1.7089842557907104,3.845214605331421,-0.6488037109375,0.035888671875,-0.0567626953125
6.315,299,815,738,371,-6.0,32.0,17.0,-11.962889671325684,2.685546636581421,8.85009765625,-0.63671875,0.114501953125,-0.0933837890625
6.317,300,1125,698,409,-6.0,32.0,17.0,-7.202147960662842,4.08935546875,13.549803733825684,-0.6295166015625,0.150390625,-0.1182861328125
6.317,298,1523,653,428,-6.0,32.0,17.0,-3.784179449081421,5.249022960662842,17.578125,-0.6495361328125,0.158935546875,-0.14013671875
6.338,299,2083,568,441,-6.0,32.0,17.0,1.4648436307907104,5.187987804412842,21.667478561401367,-0.679443359375,0.1495361328125,-0.161376953125
6.340,295,2543,582,466,-6.0,32.0,17.0,8.60595703125,3.295898199081421,26.611326217651367,-0.6451416015625,0.107666015625,-0.1568603515625
6.353,293,2890,546,519,-6.0,32.0,17.0,18.00537109375,-0.9155272841453552,31.555173873901367,-0.4896240234375,0.038818359375,-0.0966796875
6.361,300,3147,532,949,-6.0,32.0,17.0,32.65380859375,-8.72802734375,35.58349609375,-0.2596435546875,-0.0130615234375,0.0181884765625
6.378,332,3147,989,1555,-6.0,32.0,17.0,50.720211029052734,-22.644041061401367,36.80419921875,0.0118408203125,0.128662109375,0.137939453125
6.379,371,3147,1506,1943,-5.0,32.0,19.0,50.720211029052734,-22.644041061401367,36.80419921875,0.292724609375,0.394775390625,0.1971435546875
6.391,390,3147,2132,2828,-5.0,32.0,19.0,-1.220703125,-66.5283203125,9.21630859375,0.449951171875,0.4595947265625,0.15234375
6.399,405,3147,2306,3147,-5.0,32.0,19.0,-57.373043060302734,-73.18115234375,-8.97216796875,0.258056640625,0.3599853515625,-0.1627197265625
6.416,418,3147,2416,3147,-5.0,32.0,19.0,-57.373043060302734,-73.18115234375,-8.97216796875,-0.3218994140625,0.421142578125,-0.696533203125
6.422,402,3147,2560,3147,-5.0,32.0,19.0,-36.19384765625,-26.550291061401367,-23.254392623901367,-1.1031494140625,0.6922607421875,-1.0157470703125
6.442,398,3147,2662,3147,-5.0,32.0,19.0,-49.133296966552734,-13.854979515075684,-37.65869140625,-1.848388671875,0.7877197265625,-1.0894775390625
6.485,431,3147,2769,3147,-5.0,32.0,19.0,-49.133296966552734,-13.854979515075684,-37.65869140625,-2.48291015625,0.4755859375,-0.8892822265625
6.486,456,3147,2854,3147,-5.0,32.0,19.0,-112.60985565185547,-21.606443405151367,-52.368160247802734,-2.9862060546875,-0.1065673828125,-0.300537109375
6.486,430,3147,2954,3147,-5.0,32.0,19.0,-102.41698455810547,-26.123044967651367,-33.447265625,-3.1639404296875,-0.6409912109375,0.1490478515625
6.486,388,3147,2848,3147,-5.0,32.0,19.0,-102.41698455810547,-26.123044967651367,-33.447265625,-2.8565673828125,-0.7755126953125,0.0648193359375
6.486,441,3147,2867,3147,-3.0,30.0,19.0,-5.920409679412842,-2.38037109375,27.648923873901367,-1.982421875,-0.575439453125,-0.3270263671875
6.489,447,3147,2810,3147,-3.0,30.0,19.0,43.823238372802734,8.7890625,51.818843841552734,-1.3541259765625,0.409423828125,-0.718994140625
6.503,455,3147,2813,3147,-3.0,30.0,19.0,43.823238372802734,8.7890625,51.818843841552734,-1.5452880859375,1.5108642578125,-0.7939453125
6.519,416,3147,2713,3147,-3.0,30.0,19.0,19.6533203125,-4.2724609375,31.799314498901367,-1.8360595703125,1.2816162109375,-0.5225830078125
6.520,404,3147,2607,3147,-3.0,30.0,19.0,-13.671874046325684,-9.6435546875,-3.356933355331421,-1.819091796875,0.440673828125,-0.202880859375
6.527,385,3147,2394,3147,-3.0,30.0,19.0,-13.671874046325684,-9.6435546875,-3.356933355331421,-1.645263671875,-0.03564453125,-0.0040283203125
6.541,371,3147,2005,3089,-3.0,30.0,19.0,7.751464366912842,2.990722417831421,-14.465331077575684,-1.446533203125,-0.1094970703125,0.0487060546875
6.552,372,3147,1855,2734,-3.0,30.0,19.0,32.470703125,12.573241233825684,-2.13623046875,-1.248779296875,0.07177734375,-0.0191650390625
6.557,364,3147,1730,2372,-3.0,30.0,19.0,32.470703125,12.573241233825684,-2.13623046875,-1.0250244140625,0.2275390625,-0.176025390625
6.585,344,3147,1313,1875,-5.0,33.0,16.0,53.466793060302734,23.376462936401367,12.023924827575684,-0.8116455078125,0.18505859375,-0.317138671875
6.585,327,3147,1250,1401,-5.0,33.0,16.0,52.795406341552734,27.770994186401367,13.122557640075684,-0.66552734375,0.0802001953125,-0.38134765625
6.591,328,3147,1012,936,-5.0,33.0,16.0,52.795406341552734,27.770994186401367,13.122557640075684,-0.66552734375,0.0802001953125,-0.38134765625
6.602,310,2765,848,388,-5.0,33.0,16.0,48.156734466552734,29.724119186401367,8.544921875,-0.4718017578125,-0.194091796875,-0.302978515625
6.622,312,2047,759,455,-5.0,33.0,16.0,48.156734466552734,29.724119186401367,8.544921875,-0.383056640625,-0.2196044921875,-0.333251953125
6.623,316,1533,819,419,-5.0,33.0,16.0,58.410640716552734,26.489255905151367,1.9531248807907104,-0.383056640625,-0.2196044921875,-0.333251953125
6.632,313,636,818,357,-5.0,33.0,16.0,67.87109375,18.12744140625,-8.72802734375,-0.3828125,0.1639404296875,-0.2100830078125
6.639,312,465,788,354,-5.0,33.0,16.0,67.87109375,18.12744140625,-8.72802734375,-0.4742431640625,0.3465576171875,-0.1004638671875
6.647,307,382,764,356,-5.0,33.0,16.0,49.743648529052734,12.268065452575684,-11.474608421325684,-0.4742431640625,0.3465576171875,-0.1004638671875
6.661,305,426,707,344,-5.0,33.0,16.0,7.751464366912842,9.6435546875,-8.6669921875,-0.60888671875,0.5594482421875,-0.133544921875
6.693,304,466,697,317,-6.0,31.0,15.0,7.751464366912842,9.6435546875,-8.6669921875,-0.573486328125,0.4686279296875,-0.1259765625
6.694,305,530,674,316,-6.0,31.0,15.0,-11.169432640075684,10.620116233825684,-4.7607421875,-0.573486328125,0.4686279296875,-0.1259765625
6.696,306,506,653,321,-6.0,31.0,15.0,-34.3017578125,11.779784202575684,-0.54931640625,-0.5267333984375,0.189453125,0.0220947265625
6.700,302,531,656,337,-6.0,31.0,15.0,-34.3017578125,11.779784202575684,-0.54931640625,-0.5220947265625,0.079833984375,0.048828125
6.708,299,490,631,361,-6.0,31.0,15.0,-38.0859375,10.986327171325684,0.3662109076976776,-0.5220947265625,0.079833984375,0.048828125
6.726,302,525,631,359,-6.0,31.0,15.0,-39.794921875,9.33837890625,0.6713866591453552,-0.4708251953125,0.023681640625,0.0009765625
6.730,305,669,667,369,-6.0,31.0,15.0,-39.794921875,9.33837890625,0.6713866591453552,-0.4620361328125,0.0655517578125,-0.0189208984375
6.739,308,934,695,321,-6.0,31.0,15.0,-36.68212890625,7.751464366912842,1.7089842557907104,-0.4620361328125,0.0655517578125,-0.0189208984375
6.751,300,1790,636,330,-6.0,31.0,15.0,-10.498045921325684,3.723144292831421,7.629394054412842,-0.5941162109375,0.1435546875,-0.1171875
6.770,304,2243,616,323,-6.0,31.0,15.0,-10.498045921325684,3.723144292831421,7.629394054412842,-0.7281494140625,0.2181396484375,-0.20849609375
6.770,292,2480,614,493,-4.0,31.0,26.0,10.192870140075684,2.13623046875,12.573241233825684,-0.7281494140625,0.2181396484375,-0.20849609375
6.792,313,3147,855,678,-4.0,31.0,26.0,40.527339935302734,-8.4228515625,15.808104515075684,-0.3990478515625,0.182861328125,-0.1807861328125
6.792,343,3147,1079,1004,-4.0,31.0,26.0,40.527339935302734,-8.4228515625,15.808104515075684,0.004150390625,0.14599609375,-0.0657958984375
6.806,371,3147,1549,1429,-4.0,31.0,26.0,30.639646530151367,-23.498533248901367,9.521484375,0.004150390625,0.14599609375,-0.0657958984375
6.812,391,3147,2167,2160,-4.0,31.0,26.0,-1.7700194120407104,-42.968746185302734,1.4648436307907104,0.25146484375,0.1536865234375,0.2840576171875
6.828,402,3147,2319,2662,-4.0,31.0,26.0,-40.649410247802734,-57.678218841552734,-1.2817381620407104,0.25146484375,0.1536865234375,0.2840576171875
6.828,401,3147,2437,3147,-4.0,31.0,26.0,-44.921871185302734,-57.312007904052734,-1.2817381620407104,0.008056640625,0.3408203125,0.1905517578125
6.843,423,3147,2599,3147,-4.0,31.0,26.0,-8.4228515625,-40.10009765625,-7.995604991912842,-1.1705322265625,0.846435546875,-0.59033203125
6.850,433,3147,2769,3147,-4.0,31.0,26.0,17.578125,-18.49365234375,-23.071287155151367,-1.1705322265625,0.846435546875,-0.59033203125
6.857,440,3147,2843,3147,-4.0,31.0,26.0,5.432128429412842,-4.5166015625,-40.893550872802734,-1.7205810546875,0.62841796875,-0.83203125
6.871,411,3147,2959,3147,-5.0,32.0,22.0,-19.22607421875,1.8310545682907104,-56.152339935302734,-2.691650390625,-0.096923828125,-0.830322265625
6.892,415,3147,3145,3147,-5.0,32.0,22.0,-35.21728515625,2.624511480331421,-64.39208984375,-2.691650390625,-0.096923828125,-0.830322265625
6.892,401,3147,3064,3147,-5.0,32.0,22.0,-47.912593841552734,-3.479003667831421,-56.945796966552734,-2.8931884765625,-0.4049072265625,-0.518310546875
6.902,388,3147,2874,3147,-5.0,32.0,22.0,-50.109859466552734,-11.291502952575684,-32.958984375,-2.0872802734375,-0.6875,-0.44384765625
6.930,426,3147,3063,3147,-5.0,32.0,22.0,-23.498533248901367,-10.620116233825684,-1.03759765625,-2.0872802734375,-0.6875,-0.44384765625
6.930,426,3147,2940,3147,-5.0,32.0,22.0,18.4326171875,-4.638671875,28.503416061401367,-1.2626953125,0.0146484375,-0.5732421875
6.931,383,3147,2864,3147,-5.0,32.0,22.0,32.71484375,-1.03759765625,42.663570404052734,-1.6513671875,1.20947265625,-0.3206787109375
6.945,428,3147,2778,3147,-5.0,32.0,22.0,2.50244140625,0.9155272841453552,31.066892623901367,-1.6513671875,1.20947265625,-0.3206787109375
6.957,428,3147,2633,3147,-5.0,32.0,22.0,-35.94970703125,5.432128429412842,3.723144292831421,-1.8494873046875,0.4794921875,-0.1578369140625
6.965,388,3147,2317,3147,-5.0,32.0,22.0,-46.569820404052734,13.610838890075684,-13.549803733825684,-1.578125,-0.1614990234375,-0.0946044921875
6.970,399,3147,2048,3147,-4.0,30.0,25.0,-29.479978561401367,21.789548873901367,-12.023924827575684,-1.578125,-0.1614990234375,-0.0946044921875
6.995,382,3147,1848,2799,-4.0,30.0,25.0,-1.9531248807907104,26.672361373901367,0.30517578125,-1.3787841796875,-0.0078125,-0.1693115234375
6.995,323,3147,1693,2078,-4.0,30.0,25.0,20.935056686401367,27.526853561401367,12.756346702575684,-0.9515380859375,0.1605224609375,-0.3597412109375
6.999,318,3147,1439,1806,-4.0,30.0,25.0,33.69140625,26.428220748901367,19.04296875,-0.9515380859375,0.1605224609375,-0.3597412109375
7.007,315,3147,1217,1424,-4.0,30.0,25.0,38.0859375,26.489255905151367,21.240232467651367,-0.73291015625,0.078125,-0.3819580078125
7.040,315,3147,933,669,-4.0,30.0,25.0,35.94970703125,27.832029342651367,22.338865280151367,-0.4583740234375,-0.04833984375,-0.2861328125
7.040,310,3022,810,328,-4.0,30.0,25.0,30.212400436401367,27.587888717651367,20.01953125,-0.4583740234375,-0.04833984375,-0.2861328125
7.041,306,2190,777,302,-4.0,30.0,25.0,28.442380905151367,26.611326217651367,12.390135765075684,-0.37451171875,-0.11328125,-0.3035888671875
7.051,308,1381,800,321,-4.0,30.0,25.0,33.26416015625,26.672361373901367,1.5258787870407104,-0.35400390625,-0.0390625,-0.3436279296875
7.061,309,919,793,317,-4.0,30.0,25.0,33.8134765625,24.291990280151367,-7.873534679412842,-0.401123046875,0.1690673828125,-0.28662109375
7.068,308,561,728,322,-6.0,33.0,18.0,23.193357467651367,17.02880859375,-11.779784202575684,-0.484619140625,0.3831787109375,-0.1593017578125
7.098,306,543,638,321,-6.0,33.0,18.0,10.498045921325684,8.4228515625,-11.108397483825684,-0.5672607421875,0.4930419921875,-0.0816650390625
7.099,306,564,661,315,-6.0,33.0,18.0,4.33349609375,3.479003667831421,-9.46044921875,-0.6060791015625,0.4947509765625,-0.071533203125
7.099,308,493,634,318,-6.0,33.0,18.0,0.4272460639476776,3.479003667831421,-7.995604991912842,-0.61962890625,0.4150390625,-0.08544921875
7.111,304,527,586,317,-6.0,33.0,18.0,-5.432128429412842,6.286620616912842,-6.286620616912842,-0.644775390625,0.2991943359375,-0.0755615234375
7.123,304,525,578,318,-6.0,33.0,18.0,-12.084959983825684,8.4228515625,-3.662109136581421,-0.6646728515625,0.2044677734375,-0.02978515625
7.144,306,526,553,318,-6.0,33.0,18.0,-19.10400390625,8.72802734375,-0.9155272841453552,-0.6700439453125,0.1197509765625,-0.001953125
7.144,304,571,548,317,-6.0,33.0,18.0,-24.780271530151367,8.85009765625,0.54931640625,-0.6527099609375,0.026123046875,-0.0347900390625
7.151,304,579,540,318,-6.0,33.0,18.0,-26.000974655151367,9.46044921875,1.4648436307907104,-0.628662109375,-0.0087890625,-0.1004638671875
7.159,305,594,592,317,-6.0,33.0,18.0,-22.460935592651367,9.6435546875,3.662109136581421,-0.6114501953125,0.0379638671875,-0.159912109375
7.171,306,806,606,318,-6.0,30.0,16.0,-15.991209983825684,8.72802734375,6.958007335662842,-0.5980224609375,0.097412109375,-0.2032470703125
7.179,304,1112,591,316,-6.0,30.0,16.0,-8.48388671875,6.652831554412842,10.620116233825684,-0.607177734375,0.1297607421875,-0.2239990234375
7.201,304,1575,567,321,-6.0,30.0,16.0,-1.03759765625,3.540038824081421,15.136717796325684,-0.6239013671875,0.133544921875,-0.205810546875
7.203,304,2443,509,330,-6.0,30.0,16.0,8.72802734375,-0.1220703050494194,21.057126998901367,-0.5909423828125,0.1080322265625,-0.1485595703125
7.209,304,3147,543,368,-6.0,30.0,16.0,22.949216842651367,-4.57763671875,28.015134811401367,-0.443359375,0.0570068359375,-0.048583984375
7.218,299,3147,537,873,-6.0,30.0,16.0,39.97802734375,-13.122557640075684,34.0576171875,-0.1241455078125,-0.045654296875,0.0859375
7.238,333,3147,1357,1735,-6.0,30.0,16.0,58.044429779052734,-29.479978561401367,36.376953125,0.3330078125,0.0233154296875,0.182861328125
7.240,388,3147,2102,2104,-6.0,30.0,16.0,62.377925872802734,-55.908199310302734,28.198240280151367,0.6474609375,0.422607421875,0.1800537109375
7.254,387,3147,2484,2630,-6.0,30.0,16.0,30.029294967651367,-88.56200408935547,3.784179449081421,0.59326171875,0.756103515625,0.1324462890625
7.261,430,3147,2708,3147,-5.0,31.0,22.0,-15.563963890075684,-105.46874237060547,-30.517576217651367,0.1378173828125,0.804443359375,-0.134033203125
7.269,419,3147,2885,3147,-5.0,31.0,22.0,-22.277830123901367,-84.89989471435547,-62.377925872802734,-0.697509765625,0.9315185546875,-0.6490478515625
7.277,346,3147,2990,3147,-5.0,31.0,22.0,-8.60595703125,-44.372554779052734,-86.18163299560547,-1.5906982421875,1.142578125,-0.9766845703125
7.303,348,3147,3147,3147,-5.0,31.0,22.0,-34.423828125,-13.854979515075684,-102.96630096435547,-2.1961669921875,0.75634765625,-1.0177001953125
7.303,372,3147,3147,3147,-5.0,31.0,22.0,-92.77342987060547,2.44140625,-107.54393768310547,-2.7379150390625,-0.3372802734375,-0.765869140625
7.307,484,3147,3147,3147,-5.0,31.0,22.0,-132.62939453125,5.126952648162842,-83.31298065185547,-3.257568359375,-1.5335693359375,-0.207763671875
7.321,418,3147,3000,3147,-5.0,31.0,22.0,-117.91991424560547,-0.7934569716453552,-29.174802780151367,-3.371337890625,-1.90478515625,0.0616455078125
7.339,393,3147,3147,3147,-5.0,31.0,22.0,-47.973628997802734,-0.9765624403953552,33.5693359375,-2.6732177734375,-1.2623291015625,-0.24951171875
7.340,420,3147,3147,3147,-5.0,31.0,22.0,39.73388671875,3.295898199081421,78.06396484375,-1.645263671875,0.1427001953125,-0.687255859375
7.353,431,3147,3040,3147,-5.0,31.0,22.0,87.46337127685547,1.5258787870407104,85.87645721435547,-1.406005859375,1.6771240234375,-0.7904052734375
7.359,425,3147,2965,3147,-3.0,30.0,20.0,64.0869140625,-5.737304210662842,55.725093841552734,-1.6533203125,1.732421875,-0.533935546875
7.368,411,3147,2822,3147,-3.0,30.0,20.0,12.817381858825684,-8.48388671875,12.634276390075684,-1.7027587890625,0.6561279296875,-0.2498779296875
7.382,391,3147,2306,3147,-3.0,30.0,20.0,-12.023924827575684,-1.6479490995407104,-10.375975608825684,-1.593505859375,-0.072265625,-0.1065673828125
7.407,382,3147,2115,2974,-3.0,30.0,20.0,-7.141112804412842,9.1552734375,-9.09423828125,-1.4617919921875,-0.2203369140625,-0.0955810546875
7.408,369,3147,2007,2591,-3.0,30.0,20.0,8.544921875,17.2119140625,3.112792730331421,-1.34765625,-0.031982421875,-0.2005615234375
7.411,342,3147,1610,2179,-3.0,30.0,20.0,19.6533203125,20.507810592651367,15.319823265075684,-1.190673828125,0.14501953125,-0.34423828125
7.422,348,3147,1428,1800,-3.0,30.0,20.0,20.812986373901367,20.874021530151367,22.338865280151367,-0.9700927734375,0.1173095703125,-0.3966064453125
7.444,336,3147,1281,1343,-3.0,30.0,20.0,15.869139671325684,21.606443405151367,25.634763717651367,-0.7392578125,0.0181884765625,-0.356201171875
7.445,330,3147,980,533,-3.0,30.0,20.0,11.413573265075684,22.644041061401367,27.282712936401367,-0.5323486328125,-0.09326171875,-0.2677001953125
7.450,314,2484,959,336,-3.0,30.0,20.0,11.413573265075684,21.911619186401367,24.658201217651367,-0.36181640625,-0.2950439453125,-0.1923828125
7.459,318,1883,814,388,-6.0,31.0,19.0,20.507810592651367,21.972654342651367,17.9443359375,-0.256103515625,-0.39599609375,-0.193603515625
7.481,312,1328,775,400,-6.0,31.0,19.0,36.80419921875,23.742673873901367,12.817381858825684,-0.25244140625,-0.1759033203125,-0.1871337890625
7.481,310,975,837,387,-6.0,31.0,19.0,45.654293060302734,21.179197311401367,11.596678733825684,-0.3243408203125,0.193115234375,-0.1246337890625
7.488,313,630,816,359,-6.0,31.0,19.0,39.97802734375,12.756346702575684,11.291502952575684,-0.419189453125,0.4384765625,-0.0765380859375
7.515,302,514,797,338,-6.0,31.0,19.0,30.639646530151367,4.08935546875,9.82666015625,-0.5120849609375,0.5767822265625,-0.1019287109375
7.516,300,508,739,359,-6.0,31.0,19.0,22.033689498901367,-0.1831054538488388,7.690429210662842,-0.55126953125,0.648681640625,-0.166259765625
7.517,302,482,738,356,-6.0,31.0,19.0,22.033689498901367,-0.1831054538488388,7.690429210662842,-0.5543212890625,0.5697021484375,-0.184326171875
7.546,305,536,713,348,-6.0,31.0,19.0,-9.33837890625,1.0986328125,0.30517578125,-0.5675048828125,0.4180908203125,-0.1240234375
7.547,286,728,707,323,-6.0,31.0,19.0,-23.010251998901367,1.03759765625,-1.6479490995407104,-0.5946044921875,0.2957763671875,-0.02978515625
7.548,300,766,680,364,-6.0,31.0,19.0,-32.958984375,0.0,-1.0986328125,-0.6011962890625,0.1600341796875,0.03173828125
7.558,300,867,687,385,-8.0,28.0,14.0,-32.958984375,0.0,-1.0986328125,-0.5849609375,0.0262451171875,0.0421142578125
7.571,300,1274,653,385,-8.0,28.0,14.0,-36.9873046875,0.4272460639476776,3.906249761581421,-0.5919189453125,-0.0189208984375,0.0145263671875
7.579,302,1483,648,418,-8.0,28.0,14.0,-30.395505905151367,1.8920897245407104,9.8876953125,-0.64599609375,0.027099609375,-0.0474853515625
7.608,300,1700,642,439,-8.0,28.0,14.0,-30.395505905151367,1.8920897245407104,9.8876953125,-0.7509765625,0.13623046875,-0.14306640625
7.608,302,2119,628,354,-8.0,28.0,14.0,-2.25830078125,3.234863042831421,22.460935592651367,-0.8468017578125,0.2601318359375,-0.2432861328125
7.616,302,2467,572,439,-8.0,28.0,14.0,9.033203125,1.0986328125,26.489255905151367,-0.872802734375,0.2911376953125,-0.31787109375
7.616,304,2787,594,473,-8.0,28.0,14.0,9.033203125,1.0986328125,26.489255905151367,-0.872802734375,0.2911376953125,-0.31787109375
7.630,300,3147,576,499,-8.0,28.0,14.0,13.488768577575684,-8.1787109375,33.38623046875,-0.7911376953125,0.1922607421875,-0.27490234375
7.648,299,3147,567,710,-8.0,28.0,14.0,13.488768577575684,-8.1787109375,33.38623046875,-0.69921875,0.1207275390625,-0.1226806640625
7.649,308,3147,713,1000,-8.0,28.0,14.0,9.521484375,-14.587401390075684,39.48974609375,-0.69921875,0.1207275390625,-0.1226806640625
7.661,361,3147,1334,1806,-8.0,32.0,21.0,26.306150436401367,-35.21728515625,44.799800872802734,-0.300048828125,-0.1788330078125,0.359619140625
7.669,360,3147,1848,2162,-8.0,32.0,21.0,26.306150436401367,-35.21728515625,44.799800872802734,-0.009765625,-0.1221923828125,0.41064453125
7.676,371,3147,2337,2356,-8.0,32.0,21.0,51.696773529052734,-47.851558685302734,38.2080078125,-0.009765625,-0.1221923828125,0.41064453125
7.690,347,3147,2726,2832,-8.0,32.0,21.0,64.697265625,-50.109859466552734,6.896972179412842,-0.049072265625,0.5809326171875,-0.26416015625
7.709,334,3147,2909,3062,-8.0,32.0,21.0,64.697265625,-50.109859466552734,6.896972179412842,-0.317626953125,0.9010009765625,-0.72900390625
7.709,438,3147,2847,3147,-8.0,32.0,21.0,50.231929779052734,-35.33935546875,-9.09423828125,-0.317626953125,0.9010009765625,-0.72900390625
7.724,454,3147,2955,3147,-8.0,32.0,21.0,-12.390135765075684,-13.122557640075684,-38.2080078125,-1.2000732421875,1.0384521484375,-1.0399169921875
7.729,440,3147,3072,3147,-8.0,32.0,21.0,-12.390135765075684,-13.122557640075684,-38.2080078125,-1.747802734375,0.5711669921875,-0.8660888671875
7.747,411,3147,3147,3147,-8.0,32.0,21.0,-49.316402435302734,-18.5546875,-51.391597747802734,-1.747802734375,0.5711669921875,-0.8660888671875
7.750,497,3147,3147,3147,-4.0,31.0,19.0,-67.44384765625,-39.6728515625,-54.992671966552734,-2.826904296875,-0.0653076171875,-0.3701171875
7.759,481,3147,3147,3147,-4.0,31.0,19.0,-67.44384765625,-39.6728515625,-54.992671966552734,-2.96044921875,-0.49853515625,-0.0543212890625
7.767,395,3147,3147,3147,-4.0,31.0,19.0,-55.786128997802734,-45.959468841552734,-44.006343841552734,-2.96044921875,-0.49853515625,-0.0543212890625
7.781,455,3147,3107,3147,-4.0,31.0,19.0,11.413573265075684,-24.902341842651367,-8.6669921875,-1.483154296875,-0.2720947265625,-0.2642822265625
7.788,456,3147,3128,3147,-4.0,31.0,19.0,11.413573265075684,-24.902341842651367,-8.6669921875,-1.25732421875,0.7884521484375,-0.414306640625
7.819,446,3147,3090,3147,-4.0,31.0,19.0,29.296873092651367,-9.6435546875,11.108397483825684,-1.25732421875,0.7884521484375,-0.414306640625
7.819,442,3147,2984,3147,-4.0,31.0,19.0,-35.09521484375,8.056640625,2.50244140625,-1.9697265625,0.3739013671875,0.0487060546875
7.819,430,3147,2850,3147,-4.0,31.0,19.0,-35.09521484375,8.056640625,2.50244140625,-1.898681640625,-0.1077880859375,0.125
7.830,418,3147,2673,3147,-4.0,31.0,19.0,-42.663570404052734,16.78466796875,-6.652831554412842,-1.898681640625,-0.1077880859375,0.125
7.850,400,3147,2296,2918,-4.0,31.0,19.0,-19.287109375,26.306150436401367,-1.4038084745407104,-1.4068603515625,0.1234130859375,-0.115966796875
7.852,383,3147,2126,2527,-9.0,32.0,23.0,10.864256858825684,32.958984375,8.544921875,-1.4068603515625,0.1234130859375,-0.115966796875
7.857,390,3147,1888,2217,-9.0,32.0,23.0,32.53173828125,34.97314453125,14.160155296325684,-1.0986328125,0.2520751953125,-0.2608642578125
7.871,360,3147,1398,1409,-9.0,32.0,23.0,41.442867279052734,34.912109375,14.160155296325684,-0.55419921875,0.256103515625,-0.44287109375
7.878,342,3147,1132,883,-9.0,32.0,23.0,36.376953125,36.07177734375,11.657713890075684,-0.55419921875,0.256103515625,-0.44287109375
7.889,324,2859,992,512,-9.0,32.0,23.0,22.705076217651367,38.51318359375,7.507323741912842,-0.4443359375,0.1614990234375,-0.4259033203125
7.916,316,1750,737,411,-9.0,32.0,23.0,10.498045921325684,40.161128997802734,2.13623046875,-0.32080078125,-0.0902099609375,-0.3707275390625
7.916,315,1474,790,416,-9.0,32.0,23.0,6.835937023162842,40.344234466552734,-3.540038824081421,-0.32080078125,-0.0902099609375,-0.3707275390625
7.917,316,1151,808,387,-9.0,32.0,23.0,10.131834983825684,38.9404296875,-9.033203125,-0.313232421875,-0.1329345703125,-0.3214111328125
7.957,304,658,763,361,-9.0,32.0,23.0,4.82177734375,32.40966796875,-12.390135765075684,-0.5252685546875,0.20849609375,-0.001953125
7.958,299,458,748,318,-9.0,32.0,23.0,-13.732909202575684,20.01953125,-13.977049827575684,-0.5252685546875,0.20849609375,-0.001953125
7.958,302,456,720,304,-9.0,32.0,25.0,-22.888181686401367,8.6669921875,-14.526366233825684,-0.6573486328125,0.334716796875,0.075439453125
7.960,304,401,673,318,-9.0,32.0,25.0,-15.136717796325684,4.21142578125,-12.084959983825684,-0.7076416015625,0.3953857421875,-0.0306396484375
7.968,304,401,642,316,-9.0,32.0,25.0,-6.225585460662842,5.126952648162842,-7.995604991912842,-0.7076416015625,0.3953857421875,-0.0306396484375
7.976,304,480,607,318,-9.0,32.0,25.0,-1.03759765625,9.033203125,-4.638671875,-0.674560546875,0.295654296875,-0.0538330078125
7.992,305,519,593,321,-9.0,32.0,25.0,-0.4882812201976776,13.671874046325684,-0.54931640625,-0.6090087890625,0.1895751953125,-0.0032958984375
7.999,305,540,578,318,-9.0,32.0,25.0,-8.7890625,17.15087890625,4.45556640625,-0.6090087890625,0.1895751953125,-0.0032958984375
8.017,304,533,567,316,-9.0,32.0,25.0,-21.484373092651367,19.6533203125,8.6669921875,-0.5963134765625,0.1029052734375,0.0018310546875
8.020,299,579,513,327,-9.0,32.0,25.0,-30.822751998901367,21.789548873901367,12.695311546325684,-0.47900390625,0.009521484375,-0.0030517578125
8.029,296,710,540,376,-9.0,32.0,25.0,-34.60693359375,22.766111373901367,17.88330078125,-0.47900390625,0.009521484375,-0.0030517578125
8.059,302,1199,592,330,-9.0,32.0,25.0,-30.883787155151367,21.179197311401367,24.047849655151367,-0.3572998046875,-0.0775146484375,-0.0003662109375
8.059,304,2559,532,374,-9.0,32.0,19.0,-15.624999046325684,16.17431640625,31.555173873901367,-0.0059814453125,-0.2667236328125,0.1112060546875
8.060,293,3147,568,518,-9.0,32.0,19.0,13.671874046325684,7.873534679412842,41.198726654052734,-0.0059814453125,-0.2667236328125,0.1112060546875
8.070,318,3147,785,1056,-9.0,32.0,19.0,59.692378997802734,-2.807616949081421,51.574703216552734,0.1119384765625,-0.037841796875,0.1409912109375
8.081,375,3147,1634,1891,-9.0,32.0,19.0,109.49706268310547,-19.6533203125,53.405757904052734,0.3720703125,0.7230224609375,-0.0289306640625
8.089,400,3147,2128,2068,-9.0,32.0,19.0,116.76024627685547,-49.743648529052734,34.66796875,0.3720703125,0.7230224609375,-0.0289306640625
8.097,371,3147,2347,2920,-9.0,32.0,19.0,62.316890716552734,-86.97509002685547,5.554198741912842,0.1728515625,0.8641357421875,-0.2149658203125
8.126,361,3147,2498,3147,-9.0,32.0,19.0,10.803221702575684,-107.60497283935547,-19.53125,-1.05517578125,1.2283935546875,-1.1397705078125
8.126,378,3147,2721,3147,-9.0,32.0,19.0,17.822265625,-89.90477752685547,-45.837398529052734,-1.05517578125,1.2283935546875,-1.1397705078125
8.128,345,3147,2891,3147,-9.0,32.0,19.0,20.507810592651367,-55.114742279052734,-78.4912109375,-1.721435546875,1.5462646484375,-1.32080078125
8.159,330,3147,3147,3147,-5.0,30.0,19.0,-48.706050872802734,-35.888671875,-110.59569549560547,-2.5623779296875,-0.36962890625,-0.1036376953125
8.159,388,3147,3147,3147,-5.0,30.0,19.0,-134.3994140625,-25.451658248901367,-121.88719940185547,-2.5623779296875,-0.36962890625,-0.1036376953125
8.159,382,3147,3147,3147,-5.0,30.0,19.0,-159.1796875,-12.390135765075684,-97.16796112060547,-3.154052734375,-1.4044189453125,0.4710693359375
8.172,355,3147,2918,3147,-5.0,30.0,19.0,-114.68505096435547,1.8310545682907104,-44.189449310302734,-3.2120361328125,-1.901123046875,0.5040283203125
8.182,361,3147,2996,3147,-5.0,30.0,19.0,-28.625486373901367,20.324705123901367,15.808104515075684,-2.372802734375,-1.56787109375,-0.0504150390625
8.188,348,3147,3065,3147,-5.0,30.0,19.0,59.997554779052734,38.6962890625,61.706539154052734,-1.4261474609375,-0.026123046875,-0.7874755859375
8.204,348,3147,3084,3147,-5.0,30.0,19.0,94.72655487060547,39.6728515625,75.37841796875,-1.3929443359375,1.6363525390625,-1.0589599609375
8.224,338,3147,3022,3147,-5.0,30.0,19.0,55.480953216552734,20.629880905151367,49.865718841552734,-1.678955078125,1.54345703125,-0.773193359375
8.224,334,3147,2854,3147,-5.0,30.0,19.0,2.929687261581421,1.3427733182907104,10.681151390075684,-1.684814453125,0.5401611328125,-0.405517578125
8.231,332,3147,2505,3040,-5.0,30.0,19.0,-12.756346702575684,-3.112792730331421,-9.6435546875,-1.56103515625,0.0506591796875,-0.178955078125
8.240,328,3147,2308,2760,-6.0,29.0,18.0,-3.356933355331421,3.356933355331421,-10.009765625,-1.4290771484375,-0.0010986328125,-0.103271484375
8.273,328,3147,2134,2505,-6.0,29.0,18.0,8.97216796875,12.268065452575684,-3.662109136581421,-1.3115234375,0.1278076171875,-0.1396484375
8.273,321,3147,1730,1943,-6.0,29.0,18.0,15.502928733825684,18.798828125,2.25830078125,-1.1575927734375,0.2161865234375,-0.242431640625
8.275,323,3147,1518,1616,-6.0,29.0,18.0,15.136717796325684,23.498533248901367,6.713866710662842,-0.9749755859375,0.1556396484375,-0.3209228515625
8.281,304,3147,1355,980,-6.0,29.0,18.0,12.084959983825684,27.893064498901367,10.986327171325684,-0.8424072265625,0.0577392578125,-0.322265625
8.295,310,3062,1064,330,-6.0,29.0,18.0,11.352538108825684,30.822751998901367,15.441893577575684,-0.7303466796875,-0.0150146484375,-0.244140625
8.300,315,2277,947,327,-6.0,29.0,18.0,17.333984375,30.517576217651367,18.06640625,-0.55078125,-0.165771484375,-0.1778564453125
8.345,308,1850,842,330,-6.0,29.0,18.0,34.11865234375,29.907224655151367,17.08984375,-0.3555908203125,-0.30859375,-0.218994140625
8.345,310,1271,826,326,-6.0,29.0,18.0,53.955074310302734,30.273435592651367,13.488768577575684,-0.2532958984375,-0.2330322265625,-0.2574462890625
8.345,313,934,786,323,-6.0,29.0,18.0,59.204097747802734,27.526853561401367,10.253905296325684,-0.259765625,0.0665283203125,-0.1729736328125
8.345,306,653,801,300,-10.0,32.0,20.0,47.241207122802734,20.446775436401367,9.3994140625,-0.37158203125,0.416259765625,-0.0770263671875
8.430,308,632,778,323,-10.0,32.0,20.0,30.883787155151367,13.366698265075684,10.253905296325684,-0.5335693359375,0.6256103515625,-0.106201171875
8.432,308,466,750,318,-10.0,32.0,20.0,14.831542015075684,9.58251953125,11.352538108825684,-0.6156005859375,0.6458740234375,-0.183837890625
8.433,309,526,744,318,-10.0,32.0,20.0,-3.540038824081421,9.6435546875,10.498045921325684,-0.6158447265625,0.5396728515625,-0.2176513671875
8.433,307,506,705,302,-10.0,32.0,20.0,-20.568845748901367,11.779784202575684,6.896972179412842,-0.6158447265625,0.41015625,-0.188232421875
8.433,308,601,678,317,-10.0,32.0,20.0,-32.71484375,12.451170921325684,2.50244140625,-0.6396484375,0.2982177734375,-0.1109619140625
8.433,308,624,668,321,-10.0,32.0,20.0,-41.076656341552734,10.559081077575684,-0.9765624403953552,-0.6591796875,0.172607421875,-0.0458984375
8.433,308,682,673,315,-10.0,32.0,20.0,-46.142574310302734,8.23974609375,-2.990722417831421,-0.6468505859375,0.048828125,-0.0244140625
8.433,309,858,710,322,-10.0,32.0,20.0,-45.776363372802734,6.591796398162842,-2.38037109375,-0.61376953125,-0.00732421875,-0.0302734375
8.433,310,1029,694,327,-10.0,32.0,20.0,-38.75732421875,5.249022960662842,1.5869139432907104,-0.584716796875,0.0062255859375,-0.0506591796875
8.439,308,1323,678,323,-6.0,29.0,22.0,-26.306150436401367,4.150390625,7.812499523162842,-0.5731201171875,0.02783203125,-0.0849609375
8.481,308,1973,625,321,-6.0,29.0,22.0,-10.070799827575684,2.868652105331421,14.587401390075684,-0.595947265625,0.0479736328125,-0.1302490234375
8.481,281,2337,532,464,-6.0,29.0,22.0,9.33837890625,0.1220703050494194,21.545408248901367,-0.630615234375,0.099609375,-0.18212890625
8.481,299,2854,607,444,-6.0,29.0,22.0,30.944822311401367,-6.347655773162842,29.357908248901367,-0.55419921875,0.0648193359375,-0.2218017578125
8.482,302,3147,737,646,-6.0,29.0,22.0,53.466793060302734,-18.00537109375,39.0625,-0.374267578125,-0.093017578125,-0.2161865234375
8.496,316,3147,1000,1078,-6.0,29.0,22.0,76.5380859375,-34.60693359375,51.330562591552734,-0.21142578125,-0.0506591796875,-0.1331787109375
8.497,336,3147,1422,1456,-6.0,29.0,22.0,90.63719940185547,-55.603023529052734,57.067867279052734,-0.0697021484375,0.3646240234375,-0.0113525390625
8.513,361,3147,2093,2100,-6.0,29.0,22.0,72.8759765625,-79.40673828125,38.2080078125,0.032470703125,0.75390625,0.0545654296875
8.533,348,3147,2384,2593,-6.0,29.0,22.0,18.98193359375,-94.54344940185547,-3.234863042831421,-0.0233154296875,0.7239990234375,-0.049072265625
8.533,359,3147,2484,2981,-6.0,29.0,22.0,-33.26416015625,-83.49608612060547,-38.63525390625,-0.3038330078125,0.568115234375,-0.3094482421875
8.541,364,3147,2810,3147,-8.0,31.0,22.0,-56.335445404052734,-49.194332122802734,-53.649898529052734,-0.7191162109375,0.593994140625,-0.50341796875
8.549,364,3147,2929,3147,-8.0,31.0,22.0,-70.00732421875,-17.4560546875,-60.424800872802734,-1.20947265625,0.709228515625,-0.57763671875
8.558,359,3147,3055,3147,-8.0,31.0,22.0,-70.00732421875,-17.4560546875,-60.424800872802734,-1.7510986328125,0.662109375,-0.6038818359375
8.576,507,3147,3147,3147,-8.0,31.0,22.0,-106.01805877685547,-2.563476324081421,-63.537593841552734,-2.354248046875,0.2166748046875,-0.4749755859375
8.579,591,3147,3147,3147,-8.0,31.0,22.0,-98.99901580810547,-6.835937023162842,-50.292964935302734,-2.841064453125,-0.4080810546875,-0.1312255859375
8.587,541,3147,3147,3147,-8.0,31.0,22.0,-98.99901580810547,-6.835937023162842,-50.292964935302734,-2.8878173828125,-0.92919921875,0.1700439453125
8.606,401,3147,2955,3147,-8.0,31.0,22.0,-13.244627952575684,-7.385253429412842,8.11767578125,-2.399169921875,-0.958740234375,-0.0262451171875
