time,compression0,compression1,compression2,compression3,magn_x,magn_y,magn_z,gyro_x,gyro_y,gyro_z,accel_x,accel_y,accel_z
0.001,316,947,432,316,0.0,36.0,8.0,13.061522483825684,-4.2724609375,1.15966796875,-0.8389892578125,0.4888916015625,-0.2376708984375
0.010,315,943,426,321,0.0,36.0,8.0,10.559081077575684,-4.33349609375,2.01416015625,-0.835693359375,0.5001220703125,-0.233154296875
0.023,316,998,418,323,0.0,36.0,8.0,6.591796398162842,-4.39453125,2.50244140625,-0.8297119140625,0.487548828125,-0.2286376953125
0.031,315,923,439,321,3.0,34.0,9.0,2.25830078125,-4.638671875,2.44140625,-0.8209228515625,0.4664306640625,-0.2220458984375
0.054,316,942,446,321,3.0,34.0,9.0,-1.03759765625,-5.249022960662842,2.197265625,-0.811767578125,0.460205078125,-0.2132568359375
0.054,314,966,430,319,3.0,34.0,9.0,-2.44140625,-6.164550304412842,2.25830078125,-0.8046875,0.4749755859375,-0.20458984375
0.061,315,1043,430,323,3.0,34.0,9.0,-2.13623046875,-7.080077648162842,2.624511480331421,-0.7994384765625,0.4833984375,-0.197509765625
0.069,316,999,439,323,3.0,34.0,9.0,-0.54931640625,-7.568358898162842,3.112792730331421,-0.7965087890625,0.47802734375,-0.193603515625
0.087,317,1178,442,321,3.0,34.0,9.0,1.15966796875,-7.568358898162842,3.479003667831421,-0.8009033203125,0.4788818359375,-0.1943359375
0.091,316,1170,441,323,3.0,34.0,9.0,1.4648436307907104,-7.385253429412842,3.723144292831421,-0.8148193359375,0.4893798828125,-0.196044921875
0.101,314,1185,417,323,3.0,34.0,9.0,0.30517578125,-7.324218273162842,3.601073980331421,-0.838134765625,0.50048828125,-0.199462890625
0.113,321,1278,439,323,3.0,34.0,9.0,-0.6713866591453552,-7.568358898162842,3.234863042831421,-0.8681640625,0.519287109375,-0.2099609375
0.121,318,1328,433,324,3.0,34.0,9.0,-0.2441406100988388,-8.11767578125,2.746581792831421,-0.8994140625,0.557373046875,-0.2298583984375
0.129,319,1351,440,323,2.0,34.0,7.0,-0.2441406100988388,-8.11767578125,2.746581792831421,-0.933837890625,0.6021728515625,-0.253662109375
0.153,322,1209,445,322,2.0,34.0,7.0,0.2441406100988388,-10.009765625,0.7934569716453552,-0.9698486328125,0.62548828125,-0.2733154296875
0.153,321,1108,445,323,2.0,34.0,7.0,-2.13623046875,-11.108397483825684,-0.0610351525247097,-0.997314453125,0.609619140625,-0.283203125
0.159,321,1029,454,323,2.0,34.0,7.0,-2.13623046875,-11.108397483825684,-0.0610351525247097,-1.0146484375,0.5587158203125,-0.285400390625
0.173,321,725,439,323,2.0,34.0,7.0,-9.3994140625,-14.709471702575684,0.3662109076976776,-1.0284423828125,0.4969482421875,-0.2791748046875
0.187,321,631,428,316,2.0,34.0,7.0,-8.85009765625,-16.357421875,1.220703125,-1.0372314453125,0.4658203125,-0.2574462890625
0.194,299,614,424,318,2.0,34.0,7.0,-8.85009765625,-16.357421875,1.220703125,-1.0361328125,0.4945068359375,-0.225341796875
0.209,316,523,431,316,2.0,34.0,7.0,3.723144292831421,-17.27294921875,1.8920897245407104,-1.0220947265625,0.5577392578125,-0.1939697265625
0.211,302,532,419,318,2.0,34.0,7.0,8.544921875,-17.333984375,1.0986328125,-0.997314453125,0.6114501953125,-0.1773681640625
0.219,316,588,437,319,2.0,34.0,7.0,8.544921875,-17.333984375,1.0986328125,-0.9801025390625,0.6474609375,-0.1826171875
0.233,318,513,455,317,1.0,36.0,12.0,8.9111328125,-16.845703125,-2.13623046875,-0.9820556640625,0.6705322265625,-0.2034912109375
0.256,321,490,464,316,1.0,36.0,12.0,9.3994140625,-16.4794921875,-3.906249761581421,-0.987060546875,0.6534423828125,-0.208984375
0.256,316,521,454,321,1.0,36.0,12.0,9.3994140625,-16.4794921875,-3.906249761581421,-0.968017578125,0.5804443359375,-0.189697265625
0.263,316,539,437,319,1.0,36.0,12.0,15.380858421325684,-16.05224609375,-7.446288585662842,-0.91650390625,0.51220703125,-0.1947021484375
0.273,315,519,427,318,1.0,36.0,12.0,24.230955123901367,-12.512206077575684,-10.009765625,-0.871337890625,0.488525390625,-0.2401123046875
0.279,316,533,433,317,1.0,36.0,12.0,24.230955123901367,-12.512206077575684,-10.009765625,-0.8553466796875,0.4892578125,-0.2755126953125
0.295,316,485,439,317,1.0,36.0,12.0,35.15625,-3.051757574081421,-17.63916015625,-0.8419189453125,0.4918212890625,-0.263427734375
0.301,316,509,437,317,1.0,36.0,12.0,31.921384811401367,-0.9155272841453552,-21.362302780151367,-0.823974609375,0.4888916015625,-0.2315673828125
0.313,315,508,427,318,1.0,36.0,12.0,31.921384811401367,-0.9155272841453552,-21.362302780151367,-0.8118896484375,0.4913330078125,-0.2178955078125
0.334,313,506,430,316,0.0,34.0,10.0,19.34814453125,-0.8544921278953552,-26.062009811401367,-0.808349609375,0.4853515625,-0.218505859375
0.334,315,509,439,316,0.0,34.0,10.0,13.610838890075684,-1.7700194120407104,-26.428220748901367,-0.8106689453125,0.44677734375,-0.2147216796875
0.384,316,497,454,317,0.0,34.0,10.0,13.610838890075684,-1.7700194120407104,-26.428220748901367,-0.8106689453125,0.44677734375,-0.2147216796875
0.385,316,486,441,315,0.0,34.0,10.0,9.58251953125,-4.0283203125,-22.644041061401367,-0.8084716796875,0.3487548828125,-0.177001953125
0.385,316,484,437,316,0.0,34.0,10.0,9.58251953125,-4.0283203125,-22.644041061401367,-0.799072265625,0.3399658203125,-0.1572265625
0.385,317,464,435,317,0.0,34.0,10.0,10.192870140075684,-5.126952648162842,-18.49365234375,-0.799072265625,0.3399658203125,-0.1572265625
0.390,323,468,427,316,0.0,34.0,10.0,12.145995140075684,-5.737304210662842,-9.3994140625,-0.767822265625,0.322998046875,-0.1658935546875
0.398,324,484,424,316,0.0,34.0,10.0,12.145995140075684,-5.737304210662842,-9.3994140625,-0.7598876953125,0.29443359375,-0.17724609375
0.400,328,457,419,315,0.0,34.0,10.0,12.390135765075684,-4.8828125,-7.080077648162842,-0.7598876953125,0.29443359375,-0.17724609375
0.420,323,438,426,316,0.0,34.0,10.0,11.169432640075684,-2.44140625,-5.432128429412842,-0.766357421875,0.2542724609375,-0.175048828125
0.421,323,424,423,295,1.0,33.0,15.0,11.169432640075684,-2.44140625,-5.432128429412842,-0.7750244140625,0.2503662109375,-0.1611328125
0.429,322,416,414,316,1.0,33.0,15.0,11.901854515075684,-1.9531248807907104,-5.0048828125,-0.7750244140625,0.2503662109375,-0.1611328125
0.446,315,426,431,316,1.0,33.0,15.0,16.845703125,-2.0751953125,-4.638671875,-0.7884521484375,0.2802734375,-0.1220703125
0.461,315,439,426,318,1.0,33.0,15.0,16.845703125,-2.0751953125,-4.638671875,-0.785888671875,0.3160400390625,-0.1146240234375
0.461,308,445,416,316,1.0,33.0,15.0,19.59228515625,-2.38037109375,-4.82177734375,-0.785888671875,0.3160400390625,-0.1146240234375
0.473,306,441,414,316,1.0,33.0,15.0,19.1650390625,-3.479003667831421,-5.249022960662842,-0.7630615234375,0.380615234375,-0.1253662109375
0.481,307,440,418,316,1.0,33.0,15.0,19.1650390625,-3.479003667831421,-5.249022960662842,-0.7545166015625,0.39697265625,-0.1260986328125
0.497,306,431,411,316,1.0,33.0,15.0,15.075682640075684,-4.150390625,-5.615233898162842,-0.7545166015625,0.39697265625,-0.1260986328125
0.503,308,461,424,316,1.0,33.0,15.0,5.310058116912842,-5.920409679412842,-6.835937023162842,-0.75341796875,0.380859375,-0.108154296875
0.512,308,442,416,316,1.0,33.0,15.0,5.310058116912842,-5.920409679412842,-6.835937023162842,-0.7584228515625,0.357666015625,-0.10302734375
0.520,308,446,418,318,1.0,34.0,15.0,1.7089842557907104,-6.835937023162842,-7.385253429412842,-0.7584228515625,0.357666015625,-0.10302734375
0.533,308,454,423,317,1.0,34.0,15.0,0.2441406100988388,-8.97216796875,-7.202147960662842,-0.753662109375,0.3343505859375,-0.0848388671875
0.541,312,437,418,315,1.0,34.0,15.0,0.2441406100988388,-8.97216796875,-7.202147960662842,-0.744140625,0.3328857421875,-0.079833984375
0.563,308,416,409,315,1.0,34.0,15.0,0.7324218153953552,-10.131834983825684,-6.835937023162842,-0.744140625,0.3328857421875,-0.079833984375
0.563,308,442,378,317,1.0,34.0,15.0,0.0,-11.108397483825684,-6.591796398162842,-0.7274169921875,0.339599609375,-0.0703125
0.572,306,437,369,318,1.0,34.0,15.0,-2.868652105331421,-11.962889671325684,-6.652831554412842,-0.7274169921875,0.339599609375,-0.0703125
0.580,308,501,371,321,1.0,34.0,15.0,-7.812499523162842,-12.634276390075684,-7.141112804412842,-0.722900390625,0.3421630859375,-0.078369140625
0.599,304,423,322,316,1.0,34.0,15.0,-14.160155296325684,-13.183592796325684,-8.11767578125,-0.701904296875,0.3070068359375,-0.091064453125
0.603,308,431,328,316,1.0,34.0,15.0,-21.179197311401367,-13.793944358825684,-10.009765625,-0.701904296875,0.3070068359375,-0.091064453125
0.609,306,424,316,316,1.0,34.0,15.0,-26.550291061401367,-14.282225608825684,-12.939452171325684,-0.6893310546875,0.2960205078125,-0.0865478515625
0.623,304,401,313,313,3.0,32.0,15.0,-28.015134811401367,-14.770506858825684,-15.686034202575684,-0.692626953125,0.30517578125,-0.07568359375
0.633,308,357,314,310,3.0,32.0,15.0,-26.000974655151367,-15.563963890075684,-17.2119140625,-0.692626953125,0.30517578125,-0.07568359375
0.639,309,411,310,314,3.0,32.0,15.0,-20.751951217651367,-16.54052734375,-17.02880859375,-0.697265625,0.28466796875,-0.0638427734375
0.666,308,382,314,316,3.0,32.0,15.0,-11.962889671325684,-17.27294921875,-14.465331077575684,-0.551025390625,0.161865234375,-0.0518798828125
0.666,306,390,310,315,3.0,32.0,15.0,-0.1831054538488388,-17.578125,-9.521484375,-0.551025390625,0.161865234375,-0.0518798828125
0.669,306,406,316,316,3.0,32.0,15.0,14.587401390075684,-17.27294921875,-3.662109136581421,-0.38916015625,0.055419921875,-0.0592041015625
0.684,306,761,315,327,3.0,32.0,15.0,33.87451171875,-16.54052734375,1.7089842557907104,-0.0255126953125,-0.18359375,-0.0771484375
0.701,306,1236,315,313,3.0,32.0,15.0,59.204097747802734,-16.845703125,5.920409679412842,-0.0255126953125,-0.18359375,-0.0771484375
0.702,308,2591,296,321,3.0,32.0,15.0,91.18651580810547,-19.47021484375,9.1552734375,0.026611328125,-0.2034912109375,-0.06884765625
0.713,308,3147,315,1095,3.0,32.0,15.0,122.86376190185547,-27.038572311401367,10.253905296325684,-0.4061279296875,0.81494140625,0.1080322265625
0.721,313,3147,347,1442,1.0,33.0,14.0,139.404296875,-37.353515625,9.521484375,-0.4061279296875,0.81494140625,0.1080322265625
0.729,323,3147,514,1632,1.0,33.0,14.0,126.40380096435547,-43.762203216552734,13.793944358825684,-0.8785400390625,1.734619140625,-0.029541015625
0.743,508,3147,920,2138,1.0,33.0,14.0,42.785640716552734,-46.997066497802734,14.770506858825684,-0.5323486328125,0.6806640625,-0.106689453125
0.768,371,3147,1225,2567,1.0,33.0,14.0,-104.06493377685547,-54.199214935302734,0.3662109076976776,-0.5323486328125,0.6806640625,-0.106689453125
0.768,385,3147,1321,2851,1.0,33.0,14.0,-196.59422302246094,-57.800289154052734,-23.681638717651367,-0.660888671875,0.08349609375,-0.1474609375
0.773,426,3147,1462,3147,1.0,33.0,14.0,-176.20848083496094,-44.006343841552734,-43.029781341552734,-2.2490234375,0.4007568359375,-0.4989013671875
0.781,405,3147,1560,3147,1.0,33.0,14.0,-115.23436737060547,-13.305663108825684,-52.551265716552734,-2.2490234375,0.4007568359375,-0.4989013671875
0.789,406,3147,1613,3147,1.0,33.0,14.0,-80.44432830810547,15.441893577575684,-57.312007904052734,-2.6209716796875,0.4859619140625,-0.31494140625
0.804,431,3147,1550,3147,1.0,33.0,14.0,-68.29833984375,22.460935592651367,-49.743648529052734,-2.753173828125,0.8714599609375,-0.239501953125
0.811,387,3147,1548,3147,1.0,33.0,14.0,-59.082027435302734,12.268065452575684,-24.230955123901367,-2.822998046875,0.8631591796875,-0.3785400390625
0.821,351,3147,1569,3147,7.0,33.0,14.0,-39.306640625,1.6479490995407104,6.408690929412842,-2.412841796875,0.0523681640625,-0.4422607421875
0.833,348,3147,1604,3147,7.0,33.0,14.0,4.7607421875,-2.563476324081421,23.437498092651367,-1.6683349609375,-0.3204345703125,-0.2529296875
0.847,342,3147,1557,3147,7.0,33.0,14.0,62.072750091552734,-4.8828125,27.343748092651367,-1.4793701171875,0.6485595703125,-0.0101318359375
0.849,338,3147,1488,3087,7.0,33.0,14.0,78.369140625,-2.624511480331421,23.864744186401367,-1.7313232421875,1.46435546875,-0.0294189453125
0.872,334,3147,1387,2660,7.0,33.0,14.0,36.2548828125,10.009765625,8.85009765625,-1.8021240234375,1.216796875,-0.1781005859375
0.872,332,3147,1292,2296,7.0,33.0,14.0,-4.8828125,24.047849655151367,-8.544921875,-1.6455078125,0.689697265625,-0.297119140625
0.879,330,3147,1136,1877,7.0,33.0,14.0,-8.11767578125,27.526853561401367,-14.038084983825684,-1.4398193359375,0.4083251953125,-0.38037109375
0.893,323,3147,780,838,7.0,33.0,14.0,9.3994140625,21.850584030151367,-8.30078125,-1.2840576171875,0.40576171875,-0.4051513671875
0.917,315,3147,539,343,7.0,33.0,14.0,22.827146530151367,14.648436546325684,-1.15966796875,-1.1407470703125,0.496337890625,-0.3525390625
0.917,311,2191,468,332,7.0,33.0,14.0,19.8974609375,8.30078125,2.0751953125,-0.9671630859375,0.39208984375,-0.2635498046875
0.923,308,905,409,321,6.0,34.0,9.0,8.85009765625,4.8828125,-0.0610351525247097,-0.769287109375,0.041259765625,-0.273193359375
0.931,313,614,430,318,6.0,34.0,9.0,10.192870140075684,11.718749046325684,-6.958007335662842,-0.57373046875,-0.23779296875,-0.4180908203125
0.939,306,481,351,318,6.0,34.0,9.0,27.526853561401367,26.794431686401367,-12.939452171325684,-0.4825439453125,-0.199462890625,-0.45751953125
0.973,306,372,315,313,6.0,34.0,9.0,40.710445404052734,35.888671875,-13.793944358825684,-0.551025390625,0.045654296875,-0.270263671875
0.974,304,384,315,316,6.0,34.0,9.0,35.2783203125,34.7900390625,-10.375975608825684,-0.683837890625,0.3367919921875,-0.061767578125
0.974,302,338,315,313,6.0,34.0,9.0,14.648436546325684,30.456541061401367,-3.112792730331421,-0.7723388671875,0.5194091796875,0.05615234375
0.984,306,344,315,315,6.0,34.0,9.0,-7.141112804412842,27.099607467651367,5.371093273162842,-0.7825927734375,0.384033203125,0.12060546875
0.992,304,347,314,313,6.0,34.0,9.0,-12.817381858825684,27.160642623901367,6.958007335662842,-0.748291015625,0.047119140625,0.1356201171875
1.010,302,351,313,316,6.0,34.0,9.0,6.774901866912842,30.700681686401367,1.0986328125,-0.727783203125,-0.063232421875,0.12841796875
1.014,304,342,315,316,2.0,35.0,18.0,40.588375091552734,32.04345703125,-2.563476324081421,-0.6883544921875,0.142578125,0.1126708984375
1.022,304,336,313,315,2.0,35.0,18.0,62.255855560302734,28.381345748901367,-1.15966796875,-0.612548828125,0.426513671875,0.0589599609375
1.029,304,347,315,316,2.0,35.0,18.0,55.480953216552734,22.766111373901367,0.1831054538488388,-0.5721435546875,0.6112060546875,0.003173828125
1.044,304,371,315,315,2.0,35.0,18.0,24.658201217651367,17.822265625,-2.13623046875,-0.5889892578125,0.6104736328125,-0.012939453125
1.051,305,365,316,314,2.0,35.0,18.0,-12.268065452575684,14.038084983825684,-7.568358898162842,-0.641845703125,0.4512939453125,0.009521484375
1.076,304,359,315,316,2.0,35.0,18.0,-37.59765625,9.8876953125,-12.512206077575684,-0.699951171875,0.2493896484375,0.04541015625
1.077,304,348,315,316,2.0,35.0,18.0,-43.884273529052734,4.150390625,-14.343260765075684,-0.730712890625,0.111328125,0.0662841796875
1.081,304,363,316,316,2.0,35.0,18.0,-34.97314453125,-1.7089842557907104,-13.549803733825684,-0.71142578125,0.0789794921875,0.05517578125
1.089,304,372,316,315,2.0,35.0,18.0,-20.080564498901367,-5.798339366912842,-12.390135765075684,-0.65234375,0.130859375,0.00927734375
1.115,302,363,312,316,2.0,35.0,18.0,-6.896972179412842,-8.36181640625,-12.573241233825684,-0.5887451171875,0.211181640625,-0.064208984375
1.116,306,359,315,315,3.0,31.0,11.0,1.0986328125,-10.437010765075684,-13.793944358825684,-0.55224609375,0.2742919921875,-0.1461181640625
1.119,301,363,315,316,3.0,31.0,11.0,4.57763671875,-12.512206077575684,-14.831542015075684,-0.554931640625,0.305908203125,-0.2005615234375
1.135,304,360,315,316,3.0,31.0,11.0,7.263183116912842,-14.221190452575684,-14.648436546325684,-0.576171875,0.323974609375,-0.2178955078125
1.141,302,377,314,315,3.0,31.0,11.0,10.864256858825684,-15.014647483825684,-13.305663108825684,-0.5972900390625,0.3533935546875,-0.218994140625
1.149,304,388,315,315,3.0,31.0,11.0,14.587401390075684,-15.136717796325684,-11.291502952575684,-0.6175537109375,0.40234375,-0.222412109375
1.182,304,404,315,315,3.0,31.0,11.0,18.12744140625,-15.197752952575684,-8.7890625,-0.6170654296875,0.4619140625,-0.2435302734375
1.184,304,356,316,316,3.0,31.0,11.0,21.362302780151367,-15.441893577575684,-5.676269054412842,-0.5826416015625,0.5135498046875,-0.284912109375
1.184,304,380,310,315,3.0,31.0,11.0,23.315427780151367,-15.869139671325684,-1.6479490995407104,-0.5211181640625,0.5325927734375,-0.3316650390625
1.195,304,363,315,316,3.0,31.0,11.0,22.216794967651367,-16.11328125,2.807616949081421,-0.4398193359375,0.4957275390625,-0.370361328125
1.202,304,357,315,316,3.0,31.0,11.0,18.61572265625,-15.380858421325684,7.141112804412842,-0.364501953125,0.4166259765625,-0.3973388671875
1.218,304,382,315,315,4.0,30.0,10.0,17.9443359375,-13.183592796325684,12.268065452575684,-0.3077392578125,0.333740234375,-0.408203125
1.223,304,438,314,313,4.0,30.0,10.0,23.803709030151367,-9.765625,19.1650390625,-0.24462890625,0.2574462890625,-0.3941650390625
1.232,306,482,315,315,4.0,30.0,10.0,34.60693359375,-5.859374523162842,26.794431686401367,-0.1708984375,0.1923828125,-0.3480224609375
1.240,304,531,315,310,4.0,30.0,10.0,34.60693359375,-5.859374523162842,26.794431686401367,-0.1392822265625,0.1302490234375,-0.264892578125
1.254,307,628,329,318,4.0,30.0,10.0,57.189937591552734,-2.50244140625,33.26416015625,-0.128173828125,0.0404052734375,-0.1395263671875
1.262,309,1253,402,328,4.0,30.0,10.0,63.110347747802734,-7.629394054412842,27.343748092651367,-0.094970703125,-0.0445556640625,0.08251953125
1.282,310,2398,418,330,4.0,30.0,10.0,63.110347747802734,-7.629394054412842,27.343748092651367,-0.21533203125,-0.0426025390625,0.3524169921875
1.283,315,3147,648,316,4.0,30.0,10.0,14.587401390075684,-36.07177734375,-8.4228515625,-0.826416015625,0.5020751953125,0.570068359375
1.291,318,3147,897,786,4.0,30.0,10.0,-13.549803733825684,-46.081539154052734,-5.065917491912842,-1.41748046875,1.033935546875,0.645751953125
1.299,329,3147,1183,1157,4.0,30.0,10.0,-13.549803733825684,-46.081539154052734,-5.065917491912842,-1.168212890625,0.635986328125,0.4832763671875
1.316,342,3147,1627,1786,4.0,31.0,14.0,-50.415035247802734,-42.053218841552734,20.996091842651367,-0.619873046875,0.048583984375,0.276611328125
1.321,348,3147,1830,2197,4.0,31.0,14.0,-48.400875091552734,-45.837398529052734,6.591796398162842,-0.653564453125,-0.0751953125,0.0653076171875
1.329,359,3147,2007,2561,4.0,31.0,14.0,-48.400875091552734,-45.837398529052734,6.591796398162842,-1.3089599609375,0.0164794921875,-0.185546875
1.343,371,3147,2220,2978,4.0,31.0,14.0,-31.311033248901367,-26.733396530151367,-55.664058685302734,-2.1187744140625,0.0225830078125,-0.26171875
1.351,364,3147,2396,3147,4.0,31.0,14.0,-34.0576171875,0.3662109076976776,-63.415523529052734,-2.5767822265625,0.4534912109375,-0.310302734375
1.360,371,3147,2480,3147,4.0,31.0,14.0,-34.0576171875,0.3662109076976776,-63.415523529052734,-2.7042236328125,1.2166748046875,-0.561767578125
1.389,365,3147,2330,3147,4.0,31.0,14.0,-9.033203125,27.770994186401367,-1.2817381620407104,-2.76708984375,1.2034912109375,-0.760986328125
1.389,371,3147,2233,3147,4.0,31.0,14.0,-22.216794967651367,19.71435546875,27.099607467651367,-2.4107666015625,0.283935546875,-0.6455078125
1.390,434,3147,2160,3147,4.0,31.0,14.0,-22.216794967651367,19.71435546875,27.099607467651367,-1.5521240234375,-0.130615234375,-0.25830078125
1.403,603,3147,1934,3047,4.0,32.0,17.0,37.04833984375,-7.690429210662842,29.663084030151367,-1.1328125,0.8389892578125,0.0614013671875
1.415,593,3147,1895,2837,4.0,32.0,17.0,71.77734375,-8.30078125,8.544921875,-1.3946533203125,1.625732421875,-0.0426025390625
1.419,481,3147,1913,2610,4.0,32.0,17.0,71.77734375,-8.30078125,8.544921875,-1.6591796875,1.18603515625,-0.3013916015625
1.433,607,3147,1666,2128,4.0,32.0,17.0,-2.197265625,25.024412155151367,-39.6728515625,-1.6995849609375,0.42724609375,-0.415771484375
1.441,591,3147,1591,1772,4.0,32.0,17.0,-11.047362327575684,31.616209030151367,-41.503902435302734,-1.643798828125,0.128662109375,-0.4365234375
1.449,403,3147,1656,1514,4.0,32.0,17.0,-11.047362327575684,31.616209030151367,-41.503902435302734,-1.5352783203125,0.1845703125,-0.4429931640625
1.463,382,3147,1306,943,4.0,32.0,17.0,5.737304210662842,16.357421875,-18.98193359375,-1.3580322265625,0.2403564453125,-0.455078125
1.487,382,3147,1050,410,4.0,32.0,17.0,5.737304210662842,16.357421875,-18.98193359375,-1.1328125,0.2266845703125,-0.3865966796875
1.487,415,2561,802,337,4.0,32.0,17.0,6.103515148162842,6.225585460662842,-6.103515148162842,-1.1328125,0.2266845703125,-0.3865966796875
1.493,323,1730,614,334,4.0,32.0,17.0,5.737304210662842,-9.033203125,11.840819358825684,-0.633544921875,0.103759765625,-0.0985107421875
1.502,325,1170,545,329,3.0,31.0,14.0,5.737304210662842,-9.033203125,11.840819358825684,-0.4144287109375,-0.0465087890625,-0.179931640625
1.509,321,932,533,321,3.0,31.0,14.0,7.873534679412842,-9.6435546875,7.751464366912842,-0.4144287109375,-0.0465087890625,-0.179931640625
1.523,323,744,508,321,3.0,31.0,14.0,24.963376998901367,12.023924827575684,-20.324705123901367,-0.3297119140625,0.241943359375,-0.3201904296875
1.531,317,633,484,324,3.0,31.0,14.0,24.963376998901367,12.023924827575684,-20.324705123901367,-0.4508056640625,0.5196533203125,-0.0931396484375
1.539,328,512,508,317,3.0,31.0,14.0,23.010251998901367,14.770506858825684,-28.808591842651367,-0.4508056640625,0.5196533203125,-0.0931396484375
1.553,322,430,411,314,3.0,31.0,14.0,-18.798828125,2.807616949081421,-30.517576217651367,-0.7291259765625,0.6361083984375,0.157958984375
1.561,313,417,361,316,3.0,31.0,14.0,-18.798828125,2.807616949081421,-30.517576217651367,-0.73291015625,0.515625,0.1221923828125
1.570,312,512,342,317,3.0,31.0,14.0,-40.649410247802734,-1.7700194120407104,-20.935056686401367,-0.73291015625,0.515625,0.1221923828125
1.600,306,508,315,316,3.0,31.0,14.0,-41.687007904052734,-5.249022960662842,6.286620616912842,-0.6614990234375,0.1475830078125,0.005126953125
1.602,305,514,323,316,3.0,31.0,14.0,-41.687007904052734,-5.249022960662842,6.286620616912842,-0.6307373046875,0.0640869140625,-0.046142578125
1.603,306,523,321,316,4.0,31.0,17.0,-20.385740280151367,-3.784179449081421,12.390135765075684,-0.6307373046875,0.0640869140625,-0.046142578125
1.627,306,548,313,316,4.0,31.0,17.0,3.356933355331421,-2.13623046875,8.72802734375,-0.546142578125,0.0859375,-0.0836181640625
1.628,306,543,317,311,4.0,31.0,17.0,3.356933355331421,-2.13623046875,8.72802734375,-0.56591796875,0.156982421875,-0.0728759765625
1.630,306,562,315,316,4.0,31.0,17.0,-0.3662109076976776,-2.44140625,2.38037109375,-0.56591796875,0.156982421875,-0.0728759765625
1.645,304,593,318,316,4.0,31.0,17.0,-15.136717796325684,-5.310058116912842,-8.30078125,-0.666015625,0.180419921875,-0.04296875
1.653,308,598,332,317,4.0,31.0,17.0,-15.136717796325684,-5.310058116912842,-8.30078125,-0.68896484375,0.1387939453125,-0.049560546875
1.661,304,578,321,318,4.0,31.0,17.0,-18.49365234375,-6.896972179412842,-9.3994140625,-0.68896484375,0.1387939453125,-0.049560546875
1.690,306,601,315,318,4.0,31.0,17.0,-11.474608421325684,-9.82666015625,-6.835937023162842,-0.6854248046875,0.09228515625,-0.107421875
1.705,307,549,317,318,4.0,31.0,17.0,-11.474608421325684,-9.82666015625,-6.835937023162842,-0.7025146484375,0.1019287109375,-0.1446533203125
1.711,306,539,296,315,4.0,31.0,17.0,-7.507323741912842,-11.596678733825684,-6.408690929412842,-0.7025146484375,0.1019287109375,-0.1446533203125
1.711,308,548,316,316,4.0,31.0,19.0,-4.7607421875,-13.122557640075684,-5.676269054412842,-0.7249755859375,0.1717529296875,-0.17626953125
1.714,292,614,316,300,4.0,31.0,19.0,-4.7607421875,-13.122557640075684,-5.676269054412842,-0.69482421875,0.1708984375,-0.1663818359375
1.726,306,589,323,322,4.0,31.0,19.0,-6.652831554412842,-13.610838890075684,-4.2724609375,-0.69482421875,0.1708984375,-0.1663818359375
1.729,309,788,346,318,4.0,31.0,19.0,-5.310058116912842,-14.953612327575684,-2.0751953125,-0.637939453125,0.1336669921875,-0.16455078125
1.743,315,1351,361,326,4.0,31.0,19.0,1.15966796875,-17.15087890625,0.6103515625,-0.518310546875,0.1337890625,-0.1468505859375
1.751,316,1783,369,323,4.0,31.0,19.0,9.033203125,-20.01953125,2.746581792831421,-0.518310546875,0.1337890625,-0.1468505859375
1.760,318,2275,424,323,4.0,31.0,19.0,19.04296875,-24.536130905151367,7.019042491912842,-0.6358642578125,0.357177734375,-0.04736328125
1.773,327,2765,531,330,4.0,31.0,19.0,29.602048873901367,-31.066892623901367,16.41845703125,-0.7392578125,0.5311279296875,0.1685791015625
1.793,359,3085,763,330,4.0,31.0,19.0,32.5927734375,-38.02490234375,25.634763717651367,-0.7392578125,0.5311279296875,0.1685791015625
1.793,391,3147,1079,387,4.0,31.0,19.0,23.132322311401367,-44.921871185302734,27.343748092651367,-0.5303955078125,0.2716064453125,0.291015625
1.812,456,3147,1467,600,5.0,29.0,19.0,11.474608421325684,-51.269527435302734,18.5546875,-0.1422119140625,-0.022705078125,0.2283935546875
1.813,495,3147,1709,728,5.0,29.0,19.0,13.488768577575684,-55.114742279052734,1.9531248807907104,-0.1422119140625,-0.022705078125,0.2283935546875
1.831,516,3147,1843,1005,5.0,29.0,19.0,22.705076217651367,-54.138179779052734,-16.7236328125,-0.210693359375,0.324951171875,0.09912109375
1.833,614,3147,1925,1251,5.0,29.0,19.0,18.85986328125,-46.386714935302734,-36.9873046875,-1.2701416015625,0.768310546875,-0.058349609375
1.841,628,3147,2035,1529,5.0,29.0,19.0,1.6479490995407104,-27.832029342651367,-55.603023529052734,-1.2701416015625,0.768310546875,-0.058349609375
1.849,409,3147,2430,1709,5.0,29.0,19.0,-19.59228515625,-4.69970703125,-62.988277435302734,-1.9017333984375,0.7886962890625,-0.06005859375
1.864,399,3147,2514,1744,5.0,29.0,19.0,-36.7431640625,7.202147960662842,-53.894039154052734,-2.4383544921875,0.3779296875,-0.4393310546875
1.871,391,3147,2529,1837,5.0,29.0,19.0,-37.109375,5.249022960662842,-34.11865234375,-2.4383544921875,0.3779296875,-0.4393310546875
1.895,384,3147,2341,1820,5.0,29.0,19.0,-17.76123046875,-3.173827886581421,-13.000487327575684,-2.6539306640625,-0.054443359375,-0.6376953125
1.895,360,3147,2070,1794,7.0,31.0,19.0,11.901854515075684,-12.573241233825684,8.11767578125,-1.7562255859375,-0.2579345703125,-0.7415771484375
1.902,387,3147,2117,1880,7.0,31.0,19.0,38.330078125,-19.47021484375,27.160642623901367,-1.7562255859375,-0.2579345703125,-0.7415771484375
1.911,391,3147,2152,1855,7.0,31.0,19.0,57.006832122802734,-24.230955123901367,36.68212890625,-1.2501220703125,0.4873046875,-0.43896484375
1.934,384,3147,2093,1770,7.0,31.0,19.0,56.823726654052734,-29.357908248901367,32.470703125,-1.38818359375,1.3858642578125,-0.0062255859375
1.935,375,3147,1941,1624,7.0,31.0,19.0,14.221190452575684,-28.564451217651367,14.343260765075684,-1.64697265625,1.323486328125,0.209716796875
1.942,371,3147,1834,1466,7.0,31.0,19.0,-46.081539154052734,-16.54052734375,-10.009765625,-1.6290283203125,0.455322265625,0.2208251953125
1.953,364,3147,1579,1010,7.0,31.0,19.0,-59.570308685302734,0.4272460639476776,-23.681638717651367,-1.501220703125,-0.1448974609375,0.1407470703125
1.962,360,3147,1450,735,7.0,31.0,19.0,-18.73779296875,12.573241233825684,-17.2119140625,-1.39501953125,-0.0118408203125,0.037109375
1.969,354,3147,1334,404,7.0,31.0,19.0,21.972654342651367,15.869139671325684,-0.8544921278953552,-1.287109375,0.3773193359375,-0.0850830078125
2.001,338,2823,1022,347,7.0,31.0,19.0,25.390623092651367,15.380858421325684,9.33837890625,-1.1690673828125,0.5355224609375,-0.185546875
2.002,328,2437,765,344,7.0,32.0,18.0,1.9531248807907104,15.319823265075684,11.352538108825684,-1.0404052734375,0.452880859375,-0.1959228515625
2.002,319,1929,563,346,7.0,32.0,18.0,-23.681638717651367,13.549803733825684,10.986327171325684,-0.8743896484375,0.1961669921875,-0.154541015625
2.018,308,1260,521,324,7.0,32.0,18.0,-31.005857467651367,10.253905296325684,9.33837890625,-0.639404296875,-0.0985107421875,-0.2152099609375
2.047,310,1117,518,318,7.0,32.0,18.0,-8.9111328125,10.803221702575684,4.94384765625,-0.4056396484375,-0.1865234375,-0.402587890625
2.056,308,922,523,324,7.0,32.0,18.0,27.770994186401367,14.587401390075684,-1.6479490995407104,-0.2694091796875,0.0020751953125,-0.487548828125
2.066,310,572,521,317,7.0,32.0,18.0,41.870113372802734,13.977049827575684,-12.207030296325684,-0.2723388671875,0.23193359375,-0.317138671875
2.076,308,501,473,323,7.0,32.0,18.0,18.4326171875,9.765625,-26.428220748901367,-0.4412841796875,0.352294921875,-0.0296630859375
2.099,306,401,431,321,7.0,32.0,18.0,-16.05224609375,7.873534679412842,-35.46142578125,-0.6524658203125,0.4554443359375,0.1575927734375
2.105,305,419,375,316,7.0,32.0,18.0,-37.65869140625,8.72802734375,-32.53173828125,-0.7550048828125,0.471435546875,0.1968994140625
2.113,306,401,324,318,7.0,32.0,18.0,-41.809078216552734,11.474608421325684,-21.484373092651367,-0.8037109375,0.3729248046875,0.19091796875
2.132,305,433,336,318,5.0,29.0,15.0,-32.3486328125,13.854979515075684,-7.446288585662842,-0.8448486328125,0.3026123046875,0.236572265625
2.137,305,407,302,316,5.0,29.0,15.0,-18.85986328125,13.000487327575684,5.615233898162842,-0.8529052734375,0.2569580078125,0.2796630859375
2.141,306,384,331,316,5.0,29.0,15.0,-8.97216796875,9.82666015625,13.305663108825684,-0.8160400390625,0.1934814453125,0.243408203125
2.150,293,393,323,318,5.0,29.0,15.0,-5.187987804412842,6.958007335662842,14.038084983825684,-0.746826171875,0.1375732421875,0.1417236328125
2.155,305,378,315,318,5.0,29.0,15.0,-6.774901866912842,6.164550304412842,8.9111328125,-0.685546875,0.129638671875,0.0347900390625
2.155,304,375,289,306,5.0,29.0,15.0,-11.901854515075684,5.859374523162842,1.0986328125,-0.6624755859375,0.162841796875,-0.0155029296875
2.156,306,382,316,316,5.0,29.0,15.0,-19.10400390625,3.784179449081421,-5.249022960662842,-0.676513671875,0.1846923828125,-0.0096435546875
2.165,305,386,317,318,5.0,29.0,15.0,-24.169919967651367,0.0,-7.690429210662842,-0.68359375,0.1800537109375,0.01318359375
2.173,304,387,316,316,5.0,29.0,15.0,-24.536130905151367,-3.845214605331421,-7.019042491912842,-0.6756591796875,0.174560546875,0.0198974609375
2.182,306,416,316,315,5.0,29.0,15.0,-20.568845748901367,-6.835937023162842,-5.615233898162842,-0.6708984375,0.1876220703125,0.0089111328125
2.202,305,499,318,317,5.0,27.0,20.0,-14.343260765075684,-9.033203125,-4.69970703125,-0.6690673828125,0.2152099609375,-0.0062255859375
2.205,304,521,317,316,5.0,27.0,20.0,-8.85009765625,-10.559081077575684,-4.33349609375,-0.6624755859375,0.231689453125,-0.0169677734375
2.211,304,555,328,318,5.0,27.0,20.0,-4.08935546875,-11.657713890075684,-3.723144292831421,-0.65576171875,0.2164306640625,-0.024169921875
2.233,310,601,378,318,5.0,27.0,20.0,2.50244140625,-13.244627952575684,-1.5258787870407104,-0.655029296875,0.174560546875,-0.034423828125
2.246,310,579,521,319,5.0,27.0,20.0,11.535643577575684,-15.686034202575684,3.356933355331421,-0.6605224609375,0.113037109375,-0.05322265625
2.264,310,658,481,322,5.0,27.0,20.0,21.850584030151367,-17.9443359375,10.253905296325684,-0.66455078125,0.0538330078125,-0.082275390625
2.272,296,1184,568,323,5.0,27.0,20.0,32.5927734375,-18.6767578125,17.7001953125,-0.640380859375,0.0328369140625,-0.1058349609375
2.277,310,1568,473,323,5.0,27.0,20.0,41.076656341552734,-18.24951171875,24.902341842651367,-0.591796875,0.040283203125,-0.0975341796875
2.284,313,1761,478,300,5.0,27.0,20.0,47.851558685302734,-17.9443359375,32.53173828125,-0.5972900390625,0.1004638671875,-0.0673828125
2.304,316,2428,571,328,2.0,28.0,19.0,56.823726654052734,-19.71435546875,43.273921966552734,-0.6483154296875,0.2064208984375,-0.030029296875
2.306,323,2808,844,332,2.0,28.0,19.0,63.964839935302734,-26.184080123901367,55.603023529052734,-0.638427734375,0.220947265625,0.07275390625
2.309,336,3090,1178,343,2.0,28.0,19.0,56.884761810302734,-38.2080078125,62.377925872802734,-0.41650390625,-0.041259765625,0.257080078125
2.314,364,3147,1722,415,2.0,28.0,19.0,41.259761810302734,-49.438472747802734,58.654781341552734,0.078369140625,-0.468505859375,0.38818359375
2.321,378,3147,2166,625,2.0,28.0,19.0,40.466304779052734,-53.405757904052734,42.907711029052734,0.4815673828125,-0.47265625,0.42041015625
2.336,364,3147,2430,1005,2.0,28.0,19.0,50.903316497802734,-51.269527435302734,16.9677734375,0.4766845703125,0.1453857421875,0.4027099609375
2.349,455,3147,2599,1455,2.0,28.0,19.0,44.982906341552734,-40.0390625,-17.333984375,-0.0941162109375,0.9150390625,0.1968994140625
2.354,382,3147,2822,1662,2.0,28.0,19.0,19.95849609375,-12.145995140075684,-45.104976654052734,-1.1099853515625,1.7137451171875,-0.2469482421875
2.364,383,3147,2912,1929,2.0,28.0,19.0,-19.34814453125,19.22607421875,-45.288082122802734,-2.0015869140625,2.062255859375,-0.6617431640625
2.374,391,3147,3008,2129,2.0,28.0,19.0,-66.46728515625,29.541013717651367,-23.864744186401367,-2.659912109375,1.2579345703125,-0.632568359375
2.381,398,3147,3071,2233,4.0,30.0,26.0,-75.8056640625,18.9208984375,-3.051757574081421,-3.224853515625,-0.025390625,-0.2498779296875
2.389,382,3147,2965,2133,4.0,30.0,26.0,-75.8056640625,18.9208984375,-3.051757574081421,-3.5234375,-0.7486572265625,-0.006591796875
2.407,387,3147,2788,2131,4.0,30.0,26.0,20.507810592651367,-6.408690929412842,14.831542015075684,-3.024658203125,-0.65234375,-0.23095703125
2.412,376,3147,2874,2142,4.0,30.0,26.0,76.7822265625,-7.324218273162842,24.719236373901367,-1.708984375,0.32275390625,-0.649658203125
2.420,377,3147,2886,2098,4.0,30.0,26.0,76.7822265625,-7.324218273162842,24.719236373901367,-0.967529296875,1.7110595703125,-0.5958251953125
2.447,389,3147,2861,1973,4.0,30.0,26.0,67.0166015625,-8.4228515625,11.657713890075684,-1.3858642578125,1.9637451171875,-0.209716796875
2.447,383,3147,2807,1803,4.0,30.0,26.0,-31.127927780151367,-5.493163585662842,-11.047362327575684,-1.9305419921875,0.8323974609375,0.10791015625
2.450,376,3147,2756,1640,4.0,30.0,26.0,-31.127927780151367,-5.493163585662842,-11.047362327575684,-2.0418701171875,-0.1444091796875,0.2587890625
2.465,383,3147,2504,1274,4.0,30.0,26.0,-60.852046966552734,9.58251953125,-19.6533203125,-1.8963623046875,-0.188232421875,0.199951171875
2.471,377,3147,2340,1101,4.0,30.0,26.0,-6.103515148162842,14.892577171325684,-5.798339366912842,-1.6641845703125,0.1243896484375,0.02587890625
2.486,373,3147,2155,853,4.0,29.0,20.0,-6.103515148162842,14.892577171325684,-5.798339366912842,-1.429931640625,0.305419921875,-0.11376953125
2.509,351,3147,1716,360,4.0,29.0,20.0,19.47021484375,15.869139671325684,5.249022960662842,-1.163818359375,0.457763671875,-0.197509765625
2.512,351,2741,1468,353,4.0,29.0,20.0,8.1787109375,12.207030296325684,7.934569835662842,-0.8363037109375,0.5087890625,-0.251220703125
2.512,332,2249,1175,346,4.0,29.0,20.0,8.1787109375,12.207030296325684,7.934569835662842,-0.5416259765625,0.4056396484375,-0.21923828125
2.527,321,1523,707,332,4.0,29.0,20.0,-8.60595703125,6.835937023162842,-2.13623046875,-0.322509765625,0.232177734375,-0.18212890625
2.559,317,1182,634,306,4.0,29.0,20.0,-2.50244140625,9.27734375,-12.573241233825684,-0.1766357421875,0.0679931640625,-0.264404296875
2.568,310,656,561,323,4.0,29.0,20.0,-2.50244140625,9.27734375,-12.573241233825684,-0.118408203125,0.04296875,-0.370361328125
2.577,310,473,527,318,4.0,29.0,20.0,15.258788108825684,26.611326217651367,-31.494138717651367,-0.1702880859375,0.166748046875,-0.2906494140625
2.585,292,437,466,319,4.0,29.0,20.0,1.8310545682907104,28.808591842651367,-42.053218841552734,-0.368896484375,0.2943115234375,-0.042724609375
2.611,307,383,442,299,4.0,29.0,20.0,1.8310545682907104,28.808591842651367,-42.053218841552734,-0.6514892578125,0.3851318359375,0.1790771484375
2.620,308,473,438,318,7.0,30.0,17.0,-34.3017578125,22.338865280151367,-49.987789154052734,-0.8463134765625,0.4619140625,0.255859375
2.624,306,427,468,317,7.0,30.0,17.0,-37.353515625,19.95849609375,-39.1845703125,-0.9002685546875,0.458251953125,0.2103271484375
2.630,308,442,493,321,7.0,30.0,17.0,-37.353515625,19.95849609375,-39.1845703125,-0.9002685546875,0.458251953125,0.2103271484375
2.633,292,416,461,317,7.0,30.0,17.0,-31.799314498901367,12.451170921325684,-7.263183116912842,-0.8272705078125,0.1629638671875,0.119873046875
2.636,308,388,473,298,7.0,30.0,17.0,-31.799314498901367,12.451170921325684,-7.263183116912842,-0.7451171875,-0.054931640625,0.082763671875
2.644,307,400,456,297,7.0,30.0,17.0,-21.179197311401367,8.4228515625,5.859374523162842,-0.7451171875,-0.054931640625,0.082763671875
2.658,308,423,462,311,7.0,30.0,17.0,8.056640625,9.1552734375,9.765625,-0.6353759765625,-0.2135009765625,-0.0390625
2.662,307,424,456,316,7.0,30.0,17.0,8.056640625,9.1552734375,9.765625,-0.6572265625,-0.106201171875,-0.0418701171875
2.662,289,419,456,318,7.0,30.0,17.0,18.12744140625,11.474608421325684,4.57763671875,-0.6572265625,-0.106201171875,-0.0418701171875
2.675,308,431,473,318,7.0,30.0,17.0,30.212400436401367,9.82666015625,-0.8544921278953552,-0.720947265625,0.1944580078125,0.0098876953125
2.683,308,414,473,318,5.0,30.0,15.0,30.212400436401367,9.82666015625,-0.8544921278953552,-0.7127685546875,0.31005859375,0.029296875
2.691,310,455,479,318,5.0,30.0,15.0,30.578611373901367,5.310058116912842,-0.30517578125,-0.7127685546875,0.31005859375,0.029296875
2.722,308,473,479,318,5.0,30.0,15.0,21.240232467651367,-5.737304210662842,4.08935546875,-0.67822265625,0.3468017578125,0.0804443359375
2.725,308,442,473,318,5.0,30.0,15.0,21.240232467651367,-5.737304210662842,4.08935546875,-0.658935546875,0.2930908203125,0.0733642578125
2.727,308,418,455,318,5.0,30.0,15.0,18.61572265625,-11.413573265075684,7.446288585662842,-0.658935546875,0.2930908203125,0.0733642578125
2.735,307,455,428,318,5.0,30.0,15.0,16.78466796875,-18.4326171875,9.70458984375,-0.615478515625,0.1822509765625,-0.0574951171875
2.754,307,499,439,321,5.0,30.0,15.0,16.78466796875,-18.4326171875,9.70458984375,-0.6123046875,0.1881103515625,-0.1146240234375
2.764,308,531,458,318,5.0,30.0,15.0,15.380858421325684,-18.6767578125,7.202147960662842,-0.6123046875,0.1881103515625,-0.1146240234375
2.772,308,603,545,318,5.0,30.0,15.0,3.112792730331421,-17.7001953125,0.30517578125,-0.602294921875,0.1663818359375,-0.1234130859375
2.785,310,620,562,300,2.0,29.0,18.0,3.112792730331421,-17.7001953125,0.30517578125,-0.5584716796875,0.0841064453125,-0.1011962890625
2.794,309,706,559,321,2.0,29.0,18.0,-3.906249761581421,-18.37158203125,-1.2817381620407104,-0.5584716796875,0.0841064453125,-0.1011962890625
2.815,313,1369,706,323,2.0,29.0,18.0,8.72802734375,-21.911619186401367,2.197265625,-0.379638671875,-0.13232421875,-0.048583984375
2.828,316,1638,757,327,2.0,29.0,18.0,8.72802734375,-21.911619186401367,2.197265625,-0.4241943359375,0.0692138671875,-0.0386962890625
2.834,323,2005,923,329,2.0,29.0,18.0,31.982419967651367,-24.719236373901367,7.690429210662842,-0.4241943359375,0.0692138671875,-0.0386962890625
2.837,336,2449,1358,338,2.0,29.0,18.0,53.588863372802734,-28.625486373901367,16.54052734375,-0.661376953125,0.5677490234375,0.1304931640625
2.848,359,2898,1582,338,2.0,29.0,18.0,53.344722747802734,-33.8134765625,24.902341842651367,-0.661376953125,0.5677490234375,0.1304931640625
2.857,359,3147,1869,625,2.0,29.0,18.0,24.047849655151367,-38.818359375,25.512693405151367,-0.24755859375,0.2757568359375,0.173828125
2.858,371,3147,2266,1260,2.0,29.0,18.0,-10.437010765075684,-53.771968841552734,12.878417015075684,0.24609375,0.5086669921875,0.220947265625
2.869,378,3147,2516,1705,2.0,29.0,18.0,-10.437010765075684,-53.771968841552734,12.878417015075684,-0.3521728515625,0.850341796875,0.1544189453125
2.870,385,3147,2651,1968,7.0,28.0,18.0,-6.042479991912842,-56.884761810302734,2.38037109375,-0.3521728515625,0.850341796875,0.1544189453125
2.884,387,3147,2917,2364,7.0,28.0,18.0,-43.640132904052734,-21.240232467651367,-36.9873046875,-2.1197509765625,0.639892578125,-0.342529296875
2.892,384,3147,3053,2492,7.0,28.0,18.0,-43.640132904052734,-21.240232467651367,-36.9873046875,-2.7906494140625,0.1224365234375,-0.288818359375
2.900,376,3147,3147,2612,7.0,28.0,18.0,-59.570308685302734,-3.295898199081421,-39.55078125,-2.7906494140625,0.1224365234375,-0.288818359375
2.918,382,3147,3147,2792,7.0,28.0,18.0,-27.587888717651367,-9.70458984375,-1.5869139432907104,-2.91357421875,-0.54150390625,0.255126953125
2.922,381,3147,3137,2716,7.0,28.0,18.0,-27.587888717651367,-9.70458984375,-1.5869139432907104,-2.517333984375,-0.2294921875,0.0970458984375
2.936,376,3147,3047,2723,7.0,28.0,18.0,24.169919967651367,-17.2119140625,32.71484375,-2.517333984375,-0.2294921875,0.0970458984375
2.954,376,3147,3101,2746,7.0,28.0,18.0,74.15771484375,-15.991209983825684,65.4296875,-0.8768310546875,1.1085205078125,-0.436767578125
2.954,378,3147,3110,2744,7.0,28.0,18.0,99.48729705810547,-10.742186546325684,74.951171875,-0.8768310546875,1.1085205078125,-0.436767578125
2.960,376,3147,3094,2653,7.0,28.0,18.0,87.09716033935547,-8.11767578125,51.208492279052734,-0.8385009765625,1.899169921875,-0.28369140625
2.976,375,3147,3031,2394,5.0,28.0,23.0,26.550291061401367,-5.371093273162842,5.371093273162842,-1.7305908203125,0.6220703125,0.063232421875
2.982,374,3147,2973,2280,5.0,28.0,23.0,-47.546382904052734,2.746581792831421,-36.376953125,-1.7305908203125,0.6220703125,0.063232421875
2.990,371,3147,2867,2110,5.0,28.0,23.0,-72.6318359375,13.061522483825684,-51.940914154052734,-1.830078125,0.00244140625,0.171875
3.022,364,3147,2725,1900,5.0,28.0,23.0,-47.546382904052734,20.141599655151367,-43.395992279052734,-1.6221923828125,-0.0128173828125,0.0421142578125
3.023,363,3147,2610,1686,5.0,28.0,23.0,-15.624999046325684,21.789548873901367,-27.343748092651367,-1.6221923828125,-0.0128173828125,0.0421142578125
3.023,361,3147,2456,1494,5.0,28.0,23.0,0.30517578125,18.6767578125,-13.183592796325684,-1.500732421875,0.12890625,0.0146484375
3.034,356,3147,2162,958,5.0,28.0,23.0,1.8310545682907104,14.099120140075684,-0.2441406100988388,-1.2049560546875,0.3697509765625,0.0303955078125
3.042,352,3147,1954,497,5.0,28.0,23.0,-3.723144292831421,12.878417015075684,10.498045921325684,-1.2049560546875,0.3697509765625,0.0303955078125
3.063,344,2859,1681,359,5.0,28.0,23.0,-7.629394054412842,15.869139671325684,15.502928733825684,-1.003662109375,0.30517578125,0.0545654296875
3.067,327,1826,1131,344,5.0,28.0,23.0,-4.39453125,19.775390625,13.549803733825684,-0.5013427734375,0.1160888671875,-0.045654296875
3.089,321,1260,867,332,5.0,30.0,18.0,4.150390625,22.399900436401367,4.8828125,-0.5013427734375,0.1160888671875,-0.045654296875
3.123,315,922,750,328,5.0,30.0,18.0,10.437010765075684,25.207517623901367,-9.33837890625,-0.2950439453125,0.0809326171875,-0.2452392578125
3.134,310,535,645,318,5.0,30.0,18.0,10.986327171325684,30.151365280151367,-24.291990280151367,-0.2542724609375,0.266845703125,-0.378662109375
3.148,306,458,564,298,5.0,30.0,18.0,1.7700194120407104,32.89794921875,-34.1796875,-0.2542724609375,0.266845703125,-0.378662109375
3.212,308,390,539,323,5.0,30.0,18.0,-20.507810592651367,28.747556686401367,-38.2080078125,-0.4044189453125,0.3348388671875,-0.1981201171875
3.212,304,398,466,316,5.0,30.0,18.0,-43.701168060302734,22.094724655151367,-36.9873046875,-0.7606201171875,0.296630859375,0.0423583984375
3.212,304,454,509,316,5.0,30.0,18.0,-56.213375091552734,16.78466796875,-29.602048873901367,-0.7606201171875,0.296630859375,0.0423583984375
3.212,307,540,510,316,5.0,30.0,18.0,-59.265132904052734,12.084959983825684,-17.27294921875,-0.7987060546875,0.2462158203125,0.0721435546875
3.213,307,497,481,318,5.0,30.0,18.0,-52.490230560302734,7.507323741912842,-5.0048828125,-0.815185546875,0.1669921875,0.0965576171875
3.213,308,439,473,317,5.0,30.0,18.0,-35.21728515625,3.784179449081421,4.0283203125,-0.824951171875,0.1168212890625,0.140869140625
3.213,306,415,473,318,4.0,30.0,23.0,-13.122557640075684,1.4648436307907104,9.09423828125,-0.7955322265625,0.116943359375,0.1776123046875
3.229,306,389,454,304,4.0,30.0,23.0,5.249022960662842,0.7324218153953552,10.437010765075684,-0.7364501953125,0.1551513671875,0.177978515625
3.235,306,454,465,318,4.0,30.0,23.0,13.427733421325684,1.03759765625,8.72802734375,-0.66357421875,0.1995849609375,0.1507568359375
3.244,304,445,473,301,4.0,30.0,23.0,8.60595703125,1.6479490995407104,4.5166015625,-0.5977783203125,0.2259521484375,0.113525390625
3.275,308,445,452,318,4.0,30.0,23.0,-5.065917491912842,2.0751953125,-1.220703125,-0.573974609375,0.2225341796875,0.0799560546875
3.283,306,523,462,318,4.0,30.0,23.0,-18.9208984375,1.8310545682907104,-5.981444835662842,-0.59423828125,0.1796875,0.0550537109375
3.302,306,567,464,321,4.0,30.0,23.0,-26.428220748901367,0.7934569716453552,-7.629394054412842,-0.620361328125,0.1273193359375,0.031494140625
3.328,306,508,438,323,4.0,30.0,23.0,-24.719236373901367,-1.0986328125,-5.371093273162842,-0.6314697265625,0.10595703125,0.003662109375
3.331,305,575,485,318,4.0,30.0,23.0,-15.686034202575684,-3.234863042831421,-0.30517578125,-0.623291015625,0.10205078125,-0.0274658203125
3.334,307,502,513,317,4.0,28.0,20.0,-5.187987804412842,-5.065917491912842,5.676269054412842,-0.6058349609375,0.0906982421875,-0.066162109375
3.334,291,537,484,321,4.0,28.0,20.0,1.8310545682907104,-6.469726085662842,10.986327171325684,-0.57568359375,0.0645751953125,-0.1077880859375
3.337,304,759,487,300,4.0,28.0,20.0,4.150390625,-7.873534679412842,15.075682640075684,-0.5130615234375,0.0191650390625,-0.1221923828125
3.337,309,1411,516,325,4.0,28.0,20.0,4.7607421875,-9.765625,17.7001953125,-0.4365234375,-0.0225830078125,-0.0823974609375
3.340,310,1662,548,327,4.0,28.0,20.0,11.535643577575684,-13.000487327575684,20.01953125,-0.4495849609375,0.0567626953125,0.0020751953125
3.342,316,2223,774,324,4.0,28.0,20.0,32.40966796875,-19.10400390625,25.756834030151367,-0.6658935546875,0.380126953125,0.1180419921875
3.346,315,2345,934,332,4.0,28.0,20.0,56.823726654052734,-28.747556686401367,37.109375,-0.8839111328125,0.645263671875,0.1943359375
3.348,328,2400,1278,344,4.0,28.0,20.0,61.645503997802734,-40.344234466552734,47.729488372802734,-0.7933349609375,0.504638671875,0.2420654296875
3.350,332,2587,1533,354,4.0,28.0,20.0,47.912593841552734,-51.635738372802734,51.818843841552734,-0.2552490234375,0.0579833984375,0.2557373046875
3.369,356,3147,2197,371,4.0,28.0,20.0,39.6728515625,-60.791011810302734,44.799800872802734,0.3475341796875,-0.15673828125,0.18505859375
3.371,373,3147,2481,559,2.0,27.0,23.0,49.133296966552734,-68.17626953125,24.658201217651367,0.4405517578125,0.251953125,0.1593017578125
3.372,346,3147,2601,891,2.0,27.0,23.0,61.401363372802734,-67.626953125,-2.25830078125,-0.030517578125,0.766357421875,-0.0616455078125
3.380,370,3147,2713,1093,2.0,27.0,23.0,51.635738372802734,-46.020503997802734,-28.137205123901367,-0.880615234375,0.84912109375,-0.47900390625
3.393,376,3147,2948,1367,2.0,27.0,23.0,8.30078125,-11.657713890075684,-43.334957122802734,-1.6656494140625,0.6929931640625,-0.5894775390625
3.403,375,3147,3073,1623,2.0,27.0,23.0,-46.997066497802734,9.94873046875,-40.283199310302734,-2.21533203125,0.57666015625,-0.3411865234375
3.410,382,3147,3144,1678,2.0,27.0,23.0,-74.15771484375,8.72802734375,-18.00537109375,-2.767578125,0.2977294921875,0.01708984375
3.430,382,3147,3147,1840,2.0,27.0,23.0,-63.842769622802734,-4.0283203125,12.329100608825684,-3.2008056640625,-0.2298583984375,0.3140869140625
3.432,382,3147,3064,1783,2.0,27.0,23.0,-33.87451171875,-14.038084983825684,37.7197265625,-3.1334228515625,-0.585205078125,0.424560546875
3.440,382,3147,2981,1837,2.0,27.0,23.0,11.291502952575684,-12.756346702575684,56.457515716552734,-2.1995849609375,-0.42529296875,0.1669921875
3.454,391,3147,3000,1865,2.0,27.0,23.0,66.89453125,-0.9155272841453552,63.415523529052734,-0.927978515625,0.6046142578125,-0.15625
3.466,388,3147,2985,1838,2.0,27.0,23.0,97.77831268310547,7.507323741912842,50.170894622802734,-0.6575927734375,1.9005126953125,-0.2615966796875
3.470,388,3147,2955,1722,2.0,27.0,23.0,55.297847747802734,8.4228515625,20.080564498901367,-1.3416748046875,1.981201171875,-0.2794189453125
3.483,387,3147,2834,1427,2.0,27.0,23.0,-36.92626953125,10.009765625,-11.962889671325684,-1.8892822265625,0.9578857421875,-0.1563720703125
3.491,386,3147,2717,1280,2.0,27.0,23.0,-89.35546112060547,14.282225608825684,-28.808591842651367,-1.984130859375,0.1231689453125,0.02685546875
3.500,381,3147,2569,1253,2.0,27.0,23.0,-89.35546112060547,14.282225608825684,-28.808591842651367,-1.8607177734375,-0.05224609375,0.1180419921875
3.513,373,3147,2290,989,2.0,27.0,23.0,-34.7900390625,18.310546875,-16.4794921875,-1.685546875,0.093505859375,0.15966796875
3.537,371,3147,2119,793,2.0,27.0,23.0,-12.634276390075684,14.648436546325684,-5.920409679412842,-1.450439453125,0.2841796875,0.1697998046875
3.537,363,3147,1908,553,2.0,27.0,23.0,-12.634276390075684,14.648436546325684,-5.920409679412842,-1.149169921875,0.370849609375,0.111328125
3.544,351,2788,1550,352,2.0,27.0,23.0,-9.765625,9.8876953125,6.042479991912842,-0.8521728515625,0.3214111328125,0.03173828125
3.552,344,2290,1358,347,2.0,27.0,23.0,-8.7890625,13.183592796325684,3.601073980331421,-0.6129150390625,0.2691650390625,-0.041015625
3.570,332,1989,1091,344,2.0,28.0,19.0,-8.7890625,13.183592796325684,3.601073980331421,-0.432373046875,0.2606201171875,-0.1162109375
3.575,318,1289,787,323,2.0,28.0,19.0,1.7089842557907104,22.094724655151367,-14.709471702575684,-0.3218994140625,0.2227783203125,-0.226318359375
3.636,316,927,723,324,2.0,28.0,19.0,1.4648436307907104,27.832029342651367,-28.747556686401367,-0.3173828125,0.20751953125,-0.3558349609375
3.653,316,656,679,318,2.0,28.0,19.0,1.4648436307907104,27.832029342651367,-28.747556686401367,-0.3416748046875,0.2882080078125,-0.3389892578125
3.675,310,495,587,316,2.0,28.0,19.0,-15.686034202575684,30.395505905151367,-42.297359466552734,-0.396240234375,0.3375244140625,-0.1849365234375
3.684,305,426,500,323,2.0,28.0,19.0,-41.564937591552734,22.277830123901367,-43.762203216552734,-0.5391845703125,0.256591796875,-0.056396484375
3.693,304,430,426,318,2.0,28.0,19.0,-41.564937591552734,22.277830123901367,-43.762203216552734,-0.676513671875,0.128662109375,0.0150146484375
3.702,304,439,348,318,2.0,28.0,19.0,-70.4345703125,13.793944358825684,-37.65869140625,-0.741943359375,0.0723876953125,0.0511474609375
3.712,304,465,321,321,2.0,28.0,19.0,-61.035152435302734,11.962889671325684,-26.794431686401367,-0.7589111328125,0.0775146484375,0.06884765625
3.738,304,468,356,323,2.0,28.0,19.0,-61.035152435302734,11.962889671325684,-26.794431686401367,-0.7510986328125,0.07666015625,0.0950927734375
3.745,306,588,414,317,8.0,26.0,18.0,-24.841306686401367,6.164550304412842,-4.7607421875,-0.726806640625,0.068115234375,0.1278076171875
3.755,306,514,416,317,8.0,26.0,18.0,-12.512206077575684,3.784179449081421,-0.9155272841453552,-0.697509765625,0.071533203125,0.1522216796875
3.763,304,513,454,318,8.0,26.0,18.0,-12.512206077575684,3.784179449081421,-0.9155272841453552,-0.677734375,0.0947265625,0.1710205078125
3.779,304,519,423,316,8.0,26.0,18.0,-4.5166015625,3.417968511581421,-4.94384765625,-0.6849365234375,0.1385498046875,0.184814453125
3.792,305,555,414,317,8.0,26.0,18.0,-0.9765624403953552,4.0283203125,-7.995604991912842,-0.709716796875,0.197021484375,0.19921875
3.804,308,564,413,316,8.0,26.0,18.0,-0.9765624403953552,4.0283203125,-7.995604991912842,-0.73193359375,0.265380859375,0.203369140625
3.814,306,555,409,318,8.0,26.0,18.0,9.46044921875,0.4272460639476776,-9.58251953125,-0.7406005859375,0.3160400390625,0.1748046875
3.845,306,588,411,318,8.0,26.0,18.0,9.46044921875,0.4272460639476776,-9.58251953125,-0.7086181640625,0.3070068359375,0.1116943359375
3.848,308,607,490,299,8.0,26.0,18.0,14.282225608825684,-3.906249761581421,-8.6669921875,-0.7086181640625,0.3070068359375,0.1116943359375
3.852,308,656,499,296,6.0,28.0,18.0,20.935056686401367,-9.765625,-5.798339366912842,-0.5574951171875,0.1253662109375,-0.0419921875
3.857,313,712,613,321,6.0,28.0,18.0,20.935056686401367,-9.765625,-5.798339366912842,-0.508056640625,0.0341796875,-0.0823974609375
3.861,313,1108,636,324,6.0,28.0,18.0,25.878904342651367,-10.803221702575684,-2.563476324081421,-0.508056640625,0.0341796875,-0.0823974609375
3.863,315,1815,702,330,6.0,28.0,18.0,41.137691497802734,-13.427733421325684,9.46044921875,-0.5709228515625,0.138916015625,-0.0323486328125
3.864,302,2119,788,328,6.0,28.0,18.0,41.137691497802734,-13.427733421325684,9.46044921875,-0.683349609375,0.325927734375,0.0380859375
3.876,316,2337,883,330,6.0,28.0,18.0,50.109859466552734,-17.2119140625,15.930174827575684,-0.683349609375,0.325927734375,0.0380859375
3.884,328,2412,1185,338,6.0,28.0,18.0,34.97314453125,-30.944822311401367,20.568845748901367,-0.5986328125,0.3143310546875,0.1495361328125
3.885,334,2504,1386,338,6.0,28.0,18.0,34.97314453125,-30.944822311401367,20.568845748901367,-0.3428955078125,0.093017578125,0.165771484375
3.896,346,2918,1582,356,6.0,28.0,18.0,10.314940452575684,-38.2080078125,15.441893577575684,-0.3428955078125,0.093017578125,0.165771484375
3.905,359,3147,1855,614,6.0,28.0,18.0,8.544921875,-43.640132904052734,-4.2724609375,-0.005126953125,0.24609375,0.1075439453125
3.909,364,3147,2122,835,4.0,28.0,23.0,8.544921875,-43.640132904052734,-4.2724609375,-0.0419921875,0.480712890625,0.1700439453125
3.919,376,3147,2386,1294,4.0,28.0,23.0,9.09423828125,-39.55078125,-17.63916015625,-0.0419921875,0.480712890625,0.1700439453125
3.953,376,3147,2587,1635,4.0,28.0,23.0,-4.638671875,-31.677244186401367,-30.883787155151367,-0.2977294921875,0.498779296875,0.173583984375
3.953,385,3147,2919,1987,4.0,28.0,23.0,-19.4091796875,-12.634276390075684,-24.658201217651367,-1.5400390625,0.5037841796875,-0.3060302734375
3.954,388,3147,3070,2178,4.0,28.0,23.0,-19.4091796875,-12.634276390075684,-24.658201217651367,-2.1993408203125,0.2952880859375,-0.40185546875
3.955,388,3147,3147,2263,4.0,28.0,23.0,-22.888181686401367,-8.85009765625,-8.544921875,-2.1993408203125,0.2952880859375,-0.40185546875
3.956,389,3147,3147,2484,4.0,28.0,23.0,-14.160155296325684,-20.263669967651367,21.179197311401367,-2.9482421875,-0.30615234375,0.0694580078125
3.956,390,3147,3147,2419,4.0,28.0,23.0,-14.160155296325684,-20.263669967651367,21.179197311401367,-2.76904296875,-0.06298828125,0.24072265625
3.959,387,3147,3147,2494,4.0,28.0,23.0,18.00537109375,-24.047849655151367,34.48486328125,-2.76904296875,-0.06298828125,0.24072265625
3.960,383,3147,3128,2473,4.0,28.0,23.0,72.509765625,-12.451170921325684,49.804683685302734,-1.0189208984375,0.6365966796875,-0.02587890625
3.960,385,3147,3143,2473,7.0,29.0,22.0,72.509765625,-12.451170921325684,49.804683685302734,-0.6202392578125,1.3131103515625,-0.060791015625
3.961,385,3147,3147,2407,7.0,29.0,22.0,77.1484375,-0.9155272841453552,39.73388671875,-0.6202392578125,1.3131103515625,-0.060791015625
3.976,385,3147,3131,2337,7.0,29.0,22.0,45.166011810302734,8.72802734375,17.88330078125,-1.025146484375,1.4556884765625,-0.0140380859375
3.983,383,3147,3053,2164,7.0,29.0,22.0,-19.1650390625,17.7001953125,-8.36181640625,-1.975341796875,0.1556396484375,0.135986328125
3.991,381,3147,2978,2014,7.0,29.0,22.0,-62.072750091552734,25.268552780151367,-24.536130905151367,-1.975341796875,0.1556396484375,0.135986328125
3.999,376,3147,2833,1852,7.0,29.0,22.0,-57.617183685302734,28.381345748901367,-23.925779342651367,-2.0096435546875,0.0260009765625,0.1572265625
4.021,373,3147,2605,1700,7.0,29.0,22.0,-34.36279296875,26.794431686401367,-14.282225608825684,-1.6815185546875,0.114013671875,0.109375
4.021,370,3147,2388,1490,7.0,29.0,22.0,-17.9443359375,23.559568405151367,-4.82177734375,-1.6815185546875,0.114013671875,0.109375
4.055,363,3147,2161,1220,7.0,29.0,22.0,-9.46044921875,20.446775436401367,3.295898199081421,-1.4727783203125,0.138427734375,0.1324462890625
4.483,346,3147,1540,359,9.0,27.0,19.0,9.3994140625,17.4560546875,19.4091796875,-0.984619140625,0.2032470703125,-0.0411376953125
4.483,334,2532,1305,348,9.0,27.0,19.0,26.611326217651367,16.9677734375,20.01953125,-0.7254638671875,0.2930908203125,-0.1422119140625
4.483,318,1534,849,330,9.0,27.0,19.0,38.02490234375,16.9677734375,13.244627952575684,-0.398193359375,0.376953125,-0.2435302734375
4.484,316,1209,693,310,9.0,27.0,19.0,35.64453125,17.9443359375,2.44140625,-0.398193359375,0.376953125,-0.2435302734375
4.485,296,1012,661,328,9.0,27.0,19.0,24.108884811401367,23.132322311401367,-9.82666015625,-0.3470458984375,0.3218994140625,-0.368408203125
4.485,310,576,644,299,9.0,27.0,19.0,10.559081077575684,33.75244140625,-21.301267623901367,-0.339111328125,0.3392333984375,-0.460205078125
4.485,307,426,632,321,9.0,27.0,19.0,-9.27734375,40.771480560302734,-31.005857467651367,-0.4080810546875,0.384765625,-0.3309326171875
4.485,306,401,419,321,9.0,27.0,19.0,-36.376953125,38.4521484375,-38.57421875,-0.72412109375,0.337890625,0.094970703125
4.485,306,356,440,315,9.0,27.0,19.0,-59.265132904052734,32.16552734375,-42.907711029052734,-0.72412109375,0.337890625,0.094970703125
4.485,305,378,497,321,9.0,27.0,19.0,-72.6318359375,26.306150436401367,-41.931148529052734,-0.7698974609375,0.3162841796875,0.1597900390625
4.485,308,401,482,318,3.0,29.0,15.0,-76.23291015625,20.935056686401367,-34.11865234375,-0.6483154296875,0.108642578125,0.1500244140625
4.485,308,411,521,317,3.0,29.0,15.0,-67.87109375,15.808104515075684,-21.545408248901367,-0.6483154296875,0.108642578125,0.1500244140625
4.486,306,452,548,321,3.0,29.0,15.0,-48.339839935302734,11.962889671325684,-9.27734375,-0.60693359375,-0.0491943359375,0.165283203125
4.486,306,406,564,318,3.0,29.0,15.0,-22.888181686401367,9.521484375,-1.0986328125,-0.6041259765625,-0.1060791015625,0.1351318359375
4.486,308,416,567,321,3.0,29.0,15.0,0.9155272841453552,8.23974609375,2.25830078125,-0.6041259765625,-0.1060791015625,0.1351318359375
4.486,308,414,574,315,3.0,29.0,15.0,17.9443359375,8.4228515625,1.9531248807907104,-0.6192626953125,-0.032958984375,0.092041015625
4.486,306,391,561,321,3.0,29.0,15.0,25.634763717651367,7.690429210662842,0.0,-0.64453125,0.060791015625,0.1246337890625
4.486,293,455,553,305,3.0,29.0,15.0,21.911619186401367,3.906249761581421,-2.13623046875,-0.63916015625,0.171630859375,0.15625
4.486,307,454,540,318,3.0,29.0,15.0,11.474608421325684,-0.8544921278953552,-2.868652105331421,-0.63916015625,0.171630859375,0.15625
4.486,308,533,539,322,5.0,29.0,21.0,4.5166015625,-4.45556640625,-1.15966796875,-0.6275634765625,0.1287841796875,0.1142578125
4.486,308,568,478,321,5.0,29.0,21.0,7.080077648162842,-7.446288585662842,2.868652105331421,-0.61572265625,0.0477294921875,0.088134765625
4.486,307,591,499,321,5.0,29.0,21.0,17.822265625,-10.742186546325684,7.202147960662842,-0.5830078125,0.007080078125,0.04833984375
4.486,308,815,574,325,5.0,29.0,21.0,31.433103561401367,-14.221190452575684,9.3994140625,-0.5247802734375,0.055419921875,-0.01025390625
4.486,309,1253,636,324,5.0,29.0,21.0,41.076656341552734,-17.08984375,9.09423828125,-0.4608154296875,0.14306640625,-0.0418701171875
4.486,313,1960,631,330,5.0,29.0,21.0,45.166011810302734,-18.9208984375,8.97216796875,-0.46484375,0.231689453125,-0.029296875
4.487,314,2394,692,329,5.0,29.0,21.0,52.062984466552734,-21.118162155151367,14.465331077575684,-0.601806640625,0.350830078125,0.0167236328125
4.487,298,2449,683,328,5.0,29.0,21.0,63.964839935302734,-25.451658248901367,26.672361373901367,-0.7138671875,0.4373779296875,0.03759765625
4.487,300,3147,883,326,5.0,29.0,21.0,63.781734466552734,-32.958984375,36.7431640625,-0.67822265625,0.42626953125,0.0465087890625
4.487,307,3147,1271,794,5.0,29.0,21.0,40.10009765625,-45.104976654052734,37.90283203125,-0.510498046875,0.26806640625,0.13330078125
4.487,334,3147,1516,1257,7.0,29.0,19.0,10.986327171325684,-58.166500091552734,32.5927734375,-0.322509765625,0.0909423828125,0.2747802734375
4.487,357,3147,2018,1881,7.0,29.0,19.0,0.3662109076976776,-63.659664154052734,21.362302780151367,-0.1539306640625,0.1102294921875,0.2900390625
4.487,361,3147,2275,2202,7.0,29.0,19.0,-5.920409679412842,-55.480953216552734,1.15966796875,0.0498046875,0.1785888671875,0.154541015625
4.487,369,3147,2404,2472,7.0,29.0,19.0,-23.925779342651367,-34.3017578125,-20.751951217651367,-0.0806884765625,0.0538330078125,-0.0474853515625
4.487,371,3147,2648,2734,7.0,29.0,19.0,-26.855466842651367,-7.629394054412842,-28.076169967651367,-0.66552734375,0.0242919921875,-0.2049560546875
4.487,378,3147,3059,3031,7.0,29.0,19.0,-9.58251953125,10.864256858825684,-14.404295921325684,-1.3870849609375,0.5655517578125,-0.2335205078125
4.487,383,3147,3147,3147,7.0,29.0,19.0,-5.0048828125,13.427733421325684,11.352538108825684,-2.100830078125,1.0341796875,-0.3046875
4.487,386,3147,3147,3147,7.0,29.0,19.0,-22.827146530151367,7.995604991912842,34.1796875,-2.720947265625,0.656005859375,-0.319091796875
4.487,440,3147,3147,3147,7.0,29.0,19.0,-36.62109375,0.54931640625,43.151851654052734,-3.0406494140625,0.052734375,-0.1002197265625
4.487,388,3147,3147,3147,7.0,29.0,19.0,-22.949216842651367,-7.507323741912842,41.137691497802734,-2.98974609375,0.0338134765625,0.173095703125
4.487,387,3147,3147,3147,7.0,26.0,25.0,10.192870140075684,-11.962889671325684,37.7197265625,-2.34423828125,0.2161865234375,0.1512451171875
4.487,378,3147,3147,3147,7.0,26.0,25.0,45.349117279052734,-8.48388671875,31.188962936401367,-1.179443359375,0.5810546875,-0.0211181640625
4.493,382,3147,3147,3147,7.0,26.0,25.0,68.54248046875,0.1831054538488388,17.9443359375,-0.58642578125,1.3380126953125,-0.0897216796875
4.496,382,3147,3136,3147,7.0,26.0,25.0,46.630855560302734,10.131834983825684,-0.7324218153953552,-1.0343017578125,1.475341796875,-0.139892578125
4.496,378,3147,3093,3112,7.0,26.0,25.0,-20.812986373901367,20.202634811401367,-19.59228515625,-1.7806396484375,0.744384765625,-0.115478515625
4.496,376,3147,3016,2964,7.0,26.0,25.0,-69.03076171875,25.939939498901367,-25.512693405151367,-2.20458984375,0.1087646484375,-0.0142822265625
4.499,375,3147,2909,2813,7.0,26.0,25.0,-65.12451171875,24.169919967651367,-15.258788108825684,-2.2266845703125,0.000244140625,0.0638427734375
4.515,371,3147,2660,2375,7.0,26.0,25.0,-38.57421875,17.39501953125,-0.2441406100988388,-1.977294921875,0.10986328125,0.0953369140625
4.524,364,3147,2447,2268,7.0,26.0,25.0,-17.333984375,9.8876953125,9.58251953125,-1.643798828125,0.12158203125,0.117431640625
4.531,361,3147,2255,1978,7.0,26.0,25.0,-3.234863042831421,4.69970703125,11.596678733825684,-1.37158203125,0.0703125,0.141357421875
4.559,348,3147,1830,1369,6.0,28.0,23.0,12.756346702575684,3.112792730331421,8.72802734375,-1.1142578125,0.2237548828125,0.129150390625
4.601,343,3147,1524,898,6.0,28.0,23.0,28.564451217651367,5.676269054412842,4.2724609375,-0.7818603515625,0.472900390625,-0.003173828125
4.612,330,3147,1211,473,6.0,28.0,23.0,32.71484375,12.084959983825684,-1.8920897245407104,-0.4774169921875,0.5648193359375,-0.1405029296875
4.631,319,1766,879,346,6.0,28.0,23.0,25.878904342651367,19.59228515625,-10.009765625,-0.3092041015625,0.5098876953125,-0.174072265625
4.636,315,1269,732,329,6.0,28.0,23.0,15.869139671325684,25.207517623901367,-19.53125,-0.2279052734375,0.35888671875,-0.228759765625
4.641,313,1054,660,317,6.0,28.0,23.0,9.6435546875,29.602048873901367,-28.747556686401367,-0.192626953125,0.2315673828125,-0.35107421875
4.660,309,562,644,321,6.0,28.0,23.0,7.751464366912842,33.14208984375,-37.2314453125,-0.222412109375,0.2706298828125,-0.39306640625
4.663,310,442,629,322,6.0,28.0,23.0,-5.249022960662842,32.3486328125,-46.630855560302734,-0.3538818359375,0.3798828125,-0.248779296875
4.667,306,395,608,321,6.0,28.0,23.0,-33.935546875,26.184080123901367,-56.335445404052734,-0.5684814453125,0.3590087890625,-0.03076171875
4.668,306,346,391,304,4.0,28.0,20.0,-59.570308685302734,19.59228515625,-62.194820404052734,-0.739501953125,0.2816162109375,0.1171875
4.681,287,371,446,317,4.0,28.0,20.0,-71.47216796875,15.380858421325684,-59.448238372802734,-0.8057861328125,0.2646484375,0.1680908203125
4.700,307,401,454,315,4.0,28.0,20.0,-72.69287109375,12.329100608825684,-48.339839935302734,-0.8035888671875,0.215576171875,0.158447265625
4.708,308,402,456,318,4.0,28.0,20.0,-72.69287109375,12.329100608825684,-48.339839935302734,-0.7587890625,0.05224609375,0.149169921875
4.709,306,382,466,318,4.0,28.0,20.0,-48.645015716552734,7.019042491912842,-20.080564498901367,-0.7149658203125,-0.135986328125,0.1634521484375
4.716,306,382,482,300,4.0,28.0,20.0,-28.808591842651367,4.08935546875,-9.21630859375,-0.717041015625,-0.2249755859375,0.1807861328125
4.723,308,413,514,318,4.0,28.0,20.0,-9.27734375,0.6713866591453552,-1.3427733182907104,-0.7349853515625,-0.1978759765625,0.1865234375
4.728,308,404,521,319,4.0,28.0,20.0,7.812499523162842,-2.13623046875,2.990722417831421,-0.728759765625,-0.104248046875,0.19091796875
4.731,307,438,526,321,4.0,28.0,20.0,19.775390625,-4.45556640625,3.662109136581421,-0.6983642578125,0.0042724609375,0.1806640625
4.763,308,462,523,318,4.0,28.0,20.0,23.925779342651367,-7.141112804412842,2.50244140625,-0.656494140625,0.08642578125,0.136962890625
4.771,308,457,501,315,4.0,28.0,20.0,23.925779342651367,-7.141112804412842,2.50244140625,-0.61328125,0.1204833984375,0.0721435546875
4.788,306,555,481,304,7.0,27.0,19.0,25.817869186401367,-14.282225608825684,4.2724609375,-0.5826416015625,0.110107421875,0.000732421875
4.803,304,568,499,318,7.0,27.0,19.0,33.75244140625,-17.51708984375,7.690429210662842,-0.557373046875,0.086669921875,-0.0626220703125
4.816,308,579,519,317,7.0,27.0,19.0,33.75244140625,-17.51708984375,7.690429210662842,-0.5247802734375,0.088623046875,-0.0999755859375
4.825,308,750,567,321,7.0,27.0,19.0,51.879878997802734,-20.507810592651367,18.1884765625,-0.481689453125,0.11083984375,-0.1053466796875
4.834,313,1331,685,330,7.0,27.0,19.0,53.771968841552734,-21.667478561401367,23.010251998901367,-0.419189453125,0.113037109375,-0.0968017578125
4.843,309,1659,673,327,7.0,27.0,19.0,53.771968841552734,-21.667478561401367,23.010251998901367,-0.4051513671875,0.1494140625,-0.0797119140625
4.864,314,2093,725,324,7.0,27.0,19.0,53.466793060302734,-24.169919967651367,25.878904342651367,-0.5301513671875,0.3482666015625,-0.0174560546875
4.865,302,2927,932,334,7.0,27.0,19.0,65.61279296875,-33.26416015625,30.151365280151367,-0.646484375,0.56494140625,0.0655517578125
4.867,323,3147,1206,464,7.0,27.0,19.0,53.161617279052734,-38.818359375,28.869626998901367,-0.5177001953125,0.50390625,0.1358642578125
4.868,336,3147,1429,958,1.0,27.0,23.0,53.161617279052734,-38.818359375,28.869626998901367,-0.2584228515625,0.16650390625,0.21630859375
4.870,346,3147,1943,1398,1.0,27.0,23.0,-12.878417015075684,-54.504390716552734,15.747069358825684,-0.1712646484375,-0.1314697265625,0.3104248046875
4.871,359,3147,2325,1783,1.0,27.0,23.0,-13.183592796325684,-59.936519622802734,9.58251953125,-0.1949462890625,-0.1492919921875,0.3551025390625
4.874,369,3147,2541,2246,1.0,27.0,23.0,-13.183592796325684,-59.936519622802734,9.58251953125,-0.1949462890625,-0.1492919921875,0.3551025390625
4.876,360,3147,2810,2880,1.0,27.0,23.0,2.685546636581421,-36.62109375,-20.874021530151367,-0.5513916015625,0.28271484375,0.2061767578125
4.882,378,3147,3033,3095,1.0,27.0,23.0,6.408690929412842,-9.82666015625,-28.259275436401367,-1.132080078125,0.759521484375,-0.183349609375
4.900,382,3147,3134,3147,1.0,27.0,23.0,6.408690929412842,-9.82666015625,-28.259275436401367,-1.6617431640625,1.0997314453125,-0.528076171875
4.904,388,3147,3147,3147,1.0,27.0,23.0,-32.40966796875,11.474608421325684,2.197265625,-2.2183837890625,0.8104248046875,-0.4998779296875
4.912,465,3147,3147,3147,1.0,27.0,23.0,-57.800289154052734,-4.0283203125,19.71435546875,-2.8375244140625,0.09423828125,-0.1575927734375
4.920,491,3147,3147,3147,1.0,27.0,23.0,-57.800289154052734,-4.0283203125,19.71435546875,-3.227783203125,-0.2869873046875,0.1787109375
4.934,387,3147,3147,3147,7.0,25.0,20.0,-12.145995140075684,-31.799314498901367,38.57421875,-2.8997802734375,-0.1710205078125,0.2110595703125
4.942,386,3147,3147,3147,7.0,25.0,20.0,36.4990234375,-28.198240280151367,44.555660247802734,-1.707275390625,0.157470703125,-0.025634765625
4.965,385,3147,3147,3147,7.0,25.0,20.0,36.4990234375,-28.198240280151367,44.555660247802734,-0.64892578125,0.9420166015625,-0.059814453125
4.966,403,3147,3147,3147,7.0,25.0,20.0,73.05908203125,-4.45556640625,31.372068405151367,-0.64990234375,1.4962158203125,0.0606689453125
4.972,414,3147,3147,3147,7.0,25.0,20.0,73.05908203125,-4.45556640625,31.372068405151367,-1.2576904296875,1.0826416015625,0.13916015625
4.980,413,3147,3147,3147,7.0,25.0,20.0,18.310546875,6.347655773162842,5.554198741912842,-1.2576904296875,1.0826416015625,0.13916015625
5.007,385,3147,3147,3147,7.0,25.0,20.0,-53.527828216552734,22.827146530151367,-32.40966796875,-1.92822265625,0.191162109375,0.2142333984375
5.010,383,3147,3147,3147,7.0,25.0,20.0,-53.527828216552734,22.827146530151367,-32.40966796875,-1.8634033203125,0.2503662109375,0.2080078125
5.011,385,3147,3117,2981,7.0,25.0,20.0,-31.372068405151367,23.681638717651367,-26.855466842651367,-1.8634033203125,0.2503662109375,0.2080078125
5.047,378,3147,2874,2616,5.0,28.0,21.0,-1.220703125,18.798828125,-13.732909202575684,-1.5355224609375,0.1553955078125,0.0841064453125
5.070,373,3147,2734,2456,5.0,28.0,21.0,-1.220703125,18.798828125,-13.732909202575684,-1.310791015625,-0.0157470703125,0.0421142578125
5.132,371,3147,2555,2235,5.0,28.0,21.0,3.845214605331421,16.54052734375,-10.864256858825684,-1.310791015625,-0.0157470703125,0.0421142578125
5.148,361,3147,2162,1604,5.0,28.0,21.0,32.5927734375,7.568358898162842,3.234863042831421,-0.7406005859375,0.1878662109375,-0.11083984375
5.171,351,3147,1952,1107,5.0,28.0,21.0,32.5927734375,7.568358898162842,3.234863042831421,-0.524658203125,0.43310546875,-0.152099609375
5.195,347,3147,1761,902,5.0,28.0,21.0,42.907711029052734,2.38037109375,9.82666015625,-0.524658203125,0.43310546875,-0.152099609375
5.205,336,3147,1348,351,5.0,28.0,21.0,12.512206077575684,7.507323741912842,-4.69970703125,-0.5518798828125,0.4412841796875,-0.0867919921875
5.220,328,2584,1017,342,5.0,28.0,21.0,12.512206077575684,7.507323741912842,-4.69970703125,-0.6082763671875,0.3468017578125,-0.10791015625
5.224,324,2133,841,342,5.0,28.0,21.0,-5.615233898162842,15.624999046325684,-15.624999046325684,-0.6082763671875,0.3468017578125,-0.10791015625
5.227,315,1604,720,324,5.0,28.0,21.0,-13.854979515075684,35.64453125,-23.864744186401367,-0.5447998046875,0.2664794921875,-0.251708984375
5.236,316,1216,695,334,6.0,27.0,17.0,-13.854979515075684,35.64453125,-23.864744186401367,-0.5443115234375,0.2352294921875,-0.144775390625
5.241,315,899,702,330,6.0,27.0,17.0,-17.02880859375,40.832515716552734,-25.512693405151367,-0.5443115234375,0.2352294921875,-0.144775390625
5.246,310,521,661,321,6.0,27.0,17.0,-49.316402435302734,30.761716842651367,-33.63037109375,-0.7064208984375,-0.02099609375,0.1854248046875
5.252,308,538,603,323,6.0,27.0,17.0,-49.316402435302734,30.761716842651367,-33.63037109375,-0.75048828125,-0.0819091796875,0.19970703125
5.273,307,527,562,323,6.0,27.0,17.0,-54.199214935302734,25.268552780151367,-34.1796875,-0.75048828125,-0.0819091796875,0.19970703125
5.277,306,391,540,321,6.0,27.0,17.0,-26.428220748901367,16.78466796875,-16.90673828125,-0.7344970703125,0.0904541015625,0.112548828125
5.282,308,373,499,322,6.0,27.0,17.0,-26.428220748901367,16.78466796875,-16.90673828125,-0.7340087890625,0.1527099609375,0.1083984375
5.284,306,371,517,319,6.0,27.0,17.0,-11.962889671325684,10.681151390075684,-6.347655773162842,-0.7340087890625,0.1527099609375,0.1083984375
5.287,306,426,464,318,6.0,27.0,17.0,-4.7607421875,4.150390625,1.5869139432907104,-0.806640625,0.20703125,0.1507568359375
5.296,308,508,462,318,6.0,27.0,17.0,-1.5869139432907104,-0.8544921278953552,8.7890625,-0.806640625,0.20703125,0.1507568359375
5.320,306,531,497,318,7.0,26.0,19.0,0.3662109076976776,-2.990722417831421,15.991209983825684,-0.81494140625,0.215576171875,0.1446533203125
5.331,307,574,430,318,7.0,26.0,19.0,-0.30517578125,-2.807616949081421,21.179197311401367,-0.757080078125,0.1536865234375,0.08544921875
5.341,308,559,437,321,7.0,26.0,19.0,-3.356933355331421,-1.4648436307907104,22.521970748901367,-0.757080078125,0.1536865234375,0.08544921875
5.349,306,540,463,316,7.0,26.0,19.0,-5.493163585662842,-0.0610351525247097,20.996091842651367,-0.72412109375,0.1429443359375,0.05224609375
5.352,308,494,466,321,7.0,26.0,19.0,-5.065917491912842,0.1220703050494194,19.22607421875,-0.67236328125,0.14599609375,0.025146484375
5.354,309,614,481,321,7.0,26.0,19.0,-2.563476324081421,-1.5258787870407104,18.98193359375,-0.5374755859375,0.11962890625,-0.038330078125
5.357,292,855,526,323,7.0,26.0,19.0,0.9765624403953552,-4.94384765625,20.202634811401367,-0.5374755859375,0.11962890625,-0.038330078125
5.376,313,1434,541,314,7.0,26.0,19.0,6.347655773162842,-9.33837890625,22.399900436401367,-0.47509765625,0.068603515625,-0.0469970703125
5.376,313,1616,591,332,7.0,26.0,19.0,14.343260765075684,-13.549803733825684,25.085447311401367,-0.3963623046875,0.04052734375,-0.0487060546875
5.377,308,2012,710,328,7.0,26.0,19.0,25.451658248901367,-18.24951171875,28.320310592651367,-0.4051513671875,0.1256103515625,0.003662109375
5.377,313,2449,721,328,5.0,29.0,19.0,39.1845703125,-25.207517623901367,34.0576171875,-0.4432373046875,0.2857666015625,0.0875244140625
5.378,310,3147,1370,362,5.0,29.0,19.0,46.081539154052734,-33.50830078125,40.161128997802734,-0.400634765625,0.3289794921875,0.162841796875
5.379,346,3147,1912,759,5.0,29.0,19.0,37.7197265625,-43.090816497802734,41.259761810302734,-0.1768798828125,0.094970703125,0.2498779296875
5.380,363,3147,2417,1153,5.0,29.0,19.0,27.099607467651367,-53.771968841552734,32.3486328125,0.254638671875,-0.271484375,0.2548828125
5.380,382,3147,2870,2070,5.0,29.0,19.0,29.724119186401367,-60.668941497802734,10.559081077575684,0.392578125,0.228515625,0.1041259765625
5.380,385,3147,2990,2601,5.0,29.0,19.0,34.72900390625,-57.312007904052734,-17.333984375,0.392578125,0.228515625,0.1041259765625
5.381,385,3147,3111,2900,5.0,29.0,19.0,26.245115280151367,-34.97314453125,-42.480464935302734,-0.3603515625,0.9315185546875,-0.0645751953125
5.389,390,3147,3147,3147,5.0,29.0,19.0,-3.906249761581421,-1.4038084745407104,-56.274410247802734,-1.3453369140625,1.5469970703125,-0.2286376953125
5.429,484,3147,3147,3147,5.0,29.0,19.0,-51.147457122802734,19.775390625,-51.086421966552734,-1.9869384765625,1.6044921875,-0.2823486328125
5.429,567,3147,3147,3147,5.0,29.0,19.0,-82.88573455810547,16.2353515625,-32.40966796875,-2.4891357421875,0.7486572265625,-0.0736083984375
5.430,600,3147,3147,3147,8.0,28.0,24.0,-74.76806640625,-3.601073980331421,-18.73779296875,-3.245849609375,-0.358154296875,0.2724609375
5.438,430,3147,3147,3147,8.0,28.0,24.0,-37.4755859375,-19.53125,-8.60595703125,-3.8385009765625,-0.7701416015625,0.3634033203125
5.486,416,3147,3147,3147,8.0,28.0,24.0,14.221190452575684,-18.00537109375,14.160155296325684,-3.0810546875,-0.7640380859375,-0.047607421875
5.487,389,3147,3147,3147,8.0,28.0,24.0,73.3642578125,-1.220703125,39.55078125,-1.3416748046875,-0.0604248046875,-0.3035888671875
5.487,382,3147,3147,3147,8.0,28.0,24.0,115.11229705810547,9.82666015625,49.621578216552734,-0.59130859375,1.2890625,-0.0654296875
5.488,384,3147,3147,3147,8.0,28.0,24.0,87.52440643310547,10.559081077575684,31.188962936401367,-1.0306396484375,1.748779296875,0.0843505859375
5.488,383,3147,3147,3147,8.0,28.0,24.0,-0.9765624403953552,15.441893577575684,-9.6435546875,-1.5888671875,1.1392822265625,0.0677490234375
5.497,379,3147,3094,3147,8.0,28.0,24.0,-65.36865234375,24.291990280151367,-40.0390625,-1.8826904296875,0.39013671875,0.01806640625
5.502,376,3147,2991,2988,8.0,28.0,24.0,-64.0869140625,31.677244186401367,-41.748043060302734,-1.936279296875,0.1014404296875,-0.0247802734375
5.515,375,3147,2850,2713,8.0,28.0,24.0,-30.578611373901367,33.935546875,-27.282712936401367,-1.8126220703125,0.175537109375,-0.045166015625
5.535,369,3147,2580,2364,7.0,28.0,22.0,-11.657713890075684,28.564451217651367,-15.624999046325684,-1.596435546875,0.1702880859375,-0.01953125
5.536,364,3147,2432,1934,7.0,28.0,22.0,-13.610838890075684,19.287109375,-10.803221702575684,-1.3927001953125,0.0556640625,0.04443359375
5.539,361,3147,2263,1387,7.0,28.0,22.0,-13.549803733825684,13.122557640075684,-6.225585460662842,-1.195556640625,0.1309814453125,0.1036376953125
5.560,348,3147,1850,505,7.0,28.0,22.0,-4.94384765625,13.122557640075684,2.197265625,-0.9412841796875,0.292724609375,0.0858154296875
5.580,316,2590,1574,359,7.0,28.0,22.0,3.967284917831421,18.00537109375,10.375975608825684,-0.69970703125,0.2764892578125,0.012451171875
5.602,328,1883,1229,347,7.0,28.0,22.0,12.390135765075684,24.475095748901367,13.061522483825684,-0.5135498046875,0.151611328125,-0.054931640625
5.618,316,1182,750,324,7.0,28.0,22.0,20.324705123901367,28.930662155151367,9.09423828125,-0.322021484375,-0.000244140625,-0.1854248046875
5.629,315,829,754,324,7.0,28.0,22.0,26.550291061401367,31.799314498901367,-0.0610351525247097,-0.1561279296875,-0.0374755859375,-0.3828125
5.645,314,594,731,319,7.0,28.0,22.0,29.907224655151367,34.7900390625,-12.329100608825684,-0.0927734375,0.1337890625,-0.4512939453125
5.654,310,398,642,315,2.0,25.0,20.0,17.88330078125,32.958984375,-26.123044967651367,-0.2275390625,0.3184814453125,-0.27685546875
5.659,308,355,588,316,2.0,25.0,20.0,-9.8876953125,26.062009811401367,-37.78076171875,-0.542724609375,0.3590087890625,-0.006103515625
5.684,309,493,540,318,2.0,25.0,20.0,-32.40966796875,21.118162155151367,-41.870113372802734,-0.8106689453125,0.350341796875,0.17236328125
5.691,308,512,531,319,2.0,25.0,20.0,-41.381832122802734,20.080564498901367,-36.0107421875,-0.9014892578125,0.363037109375,0.2283935546875
5.703,306,428,497,316,2.0,25.0,20.0,-43.334957122802734,19.4091796875,-24.047849655151367,-0.85498046875,0.306884765625,0.1995849609375
5.723,306,431,513,319,2.0,25.0,20.0,-41.198726654052734,17.822265625,-12.390135765075684,-0.764404296875,0.170166015625,0.150390625
5.732,306,418,531,319,2.0,25.0,20.0,-32.77587890625,15.808104515075684,-3.540038824081421,-0.6822509765625,0.03125,0.1278076171875
5.753,306,445,555,321,2.0,25.0,20.0,-19.6533203125,13.488768577575684,2.563476324081421,-0.638427734375,-0.0545654296875,0.1160888671875
5.763,307,481,546,321,2.0,25.0,20.0,-9.1552734375,10.681151390075684,5.554198741912842,-0.6494140625,-0.0751953125,0.111328125
5.787,308,439,561,318,2.0,25.0,20.0,-4.94384765625,8.1787109375,5.737304210662842,-0.6817626953125,-0.0390625,0.1126708984375
5.796,307,439,538,318,6.0,26.0,25.0,-3.967284917831421,6.896972179412842,4.45556640625,-0.7130126953125,0.046630859375,0.1005859375
5.808,286,462,553,317,6.0,26.0,25.0,-3.723144292831421,6.286620616912842,3.845214605331421,-0.7369384765625,0.147705078125,0.0673828125
5.826,306,433,513,316,6.0,26.0,25.0,-5.493163585662842,4.8828125,5.0048828125,-0.747314453125,0.2100830078125,0.0283203125
5.834,306,521,518,318,6.0,26.0,25.0,-8.6669921875,2.197265625,7.934569835662842,-0.7471923828125,0.21435546875,0.0009765625
5.843,307,512,516,316,6.0,26.0,25.0,-8.85009765625,-0.8544921278953552,11.840819358825684,-0.732177734375,0.1868896484375,-0.0172119140625
5.855,307,442,567,318,6.0,26.0,25.0,-2.929687261581421,-3.540038824081421,16.17431640625,-0.70263671875,0.16064453125,-0.0330810546875
5.866,307,465,601,321,6.0,26.0,25.0,7.019042491912842,-6.469726085662842,20.629880905151367,-0.665771484375,0.151123046875,-0.04345703125
5.867,308,495,669,318,6.0,26.0,25.0,7.019042491912842,-6.469726085662842,20.629880905151367,-0.632080078125,0.14892578125,-0.048583984375
5.867,308,958,749,328,6.0,26.0,25.0,19.53125,-14.343260765075684,29.602048873901367,-0.600830078125,0.12060546875,-0.05615234375
5.868,310,1536,735,322,6.0,26.0,25.0,20.141599655151367,-18.85986328125,33.935546875,-0.541748046875,0.06494140625,-0.088134765625
5.869,294,1653,749,324,4.0,30.0,20.0,20.141599655151367,-18.85986328125,33.935546875,-0.5545654296875,0.087646484375,-0.1192626953125
5.869,316,2624,846,328,4.0,30.0,20.0,29.724119186401367,-30.456541061401367,46.997066497802734,-0.658447265625,0.2230224609375,-0.0987548828125
5.870,318,3147,1018,331,4.0,30.0,20.0,38.51318359375,-38.57421875,59.570308685302734,-0.7108154296875,0.3421630859375,-0.030517578125
5.888,330,3147,1357,473,4.0,30.0,20.0,38.51318359375,-38.57421875,59.570308685302734,-0.5880126953125,0.2418212890625,0.0648193359375
5.888,359,3147,2290,1055,4.0,30.0,20.0,7.446288585662842,-55.541988372802734,75.98876953125,-0.1302490234375,-0.247314453125,0.1099853515625
5.889,364,3147,2677,1514,4.0,30.0,20.0,-16.05224609375,-60.668941497802734,65.12451171875,0.3740234375,-0.640869140625,0.1390380859375
5.889,376,3147,2973,2021,4.0,30.0,20.0,-16.05224609375,-60.668941497802734,65.12451171875,0.560791015625,-0.4517822265625,0.309326171875
5.889,387,3147,3147,3106,4.0,30.0,20.0,3.173827886581421,-58.288570404052734,14.038084983825684,0.2669677734375,0.2713623046875,0.5072021484375
5.892,414,3147,3147,3147,4.0,30.0,20.0,21.057126998901367,-36.9873046875,-8.85009765625,-0.5948486328125,1.44482421875,0.4453125
5.900,512,3147,3147,3147,4.0,30.0,20.0,21.057126998901367,-36.9873046875,-8.85009765625,-1.5,2.31298828125,0.1134033203125
5.922,620,3147,3147,3147,7.0,26.0,19.0,-31.066892623901367,16.90673828125,8.36181640625,-1.9686279296875,1.903564453125,-0.0618896484375
5.927,675,3147,3147,3147,7.0,26.0,19.0,-77.2705078125,22.460935592651367,20.690916061401367,-2.5023193359375,0.454345703125,0.0509033203125
5.930,714,3147,3147,3147,7.0,26.0,19.0,-77.2705078125,22.460935592651367,20.690916061401367,-3.30126953125,-0.6126708984375,0.1163330078125
5.944,500,3147,3147,3147,7.0,26.0,19.0,-4.2724609375,18.310546875,17.7001953125,-3.6004638671875,-0.5689697265625,-0.098388671875
5.959,426,3147,3147,3147,7.0,26.0,19.0,71.22802734375,13.244627952575684,31.311033248901367,-2.6165771484375,-0.162109375,-0.527587890625
5.960,454,3147,3147,3147,7.0,26.0,19.0,71.22802734375,13.244627952575684,31.311033248901367,-1.0772705078125,0.6536865234375,-0.6636962890625
5.989,531,3147,3147,3147,7.0,26.0,19.0,128.662109375,-0.8544921278953552,36.43798828125,-0.650390625,1.7861328125,-0.4786376953125
5.990,533,3147,3147,3147,7.0,26.0,19.0,67.138671875,-5.798339366912842,19.47021484375,-1.2574462890625,1.877685546875,-0.259033203125
5.990,531,3147,3147,3147,7.0,26.0,19.0,67.138671875,-5.798339366912842,19.47021484375,-1.841796875,0.9056396484375,0.0157470703125
6.004,464,3147,3147,3147,3.0,29.0,23.0,-117.24852752685547,5.126952648162842,-22.216794967651367,-2.043701171875,0.087158203125,0.2398681640625
6.012,404,3147,3147,3147,3.0,29.0,23.0,-95.58104705810547,11.474608421325684,-16.6015625,-1.9708251953125,-0.024169921875,0.3140869140625
6.030,378,3147,3147,3135,3.0,29.0,23.0,-95.58104705810547,11.474608421325684,-16.6015625,-1.7664794921875,0.2080078125,0.266357421875
6.034,377,3147,2984,2563,3.0,29.0,23.0,11.474608421325684,16.41845703125,10.742186546325684,-1.490478515625,0.28955078125,0.15185546875
6.042,375,3147,2780,2228,3.0,29.0,23.0,25.573728561401367,17.2119140625,10.375975608825684,-1.19482421875,0.193115234375,0.03564453125
6.051,371,3147,2543,1846,3.0,29.0,23.0,25.573728561401367,17.2119140625,10.375975608825684,-0.898193359375,0.2288818359375,-0.0487060546875
6.067,360,3147,2152,853,3.0,29.0,23.0,30.578611373901367,16.41845703125,9.46044921875,-0.591796875,0.4072265625,-0.1654052734375
6.073,354,3147,1865,369,3.0,29.0,23.0,35.94970703125,14.770506858825684,10.375975608825684,-0.371826171875,0.5662841796875,-0.2503662109375
6.094,346,2207,1602,359,3.0,29.0,23.0,35.94970703125,14.770506858825684,10.375975608825684,-0.27685546875,0.64208984375,-0.27001953125
6.104,330,1638,1148,345,3.0,29.0,23.0,18.12744140625,10.437010765075684,-11.291502952575684,-0.2728271484375,0.5792236328125,-0.3409423828125
6.116,323,1302,891,336,4.0,28.0,23.0,18.12744140625,10.437010765075684,-11.291502952575684,-0.310302734375,0.4456787109375,-0.3988037109375
6.133,318,1010,778,321,4.0,28.0,23.0,-2.685546636581421,15.930174827575684,-28.747556686401367,-0.310302734375,0.4456787109375,-0.3988037109375
6.139,313,539,731,323,4.0,28.0,23.0,-38.57421875,25.085447311401367,-49.682613372802734,-0.462890625,0.236572265625,-0.1143798828125
6.147,313,478,679,324,4.0,28.0,23.0,-38.57421875,25.085447311401367,-49.682613372802734,-0.5863037109375,0.1378173828125,0.091552734375
6.152,310,414,648,300,4.0,28.0,23.0,-53.588863372802734,21.606443405151367,-54.321285247802734,-0.5863037109375,0.1378173828125,0.091552734375
6.157,309,404,567,321,4.0,28.0,23.0,-60.302730560302734,12.573241233825684,-56.030269622802734,-0.8414306640625,0.0574951171875,0.228271484375
6.172,308,382,548,318,4.0,28.0,23.0,-60.302730560302734,12.573241233825684,-56.030269622802734,-0.8709716796875,0.09912109375,0.2073974609375
6.176,308,386,584,316,4.0,28.0,23.0,-50.292964935302734,12.634276390075684,-49.560543060302734,-0.8709716796875,0.09912109375,0.2073974609375
6.195,306,386,562,319,4.0,28.0,23.0,-23.864744186401367,14.953612327575684,-25.146482467651367,-0.787353515625,0.1796875,0.1962890625
6.205,310,388,572,318,4.0,28.0,23.0,-23.864744186401367,14.953612327575684,-25.146482467651367,-0.722412109375,0.164794921875,0.2174072265625
6.208,306,386,591,319,0.0,28.0,20.0,-17.88330078125,13.061522483825684,-13.366698265075684,-0.722412109375,0.164794921875,0.2174072265625
6.217,308,418,572,316,0.0,28.0,20.0,-18.73779296875,5.737304210662842,2.746581792831421,-0.660400390625,0.0809326171875,0.165283203125
6.231,308,424,567,323,0.0,28.0,20.0,-18.73779296875,5.737304210662842,2.746581792831421,-0.65234375,0.055908203125,0.1192626953125
6.236,308,457,549,316,0.0,28.0,20.0,-13.610838890075684,3.540038824081421,6.713866710662842,-0.65234375,0.055908203125,0.1192626953125
6.246,307,465,564,318,0.0,28.0,20.0,5.676269054412842,-0.7934569716453552,10.559081077575684,-0.6494140625,0.1370849609375,0.05517578125
6.255,308,378,571,321,0.0,28.0,20.0,5.676269054412842,-0.7934569716453552,10.559081077575684,-0.619140625,0.177734375,0.0106201171875
6.268,308,424,569,318,0.0,28.0,20.0,14.038084983825684,-3.601073980331421,13.549803733825684,-0.619140625,0.177734375,0.0106201171875
6.297,310,487,621,322,0.0,28.0,20.0,20.874021530151367,-8.72802734375,22.033689498901367,-0.5120849609375,0.154541015625,-0.105224609375
6.308,308,625,625,321,0.0,28.0,20.0,20.874021530151367,-8.72802734375,22.033689498901367,-0.43701171875,0.121337890625,-0.13671875
6.322,311,830,660,323,0.0,28.0,20.0,19.4091796875,-11.413573265075684,26.245115280151367,-0.43701171875,0.121337890625,-0.13671875
6.339,313,1755,744,328,0.0,31.0,12.0,14.160155296325684,-19.4091796875,31.433103561401367,-0.23876953125,0.0152587890625,-0.0948486328125
6.340,315,2213,827,332,0.0,31.0,12.0,14.160155296325684,-19.4091796875,31.433103561401367,-0.34375,0.2215576171875,0.0252685546875
6.342,327,2871,1054,330,0.0,31.0,12.0,25.146482467651367,-25.390623092651367,33.3251953125,-0.34375,0.2215576171875,0.0252685546875
6.344,347,3147,1985,359,0.0,31.0,12.0,49.743648529052734,-33.38623046875,40.710445404052734,-0.25341796875,0.160888671875,0.0362548828125
6.346,347,3147,2464,975,0.0,31.0,12.0,57.189937591552734,-40.466304779052734,48.034664154052734,-0.25341796875,0.160888671875,0.0362548828125
6.351,371,3147,2837,1344,0.0,31.0,12.0,25.634763717651367,-42.602535247802734,40.954586029052734,0.3314208984375,-0.391357421875,-0.1043701171875
6.359,374,3147,3007,1855,0.0,31.0,12.0,-10.375975608825684,-45.715328216552734,21.240232467651367,0.68359375,-0.4029541015625,0.086181640625
6.373,382,3147,3147,2703,0.0,31.0,12.0,-9.58251953125,-50.476070404052734,-2.807616949081421,-0.4813232421875,1.213623046875,0.564453125
6.400,442,3147,3147,3147,0.0,31.0,12.0,13.183592796325684,-44.982906341552734,-28.564451217651367,-0.4813232421875,1.213623046875,0.564453125
6.401,467,3147,3147,3147,0.0,31.0,12.0,11.840819358825684,-28.808591842651367,-39.4287109375,-1.4019775390625,2.066650390625,0.2884521484375
6.403,614,3147,3147,3147,5.0,29.0,16.0,-27.648923873901367,-13.366698265075684,-21.606443405151367,-3.02978515625,0.6005859375,0.074462890625
6.411,668,3147,3147,3147,5.0,29.0,16.0,-62.561031341552734,-5.798339366912842,12.451170921325684,-3.02978515625,0.6005859375,0.074462890625
6.420,584,3147,3147,3147,5.0,29.0,16.0,-52.490230560302734,-4.150390625,39.61181640625,-3.7498779296875,-0.7978515625,0.3759765625
6.440,396,3147,3147,3147,5.0,29.0,16.0,5.126952648162842,-1.03759765625,59.631343841552734,-3.7227783203125,-1.1324462890625,0.233154296875
6.441,391,3147,3147,3147,5.0,29.0,16.0,90.51512908935547,9.8876953125,74.64599609375,-2.3360595703125,-0.425048828125,-0.4241943359375
6.449,442,3147,3147,3147,5.0,29.0,16.0,157.77587890625,21.240232467651367,68.4814453125,-0.6976318359375,1.1160888671875,-0.8519287109375
6.463,484,3147,3147,3147,5.0,29.0,16.0,154.11376953125,19.04296875,41.870113372802734,-0.5205078125,2.3067626953125,-0.7894287109375
6.471,495,3147,3147,3147,5.0,29.0,16.0,54.321285247802734,9.70458984375,7.690429210662842,-1.35791015625,1.9229736328125,-0.4608154296875
6.479,470,3147,3147,3147,5.0,29.0,16.0,-76.66015625,6.286620616912842,-21.362302780151367,-1.99267578125,0.765869140625,0.023193359375
6.503,382,3147,3147,3088,3.0,27.0,19.0,-130.18798828125,9.8876953125,-32.3486328125,-2.167236328125,0.1278076171875,0.3804931640625
6.504,378,3147,3092,2897,3.0,27.0,19.0,-92.65135955810547,17.7001953125,-25.817869186401367,-2.0596923828125,0.1407470703125,0.4117431640625
6.509,375,3147,2922,2749,3.0,27.0,19.0,-32.65380859375,24.475095748901367,-13.610838890075684,-1.826171875,0.236083984375,0.253662109375
6.523,371,3147,2608,2133,3.0,27.0,19.0,3.051757574081421,26.123044967651367,-4.08935546875,-1.55419921875,0.2459716796875,0.1021728515625
6.549,362,3147,2364,1669,3.0,27.0,19.0,15.502928733825684,23.193357467651367,1.7089842557907104,-1.2552490234375,0.3426513671875,0.0040283203125
6.550,351,3147,2087,1014,3.0,27.0,19.0,17.08984375,18.4326171875,5.249022960662842,-0.9000244140625,0.429931640625,-0.0887451171875
6.553,344,2456,1568,349,3.0,27.0,19.0,16.2353515625,15.380858421325684,4.7607421875,-0.53515625,0.441650390625,-0.1585693359375
6.561,326,1569,1125,346,3.0,27.0,19.0,17.02880859375,15.136717796325684,-0.8544921278953552,-0.299072265625,0.44189453125,-0.1905517578125
6.570,318,1151,829,336,3.0,27.0,19.0,14.465331077575684,17.822265625,-11.962889671325684,-0.2230224609375,0.3194580078125,-0.2642822265625
6.611,313,642,644,324,3.0,27.0,19.0,5.737304210662842,26.000974655151367,-28.076169967651367,-0.2318115234375,0.1767578125,-0.3763427734375
6.623,308,540,521,318,5.0,25.0,18.0,0.1220703050494194,37.65869140625,-43.151851654052734,-0.276123046875,0.1878662109375,-0.3946533203125
6.626,308,386,467,318,5.0,25.0,18.0,-4.39453125,42.541500091552734,-52.429195404052734,-0.3798828125,0.2779541015625,-0.2396240234375
6.628,302,363,333,318,5.0,25.0,18.0,-16.66259765625,37.04833984375,-56.579586029052734,-0.591064453125,0.3597412109375,-0.01904296875
6.646,304,330,338,316,5.0,25.0,18.0,-31.555173873901367,28.137205123901367,-54.687496185302734,-0.786865234375,0.38818359375,0.1270751953125
6.656,304,401,328,321,5.0,25.0,18.0,-42.175289154052734,20.874021530151367,-44.738765716552734,-0.8587646484375,0.35009765625,0.1768798828125
6.658,306,348,377,317,5.0,25.0,18.0,-44.311519622802734,15.808104515075684,-27.709959030151367,-0.8328857421875,0.2664794921875,0.151123046875
6.661,306,378,409,317,5.0,25.0,18.0,-35.33935546875,11.596678733825684,-7.385253429412842,-0.7572021484375,0.15771484375,0.0804443359375
6.665,294,403,433,323,5.0,25.0,18.0,-18.06640625,7.080077648162842,10.925292015075684,-0.665771484375,0.0447998046875,0.0037841796875
6.671,307,361,462,317,5.0,25.0,18.0,2.990722417831421,2.3193359375,22.155759811401367,-0.5704345703125,-0.0419921875,-0.08203125
6.712,308,360,504,317,5.0,25.0,18.0,22.949216842651367,0.1831054538488388,23.559568405151367,-0.51123046875,-0.06689453125,-0.172607421875
6.715,306,364,487,316,1.0,29.0,19.0,35.94970703125,3.356933355331421,17.51708984375,-0.509033203125,-0.0238037109375,-0.184326171875
6.720,306,371,499,316,1.0,29.0,19.0,40.527339935302734,11.291502952575684,9.521484375,-0.533935546875,0.052978515625,-0.0860595703125
6.725,304,438,402,318,1.0,29.0,19.0,40.466304779052734,19.95849609375,3.234863042831421,-0.57958984375,0.13525390625,0.0469970703125
6.727,304,441,407,316,1.0,29.0,19.0,39.1845703125,24.475095748901367,0.6713866591453552,-0.6500244140625,0.218505859375,0.16015625
6.740,304,428,442,316,1.0,29.0,19.0,36.80419921875,22.399900436401367,1.7089842557907104,-0.7191162109375,0.3006591796875,0.243896484375
6.748,306,437,467,317,1.0,29.0,19.0,31.066892623901367,15.136717796325684,4.69970703125,-0.75927734375,0.3575439453125,0.29541015625
6.755,306,424,495,318,1.0,29.0,19.0,22.949216842651367,6.103515148162842,7.812499523162842,-0.76318359375,0.38134765625,0.3094482421875
6.768,305,482,498,318,1.0,29.0,19.0,15.319823265075684,-2.38037109375,10.620116233825684,-0.733154296875,0.3809814453125,0.266845703125
6.776,307,542,490,318,1.0,29.0,19.0,7.934569835662842,-8.85009765625,12.817381858825684,-0.6793212890625,0.3446044921875,0.1641845703125
6.782,306,588,533,316,1.0,29.0,19.0,-2.13623046875,-11.901854515075684,13.610838890075684,-0.60546875,0.2608642578125,0.049560546875
6.791,306,495,499,318,2.0,29.0,20.0,-14.526366233825684,-11.108397483825684,11.718749046325684,-0.51513671875,0.13623046875,-0.026611328125
6.816,308,593,516,318,2.0,29.0,20.0,-21.606443405151367,-8.11767578125,6.530761241912842,-0.4205322265625,0.00439453125,-0.05224609375
6.816,308,1243,753,328,2.0,29.0,20.0,-14.465331077575684,-6.530761241912842,-0.3662109076976776,-0.3197021484375,-0.0867919921875,-0.0313720703125
6.820,313,2271,811,328,2.0,29.0,20.0,9.09423828125,-8.9111328125,-6.469726085662842,-0.2054443359375,-0.059814453125,-0.0009765625
6.834,318,3147,992,484,2.0,29.0,20.0,45.410152435302734,-15.136717796325684,-7.507323741912842,-0.3099365234375,0.287353515625,0.0225830078125
6.847,327,3147,1202,1045,2.0,29.0,20.0,84.28954315185547,-24.230955123901367,2.50244140625,-0.5042724609375,0.6796875,0.0081787109375
6.850,338,3147,1666,1424,2.0,29.0,20.0,85.69335174560547,-32.65380859375,12.451170921325684,-0.3485107421875,0.5919189453125,0.0128173828125
6.864,359,3147,2382,2280,2.0,29.0,20.0,25.207517623901367,-41.381832122802734,7.629394054412842,0.0931396484375,0.0936279296875,0.211669921875
6.872,361,3147,2566,2830,2.0,29.0,20.0,-33.935546875,-53.466793060302734,-7.934569835662842,0.3212890625,-0.24755859375,0.457275390625
6.880,371,3147,2765,3147,2.0,29.0,20.0,-22.827146530151367,-57.800289154052734,-25.573728561401367,-0.18896484375,0.179931640625,0.3330078125
6.894,376,3147,3107,3147,2.0,27.0,18.0,26.733396530151367,-39.12353515625,-37.65869140625,-1.1387939453125,1.1424560546875,-0.19482421875
6.917,378,3147,3147,3147,2.0,27.0,18.0,33.8134765625,-6.225585460662842,-39.306640625,-1.8804931640625,1.699951171875,-0.68359375
6.917,388,3147,3147,3147,2.0,27.0,18.0,-16.7236328125,17.7001953125,-28.808591842651367,-2.276611328125,1.4462890625,-0.6796875
6.924,487,3147,3147,3147,2.0,27.0,18.0,-71.71630859375,22.399900436401367,-10.559081077575684,-2.53857421875,0.5068359375,-0.3428955078125
6.932,518,3147,3147,3147,2.0,27.0,18.0,-92.52928924560547,13.732909202575684,3.601073980331421,-2.9234619140625,-0.4857177734375,-0.0618896484375
6.945,470,3147,3147,3147,2.0,27.0,18.0,-70.25146484375,3.356933355331421,16.4794921875,-3.102294921875,-0.81396484375,0.024658203125
6.954,378,3147,3147,3147,2.0,27.0,18.0,-7.873534679412842,-2.3193359375,36.7431640625,-2.39794921875,-0.5242919921875,-0.179931640625
6.962,390,3147,3147,3147,2.0,27.0,18.0,67.7490234375,-2.01416015625,51.879878997802734,-1.2008056640625,0.4296875,-0.3612060546875
6.970,393,3147,3147,3147,2.0,27.0,18.0,108.15428924560547,-2.13623046875,47.180171966552734,-0.814453125,1.67626953125,-0.2918701171875
6.984,378,3147,3147,3147,1.0,27.0,18.0,70.49560546875,-2.868652105331421,23.559568405151367,-1.343994140625,1.8865966796875,-0.1881103515625
6.992,378,3147,3147,3147,1.0,27.0,18.0,-21.606443405151367,1.8920897245407104,-5.615233898162842,-1.8499755859375,0.945068359375,-0.0528564453125
7.000,376,3147,3085,3147,1.0,27.0,18.0,-21.606443405151367,1.8920897245407104,-5.615233898162842,-1.9681396484375,0.0828857421875,0.103515625
7.014,371,3147,2807,3147,1.0,27.0,18.0,-56.091304779052734,13.732909202575684,-14.770506858825684,-1.8270263671875,-0.0887451171875,0.1285400390625
7.022,369,3147,2632,3147,1.0,27.0,18.0,-3.479003667831421,14.831542015075684,0.1220703050494194,-1.570556640625,0.0880126953125,0.0499267578125
7.031,364,3147,2486,3048,1.0,27.0,18.0,-3.479003667831421,14.831542015075684,0.1220703050494194,-1.3006591796875,0.1983642578125,-0.032470703125
7.051,356,3147,2151,2407,1.0,27.0,18.0,35.15625,9.21630859375,9.765625,-1.047607421875,0.2816162109375,-0.0977783203125
7.055,348,3147,1920,2012,1.0,27.0,18.0,33.14208984375,6.225585460662842,11.962889671325684,-0.7786865234375,0.3880615234375,-0.2032470703125
7.060,344,3147,1735,1678,1.0,27.0,18.0,33.14208984375,6.225585460662842,11.962889671325684,-0.545654296875,0.4910888671875,-0.286865234375
7.089,330,3147,1254,679,1.0,27.0,18.0,24.963376998901367,4.638671875,7.385253429412842,-0.4027099609375,0.55810546875,-0.2598876953125
7.096,323,2968,1004,343,0.0,32.0,22.0,11.047362327575684,4.7607421875,-4.57763671875,-0.36083984375,0.4923095703125,-0.2232666015625
7.116,316,2246,739,336,0.0,32.0,22.0,11.047362327575684,4.7607421875,-4.57763671875,-0.3695068359375,0.35400390625,-0.2513427734375
7.130,316,1109,684,328,0.0,32.0,22.0,-11.779784202575684,16.4794921875,-29.357908248901367,-0.395751953125,0.273681640625,-0.2489013671875
7.137,314,865,682,324,0.0,32.0,22.0,-16.845703125,20.01953125,-34.1796875,-0.4332275390625,0.2176513671875,-0.1407470703125
7.149,313,687,678,316,0.0,32.0,22.0,-16.845703125,20.01953125,-34.1796875,-0.5030517578125,0.1578369140625,0.04443359375
7.151,310,466,644,318,0.0,32.0,22.0,-37.9638671875,10.375975608825684,-40.161128997802734,-0.63623046875,0.1314697265625,0.18115234375
7.155,292,430,605,318,0.0,32.0,22.0,-41.198726654052734,4.94384765625,-40.161128997802734,-0.7574462890625,0.144775390625,0.1895751953125
7.159,309,382,630,315,0.0,32.0,22.0,-41.198726654052734,4.94384765625,-40.161128997802734,-0.8033447265625,0.184326171875,0.162353515625
7.164,306,431,589,316,0.0,32.0,22.0,-41.015621185302734,2.685546636581421,-22.216794967651367,-0.77734375,0.1944580078125,0.1668701171875
7.173,310,441,551,319,0.0,32.0,22.0,-39.0625,2.50244140625,-9.3994140625,-0.7359619140625,0.16748046875,0.154296875
7.180,308,493,497,316,3.0,28.0,19.0,-39.0625,2.50244140625,-9.3994140625,-0.7034912109375,0.1583251953125,0.1038818359375
7.194,306,526,497,318,3.0,28.0,19.0,-25.573728561401367,2.990722417831421,5.126952648162842,-0.6767578125,0.174072265625,0.0501708984375
7.221,306,513,483,318,3.0,28.0,19.0,-20.874021530151367,1.9531248807907104,5.615233898162842,-0.679443359375,0.1871337890625,0.0106201171875
7.222,306,533,507,317,3.0,28.0,19.0,-20.874021530151367,1.9531248807907104,5.615233898162842,-0.7001953125,0.2091064453125,-0.0142822265625
7.225,306,559,481,318,3.0,28.0,19.0,-15.563963890075684,-0.2441406100988388,0.1831054538488388,-0.72216796875,0.251708984375,-0.0194091796875
7.240,306,548,468,318,3.0,28.0,19.0,-15.563963890075684,-0.2441406100988388,0.1831054538488388,-0.7381591796875,0.2952880859375,-0.005126953125
7.240,306,559,482,313,3.0,28.0,19.0,-12.390135765075684,-0.9155272841453552,-1.4648436307907104,-0.7381591796875,0.2952880859375,-0.005126953125
7.259,306,576,518,316,3.0,28.0,19.0,-9.09423828125,-4.57763671875,2.13623046875,-0.7161865234375,0.281494140625,0.0013427734375
7.262,307,606,594,315,3.0,28.0,19.0,-9.09423828125,-4.57763671875,2.13623046875,-0.6781005859375,0.21435546875,-0.0263671875
7.270,309,721,625,318,3.0,28.0,19.0,-9.6435546875,-6.713866710662842,5.676269054412842,-0.6781005859375,0.21435546875,-0.0263671875
7.284,306,1294,644,324,2.0,28.0,14.0,-5.676269054412842,-12.817381858825684,9.46044921875,-0.4580078125,0.0076904296875,-0.111328125
7.293,310,1967,548,325,2.0,28.0,14.0,-5.676269054412842,-12.817381858825684,9.46044921875,-0.3946533203125,-0.002685546875,-0.086669921875
7.301,308,2486,588,324,2.0,28.0,14.0,3.051757574081421,-17.2119140625,8.9111328125,-0.3946533203125,-0.002685546875,-0.086669921875
7.334,313,3147,838,586,2.0,28.0,14.0,49.560543060302734,-31.188962936401367,16.41845703125,-0.39892578125,0.287109375,0.1337890625
7.343,318,3147,1000,1108,2.0,28.0,14.0,49.560543060302734,-31.188962936401367,16.41845703125,-0.1505126953125,0.23046875,0.2747802734375
7.343,330,3147,1382,1429,2.0,28.0,14.0,64.39208984375,-40.10009765625,23.925779342651367,-0.1505126953125,0.23046875,0.2747802734375
7.345,355,3147,2347,2311,2.0,28.0,14.0,30.395505905151367,-56.091304779052734,2.746581792831421,0.6602783203125,-0.227783203125,0.322265625
7.357,361,3147,2579,2790,2.0,28.0,14.0,30.395505905151367,-56.091304779052734,2.746581792831421,0.5689697265625,-0.0997314453125,0.2174072265625
7.361,370,3147,2737,3147,2.0,28.0,14.0,10.620116233825684,-53.955074310302734,-24.719236373901367,0.5689697265625,-0.0997314453125,0.2174072265625
7.374,376,3147,3140,3147,4.0,27.0,23.0,1.3427733182907104,-2.44140625,-49.194332122802734,-1.24169921875,1.189208984375,-0.14501953125
7.382,382,3147,3147,3147,4.0,27.0,23.0,1.3427733182907104,-2.44140625,-49.194332122802734,-2.1085205078125,1.5406494140625,-0.245361328125
7.390,465,3147,3147,3147,4.0,27.0,23.0,-27.404783248901367,23.010251998901367,-32.958984375,-2.1085205078125,1.5406494140625,-0.245361328125
7.425,605,3147,3147,3147,4.0,27.0,23.0,-92.28514862060547,28.503416061401367,14.526366233825684,-3.1614990234375,0.015869140625,-0.1861572265625
7.427,614,3147,3147,3147,4.0,27.0,23.0,-92.28514862060547,28.503416061401367,14.526366233825684,-3.548095703125,-0.4210205078125,-0.0614013671875
7.434,490,3147,3147,3147,4.0,27.0,23.0,-68.4814453125,16.78466796875,26.062009811401367,-3.548095703125,-0.4210205078125,-0.0614013671875
7.436,426,3147,3147,3147,4.0,27.0,23.0,59.265132904052734,-11.047362327575684,40.283199310302734,-1.7200927734375,0.133056640625,-0.50732421875
7.457,411,3147,3147,3147,4.0,27.0,23.0,59.265132904052734,-11.047362327575684,40.283199310302734,-0.66259765625,1.291259765625,-0.3172607421875
7.459,411,3147,3147,3147,4.0,27.0,23.0,114.13573455810547,-14.099120140075684,30.395505905151367,-0.66259765625,1.291259765625,-0.3172607421875
7.464,385,3147,3147,3147,4.0,27.0,23.0,107.17772674560547,-13.977049827575684,10.253905296325684,-1.5125732421875,1.3292236328125,0.05517578125
7.472,377,3147,3147,3147,5.0,30.0,20.0,17.2119140625,-3.906249761581421,-16.6015625,-1.5125732421875,1.3292236328125,0.05517578125
7.480,375,3147,3147,3147,5.0,30.0,20.0,-83.92333221435547,14.526366233825684,-35.888671875,-1.9697265625,0.306640625,0.095947265625
7.494,371,3147,2919,3147,5.0,30.0,20.0,-115.17333221435547,29.602048873901367,-31.555173873901367,-1.9698486328125,-0.2076416015625,0.138427734375
7.502,368,3147,2684,3147,5.0,30.0,20.0,-79.58984375,35.5224609375,-7.751464366912842,-1.9698486328125,-0.2076416015625,0.138427734375
7.527,360,3147,2450,3147,5.0,30.0,20.0,-26.733396530151367,33.447265625,16.54052734375,-1.713623046875,0.0030517578125,0.1068115234375
7.528,347,3147,2000,2818,5.0,30.0,20.0,5.554198741912842,26.794431686401367,26.550291061401367,-1.0457763671875,0.156494140625,-0.0477294921875
7.532,344,3147,1669,2333,5.0,30.0,20.0,18.6767578125,19.53125,22.155759811401367,-1.0457763671875,0.156494140625,-0.0477294921875
7.540,332,3147,1351,1786,5.0,30.0,20.0,28.930662155151367,15.136717796325684,12.329100608825684,-0.6781005859375,0.3804931640625,-0.1688232421875
7.571,318,3147,859,748,5.0,30.0,20.0,35.400390625,15.319823265075684,2.868652105331421,-0.19287109375,0.68798828125,-0.2862548828125
7.580,315,2692,735,333,5.0,30.0,20.0,31.738279342651367,17.578125,-5.432128429412842,-0.19287109375,0.68798828125,-0.2862548828125
7.586,316,2217,601,328,4.0,31.0,16.0,18.9208984375,19.34814453125,-13.305663108825684,-0.1923828125,0.697998046875,-0.2677001953125
7.589,308,1132,496,324,4.0,31.0,16.0,0.9155272841453552,22.583005905151367,-23.010251998901367,-0.359619140625,0.3968505859375,-0.3145751953125
7.598,308,1014,444,322,4.0,31.0,16.0,-16.05224609375,26.794431686401367,-33.75244140625,-0.359619140625,0.3968505859375,-0.3145751953125
7.601,304,725,455,316,4.0,31.0,16.0,-29.235837936401367,28.442380905151367,-42.663570404052734,-0.47314453125,0.2806396484375,-0.210693359375
7.630,306,462,411,316,4.0,31.0,16.0,-40.710445404052734,25.085447311401367,-49.255367279052734,-0.6844482421875,0.07275390625,0.0968017578125
7.631,304,382,354,316,4.0,31.0,16.0,-50.720211029052734,16.9677734375,-52.917476654052734,-0.6844482421875,0.07275390625,0.0968017578125
7.634,304,400,344,316,4.0,31.0,16.0,-55.236812591552734,8.1787109375,-51.513668060302734,-0.762451171875,0.05224609375,0.189697265625
7.647,305,447,391,316,4.0,31.0,16.0,-53.161617279052734,2.50244140625,-43.762203216552734,-0.79150390625,0.028564453125,0.2244873046875
7.652,304,441,403,318,4.0,31.0,16.0,-45.043941497802734,0.6103515625,-30.395505905151367,-0.79150390625,0.028564453125,0.2244873046875
7.670,300,501,409,317,4.0,31.0,16.0,-30.395505905151367,1.0986328125,-14.831542015075684,-0.788818359375,-0.01806640625,0.2138671875
7.679,304,467,426,316,8.0,26.0,20.0,-11.840819358825684,2.25830078125,-0.9155272841453552,-0.783203125,-0.0301513671875,0.189208984375
7.682,304,470,418,317,8.0,26.0,20.0,4.2724609375,3.112792730331421,9.6435546875,-0.771240234375,0.005615234375,0.1611328125
7.690,306,482,411,317,8.0,26.0,20.0,12.634276390075684,3.601073980331421,15.747069358825684,-0.7457275390625,0.0621337890625,0.1285400390625
7.704,304,465,382,318,8.0,26.0,20.0,12.390135765075684,3.601073980331421,16.66259765625,-0.6993408203125,0.1129150390625,0.0860595703125
7.712,304,464,371,318,8.0,26.0,20.0,6.835937023162842,3.112792730331421,13.549803733825684,-0.6578369140625,0.1702880859375,0.028076171875
7.731,305,512,371,316,8.0,26.0,20.0,0.6103515625,1.7700194120407104,9.33837890625,-0.6474609375,0.23828125,-0.0255126953125
7.734,302,584,364,316,8.0,26.0,20.0,-3.784179449081421,-0.6713866591453552,6.164550304412842,-0.6566162109375,0.287109375,-0.047607421875
7.742,304,593,348,316,8.0,26.0,20.0,-6.408690929412842,-3.601073980331421,4.638671875,-0.654296875,0.2939453125,-0.048828125
7.751,304,606,344,316,8.0,26.0,20.0,-7.690429210662842,-6.225585460662842,4.82177734375,-0.6312255859375,0.258544921875,-0.0594482421875
7.772,304,764,344,316,8.0,26.0,20.0,-7.751464366912842,-8.544921875,6.530761241912842,-0.5986328125,0.193115234375,-0.0775146484375
7.782,302,1483,328,324,5.0,29.0,16.0,-7.324218273162842,-10.803221702575684,10.009765625,-0.554931640625,0.1021728515625,-0.0782470703125
7.785,304,1952,321,330,5.0,29.0,16.0,-5.371093273162842,-13.488768577575684,14.099120140075684,-0.5462646484375,0.0318603515625,-0.068603515625
7.794,304,2395,321,324,5.0,29.0,16.0,5.0048828125,-17.27294921875,18.798828125,-0.6575927734375,0.091796875,-0.0546875
7.807,299,3147,324,332,5.0,29.0,16.0,24.841306686401367,-23.559568405151367,27.160642623901367,-0.732421875,0.2421875,-0.033203125
7.816,306,3147,388,788,5.0,29.0,16.0,39.61181640625,-32.65380859375,38.0859375,-0.5916748046875,0.2821044921875,0.0379638671875
7.834,310,3147,735,1330,5.0,29.0,16.0,40.954586029052734,-46.081539154052734,46.569820404052734,-0.3060302734375,0.11328125,0.2230224609375
7.836,338,3147,1801,1968,5.0,29.0,16.0,41.931148529052734,-63.659664154052734,49.133296966552734,0.0849609375,-0.228271484375,0.4503173828125
7.841,354,3147,2330,2359,5.0,29.0,16.0,52.307125091552734,-74.89013671875,35.888671875,0.451416015625,-0.469970703125,0.3067626953125
7.851,361,3147,2579,2888,5.0,29.0,16.0,49.621578216552734,-64.39208984375,5.920409679412842,0.39111328125,-0.1956787109375,-0.1595458984375
7.875,371,3147,2888,3147,5.0,29.0,16.0,21.728513717651367,-33.26416015625,-14.038084983825684,-0.2447509765625,0.3094482421875,-0.4547119140625
7.878,375,3147,3080,3147,7.0,31.0,23.0,-2.44140625,0.8544921278953552,-7.324218273162842,-1.155517578125,0.840087890625,-0.3848876953125
7.879,379,3147,3147,3147,7.0,31.0,23.0,-14.221190452575684,18.49365234375,17.822265625,-1.9830322265625,1.2919921875,-0.247802734375
7.893,473,3147,3147,3147,7.0,31.0,23.0,-23.193357467651367,13.671874046325684,51.147457122802734,-2.520751953125,1.3365478515625,-0.134033203125
7.901,523,3147,3147,3147,7.0,31.0,23.0,-14.282225608825684,-7.202147960662842,80.56639862060547,-2.7481689453125,1.040283203125,0.0963134765625
7.909,536,3147,3147,3147,7.0,31.0,23.0,9.33837890625,-28.259275436401367,86.91405487060547,-2.9053955078125,0.482421875,0.146728515625
7.935,427,3147,3147,3147,7.0,31.0,23.0,26.062009811401367,-31.921384811401367,70.80078125,-2.8345947265625,-0.0550537109375,-0.00537109375
7.936,411,3147,3147,3147,7.0,31.0,23.0,40.710445404052734,-21.118162155151367,54.687496185302734,-1.97998046875,-0.1427001953125,-0.1431884765625
7.939,400,3147,3147,3147,7.0,31.0,23.0,63.781734466552734,-11.108397483825684,43.640132904052734,-0.9207763671875,0.6328125,0.0035400390625
7.953,382,3147,3147,3147,7.0,31.0,23.0,79.58984375,-5.615233898162842,29.968259811401367,-0.794189453125,1.6268310546875,0.193603515625
7.968,378,3147,3147,3147,7.0,31.0,23.0,47.241207122802734,6.835937023162842,9.521484375,-1.359375,1.6495361328125,0.1317138671875
7.981,376,3147,3077,3147,2.0,30.0,22.0,-29.174802780151367,25.817869186401367,-13.549803733825684,-1.7572021484375,0.8897705078125,0.0875244140625
7.983,372,3147,2822,3147,2.0,30.0,22.0,-80.74950408935547,38.9404296875,-26.794431686401367,-1.8594970703125,0.2398681640625,0.107177734375
7.991,371,3147,2633,3147,2.0,30.0,22.0,-71.47216796875,44.433589935302734,-24.841306686401367,-1.8033447265625,0.0689697265625,0.058837890625
8.006,361,3147,2414,3147,2.0,30.0,22.0,-31.372068405151367,47.180171966552734,-16.78466796875,-1.6348876953125,0.18017578125,-0.04052734375
8.013,356,3147,2049,3053,2.0,30.0,22.0,-0.7324218153953552,48.522945404052734,-14.221190452575684,-1.388427734375,0.2908935546875,-0.1080322265625
8.033,346,3147,1789,2573,2.0,30.0,22.0,9.765625,46.569820404052734,-17.333984375,-1.102783203125,0.38427734375,-0.1370849609375
8.040,336,3147,1488,2087,2.0,30.0,22.0,9.765625,46.569820404052734,-17.333984375,-0.7880859375,0.4884033203125,-0.19921875
8.044,323,3147,936,1172,2.0,30.0,22.0,11.108397483825684,35.70556640625,-14.892577171325684,-0.494384765625,0.5006103515625,-0.3092041015625
8.051,318,3147,782,469,2.0,30.0,22.0,13.610838890075684,30.029294967651367,-12.084959983825684,-0.3138427734375,0.477294921875,-0.358154296875
8.059,314,2608,661,328,2.0,30.0,22.0,13.610838890075684,30.029294967651367,-12.084959983825684,-0.2369384765625,0.4600830078125,-0.3448486328125
8.078,308,1600,480,324,4.0,28.0,17.0,7.934569835662842,16.41845703125,-15.136717796325684,-0.2525634765625,0.3358154296875,-0.3463134765625
8.088,306,1222,472,321,4.0,28.0,17.0,1.15966796875,12.451170921325684,-21.789548873901367,-0.3468017578125,0.18798828125,-0.3138427734375
8.095,292,1103,380,321,4.0,28.0,17.0,1.15966796875,12.451170921325684,-21.789548873901367,-0.4453125,0.13916015625,-0.2142333984375
8.107,306,757,411,322,4.0,28.0,17.0,1.8310545682907104,10.437010765075684,-38.39111328125,-0.5262451171875,0.1600341796875,-0.0540771484375
8.123,304,479,316,316,4.0,28.0,17.0,-3.173827886581421,6.896972179412842,-46.691890716552734,-0.6397705078125,0.1923828125,0.1243896484375
8.142,304,521,317,321,4.0,28.0,17.0,-3.173827886581421,6.896972179412842,-46.691890716552734,-0.763671875,0.20068359375,0.2255859375
8.147,304,391,316,298,4.0,28.0,17.0,-11.840819358825684,6.835937023162842,-47.607418060302734,-0.814208984375,0.2044677734375,0.2286376953125
8.155,299,437,316,316,4.0,28.0,17.0,-6.958007335662842,12.939452171325684,-38.75732421875,-0.813720703125,0.215576171875,0.1820068359375
8.162,304,484,302,318,4.0,28.0,17.0,-6.958007335662842,12.939452171325684,-38.75732421875,-0.809326171875,0.2342529296875,0.1553955078125
8.180,291,479,329,298,4.0,29.0,25.0,8.97216796875,17.2119140625,-13.427733421325684,-0.7965087890625,0.247802734375,0.157958984375
8.193,304,487,331,315,4.0,29.0,25.0,9.33837890625,12.573241233825684,-2.563476324081421,-0.7801513671875,0.2132568359375,0.132568359375
8.195,306,430,328,301,4.0,29.0,25.0,9.33837890625,12.573241233825684,-2.563476324081421,-0.7669677734375,0.136962890625,0.078125
8.199,302,424,327,318,4.0,29.0,25.0,-3.540038824081421,6.530761241912842,7.141112804412842,-0.7550048828125,0.079345703125,0.0341796875
8.206,308,411,338,321,4.0,29.0,25.0,-8.056640625,5.737304210662842,8.1787109375,-0.7452392578125,0.083984375,0.0074462890625
8.214,305,439,336,318,4.0,29.0,25.0,-8.056640625,5.737304210662842,8.1787109375,-0.7376708984375,0.1500244140625,-0.0115966796875
8.247,300,518,348,316,4.0,29.0,25.0,-6.408690929412842,2.685546636581421,11.840819358825684,-0.7161865234375,0.2259521484375,-0.026611328125
8.262,304,519,360,316,4.0,29.0,25.0,-6.103515148162842,-0.3662109076976776,13.977049827575684,-0.6798095703125,0.261962890625,-0.042724609375
8.267,305,512,359,295,4.0,29.0,25.0,-6.103515148162842,-0.3662109076976776,13.977049827575684,-0.646728515625,0.2572021484375,-0.0670166015625
8.284,304,555,363,315,4.0,29.0,25.0,-5.371093273162842,-6.835937023162842,16.29638671875,-0.611083984375,0.219970703125,-0.093994140625
8.290,304,754,334,299,1.0,32.0,18.0,-2.929687261581421,-9.33837890625,18.12744140625,-0.5550537109375,0.15087890625,-0.1109619140625
8.304,304,1050,338,321,1.0,32.0,18.0,-2.929687261581421,-9.33837890625,18.12744140625,-0.4954833984375,0.102783203125,-0.105712890625
8.308,304,1463,323,324,1.0,32.0,18.0,3.723144292831421,-15.563963890075684,19.1650390625,-0.4945068359375,0.154296875,-0.063720703125
8.309,305,2024,330,325,1.0,32.0,18.0,14.953612327575684,-19.71435546875,19.59228515625,-0.6248779296875,0.3154296875,0.016845703125
8.312,307,2518,426,327,1.0,32.0,18.0,14.953612327575684,-19.71435546875,19.59228515625,-0.7247314453125,0.4010009765625,0.0714111328125
8.315,314,3147,764,497,1.0,32.0,18.0,44.128414154052734,-34.5458984375,30.334470748901367,-0.603515625,0.2510986328125,0.065185546875
8.322,323,3147,998,830,1.0,32.0,18.0,51.574703216552734,-43.701168060302734,33.99658203125,-0.257568359375,0.0062255859375,0.0567626953125
8.345,334,3147,1572,1398,1.0,32.0,18.0,51.574703216552734,-43.701168060302734,33.99658203125,0.1214599609375,-0.07177734375,0.1103515625
8.347,356,3147,2328,2293,1.0,32.0,18.0,40.405269622802734,-64.5751953125,2.929687261581421,0.243408203125,0.0916748046875,0.1922607421875
8.352,363,3147,2492,2807,1.0,32.0,18.0,26.000974655151367,-58.166500091552734,-26.245115280151367,0.0289306640625,0.35205078125,0.0499267578125
8.363,364,3147,2635,3147,3.0,31.0,22.0,26.000974655151367,-58.166500091552734,-26.245115280151367,0.0289306640625,0.35205078125,0.0499267578125
8.381,373,3147,2922,3147,3.0,31.0,22.0,1.2817381620407104,-1.8310545682907104,-54.016109466552734,-1.0372314453125,1.0035400390625,-0.1923828125
8.385,359,3147,3044,3147,3.0,31.0,22.0,1.2817381620407104,-1.8310545682907104,-54.016109466552734,-1.5970458984375,1.3753662109375,-0.3377685546875
8.390,376,3147,3115,3147,3.0,31.0,22.0,-8.7890625,9.82666015625,-42.297359466552734,-1.5970458984375,1.3753662109375,-0.3377685546875
8.408,378,3147,3147,3147,3.0,31.0,22.0,-15.502928733825684,0.9765624403953552,-15.502928733825684,-2.5836181640625,0.961669921875,-0.4661865234375
8.412,382,3147,3147,3147,3.0,31.0,22.0,-15.502928733825684,0.9765624403953552,-15.502928733825684,-2.947265625,0.04296875,-0.203369140625
8.420,375,3147,3147,3147,3.0,31.0,22.0,-23.437498092651367,-11.352538108825684,-14.160155296325684,-2.947265625,0.04296875,-0.203369140625
8.457,378,3147,3147,3147,3.0,31.0,22.0,-1.3427733182907104,-22.277830123901367,-16.17431640625,-2.165283203125,-0.6256103515625,0.011962890625
8.458,378,3147,3147,3147,3.0,31.0,22.0,-1.3427733182907104,-22.277830123901367,-16.17431640625,-1.082275390625,0.2613525390625,-0.019287109375
8.458,376,3147,3147,3147,3.0,31.0,22.0,49.377437591552734,-17.7001953125,-7.995604991912842,-1.082275390625,0.2613525390625,-0.019287109375
8.465,376,3147,3095,3147,3.0,28.0,24.0,36.19384765625,-2.0751953125,2.44140625,-1.468017578125,1.1734619140625,0.0294189453125
8.472,376,3147,3042,3147,3.0,28.0,24.0,36.19384765625,-2.0751953125,2.44140625,-1.888671875,0.3685302734375,0.1209716796875
8.486,372,3147,2935,3147,3.0,28.0,24.0,-41.259761810302734,8.23974609375,-5.249022960662842,-1.888671875,0.3685302734375,0.1209716796875
8.494,371,3147,2724,3147,3.0,28.0,24.0,-37.17041015625,20.874021530151367,-14.892577171325684,-1.838134765625,0.096923828125,0.1343994140625
8.502,364,3147,2559,2981,3.0,28.0,24.0,-37.17041015625,20.874021530151367,-14.892577171325684,-1.5953369140625,0.253173828125,0.0458984375
8.513,361,3147,2367,2724,3.0,28.0,24.0,-1.03759765625,24.047849655151367,-14.709471702575684,-1.5953369140625,0.253173828125,0.0458984375
8.524,349,3147,1905,2111,3.0,28.0,24.0,14.648436546325684,20.263669967651367,-5.737304210662842,-1.0087890625,0.281494140625,-0.063720703125
8.533,348,3147,1627,1640,3.0,28.0,24.0,14.648436546325684,20.263669967651367,-5.737304210662842,-0.742431640625,0.2664794921875,-0.1319580078125
8.550,334,3147,1331,1065,3.0,28.0,24.0,12.817381858825684,19.95849609375,2.197265625,-0.742431640625,0.2664794921875,-0.1319580078125
8.554,315,2492,837,338,3.0,28.0,20.0,10.314940452575684,26.062009811401367,8.48388671875,-0.43701171875,0.1966552734375,-0.27587890625
8.576,309,1996,617,328,3.0,28.0,20.0,10.314940452575684,26.062009811401367,8.48388671875,-0.3133544921875,0.2298583984375,-0.2991943359375
8.598,314,1424,537,323,3.0,28.0,20.0,10.437010765075684,27.343748092651367,4.39453125,-0.3133544921875,0.2298583984375,-0.2991943359375
8.605,312,887,479,327,3.0,28.0,20.0,11.718749046325684,26.672361373901367,-3.417968511581421,-0.2176513671875,0.2783203125,-0.32470703125
8.611,306,780,401,323,3.0,28.0,20.0,12.939452171325684,26.977537155151367,-13.977049827575684,-0.2176513671875,0.2783203125,-0.32470703125
8.621,305,567,383,318,3.0,28.0,20.0,3.723144292831421,25.207517623901367,-24.291990280151367,-0.3243408203125,0.3394775390625,-0.1732177734375
8.628,306,539,372,300,3.0,28.0,20.0,-20.202634811401367,18.6767578125,-30.456541061401367,-0.4962158203125,0.318359375,0.020751953125
8.634,304,470,316,313,3.0,28.0,20.0,-44.067378997802734,11.962889671325684,-30.334470748901367,-0.7515869140625,0.216552734375,0.143798828125
8.654,304,508,314,313,3.0,28.0,20.0,-55.480953216552734,8.11767578125,-23.010251998901367,-0.7515869140625,0.216552734375,0.143798828125
8.658,304,525,316,317,3.0,28.0,20.0,-55.297847747802734,5.432128429412842,-11.535643577575684,-0.764404296875,0.17822265625,0.1187744140625
8.663,304,539,315,323,2.0,30.0,25.0,-46.508785247802734,2.0751953125,-1.3427733182907104,-0.769775390625,0.073974609375,0.0972900390625
8.671,304,473,315,317,2.0,30.0,25.0,-30.090330123901367,-1.0986328125,5.859374523162842,-0.769775390625,0.073974609375,0.0972900390625
8.690,304,508,316,316,2.0,30.0,25.0,-10.498045921325684,-2.868652105331421,10.375975608825684,-0.7425537109375,0.071533203125,0.0760498046875
8.695,304,514,316,318,2.0,30.0,25.0,3.540038824081421,-3.295898199081421,11.840819358825684,-0.69140625,0.162841796875,0.054443359375
8.699,304,473,318,318,2.0,30.0,25.0,6.591796398162842,-3.051757574081421,10.070799827575684,-0.69140625,0.162841796875,0.054443359375
8.705,304,495,294,318,2.0,30.0,25.0,2.624511480331421,-2.50244140625,6.042479991912842,-0.7303466796875,0.215576171875,0.072509765625
8.718,304,594,327,318,2.0,30.0,25.0,0.4272460639476776,-2.13623046875,2.0751953125,-0.843505859375,0.31396484375,0.0616455078125
8.729,305,698,330,318,2.0,30.0,25.0,4.638671875,-3.051757574081421,0.4882812201976776,-0.843505859375,0.31396484375,0.0616455078125
8.737,287,816,323,319,2.0,30.0,25.0,11.413573265075684,-4.8828125,1.7700194120407104,-0.8411865234375,0.32861328125,0.013671875
