time,compression0,compression1,compression2,compression3,magn_x,magn_y,magn_z,gyro_x,gyro_y,gyro_z,accel_x,accel_y,accel_z
0.004,1714,1837,116,138,-12.0,37.0,43.0,-5.0048828125,-9.70458984375,-0.6713866591453552,-0.9041748046875,0.344970703125,-0.23291015625
0.032,1689,1819,124,135,-12.0,37.0,43.0,-5.065917491912842,-10.925292015075684,-0.4882812201976776,-0.9002685546875,0.343017578125,-0.234130859375
0.033,1613,1766,112,145,-13.0,39.0,33.0,-5.0048828125,-12.023924827575684,-0.2441406100988388,-0.8974609375,0.3447265625,-0.2322998046875
0.034,1682,1778,133,103,-13.0,39.0,33.0,-5.187987804412842,-13.122557640075684,-0.4882812201976776,-0.8916015625,0.34814453125,-0.2188720703125
0.042,1538,1703,112,196,-13.0,39.0,33.0,-4.8828125,-14.465331077575684,-1.3427733182907104,-0.8765869140625,0.362060546875,-0.2010498046875
0.105,1669,1775,136,145,-13.0,39.0,33.0,-3.295898199081421,-15.930174827575684,-2.563476324081421,-0.8658447265625,0.3798828125,-0.19873046875
0.106,1667,1777,136,143,-13.0,39.0,33.0,-0.7324218153953552,-17.333984375,-3.784179449081421,-0.866943359375,0.388427734375,-0.2132568359375
0.106,1656,1769,131,141,-13.0,39.0,33.0,-0.7324218153953552,-17.333984375,-3.784179449081421,-0.875244140625,0.3807373046875,-0.2288818359375
0.106,1662,1768,136,144,-13.0,39.0,33.0,2.685546636581421,-20.507810592651367,-4.5166015625,-0.884521484375,0.3509521484375,-0.223876953125
0.106,1658,1775,129,138,-13.0,39.0,33.0,2.38037109375,-21.911619186401367,-3.784179449081421,-0.886474609375,0.31787109375,-0.19775390625
0.106,1669,1775,134,139,-13.0,39.0,33.0,2.38037109375,-21.911619186401367,-3.784179449081421,-0.8851318359375,0.312744140625,-0.171630859375
0.132,1655,1750,136,141,-12.0,36.0,31.0,0.0,-22.094724655151367,-1.4648436307907104,-0.8865966796875,0.32568359375,-0.16015625
0.133,1667,1778,139,144,-12.0,36.0,31.0,-2.807616949081421,-20.996091842651367,-0.4272460639476776,-0.8895263671875,0.33642578125,-0.1695556640625
0.134,1716,1769,141,154,-12.0,36.0,31.0,-2.807616949081421,-20.996091842651367,-0.4272460639476776,-0.89013671875,0.34228515625,-0.1888427734375
0.146,1656,1745,154,159,-12.0,36.0,31.0,-8.9111328125,-18.6767578125,1.8920897245407104,-0.89013671875,0.344970703125,-0.1993408203125
0.154,1635,1724,181,184,-12.0,36.0,31.0,-11.169432640075684,-18.61572265625,3.784179449081421,-0.889892578125,0.34521484375,-0.1939697265625
0.170,1655,1714,196,199,-12.0,36.0,31.0,-11.169432640075684,-18.61572265625,3.784179449081421,-0.8861083984375,0.3350830078125,-0.1766357421875
0.176,1635,1695,218,229,-12.0,36.0,31.0,-11.901854515075684,-20.141599655151367,9.09423828125,-0.8768310546875,0.3057861328125,-0.1551513671875
0.189,1622,1689,223,236,-12.0,36.0,31.0,-10.314940452575684,-21.240232467651367,12.207030296325684,-0.8619384765625,0.2791748046875,-0.142333984375
0.192,1632,1709,253,263,-12.0,36.0,31.0,-10.314940452575684,-21.240232467651367,12.207030296325684,-0.849853515625,0.28369140625,-0.149169921875
0.206,1735,1807,299,314,-12.0,36.0,31.0,-7.629394054412842,-22.827146530151367,19.71435546875,-0.85302734375,0.317626953125,-0.1705322265625
0.214,1725,1798,319,330,-13.0,37.0,35.0,-10.253905296325684,-22.094724655151367,25.695798873901367,-0.874267578125,0.34619140625,-0.1937255859375
0.234,1723,1798,351,359,-13.0,37.0,35.0,-10.253905296325684,-22.094724655151367,25.695798873901367,-0.9012451171875,0.3397216796875,-0.2000732421875
0.236,1673,1738,391,417,-13.0,37.0,35.0,-29.846189498901367,-14.587401390075684,44.616695404052734,-0.9156494140625,0.3123779296875,-0.183349609375
0.244,1748,1847,431,452,-13.0,37.0,35.0,-43.579097747802734,-8.4228515625,57.312007904052734,-0.90087890625,0.2607421875,-0.1387939453125
0.252,1905,2034,465,493,-13.0,37.0,35.0,-43.579097747802734,-8.4228515625,57.312007904052734,-0.8363037109375,0.1685791015625,-0.00830078125
0.273,2333,2402,425,465,-13.0,37.0,35.0,-62.255855560302734,0.0610351525247097,75.0732421875,-0.6302490234375,0.0689697265625,0.1939697265625
0.274,2580,2720,475,441,-13.0,37.0,35.0,-46.630855560302734,-0.9765624403953552,70.73974609375,-0.2757568359375,-0.0123291015625,0.30078125
0.282,2750,2837,605,687,-13.0,37.0,35.0,-46.630855560302734,-0.9765624403953552,70.73974609375,0.146728515625,-0.009033203125,0.24560546875
0.301,2825,3176,584,1192,-13.0,37.0,35.0,22.033689498901367,-27.709959030151367,28.625486373901367,0.5528564453125,0.216796875,0.142578125
0.304,2268,3176,671,1669,-13.0,37.0,35.0,45.532222747802734,-52.124019622802734,-10.498045921325684,0.7999267578125,0.734130859375,0.010498046875
0.313,3176,3176,1848,2247,-14.0,34.0,37.0,45.532222747802734,-52.124019622802734,-10.498045921325684,0.6893310546875,1.1427001953125,-0.2103271484375
0.337,574,3176,0,2823,-14.0,34.0,37.0,1.5869139432907104,-62.133785247802734,-102.11180877685547,0.14111328125,1.182861328125,-0.4349365234375
0.337,555,3176,0,3176,-14.0,34.0,37.0,-47.729488372802734,-47.668453216552734,-126.52587127685547,-0.666748046875,1.2080078125,-0.563720703125
0.342,558,3176,6,3176,-14.0,34.0,37.0,-47.729488372802734,-47.668453216552734,-126.52587127685547,-1.5811767578125,1.138427734375,-0.4139404296875
0.356,569,3176,7,3176,-14.0,34.0,37.0,-116.51610565185547,-51.696773529052734,-115.72264862060547,-2.4927978515625,0.3514404296875,0.035888671875
0.374,575,3176,6,3176,-14.0,34.0,37.0,-107.11669158935547,-61.767574310302734,-95.64208221435547,-3.0244140625,-0.5743408203125,0.3052978515625
0.375,586,3176,1,3176,-14.0,34.0,37.0,-107.11669158935547,-61.767574310302734,-95.64208221435547,-3.0,-0.4364013671875,0.095458984375
0.386,572,3176,3176,3176,-14.0,34.0,37.0,-1.4038084745407104,-46.264644622802734,-33.935546875,-2.5689697265625,0.1705322265625,-0.237060546875
0.394,574,3176,3176,3176,-14.0,34.0,37.0,23.132322311401367,-35.09521484375,-15.136717796325684,-1.701904296875,0.305908203125,-0.24609375
0.402,643,3176,1097,3176,-14.0,34.0,37.0,23.132322311401367,-35.09521484375,-15.136717796325684,-0.86474609375,0.4100341796875,-0.0325927734375
0.425,3176,3176,3176,3176,-8.0,30.0,35.0,16.9677734375,-16.7236328125,-29.968259811401367,-0.65625,0.6400146484375,0.0439453125
0.425,3176,3176,3176,3176,-8.0,30.0,35.0,6.958007335662842,-4.0283203125,-48.706050872802734,-0.9864501953125,0.7099609375,-0.016357421875
0.442,3176,3176,1929,3176,-8.0,30.0,35.0,6.958007335662842,-4.0283203125,-48.706050872802734,-1.5296630859375,0.69189453125,-0.029541015625
0.446,643,3176,1430,3176,-8.0,30.0,35.0,-8.85009765625,5.554198741912842,-52.429195404052734,-1.9056396484375,0.5391845703125,0.018798828125
0.454,3176,3176,878,3176,-8.0,30.0,35.0,-10.314940452575684,3.051757574081421,-39.00146484375,-1.900146484375,0.3651123046875,0.0736083984375
0.463,3176,3176,2797,3176,-8.0,30.0,35.0,-10.314940452575684,3.051757574081421,-39.00146484375,-1.634765625,0.3460693359375,0.0802001953125
0.476,3176,3176,2142,2611,-8.0,30.0,35.0,-0.7324218153953552,5.615233898162842,-10.864256858825684,-1.3115234375,0.443115234375,0.0230712890625
0.484,3176,3176,1540,2179,-8.0,30.0,35.0,-1.2817381620407104,13.549803733825684,-4.7607421875,-1.046142578125,0.431396484375,-0.0062255859375
0.492,3176,3176,871,1724,-8.0,30.0,35.0,-1.2817381620407104,13.549803733825684,-4.7607421875,-0.8665771484375,0.208984375,0.05615234375
0.506,3055,3176,372,854,-8.0,30.0,35.0,-7.812499523162842,31.005857467651367,-0.9155272841453552,-0.7584228515625,-0.015625,0.1473388671875
0.514,2904,2985,698,767,-8.0,33.0,40.0,-6.042479991912842,35.888671875,2.13623046875,-0.7003173828125,-0.1861572265625,0.20849609375
0.542,2704,2784,643,689,-8.0,33.0,40.0,-6.042479991912842,35.888671875,2.13623046875,-0.6998291015625,-0.284423828125,0.169921875
0.542,2354,2403,490,506,-8.0,33.0,40.0,3.723144292831421,43.945308685302734,10.253905296325684,-0.72802734375,-0.2423095703125,0.0360107421875
0.544,2072,2117,439,465,-8.0,33.0,40.0,9.09423828125,46.386714935302734,17.4560546875,-0.6885986328125,-0.0968017578125,-0.06201171875
0.552,1755,1838,416,455,-8.0,33.0,40.0,9.09423828125,46.386714935302734,17.4560546875,-0.6885986328125,-0.0968017578125,-0.06201171875
0.570,1440,1449,438,449,-8.0,33.0,40.0,-0.7324218153953552,41.198726654052734,32.77587890625,-0.4573974609375,0.0677490234375,-0.01904296875
0.580,1328,1344,435,453,-8.0,33.0,40.0,-0.7324218153953552,41.198726654052734,32.77587890625,-0.4381103515625,0.02880859375,0.00244140625
0.582,1275,1276,464,473,-8.0,33.0,40.0,-12.939452171325684,39.97802734375,35.94970703125,-0.4381103515625,0.02880859375,0.00244140625
0.596,1248,1262,454,467,-8.0,33.0,40.0,-21.789548873901367,38.14697265625,37.17041015625,-0.5343017578125,0.155029296875,-0.0570068359375
0.604,1191,1198,439,454,-8.0,33.0,40.0,-21.789548873901367,38.14697265625,37.17041015625,-0.5833740234375,0.3323974609375,-0.0924072265625
0.612,1133,1157,428,435,-8.0,35.0,36.0,-16.357421875,34.3017578125,36.62109375,-0.5833740234375,0.3323974609375,-0.0924072265625
0.651,1160,1185,402,404,-8.0,35.0,36.0,0.4882812201976776,25.634763717651367,36.31591796875,-0.5908203125,0.6751708984375,-0.107666015625
0.651,1196,1236,369,381,-8.0,35.0,36.0,0.4882812201976776,25.634763717651367,36.31591796875,-0.6343994140625,0.78369140625,-0.0933837890625
0.651,1204,1234,365,369,-8.0,35.0,36.0,1.15966796875,25.939939498901367,37.841796875,-0.6343994140625,0.78369140625,-0.0933837890625
0.656,1231,1266,370,372,-8.0,35.0,36.0,-20.568845748901367,26.245115280151367,30.151365280151367,-0.8082275390625,0.450927734375,-0.120849609375
0.664,1239,1279,379,382,-8.0,35.0,36.0,-20.568845748901367,26.245115280151367,30.151365280151367,-0.90576171875,0.2803955078125,-0.1632080078125
0.682,1257,1292,361,369,-8.0,35.0,36.0,-24.902341842651367,24.414060592651367,23.193357467651367,-0.90576171875,0.2803955078125,-0.1632080078125
0.686,1201,1228,372,377,-8.0,35.0,36.0,-6.652831554412842,18.85986328125,25.268552780151367,-0.984375,0.2779541015625,-0.1953125
0.694,1151,1199,351,379,-8.0,35.0,36.0,-6.652831554412842,18.85986328125,25.268552780151367,-0.9647216796875,0.31640625,-0.187255859375
0.702,1178,1199,402,420,-8.0,35.0,36.0,-0.6713866591453552,17.51708984375,32.3486328125,-0.9647216796875,0.31640625,-0.187255859375
0.716,1220,1267,401,405,-8.0,37.0,32.0,-17.88330078125,21.240232467651367,50.109859466552734,-0.865966796875,0.1839599609375,-0.1732177734375
0.724,1387,1447,372,393,-8.0,37.0,32.0,-17.88330078125,21.240232467651367,50.109859466552734,-0.79296875,0.0777587890625,-0.088623046875
0.754,1670,1785,354,386,-8.0,37.0,32.0,-40.222164154052734,26.855466842651367,62.561031341552734,-0.79296875,0.0777587890625,-0.088623046875
0.754,2047,2203,476,497,-8.0,37.0,32.0,-58.776851654052734,25.512693405151367,78.30810546875,-0.447265625,-0.0166015625,0.294189453125
0.755,1946,2621,435,645,-8.0,37.0,32.0,-58.776851654052734,25.512693405151367,78.30810546875,-0.0662841796875,-0.080810546875,0.5513916015625
0.762,3170,3176,766,818,-8.0,37.0,32.0,-26.062009811401367,7.141112804412842,62.316890716552734,-0.0662841796875,-0.080810546875,0.5513916015625
0.783,1424,3176,0,2005,-8.0,37.0,32.0,104.85839080810547,-58.776851654052734,-30.578611373901367,1.4263916015625,0.4375,0.404296875
0.784,2913,3176,0,2683,-8.0,37.0,32.0,104.85839080810547,-58.776851654052734,-30.578611373901367,1.5430908203125,0.5660400390625,-0.29345703125
0.792,3176,3176,0,3159,-8.0,37.0,32.0,119.07958221435547,-87.58544158935547,-87.34130096435547,1.5430908203125,0.5660400390625,-0.29345703125
0.807,562,3176,7,3176,-9.0,34.0,36.0,37.841796875,-82.03124237060547,-122.31444549560547,-0.91796875,1.447265625,-1.398681640625
0.814,547,3176,17,3176,-9.0,34.0,36.0,37.841796875,-82.03124237060547,-122.31444549560547,-2.2457275390625,2.088623046875,-1.2908935546875
0.822,570,3176,7,3176,-9.0,34.0,36.0,-4.8828125,-68.78662109375,-106.87255096435547,-2.2457275390625,2.088623046875,-1.2908935546875
0.850,586,3176,2,3176,-9.0,34.0,36.0,-92.89550018310547,-74.40185546875,-91.91893768310547,-3.6165771484375,-0.365478515625,0.5584716796875
0.850,586,3176,2,3176,-9.0,34.0,36.0,-92.89550018310547,-74.40185546875,-91.91893768310547,-3.5321044921875,-0.92333984375,0.8348388671875
0.852,586,3176,9,3176,-9.0,34.0,36.0,-72.44873046875,-71.1669921875,-86.66991424560547,-3.5321044921875,-0.92333984375,0.8348388671875
0.866,571,3176,2530,3176,-9.0,34.0,36.0,43.579097747802734,-37.7197265625,-50.598140716552734,-1.428466796875,0.19775390625,0.0008544921875
0.877,3176,3176,571,3176,-9.0,34.0,36.0,43.579097747802734,-37.7197265625,-50.598140716552734,-0.818359375,1.0364990234375,-0.0550537109375
0.886,689,3176,1656,3176,-9.0,34.0,36.0,59.082027435302734,-15.258788108825684,-44.677730560302734,-0.818359375,1.0364990234375,-0.0550537109375
0.896,3176,3176,1456,3176,-9.0,34.0,36.0,4.45556640625,22.460935592651367,-66.71142578125,-2.1361083984375,0.5098876953125,-0.0804443359375
0.904,3176,3176,423,3176,-7.0,34.0,35.0,4.45556640625,22.460935592651367,-66.71142578125,-2.2919921875,0.1468505859375,-0.0054931640625
0.912,3176,3176,2421,3176,-7.0,34.0,35.0,-10.620116233825684,26.306150436401367,-54.870601654052734,-2.2919921875,0.1468505859375,-0.0054931640625
0.926,3176,3176,2291,2713,-7.0,34.0,35.0,-9.1552734375,33.26416015625,0.9765624403953552,-1.5867919921875,0.3807373046875,-0.079833984375
0.954,3176,3176,1719,1996,-7.0,34.0,35.0,-9.1552734375,33.26416015625,0.9765624403953552,-1.2203369140625,0.357421875,-0.137939453125
0.954,3176,3176,1017,1182,-7.0,34.0,35.0,-16.66259765625,43.151851654052734,21.850584030151367,-1.2203369140625,0.357421875,-0.137939453125
0.956,2804,2881,521,552,-7.0,34.0,35.0,-25.024412155151367,56.640621185302734,39.73388671875,-0.661376953125,-0.1495361328125,0.03955078125
0.964,2280,2404,393,424,-7.0,34.0,35.0,-25.024412155151367,56.640621185302734,39.73388671875,-0.4501953125,-0.389404296875,0.123291015625
0.991,1883,2012,368,410,-7.0,34.0,35.0,-21.667478561401367,58.044429779052734,39.48974609375,-0.4501953125,-0.389404296875,0.123291015625
0.992,1156,1215,305,379,-7.0,34.0,35.0,-20.690916061401367,55.664058685302734,12.573241233825684,-0.0555419921875,-0.4000244140625,0.127685546875
0.994,1125,1155,309,324,-7.0,34.0,35.0,-20.690916061401367,55.664058685302734,12.573241233825684,0.014892578125,-0.1192626953125,0.2191162109375
1.002,1076,1091,224,239,-6.0,36.0,35.0,-27.099607467651367,48.828121185302734,-2.197265625,0.014892578125,-0.1192626953125,0.2191162109375
1.016,889,907,207,205,-6.0,36.0,35.0,-23.803709030151367,32.89794921875,-14.160155296325684,-0.193115234375,0.3260498046875,0.006591796875
1.024,918,932,180,182,-6.0,36.0,35.0,-23.803709030151367,32.89794921875,-14.160155296325684,-0.2818603515625,0.3626708984375,-0.177978515625
1.032,996,1024,166,165,-6.0,36.0,35.0,-19.775390625,27.038572311401367,-17.822265625,-0.2818603515625,0.3626708984375,-0.177978515625
1.057,1021,1043,157,154,-6.0,36.0,35.0,-16.17431640625,24.536130905151367,-10.314940452575684,-0.595947265625,0.5458984375,-0.2308349609375
1.057,1034,1062,153,158,-6.0,36.0,35.0,-8.11767578125,26.428220748901367,13.366698265075684,-0.595947265625,0.5458984375,-0.2308349609375
1.062,1064,1094,139,143,-6.0,36.0,35.0,-4.94384765625,26.428220748901367,39.4287109375,-0.73388671875,0.5604248046875,-0.1705322265625
1.076,1145,1194,76,76,-6.0,36.0,35.0,-15.563963890075684,22.583005905151367,48.339839935302734,-0.8878173828125,0.111083984375,-0.17578125
1.097,1185,1237,92,92,-6.0,36.0,35.0,-26.794431686401367,18.9208984375,40.344234466552734,-0.8878173828125,0.111083984375,-0.17578125
1.098,1201,1267,127,134,-6.0,36.0,35.0,-24.230955123901367,15.869139671325684,30.090330123901367,-0.9697265625,0.1417236328125,-0.202392578125
1.106,1206,1251,169,185,-6.0,37.0,30.0,-8.7890625,12.023924827575684,26.000974655151367,-1.064697265625,0.4678955078125,-0.2073974609375
1.114,1178,1213,158,160,-6.0,37.0,30.0,9.1552734375,7.629394054412842,27.709959030151367,-1.064697265625,0.4678955078125,-0.2073974609375
1.122,1091,1133,159,168,-6.0,37.0,30.0,19.47021484375,2.685546636581421,31.860349655151367,-1.0479736328125,0.4625244140625,-0.169921875
1.136,1129,1167,173,179,-6.0,37.0,30.0,19.775390625,-2.38037109375,35.888671875,-0.928955078125,0.191650390625,-0.1160888671875
1.176,1131,1173,174,173,-6.0,37.0,30.0,15.136717796325684,-5.737304210662842,40.893550872802734,-0.928955078125,0.191650390625,-0.1160888671875
1.177,1145,1188,183,172,-6.0,37.0,30.0,8.60595703125,-7.751464366912842,47.607418060302734,-0.874755859375,0.10986328125,-0.1444091796875
1.177,1234,1262,210,215,-6.0,37.0,30.0,1.7700194120407104,-9.33837890625,55.908199310302734,-0.76953125,0.10888671875,-0.2327880859375
1.177,1334,1385,193,193,-6.0,37.0,30.0,-3.051757574081421,-9.33837890625,66.650390625,-0.76953125,0.10888671875,-0.2327880859375
1.194,1531,1620,145,151,-6.0,37.0,30.0,-9.27734375,-6.225585460662842,77.63671875,-0.6593017578125,0.18505859375,-0.1923828125
1.203,2074,2178,197,210,-10.0,36.0,33.0,-22.033689498901367,-1.9531248807907104,81.54296112060547,-0.41943359375,0.4105224609375,0.1982421875
1.204,2491,2565,391,399,-10.0,36.0,33.0,-36.19384765625,-2.25830078125,72.08251953125,-0.41943359375,0.4105224609375,0.1982421875
1.212,3039,3067,627,707,-10.0,36.0,33.0,-31.188962936401367,-14.526366233825684,51.818843841552734,-0.18359375,0.3839111328125,0.520263671875
1.226,570,3176,0,1412,-10.0,36.0,33.0,13.793944358825684,-44.677730560302734,20.812986373901367,1.2861328125,-0.105712890625,0.4364013671875
1.234,590,3176,379,2116,-10.0,36.0,33.0,88.43993377685547,-85.93749237060547,-27.648923873901367,1.2861328125,-0.105712890625,0.4364013671875
1.257,574,3176,0,2800,-10.0,36.0,33.0,136.23046875,-111.45018768310547,-84.10643768310547,1.474609375,0.1434326171875,-0.1097412109375
1.258,572,3176,0,3176,-10.0,36.0,33.0,115.66161346435547,-103.57665252685547,-123.59618377685547,-0.796630859375,1.1102294921875,-1.2093505859375
1.270,631,3176,0,3176,-10.0,36.0,33.0,51.513668060302734,-77.81982421875,-133.60595703125,-0.796630859375,1.1102294921875,-1.2093505859375
1.272,3176,3176,2607,3176,-10.0,36.0,33.0,-17.2119140625,-64.27001953125,-122.98583221435547,-2.0250244140625,2.24853515625,-1.248046875
1.295,636,3176,0,3176,-10.0,36.0,33.0,-80.68846893310547,-71.77734375,-109.37499237060547,-3.3494873046875,0.2982177734375,0.6571044921875
1.295,638,3176,3176,3176,-8.0,32.0,41.0,-123.10790252685547,-80.93260955810547,-103.45458221435547,-3.3494873046875,0.2982177734375,0.6571044921875
1.302,3176,3176,3176,3176,-8.0,32.0,41.0,-103.57665252685547,-74.3408203125,-98.69384002685547,-3.5882568359375,-1.46728515625,1.2706298828125
1.316,654,3176,0,3176,-8.0,32.0,41.0,-23.071287155151367,-56.091304779052734,-80.99364471435547,-1.84716796875,-0.4322509765625,-0.0736083984375
1.324,636,3176,0,3176,-8.0,32.0,41.0,58.166500091552734,-34.24072265625,-56.213375091552734,-1.84716796875,-0.4322509765625,-0.0736083984375
1.332,3176,3176,1456,3176,-8.0,32.0,41.0,88.62303924560547,-13.854979515075684,-43.029781341552734,-0.93505859375,0.8509521484375,-0.465576171875
1.360,3176,3176,167,3176,-8.0,32.0,41.0,61.035152435302734,2.01416015625,-47.546382904052734,-2.135498046875,0.679931640625,-0.14111328125
1.360,632,3176,2419,3176,-8.0,32.0,41.0,11.779784202575684,11.840819358825684,-55.847164154052734,-2.135498046875,0.679931640625,-0.14111328125
1.362,3176,3176,3176,3176,-8.0,32.0,41.0,-16.6015625,12.695311546325684,-48.339839935302734,-2.4105224609375,0.2322998046875,0.05615234375
1.377,636,3176,2135,2973,-8.0,32.0,41.0,-17.88330078125,11.230467796325684,-26.550291061401367,-1.6234130859375,0.2935791015625,0.0645751953125
1.390,634,3176,1427,2168,-8.0,32.0,41.0,-13.671874046325684,15.624999046325684,-2.746581792831421,-1.6234130859375,0.2935791015625,0.0645751953125
1.399,636,3176,0,1464,-4.0,35.0,37.0,-15.686034202575684,24.780271530151367,15.441893577575684,-1.1842041015625,0.3028564453125,0.0037841796875
1.406,642,2626,0,712,-4.0,35.0,37.0,-19.71435546875,32.53173828125,25.024412155151367,-0.6236572265625,0.00390625,0.033203125
1.415,780,2637,451,516,-4.0,35.0,37.0,-19.71435546875,36.68212890625,26.123044967651367,-0.6236572265625,0.00390625,0.033203125
1.428,1939,2275,195,331,-4.0,35.0,37.0,-16.41845703125,38.818359375,21.362302780151367,-0.418701171875,-0.2218017578125,0.1248779296875
1.436,1523,1617,184,201,-4.0,35.0,37.0,-12.756346702575684,43.395992279052734,14.160155296325684,-0.230224609375,-0.3646240234375,0.08056640625
1.444,1328,1387,191,192,-4.0,35.0,37.0,-10.131834983825684,50.415035247802734,8.36181640625,-0.230224609375,-0.3646240234375,0.08056640625
1.462,1231,1245,222,231,-4.0,35.0,37.0,-13.854979515075684,51.391597747802734,8.1787109375,-0.1312255859375,-0.21337890625,0.1124267578125
1.466,1159,1206,187,195,-4.0,35.0,37.0,-23.864744186401367,45.654293060302734,12.756346702575684,-0.1676025390625,-0.0501708984375,0.1710205078125
1.474,1101,1125,139,141,-4.0,35.0,37.0,-31.555173873901367,40.283199310302734,17.02880859375,-0.1676025390625,-0.0501708984375,0.1710205078125
1.483,1029,1071,94,105,-4.0,35.0,37.0,-30.639646530151367,36.80419921875,20.996091842651367,-0.36083984375,0.084716796875,0.131103515625
1.501,1087,1122,92,91,-4.0,33.0,37.0,-21.301267623901367,34.24072265625,25.817869186401367,-0.565185546875,0.293212890625,-0.1275634765625
1.505,1139,1182,86,88,-4.0,33.0,37.0,-10.253905296325684,33.99658203125,31.799314498901367,-0.565185546875,0.293212890625,-0.1275634765625
1.512,1191,1245,81,80,-4.0,33.0,37.0,-3.234863042831421,35.82763671875,39.97802734375,-0.637451171875,0.4930419921875,-0.1861572265625
1.526,1308,1367,83,86,-4.0,33.0,37.0,-5.798339366912842,35.7666015625,46.997066497802734,-0.725341796875,0.6466064453125,-0.1605224609375
1.542,1348,1412,76,80,-4.0,33.0,37.0,-20.996091842651367,33.50830078125,45.349117279052734,-0.804443359375,0.5882568359375,-0.1485595703125
1.543,1400,1473,78,81,-4.0,33.0,37.0,-37.41455078125,31.677244186401367,33.935546875,-0.8795166015625,0.463134765625,-0.189453125
1.569,1456,1531,139,145,-4.0,33.0,37.0,-43.029781341552734,29.541013717651367,20.141599655151367,-0.9429931640625,0.3763427734375,-0.2359619140625
1.569,1512,1551,159,168,-4.0,33.0,37.0,-35.46142578125,25.695798873901367,12.145995140075684,-0.99853515625,0.33251953125,-0.2479248046875
1.573,1492,1566,164,172,-4.0,33.0,37.0,-21.118162155151367,20.751951217651367,12.756346702575684,-1.0399169921875,0.3392333984375,-0.2294921875
1.592,1499,1575,183,183,-3.0,34.0,32.0,-11.291502952575684,16.2353515625,18.310546875,-1.05810546875,0.325927734375,-0.1741943359375
1.603,1504,1579,200,205,-3.0,34.0,32.0,-11.047362327575684,13.549803733825684,24.108884811401367,-1.0574951171875,0.243408203125,-0.0762939453125
1.604,1501,1573,226,241,-3.0,34.0,32.0,-14.282225608825684,13.122557640075684,28.869626998901367,-1.044189453125,0.13232421875,0.0174560546875
1.616,1486,1550,286,298,-3.0,34.0,32.0,-9.521484375,13.671874046325684,34.0576171875,-1.0145263671875,0.0745849609375,0.0595703125
1.624,1453,1512,334,339,-3.0,34.0,32.0,5.249022960662842,12.817381858825684,40.710445404052734,-0.9732666015625,0.1044921875,0.070068359375
1.632,1454,1521,420,432,-3.0,34.0,32.0,22.949216842651367,10.192870140075684,47.729488372802734,-0.9202880859375,0.165283203125,0.07763671875
1.646,1534,1588,562,577,-3.0,34.0,32.0,38.75732421875,8.48388671875,54.687496185302734,-0.81494140625,0.19677734375,0.0498046875
1.667,1602,1681,582,600,-3.0,34.0,32.0,47.546382904052734,10.681151390075684,61.828609466552734,-0.633056640625,0.15625,-0.0316162109375
1.668,1742,1800,582,609,-3.0,34.0,32.0,40.649410247802734,17.02880859375,67.68798828125,-0.434326171875,0.12744140625,-0.093505859375
1.676,2126,2249,780,823,-3.0,34.0,32.0,18.310546875,22.216794967651367,67.44384765625,-0.3153076171875,0.182861328125,-0.10986328125
1.684,2782,2965,936,1012,-8.0,37.0,33.0,0.30517578125,16.41845703125,53.344722747802734,-0.2440185546875,0.2464599609375,-0.0970458984375
1.707,3176,3176,1153,1309,-8.0,37.0,33.0,4.8828125,-6.164550304412842,23.315427780151367,-0.0972900390625,0.3536376953125,-0.05322265625
1.707,3176,3176,0,2096,-8.0,37.0,33.0,27.587888717651367,-42.602535247802734,-14.099120140075684,0.2703857421875,0.4742431640625,-0.0296630859375
1.715,2477,3176,0,2450,-8.0,37.0,33.0,44.860836029052734,-79.1015625,-48.217769622802734,0.6553955078125,0.5911865234375,-0.186767578125
1.722,620,3176,416,3008,-8.0,37.0,33.0,30.944822311401367,-99.12108612060547,-72.44873046875,0.5843505859375,0.4990234375,-0.5633544921875
1.736,2432,3176,2864,3176,-8.0,37.0,33.0,-0.54931640625,-99.12108612060547,-81.11571502685547,0.000244140625,0.3297119140625,-0.8348388671875
1.744,547,3176,5,3176,-8.0,37.0,33.0,-15.991209983825684,-89.78270721435547,-73.18115234375,-0.7994384765625,0.5439453125,-0.674072265625
1.752,547,3176,20,3176,-8.0,37.0,33.0,-13.366698265075684,-82.76366424560547,-62.866207122802734,-1.4747314453125,1.078857421875,-0.266845703125
1.771,636,3176,0,3176,-8.0,37.0,33.0,-8.30078125,-77.81982421875,-62.072750091552734,-2.10302734375,1.5283203125,0.1151123046875
1.774,636,3176,0,3176,-8.0,37.0,33.0,-16.845703125,-70.73974609375,-70.9228515625,-2.864501953125,0.80029296875,0.5313720703125
1.782,636,3176,0,3176,-6.0,34.0,40.0,-23.864744186401367,-59.082027435302734,-84.59471893310547,-3.32861328125,-0.3905029296875,0.717041015625
1.811,570,3176,4,3176,-6.0,34.0,40.0,-1.03759765625,-45.898433685302734,-86.05956268310547,-3.0712890625,-0.7191162109375,0.3916015625
1.812,3176,3176,3176,3176,-6.0,34.0,40.0,40.466304779052734,-34.5458984375,-68.4814453125,-2.0185546875,-0.34521484375,-0.1090087890625
1.813,3176,3176,3176,3176,-6.0,34.0,40.0,66.34521484375,-22.521970748901367,-47.790523529052734,-1.1683349609375,0.68505859375,-0.2681884765625
1.821,3176,3176,3110,3176,-6.0,34.0,40.0,53.588863372802734,-6.652831554412842,-45.471187591552734,-1.4378662109375,1.1646728515625,-0.18994140625
1.835,3176,3176,3176,3176,-6.0,34.0,40.0,15.136717796325684,9.033203125,-55.969234466552734,-2.0506591796875,0.5498046875,-0.0802001953125
1.843,3176,3176,3014,3176,-6.0,34.0,40.0,-10.620116233825684,16.90673828125,-51.452632904052734,-2.2125244140625,0.0107421875,0.09130859375
1.851,3176,3176,2677,3128,-6.0,34.0,40.0,-13.244627952575684,20.812986373901367,-27.221677780151367,-1.9569091796875,0.0252685546875,0.14111328125
1.880,3176,3176,1676,1943,-6.0,34.0,40.0,-13.793944358825684,27.587888717651367,1.8310545682907104,-1.56982421875,0.272705078125,0.02880859375
1.882,3176,3176,1024,1225,-6.0,34.0,40.0,-22.277830123901367,36.376953125,23.620603561401367,-1.210205078125,0.3287353515625,-0.069580078125
1.882,3176,3176,685,846,-4.0,33.0,35.0,-30.517576217651367,43.579097747802734,35.5224609375,-0.9102783203125,0.146728515625,-0.054443359375
1.895,2552,2616,287,479,-4.0,33.0,35.0,-32.470703125,48.278804779052734,40.405269622802734,-0.6395263671875,-0.120849609375,0.048828125
1.910,1960,2075,54,398,-4.0,33.0,35.0,-29.418943405151367,52.856441497802734,37.65869140625,-0.4312744140625,-0.384033203125,0.10498046875
1.911,1452,1577,260,296,-4.0,33.0,35.0,-24.047849655151367,56.396480560302734,24.902341842651367,-0.254150390625,-0.5185546875,0.0701904296875
1.925,1267,1318,221,236,-4.0,33.0,35.0,-20.01953125,53.649898529052734,7.934569835662842,-0.0802001953125,-0.409423828125,0.0870361328125
1.933,1183,1211,215,223,-4.0,33.0,35.0,-17.2119140625,43.457027435302734,-3.234863042831421,-0.026123046875,-0.1011962890625,0.1561279296875
1.941,1064,1086,224,239,-4.0,33.0,35.0,-14.465331077575684,31.799314498901367,-8.056640625,-0.1258544921875,0.1463623046875,0.12158203125
1.955,1059,1079,174,186,-4.0,33.0,35.0,-12.390135765075684,25.329587936401367,-8.72802734375,-0.228271484375,0.261962890625,-0.0426025390625
1.963,1057,1123,128,182,-4.0,33.0,35.0,-10.986327171325684,25.512693405151367,-1.15966796875,-0.2593994140625,0.3848876953125,-0.2069091796875
1.977,1100,1131,157,163,-4.0,33.0,35.0,-9.82666015625,29.663084030151367,16.78466796875,-0.3594970703125,0.5740966796875,-0.2542724609375
1.992,1172,1207,143,145,-4.0,35.0,31.0,-15.624999046325684,31.433103561401367,37.78076171875,-0.5244140625,0.6220703125,-0.1646728515625
1.993,1267,1348,139,137,-4.0,35.0,31.0,-31.738279342651367,28.747556686401367,47.912593841552734,-0.66796875,0.3729248046875,-0.068115234375
2.020,1383,1445,191,202,-4.0,35.0,31.0,-44.738765716552734,24.963376998901367,43.518062591552734,-0.7935791015625,0.1044921875,-0.05859375
2.021,1538,1641,243,256,-4.0,35.0,31.0,-44.677730560302734,20.385740280151367,33.99658203125,-0.8990478515625,0.0888671875,-0.0980224609375
2.023,1635,1698,279,295,-4.0,35.0,31.0,-33.75244140625,15.075682640075684,27.221677780151367,-0.9769287109375,0.27197265625,-0.16064453125
2.032,1643,1730,326,342,-4.0,35.0,31.0,-16.90673828125,10.803221702575684,24.414060592651367,-1.0325927734375,0.468017578125,-0.2265625
2.044,1662,1738,389,396,-4.0,35.0,31.0,-2.0751953125,6.408690929412842,23.864744186401367,-1.051513671875,0.513427734375,-0.21435546875
2.102,1306,1648,334,450,-4.0,35.0,31.0,7.141112804412842,1.3427733182907104,24.841306686401367,-1.0452880859375,0.39990234375,-0.146484375
2.102,1504,1666,351,487,-4.0,35.0,31.0,13.427733421325684,-2.13623046875,28.747556686401367,-1.039794921875,0.253173828125,-0.1021728515625
2.102,1151,1504,281,521,-5.0,36.0,31.0,15.869139671325684,-3.295898199081421,36.1328125,-1.040283203125,0.15478515625,-0.0880126953125
2.102,1363,1411,473,483,-5.0,36.0,31.0,10.498045921325684,-2.807616949081421,44.555660247802734,-1.058349609375,0.1304931640625,-0.09130859375
2.102,1224,1294,426,480,-5.0,36.0,31.0,-1.5258787870407104,-1.0986328125,52.734371185302734,-1.0948486328125,0.1544189453125,-0.108642578125
2.123,1155,1173,363,373,-5.0,36.0,31.0,-15.930174827575684,0.3662109076976776,61.035152435302734,-1.119873046875,0.1602783203125,-0.1295166015625
2.124,1211,1269,270,277,-5.0,36.0,31.0,-27.465818405151367,0.0610351525247097,71.77734375,-1.0751953125,0.1260986328125,-0.12353515625
2.127,1353,1416,153,185,-5.0,36.0,31.0,-33.0810546875,0.1220703050494194,86.48680877685547,-0.8477783203125,0.01953125,-0.0933837890625
2.140,1907,2056,112,144,-5.0,36.0,31.0,-34.60693359375,0.6103515625,98.69384002685547,-0.3948974609375,-0.0457763671875,-0.0501708984375
2.143,2249,2337,224,258,-5.0,36.0,31.0,-35.15625,-5.554198741912842,93.81102752685547,-0.11083984375,0.0511474609375,0.0838623046875
2.151,2554,2576,333,376,-5.0,36.0,31.0,-34.423828125,-20.690916061401367,69.64111328125,-0.06103515625,0.35205078125,0.2747802734375
2.180,1617,3176,577,745,-5.0,36.0,31.0,-24.536130905151367,-42.541500091552734,34.1796875,0.117431640625,0.7440185546875,0.32470703125
2.180,715,3176,0,1593,-5.0,37.0,34.0,3.784179449081421,-77.880859375,-12.084959983825684,0.5574951171875,0.657470703125,0.6519775390625
2.181,588,3176,0,2184,-5.0,37.0,34.0,73.3642578125,-114.37987518310547,-64.94140625,1.0806884765625,0.330078125,0.55322265625
2.195,636,3176,0,3176,-5.0,37.0,34.0,137.63427734375,-113.34227752685547,-113.58641815185547,1.00732421875,0.5257568359375,-0.376953125
2.217,636,3176,0,3176,-5.0,37.0,34.0,108.39842987060547,-76.904296875,-142.822265625,0.0169677734375,0.903564453125,-1.2294921875
2.231,3176,3176,1807,3176,-5.0,37.0,34.0,16.357421875,-43.029781341552734,-144.83642578125,-1.2867431640625,0.982666015625,-1.44287109375
2.231,3176,3176,3176,3176,-5.0,37.0,34.0,-64.697265625,-41.015621185302734,-124.69481658935547,-2.0142822265625,0.8125,-0.7332763671875
2.233,3176,3176,3176,3176,-5.0,37.0,34.0,-87.89061737060547,-62.194820404052734,-94.48241424560547,-2.353759765625,0.4847412109375,0.2750244140625
2.241,650,3176,0,3176,-5.0,37.0,34.0,-48.767086029052734,-74.462890625,-73.974609375,-2.8695068359375,-0.1539306640625,0.9412841796875
2.255,3176,3176,1805,3176,-5.0,37.0,34.0,5.126952648162842,-67.2607421875,-67.44384765625,-3.1612548828125,-0.5814208984375,1.02783203125
2.263,3176,3176,0,3176,-5.0,37.0,34.0,41.687007904052734,-46.752925872802734,-56.518550872802734,-2.928955078125,-0.3870849609375,0.5477294921875
2.287,2464,3176,0,3176,-6.0,30.0,35.0,56.213375091552734,-23.498533248901367,-36.56005859375,-2.002685546875,0.0198974609375,-0.11328125
2.287,1968,3176,0,3176,-6.0,30.0,35.0,51.818843841552734,-6.103515148162842,-23.986814498901367,-0.9891357421875,0.6466064453125,-0.4127197265625
2.293,636,3176,0,3176,-6.0,30.0,35.0,28.076169967651367,4.638671875,-31.860349655151367,-1.037109375,1.0367431640625,-0.3359375
2.302,636,3176,1718,3176,-6.0,30.0,35.0,-5.187987804412842,10.375975608825684,-50.842281341552734,-1.791015625,0.729736328125,-0.1170654296875
2.321,3176,3176,3176,3176,-6.0,30.0,35.0,-22.766111373901367,8.23974609375,-57.800289154052734,-2.261474609375,0.2427978515625,0.1258544921875
2.338,803,3176,1773,3176,-6.0,30.0,35.0,-15.136717796325684,3.356933355331421,-46.997066497802734,-2.1644287109375,0.10595703125,0.228515625
2.338,643,3176,3125,3176,-6.0,30.0,35.0,-15.136717796325684,3.356933355331421,-46.997066497802734,-1.753173828125,0.26708984375,0.1815185546875
2.345,2277,3176,631,3019,-6.0,30.0,35.0,5.432128429412842,12.268065452575684,-11.352538108825684,-1.3338623046875,0.426025390625,0.0987548828125
2.353,632,3176,0,2272,-6.0,30.0,35.0,-3.845214605331421,24.414060592651367,0.54931640625,-1.0135498046875,0.4010009765625,0.0418701171875
2.363,3024,3176,1091,1604,-6.0,30.0,35.0,-3.845214605331421,24.414060592651367,0.54931640625,-0.7864990234375,0.2113037109375,0.02392578125
2.387,636,2966,0,1215,-2.0,31.0,36.0,-28.808591842651367,37.353515625,12.512206077575684,-0.625732421875,-0.0487060546875,0.0673828125
2.388,2514,2532,982,1035,-2.0,31.0,36.0,-33.02001953125,38.14697265625,13.305663108825684,-0.526611328125,-0.313232421875,0.100830078125
2.391,1445,2368,0,726,-2.0,31.0,36.0,-33.02001953125,38.14697265625,13.305663108825684,-0.4993896484375,-0.4412841796875,0.032470703125
2.405,756,1648,339,547,-2.0,31.0,36.0,-21.240232467651367,42.053218841552734,5.615233898162842,-0.43310546875,-0.4393310546875,-0.00830078125
2.424,1485,1538,391,407,-2.0,31.0,36.0,-16.90673828125,39.85595703125,3.967284917831421,-0.294677734375,-0.31591796875,0.0599365234375
2.424,1374,1431,277,411,-2.0,31.0,36.0,-16.90673828125,39.85595703125,3.967284917831421,-0.246826171875,-0.0709228515625,0.1221923828125
2.449,1139,1194,263,270,-2.0,31.0,36.0,-24.353025436401367,36.31591796875,15.930174827575684,-0.33740234375,0.04345703125,0.0791015625
2.450,1091,1117,224,223,-2.0,31.0,36.0,-31.799314498901367,37.2314453125,20.324705123901367,-0.43408203125,0.02001953125,-0.02978515625
2.451,1116,1131,183,169,-2.0,31.0,36.0,-31.799314498901367,37.2314453125,20.324705123901367,-0.4840087890625,0.0570068359375,-0.1368408203125
2.466,904,999,24,149,-2.0,31.0,36.0,-18.73779296875,41.198726654052734,37.353515625,-0.563720703125,0.2744140625,-0.1905517578125
2.488,790,980,0,138,-3.0,37.0,33.0,-11.169432640075684,38.75732421875,49.499507904052734,-0.6566162109375,0.5572509765625,-0.1453857421875
2.488,939,996,0,168,-3.0,37.0,33.0,-11.169432640075684,38.75732421875,49.499507904052734,-0.7239990234375,0.605224609375,-0.060546875
2.495,601,966,0,202,-3.0,37.0,33.0,-36.376953125,26.184080123901367,52.856441497802734,-0.7921142578125,0.44482421875,-0.00537109375
2.507,1062,1112,0,210,-3.0,37.0,33.0,-40.588375091552734,24.108884811401367,46.569820404052734,-0.854736328125,0.3084716796875,-0.013427734375
2.531,601,1037,0,240,-3.0,37.0,33.0,-40.588375091552734,24.108884811401367,46.569820404052734,-0.90576171875,0.2498779296875,-0.08837890625
2.531,810,1097,0,241,-3.0,37.0,33.0,-10.864256858825684,16.845703125,38.9404296875,-0.956787109375,0.2568359375,-0.1561279296875
2.533,1022,1145,0,241,-3.0,37.0,33.0,3.906249761581421,7.385253429412842,35.46142578125,-0.995361328125,0.3270263671875,-0.1529541015625
2.555,618,1061,0,272,-3.0,37.0,33.0,3.906249761581421,7.385253429412842,35.46142578125,-1.0068359375,0.389892578125,-0.09912109375
2.555,631,1035,0,251,-3.0,37.0,33.0,19.22607421875,-10.131834983825684,34.11865234375,-0.9921875,0.3919677734375,-0.0660400390625
2.563,627,1017,0,248,-3.0,37.0,33.0,22.888181686401367,-13.122557640075684,38.87939453125,-0.9569091796875,0.32421875,-0.0677490234375
2.572,664,1024,0,203,-4.0,36.0,34.0,22.888181686401367,-13.122557640075684,38.87939453125,-0.885009765625,0.197265625,-0.0745849609375
2.590,1070,1213,0,131,-4.0,36.0,34.0,14.892577171325684,-7.019042491912842,59.143062591552734,-0.7498779296875,0.0565185546875,-0.0567626953125
2.593,1362,1452,40,94,-4.0,36.0,34.0,-0.7934569716453552,1.15966796875,71.533203125,-0.5740966796875,-0.0113525390625,-0.0096435546875
2.610,1367,1695,0,221,-4.0,36.0,34.0,-0.7934569716453552,1.15966796875,71.533203125,-0.4222412109375,0.033203125,0.013427734375
2.630,1604,2349,67,304,-4.0,36.0,34.0,-23.559568405151367,8.056640625,73.42529296875,-0.33203125,0.1907958984375,0.044921875
2.630,2847,2781,451,438,-4.0,36.0,34.0,-17.02880859375,-3.051757574081421,54.443355560302734,-0.2259521484375,0.38916015625,0.2086181640625
2.631,2685,3176,593,654,-4.0,36.0,34.0,-17.02880859375,-3.051757574081421,54.443355560302734,0.265380859375,0.252685546875,0.5716552734375
2.645,640,3169,0,1666,-4.0,36.0,34.0,54.748531341552734,-56.335445404052734,-9.1552734375,1.0789794921875,-0.1085205078125,0.6324462890625
2.655,761,3176,475,2432,-4.0,36.0,34.0,112.73192596435547,-76.416015625,-52.185054779052734,1.3536376953125,-0.1026611328125,0.1217041015625
2.667,2877,3176,1303,3176,-4.0,36.0,34.0,112.73192596435547,-76.416015625,-52.185054779052734,0.7073974609375,0.344970703125,-0.5048828125
2.693,635,3176,0,3176,-8.0,34.0,31.0,50.537105560302734,-47.302242279052734,-105.28563690185547,-0.6607666015625,1.2073974609375,-1.080322265625
2.693,635,3176,0,3176,-8.0,34.0,31.0,-22.949216842651367,-24.719236373901367,-98.20555877685547,-1.9559326171875,1.77197265625,-1.1575927734375
2.694,3176,3176,3176,3176,-8.0,34.0,31.0,-22.949216842651367,-24.719236373901367,-98.20555877685547,-2.46240234375,1.572265625,-0.520263671875
2.706,3176,3176,0,3176,-8.0,34.0,31.0,-98.69384002685547,-46.936031341552734,-63.049312591552734,-2.8145751953125,0.81396484375,0.3673095703125
2.714,3176,3176,3176,3176,-8.0,34.0,31.0,-74.76806640625,-46.630855560302734,-58.227535247802734,-3.3585205078125,-0.3253173828125,0.916259765625
2.730,3176,3176,3176,3176,-8.0,34.0,31.0,-74.76806640625,-46.630855560302734,-58.227535247802734,-3.4075927734375,-1.0574951171875,0.7613525390625
2.736,2809,3176,268,3176,-8.0,34.0,31.0,22.521970748901367,-10.803221702575684,-38.57421875,-2.336181640625,-0.8818359375,0.2005615234375
2.744,694,3176,532,3176,-8.0,34.0,31.0,55.603023529052734,4.0283203125,-10.620116233825684,-1.0831298828125,0.2998046875,-0.205810546875
2.752,2915,3176,780,3176,-8.0,34.0,31.0,55.603023529052734,4.0283203125,-10.620116233825684,-1.1148681640625,1.2791748046875,-0.3514404296875
2.766,631,3176,3176,3176,-4.0,33.0,40.0,-11.352538108825684,35.400390625,-6.469726085662842,-1.88037109375,1.0113525390625,-0.3050537109375
2.793,3176,3176,2683,3176,-4.0,33.0,40.0,-57.617183685302734,41.320796966552734,-6.774901866912842,-2.28955078125,0.34130859375,-0.0697021484375
2.794,3176,3176,107,3176,-4.0,33.0,40.0,-57.617183685302734,41.320796966552734,-6.774901866912842,-2.1954345703125,0.0755615234375,0.096923828125
2.796,3176,3176,1852,2679,-4.0,33.0,40.0,-56.152339935302734,35.2783203125,33.447265625,-1.86865234375,0.1856689453125,0.0946044921875
2.804,916,3176,256,2065,-4.0,33.0,40.0,-43.945308685302734,36.0107421875,49.377437591552734,-1.5106201171875,0.2901611328125,0.011962890625
2.812,3176,3176,1415,1607,-4.0,33.0,40.0,-43.945308685302734,36.0107421875,49.377437591552734,-1.1512451171875,0.1871337890625,-0.038330078125
2.833,633,2888,0,1125,-4.0,33.0,40.0,-13.549803733825684,42.297359466552734,47.607418060302734,-0.812255859375,-0.0218505859375,-0.0750732421875
2.835,2372,2445,0,922,-4.0,33.0,40.0,11.413573265075684,44.738765716552734,38.9404296875,-0.5150146484375,-0.0537109375,-0.1259765625
2.842,636,2284,630,659,-4.0,33.0,40.0,11.413573265075684,44.738765716552734,38.9404296875,-0.2320556640625,0.07958984375,-0.1015625
2.857,1531,1604,123,410,-4.0,33.0,40.0,18.4326171875,40.954586029052734,11.596678733825684,-0.011962890625,0.19189453125,-0.081298828125
2.868,1178,1317,0,286,-5.0,36.0,35.0,5.981444835662842,40.588375091552734,-5.798339366912842,-0.0059814453125,0.1748046875,-0.0955810546875
2.872,1204,1201,132,213,-5.0,36.0,35.0,5.981444835662842,40.588375091552734,-5.798339366912842,-0.1866455078125,0.0723876953125,-0.0615234375
2.896,656,869,0,129,-5.0,36.0,35.0,-5.065917491912842,25.024412155151367,-26.672361373901367,-0.396240234375,0.09619140625,-0.0665283203125
2.896,662,845,69,59,-5.0,36.0,35.0,-1.3427733182907104,15.319823265075684,-20.996091842651367,-0.5118408203125,0.19140625,-0.129638671875
2.902,696,696,39,71,-5.0,36.0,35.0,-1.3427733182907104,15.319823265075684,-20.996091842651367,-0.6285400390625,0.209716796875,-0.1519775390625
2.916,612,628,56,67,-5.0,36.0,35.0,10.375975608825684,11.779784202575684,-1.8920897245407104,-0.8966064453125,0.2047119140625,-0.127685546875
2.936,598,605,58,67,-5.0,36.0,35.0,26.000974655151367,12.145995140075684,2.13623046875,-1.2022705078125,0.16259765625,-0.1378173828125
2.936,588,601,43,43,-5.0,36.0,35.0,26.000974655151367,12.145995140075684,2.13623046875,-1.298828125,0.0250244140625,-0.188720703125
2.942,616,616,38,37,-5.0,36.0,35.0,43.518062591552734,9.46044921875,3.112792730331421,-1.298828125,0.0250244140625,-0.188720703125
2.955,609,614,34,34,-5.0,36.0,35.0,70.3125,7.080077648162842,-3.662109136581421,-0.882568359375,-0.122802734375,-0.2462158203125
2.963,617,619,61,56,-4.0,38.0,38.0,70.3125,7.080077648162842,-3.662109136581421,-0.72119140625,0.019287109375,-0.2373046875
2.976,612,607,103,106,-4.0,38.0,38.0,80.99364471435547,9.27734375,-10.803221702575684,-0.72119140625,0.019287109375,-0.2373046875
2.985,638,636,65,83,-4.0,38.0,38.0,94.97069549560547,12.023924827575684,-15.197752952575684,-0.451416015625,0.3983154296875,-0.15869140625
2.996,644,644,39,46,-4.0,38.0,38.0,94.97069549560547,12.023924827575684,-15.197752952575684,-0.2921142578125,0.462890625,-0.0498046875
3.005,640,646,37,34,-4.0,38.0,38.0,90.57616424560547,10.192870140075684,-9.70458984375,-0.2921142578125,0.462890625,-0.0498046875
3.015,665,673,39,48,-4.0,38.0,38.0,70.98388671875,2.685546636581421,1.7700194120407104,-0.1246337890625,0.451904296875,0.2122802734375
3.037,795,814,69,97,-4.0,38.0,38.0,70.98388671875,2.685546636581421,1.7700194120407104,-0.149169921875,0.6136474609375,0.3541259765625
3.037,885,900,222,235,-4.0,38.0,38.0,58.959957122802734,-2.25830078125,3.540038824081421,-0.149169921875,0.6136474609375,0.3541259765625
3.045,1422,1497,452,464,-4.0,38.0,38.0,1.6479490995407104,-19.1650390625,0.6103515625,-0.1358642578125,0.9102783203125,0.444091796875
3.053,868,2049,238,535,-4.0,38.0,38.0,1.6479490995407104,-19.1650390625,0.6103515625,-0.2864990234375,0.7767333984375,0.32568359375
3.061,2354,2524,516,563,-6.0,34.0,30.0,-39.4287109375,-21.545408248901367,-3.906249761581421,-0.2864990234375,0.7767333984375,0.32568359375
3.081,2489,2555,898,943,-6.0,34.0,30.0,-55.664058685302734,-6.774901866912842,5.920409679412842,-1.505859375,0.09521484375,-0.383056640625
3.083,2916,3064,873,1194,-6.0,34.0,30.0,-55.664058685302734,-6.774901866912842,5.920409679412842,-1.3233642578125,-0.4306640625,-0.424072265625
3.102,3176,3176,1267,1551,-6.0,34.0,30.0,-37.41455078125,-10.070799827575684,10.803221702575684,-1.3233642578125,-0.4306640625,-0.424072265625
3.105,2737,3176,1151,2524,-6.0,34.0,30.0,81.60399627685547,-53.039546966552734,11.779784202575684,-0.17333984375,-0.2506103515625,-0.1387939453125
3.119,3176,3176,2259,3150,-6.0,34.0,30.0,81.60399627685547,-53.039546966552734,11.779784202575684,0.0491943359375,-0.0789794921875,-0.166259765625
3.121,3176,3176,1818,3176,-6.0,34.0,30.0,115.53954315185547,-67.81005859375,-1.6479490995407104,0.0491943359375,-0.0789794921875,-0.166259765625
3.139,3176,3176,1151,3176,-6.0,34.0,30.0,49.743648529052734,-68.603515625,-37.353515625,0.1688232421875,0.0748291015625,0.022705078125
3.143,2909,3176,1115,3176,-6.0,34.0,30.0,49.743648529052734,-68.603515625,-37.353515625,-0.4808349609375,0.7958984375,-0.4571533203125
3.151,636,3176,0,3176,-6.0,34.0,30.0,27.770994186401367,-52.185054779052734,-53.588863372802734,-0.4808349609375,0.7958984375,-0.4571533203125
3.165,2266,3176,1315,3176,-5.0,33.0,35.0,-63.537593841552734,-28.747556686401367,-57.312007904052734,-2.5191650390625,1.6009521484375,-0.591064453125
3.173,3176,3176,1041,3176,-5.0,33.0,35.0,-63.537593841552734,-28.747556686401367,-57.312007904052734,-3.420166015625,0.411865234375,0.15234375
3.206,664,3176,1417,3176,-5.0,33.0,35.0,-102.90526580810547,-29.724119186401367,-42.541500091552734,-3.420166015625,0.411865234375,0.15234375
3.206,638,3176,2388,3176,-5.0,33.0,35.0,-21.606443405151367,-21.484373092651367,-10.742186546325684,-2.775390625,-0.9114990234375,0.4600830078125
3.207,636,3176,0,3176,-5.0,33.0,35.0,-21.606443405151367,-21.484373092651367,-10.742186546325684,-1.55224609375,0.320556640625,0.0140380859375
3.212,3176,3176,0,3176,-5.0,33.0,35.0,52.673336029052734,-7.812499523162842,1.4648436307907104,-1.55224609375,0.320556640625,0.0140380859375
3.242,636,3176,0,3176,-5.0,33.0,35.0,47.363277435302734,16.357421875,-23.742673873901367,-2.021728515625,0.9659423828125,-0.5203857421875
3.244,635,3176,198,3176,-5.0,33.0,35.0,47.363277435302734,16.357421875,-23.742673873901367,-2.31787109375,0.2239990234375,-0.3709716796875
3.244,633,3176,0,3176,-5.0,33.0,35.0,9.3994140625,18.1884765625,-36.865234375,-2.31787109375,0.2239990234375,-0.3709716796875
3.255,2721,3176,2261,3176,-5.0,33.0,37.0,14.526366233825684,14.587401390075684,-17.02880859375,-1.73193359375,-0.0067138671875,-0.1490478515625
3.263,846,3176,0,3176,-5.0,33.0,37.0,14.526366233825684,14.587401390075684,-17.02880859375,-1.357177734375,0.16552734375,-0.1776123046875
3.271,3176,3176,2284,2677,-5.0,33.0,37.0,18.798828125,19.4091796875,-1.6479490995407104,-1.357177734375,0.16552734375,-0.1776123046875
3.308,3176,3176,1264,1388,-5.0,33.0,37.0,11.779784202575684,26.855466842651367,10.864256858825684,-0.6939697265625,0.2269287109375,-0.076416015625
3.310,2817,2894,711,761,-5.0,33.0,37.0,-0.3662109076976776,34.5458984375,20.507810592651367,-0.6939697265625,0.2269287109375,-0.076416015625
3.310,1715,2291,506,531,-5.0,33.0,37.0,-14.099120140075684,40.466304779052734,26.184080123901367,-0.3873291015625,0.0682373046875,0.081298828125
3.316,1785,1912,260,488,-5.0,33.0,37.0,-25.878904342651367,43.029781341552734,24.108884811401367,0.0814208984375,-0.164794921875,0.367919921875
3.323,1578,1675,380,388,-5.0,33.0,37.0,-28.930662155151367,42.480464935302734,13.122557640075684,0.0814208984375,-0.164794921875,0.367919921875
3.351,1262,1377,312,361,-5.0,33.0,37.0,-24.291990280151367,37.78076171875,-3.051757574081421,0.072998046875,-0.069580078125,0.3807373046875
3.351,1112,1139,351,365,-5.0,33.0,37.0,-16.357421875,30.334470748901367,-17.7001953125,-0.207763671875,0.134033203125,0.001708984375
3.353,1104,1120,333,340,-5.0,34.0,40.0,-2.38037109375,24.902341842651367,-22.583005905151367,-0.207763671875,0.134033203125,0.001708984375
3.363,1139,1176,307,326,-5.0,34.0,40.0,13.793944358825684,21.850584030151367,-14.404295921325684,-0.287353515625,0.4312744140625,-0.166259765625
3.375,1292,1361,277,344,-5.0,34.0,40.0,19.04296875,20.01953125,-0.54931640625,-0.51025390625,0.537841796875,-0.300537109375
3.384,1353,1464,309,328,-5.0,34.0,40.0,5.615233898162842,18.73779296875,9.58251953125,-0.51025390625,0.537841796875,-0.300537109375
3.409,1426,1553,296,344,-5.0,34.0,40.0,-19.53125,16.4794921875,13.305663108825684,-0.6820068359375,0.181640625,-0.2794189453125
3.409,1613,1712,363,373,-5.0,34.0,40.0,-38.14697265625,13.427733421325684,13.488768577575684,-0.9180908203125,-0.220947265625,-0.2093505859375
3.413,1715,1824,368,379,-5.0,34.0,40.0,-36.7431640625,9.3994140625,13.305663108825684,-0.9180908203125,-0.220947265625,-0.2093505859375
3.421,1777,1878,384,396,-5.0,34.0,40.0,-21.240232467651367,3.417968511581421,13.427733421325684,-0.94384765625,-0.0546875,-0.171875
3.452,1875,1996,404,423,-5.0,34.0,40.0,-6.591796398162842,-1.7700194120407104,13.916014671325684,-1.005126953125,0.2957763671875,-0.1810302734375
3.511,1905,2034,424,449,-5.0,36.0,30.0,-1.6479490995407104,-0.2441406100988388,18.61572265625,-1.067626953125,0.306884765625,-0.169921875
3.513,1891,2035,405,441,-5.0,36.0,30.0,-8.4228515625,1.7700194120407104,22.766111373901367,-1.117431640625,0.2734375,-0.06787109375
3.513,1837,1989,409,436,-5.0,36.0,30.0,-14.831542015075684,2.624511480331421,28.137205123901367,-1.117431640625,0.2734375,-0.06787109375
3.514,1821,1944,409,446,-5.0,36.0,30.0,-19.775390625,4.150390625,34.11865234375,-1.0950927734375,0.2578125,-0.0518798828125
3.515,1766,1865,399,425,-5.0,36.0,30.0,-26.428220748901367,6.958007335662842,39.85595703125,-1.06982421875,0.13671875,-0.008544921875
3.515,1743,1821,395,420,-5.0,36.0,30.0,-33.63037109375,9.58251953125,45.349117279052734,-1.06982421875,0.13671875,-0.008544921875
3.515,1669,1755,376,391,-5.0,36.0,30.0,-34.66796875,10.375975608825684,51.330562591552734,-1.0325927734375,0.1380615234375,-0.0018310546875
3.525,1674,1774,305,325,-5.0,36.0,30.0,-27.160642623901367,10.620116233825684,57.861324310302734,-0.8558349609375,0.255615234375,-0.1033935546875
3.533,1745,1858,301,319,-5.0,36.0,30.0,-18.00537109375,12.817381858825684,64.75830078125,-0.8558349609375,0.255615234375,-0.1033935546875
3.549,1913,2052,296,307,-5.0,36.0,30.0,-18.85986328125,16.7236328125,70.068359375,-0.6474609375,0.2532958984375,-0.1475830078125
3.555,2160,2321,316,339,-7.0,36.0,32.0,-34.7900390625,18.12744140625,68.54248046875,-0.263671875,0.042236328125,-0.0574951171875
3.568,2350,2440,671,757,-7.0,36.0,32.0,-50.720211029052734,11.962889671325684,58.288570404052734,-0.263671875,0.042236328125,-0.0574951171875
3.571,2691,2845,1059,1207,-7.0,36.0,32.0,-51.635738372802734,-3.906249761581421,38.4521484375,-0.197998046875,0.175048828125,0.0435791015625
3.585,638,3176,0,2222,-7.0,36.0,32.0,-40.405269622802734,-32.16552734375,7.019042491912842,0.5872802734375,0.45263671875,0.5865478515625
3.593,3176,3176,1996,2925,-7.0,36.0,32.0,-18.00537109375,-79.28466796875,-31.311033248901367,0.5872802734375,0.45263671875,0.5865478515625
3.613,2616,3176,1382,3176,-7.0,36.0,32.0,45.959468841552734,-126.77001190185547,-70.00732421875,1.386474609375,-0.27001953125,0.8406982421875
3.615,629,3176,0,3176,-7.0,36.0,32.0,144.287109375,-124.02342987060547,-106.26219940185547,0.037109375,1.039794921875,-1.1875
3.623,636,3176,0,3176,-7.0,36.0,32.0,156.06689453125,-75.1953125,-126.09862518310547,0.037109375,1.039794921875,-1.1875
3.631,644,3176,0,3176,-7.0,36.0,32.0,46.264644622802734,-31.860349655151367,-120.60546112060547,-1.5877685546875,1.4759521484375,-1.73193359375
3.653,1435,3176,3115,3176,-5.0,33.0,31.0,-78.91845703125,-27.954099655151367,-95.39794158935547,-3.06591796875,0.3192138671875,0.0654296875
3.653,3176,3176,3176,3176,-5.0,33.0,31.0,-126.40380096435547,-54.687496185302734,-60.852046966552734,-3.06591796875,0.3192138671875,0.0654296875
3.661,666,3176,3176,3176,-5.0,33.0,31.0,-83.19091033935547,-74.03564453125,-37.04833984375,-3.2095947265625,-0.0521240234375,1.0263671875
3.681,644,3176,3176,3176,-5.0,33.0,31.0,-4.08935546875,-68.05419921875,-34.1796875,-2.6451416015625,-0.5526123046875,0.544677734375
3.683,3176,3176,1714,3176,-5.0,33.0,31.0,66.0400390625,-42.602535247802734,-39.12353515625,-2.6451416015625,-0.5526123046875,0.544677734375
3.691,3176,3176,656,3176,-5.0,33.0,31.0,103.88182830810547,-19.04296875,-36.31591796875,-1.5130615234375,0.16455078125,-0.30322265625
3.719,3176,3176,3168,3176,-5.0,33.0,31.0,91.18651580810547,-4.45556640625,-31.555173873901367,-1.69775390625,0.686279296875,-0.47265625
3.720,3176,3176,3176,3176,-5.0,33.0,31.0,34.72900390625,4.7607421875,-30.395505905151367,-1.69775390625,0.686279296875,-0.47265625
3.721,3176,3176,3176,3176,-5.0,33.0,31.0,-20.080564498901367,8.1787109375,-23.986814498901367,-2.0775146484375,0.228515625,0.009033203125
3.735,636,3176,0,3176,-5.0,33.0,31.0,-39.1845703125,10.253905296325684,-9.94873046875,-1.86279296875,0.074951171875,0.2322998046875
3.754,650,3176,493,3176,-9.0,32.0,39.0,-30.334470748901367,14.709471702575684,6.225585460662842,-1.86279296875,0.074951171875,0.2322998046875
3.754,636,3176,0,3176,-9.0,32.0,39.0,-15.136717796325684,21.118162155151367,19.1650390625,-1.5205078125,0.0748291015625,0.0902099609375
3.765,3176,3176,0,3176,-9.0,32.0,39.0,-4.2724609375,27.709959030151367,25.268552780151367,-0.8704833984375,0.042236328125,-0.0386962890625
3.775,640,3176,311,2395,-9.0,32.0,39.0,3.723144292831421,33.02001953125,26.000974655151367,-0.8704833984375,0.042236328125,-0.0386962890625
3.782,645,3176,106,1729,-9.0,32.0,39.0,8.4228515625,36.1328125,25.451658248901367,-0.59228515625,0.216552734375,-0.1129150390625
3.795,2587,2664,895,1058,-9.0,32.0,39.0,3.784179449081421,37.04833984375,23.742673873901367,-0.352783203125,0.357177734375,-0.1868896484375
3.820,830,2275,0,861,-9.0,32.0,39.0,-11.962889671325684,35.888671875,19.10400390625,-0.1510009765625,0.389892578125,-0.181396484375
3.820,1812,2018,518,659,-9.0,32.0,39.0,-32.04345703125,33.26416015625,12.695311546325684,-0.0440673828125,0.2403564453125,-0.0966796875
3.826,1909,1874,533,563,-9.0,32.0,39.0,-49.682613372802734,30.395505905151367,5.920409679412842,-0.04052734375,-0.037841796875,0.0384521484375
3.833,1795,1750,407,541,-9.0,32.0,39.0,-58.288570404052734,27.587888717651367,0.9765624403953552,-0.1068115234375,-0.234130859375,0.1785888671875
3.841,1698,1655,479,501,-5.0,35.0,31.0,-50.109859466552734,25.695798873901367,1.15966796875,-0.2467041015625,-0.252197265625,0.21337890625
3.855,1635,1578,467,483,-5.0,35.0,31.0,-29.113767623901367,24.169919967651367,5.615233898162842,-0.4007568359375,-0.084716796875,0.1221923828125
3.863,1658,1608,450,479,-5.0,35.0,31.0,-12.084959983825684,21.240232467651367,10.314940452575684,-0.574462890625,0.149169921875,0.0322265625
3.871,1566,1589,396,481,-5.0,35.0,31.0,-5.798339366912842,18.4326171875,16.54052734375,-0.7811279296875,0.330078125,-0.009765625
3.885,1548,1533,281,438,-5.0,35.0,31.0,-2.25830078125,18.4326171875,26.672361373901367,-0.9271240234375,0.408203125,-0.065185546875
3.893,1447,1518,273,446,-5.0,35.0,31.0,1.220703125,21.179197311401367,36.31591796875,-0.99462890625,0.3707275390625,-0.1494140625
3.921,1591,1534,395,417,-5.0,35.0,31.0,1.15966796875,24.108884811401367,41.198726654052734,-1.0155029296875,0.271240234375,-0.2034912109375
3.922,1523,1485,405,426,-5.0,35.0,31.0,-0.6713866591453552,24.047849655151367,42.358394622802734,-1.0155029296875,0.18212890625,-0.190185546875
3.924,1444,1499,351,361,-5.0,35.0,31.0,0.0,20.874021530151367,42.541500091552734,-0.9921875,0.157958984375,-0.138427734375
3.932,1404,1467,359,372,-5.0,35.0,31.0,3.601073980331421,17.15087890625,43.273921966552734,-0.93994140625,0.193603515625,-0.10986328125
3.959,1370,1439,375,396,-6.0,34.0,35.0,6.103515148162842,15.258788108825684,45.043941497802734,-0.9439697265625,0.192138671875,-0.116455078125
3.959,1404,1467,349,353,-6.0,34.0,35.0,3.295898199081421,16.17431640625,49.438472747802734,-0.9439697265625,0.192138671875,-0.116455078125
3.962,1437,1516,304,311,-6.0,34.0,35.0,-1.7089842557907104,20.202634811401367,58.715816497802734,-0.95166015625,0.141845703125,-0.077880859375
3.976,1579,1672,272,277,-6.0,34.0,35.0,-2.01416015625,26.000974655151367,72.20458984375,-0.673583984375,0.1058349609375,-0.136474609375
3.984,1715,1837,260,280,-6.0,34.0,35.0,-1.0986328125,29.968259811401367,84.77782440185547,-0.673583984375,0.1058349609375,-0.136474609375
3.992,1914,2058,254,265,-6.0,34.0,35.0,-7.446288585662842,27.648923873901367,89.35546112060547,-0.48583984375,0.0919189453125,-0.15576171875
4.022,2514,2579,361,368,-6.0,34.0,35.0,-19.83642578125,19.22607421875,82.39745330810547,-0.36865234375,0.3602294921875,0.153564453125
4.023,2977,3027,481,582,-6.0,34.0,35.0,-32.1044921875,5.737304210662842,65.4296875,-0.36865234375,0.3602294921875,0.153564453125
4.025,3176,3176,533,889,-6.0,34.0,35.0,-38.2080078125,-16.11328125,38.02490234375,-0.20556640625,0.5518798828125,0.25390625
4.041,2854,3176,1365,2272,-5.0,33.0,35.0,-32.1044921875,-49.621578216552734,-2.13623046875,0.132568359375,0.6185302734375,0.2193603515625
4.044,636,3176,2209,3176,-5.0,33.0,35.0,-13.854979515075684,-92.65135955810547,-50.354000091552734,0.48583984375,0.5159912109375,0.156005859375
4.052,3176,3176,2539,3176,-5.0,33.0,35.0,11.108397483825684,-130.615234375,-96.74071502685547,0.785888671875,0.272216796875,0.5164794921875
4.066,639,3176,0,3176,-5.0,33.0,35.0,74.0966796875,-131.103515625,-136.65771484375,0.7532958984375,0.07177734375,0.1402587890625
4.074,633,3176,0,3176,-5.0,33.0,35.0,141.11328125,-80.62743377685547,-164.42869567871094,-0.421630859375,0.677001953125,-1.338134765625
4.082,635,3176,0,3176,-5.0,33.0,35.0,85.08300018310547,-44.616695404052734,-152.40478515625,-1.922119140625,1.4627685546875,-1.853759765625
4.096,634,3176,0,3176,-5.0,33.0,35.0,-54.748531341552734,-58.959957122802734,-106.44530487060547,-2.4166259765625,1.2886962890625,-0.851318359375
4.104,3176,3176,3176,3176,-5.0,33.0,35.0,-133.544921875,-82.76366424560547,-72.32666015625,-2.4608154296875,0.4664306640625,0.5029296875
4.132,3176,3176,3176,3176,-5.0,33.0,35.0,-105.34667205810547,-88.13475799560547,-65.49072265625,-2.6771240234375,-0.33251953125,1.3868408203125
4.134,2240,3176,700,3176,-5.0,33.0,35.0,-10.803221702575684,-67.07763671875,-72.93701171875,-2.9266357421875,-0.701904296875,1.4622802734375
4.136,3176,3176,3176,3176,-6.0,31.0,39.0,75.0732421875,-32.5927734375,-73.54736328125,-2.4329833984375,-0.5953369140625,0.537353515625
4.144,3176,3176,3176,3176,-6.0,31.0,39.0,101.56249237060547,-4.39453125,-54.504390716552734,-1.2974853515625,0.0594482421875,-0.2982177734375
4.157,3176,3176,3176,3176,-6.0,31.0,39.0,61.401363372802734,15.319823265075684,-27.587888717651367,-1.06103515625,0.529052734375,-0.4371337890625
4.167,3176,3176,3176,3176,-6.0,31.0,39.0,-10.375975608825684,30.151365280151367,-7.812499523162842,-1.8394775390625,0.36083984375,-0.1954345703125
4.173,657,3176,6,3176,-6.0,31.0,39.0,-59.814449310302734,34.60693359375,7.385253429412842,-2.456787109375,0.1053466796875,0.1124267578125
4.181,3176,3176,3176,3176,-6.0,31.0,39.0,-62.622066497802734,30.761716842651367,20.568845748901367,-2.435546875,0.1248779296875,0.2056884765625
4.195,3176,3176,3176,3176,-6.0,31.0,39.0,-39.12353515625,28.015134811401367,28.503416061401367,-1.934814453125,0.244140625,0.096435546875
4.203,3176,3176,1764,3176,-6.0,31.0,39.0,-16.845703125,30.395505905151367,29.541013717651367,-1.3291015625,0.1444091796875,0.0140380859375
4.211,656,3176,0,3176,-6.0,31.0,39.0,-2.685546636581421,35.5224609375,24.902341842651367,-0.8848876953125,-0.039794921875,0.0068359375
4.229,3176,3176,2279,2698,-6.0,31.0,39.0,7.507323741912842,40.222164154052734,19.1650390625,-0.6488037109375,-0.006591796875,-0.0206298828125
4.233,636,3176,0,1865,-3.0,33.0,39.0,11.352538108825684,42.663570404052734,16.66259765625,-0.5509033203125,0.2156982421875,-0.1103515625
4.244,644,3126,0,1309,-3.0,33.0,39.0,2.807616949081421,42.175289154052734,15.441893577575684,-0.4744873046875,0.4403076171875,-0.205322265625
4.265,1873,2291,619,955,-3.0,33.0,39.0,-16.29638671875,39.12353515625,12.145995140075684,-0.379638671875,0.4718017578125,-0.1905517578125
4.265,1971,2037,482,725,-3.0,33.0,39.0,-32.8369140625,38.14697265625,8.7890625,-0.378173828125,0.2288818359375,-0.08935546875
4.271,1566,1844,566,599,-3.0,33.0,39.0,-34.11865234375,42.541500091552734,9.58251953125,-0.3306884765625,-0.017822265625,0.011474609375
4.285,1711,1667,472,496,-3.0,33.0,39.0,-28.076169967651367,44.860836029052734,13.549803733825684,-0.1552734375,-0.083740234375,0.1258544921875
4.293,1669,1605,440,463,-3.0,33.0,39.0,-26.855466842651367,40.527339935302734,16.17431640625,-0.101806640625,-0.137939453125,0.2198486328125
4.301,1634,1577,435,454,-3.0,33.0,39.0,-22.521970748901367,35.94970703125,16.9677734375,-0.2353515625,-0.1982421875,0.1868896484375
4.329,1670,1615,435,463,-3.0,33.0,39.0,-11.169432640075684,33.63037109375,20.568845748901367,-0.43603515625,-0.12548828125,0.09130859375
4.330,1700,1665,466,488,-3.0,33.0,39.0,-1.3427733182907104,30.273435592651367,29.907224655151367,-0.626708984375,0.1141357421875,0.023193359375
4.331,1748,1711,481,500,-5.0,36.0,37.0,4.5166015625,26.184080123901367,41.137691497802734,-0.7935791015625,0.3753662109375,-0.0391845703125
4.345,1783,1745,472,494,-5.0,36.0,37.0,8.36181640625,23.437498092651367,47.302242279052734,-0.93017578125,0.50390625,-0.12353515625
4.378,1716,1673,465,484,-5.0,36.0,37.0,10.864256858825684,21.789548873901367,46.447750091552734,-1.033203125,0.45556640625,-0.2056884765625
4.379,1646,1595,427,450,-5.0,36.0,37.0,11.901854515075684,20.202634811401367,43.212886810302734,-1.104736328125,0.3419189453125,-0.2347412109375
4.379,1628,1559,364,386,-5.0,36.0,37.0,12.084959983825684,18.9208984375,43.212886810302734,-1.122314453125,0.2568359375,-0.2020263671875
4.383,1506,1580,277,281,-5.0,36.0,37.0,12.268065452575684,18.73779296875,46.264644622802734,-1.0804443359375,0.1907958984375,-0.1380615234375
4.392,1457,1526,272,277,-5.0,36.0,37.0,10.742186546325684,18.4326171875,48.034664154052734,-1.0189208984375,0.15966796875,-0.083740234375
4.405,1401,1457,272,281,-5.0,36.0,37.0,7.080077648162842,15.747069358825684,45.898433685302734,-0.9603271484375,0.1846923828125,-0.0697021484375
4.413,1362,1424,253,257,-5.0,36.0,37.0,4.638671875,9.82666015625,40.344234466552734,-0.9132080078125,0.260986328125,-0.0963134765625
4.436,1280,1334,220,229,-5.0,36.0,37.0,3.967284917831421,2.807616949081421,34.11865234375,-0.8905029296875,0.3448486328125,-0.13427734375
4.436,1286,1348,168,159,-8.0,37.0,36.0,3.601073980331421,-1.9531248807907104,30.639646530151367,-0.8818359375,0.388916015625,-0.1583251953125
4.443,1294,1365,109,109,-8.0,37.0,36.0,3.845214605331421,-2.38037109375,32.89794921875,-0.8616943359375,0.396484375,-0.1522216796875
4.451,1357,1445,90,94,-8.0,37.0,36.0,4.2724609375,0.7324218153953552,41.625972747802734,-0.806396484375,0.3681640625,-0.108154296875
4.477,1579,1683,95,100,-8.0,37.0,36.0,-0.30517578125,5.798339366912842,53.344722747802734,-0.6544189453125,0.2464599609375,-0.0634765625
4.477,955,1666,0,254,-8.0,37.0,36.0,-15.686034202575684,9.3994140625,59.570308685302734,-0.4429931640625,0.07373046875,-0.0511474609375
4.481,1452,2135,110,217,-8.0,37.0,36.0,-32.40966796875,7.202147960662842,54.870601654052734,-0.390380859375,0.0777587890625,0.01708984375
4.495,3000,2973,566,573,-8.0,37.0,36.0,-33.99658203125,-1.7089842557907104,41.320796966552734,-0.447509765625,0.30419921875,0.139892578125
4.503,659,3176,0,1382,-8.0,37.0,36.0,-22.583005905151367,-19.6533203125,19.22607421875,-0.226318359375,0.453125,0.1422119140625
4.512,587,3176,0,2129,-8.0,37.0,36.0,-4.94384765625,-54.809566497802734,-13.488768577575684,0.3590087890625,0.3240966796875,0.3121337890625
4.534,632,3176,0,3176,-7.0,34.0,38.0,43.273921966552734,-113.95262908935547,-60.180660247802734,1.3858642578125,-0.4246826171875,0.65380859375
4.534,636,3176,2868,3176,-7.0,34.0,38.0,137.87841796875,-143.6767578125,-120.54442596435547,1.520263671875,-0.287109375,0.0697021484375
4.541,636,3176,0,3176,-7.0,34.0,38.0,163.26902770996094,-117.00438690185547,-157.65380859375,0.32568359375,0.6734619140625,-1.0421142578125
4.555,636,3176,0,3176,-7.0,34.0,38.0,79.65087890625,-74.3408203125,-159.11865234375,-1.35595703125,1.219970703125,-1.6927490234375
4.586,633,3176,0,3176,-7.0,34.0,38.0,-9.6435546875,-58.654781341552734,-138.61083984375,-2.809814453125,1.771484375,-1.3563232421875
4.587,636,3176,2341,3176,-7.0,34.0,38.0,-70.6787109375,-85.99852752685547,-101.25731658935547,-3.2398681640625,1.6348876953125,-0.05859375
4.587,736,3176,0,3176,-7.0,34.0,38.0,-93.68895721435547,-113.95262908935547,-79.2236328125,-3.2760009765625,0.2344970703125,1.2640380859375
4.593,3176,3176,3176,3176,-7.0,34.0,38.0,-50.292964935302734,-106.87255096435547,-86.73094940185547,-3.1749267578125,-1.1907958984375,1.6978759765625
4.601,638,3176,2043,3176,-7.0,34.0,38.0,49.133296966552734,-69.51904296875,-92.52928924560547,-2.3282470703125,-1.14599609375,0.891357421875
4.615,638,3176,3176,3176,-7.0,34.0,38.0,116.88231658935547,-27.709959030151367,-68.4814453125,-1.0806884765625,-0.1744384765625,-0.0125732421875
4.637,3176,3176,3176,3176,-4.0,31.0,36.0,91.55272674560547,7.385253429412842,-31.372068405151367,-0.984130859375,0.34326171875,-0.28662109375
4.638,3176,3176,3176,3176,-4.0,31.0,36.0,14.953612327575684,31.616209030151367,-5.126952648162842,-1.9677734375,0.1390380859375,-0.181884765625
4.645,3176,3176,3176,3176,-4.0,31.0,36.0,-38.57421875,37.53662109375,14.526366233825684,-2.648681640625,-0.02001953125,0.0323486328125
4.654,635,3176,2778,3176,-4.0,31.0,36.0,-44.799800872802734,31.066892623901367,32.958984375,-2.570068359375,0.069580078125,0.10986328125
4.681,1453,3176,747,3176,-4.0,31.0,36.0,-26.550291061401367,26.733396530151367,44.433589935302734,-2.0238037109375,0.190673828125,0.0089111328125
4.684,636,3176,0,3176,-4.0,31.0,36.0,-7.141112804412842,30.090330123901367,46.997066497802734,-1.46044921875,0.282958984375,-0.094970703125
4.684,633,3176,0,3160,-4.0,31.0,36.0,4.57763671875,37.17041015625,42.541500091552734,-1.0479736328125,0.3031005859375,-0.115234375
4.695,574,3176,0,2213,-4.0,31.0,36.0,8.36181640625,42.663570404052734,35.33935546875,-0.7001953125,0.258544921875,-0.0792236328125
4.705,582,2744,0,978,-4.0,31.0,36.0,4.82177734375,45.715328216552734,30.029294967651367,-0.4149169921875,0.2841796875,-0.048583984375
4.713,1045,2467,0,845,-4.0,31.0,36.0,-8.11767578125,46.386714935302734,25.695798873901367,-0.1845703125,0.325439453125,-0.0252685546875
4.721,1941,2095,497,643,-5.0,32.0,37.0,-29.357908248901367,44.433589935302734,18.00537109375,-0.03857421875,0.2313232421875,0.0003662109375
4.742,1580,1662,479,504,-5.0,32.0,37.0,-50.354000091552734,40.466304779052734,6.103515148162842,-0.0218505859375,-0.004150390625,0.0634765625
4.744,1444,1452,426,451,-5.0,32.0,37.0,-62.499996185302734,33.8134765625,-5.798339366912842,-0.0626220703125,-0.1668701171875,0.19140625
4.751,1266,1300,427,427,-5.0,32.0,37.0,-58.227535247802734,26.794431686401367,-13.854979515075684,-0.1070556640625,-0.145751953125,0.23388671875
4.769,1279,1294,401,409,-5.0,32.0,37.0,-40.0390625,22.155759811401367,-19.1650390625,-0.1502685546875,0.018310546875,0.1290283203125
4.785,1344,1317,367,369,-5.0,32.0,37.0,-26.733396530151367,17.822265625,-20.568845748901367,-0.26611328125,0.222900390625,0.0218505859375
4.786,1428,1357,351,361,-5.0,32.0,37.0,-25.207517623901367,14.343260765075684,-11.169432640075684,-0.4490966796875,0.3536376953125,0.0025634765625
4.795,1492,1424,326,339,-5.0,32.0,37.0,-24.658201217651367,15.502928733825684,8.544921875,-0.623046875,0.3677978515625,0.0211181640625
4.808,1514,1452,334,348,-5.0,32.0,37.0,-21.301267623901367,20.751951217651367,26.794431686401367,-0.82177734375,0.2451171875,0.0068359375
4.811,1559,1486,344,359,-5.0,32.0,37.0,-21.301267623901367,20.751951217651367,26.794431686401367,-1.02001953125,0.0810546875,-0.052978515625
4.825,1566,1492,367,386,-3.0,33.0,37.0,-17.51708984375,28.320310592651367,38.39111328125,-1.11865234375,0.011474609375,-0.118896484375
4.845,1577,1508,355,376,-3.0,33.0,37.0,-17.39501953125,26.733396530151367,38.02490234375,-1.10498046875,0.0836181640625,-0.15380859375
4.845,1551,1480,367,362,-3.0,33.0,37.0,-17.39501953125,26.733396530151367,38.02490234375,-1.028564453125,0.2353515625,-0.1661376953125
4.855,1484,1456,279,369,-3.0,33.0,37.0,-18.49365234375,19.95849609375,29.602048873901367,-0.97509765625,0.345458984375,-0.18798828125
4.863,1512,1458,270,301,-3.0,33.0,37.0,-23.681638717651367,18.1884765625,25.451658248901367,-0.99853515625,0.3614501953125,-0.2138671875
4.880,1538,1481,268,297,-3.0,33.0,37.0,-23.681638717651367,18.1884765625,25.451658248901367,-1.046142578125,0.278564453125,-0.1910400390625
4.892,1602,1588,319,349,-3.0,33.0,37.0,-39.55078125,13.183592796325684,40.588375091552734,-1.0045166015625,0.1170654296875,-0.085693359375
4.893,1711,1702,268,359,-3.0,33.0,37.0,-35.7666015625,8.85009765625,55.419918060302734,-0.813720703125,0.0638427734375,0.0350341796875
4.901,1873,1889,451,523,-3.0,33.0,37.0,-35.7666015625,8.85009765625,55.419918060302734,-0.583740234375,0.212646484375,0.122802734375
4.920,2269,2389,636,750,-4.0,33.0,36.0,-14.587401390075684,-5.859374523162842,50.903316497802734,-0.3778076171875,0.332275390625,0.14453125
4.923,2612,2715,1048,1159,-4.0,33.0,36.0,-6.469726085662842,-22.827146530151367,29.357908248901367,-0.174560546875,0.2291259765625,0.0911865234375
4.946,3086,3175,1201,1330,-4.0,33.0,36.0,-6.469726085662842,-22.827146530151367,29.357908248901367,0.0394287109375,-0.046630859375,0.271484375
4.946,3176,3176,1980,2453,-4.0,33.0,36.0,58.288570404052734,-70.068359375,-14.160155296325684,0.3936767578125,-0.2957763671875,0.528564453125
4.953,2981,3176,2493,3176,-4.0,33.0,36.0,145.20263671875,-81.72606658935547,-35.46142578125,0.7044677734375,-0.1895751953125,0.294921875
4.961,3176,3176,3154,3176,-4.0,33.0,36.0,145.20263671875,-81.72606658935547,-35.46142578125,0.532470703125,0.407470703125,-0.35400390625
4.983,3176,3176,3176,3176,-4.0,33.0,36.0,136.23046875,-84.22850799560547,-89.53856658935547,-0.177978515625,1.24267578125,-1.038330078125
4.984,3176,3176,2396,3176,-4.0,33.0,36.0,39.794921875,-71.8994140625,-104.98046112060547,-1.072021484375,1.7398681640625,-1.3973388671875
4.997,636,3176,0,3176,-4.0,33.0,36.0,39.794921875,-71.8994140625,-104.98046112060547,-1.7423095703125,1.3634033203125,-0.902099609375
5.005,636,3176,0,3176,-4.0,33.0,36.0,-111.63329315185547,-75.3173828125,-110.53466033935547,-2.1949462890625,0.7254638671875,0.2252197265625
5.013,1118,3176,2014,3176,-2.0,30.0,38.0,-121.94823455810547,-85.75438690185547,-101.74559783935547,-2.5010986328125,0.0543212890625,1.11962890625
5.021,3176,3176,1494,3176,-2.0,30.0,38.0,-121.94823455810547,-85.75438690185547,-101.74559783935547,-2.8475341796875,-0.8330078125,1.4552001953125
5.050,636,3176,1058,3176,-2.0,30.0,38.0,6.958007335662842,-44.677730560302734,-71.71630859375,-2.9117431640625,-1.39306640625,1.068359375
5.050,3036,3176,0,3176,-2.0,30.0,38.0,89.23339080810547,-2.807616949081421,-42.419429779052734,-2.00439453125,-0.989013671875,0.4085693359375
5.051,3134,3176,3176,3176,-2.0,30.0,38.0,89.23339080810547,-2.807616949081421,-42.419429779052734,-1.344970703125,0.2481689453125,-0.033935546875
5.065,1989,3176,995,3176,-2.0,30.0,38.0,82.88573455810547,46.325679779052734,17.02880859375,-1.757568359375,0.9071044921875,-0.374755859375
5.086,636,3176,1411,3176,-2.0,30.0,38.0,5.920409679412842,49.316402435302734,21.911619186401367,-2.259033203125,0.590087890625,-0.45068359375
5.087,643,3176,3176,3176,-2.0,30.0,38.0,5.920409679412842,49.316402435302734,21.911619186401367,-2.32275390625,0.18994140625,-0.2904052734375
5.096,638,3176,5,3176,-2.0,30.0,38.0,-56.640621185302734,30.944822311401367,24.475095748901367,-2.0325927734375,0.0245361328125,-0.1844482421875
5.106,633,3176,0,3176,-2.0,30.0,38.0,-41.870113372802734,26.367185592651367,22.827146530151367,-1.6005859375,-0.108642578125,-0.1024169921875
5.111,2789,3176,270,3176,-3.0,30.0,37.0,-41.870113372802734,26.367185592651367,22.827146530151367,-1.1962890625,-0.1038818359375,-0.0001220703125
5.125,633,3176,0,2461,-3.0,30.0,37.0,-9.58251953125,25.817869186401367,14.099120140075684,-0.87353515625,0.093505859375,0.0528564453125
5.151,2222,3176,1409,1584,-3.0,30.0,37.0,-6.896972179412842,27.770994186401367,13.977049827575684,-0.59619140625,0.350341796875,0.0709228515625
5.151,815,2866,0,1243,-3.0,30.0,37.0,-6.896972179412842,27.770994186401367,13.977049827575684,-0.3707275390625,0.562255859375,0.05224609375
5.155,633,2105,0,591,-3.0,30.0,37.0,-32.5927734375,32.65380859375,26.733396530151367,-0.222412109375,0.5413818359375,0.051025390625
5.163,631,1834,0,472,-3.0,30.0,37.0,-55.114742279052734,33.447265625,29.846189498901367,-0.1180419921875,0.209716796875,0.1209716796875
5.171,636,1621,0,401,-3.0,30.0,37.0,-55.114742279052734,33.447265625,29.846189498901367,-0.05029296875,-0.2418212890625,0.274169921875
5.187,1409,1362,342,363,-3.0,30.0,37.0,-53.344722747802734,38.75732421875,23.803709030151367,-0.108642578125,-0.46826171875,0.377685546875
5.193,1393,1339,306,326,-3.0,30.0,37.0,-16.11328125,45.898433685302734,28.015134811401367,-0.1651611328125,-0.3115234375,0.2752685546875
5.202,1430,1348,307,322,-3.0,30.0,37.0,-16.11328125,45.898433685302734,28.015134811401367,-0.158935546875,0.04736328125,0.0924072265625
5.215,1460,1399,301,329,-4.0,34.0,39.0,26.794431686401367,42.907711029052734,35.33935546875,-0.306884765625,0.3380126953125,-0.030029296875
5.223,1506,1439,315,339,-4.0,34.0,39.0,18.61572265625,34.72900390625,36.1328125,-0.581787109375,0.4635009765625,-0.1031494140625
5.231,1365,1462,56,396,-4.0,34.0,39.0,18.61572265625,34.72900390625,36.1328125,-0.81787109375,0.412353515625,-0.1492919921875
5.259,1393,1504,226,389,-4.0,34.0,39.0,10.559081077575684,29.785154342651367,46.203609466552734,-0.969482421875,0.2327880859375,-0.158935546875
5.260,1573,1504,241,416,-4.0,34.0,39.0,13.305663108825684,32.77587890625,49.865718841552734,-1.0369873046875,0.0711669921875,-0.11767578125
5.261,1712,1533,0,426,-4.0,34.0,39.0,13.305663108825684,32.77587890625,49.865718841552734,-1.037109375,0.010498046875,-0.0650634765625
5.276,632,1497,0,410,-4.0,34.0,39.0,34.0576171875,30.212400436401367,49.865718841552734,-0.9970703125,0.0740966796875,-0.06591796875
5.291,654,1416,0,494,-4.0,34.0,39.0,46.691890716552734,24.475095748901367,43.212886810302734,-0.9326171875,0.242919921875,-0.1358642578125
5.291,1413,1457,0,395,-4.0,34.0,39.0,46.691890716552734,24.475095748901367,43.212886810302734,-0.944091796875,0.4154052734375,-0.22412109375
5.305,1473,1428,373,383,-4.0,34.0,39.0,31.799314498901367,17.9443359375,23.559568405151367,-1.062744140625,0.4964599609375,-0.251220703125
5.318,1518,1456,326,340,-6.0,36.0,38.0,31.799314498901367,17.9443359375,23.559568405151367,-1.15234375,0.4725341796875,-0.1895751953125
5.321,1492,1439,263,268,-6.0,36.0,38.0,4.08935546875,17.9443359375,23.132322311401367,-1.15234375,0.4725341796875,-0.1895751953125
5.335,627,1264,0,364,-6.0,36.0,38.0,-16.357421875,18.6767578125,48.767086029052734,-1.008056640625,0.28857421875,0.0029296875
5.358,1186,1391,202,326,-6.0,36.0,38.0,-16.357421875,18.6767578125,48.767086029052734,-0.913330078125,0.21142578125,0.0570068359375
5.359,1129,1348,245,375,-6.0,36.0,38.0,-6.286620616912842,21.057126998901367,64.63623046875,-0.913330078125,0.21142578125,0.0570068359375
5.371,1195,1412,254,512,-6.0,36.0,38.0,27.282712936401367,28.198240280151367,89.29442596435547,-0.80712890625,0.0628662109375,0.1180419921875
5.373,1035,1469,183,586,-6.0,36.0,38.0,27.282712936401367,28.198240280151367,89.29442596435547,-0.7685546875,0.0550537109375,0.062255859375
5.393,679,1486,0,695,-6.0,36.0,38.0,50.964351654052734,30.334470748901367,97.22899627685547,-0.7685546875,0.0550537109375,0.062255859375
5.396,1616,1966,483,687,-6.0,36.0,38.0,67.44384765625,33.8134765625,111.38915252685547,-0.479736328125,0.08154296875,-0.0985107421875
5.403,1431,2351,393,855,-6.0,36.0,38.0,67.44384765625,33.8134765625,111.38915252685547,-0.1737060546875,0.07958984375,-0.1324462890625
5.411,598,2518,0,1062,-12.0,36.0,33.0,44.311519622802734,31.249998092651367,112.24364471435547,-0.1737060546875,0.07958984375,-0.1324462890625
5.425,582,3176,0,2034,-12.0,36.0,33.0,-11.962889671325684,-19.1650390625,55.603023529052734,0.5166015625,0.3699951171875,-0.02099609375
5.433,572,3176,0,2933,-12.0,36.0,33.0,-11.962889671325684,-19.1650390625,55.603023529052734,0.7137451171875,0.5262451171875,-0.0673828125
5.459,567,3176,0,3176,-12.0,36.0,33.0,-25.695798873901367,-67.81005859375,-1.4038084745407104,0.7137451171875,0.5262451171875,-0.0673828125
5.460,3176,3176,3176,3176,-12.0,36.0,33.0,8.4228515625,-122.68065643310547,-93.07860565185547,0.2032470703125,0.50634765625,-0.57421875
5.463,2168,3176,3176,3176,-12.0,36.0,33.0,8.4228515625,-122.68065643310547,-93.07860565185547,-1.00537109375,1.131591796875,-0.879150390625
5.471,3176,3176,1444,3176,-12.0,36.0,33.0,13.061522483825684,-98.69384002685547,-101.74559783935547,-1.00537109375,1.131591796875,-0.879150390625
5.499,3176,3176,3176,3176,-12.0,36.0,33.0,-99.06005096435547,-69.4580078125,-79.16259765625,-2.4154052734375,1.4935302734375,0.043212890625
5.500,3176,3176,3176,3176,-12.0,36.0,33.0,-99.06005096435547,-69.4580078125,-79.16259765625,-2.6600341796875,1.319091796875,0.54541015625
5.501,3176,3176,3176,3176,-12.0,36.0,33.0,-136.8408203125,-63.964839935302734,-61.584468841552734,-2.6600341796875,1.319091796875,0.54541015625
5.517,3176,3176,3176,3176,-10.0,34.0,36.0,-94.42137908935547,-14.465331077575684,-26.306150436401367,-2.7835693359375,-1.0098876953125,0.57568359375
5.534,3176,3176,3176,3176,-10.0,34.0,36.0,-94.42137908935547,-14.465331077575684,-26.306150436401367,-1.9537353515625,-1.1995849609375,0.2333984375
5.537,3176,3176,3176,3176,-10.0,34.0,36.0,-23.376462936401367,16.05224609375,-10.925292015075684,-1.9537353515625,-1.1995849609375,0.2333984375
5.559,3176,3176,3176,3176,-10.0,34.0,36.0,47.119136810302734,26.794431686401367,2.197265625,-2.0767822265625,1.119384765625,-0.4644775390625
5.559,3176,3176,3176,3176,-10.0,34.0,36.0,47.119136810302734,26.794431686401367,2.197265625,-2.200439453125,0.970947265625,-0.4903564453125
5.562,3176,3176,3176,3176,-10.0,34.0,36.0,9.94873046875,18.5546875,-7.995604991912842,-2.200439453125,0.970947265625,-0.4903564453125
5.575,3176,3176,3176,3176,-10.0,34.0,36.0,1.7089842557907104,8.1787109375,-1.2817381620407104,-1.5628662109375,0.17236328125,-0.005859375
5.603,3176,3176,3128,3176,-10.0,34.0,36.0,1.7089842557907104,8.1787109375,-1.2817381620407104,-1.2218017578125,0.050537109375,0.021484375
5.603,3176,3176,1837,2541,-10.0,34.0,36.0,36.62109375,15.380858421325684,8.544921875,-1.2218017578125,0.050537109375,0.021484375
5.605,3176,3176,1004,1173,-8.0,36.0,37.0,81.05467987060547,37.41455078125,27.282712936401367,-0.655517578125,0.390380859375,-0.19482421875
5.613,1682,2769,0,873,-8.0,36.0,37.0,81.05467987060547,37.41455078125,27.282712936401367,-0.348388671875,0.409912109375,-0.2017822265625
5.622,645,2303,0,628,-8.0,36.0,37.0,73.54736328125,42.419429779052734,33.38623046875,-0.348388671875,0.409912109375,-0.2017822265625
5.637,963,1649,0,589,-8.0,36.0,37.0,50.903316497802734,45.654293060302734,22.399900436401367,0.0614013671875,0.27734375,-0.0247802734375
5.643,669,1476,265,547,-8.0,36.0,37.0,50.903316497802734,45.654293060302734,22.399900436401367,0.033447265625,0.1241455078125,0.10888671875
5.655,1198,1285,0,494,-8.0,36.0,37.0,40.832515716552734,44.677730560302734,0.30517578125,0.033447265625,0.1241455078125,0.10888671875
5.665,644,1065,417,437,-8.0,36.0,37.0,23.193357467651367,31.555173873901367,-41.748043060302734,-0.263671875,0.2294921875,0.2801513671875
5.673,1034,1079,416,456,-8.0,36.0,37.0,23.193357467651367,31.555173873901367,-41.748043060302734,-0.3155517578125,0.2822265625,0.249267578125
5.681,1097,1104,452,465,-8.0,36.0,37.0,19.71435546875,19.95849609375,-46.020503997802734,-0.3155517578125,0.2822265625,0.249267578125
5.699,1129,1147,452,465,-8.0,36.0,37.0,23.376462936401367,10.864256858825684,-20.446775436401367,-0.52685546875,0.43017578125,0.0159912109375
5.708,1166,1191,473,478,-10.0,36.0,35.0,23.376462936401367,10.864256858825684,-20.446775436401367,-0.67431640625,0.297607421875,-0.101806640625
5.712,1282,1300,464,467,-10.0,36.0,35.0,20.996091842651367,11.474608421325684,-2.746581792831421,-0.67431640625,0.297607421875,-0.101806640625
5.726,1395,1442,465,480,-10.0,36.0,35.0,-7.568358898162842,17.4560546875,19.8974609375,-0.7855224609375,-0.0885009765625,-0.2037353515625
5.733,1471,1523,464,478,-10.0,36.0,35.0,-7.568358898162842,17.4560546875,19.8974609375,-0.81787109375,-0.056640625,-0.2591552734375
5.744,1552,1615,481,496,-10.0,36.0,35.0,-19.6533203125,17.02880859375,22.521970748901367,-0.81787109375,-0.056640625,-0.2591552734375
5.764,1735,1812,483,500,-10.0,36.0,35.0,-8.48388671875,5.065917491912842,22.766111373901367,-1.018798828125,0.2200927734375,-0.1370849609375
5.764,1783,1873,509,529,-10.0,36.0,35.0,-8.48388671875,5.065917491912842,22.766111373901367,-1.006591796875,0.44287109375,-0.076416015625
5.771,1852,1941,525,540,-10.0,36.0,35.0,20.812986373901367,1.220703125,28.747556686401367,-1.006591796875,0.44287109375,-0.076416015625
5.785,1959,2048,570,591,-10.0,36.0,35.0,47.058101654052734,2.01416015625,35.94970703125,-0.862548828125,0.7666015625,-0.19189453125
5.801,1985,2100,607,631,-10.0,36.0,35.0,47.180171966552734,3.845214605331421,35.70556640625,-0.848876953125,0.5845947265625,-0.1962890625
5.802,2012,2118,629,657,-12.0,36.0,31.0,23.986814498901367,4.45556640625,27.099607467651367,-0.848876953125,0.5845947265625,-0.1962890625
5.821,2087,2203,666,695,-12.0,36.0,31.0,0.4882812201976776,4.7607421875,19.287109375,-0.9017333984375,0.2559814453125,-0.197021484375
5.823,2142,2228,683,722,-12.0,36.0,31.0,-9.6435546875,5.859374523162842,18.98193359375,-0.9017333984375,0.2559814453125,-0.197021484375
5.831,2117,2252,705,788,-12.0,36.0,31.0,-10.925292015075684,7.873534679412842,25.573728561401367,-0.9580078125,0.2724609375,-0.222412109375
5.855,2063,2345,682,816,-12.0,36.0,31.0,-9.94873046875,10.681151390075684,34.912109375,-0.8873291015625,0.223388671875,-0.0682373046875
5.856,2121,2519,736,809,-12.0,36.0,31.0,-6.042479991912842,14.099120140075684,42.175289154052734,-0.8873291015625,0.223388671875,-0.0682373046875
5.861,2247,2621,788,891,-12.0,36.0,31.0,-1.7089842557907104,14.770506858825684,43.029781341552734,-0.682373046875,0.07861328125,0.0128173828125
5.895,588,2589,575,1097,-12.0,36.0,31.0,5.065917491912842,7.324218273162842,33.5693359375,-0.2506103515625,-0.017333984375,0.1466064453125
5.903,3176,3176,1145,1371,-12.0,36.0,31.0,14.404295921325684,-6.530761241912842,10.742186546325684,-0.2506103515625,-0.017333984375,0.1466064453125
5.904,588,3176,0,2047,-12.0,36.0,31.0,10.131834983825684,-23.315427780151367,-22.827146530151367,-0.16015625,0.204833984375,0.09619140625
5.905,589,3176,0,3176,-16.0,35.0,36.0,-10.925292015075684,-40.0390625,-58.715816497802734,0.1334228515625,0.619384765625,-0.3702392578125
5.921,600,3176,0,3176,-16.0,35.0,36.0,-42.907711029052734,-56.884761810302734,-85.26610565185547,0.1334228515625,0.619384765625,-0.3702392578125
5.935,3176,3176,0,3176,-16.0,35.0,36.0,-69.27490234375,-70.61767578125,-89.78270721435547,0.331298828125,0.0511474609375,-0.441162109375
5.935,3176,3176,3176,3176,-16.0,35.0,36.0,-58.288570404052734,-74.3408203125,-66.162109375,-0.6552734375,0.6746826171875,-0.39599609375
5.943,3176,3176,3176,3176,-16.0,35.0,36.0,-23.986814498901367,-73.3642578125,-30.700681686401367,-0.6552734375,0.6746826171875,-0.39599609375
5.969,3176,3176,3176,3176,-16.0,35.0,36.0,-13.854979515075684,-72.3876953125,-12.329100608825684,-1.517333984375,1.3917236328125,-0.2044677734375
5.969,787,3176,0,3176,-16.0,35.0,36.0,-41.381832122802734,-69.580078125,-18.61572265625,-2.18896484375,0.996337890625,0.3626708984375
5.974,2559,3176,0,3176,-16.0,35.0,36.0,-77.0263671875,-64.3310546875,-34.72900390625,-2.18896484375,0.996337890625,0.3626708984375
5.981,636,3176,0,3176,-16.0,35.0,36.0,-81.72606658935547,-52.612300872802734,-44.311519622802734,-2.3861083984375,0.6656494140625,0.1524658203125
5.998,3176,3176,1287,3176,-6.0,32.0,39.0,-54.382320404052734,-37.841796875,-44.982906341552734,-2.26220703125,-0.5191650390625,-0.1260986328125
6.008,3176,3176,3176,3176,-6.0,32.0,39.0,-15.624999046325684,-29.418943405151367,-44.372554779052734,-2.26220703125,-0.5191650390625,-0.1260986328125
6.012,660,3176,0,3176,-6.0,32.0,39.0,30.395505905151367,-25.512693405151367,-41.687007904052734,-1.620849609375,-0.255126953125,-0.1995849609375
6.025,651,3176,1424,3176,-6.0,32.0,39.0,58.166500091552734,-21.484373092651367,-36.92626953125,-2.008544921875,0.83544921875,-0.146484375
6.034,734,3176,0,3176,-6.0,32.0,39.0,39.306640625,-15.808104515075684,-37.65869140625,-2.008544921875,0.83544921875,-0.146484375
6.046,3176,3176,2916,3176,-6.0,32.0,39.0,1.4038084745407104,-9.09423828125,-40.0390625,-2.140625,0.59130859375,0.037109375
6.072,669,3176,6,3176,-6.0,32.0,39.0,-12.573241233825684,-2.3193359375,-35.46142578125,-1.667236328125,0.1121826171875,0.211181640625
6.072,691,3176,0,3176,-6.0,32.0,39.0,3.234863042831421,5.432128429412842,-25.939939498901367,-1.667236328125,0.1121826171875,0.211181640625
6.073,3176,3176,2209,2612,-6.0,32.0,39.0,30.944822311401367,15.075682640075684,-17.9443359375,-1.38037109375,0.1170654296875,0.0762939453125
6.086,2700,3176,1097,1188,-6.0,32.0,39.0,51.269527435302734,24.108884811401367,-15.441893577575684,-0.8094482421875,0.3280029296875,-0.22314453125
6.093,2407,2697,664,922,-10.0,34.0,33.0,55.847164154052734,29.052732467651367,-16.6015625,-0.8094482421875,0.3280029296875,-0.22314453125
6.108,1454,1957,384,868,-10.0,34.0,33.0,50.903316497802734,29.724119186401367,-18.00537109375,-0.469482421875,0.2449951171875,-0.2137451171875
6.115,1268,1384,393,712,-10.0,34.0,33.0,46.325679779052734,28.259275436401367,-18.73779296875,0.08642578125,-0.0030517578125,-0.0377197265625
6.123,907,1140,108,614,-10.0,34.0,33.0,41.564937591552734,26.794431686401367,-20.385740280151367,0.08642578125,-0.0030517578125,-0.0377197265625
6.131,822,951,159,603,-10.0,34.0,33.0,27.282712936401367,22.949216842651367,-23.803709030151367,0.1292724609375,-0.0400390625,0.1705322265625
6.145,652,927,449,549,-10.0,34.0,33.0,5.310058116912842,16.6015625,-26.550291061401367,-0.0015869140625,0.1884765625,0.304931640625
6.176,835,982,523,584,-10.0,34.0,33.0,-11.718749046325684,12.634276390075684,-26.123044967651367,-0.0015869140625,0.1884765625,0.304931640625
6.177,1005,1010,582,585,-10.0,34.0,33.0,-16.845703125,13.732909202575684,-19.1650390625,-0.1038818359375,0.261474609375,0.1600341796875
6.177,1133,1196,547,588,-10.0,34.0,33.0,-11.474608421325684,17.578125,-3.967284917831421,-0.4407958984375,0.140380859375,-0.0091552734375
6.183,1183,1305,475,631,-10.0,34.0,33.0,-6.103515148162842,20.263669967651367,12.817381858825684,-0.4407958984375,0.140380859375,-0.0091552734375
6.191,1382,1422,625,632,-7.0,34.0,37.0,-9.09423828125,22.033689498901367,23.742673873901367,-0.641845703125,-0.052490234375,-0.0272216796875
6.212,1547,1608,519,735,-7.0,34.0,37.0,-15.563963890075684,22.583005905151367,28.381345748901367,-0.964111328125,0.017333984375,-0.0823974609375
6.213,1518,1739,0,830,-7.0,34.0,37.0,-15.624999046325684,19.4091796875,29.785154342651367,-0.964111328125,0.017333984375,-0.0823974609375
6.221,1818,1900,721,750,-7.0,34.0,37.0,-9.58251953125,11.657713890075684,29.724119186401367,-1.0189208984375,0.226318359375,-0.1231689453125
6.235,1417,1904,751,780,-7.0,34.0,37.0,-2.685546636581421,2.25830078125,27.465818405151367,-1.0247802734375,0.4234619140625,-0.169189453125
6.243,671,1897,0,906,-7.0,34.0,37.0,4.45556640625,-4.8828125,22.949216842651367,-1.0247802734375,0.4234619140625,-0.169189453125
6.251,1742,2107,741,837,-7.0,34.0,37.0,9.8876953125,-9.21630859375,17.88330078125,-0.989990234375,0.3741455078125,-0.16845703125
6.279,1715,2213,419,943,-7.0,34.0,37.0,11.535643577575684,-10.803221702575684,15.624999046325684,-0.988037109375,0.3023681640625,-0.16748046875
6.280,656,2095,0,1031,-7.0,34.0,37.0,10.192870140075684,-9.09423828125,19.8974609375,-1.0611572265625,0.3134765625,-0.1708984375
6.281,1674,2322,393,985,-7.0,34.0,37.0,3.845214605331421,-5.310058116912842,31.433103561401367,-1.150634765625,0.3504638671875,-0.16064453125
6.295,1403,2129,414,939,-10.0,34.0,37.0,-7.690429210662842,0.4882812201976776,48.095699310302734,-1.233154296875,0.3338623046875,-0.1285400390625
6.314,1248,2048,609,891,-10.0,34.0,37.0,-18.310546875,10.620116233825684,69.82421875,-1.3992919921875,0.2576904296875,-0.0960693359375
6.314,1894,2009,805,837,-10.0,34.0,37.0,-22.033689498901367,26.855466842651367,99.79247283935547,-1.4967041015625,0.10888671875,-0.1009521484375
6.325,1777,1914,780,864,-10.0,34.0,37.0,-17.4560546875,44.067378997802734,135.19287109375,-1.3062744140625,-0.0633544921875,-0.0966796875
6.333,1920,2053,854,928,-10.0,34.0,37.0,-6.225585460662842,54.809566497802734,166.19871520996094,-0.920654296875,-0.22119140625,0.0111083984375
6.341,2139,2333,820,925,-10.0,34.0,37.0,9.09423828125,56.213375091552734,184.99754333496094,-0.4222412109375,-0.373291015625,0.2254638671875
6.355,739,2851,0,1300,-10.0,34.0,37.0,21.850584030151367,46.569820404052734,185.42478942871094,0.2408447265625,-0.4671630859375,0.50390625
6.390,2284,3176,964,2209,-10.0,34.0,37.0,32.04345703125,24.780271530151367,160.0341796875,0.973876953125,-0.335205078125,0.7413330078125
6.390,552,3176,0,3176,-10.0,34.0,37.0,50.292964935302734,-6.530761241912842,103.33251190185547,1.490966796875,0.281982421875,0.7052001953125
6.391,556,3176,11,3176,-14.0,36.0,30.0,59.204097747802734,-47.241207122802734,23.620603561401367,1.65966796875,1.134765625,0.3170166015625
6.394,559,3176,7,3176,-14.0,36.0,30.0,28.869626998901367,-88.74510955810547,-57.983394622802734,1.0576171875,1.32373046875,-0.3028564453125
6.402,570,3176,11,3176,-14.0,36.0,30.0,-15.808104515075684,-102.23387908935547,-109.68016815185547,-0.2630615234375,1.275390625,-1.3057861328125
6.416,625,3176,964,3176,-14.0,36.0,30.0,-45.837398529052734,-84.89989471435547,-124.08446502685547,-1.3922119140625,1.5118408203125,-2.0184326171875
6.423,3176,3176,3176,3176,-14.0,36.0,30.0,-94.48241424560547,-72.75390625,-125.97655487060547,-2.108642578125,1.363525390625,-1.3714599609375
6.432,3176,3176,3176,3176,-14.0,36.0,30.0,-148.8037109375,-76.59912109375,-116.88231658935547,-2.7847900390625,1.010498046875,0.007080078125
6.447,3176,3176,3176,3176,-14.0,36.0,30.0,-157.958984375,-80.50536346435547,-86.97509002685547,-3.5513916015625,0.635009765625,1.05322265625
6.454,3176,3176,3176,3176,-14.0,36.0,30.0,-116.57714080810547,-68.66455078125,-46.691890716552734,-3.103515625,-0.8924560546875,1.25244140625
6.462,3176,3176,3176,3176,-14.0,36.0,30.0,-6.164550304412842,-34.3017578125,-12.939452171325684,-1.54638671875,-1.341796875,0.6810302734375
6.480,3176,3176,3176,3176,-14.0,36.0,30.0,122.19237518310547,3.540038824081421,7.568358898162842,-0.9422607421875,0.5040283203125,-0.001708984375
6.490,1724,3176,3176,3176,-8.0,32.0,36.0,141.05224609375,21.911619186401367,2.746581792831421,-1.3524169921875,1.6826171875,-0.3380126953125
6.497,3176,3176,3176,3176,-8.0,32.0,36.0,54.931636810302734,19.775390625,-23.254392623901367,-1.8636474609375,1.4990234375,-0.2891845703125
6.511,3176,3176,3176,3176,-8.0,32.0,36.0,-25.268552780151367,7.873534679412842,-42.785640716552734,-2.0740966796875,0.8958740234375,-0.092529296875
6.519,3176,3176,3176,3176,-8.0,32.0,36.0,-43.640132904052734,-1.03759765625,-47.912593841552734,-1.959228515625,0.496826171875,0.0323486328125
6.521,575,3176,2368,3176,-8.0,32.0,36.0,-16.90673828125,-0.1831054538488388,-43.823238372802734,-1.6907958984375,0.3360595703125,0.07275390625
6.535,555,3176,20,3176,-8.0,32.0,36.0,20.080564498901367,4.69970703125,-35.70556640625,-1.3709716796875,0.239990234375,0.11279296875
6.543,552,3176,0,3098,-8.0,32.0,36.0,49.194332122802734,10.131834983825684,-28.564451217651367,-1.0670166015625,0.23486328125,0.0516357421875
6.551,2222,3176,0,1899,-8.0,32.0,36.0,63.354488372802734,17.578125,-25.939939498901367,-0.7806396484375,0.3309326171875,-0.1494140625
6.565,1852,2704,497,1025,-8.0,32.0,36.0,59.204097747802734,24.230955123901367,-27.221677780151367,-0.4873046875,0.3192138671875,-0.3382568359375
6.574,1641,2153,667,855,-8.0,32.0,36.0,44.555660247802734,26.550291061401367,-31.127927780151367,-0.221923828125,0.20751953125,-0.406005859375
6.585,1444,1643,682,766,-10.0,33.0,42.0,30.334470748901367,23.864744186401367,-36.865234375,-0.0394287109375,0.158447265625,-0.3306884765625
6.595,1234,1251,603,620,-10.0,33.0,42.0,16.54052734375,16.54052734375,-42.541500091552734,0.023193359375,0.1695556640625,-0.1392822265625
6.626,1115,1139,593,609,-10.0,33.0,42.0,0.30517578125,7.568358898162842,-49.987789154052734,-0.003662109375,0.043212890625,0.076904296875
6.626,1042,1050,587,596,-10.0,33.0,42.0,-12.878417015075684,2.44140625,-58.715816497802734,-0.111328125,-0.0467529296875,0.1983642578125
6.626,971,994,473,614,-10.0,33.0,42.0,-17.08984375,0.4882812201976776,-62.499996185302734,-0.2921142578125,0.0020751953125,0.221923828125
6.633,972,981,619,627,-10.0,33.0,42.0,-12.695311546325684,-1.7700194120407104,-58.898921966552734,-0.4881591796875,0.0244140625,0.1719970703125
6.642,976,972,620,627,-10.0,33.0,42.0,-1.7700194120407104,-1.2817381620407104,-46.081539154052734,-0.6595458984375,0.1099853515625,0.09033203125
6.656,989,1003,619,630,-10.0,33.0,42.0,6.652831554412842,2.50244140625,-25.085447311401367,-0.76220703125,0.1885986328125,0.0521240234375
6.664,1011,1024,630,642,-10.0,33.0,42.0,2.685546636581421,7.080077648162842,-3.417968511581421,-0.7894287109375,0.1171875,0.050048828125
6.686,1048,1053,640,653,-10.0,33.0,42.0,-10.009765625,12.329100608825684,14.404295921325684,-0.7911376953125,0.00732421875,0.06640625
6.687,1101,1117,639,650,-6.0,33.0,34.0,-21.667478561401367,17.578125,28.137205123901367,-0.8104248046875,-0.0067138671875,0.0865478515625
6.694,1139,1155,657,679,-6.0,33.0,34.0,-25.878904342651367,21.728513717651367,39.24560546875,-0.842529296875,0.0740966796875,0.0792236328125
6.708,1192,1201,702,711,-6.0,33.0,34.0,-21.972654342651367,23.986814498901367,47.912593841552734,-0.868896484375,0.1719970703125,0.02880859375
6.726,1264,1287,718,739,-6.0,33.0,34.0,-13.427733421325684,24.536130905151367,54.016109466552734,-0.8817138671875,0.261474609375,-0.0386962890625
6.726,1294,1391,692,724,-6.0,33.0,34.0,-4.2724609375,23.742673873901367,58.410640716552734,-0.8837890625,0.3443603515625,-0.0802001953125
6.732,1471,1519,741,763,-6.0,33.0,34.0,1.7089842557907104,21.667478561401367,60.791011810302734,-0.888671875,0.38720703125,-0.1055908203125
6.746,1074,1551,481,801,-6.0,33.0,34.0,3.601073980331421,18.9208984375,61.035152435302734,-0.9053955078125,0.39453125,-0.1328125
6.754,1467,1627,478,806,-6.0,33.0,34.0,3.051757574081421,16.05224609375,60.668941497802734,-0.9349365234375,0.4034423828125,-0.147705078125
6.764,1577,1659,542,822,-6.0,33.0,34.0,1.8310545682907104,13.916014671325684,61.462398529052734,-0.9852294921875,0.4140625,-0.137451171875
6.787,1481,1574,749,837,-10.0,35.0,33.0,0.1220703050494194,14.038084983825684,64.8193359375,-1.05224609375,0.4150390625,-0.1124267578125
6.788,1503,1537,814,846,-10.0,35.0,33.0,-4.638671875,17.578125,71.59423828125,-1.0826416015625,0.354736328125,-0.0966796875
6.792,1508,1551,841,859,-10.0,35.0,33.0,-13.122557640075684,23.742673873901367,82.27538299560547,-1.016357421875,0.181884765625,-0.09912109375
6.810,1719,1794,869,889,-10.0,35.0,33.0,-20.263669967651367,30.456541061401367,98.57176971435547,-0.8519287109375,-0.04150390625,-0.10400390625
6.835,1980,2072,939,966,-10.0,35.0,33.0,-18.6767578125,34.5458984375,120.66649627685547,-0.5975341796875,-0.2283935546875,-0.02685546875
6.835,566,2247,0,1274,-10.0,35.0,33.0,-5.493163585662842,33.8134765625,139.892578125,-0.254150390625,-0.310546875,0.1480712890625
6.836,563,3176,2052,2467,-10.0,35.0,33.0,10.620116233825684,29.602048873901367,145.08056640625,0.2613525390625,-0.3603515625,0.3302001953125
6.845,570,3176,6,3176,-10.0,35.0,33.0,19.34814453125,18.5546875,126.40380096435547,1.061279296875,-0.3642578125,0.515869140625
6.852,562,3176,20,3176,-10.0,35.0,33.0,10.681151390075684,-6.225585460662842,78.67431640625,1.724609375,0.0662841796875,0.6793212890625
6.867,540,3176,21,3176,-10.0,35.0,33.0,-9.09423828125,-41.687007904052734,7.690429210662842,1.52880859375,0.7017822265625,0.5260009765625
6.891,552,3176,17,3176,-11.0,34.0,33.0,-7.629394054412842,-75.3173828125,-65.24658203125,0.29052734375,1.387939453125,-0.3038330078125
6.891,552,3176,11,3176,-11.0,34.0,33.0,16.54052734375,-88.62303924560547,-106.01805877685547,-1.1141357421875,2.344482421875,-1.46630859375
6.898,3176,3176,3176,3176,-11.0,34.0,33.0,-4.150390625,-84.53368377685547,-118.77440643310547,-1.99169921875,2.47412109375,-1.6883544921875
6.904,3176,3176,3176,3176,-11.0,34.0,33.0,-77.94189453125,-77.08740234375,-118.59130096435547,-2.791259765625,2.168701171875,-0.7021484375
6.930,3176,3176,3176,3176,-11.0,34.0,33.0,-137.6953125,-68.17626953125,-86.66991424560547,-3.58642578125,1.3394775390625,0.4671630859375
6.930,3176,3176,3176,3176,-11.0,34.0,33.0,-136.962890625,-49.743648529052734,-43.518062591552734,-2.5946044921875,-1.056640625,0.998779296875
6.934,3176,3176,3176,3176,-11.0,34.0,33.0,-18.310546875,-20.874021530151367,-16.90673828125,-0.86865234375,-1.6815185546875,0.71826171875
6.949,3176,3176,3176,3176,-11.0,34.0,33.0,139.6484375,5.0048828125,4.21142578125,-0.7996826171875,0.4881591796875,0.0167236328125
6.956,3176,3176,3176,3176,-11.0,34.0,33.0,168.64012145996094,24.353025436401367,5.065917491912842,-1.534423828125,2.038818359375,-0.5201416015625
6.965,3176,3176,3176,3176,-11.0,34.0,33.0,67.32177734375,31.066892623901367,-18.61572265625,-2.0731201171875,1.8203125,-0.5086669921875
6.972,3176,3176,3176,3176,-10.0,35.0,36.0,-40.466304779052734,21.545408248901367,-35.2783203125,-2.1484375,0.96923828125,-0.1185302734375
6.994,3176,3176,3176,3176,-10.0,35.0,36.0,-71.4111328125,12.878417015075684,-33.99658203125,-1.956298828125,0.41015625,0.1746826171875
6.994,3176,3176,3176,3176,-10.0,35.0,36.0,-37.29248046875,17.4560546875,-23.681638717651367,-1.710693359375,0.2425537109375,0.206787109375
7.002,552,3176,12,3176,-10.0,35.0,36.0,12.878417015075684,24.780271530151367,-10.314940452575684,-1.439208984375,0.1982421875,0.179931640625
7.036,1615,3176,481,2815,-10.0,35.0,36.0,49.316402435302734,30.090330123901367,0.7324218153953552,-1.1490478515625,0.1829833984375,0.0438232421875
7.037,3176,3176,982,1466,-10.0,35.0,36.0,68.05419921875,36.9873046875,6.164550304412842,-0.85302734375,0.287841796875,-0.218994140625
7.037,2689,2785,913,962,-10.0,35.0,36.0,69.2138671875,40.0390625,5.859374523162842,-0.5135498046875,0.3228759765625,-0.3876953125
7.046,1682,1729,523,714,-10.0,35.0,36.0,58.227535247802734,36.56005859375,-1.15966796875,-0.1439208984375,0.247802734375,-0.40283203125
7.060,1083,1274,449,590,-10.0,35.0,36.0,45.227046966552734,30.761716842651367,-13.854979515075684,0.15283203125,0.26123046875,-0.301025390625
7.062,1098,1088,531,533,-10.0,35.0,36.0,30.273435592651367,25.085447311401367,-30.639646530151367,0.2197265625,0.2125244140625,-0.1793212890625
7.078,909,906,575,579,-11.0,33.0,35.0,13.122557640075684,22.155759811401367,-49.072261810302734,0.0648193359375,0.0654296875,-0.0953369140625
7.097,882,884,555,558,-11.0,33.0,35.0,-0.0610351525247097,19.775390625,-62.011714935302734,-0.1439208984375,0.093994140625,0.0189208984375
7.099,855,843,473,483,-11.0,33.0,35.0,-7.324218273162842,14.282225608825684,-64.0869140625,-0.336669921875,0.250732421875,0.1065673828125
7.106,846,848,540,552,-11.0,33.0,35.0,-10.375975608825684,7.751464366912842,-56.518550872802734,-0.4920654296875,0.361083984375,0.128173828125
7.114,843,844,536,545,-11.0,33.0,35.0,-10.803221702575684,3.356933355331421,-42.602535247802734,-0.578125,0.35400390625,0.12255859375
7.141,854,854,562,575,-11.0,33.0,35.0,-10.131834983825684,3.356933355331421,-27.709959030151367,-0.6478271484375,0.2320556640625,0.0699462890625
7.141,902,916,547,609,-11.0,33.0,35.0,-10.498045921325684,7.202147960662842,-14.709471702575684,-0.7392578125,0.08447265625,-0.008544921875
7.144,916,922,636,656,-11.0,33.0,35.0,-13.183592796325684,11.596678733825684,-2.685546636581421,-0.8184814453125,0.0047607421875,-0.0682373046875
7.155,955,955,682,687,-11.0,33.0,35.0,-16.9677734375,14.770506858825684,9.09423828125,-0.8800048828125,0.0333251953125,-0.0936279296875
7.175,1004,1008,710,729,-5.0,35.0,36.0,-18.85986328125,16.6015625,20.690916061401367,-0.909912109375,0.1422119140625,-0.0838623046875
7.175,1057,1059,738,695,-5.0,35.0,36.0,-15.991209983825684,16.9677734375,30.700681686401367,-0.89697265625,0.2425537109375,-0.065185546875
7.200,1024,1061,706,769,-5.0,35.0,36.0,-9.033203125,16.05224609375,38.39111328125,-0.8568115234375,0.2711181640625,-0.04833984375
7.200,1125,1157,725,782,-5.0,35.0,36.0,-0.30517578125,14.526366233825684,44.921871185302734,-0.807861328125,0.259765625,-0.032470703125
7.204,1194,1206,777,793,-5.0,35.0,36.0,8.72802734375,13.916014671325684,51.208492279052734,-0.781494140625,0.277587890625,-0.044189453125
7.213,1236,1253,770,782,-5.0,35.0,36.0,14.343260765075684,14.648436546325684,56.701656341552734,-0.79443359375,0.34765625,-0.08203125
7.237,1287,1308,777,787,-5.0,35.0,36.0,14.282225608825684,15.136717796325684,60.729976654052734,-0.8338623046875,0.43896484375,-0.1309814453125
7.237,1308,1320,793,803,-5.0,35.0,36.0,10.192870140075684,14.404295921325684,63.476558685302734,-0.8868408203125,0.4903564453125,-0.186279296875
7.243,1328,1339,778,799,-5.0,35.0,36.0,3.540038824081421,13.549803733825684,66.83349609375,-0.93994140625,0.4716796875,-0.2271728515625
7.256,1305,1321,814,830,-5.0,35.0,36.0,-4.39453125,15.014647483825684,73.18115234375,-0.9959716796875,0.424072265625,-0.242431640625
7.266,1268,1287,805,816,-13.0,37.0,36.0,-11.291502952575684,19.71435546875,83.37401580810547,-1.0582275390625,0.3714599609375,-0.23193359375
7.272,1260,1279,787,794,-13.0,37.0,36.0,-16.05224609375,25.634763717651367,96.80175018310547,-1.0867919921875,0.283935546875,-0.1844482421875
7.299,1462,1504,818,833,-13.0,37.0,36.0,-18.98193359375,29.296873092651367,111.08397674560547,-0.98388671875,0.1197509765625,-0.1005859375
7.300,1700,1788,873,878,-13.0,37.0,36.0,-21.118162155151367,26.184080123901367,121.94823455810547,-0.6375732421875,-0.10205078125,0.0262451171875
7.302,2093,2337,631,1183,-13.0,37.0,36.0,-18.49365234375,13.366698265075684,123.41307830810547,-0.09619140625,-0.2559814453125,0.2159423828125
7.316,3176,3176,1894,2279,-13.0,37.0,36.0,-0.4882812201976776,-8.30078125,106.26219940185547,0.672119140625,-0.36474609375,0.4451904296875
7.346,545,3176,4,3176,-13.0,37.0,36.0,26.367185592651367,-35.2783203125,58.593746185302734,1.4473876953125,-0.1395263671875,0.58740234375
7.347,548,3176,3176,3176,-13.0,37.0,36.0,38.9404296875,-61.950679779052734,-9.033203125,1.79150390625,0.5548095703125,0.5064697265625
7.347,536,3176,24,3176,-13.0,37.0,36.0,38.9404296875,-61.950679779052734,-9.033203125,1.2908935546875,1.1016845703125,0.101806640625
7.356,558,3176,11,3176,-13.0,37.0,36.0,2.3193359375,-97.22899627685547,-130.7373046875,-0.120849609375,1.591064453125,-0.7838134765625
7.363,548,3176,18,3176,-9.0,35.0,39.0,-28.808591842651367,-81.90917205810547,-145.01953125,-1.5191650390625,2.2532958984375,-1.6226806640625
7.371,3176,3176,3176,3176,-9.0,35.0,39.0,-28.808591842651367,-81.90917205810547,-145.01953125,-2.3197021484375,2.050537109375,-1.420166015625
7.401,556,3176,2174,3176,-9.0,35.0,39.0,-160.76658630371094,-69.580078125,-139.6484375,-3.0596923828125,1.5155029296875,-0.32080078125
7.403,572,3176,3176,3176,-9.0,35.0,39.0,-177.79539489746094,-69.4580078125,-107.48290252685547,-3.719482421875,0.3687744140625,0.68603515625
7.404,582,3176,3176,3176,-9.0,35.0,39.0,-177.79539489746094,-69.4580078125,-107.48290252685547,-2.7647705078125,-1.61962890625,0.8917236328125
7.415,575,3176,3176,3176,-9.0,35.0,39.0,26.855466842651367,-29.785154342651367,-29.602048873901367,-1.27099609375,-1.2716064453125,0.49658203125
7.423,3176,3176,7,3176,-9.0,35.0,39.0,151.06201171875,-8.11767578125,-0.2441406100988388,-1.0577392578125,0.9417724609375,0.104248046875
7.448,572,3176,8,3176,-9.0,35.0,39.0,151.06201171875,-8.11767578125,-0.2441406100988388,-1.5029296875,1.952880859375,-0.15869140625
7.449,593,3176,3176,3176,-9.0,35.0,39.0,43.701168060302734,30.517576217651367,-11.108397483825684,-1.89306640625,1.4246826171875,-0.2406005859375
7.453,576,3176,3176,3176,-9.0,35.0,39.0,-35.46142578125,36.43798828125,-14.038084983825684,-1.890625,0.55517578125,-0.1416015625
7.461,577,3176,14,3176,-11.0,34.0,37.0,-35.46142578125,36.43798828125,-14.038084983825684,-1.7054443359375,0.190185546875,-0.0650634765625
7.475,3176,3176,1889,3176,-11.0,34.0,37.0,-30.029294967651367,41.137691497802734,11.352538108825684,-1.4940185546875,0.1932373046875,-0.0201416015625
7.483,570,3176,6,3176,-11.0,34.0,37.0,5.493163585662842,37.65869140625,16.4794921875,-1.236328125,0.2156982421875,-0.0211181640625
7.512,705,3176,0,3173,-11.0,34.0,37.0,5.493163585662842,37.65869140625,16.4794921875,-0.9359130859375,0.262451171875,-0.1214599609375
7.513,2518,3045,1192,1351,-11.0,34.0,37.0,48.767086029052734,36.376953125,10.131834983825684,-0.6475830078125,0.3353271484375,-0.206787109375
7.513,1064,2221,81,1185,-11.0,34.0,37.0,51.757808685302734,35.64453125,6.042479991912842,-0.3553466796875,0.3255615234375,-0.227783203125
7.523,1635,1682,955,982,-11.0,34.0,37.0,51.757808685302734,35.64453125,6.042479991912842,-0.0570068359375,0.2490234375,-0.1868896484375
7.543,1186,1225,359,758,-11.0,34.0,37.0,41.809078216552734,32.1044921875,-13.916014671325684,0.1260986328125,0.132080078125,-0.05615234375
7.544,1074,1089,632,659,-11.0,34.0,37.0,31.127927780151367,28.991697311401367,-27.832029342651367,0.13134765625,0.0008544921875,0.131591796875
7.556,939,976,473,588,-11.0,34.0,37.0,31.127927780151367,28.991697311401367,-27.832029342651367,-0.0299072265625,0.04296875,0.21728515625
7.565,963,963,607,612,-11.0,34.0,37.0,13.732909202575684,25.085447311401367,-45.471187591552734,-0.2305908203125,0.2994384765625,0.154541015625
7.575,968,981,609,631,-11.0,34.0,37.0,9.46044921875,23.193357467651367,-44.738765716552734,-0.345458984375,0.5247802734375,0.034912109375
7.587,982,990,650,657,-11.0,34.0,37.0,9.46044921875,23.193357467651367,-44.738765716552734,-0.4610595703125,0.601806640625,-0.0565185546875
7.608,1022,1035,631,644,-11.0,34.0,37.0,-1.8310545682907104,10.681151390075684,-36.865234375,-0.5892333984375,0.5438232421875,-0.11865234375
7.609,1070,1053,616,628,-11.0,34.0,37.0,2.0751953125,3.967284917831421,-30.883787155151367,-0.7100830078125,0.33740234375,-0.1990966796875
7.612,1078,1088,609,620,-11.0,34.0,37.0,2.0751953125,3.967284917831421,-30.883787155151367,-0.835693359375,0.1070556640625,-0.2623291015625
7.625,1138,1153,664,673,-11.0,34.0,37.0,-2.563476324081421,0.6103515625,-15.686034202575684,-0.9173583984375,-0.0010986328125,-0.2724609375
7.646,1157,1172,662,673,-11.0,34.0,37.0,-7.751464366912842,-0.6103515625,-4.94384765625,-0.948974609375,0.0009765625,-0.228271484375
7.646,1191,1209,674,687,-11.0,34.0,37.0,-7.751464366912842,-0.6103515625,-4.94384765625,-0.9564208984375,0.0662841796875,-0.1588134765625
7.661,1257,1287,694,706,-11.0,34.0,37.0,-8.60595703125,-5.065917491912842,16.41845703125,-0.9598388671875,0.163330078125,-0.10888671875
7.663,1290,1308,715,738,-10.0,33.0,31.0,-0.6103515625,-6.286620616912842,24.658201217651367,-0.9599609375,0.252197265625,-0.0728759765625
7.671,1328,1357,729,753,-10.0,33.0,31.0,-0.6103515625,-6.286620616912842,24.658201217651367,-0.93701171875,0.3104248046875,-0.03955078125
7.685,1409,1442,794,809,-10.0,33.0,31.0,12.695311546325684,-7.263183116912842,35.21728515625,-0.8988037109375,0.339111328125,-0.032470703125
7.712,1415,1469,801,846,-10.0,33.0,31.0,14.709471702575684,-5.432128429412842,39.61181640625,-0.8782958984375,0.353759765625,-0.056640625
7.713,1409,1496,723,846,-10.0,33.0,31.0,14.709471702575684,-5.432128429412842,39.61181640625,-0.89794921875,0.3748779296875,-0.090087890625
7.715,1428,1454,868,883,-10.0,33.0,31.0,3.601073980331421,3.234863042831421,53.466793060302734,-0.9495849609375,0.3900146484375,-0.12060546875
7.723,1382,1398,873,891,-10.0,33.0,31.0,-9.82666015625,9.765625,65.5517578125,-1.00634765625,0.3575439453125,-0.1448974609375
7.752,1313,1320,834,849,-10.0,33.0,31.0,-9.82666015625,9.765625,65.5517578125,-1.044921875,0.2637939453125,-0.159912109375
7.752,1182,1225,780,819,-10.0,33.0,31.0,-32.8369140625,24.658201217651367,99.42626190185547,-1.044921875,0.1728515625,-0.15576171875
7.755,1286,1300,815,828,-14.0,36.0,32.0,-35.0341796875,29.968259811401367,118.46923065185547,-0.9742431640625,0.1207275390625,-0.1153564453125
7.772,1502,1566,710,916,-14.0,36.0,32.0,-35.0341796875,29.968259811401367,118.46923065185547,-0.6724853515625,0.007080078125,0.0032958984375
7.777,2074,2665,523,1173,-14.0,36.0,32.0,-32.1044921875,19.34814453125,136.77978515625,0.01220703125,-0.2188720703125,0.255859375
7.784,559,3176,1223,1996,-14.0,36.0,32.0,-18.24951171875,-6.774901866912842,115.72264862060547,0.9556884765625,-0.4591064453125,0.497314453125
7.792,547,3176,0,3176,-14.0,36.0,32.0,-18.24951171875,-6.774901866912842,115.72264862060547,1.7469482421875,-0.30908203125,0.59033203125
7.814,538,3176,21,3176,-14.0,36.0,32.0,40.649410247802734,-77.5146484375,2.3193359375,2.019775390625,0.273193359375,0.5135498046875
7.814,527,3176,19,3176,-14.0,36.0,32.0,49.072261810302734,-99.67040252685547,-68.29833984375,1.3316650390625,0.918701171875,0.14208984375
7.822,556,3176,11,3176,-14.0,36.0,32.0,49.072261810302734,-99.67040252685547,-68.29833984375,-0.2752685546875,1.821044921875,-0.888916015625
7.851,552,3176,19,3176,-14.0,36.0,32.0,20.690916061401367,-76.96533203125,-134.46044921875,-1.7960205078125,2.7442626953125,-1.8939208984375
7.853,3176,3176,3176,3176,-14.0,36.0,32.0,-55.419918060302734,-69.4580078125,-135.80322265625,-2.6700439453125,2.477294921875,-1.6376953125
7.853,631,3176,5,3176,-10.0,33.0,37.0,-55.419918060302734,-69.4580078125,-135.80322265625,-3.3519287109375,1.5899658203125,-0.2034912109375
7.874,3176,3176,3176,3176,-10.0,33.0,37.0,-196.89939880371094,-81.42089080810547,-103.63768768310547,-3.630126953125,-0.2286376953125,1.1002197265625
7.876,3176,3176,3176,3176,-10.0,33.0,37.0,-122.25341033935547,-63.293453216552734,-61.096187591552734,-2.33984375,-2.024658203125,1.15185546875
7.883,3176,3176,3176,3176,-10.0,33.0,37.0,-122.25341033935547,-63.293453216552734,-61.096187591552734,-1.0447998046875,-0.8956298828125,0.4547119140625
7.898,3176,3176,3176,3176,-10.0,33.0,37.0,163.08592224121094,-8.056640625,4.94384765625,-1.0733642578125,1.3388671875,-0.0377197265625
7.915,3176,3176,3176,3176,-10.0,33.0,37.0,124.38964080810547,10.681151390075684,2.807616949081421,-1.5045166015625,1.9957275390625,-0.19091796875
7.916,3176,3176,3176,3176,-10.0,33.0,37.0,124.38964080810547,10.681151390075684,2.807616949081421,-1.86279296875,1.304443359375,-0.155029296875
7.926,3176,3176,3176,3176,-10.0,33.0,37.0,-33.75244140625,27.526853561401367,-20.141599655151367,-1.8740234375,0.56640625,-0.05810546875
7.934,3176,3176,3176,3176,-10.0,33.0,37.0,-38.39111328125,29.602048873901367,-15.441893577575684,-1.707763671875,0.3399658203125,-0.0396728515625
7.953,3176,3176,3176,3176,-10.0,33.0,37.0,-38.39111328125,29.602048873901367,-15.441893577575684,-1.48095703125,0.30859375,-0.016845703125
7.962,3176,3176,2039,3176,-10.0,33.0,40.0,3.173827886581421,32.8369140625,-0.6103515625,-1.212158203125,0.22509765625,-0.022705078125
7.964,576,3176,497,3022,-10.0,33.0,40.0,17.333984375,38.330078125,4.82177734375,-0.9376220703125,0.1776123046875,-0.1103515625
7.981,579,3022,0,1819,-10.0,33.0,40.0,17.333984375,38.330078125,4.82177734375,-0.687255859375,0.1575927734375,-0.1839599609375
7.986,1812,1914,26,1160,-10.0,33.0,40.0,23.986814498901367,49.926753997802734,17.822265625,-0.4208984375,0.080078125,-0.1624755859375
7.995,833,1516,810,957,-10.0,33.0,40.0,20.751951217651367,47.485347747802734,15.686034202575684,-0.125732421875,-0.0595703125,-0.0859375
8.019,1239,1253,745,907,-10.0,33.0,40.0,20.751951217651367,47.485347747802734,15.686034202575684,0.0673828125,-0.160400390625,0.00244140625
8.020,1021,1048,439,726,-10.0,33.0,40.0,24.230955123901367,38.87939453125,-11.169432640075684,0.0731201171875,-0.1109619140625,0.1475830078125
8.024,969,971,689,687,-10.0,33.0,40.0,23.132322311401367,31.494138717651367,-28.564451217651367,-0.0738525390625,0.1416015625,0.2198486328125
8.032,929,943,629,697,-10.0,33.0,40.0,23.132322311401367,31.494138717651367,-28.564451217651367,-0.0738525390625,0.1416015625,0.2198486328125
8.056,861,916,631,645,-10.0,33.0,40.0,17.63916015625,25.207517623901367,-46.325679779052734,-0.3011474609375,0.7470703125,-0.0015869140625
8.056,942,944,657,669,-10.0,34.0,35.0,17.63916015625,25.207517623901367,-46.325679779052734,-0.3785400390625,0.796630859375,-0.102294921875
8.063,982,992,687,708,-10.0,34.0,35.0,6.530761241912842,22.949216842651367,-45.043941497802734,-0.3785400390625,0.796630859375,-0.102294921875
8.076,1043,1059,738,761,-10.0,34.0,35.0,-8.60595703125,14.770506858825684,-26.550291061401367,-0.597900390625,0.3126220703125,-0.193359375
8.087,1048,1071,763,787,-10.0,34.0,35.0,-8.60595703125,14.770506858825684,-26.550291061401367,-0.71435546875,0.0142822265625,-0.2027587890625
8.092,1097,1115,774,805,-10.0,34.0,35.0,-16.54052734375,12.207030296325684,-19.4091796875,-0.71435546875,0.0142822265625,-0.2027587890625
8.119,1130,1131,814,828,-10.0,34.0,35.0,-31.311033248901367,10.864256858825684,2.38037109375,-0.928466796875,0.01708984375,-0.1207275390625
8.119,1189,1199,767,779,-10.0,34.0,35.0,-31.311033248901367,10.864256858825684,2.38037109375,-0.9713134765625,0.1849365234375,-0.0833740234375
8.123,1225,1246,763,781,-10.0,34.0,35.0,-26.489255905151367,8.9111328125,16.4794921875,-0.9713134765625,0.1849365234375,-0.0833740234375
8.136,1303,1335,774,806,-10.0,34.0,35.0,-8.9111328125,6.469726085662842,35.33935546875,-1.033447265625,0.3948974609375,-0.0599365234375
8.159,1317,1365,777,823,-10.0,34.0,35.0,-8.9111328125,6.469726085662842,35.33935546875,-1.0140380859375,0.3505859375,-0.0322265625
8.159,1365,1388,830,854,-10.0,37.0,35.0,-3.356933355331421,4.45556640625,40.466304779052734,-1.0140380859375,0.3505859375,-0.0322265625
8.167,1396,1417,871,899,-10.0,37.0,35.0,11.962889671325684,1.7700194120407104,51.025386810302734,-0.9053955078125,0.228515625,-0.051025390625
8.174,1397,1417,888,907,-10.0,37.0,35.0,11.962889671325684,1.7700194120407104,51.025386810302734,-0.8900146484375,0.27783203125,-0.0989990234375
8.196,1377,1399,868,882,-10.0,37.0,35.0,17.578125,4.82177734375,60.119625091552734,-0.8900146484375,0.27783203125,-0.0989990234375
8.196,1341,1343,846,873,-10.0,37.0,35.0,9.82666015625,16.78466796875,82.15331268310547,-0.9461669921875,0.3651123046875,-0.227294921875
8.221,1300,1316,846,871,-10.0,37.0,35.0,9.82666015625,16.78466796875,82.15331268310547,-0.9678955078125,0.3232421875,-0.2359619140625
8.224,1370,1385,887,904,-10.0,37.0,35.0,-2.563476324081421,22.155759811401367,93.99413299560547,-0.9678955078125,0.3232421875,-0.2359619140625
8.226,1659,1718,1024,1064,-10.0,37.0,35.0,-22.644041061401367,27.954099655151367,116.82128143310547,-0.694091796875,0.1492919921875,-0.083984375
8.234,1894,2062,928,1185,-10.0,37.0,35.0,-22.644041061401367,27.954099655151367,116.82128143310547,-0.323486328125,0.05419921875,0.0703125
8.243,2039,2671,916,1382,-10.0,37.0,35.0,-25.695798873901367,25.756834030151367,118.65233612060547,-0.323486328125,0.05419921875,0.0703125
8.260,3176,3176,2228,2697,-15.0,34.0,36.0,-15.136717796325684,-6.164550304412842,81.05467987060547,0.972900390625,-0.1507568359375,0.3336181640625
8.265,563,3176,17,3176,-15.0,34.0,36.0,-15.136717796325684,-6.164550304412842,81.05467987060547,1.60546875,0.008056640625,0.3651123046875
8.272,3176,3176,2113,3176,-15.0,34.0,36.0,-1.8920897245407104,-41.259761810302734,34.5458984375,1.60546875,0.008056640625,0.3651123046875
8.286,562,3176,8,3176,-15.0,34.0,36.0,42.297359466552734,-108.03221893310547,-88.80614471435547,0.7735595703125,0.8988037109375,0.0206298828125
8.299,572,3176,7,3176,-15.0,34.0,36.0,42.297359466552734,-108.03221893310547,-88.80614471435547,-0.892333984375,1.8199462890625,-0.668212890625
8.325,569,3176,9,3176,-15.0,34.0,36.0,45.104976654052734,-109.06981658935547,-133.4228515625,-0.892333984375,1.8199462890625,-0.668212890625
8.325,570,3176,3176,3176,-15.0,34.0,36.0,-74.8291015625,-70.3125,-129.33349609375,-2.7786865234375,1.932861328125,-0.970947265625
8.325,3176,3176,0,3176,-15.0,34.0,36.0,-74.8291015625,-70.3125,-129.33349609375,-3.4320068359375,0.8740234375,0.003173828125
8.332,3176,3176,3176,3176,-15.0,34.0,36.0,-146.728515625,-60.180660247802734,-108.09325408935547,-3.4320068359375,0.8740234375,0.003173828125
8.346,3135,3176,431,3176,-10.0,33.0,35.0,-71.22802734375,-22.583005905151367,-25.939939498901367,-2.4127197265625,-2.0386962890625,0.811279296875
8.365,3176,3176,3176,3176,-10.0,33.0,35.0,-71.22802734375,-22.583005905151367,-25.939939498901367,-1.223876953125,-0.5731201171875,0.3587646484375
8.365,3176,3176,3176,3176,-10.0,33.0,35.0,59.020992279052734,3.417968511581421,19.10400390625,-1.223876953125,-0.5731201171875,0.3587646484375
8.376,586,3176,1952,3176,-10.0,33.0,35.0,99.85350799560547,26.611326217651367,30.456541061401367,-1.5369873046875,2.106689453125,-0.2593994140625
8.385,3176,3176,3176,3176,-10.0,33.0,35.0,99.85350799560547,26.611326217651367,30.456541061401367,-1.70458984375,1.4390869140625,-0.3353271484375
8.392,584,3176,1469,3176,-10.0,33.0,35.0,34.72900390625,27.282712936401367,-2.25830078125,-1.70458984375,1.4390869140625,-0.3353271484375
8.429,572,3176,7,3176,-10.0,33.0,35.0,-1.7700194120407104,16.17431640625,-30.883787155151367,-1.5279541015625,0.2879638671875,-0.1334228515625
8.429,3176,3176,3176,3176,-10.0,33.0,35.0,-1.7700194120407104,16.17431640625,-30.883787155151367,-1.379638671875,0.1527099609375,-0.0362548828125
8.430,578,3176,3176,3176,-10.0,33.0,35.0,21.484373092651367,12.268065452575684,-29.479978561401367,-1.379638671875,0.1527099609375,-0.0362548828125
8.436,3176,3176,2275,2935,-10.0,33.0,35.0,52.673336029052734,10.986327171325684,-21.789548873901367,-1.002685546875,0.298828125,-0.18603515625
8.445,2364,3176,1588,1785,-10.0,34.0,35.0,52.673336029052734,10.986327171325684,-21.789548873901367,-0.7603759765625,0.347900390625,-0.2919921875
8.468,2456,2576,1384,1457,-10.0,34.0,35.0,47.241207122802734,15.686034202575684,-17.39501953125,-0.7603759765625,0.347900390625,-0.2919921875
8.468,1580,1613,1024,1043,-10.0,34.0,35.0,25.573728561401367,20.263669967651367,-14.038084983825684,-0.1121826171875,0.341552734375,-0.300537109375
8.474,1159,1267,741,830,-10.0,34.0,35.0,25.573728561401367,20.263669967651367,-14.038084983825684,0.089599609375,0.21337890625,-0.161865234375
8.483,1129,1131,691,792,-10.0,34.0,35.0,17.4560546875,19.10400390625,-20.874021530151367,0.089599609375,0.21337890625,-0.161865234375
8.496,992,994,774,792,-10.0,34.0,35.0,8.7890625,17.08984375,-34.1796875,-0.023193359375,0.0230712890625,0.1376953125
8.504,922,964,788,822,-10.0,34.0,35.0,5.737304210662842,15.869139671325684,-47.302242279052734,-0.148681640625,0.277587890625,0.1920166015625
8.531,951,949,835,858,-10.0,34.0,35.0,5.737304210662842,14.221190452575684,-54.199214935302734,-0.148681640625,0.277587890625,0.1920166015625
8.531,968,976,818,822,-10.0,34.0,35.0,-1.4648436307907104,11.169432640075684,-54.077144622802734,-0.4439697265625,0.5843505859375,0.1072998046875
8.534,982,998,721,736,-10.0,34.0,35.0,-13.793944358825684,7.507323741912842,-48.400875091552734,-0.4439697265625,0.5843505859375,0.1072998046875
8.543,1034,1034,675,689,-10.0,33.0,34.0,-22.521970748901367,4.45556640625,-40.466304779052734,-0.559814453125,0.4429931640625,0.0384521484375
8.568,1050,1101,638,711,-10.0,33.0,34.0,-25.085447311401367,4.21142578125,-32.71484375,-0.7913818359375,-0.0924072265625,-0.1214599609375
8.568,1143,1170,683,722,-10.0,33.0,34.0,-23.254392623901367,6.408690929412842,-23.376462936401367,-0.7913818359375,-0.0924072265625,-0.1214599609375
8.573,1194,1204,734,746,-10.0,33.0,34.0,-19.34814453125,8.056640625,-12.023924827575684,-0.9166259765625,-0.12109375,-0.1630859375
