time,compression0,compression1,compression2,compression3,magn_x,magn_y,magn_z,gyro_x,gyro_y,gyro_z,accel_x,accel_y,accel_z
0.041,347,3147,1243,1427,5.0,31.0,12.0,-13.671874046325684,-8.9111328125,9.1552734375,-0.7955322265625,0.55908203125,0.1986083984375
0.051,349,3147,1226,1422,5.0,31.0,12.0,-13.427733421325684,-4.08935546875,7.324218273162842,-0.8125,0.552734375,0.1817626953125
0.052,348,3147,1255,1433,5.0,31.0,12.0,-16.7236328125,0.4882812201976776,6.835937023162842,-0.8306884765625,0.505615234375,0.136474609375
0.054,334,3147,1278,1416,5.0,31.0,12.0,-23.071287155151367,2.929687261581421,7.995604991912842,-0.833251953125,0.427978515625,0.10595703125
0.054,348,3147,1289,1445,5.0,31.0,12.0,-27.770994186401367,2.01416015625,9.8876953125,-0.8287353515625,0.381591796875,0.0882568359375
0.054,369,3147,1308,1464,5.0,31.0,12.0,-27.221677780151367,-2.746581792831421,11.352538108825684,-0.829833984375,0.39208984375,0.0802001953125
0.062,375,3147,1330,1412,5.0,31.0,12.0,-21.484373092651367,-10.070799827575684,12.451170921325684,-0.8450927734375,0.439208984375,0.09619140625
0.070,369,3147,1345,1428,5.0,31.0,12.0,-13.488768577575684,-16.9677734375,14.465331077575684,-0.87646484375,0.4832763671875,0.1182861328125
0.088,363,3147,1318,1334,5.0,31.0,12.0,-7.507323741912842,-20.385740280151367,19.04296875,-0.912109375,0.4794921875,0.1156005859375
0.092,354,3147,1348,1336,7.0,32.0,15.0,-4.8828125,-20.385740280151367,27.526853561401367,-0.9486083984375,0.4267578125,0.111328125
0.100,543,3147,1078,1222,7.0,32.0,15.0,-3.417968511581421,-19.53125,41.076656341552734,-0.96435546875,0.331787109375,0.1297607421875
0.108,438,3147,1189,1213,7.0,32.0,15.0,-3.173827886581421,-18.98193359375,58.715816497802734,-0.932861328125,0.1983642578125,0.1356201171875
0.129,334,3147,1219,1255,7.0,32.0,15.0,-7.934569835662842,-19.71435546875,76.416015625,-0.8709716796875,0.164306640625,0.143310546875
0.130,346,3147,1103,1357,7.0,32.0,15.0,-18.49365234375,-25.817869186401367,88.31786346435547,-0.7528076171875,0.282470703125,0.24169921875
0.139,346,3147,1098,1531,7.0,32.0,15.0,-20.751951217651367,-34.36279296875,85.38817596435547,-0.45556640625,0.3363037109375,0.3519287109375
0.152,625,3147,1051,1826,7.0,32.0,15.0,4.150390625,-35.400390625,59.387203216552734,0.0147705078125,0.2645263671875,0.4166259765625
0.160,348,3147,1143,2024,7.0,32.0,15.0,60.546871185302734,-27.038572311401367,9.21630859375,0.44970703125,0.158203125,0.5816650390625
0.170,354,3147,1413,2504,7.0,32.0,15.0,132.62939453125,-10.192870140075684,-58.532711029052734,0.8004150390625,0.09228515625,0.54248046875
0.194,369,3147,1783,3065,8.0,30.0,17.0,162.59764099121094,14.587401390075684,-123.96239471435547,0.929931640625,0.2025146484375,-0.145751953125
0.194,405,3147,1949,3147,8.0,30.0,17.0,90.94237518310547,23.681638717651367,-151.55029296875,0.615478515625,0.5064697265625,-0.836181640625
0.198,406,3147,2105,3147,8.0,30.0,17.0,-38.57421875,-3.417968511581421,-134.8876953125,-0.1187744140625,1.26708984375,-0.759765625
0.212,410,3147,2676,3147,8.0,30.0,17.0,-150.390625,-41.870113372802734,-105.40770721435547,-1.20263671875,2.31201171875,-0.1038818359375
0.231,567,3147,2881,3147,8.0,30.0,17.0,-250.91551208496094,-60.424800872802734,-78.0029296875,-2.27587890625,2.4888916015625,0.6307373046875
0.231,428,3147,3056,3147,8.0,30.0,17.0,-343.6278991699219,-56.396480560302734,-48.706050872802734,-3.072265625,1.05615234375,1.0316162109375
0.244,673,3147,2877,3147,8.0,30.0,17.0,-343.5058288574219,-32.28759765625,-18.798828125,-3.4222412109375,-0.9959716796875,0.9222412109375
0.262,910,3147,2619,3147,8.0,30.0,17.0,-191.04002380371094,-1.4038084745407104,-1.220703125,-2.92138671875,-2.130615234375,0.45556640625
0.262,790,3147,2590,3147,8.0,30.0,17.0,34.48486328125,4.0283203125,-5.493163585662842,-1.8746337890625,-1.500244140625,0.2076416015625
0.267,548,3147,2648,3147,8.0,30.0,17.0,191.52830505371094,-13.366698265075684,-20.080564498901367,-0.905029296875,0.4334716796875,0.3226318359375
0.332,438,3147,2840,3147,11.0,29.0,16.0,210.57127380371094,-11.718749046325684,-33.203125,-0.35595703125,1.9881591796875,0.346435546875
0.332,438,3147,2856,3147,11.0,29.0,16.0,125.97655487060547,17.578125,-44.860836029052734,-0.5023193359375,2.4400634765625,0.19677734375
0.332,431,3147,2955,3147,11.0,29.0,16.0,125.97655487060547,17.578125,-44.860836029052734,-1.126953125,1.9427490234375,0.1136474609375
0.332,430,3147,3032,3147,11.0,29.0,16.0,-82.58055877685547,32.77587890625,-50.537105560302734,-1.640869140625,0.8963623046875,0.1485595703125
0.335,414,3147,3073,3147,11.0,29.0,16.0,-95.39794158935547,22.277830123901367,-51.147457122802734,-1.7493896484375,0.08203125,0.215087890625
0.336,479,3147,2981,3147,11.0,29.0,16.0,-95.39794158935547,22.277830123901367,-51.147457122802734,-1.53759765625,-0.1058349609375,0.3123779296875
0.355,465,3147,2853,3147,11.0,29.0,16.0,-2.44140625,0.9155272841453552,-43.273921966552734,-1.1607666015625,0.08544921875,0.43017578125
0.370,569,3147,2726,3147,11.0,29.0,16.0,22.216794967651367,-1.7700194120407104,-30.578611373901367,-0.806396484375,0.2462158203125,0.5037841796875
0.371,473,3147,2589,2990,11.0,29.0,16.0,22.216794967651367,-1.7700194120407104,-30.578611373901367,-0.614501953125,0.2706298828125,0.4697265625
0.378,522,3147,2233,2532,11.0,29.0,16.0,35.94970703125,22.521970748901367,-25.329587936401367,-0.5804443359375,0.29736328125,0.343505859375
0.404,548,3147,2127,2231,8.0,29.0,14.0,35.58349609375,32.470703125,-31.005857467651367,-0.625732421875,0.3031005859375,0.1982421875
0.406,513,3147,2004,2065,8.0,29.0,14.0,35.58349609375,32.470703125,-31.005857467651367,-0.67919921875,0.2015380859375,0.0858154296875
0.406,470,3147,1915,1634,8.0,29.0,14.0,25.512693405151367,33.75244140625,-34.36279296875,-0.69921875,0.0682373046875,0.0140380859375
0.440,441,3147,1815,1480,8.0,29.0,14.0,25.146482467651367,30.395505905151367,-31.372068405151367,-0.6968994140625,-0.00634765625,-0.0299072265625
0.441,411,3147,1816,1217,8.0,29.0,14.0,25.146482467651367,30.395505905151367,-31.372068405151367,-0.70068359375,-0.02880859375,-0.028564453125
0.441,682,3147,1091,963,8.0,29.0,14.0,26.367185592651367,17.27294921875,-16.05224609375,-0.6925048828125,-0.0277099609375,0.0294189453125
0.442,475,3147,1569,1057,8.0,29.0,14.0,21.484373092651367,10.986327171325684,-6.347655773162842,-0.66455078125,0.0201416015625,0.095703125
0.453,406,3147,1643,922,8.0,29.0,14.0,21.484373092651367,10.986327171325684,-6.347655773162842,-0.64599609375,0.119873046875,0.1336669921875
0.477,386,3147,1641,904,8.0,29.0,14.0,15.319823265075684,12.023924827575684,5.0048828125,-0.66650390625,0.2083740234375,0.1458740234375
0.479,555,3147,1518,861,8.0,29.0,14.0,15.930174827575684,15.197752952575684,3.906249761581421,-0.734130859375,0.27490234375,0.1656494140625
0.501,430,3147,1508,917,9.0,31.0,16.0,18.5546875,14.709471702575684,-1.03759765625,-0.81494140625,0.3436279296875,0.216552734375
0.501,391,3147,1564,780,9.0,31.0,16.0,18.5546875,14.709471702575684,-1.03759765625,-0.8873291015625,0.4237060546875,0.2591552734375
0.504,1574,3147,1045,574,9.0,31.0,16.0,34.66796875,13.061522483825684,-11.230467796325684,-0.94970703125,0.4720458984375,0.201171875
0.513,437,3147,1553,526,9.0,31.0,16.0,44.006343841552734,11.535643577575684,-11.718749046325684,-0.96533203125,0.4404296875,0.061279296875
0.522,418,3147,1506,433,9.0,31.0,16.0,44.006343841552734,11.535643577575684,-11.718749046325684,-0.934326171875,0.3690185546875,-0.002685546875
0.535,480,3147,1527,361,9.0,31.0,16.0,40.588375091552734,-3.967284917831421,1.03759765625,-0.910400390625,0.290771484375,0.0498046875
0.544,579,3000,730,309,9.0,31.0,16.0,37.17041015625,-10.437010765075684,7.202147960662842,-0.91162109375,0.208984375,0.1248779296875
0.551,1543,2843,1452,356,9.0,31.0,16.0,37.17041015625,-10.437010765075684,7.202147960662842,-0.9302978515625,0.167236328125,0.167236328125
0.565,526,2643,319,308,9.0,31.0,16.0,48.767086029052734,-13.671874046325684,13.732909202575684,-0.95751953125,0.1981201171875,0.172119140625
0.576,1239,2532,319,292,11.0,28.0,21.0,50.903316497802734,-12.756346702575684,14.953612327575684,-0.9647216796875,0.2877197265625,0.1644287109375
0.579,1387,2347,314,316,11.0,28.0,21.0,50.903316497802734,-12.756346702575684,14.953612327575684,-0.95751953125,0.39453125,0.164794921875
0.602,910,2030,1117,336,11.0,28.0,21.0,45.166011810302734,-8.7890625,9.8876953125,-0.9451904296875,0.4658203125,0.143798828125
0.604,1727,1952,317,308,11.0,28.0,21.0,43.518062591552734,-6.408690929412842,5.432128429412842,-0.8812255859375,0.532958984375,0.051025390625
0.610,1762,1920,332,294,11.0,28.0,21.0,43.518062591552734,-6.408690929412842,5.432128429412842,-0.81884765625,0.5550537109375,-0.025634765625
0.623,780,1730,1108,310,11.0,28.0,21.0,-1.3427733182907104,-3.540038824081421,-2.746581792831421,-0.8179931640625,0.415283203125,0.0279541015625
0.638,1819,1686,946,338,11.0,28.0,21.0,-1.3427733182907104,-3.540038824081421,-2.746581792831421,-0.8223876953125,0.265625,0.11181640625
0.639,1790,1686,1014,308,11.0,28.0,21.0,-25.878904342651367,-4.94384765625,-0.6103515625,-0.8223876953125,0.265625,0.11181640625
0.647,793,1617,991,309,11.0,28.0,21.0,-29.907224655151367,-6.469726085662842,7.690429210662842,-0.8148193359375,0.2342529296875,0.13427734375
0.661,1362,1739,766,308,11.0,28.0,21.0,-36.19384765625,-10.498045921325684,30.212400436401367,-0.8475341796875,0.1619873046875,0.1195068359375
0.669,1390,1840,1274,328,8.0,32.0,15.0,-36.19384765625,-10.498045921325684,30.212400436401367,-0.83251953125,0.100341796875,0.111083984375
0.681,499,1973,1689,361,8.0,32.0,15.0,-42.419429779052734,-14.404295921325684,43.701168060302734,-0.83251953125,0.100341796875,0.111083984375
0.691,382,2456,1588,359,8.0,32.0,15.0,-50.598140716552734,-21.850584030151367,69.091796875,-0.5751953125,0.220703125,0.19091796875
0.708,531,2899,1519,364,8.0,32.0,15.0,-50.598140716552734,-21.850584030151367,69.091796875,-0.3018798828125,0.3353271484375,0.2664794921875
0.709,428,3147,1536,548,8.0,32.0,15.0,-50.964351654052734,-22.949216842651367,69.580078125,-0.3018798828125,0.3353271484375,0.2664794921875
0.724,376,3147,2100,1669,8.0,32.0,15.0,-36.19384765625,-24.841306686401367,16.05224609375,0.6220703125,0.4227294921875,0.5513916015625
0.744,813,3147,2106,2166,8.0,32.0,15.0,-36.19384765625,-24.841306686401367,16.05224609375,0.6220703125,0.4227294921875,0.5513916015625
0.744,382,3147,2492,2622,8.0,32.0,15.0,-6.286620616912842,-32.958984375,-40.954586029052734,1.316650390625,-0.0760498046875,0.384765625
0.751,388,3147,2981,3147,8.0,32.0,15.0,50.720211029052734,-29.174802780151367,-101.56249237060547,0.61572265625,0.9791259765625,-0.300537109375
0.759,404,3147,3147,3147,8.0,32.0,15.0,48.889156341552734,-19.34814453125,-125.06102752685547,0.61572265625,0.9791259765625,-0.300537109375
0.767,999,3147,3147,3147,13.0,29.0,18.0,-67.19970703125,-15.991209983825684,-105.83495330810547,-0.779296875,1.4417724609375,0.236083984375
0.816,884,3147,3147,3147,13.0,29.0,18.0,-224.18211364746094,0.6103515625,-76.59912109375,-3.0736083984375,0.908935546875,0.2332763671875
0.816,1001,3147,3147,3147,13.0,29.0,18.0,-340.1488952636719,19.6533203125,-56.091304779052734,-3.0736083984375,0.908935546875,0.2332763671875
0.817,1050,3147,3147,3147,13.0,29.0,18.0,-357.1777038574219,10.681151390075684,-39.24560546875,-3.6468505859375,0.2728271484375,0.315185546875
0.820,1224,3147,3147,3147,13.0,29.0,18.0,-266.05224609375,-18.5546875,-14.587401390075684,-2.66162109375,-1.5745849609375,0.3543701171875
0.821,1268,3147,3147,3147,13.0,29.0,18.0,-114.86815643310547,-28.686521530151367,0.9155272841453552,-2.66162109375,-1.5745849609375,0.3543701171875
0.831,1260,3147,3147,3147,13.0,29.0,18.0,43.518062591552734,-21.362302780151367,-2.197265625,-1.3099365234375,-1.0849609375,0.6015625
0.847,1251,3147,3147,3147,13.0,29.0,18.0,136.29150390625,-9.82666015625,-11.840819358825684,-0.498291015625,1.380615234375,0.8408203125
0.852,1274,3147,3147,3147,13.0,29.0,18.0,110.04637908935547,30.456541061401367,-26.550291061401367,-0.498291015625,1.380615234375,0.8408203125
0.875,1262,3147,3147,3092,13.0,29.0,18.0,25.268552780151367,75.25634765625,-38.51318359375,-1.0213623046875,1.4881591796875,0.3187255859375
0.879,1157,3147,3147,2494,11.0,26.0,13.0,-31.616209030151367,77.57568359375,-39.85595703125,-2.0640869140625,0.6888427734375,-0.055419921875
0.883,1107,3147,3147,2186,11.0,26.0,13.0,-48.034664154052734,52.307125091552734,-38.63525390625,-2.0640869140625,0.6888427734375,-0.055419921875
0.909,975,3147,3147,1854,11.0,26.0,13.0,-39.794921875,28.442380905151367,-37.17041015625,-1.9884033203125,0.1402587890625,0.0400390625
0.912,868,3147,3147,1514,11.0,26.0,13.0,-19.59228515625,11.657713890075684,-28.015134811401367,-1.187255859375,-0.4962158203125,0.354248046875
0.915,808,3147,3147,1306,11.0,26.0,13.0,0.1220703050494194,4.150390625,-8.23974609375,-1.187255859375,-0.4962158203125,0.354248046875
0.921,778,3147,3147,1155,11.0,26.0,13.0,19.8974609375,6.347655773162842,15.380858421325684,-0.8167724609375,-0.5762939453125,0.397216796875
0.944,600,3147,3147,986,11.0,26.0,13.0,47.973628997802734,11.657713890075684,33.0810546875,-0.4566650390625,-0.1690673828125,0.3212890625
0.952,433,3147,3147,865,11.0,26.0,13.0,79.52880859375,14.587401390075684,40.954586029052734,-0.4566650390625,-0.1690673828125,0.3212890625
0.953,411,3147,3128,772,11.0,26.0,13.0,98.99901580810547,15.380858421325684,40.344234466552734,-0.4312744140625,0.161376953125,0.2330322265625
0.962,401,3147,2840,470,14.0,28.0,10.0,99.30419158935547,15.563963890075684,33.75244140625,-0.6268310546875,0.4365234375,0.0888671875
0.972,400,3098,2627,427,14.0,28.0,10.0,87.70751190185547,15.686034202575684,24.230955123901367,-0.6268310546875,0.4365234375,0.0888671875
0.978,400,2935,2596,423,14.0,28.0,10.0,75.1953125,15.441893577575684,14.160155296325684,-0.723876953125,0.38427734375,0.041748046875
0.992,438,2347,2569,407,14.0,28.0,10.0,67.9931640625,14.160155296325684,6.774901866912842,-0.7587890625,0.2041015625,-0.037841796875
1.014,442,2007,2585,410,14.0,28.0,10.0,70.3125,13.671874046325684,7.263183116912842,-0.7587890625,0.2041015625,-0.037841796875
1.015,431,1904,2514,402,14.0,28.0,10.0,76.171875,14.404295921325684,12.573241233825684,-0.7232666015625,0.192626953125,-0.010009765625
1.022,411,1560,2394,390,14.0,28.0,10.0,68.90869140625,15.319823265075684,16.29638671875,-0.7607421875,0.0599365234375,0.0418701171875
1.030,409,1543,2330,387,14.0,28.0,10.0,50.292964935302734,15.930174827575684,20.507810592651367,-0.7607421875,0.0599365234375,0.0418701171875
1.054,388,1229,2258,382,14.0,28.0,10.0,37.2314453125,14.038084983825684,28.869626998901367,-0.8138427734375,0.15185546875,0.0545654296875
1.055,390,1067,2005,375,14.0,28.0,10.0,31.372068405151367,9.82666015625,40.588375091552734,-0.8599853515625,0.282470703125,0.0458984375
1.060,385,922,1912,371,6.0,31.0,17.0,24.597166061401367,6.408690929412842,50.476070404052734,-0.8631591796875,0.330322265625,0.0069580078125
1.068,382,723,1820,363,6.0,31.0,17.0,18.06640625,3.417968511581421,53.466793060302734,-0.8304443359375,0.2952880859375,-0.0054931640625
1.082,376,661,1759,359,6.0,31.0,17.0,20.080564498901367,-0.3662109076976776,48.034664154052734,-0.7823486328125,0.3349609375,0.102294921875
1.090,438,813,1659,351,6.0,31.0,17.0,32.53173828125,-1.8920897245407104,35.64453125,-0.769775390625,0.4395751953125,0.237060546875
1.117,536,750,1521,348,6.0,31.0,17.0,46.386714935302734,0.9155272841453552,20.385740280151367,-0.7906494140625,0.4576416015625,0.270751953125
1.117,761,848,1302,338,6.0,31.0,17.0,54.321285247802734,4.8828125,7.263183116912842,-0.8013916015625,0.4368896484375,0.2581787109375
1.120,536,853,1627,348,6.0,31.0,17.0,57.800289154052734,6.530761241912842,-1.0986328125,-0.8001708984375,0.4727783203125,0.2451171875
1.128,508,905,1643,348,6.0,31.0,17.0,57.739253997802734,5.737304210662842,-4.8828125,-0.7862548828125,0.5460205078125,0.2225341796875
1.161,456,1009,1748,351,6.0,31.0,17.0,51.025386810302734,3.723144292831421,-4.94384765625,-0.75634765625,0.59521484375,0.1839599609375
1.162,468,1020,1774,359,6.0,31.0,17.0,36.376953125,0.4882812201976776,-1.7089842557907104,-0.7313232421875,0.56591796875,0.1583251953125
1.162,402,947,1809,364,10.0,29.0,14.0,17.7001953125,-3.356933355331421,3.356933355331421,-0.7305908203125,0.455322265625,0.168701171875
1.172,398,1184,1782,363,10.0,29.0,14.0,1.5869139432907104,-5.676269054412842,8.36181640625,-0.7601318359375,0.3348388671875,0.1826171875
1.180,464,1362,1700,370,10.0,29.0,14.0,-7.385253429412842,-6.103515148162842,12.390135765075684,-0.80419921875,0.2620849609375,0.1903076171875
1.188,416,1509,1709,371,10.0,29.0,14.0,-9.8876953125,-7.141112804412842,15.808104515075684,-0.8397216796875,0.23974609375,0.1951904296875
1.212,525,1770,1610,364,10.0,29.0,14.0,-8.1787109375,-9.521484375,18.6767578125,-0.8558349609375,0.2628173828125,0.1842041015625
1.221,499,1894,1624,372,10.0,29.0,14.0,-5.493163585662842,-11.474608421325684,20.568845748901367,-0.859130859375,0.3092041015625,0.1492919921875
1.222,406,1944,1730,383,10.0,29.0,14.0,-5.249022960662842,-12.451170921325684,22.155759811401367,-0.8736572265625,0.350830078125,0.1031494140625
1.234,411,2063,1703,372,10.0,29.0,14.0,-9.09423828125,-13.916014671325684,25.695798873901367,-0.915771484375,0.3759765625,0.0645751953125
1.240,424,1989,1669,378,10.0,29.0,14.0,-16.2353515625,-16.17431640625,33.14208984375,-0.9794921875,0.37744140625,0.037353515625
1.256,431,1997,1588,375,10.0,29.0,14.0,-26.123044967651367,-18.12744140625,44.738765716552734,-1.0467529296875,0.34521484375,0.0213623046875
1.268,391,2122,1452,382,7.0,32.0,10.0,-38.818359375,-18.798828125,60.119625091552734,-1.0679931640625,0.24560546875,-0.0054931640625
1.273,398,2480,1341,373,7.0,32.0,10.0,-53.405757904052734,-17.9443359375,77.20947265625,-0.978759765625,0.109375,-0.0765380859375
1.289,383,2837,1255,373,7.0,32.0,10.0,-65.5517578125,-17.7001953125,91.43065643310547,-0.737548828125,0.0440673828125,-0.0870361328125
1.299,376,3147,1282,922,7.0,32.0,10.0,-65.36865234375,-22.033689498901367,93.50585174560547,-0.30908203125,0.1026611328125,0.02490234375
1.322,372,3147,1472,1476,7.0,32.0,10.0,-46.142574310302734,-31.921384811401367,73.91357421875,0.235595703125,0.1959228515625,0.18359375
1.325,386,3147,1600,2078,7.0,32.0,10.0,-11.108397483825684,-46.447750091552734,31.311033248901367,0.9219970703125,0.0238037109375,0.3114013671875
1.328,400,3147,1985,2898,7.0,32.0,10.0,33.935546875,-53.527828216552734,-31.982419967651367,1.479248046875,-0.38037109375,0.226806640625
1.333,426,3147,2156,3147,7.0,32.0,10.0,69.15283203125,-42.175289154052734,-94.72655487060547,1.3897705078125,-0.211181640625,0.2347412109375
1.339,391,3147,2382,3147,7.0,32.0,10.0,56.152339935302734,-28.198240280151367,-121.09374237060547,0.44677734375,0.5850830078125,0.572265625
1.359,414,3147,3020,3147,7.0,32.0,10.0,-15.747069358825684,-14.038084983825684,-106.75048065185547,-1.0286865234375,1.613525390625,0.7012939453125
1.363,440,3147,3147,3147,13.0,31.0,13.0,-119.20165252685547,5.676269054412842,-69.64111328125,-2.4124755859375,2.5457763671875,0.5433349609375
1.370,617,3147,3147,3147,13.0,31.0,13.0,-223.75486755371094,9.1552734375,-30.883787155151367,-3.475830078125,2.0489501953125,0.3330078125
1.383,777,3147,3147,3147,13.0,31.0,13.0,-261.3525390625,3.234863042831421,-5.371093273162842,-4.0,0.3404541015625,0.0660400390625
1.390,761,3147,3147,3147,13.0,31.0,13.0,-170.95945739746094,-0.9765624403953552,7.629394054412842,-3.4085693359375,-1.2130126953125,-0.109375
1.398,666,3147,3147,3147,13.0,31.0,13.0,-3.356933355331421,-20.263669967651367,5.187987804412842,-1.99267578125,-1.392822265625,0.24267578125
1.428,512,3147,3147,3147,13.0,31.0,13.0,135.31494140625,-39.36767578125,-11.291502952575684,-0.857666015625,0.1033935546875,0.8861083984375
1.432,593,3147,3147,3147,13.0,31.0,13.0,169.37254333496094,-12.451170921325684,-40.588375091552734,-0.4853515625,1.594970703125,0.880615234375
1.434,654,3147,3147,3147,13.0,31.0,13.0,104.67528533935547,40.710445404052734,-67.19970703125,-0.957763671875,2.1544189453125,0.4295654296875
1.442,713,3147,3147,3147,13.0,31.0,13.0,104.67528533935547,40.710445404052734,-67.19970703125,-1.7225341796875,1.771484375,0.13427734375
1.462,738,3147,3147,3147,13.0,29.0,18.0,-50.476070404052734,60.058589935302734,-64.14794921875,-2.117431640625,0.8116455078125,-0.004150390625
1.470,713,3147,3147,3147,13.0,29.0,18.0,-61.096187591552734,47.058101654052734,-62.438961029052734,-2.0728759765625,0.071533203125,0.009033203125
1.478,660,3147,3147,3147,13.0,29.0,18.0,-61.096187591552734,47.058101654052734,-62.438961029052734,-1.717529296875,-0.095947265625,0.1802978515625
1.494,521,3147,3147,2652,13.0,29.0,18.0,-5.920409679412842,13.244627952575684,-42.602535247802734,-1.2237548828125,0.059326171875,0.399169921875
1.503,462,3147,3147,2243,13.0,29.0,18.0,12.145995140075684,12.512206077575684,-23.376462936401367,-0.8045654296875,0.07568359375,0.490478515625
1.513,417,3147,3147,1837,13.0,29.0,18.0,12.145995140075684,12.512206077575684,-23.376462936401367,-0.57861328125,-0.083984375,0.4071044921875
1.524,432,3147,3039,1160,13.0,29.0,18.0,32.16552734375,29.541013717651367,3.906249761581421,-0.4864501953125,-0.24072265625,0.2349853515625
1.537,401,3147,2937,779,13.0,29.0,18.0,46.386714935302734,33.63037109375,4.0283203125,-0.4656982421875,-0.2879638671875,0.0802001953125
1.544,409,3147,2811,454,13.0,29.0,18.0,46.386714935302734,33.63037109375,4.0283203125,-0.4840087890625,-0.146728515625,-0.007568359375
1.565,458,2333,2548,414,13.0,29.0,18.0,72.021484375,33.447265625,-14.770506858825684,-0.4884033203125,0.0870361328125,-0.0107421875
1.566,423,2047,2404,398,14.0,29.0,14.0,66.22314453125,31.799314498901367,-22.033689498901367,-0.451904296875,0.1832275390625,-0.0076904296875
1.566,419,1548,2258,411,14.0,29.0,14.0,66.22314453125,31.799314498901367,-22.033689498901367,-0.412109375,0.1563720703125,-0.0634765625
1.574,406,1433,2151,390,14.0,29.0,14.0,32.470703125,34.3017578125,-19.8974609375,-0.41845703125,0.1834716796875,-0.1534423828125
1.581,382,1499,2119,388,14.0,29.0,14.0,23.132322311401367,32.71484375,-8.6669921875,-0.4825439453125,0.275146484375,-0.2000732421875
1.589,384,1526,2085,388,14.0,29.0,14.0,23.132322311401367,32.71484375,-8.6669921875,-0.59326171875,0.36767578125,-0.132568359375
1.604,374,1548,2014,383,14.0,29.0,14.0,7.385253429412842,18.85986328125,17.88330078125,-0.706298828125,0.4046630859375,-0.00732421875
1.629,376,1575,1996,368,14.0,29.0,14.0,-7.690429210662842,13.671874046325684,24.047849655151367,-0.7664794921875,0.37451171875,0.1055908203125
1.648,373,1557,1983,378,14.0,29.0,14.0,-7.690429210662842,13.671874046325684,24.047849655151367,-0.769775390625,0.295166015625,0.1939697265625
1.648,383,1766,1981,383,14.0,29.0,14.0,-28.808591842651367,12.268065452575684,20.324705123901367,-0.7579345703125,0.2276611328125,0.266357421875
1.649,388,1864,2003,387,14.0,29.0,14.0,-24.169919967651367,10.986327171325684,14.892577171325684,-0.7755126953125,0.223388671875,0.3291015625
1.666,389,1954,2019,378,11.0,29.0,14.0,-24.169919967651367,10.986327171325684,14.892577171325684,-0.8236083984375,0.26416015625,0.371337890625
1.666,378,2019,2035,371,11.0,29.0,14.0,-10.559081077575684,5.859374523162842,9.8876953125,-0.8236083984375,0.26416015625,0.371337890625
1.672,387,2156,2026,390,11.0,29.0,14.0,12.695311546325684,-5.859374523162842,4.21142578125,-0.8780517578125,0.3321533203125,0.2994384765625
1.679,391,2242,1994,391,11.0,29.0,14.0,12.695311546325684,-5.859374523162842,4.21142578125,-0.8841552734375,0.3387451171875,0.1971435546875
1.687,402,2321,1985,391,11.0,29.0,14.0,13.488768577575684,-5.371093273162842,3.295898199081421,-0.8841552734375,0.3387451171875,0.1971435546875
1.702,388,2424,1961,386,11.0,29.0,14.0,7.019042491912842,0.3662109076976776,4.8828125,-0.9976806640625,0.35693359375,0.026123046875
1.726,387,2473,1957,391,11.0,29.0,14.0,7.019042491912842,0.3662109076976776,4.8828125,-1.0162353515625,0.3245849609375,0.0057373046875
1.732,382,2527,1934,400,11.0,29.0,14.0,5.065917491912842,-0.30517578125,7.751464366912842,-1.0162353515625,0.3245849609375,0.0057373046875
1.732,382,2608,1892,391,11.0,29.0,14.0,9.58251953125,-7.812499523162842,12.756346702575684,-0.9332275390625,0.239013671875,0.0611572265625
1.761,390,2647,1862,396,11.0,29.0,14.0,9.58251953125,-7.812499523162842,12.756346702575684,-0.8917236328125,0.2291259765625,0.0985107421875
1.762,406,2689,1855,401,13.0,30.0,11.0,17.15087890625,-12.084959983825684,13.671874046325684,-0.8917236328125,0.2291259765625,0.0985107421875
1.766,388,2766,1894,390,13.0,30.0,11.0,29.907224655151367,-18.6767578125,13.916014671325684,-0.89208984375,0.348876953125,0.13134765625
1.769,371,2810,1920,398,13.0,30.0,11.0,29.907224655151367,-18.6767578125,13.916014671325684,-0.916015625,0.41259765625,0.1116943359375
1.777,385,2813,1925,401,13.0,30.0,11.0,26.977537155151367,-19.22607421875,14.099120140075684,-0.916015625,0.41259765625,0.1116943359375
1.796,378,2797,1943,398,13.0,30.0,11.0,0.54931640625,-16.90673828125,16.9677734375,-0.986328125,0.3797607421875,0.059326171875
1.799,372,2744,1943,403,13.0,30.0,11.0,0.54931640625,-16.90673828125,16.9677734375,-1.0352783203125,0.3079833984375,0.0389404296875
1.818,376,2622,1959,401,13.0,30.0,11.0,-12.878417015075684,-16.4794921875,20.812986373901367,-1.0352783203125,0.3079833984375,0.0389404296875
1.833,375,2442,1936,390,13.0,30.0,11.0,-26.977537155151367,-19.95849609375,36.56005859375,-1.103515625,0.1719970703125,0.033447265625
1.841,373,2263,1920,399,13.0,30.0,11.0,-26.977537155151367,-19.95849609375,36.56005859375,-1.118896484375,0.15576171875,0.0498046875
1.849,371,2008,1918,383,13.0,30.0,11.0,-30.578611373901367,-23.559568405151367,48.706050872802734,-1.118896484375,0.15576171875,0.0498046875
1.868,365,1735,1826,376,12.0,29.0,16.0,-34.24072265625,-28.381345748901367,63.537593841552734,-1.06591796875,0.1373291015625,0.050537109375
1.875,371,1638,1730,383,12.0,29.0,16.0,-36.92626953125,-33.02001953125,79.9560546875,-1.06591796875,0.1373291015625,0.050537109375
1.886,365,1582,1624,375,12.0,29.0,16.0,-36.56005859375,-37.17041015625,96.80175018310547,-0.9610595703125,0.0927734375,0.0189208984375
1.893,342,2058,1472,371,12.0,29.0,16.0,-30.517576217651367,-41.625972747802734,113.28124237060547,-0.52294921875,0.007080078125,0.031982421875
1.899,364,2668,1529,375,12.0,29.0,16.0,-17.88330078125,-47.363277435302734,127.13622283935547,-0.52294921875,0.007080078125,0.031982421875
1.903,376,3147,1826,533,12.0,29.0,16.0,-5.554198741912842,-54.199214935302734,130.9814453125,-0.158203125,0.0145263671875,0.1302490234375
1.934,387,3147,2118,1419,12.0,29.0,16.0,-2.25830078125,-63.232418060302734,116.14989471435547,1.466064453125,0.055908203125,0.708740234375
1.943,390,3147,2244,1945,12.0,29.0,16.0,7.019042491912842,-69.39697265625,69.3359375,1.466064453125,0.055908203125,0.708740234375
1.945,390,3147,2424,2456,12.0,29.0,16.0,43.029781341552734,-53.710933685302734,-15.686034202575684,2.1456298828125,0.00341796875,0.3304443359375
1.950,445,3147,2695,3147,11.0,30.0,16.0,80.078125,-26.489255905151367,-97.29003143310547,0.425048828125,1.08203125,0.2666015625
1.967,426,3147,3046,3147,11.0,30.0,16.0,69.2138671875,-12.756346702575684,-131.28662109375,0.425048828125,1.08203125,0.2666015625
1.974,455,3147,3147,3147,11.0,30.0,16.0,-20.751951217651367,0.1220703050494194,-119.81200408935547,-1.2901611328125,2.1898193359375,0.33251953125
1.976,673,3147,3147,3147,11.0,30.0,16.0,-173.88914489746094,12.634276390075684,-75.927734375,-3.5726318359375,1.7745361328125,0.38720703125
1.981,738,3147,3147,3147,11.0,30.0,16.0,-314.27001953125,11.108397483825684,-34.11865234375,-3.5726318359375,1.7745361328125,0.38720703125
1.993,853,3147,3147,3147,11.0,30.0,16.0,-330.6274108886719,10.192870140075684,-19.22607421875,-3.980712890625,-0.2928466796875,0.2005615234375
2.001,853,3147,3147,3147,11.0,30.0,16.0,-186.64549255371094,4.45556640625,-13.732909202575684,-1.9237060546875,-1.53125,0.39111328125
2.009,746,3147,3147,3147,11.0,30.0,16.0,19.775390625,-20.568845748901367,-12.634276390075684,-1.9237060546875,-1.53125,0.39111328125
2.035,646,3147,3147,3147,11.0,30.0,16.0,154.96826171875,-38.9404296875,-19.10400390625,-0.8031005859375,0.1141357421875,0.9844970703125
2.046,723,3147,3147,3147,11.0,30.0,16.0,155.57861328125,-5.859374523162842,-36.68212890625,-1.0706787109375,2.0809326171875,0.4656982421875
2.084,759,3147,3147,3147,11.0,29.0,16.0,74.0966796875,55.358882904052734,-56.579586029052734,-1.0706787109375,2.0809326171875,0.4656982421875
2.088,750,3147,3147,3147,11.0,29.0,16.0,-7.629394054412842,78.7353515625,-57.983394622802734,-1.83935546875,1.983642578125,0.11962890625
2.098,710,3147,3147,3111,11.0,29.0,16.0,-54.199214935302734,66.83349609375,-51.879878997802734,-2.0023193359375,0.3448486328125,0.0704345703125
2.104,620,3147,3147,2744,11.0,29.0,16.0,-53.039546966552734,47.363277435302734,-54.016109466552734,-2.0023193359375,0.3448486328125,0.0704345703125
2.112,487,3147,3147,2368,11.0,29.0,16.0,-16.66259765625,26.611326217651367,-56.884761810302734,-1.59375,-0.0465087890625,0.2508544921875
2.137,445,3147,3098,1634,11.0,29.0,16.0,25.329587936401367,9.82666015625,-48.645015716552734,-0.6192626953125,-0.146484375,0.6141357421875
2.145,418,3147,3000,1160,11.0,29.0,16.0,56.701656341552734,7.080077648162842,-30.883787155151367,-0.6192626953125,-0.146484375,0.6141357421875
2.157,388,3147,2867,755,11.0,29.0,16.0,73.79150390625,20.263669967651367,-14.038084983825684,-0.3643798828125,-0.296142578125,0.527099609375
2.183,439,3147,2688,428,11.0,29.0,16.0,83.12987518310547,37.53662109375,-4.08935546875,-0.2957763671875,-0.3983154296875,0.087890625
2.189,414,2859,2585,424,11.0,29.0,16.0,93.38378143310547,45.349117279052734,-1.4038084745407104,-0.2957763671875,-0.3983154296875,0.087890625
2.202,419,2473,2489,404,10.0,30.0,16.0,101.31835174560547,40.405269622802734,-4.33349609375,-0.3778076171875,-0.107177734375,0.022216796875
2.205,385,2139,2328,404,10.0,30.0,16.0,92.83446502685547,31.677244186401367,-9.70458984375,-0.5196533203125,0.26611328125,-0.1312255859375
2.214,382,2024,2238,398,10.0,30.0,16.0,68.4814453125,31.616209030151367,-14.282225608825684,-0.5196533203125,0.26611328125,-0.1312255859375
2.220,387,1981,2093,377,10.0,30.0,16.0,45.349117279052734,36.9873046875,-16.4794921875,-0.50537109375,0.2183837890625,-0.1807861328125
2.241,382,1961,2001,378,10.0,30.0,16.0,35.0341796875,34.36279296875,-14.221190452575684,-0.50537109375,0.1968994140625,-0.1392822265625
2.246,373,2041,1961,396,10.0,30.0,16.0,35.46142578125,24.597166061401367,-6.042479991912842,-0.532958984375,0.26416015625,-0.110107421875
2.250,371,2035,1852,376,10.0,30.0,16.0,35.09521484375,18.00537109375,4.69970703125,-0.5958251953125,0.4073486328125,-0.0755615234375
2.259,364,2085,1882,373,10.0,30.0,16.0,25.146482467651367,14.160155296325684,13.427733421325684,-0.6827392578125,0.52001953125,0.0216064453125
2.288,364,2195,1882,390,10.0,30.0,16.0,6.103515148162842,8.36181640625,17.76123046875,-0.7398681640625,0.5390625,0.146728515625
2.296,369,2330,1936,400,10.0,30.0,16.0,-14.099120140075684,3.540038824081421,17.39501953125,-0.7655029296875,0.513916015625,0.2501220703125
2.307,369,2372,1945,411,14.0,29.0,14.0,-27.282712936401367,3.967284917831421,12.512206077575684,-0.80810546875,0.4674072265625,0.2841796875
2.311,371,2456,2005,371,14.0,29.0,14.0,-30.151365280151367,7.629394054412842,5.0048828125,-0.875,0.38720703125,0.2396240234375
2.319,371,2527,1996,391,14.0,29.0,14.0,-25.268552780151367,9.94873046875,-2.0751953125,-0.9200439453125,0.308349609375,0.182373046875
2.324,373,2585,2060,401,14.0,29.0,14.0,-16.29638671875,8.60595703125,-7.568358898162842,-0.928955078125,0.275390625,0.1767578125
2.348,376,2671,2076,398,14.0,29.0,14.0,-5.493163585662842,4.638671875,-11.535643577575684,-0.9219970703125,0.28369140625,0.2027587890625
2.354,370,2799,2100,399,14.0,29.0,14.0,4.39453125,0.30517578125,-13.549803733825684,-0.9110107421875,0.2891845703125,0.197998046875
2.361,385,2863,2035,388,14.0,29.0,14.0,11.535643577575684,-3.295898199081421,-12.878417015075684,-0.9036865234375,0.2786865234375,0.1458740234375
2.381,374,2973,2058,371,14.0,29.0,14.0,15.502928733825684,-5.676269054412842,-9.33837890625,-0.9102783203125,0.26611328125,0.07861328125
2.402,347,3061,2032,417,14.0,29.0,14.0,16.54052734375,-7.934569835662842,-4.57763671875,-0.9296875,0.250244140625,0.0379638671875
2.413,373,3102,2026,404,14.0,29.0,14.0,15.747069358825684,-11.169432640075684,-0.2441406100988388,-0.945556640625,0.254638671875,0.0572509765625
2.418,375,3128,2028,403,11.0,29.0,15.0,13.916014671325684,-14.221190452575684,2.44140625,-0.9427490234375,0.288818359375,0.11279296875
2.426,376,3147,2047,396,11.0,29.0,15.0,10.314940452575684,-14.770506858825684,3.173827886581421,-0.9349365234375,0.319580078125,0.1419677734375
2.451,379,3147,2048,409,11.0,29.0,15.0,5.065917491912842,-13.305663108825684,3.112792730331421,-0.943115234375,0.3277587890625,0.1248779296875
2.454,377,3147,2072,431,11.0,29.0,15.0,-0.3662109076976776,-12.084959983825684,3.967284917831421,-0.961669921875,0.32177734375,0.080810546875
2.459,376,3147,2123,473,11.0,29.0,15.0,-5.371093273162842,-12.451170921325684,5.981444835662842,-0.98046875,0.3233642578125,0.0416259765625
2.492,379,3147,2135,447,11.0,29.0,15.0,-10.009765625,-14.465331077575684,7.934569835662842,-0.99609375,0.3450927734375,0.0352783203125
2.496,382,3147,2135,456,11.0,29.0,15.0,-13.671874046325684,-16.66259765625,8.6669921875,-1.0140380859375,0.368408203125,0.0555419921875
2.507,376,3147,2160,406,11.0,29.0,15.0,-16.9677734375,-17.88330078125,8.72802734375,-1.042724609375,0.36376953125,0.08349609375
2.510,378,3101,2167,400,11.0,29.0,15.0,-21.179197311401367,-18.6767578125,9.8876953125,-1.0648193359375,0.3184814453125,0.1131591796875
2.521,382,2928,2152,401,7.0,31.0,18.0,-25.207517623901367,-20.263669967651367,13.427733421325684,-1.07421875,0.2574462890625,0.1397705078125
2.526,378,2668,2131,404,7.0,31.0,18.0,-26.733396530151367,-23.986814498901367,20.141599655151367,-1.0863037109375,0.206787109375,0.162109375
2.530,376,2172,2087,401,7.0,31.0,18.0,-24.902341842651367,-30.151365280151367,30.883787155151367,-1.0941162109375,0.1632080078125,0.166015625
2.548,359,1943,1973,386,7.0,31.0,18.0,-20.812986373901367,-37.17041015625,46.081539154052734,-1.0718994140625,0.1123046875,0.1324462890625
2.549,371,1721,1848,390,7.0,31.0,18.0,-14.770506858825684,-44.311519622802734,64.39208984375,-0.9969482421875,0.043212890625,0.06298828125
2.549,369,1943,1773,387,7.0,31.0,18.0,-4.7607421875,-51.940914154052734,83.06884002685547,-0.8116455078125,-0.0281982421875,-0.03515625
2.550,363,2472,1899,398,7.0,31.0,18.0,9.58251953125,-60.913082122802734,97.53417205810547,-0.49072265625,-0.115234375,-0.1458740234375
2.551,345,3147,2128,430,7.0,31.0,18.0,21.179197311401367,-69.9462890625,102.47801971435547,-0.064697265625,-0.1263427734375,-0.0931396484375
2.552,393,3147,2231,854,7.0,31.0,18.0,23.559568405151367,-79.04052734375,89.53856658935547,0.5977783203125,-0.084716796875,0.2957763671875
2.552,400,3147,2222,2071,7.0,31.0,18.0,31.249998092651367,-77.5146484375,46.630855560302734,1.498291015625,-0.07373046875,0.59765625
2.553,383,3147,2412,2525,10.0,28.0,13.0,51.757808685302734,-51.208492279052734,-15.686034202575684,2.0693359375,0.2159423828125,0.50244140625
2.554,409,3147,2684,2978,10.0,28.0,13.0,53.833003997802734,-19.95849609375,-64.5751953125,1.6768798828125,0.5634765625,0.3172607421875
2.554,416,3147,3059,3147,10.0,28.0,13.0,11.596678733825684,-4.2724609375,-89.17235565185547,0.2802734375,0.932861328125,0.209228515625
2.561,567,3147,3147,3147,10.0,28.0,13.0,-76.59912109375,-0.8544921278953552,-87.58544158935547,-1.49462890625,1.888916015625,0.3292236328125
2.572,753,3147,3147,3147,10.0,28.0,13.0,-189.81932067871094,-5.981444835662842,-57.067867279052734,-2.9034423828125,2.6893310546875,0.6119384765625
2.585,853,3147,3147,3147,10.0,28.0,13.0,-189.81932067871094,-5.981444835662842,-57.067867279052734,-3.7178955078125,1.837646484375,0.532470703125
2.620,1065,3147,3147,3147,10.0,28.0,13.0,-307.92236328125,1.4648436307907104,-8.36181640625,-3.95068359375,0.0252685546875,0.1988525390625
2.621,1109,3147,3147,3147,10.0,28.0,13.0,-204.10154724121094,1.220703125,-6.286620616912842,-3.265869140625,-1.3939208984375,0.0169677734375
2.622,1097,3147,3147,3147,10.0,28.0,13.0,-204.10154724121094,1.220703125,-6.286620616912842,-1.8642578125,-1.455078125,0.4031982421875
2.623,922,3147,3147,3147,10.0,28.0,13.0,92.46825408935547,-40.0390625,-21.728513717651367,-0.7178955078125,-0.224365234375,1.2059326171875
2.629,893,3147,3147,3147,14.0,29.0,16.0,118.46923065185547,-4.94384765625,-41.809078216552734,-0.4412841796875,0.8614501953125,1.2940673828125
2.653,934,3147,3147,3147,14.0,29.0,16.0,118.46923065185547,-4.94384765625,-41.809078216552734,-1.0521240234375,1.592041015625,0.6781005859375
2.656,927,3147,3147,3147,14.0,29.0,16.0,8.7890625,96.67967987060547,-69.7021484375,-1.886962890625,1.7955322265625,0.160888671875
2.661,912,3147,3147,3147,14.0,29.0,16.0,-39.73388671875,81.35985565185547,-57.678218841552734,-2.2451171875,1.212158203125,-0.071044921875
2.670,859,3147,3147,3147,14.0,29.0,16.0,-39.73388671875,81.35985565185547,-57.678218841552734,-2.0784912109375,0.369140625,-0.0467529296875
2.691,682,3147,3147,2859,14.0,29.0,16.0,-30.517576217651367,39.85595703125,-48.950191497802734,-1.6219482421875,-0.1751708984375,0.1593017578125
2.695,523,3147,3147,2525,14.0,29.0,16.0,4.0283203125,21.545408248901367,-38.6962890625,-1.100830078125,-0.26611328125,0.4190673828125
2.708,478,3147,3147,2162,14.0,29.0,16.0,4.0283203125,21.545408248901367,-38.6962890625,-0.6800537109375,-0.18310546875,0.5712890625
2.716,431,3147,2952,1501,14.0,29.0,16.0,46.081539154052734,15.563963890075684,6.103515148162842,-0.4327392578125,-0.1868896484375,0.5045166015625
2.723,437,3147,2788,1167,14.0,29.0,16.0,55.847164154052734,26.794431686401367,19.287109375,-0.3106689453125,-0.2379150390625,0.3167724609375
2.734,426,3147,2677,806,14.0,29.0,16.0,55.847164154052734,26.794431686401367,19.287109375,-0.24609375,-0.2379150390625,0.1468505859375
2.755,424,3147,2521,625,14.0,29.0,16.0,77.94189453125,31.433103561401367,11.718749046325684,-0.2430419921875,-0.100830078125,0.0948486328125
2.757,409,3147,2469,470,14.0,29.0,16.0,79.52880859375,30.334470748901367,-2.01416015625,-0.3475341796875,0.1607666015625,0.1552734375
2.762,375,3115,2407,416,14.0,29.0,16.0,79.52880859375,30.334470748901367,-2.01416015625,-0.3475341796875,0.1607666015625,0.1552734375
2.775,402,2905,2308,402,14.0,29.0,16.0,45.654293060302734,36.62109375,-18.5546875,-0.67529296875,0.3651123046875,0.017578125
2.789,402,2818,2243,409,14.0,29.0,16.0,26.428220748901367,39.61181640625,-16.78466796875,-0.6748046875,0.243408203125,-0.1256103515625
2.793,391,2813,2192,410,14.0,29.0,16.0,26.428220748901367,39.61181640625,-16.78466796875,-0.6617431640625,0.1666259765625,-0.1529541015625
2.812,404,2830,2100,400,14.0,29.0,16.0,21.057126998901367,25.207517623901367,-5.0048828125,-0.6907958984375,0.1845703125,-0.0699462890625
2.815,402,2920,2054,385,14.0,29.0,16.0,21.606443405151367,13.977049827575684,3.662109136581421,-0.702880859375,0.2386474609375,0.032470703125
2.822,403,2974,2039,399,14.0,29.0,16.0,21.606443405151367,13.977049827575684,3.662109136581421,-0.70947265625,0.3006591796875,0.1158447265625
2.835,400,3089,2035,398,13.0,28.0,13.0,9.6435546875,7.568358898162842,14.892577171325684,-0.745361328125,0.3477783203125,0.1693115234375
2.856,400,3147,2026,401,13.0,28.0,13.0,2.624511480331421,6.408690929412842,15.747069358825684,-0.8048095703125,0.3775634765625,0.181640625
2.858,393,3147,2024,403,13.0,28.0,13.0,2.624511480331421,6.408690929412842,15.747069358825684,-0.8658447265625,0.397705078125,0.1890869140625
2.867,400,3147,1920,418,13.0,28.0,13.0,-16.41845703125,5.493163585662842,12.512206077575684,-0.912841796875,0.3707275390625,0.2139892578125
2.875,401,3147,1905,447,13.0,28.0,13.0,-16.41845703125,5.493163585662842,12.512206077575684,-0.952392578125,0.305908203125,0.22412109375
2.896,400,3147,1881,468,13.0,28.0,13.0,-23.376462936401367,6.774901866912842,9.033203125,-0.952392578125,0.305908203125,0.22412109375
2.906,400,3147,1846,497,13.0,28.0,13.0,-12.145995140075684,5.676269054412842,3.112792730331421,-1.0126953125,0.242431640625,0.203125
2.918,400,3147,1826,475,13.0,28.0,13.0,-12.145995140075684,5.676269054412842,3.112792730331421,-1.0045166015625,0.2491455078125,0.1929931640625
2.924,389,3147,1837,455,13.0,28.0,13.0,-0.1831054538488388,2.624511480331421,2.50244140625,-0.9776611328125,0.2701416015625,0.1968994140625
2.931,391,3147,1761,437,13.0,28.0,13.0,10.559081077575684,-0.4272460639476776,3.356933355331421,-0.9776611328125,0.2701416015625,0.1968994140625
2.935,387,3147,1730,411,12.0,29.0,11.0,25.390623092651367,-3.051757574081421,5.187987804412842,-0.9580078125,0.3072509765625,0.1776123046875
2.960,388,3147,1743,406,12.0,29.0,11.0,25.390623092651367,-3.051757574081421,5.187987804412842,-0.9537353515625,0.3126220703125,0.1341552734375
2.960,385,3147,1735,382,12.0,29.0,11.0,28.442380905151367,-3.417968511581421,6.164550304412842,-0.9537353515625,0.3126220703125,0.1341552734375
2.963,383,3147,1715,383,12.0,29.0,11.0,19.47021484375,-5.798339366912842,8.544921875,-0.9195556640625,0.2733154296875,0.082763671875
2.971,382,3147,1695,398,12.0,29.0,11.0,19.47021484375,-5.798339366912842,8.544921875,-0.897216796875,0.257568359375,0.083984375
2.979,383,3147,1705,400,12.0,29.0,11.0,13.183592796325684,-7.751464366912842,8.9111328125,-0.897216796875,0.257568359375,0.083984375
3.001,386,3147,1711,389,12.0,29.0,11.0,10.131834983825684,-12.573241233825684,10.498045921325684,-0.8848876953125,0.2850341796875,0.097900390625
3.002,387,3135,1735,401,12.0,29.0,11.0,10.131834983825684,-12.573241233825684,10.498045921325684,-0.9085693359375,0.2911376953125,0.10400390625
3.009,385,3040,1757,400,12.0,29.0,11.0,8.23974609375,-15.136717796325684,13.671874046325684,-0.9085693359375,0.2911376953125,0.10400390625
3.025,385,2760,1769,388,15.0,29.0,19.0,-1.15966796875,-21.179197311401367,26.733396530151367,-0.9818115234375,0.228271484375,0.1080322265625
3.036,382,2539,1769,391,15.0,29.0,19.0,-1.15966796875,-21.179197311401367,26.733396530151367,-1.0225830078125,0.1776123046875,0.0767822265625
3.039,390,2347,1711,390,15.0,29.0,19.0,-5.310058116912842,-24.658201217651367,36.43798828125,-1.0225830078125,0.1776123046875,0.0767822265625
3.060,365,2308,1521,382,15.0,29.0,19.0,-14.465331077575684,-34.11865234375,65.4296875,-1.05712890625,0.1378173828125,-0.0457763671875
3.070,359,2303,1382,382,15.0,29.0,19.0,-14.465331077575684,-34.11865234375,65.4296875,-0.951171875,0.1025390625,-0.0975341796875
3.081,348,2469,1079,369,15.0,29.0,19.0,-23.132322311401367,-40.832515716552734,84.04540252685547,-0.951171875,0.1025390625,-0.0975341796875
3.082,317,3073,822,349,15.0,29.0,19.0,-33.69140625,-48.400875091552734,99.67040252685547,-0.412353515625,0.09423828125,0.034912109375
3.098,327,3147,733,579,15.0,29.0,19.0,-44.189449310302734,-55.236812591552734,103.21044158935547,-0.412353515625,0.09423828125,0.034912109375
3.102,332,3147,934,1097,15.0,29.0,19.0,-52.368160247802734,-60.913082122802734,91.00341033935547,0.002685546875,0.1563720703125,0.296142578125
3.115,344,3147,1219,2093,15.0,29.0,19.0,-39.73388671875,-61.218257904052734,61.828609466552734,1.55712890625,-0.23388671875,0.576904296875
3.121,354,3147,1529,2619,8.0,28.0,21.0,10.314940452575684,-52.612300872802734,4.638671875,1.55712890625,-0.23388671875,0.576904296875
3.130,360,3147,1874,3081,8.0,28.0,21.0,80.44432830810547,-32.1044921875,-74.76806640625,1.8048095703125,-0.46044921875,0.225341796875
3.142,462,3147,2172,3147,8.0,28.0,21.0,95.52001190185547,-0.0610351525247097,-123.22997283935547,-0.36181640625,1.462158203125,0.228759765625
3.161,406,3147,2612,3147,8.0,28.0,21.0,-6.713866710662842,22.705076217651367,-118.16405487060547,-0.36181640625,1.462158203125,0.228759765625
3.161,406,3147,3124,3147,8.0,28.0,21.0,-167.78562927246094,31.982419967651367,-81.35985565185547,-1.865966796875,2.572998046875,0.409423828125
3.183,734,3147,3147,3147,8.0,28.0,21.0,-315.0634765625,32.5927734375,-36.68212890625,-3.3065185546875,1.298095703125,0.4332275390625
3.184,843,3147,3147,3147,8.0,28.0,21.0,-414.1235046386719,23.742673873901367,-22.033689498901367,-3.3065185546875,1.298095703125,0.4332275390625
3.201,853,3147,3147,3147,8.0,28.0,21.0,-376.5258483886719,19.10400390625,-37.17041015625,-3.63671875,-0.530517578125,0.21240234375
3.202,723,3147,3147,3147,8.0,28.0,21.0,-204.65086364746094,12.145995140075684,-50.170894622802734,-1.966064453125,-1.767333984375,0.390625
3.211,551,3147,3147,3147,8.0,28.0,21.0,-10.070799827575684,-5.493163585662842,-51.147457122802734,-1.966064453125,-1.767333984375,0.390625
3.218,473,3147,3147,3147,16.0,29.0,9.0,118.71337127685547,-23.010251998901367,-39.9169921875,-0.9339599609375,-0.544677734375,0.950927734375
3.237,431,3147,3147,3147,16.0,29.0,9.0,125.73241424560547,-5.0048828125,-23.498533248901367,-1.5792236328125,1.891845703125,0.8626708984375
3.242,406,3147,3147,3147,16.0,29.0,9.0,36.1328125,49.438472747802734,-10.070799827575684,-1.5792236328125,1.891845703125,0.8626708984375
3.267,405,3147,3115,3147,16.0,29.0,9.0,-57.312007904052734,87.09716033935547,-6.103515148162842,-2.15185546875,1.4464111328125,0.198486328125
3.271,406,3147,2707,3147,16.0,29.0,9.0,-78.67431640625,79.833984375,-12.329100608825684,-1.7769775390625,0.0172119140625,0.04345703125
3.275,401,3147,2396,3147,16.0,29.0,9.0,-37.7197265625,41.320796966552734,-15.563963890075684,-1.7769775390625,0.0172119140625,0.04345703125
3.283,388,3147,2137,3147,16.0,29.0,9.0,9.09423828125,10.803221702575684,-7.507323741912842,-1.2957763671875,-0.1519775390625,0.3287353515625
3.308,373,3147,1646,3089,16.0,29.0,9.0,36.62109375,4.82177734375,10.131834983825684,-0.54638671875,-0.166259765625,0.492431640625
3.309,361,3147,1331,2721,16.0,29.0,9.0,50.170894622802734,10.620116233825684,28.015134811401367,-0.54638671875,-0.166259765625,0.492431640625
3.309,371,3147,1066,2267,16.0,29.0,9.0,62.499996185302734,17.88330078125,36.92626953125,-0.339111328125,-0.2286376953125,0.360107421875
3.322,348,3147,996,1813,15.0,28.0,10.0,79.89501953125,25.207517623901367,34.72900390625,-0.2060546875,-0.2423095703125,0.2381591796875
3.331,346,3147,989,1453,15.0,28.0,10.0,99.79247283935547,36.376953125,24.108884811401367,-0.1639404296875,-0.1494140625,0.1619873046875
3.343,348,3147,963,874,15.0,28.0,10.0,114.44091033935547,47.851558685302734,10.314940452575684,-0.2593994140625,0.049560546875,0.1060791015625
3.353,330,3147,918,509,15.0,28.0,10.0,114.31884002685547,51.391597747802734,-0.1831054538488388,-0.3857421875,0.201416015625,0.050048828125
3.371,338,3147,905,400,15.0,28.0,10.0,99.79247283935547,49.377437591552734,-4.8828125,-0.43408203125,0.2198486328125,-0.032958984375
3.371,331,3147,846,353,15.0,28.0,10.0,83.61815643310547,44.433589935302734,-4.69970703125,-0.4498291015625,0.2213134765625,-0.084228515625
3.384,325,3147,757,359,15.0,28.0,10.0,74.0966796875,34.7900390625,0.6713866591453552,-0.495849609375,0.292724609375,-0.1124267578125
3.390,324,3147,800,411,15.0,28.0,10.0,69.7021484375,24.047849655151367,9.94873046875,-0.5770263671875,0.3948974609375,-0.159423828125
3.410,324,3147,802,483,15.0,28.0,10.0,62.377925872802734,14.709471702575684,19.10400390625,-0.6673583984375,0.4820556640625,-0.137451171875
3.412,324,3147,835,644,13.0,31.0,11.0,44.128414154052734,5.371093273162842,23.986814498901367,-0.7374267578125,0.5228271484375,-0.001953125
3.421,324,3147,842,705,13.0,31.0,11.0,17.7001953125,-3.173827886581421,22.827146530151367,-0.763671875,0.4888916015625,0.1787109375
3.428,327,3147,874,759,13.0,31.0,11.0,-4.57763671875,-6.408690929412842,16.2353515625,-0.7528076171875,0.403076171875,0.2752685546875
3.451,329,3147,1034,859,13.0,31.0,11.0,-13.916014671325684,-1.9531248807907104,6.103515148162842,-0.7618408203125,0.322509765625,0.2557373046875
3.463,329,3147,1091,894,13.0,31.0,11.0,-12.268065452575684,4.21142578125,-3.967284917831421,-0.8289794921875,0.2764892578125,0.190673828125
3.471,332,3147,1170,978,13.0,31.0,11.0,-5.676269054412842,5.187987804412842,-9.46044921875,-0.9232177734375,0.2657470703125,0.129638671875
3.472,338,3147,1206,1095,13.0,31.0,11.0,0.7324218153953552,0.7324218153953552,-8.36181640625,-0.9993896484375,0.282958984375,0.106201171875
3.480,349,3147,1222,1129,13.0,31.0,11.0,2.0751953125,-4.94384765625,-3.173827886581421,-1.0406494140625,0.31005859375,0.124755859375
3.488,347,3147,1289,1204,13.0,31.0,11.0,-2.25830078125,-8.1787109375,1.2817381620407104,-1.0565185546875,0.3148193359375,0.1490478515625
3.503,347,3147,1313,1231,13.0,31.0,11.0,-7.446288585662842,-8.60595703125,2.25830078125,-1.0531005859375,0.2890625,0.145751953125
3.510,348,3147,1370,1260,14.0,29.0,10.0,-6.713866710662842,-8.056640625,0.7934569716453552,-1.03173828125,0.268798828125,0.12451171875
3.519,347,3147,1398,1268,14.0,29.0,10.0,0.1831054538488388,-8.4228515625,-0.1831054538488388,-1.0045166015625,0.280029296875,0.1226806640625
3.532,354,3147,1428,1275,14.0,29.0,10.0,8.23974609375,-10.314940452575684,0.9155272841453552,-0.984619140625,0.301025390625,0.1558837890625
3.540,354,3147,1464,1287,14.0,29.0,10.0,13.549803733825684,-12.878417015075684,3.723144292831421,-0.970947265625,0.29443359375,0.1959228515625
3.555,378,3147,1456,1274,14.0,29.0,10.0,16.05224609375,-14.831542015075684,6.591796398162842,-0.9610595703125,0.2628173828125,0.211181640625
3.575,359,3147,1550,1243,14.0,29.0,10.0,17.822265625,-16.54052734375,8.11767578125,-0.961181640625,0.2437744140625,0.205078125
3.577,356,3147,1584,1236,14.0,29.0,10.0,21.179197311401367,-19.22607421875,7.751464366912842,-0.9627685546875,0.255615234375,0.1988525390625
3.579,371,3147,1564,1191,14.0,29.0,10.0,28.076169967651367,-21.484373092651367,5.798339366912842,-0.9539794921875,0.2998046875,0.1951904296875
3.589,363,3147,1641,1175,14.0,29.0,10.0,36.7431640625,-20.812986373901367,3.662109136581421,-0.9420166015625,0.360107421875,0.1697998046875
3.611,364,3147,1687,1026,14.0,29.0,10.0,41.381832122802734,-18.06640625,2.563476324081421,-0.9427490234375,0.4031982421875,0.122314453125
3.612,359,3147,1739,900,12.0,30.0,10.0,37.78076171875,-16.7236328125,3.051757574081421,-0.9635009765625,0.40478515625,0.0887451171875
3.617,373,3147,1745,723,12.0,30.0,10.0,27.893064498901367,-18.24951171875,4.94384765625,-0.9996337890625,0.36474609375,0.083251953125
3.632,369,3147,1785,389,12.0,30.0,10.0,17.4560546875,-21.606443405151367,8.23974609375,-1.0428466796875,0.3096923828125,0.090087890625
3.640,369,3001,1791,383,12.0,30.0,10.0,10.009765625,-25.634763717651367,13.977049827575684,-1.076416015625,0.2662353515625,0.08984375
3.652,371,2584,1789,384,12.0,30.0,10.0,10.009765625,-25.634763717651367,13.977049827575684,-1.0855712890625,0.2279052734375,0.08154296875
3.679,371,2271,1691,383,12.0,30.0,10.0,2.197265625,-36.07177734375,35.46142578125,-1.0648193359375,0.1676025390625,0.0716552734375
3.686,390,2207,1564,375,12.0,30.0,10.0,1.7089842557907104,-42.480464935302734,49.926753997802734,-0.9996337890625,0.0792236328125,0.032958984375
3.694,390,2298,1488,378,12.0,30.0,10.0,1.7089842557907104,-42.480464935302734,49.926753997802734,-0.869384765625,0.00146484375,-0.0511474609375
3.698,401,2782,1146,363,12.0,30.0,10.0,13.793944358825684,-53.710933685302734,81.78710174560547,-0.6416015625,-0.00439453125,-0.1341552734375
3.715,390,3147,1132,361,12.0,30.0,10.0,17.39501953125,-59.936519622802734,91.79686737060547,-0.328369140625,0.1329345703125,-0.0938720703125
3.717,376,3147,1160,654,10.0,30.0,13.0,17.39501953125,-59.936519622802734,91.79686737060547,0.0498046875,0.329833984375,0.219482421875
3.723,430,3147,1666,1611,10.0,30.0,13.0,-6.591796398162842,-71.8994140625,63.415523529052734,0.60498046875,0.41650390625,0.646484375
3.731,383,3147,1874,2129,10.0,30.0,13.0,-2.868652105331421,-62.622066497802734,14.038084983825684,1.4090576171875,0.2567138671875,0.79833984375
3.744,400,3147,2032,2580,10.0,30.0,13.0,-2.868652105331421,-62.622066497802734,14.038084983825684,1.79931640625,-0.1839599609375,0.387939453125
3.751,398,3147,2465,3147,10.0,30.0,13.0,35.400390625,-3.906249761581421,-110.10741424560547,1.2685546875,0.0101318359375,-0.0362548828125
3.781,551,3147,2695,3147,10.0,30.0,13.0,-22.888181686401367,15.258788108825684,-107.91014862060547,0.06640625,0.937744140625,0.019287109375
3.781,406,3147,3147,3147,10.0,30.0,13.0,-22.888181686401367,15.258788108825684,-107.91014862060547,-1.5372314453125,1.8106689453125,0.240234375
3.781,766,3147,3147,3147,10.0,30.0,13.0,-290.1611328125,21.911619186401367,-35.58349609375,-2.9119873046875,2.245849609375,0.47265625
3.789,871,3147,3147,3147,10.0,30.0,13.0,-380.1879577636719,15.624999046325684,-13.122557640075684,-3.565673828125,1.427001953125,0.483642578125
3.798,855,3147,3147,3147,10.0,30.0,13.0,-380.1879577636719,15.624999046325684,-13.122557640075684,-3.69921875,-0.3076171875,0.3609619140625
3.816,962,3147,3147,3147,18.0,28.0,8.0,-201.23289489746094,-5.859374523162842,-15.136717796325684,-3.1524658203125,-1.5115966796875,0.3265380859375
3.820,888,3147,3147,3147,18.0,28.0,8.0,19.22607421875,-26.428220748901367,-12.268065452575684,-1.9205322265625,-1.38720703125,0.5548095703125
3.829,767,3147,3147,3147,18.0,28.0,8.0,19.22607421875,-26.428220748901367,-12.268065452575684,-0.8536376953125,-0.311767578125,1.103759765625
3.843,666,3147,3147,3147,18.0,28.0,8.0,122.37548065185547,-2.197265625,-13.916014671325684,-0.5738525390625,0.870849609375,1.2496337890625
3.886,632,3147,3147,3147,18.0,28.0,8.0,49.072261810302734,61.462398529052734,-18.98193359375,-2.04150390625,1.76513671875,0.2330322265625
3.890,440,3147,3147,3147,18.0,28.0,8.0,-77.392578125,82.64159393310547,-16.66259765625,-2.337158203125,1.01123046875,-0.0823974609375
3.898,413,3147,3147,3147,18.0,28.0,8.0,-77.392578125,82.64159393310547,-16.66259765625,-2.08349609375,0.2589111328125,-0.0391845703125
3.902,402,3147,2869,3147,18.0,28.0,8.0,-67.19970703125,53.100582122802734,-20.141599655151367,-2.08349609375,0.2589111328125,-0.0391845703125
3.919,391,3147,2359,2859,15.0,27.0,13.0,28.259275436401367,4.08935546875,-8.85009765625,-1.0047607421875,-0.2049560546875,0.4945068359375
3.923,408,3147,2153,2534,15.0,27.0,13.0,58.044429779052734,-0.1831054538488388,11.657713890075684,-0.52685546875,-0.29150390625,0.564453125
3.925,383,3147,1894,2202,15.0,27.0,13.0,58.044429779052734,-0.1831054538488388,11.657713890075684,-0.205322265625,-0.36279296875,0.491455078125
3.932,391,3147,1519,1582,15.0,27.0,13.0,104.00389862060547,20.751951217651367,33.5693359375,-0.001708984375,-0.331298828125,0.3592529296875
3.941,365,3147,1533,1454,15.0,27.0,13.0,124.87792205810547,36.1328125,21.301267623901367,0.0704345703125,-0.1656494140625,0.2379150390625
3.948,361,3147,1533,1025,15.0,27.0,13.0,124.87792205810547,36.1328125,21.301267623901367,-0.1068115234375,0.1041259765625,0.1802978515625
3.962,357,3147,1399,531,15.0,27.0,13.0,121.45995330810547,48.950191497802734,-14.648436546325684,-0.4515380859375,0.2674560546875,0.0836181640625
3.990,354,3147,1365,390,15.0,27.0,13.0,98.93798065185547,47.851558685302734,-19.04296875,-0.641357421875,0.2724609375,-0.13671875
3.991,351,3147,1336,389,15.0,27.0,13.0,98.93798065185547,47.851558685302734,-19.04296875,-0.58984375,0.296875,-0.2396240234375
3.993,346,3147,1217,371,15.0,27.0,13.0,51.879878997802734,36.2548828125,-8.85009765625,-0.530517578125,0.3297119140625,-0.1575927734375
4.000,347,3147,1146,419,15.0,29.0,13.0,51.879878997802734,36.2548828125,-8.85009765625,-0.58056640625,0.3231201171875,-0.1204833984375
4.021,342,3147,1117,472,15.0,29.0,13.0,31.555173873901367,24.475095748901367,-0.54931640625,-0.58056640625,0.3231201171875,-0.1204833984375
4.022,337,3147,1045,603,15.0,29.0,13.0,3.356933355331421,14.404295921325684,22.155759811401367,-0.79931640625,0.387939453125,-0.03173828125
4.031,336,3147,1053,687,15.0,29.0,13.0,3.356933355331421,14.404295921325684,22.155759811401367,-0.8828125,0.4056396484375,0.1357421875
4.039,334,3147,1067,756,15.0,29.0,13.0,-9.521484375,6.774901866912842,28.564451217651367,-0.8828125,0.4056396484375,0.1357421875
4.052,337,3147,1026,858,15.0,29.0,13.0,-24.353025436401367,4.150390625,23.803709030151367,-0.8570556640625,0.3720703125,0.308349609375
4.061,338,3147,1025,905,15.0,29.0,13.0,-24.353025436401367,4.150390625,23.803709030151367,-0.8507080078125,0.347900390625,0.2730712890625
4.090,337,3147,1032,918,15.0,29.0,13.0,-28.320310592651367,10.437010765075684,16.54052734375,-0.8507080078125,0.347900390625,0.2730712890625
4.105,338,3147,1043,986,15.0,29.0,13.0,-19.34814453125,11.047362327575684,7.812499523162842,-0.92822265625,0.34521484375,0.190673828125
4.107,336,3147,1069,1004,15.0,29.0,13.0,-19.34814453125,11.047362327575684,7.812499523162842,-0.97412109375,0.3685302734375,0.193359375
4.128,337,3147,1079,1067,13.0,31.0,6.0,-10.803221702575684,5.859374523162842,7.751464366912842,-0.97412109375,0.3685302734375,0.193359375
4.129,342,3147,1071,1091,13.0,31.0,6.0,-5.371093273162842,0.30517578125,9.33837890625,-0.9957275390625,0.332275390625,0.1990966796875
4.130,342,3147,1091,1093,13.0,31.0,6.0,-5.371093273162842,0.30517578125,9.33837890625,-0.995849609375,0.2764892578125,0.1982421875
4.130,334,3147,1074,1108,13.0,31.0,6.0,-4.0283203125,-0.4882812201976776,9.33837890625,-0.995849609375,0.2764892578125,0.1982421875
4.142,343,3147,1026,1098,13.0,31.0,6.0,9.94873046875,-2.746581792831421,9.70458984375,-0.97998046875,0.313720703125,0.1890869140625
4.152,338,3147,1014,1078,13.0,31.0,6.0,9.94873046875,-2.746581792831421,9.70458984375,-0.95556640625,0.3751220703125,0.1827392578125
4.159,336,3147,1000,1063,13.0,31.0,6.0,13.183592796325684,-3.540038824081421,10.070799827575684,-0.95556640625,0.3751220703125,0.1827392578125
4.173,337,3147,1022,986,13.0,31.0,6.0,6.225585460662842,-1.8310545682907104,8.11767578125,-0.9383544921875,0.3614501953125,0.161865234375
4.180,336,3147,1026,938,13.0,31.0,6.0,6.225585460662842,-1.8310545682907104,8.11767578125,-0.9373779296875,0.3343505859375,0.1343994140625
4.202,336,3147,1043,882,13.0,31.0,6.0,6.225585460662842,-2.3193359375,6.896972179412842,-0.9373779296875,0.3343505859375,0.1343994140625
4.202,336,3147,1073,713,12.0,30.0,13.0,10.253905296325684,-5.065917491912842,6.469726085662842,-0.9111328125,0.350830078125,0.0966796875
4.210,338,3147,1122,638,12.0,30.0,13.0,13.000487327575684,-9.21630859375,6.896972179412842,-0.9111328125,0.350830078125,0.0966796875
4.227,338,3147,1148,498,12.0,30.0,13.0,12.329100608825684,-12.573241233825684,7.934569835662842,-0.90771484375,0.3524169921875,0.1103515625
4.232,344,3089,1160,360,12.0,30.0,13.0,10.498045921325684,-14.709471702575684,9.82666015625,-0.9407958984375,0.3043212890625,0.1351318359375
4.255,345,2778,1183,365,12.0,30.0,13.0,10.375975608825684,-17.02880859375,13.427733421325684,-0.9407958984375,0.3043212890625,0.1351318359375
4.257,346,2559,1201,364,12.0,30.0,13.0,12.817381858825684,-20.324705123901367,19.10400390625,-0.968994140625,0.2677001953125,0.1214599609375
4.263,346,2035,1175,363,12.0,30.0,13.0,15.136717796325684,-24.291990280151367,27.648923873901367,-1.0201416015625,0.20556640625,0.041259765625
4.271,338,1865,1117,363,12.0,30.0,13.0,14.526366233825684,-29.113767623901367,39.1845703125,-1.0201416015625,0.20556640625,0.041259765625
4.290,338,1616,1018,359,12.0,30.0,13.0,11.108397483825684,-35.0341796875,52.673336029052734,-1.031494140625,0.1947021484375,0.009521484375
4.292,330,1745,785,351,9.0,31.0,13.0,5.798339366912842,-41.687007904052734,66.83349609375,-0.9046630859375,0.158935546875,-0.059326171875
4.311,323,2115,636,348,9.0,31.0,13.0,-1.0986328125,-48.400875091552734,80.50536346435547,-0.9046630859375,0.158935546875,-0.059326171875
4.311,321,2469,591,338,9.0,31.0,13.0,-7.507323741912842,-54.199214935302734,92.04100799560547,-0.648193359375,0.10986328125,-0.116943359375
4.328,316,3147,605,337,9.0,31.0,13.0,-12.695311546325684,-59.753414154052734,96.31346893310547,0.270263671875,0.1707763671875,0.0740966796875
4.330,316,3147,694,913,9.0,31.0,13.0,-16.11328125,-69.76318359375,84.89989471435547,0.270263671875,0.1707763671875,0.0740966796875
4.338,331,3147,1160,1722,9.0,31.0,13.0,-3.784179449081421,-82.09227752685547,55.786128997802734,0.76708984375,0.2362060546875,0.4234619140625
4.352,360,3147,1478,2484,9.0,31.0,13.0,28.625486373901367,-83.43505096435547,14.404295921325684,2.0194091796875,-0.1331787109375,0.358154296875
4.360,371,3147,1786,3147,9.0,31.0,13.0,57.250972747802734,-64.208984375,-43.212886810302734,2.0194091796875,-0.1331787109375,0.358154296875
4.368,373,3147,1894,3147,9.0,31.0,13.0,51.879878997802734,-15.747069358825684,-106.32323455810547,1.5823974609375,-0.1143798828125,-0.2232666015625
4.383,468,3147,2486,3147,9.0,31.0,13.0,-35.21728515625,16.357421875,-122.92479705810547,-2.0401611328125,1.9151611328125,0.70947265625
4.397,447,3147,3144,3147,14.0,29.0,11.0,-179.68748474121094,6.469726085662842,-80.50536346435547,-2.0401611328125,1.9151611328125,0.70947265625
4.398,680,3147,3147,3147,14.0,29.0,11.0,-302.55126953125,1.4038084745407104,-22.766111373901367,-3.1484375,2.2757568359375,1.016357421875
4.423,733,3147,3147,3147,14.0,29.0,11.0,-356.6283874511719,6.958007335662842,5.676269054412842,-3.8350830078125,-0.692626953125,0.541015625
4.425,749,3147,3147,3147,14.0,29.0,11.0,-268.49365234375,-7.080077648162842,4.33349609375,-3.8350830078125,-0.692626953125,0.541015625
4.435,673,3147,3147,3147,14.0,29.0,11.0,-54.809566497802734,-41.442867279052734,13.916014671325684,-3.364013671875,-1.3248291015625,0.221435546875
4.442,406,3147,3056,3147,14.0,29.0,11.0,125.61034393310547,-64.27001953125,26.672361373901367,-1.831787109375,-0.6473388671875,0.60205078125
4.450,403,3147,2935,3147,14.0,29.0,11.0,169.86082458496094,-52.185054779052734,9.21630859375,-0.4879150390625,0.55322265625,1.3310546875
4.459,401,3147,2968,3147,14.0,29.0,11.0,123.29100799560547,9.6435546875,-28.198240280151367,-0.517578125,1.541748046875,1.30859375
4.472,402,3147,2939,3147,14.0,29.0,11.0,60.852046966552734,80.99364471435547,-45.959468841552734,-1.445068359375,2.1234130859375,0.719970703125
4.480,402,3147,2859,3147,14.0,29.0,11.0,2.38037109375,105.52977752685547,-38.26904296875,-2.14306640625,1.7867431640625,0.1490478515625
4.499,401,3147,2765,3147,11.0,28.0,10.0,-34.7900390625,90.20995330810547,-32.470703125,-2.1973876953125,0.895751953125,-0.072998046875
4.504,398,3147,2492,3147,11.0,28.0,10.0,-31.799314498901367,59.448238372802734,-35.94970703125,-1.830810546875,0.3016357421875,0.0528564453125
4.516,391,3147,2271,3147,11.0,28.0,10.0,-3.906249761581421,32.470703125,-40.0390625,-1.3480224609375,0.16943359375,0.291259765625
4.541,414,3147,1994,2981,11.0,28.0,10.0,28.625486373901367,17.15087890625,-35.33935546875,-0.88525390625,0.2684326171875,0.5438232421875
4.550,403,3147,1488,2010,11.0,28.0,10.0,53.771968841552734,16.845703125,-23.498533248901367,-0.48046875,0.2176513671875,0.657958984375
4.550,1122,3147,1266,1415,11.0,28.0,10.0,65.7958984375,33.935546875,-15.380858421325684,-0.21533203125,-0.0882568359375,0.519775390625
4.556,371,3147,1371,999,11.0,28.0,10.0,73.18115234375,57.250972747802734,-14.160155296325684,-0.053466796875,-0.451904296875,0.278076171875
4.563,356,3147,1334,375,11.0,28.0,10.0,86.54784393310547,72.08251953125,-18.37158203125,-0.023193359375,-0.5963134765625,0.0994873046875
4.571,361,2848,1276,357,11.0,28.0,10.0,103.82079315185547,71.22802734375,-26.000974655151367,-0.1861572265625,-0.398681640625,0.046630859375
4.596,356,2555,1199,356,11.0,28.0,10.0,110.71776580810547,61.462398529052734,-32.40966796875,-0.388671875,-0.115234375,-0.0047607421875
4.597,351,2278,1050,347,11.0,29.0,11.0,102.96630096435547,57.739253997802734,-35.7666015625,-0.4595947265625,0.13427734375,-0.1053466796875
4.601,344,2117,1066,351,11.0,29.0,11.0,85.81542205810547,55.908199310302734,-37.109375,-0.464599609375,0.3074951171875,-0.1236572265625
4.609,342,1989,1063,347,11.0,29.0,11.0,68.29833984375,45.837398529052734,-34.7900390625,-0.51025390625,0.328857421875,-0.1221923828125
4.646,338,2083,1101,351,11.0,29.0,11.0,59.265132904052734,33.02001953125,-25.878904342651367,-0.573486328125,0.3875732421875,-0.1495361328125
4.647,338,2175,1029,344,11.0,29.0,11.0,49.987789154052734,21.667478561401367,-12.817381858825684,-0.660400390625,0.50732421875,-0.0943603515625
4.648,336,2325,1131,351,11.0,29.0,11.0,31.005857467651367,10.559081077575684,-0.9155272841453552,-0.7645263671875,0.5087890625,0.0289306640625
4.653,334,2569,1234,349,11.0,29.0,11.0,11.047362327575684,1.9531248807907104,6.347655773162842,-0.8345947265625,0.4185791015625,0.1107177734375
4.661,352,2621,1268,355,11.0,29.0,11.0,-0.6713866591453552,-0.7934569716453552,7.141112804412842,-0.8670654296875,0.3726806640625,0.1494140625
4.671,344,2713,1323,359,11.0,29.0,11.0,-6.530761241912842,0.9155272841453552,1.5258787870407104,-0.8665771484375,0.3675537109375,0.1640625
4.700,383,2943,1328,356,12.0,28.0,12.0,-9.94873046875,3.906249761581421,-6.469726085662842,-0.846923828125,0.345458984375,0.1390380859375
4.704,351,3048,1323,359,12.0,28.0,12.0,-11.047362327575684,5.310058116912842,-10.375975608825684,-0.83642578125,0.314697265625,0.1187744140625
4.709,348,3134,1375,361,12.0,28.0,12.0,-9.521484375,2.807616949081421,-7.507323741912842,-0.864501953125,0.267578125,0.128173828125
4.719,346,3147,1424,371,12.0,28.0,12.0,-4.21142578125,-2.868652105331421,-0.6713866591453552,-0.9166259765625,0.2235107421875,0.125732421875
4.737,346,3147,1403,411,12.0,28.0,12.0,3.845214605331421,-10.009765625,5.920409679412842,-0.9493408203125,0.2490234375,0.1265869140625
4.744,346,3147,1447,533,12.0,28.0,12.0,11.230467796325684,-15.869139671325684,7.812499523162842,-0.96484375,0.3260498046875,0.1549072265625
4.745,344,3147,1474,606,12.0,28.0,12.0,14.709471702575684,-17.15087890625,3.784179449081421,-0.98779296875,0.3837890625,0.153564453125
4.762,328,3147,1487,660,12.0,28.0,12.0,11.962889671325684,-14.831542015075684,-1.5258787870407104,-1.0028076171875,0.3974609375,0.115478515625
4.764,338,3147,1478,705,12.0,28.0,12.0,4.150390625,-12.390135765075684,-3.906249761581421,-0.9969482421875,0.3883056640625,0.099609375
4.772,344,3147,1488,746,12.0,28.0,12.0,-4.94384765625,-10.620116233825684,-3.540038824081421,-0.98876953125,0.372314453125,0.1014404296875
4.802,342,3147,1516,830,13.0,33.0,10.0,-11.718749046325684,-9.33837890625,-2.3193359375,-0.9840087890625,0.3358154296875,0.0928955078125
4.803,346,3147,1527,872,13.0,33.0,10.0,-14.038084983825684,-9.82666015625,-1.4038084745407104,-0.9747314453125,0.2821044921875,0.0755615234375
4.818,344,3147,1549,891,13.0,33.0,10.0,-10.131834983825684,-13.366698265075684,-1.4038084745407104,-0.9552001953125,0.24609375,0.0667724609375
4.823,356,3147,1552,907,13.0,33.0,10.0,-1.8310545682907104,-19.53125,-2.38037109375,-0.9212646484375,0.24755859375,0.0841064453125
4.849,359,3147,1569,885,13.0,33.0,10.0,6.530761241912842,-25.695798873901367,-3.906249761581421,-0.8856201171875,0.2896728515625,0.118896484375
4.849,382,3147,1555,958,13.0,33.0,10.0,10.131834983825684,-28.808591842651367,-4.94384765625,-0.87060546875,0.35205078125,0.15234375
4.851,371,3147,1588,978,13.0,33.0,10.0,6.103515148162842,-28.259275436401367,-5.0048828125,-0.8973388671875,0.3892822265625,0.169189453125
4.851,414,3147,1503,949,13.0,33.0,10.0,-2.990722417831421,-26.000974655151367,-3.784179449081421,-0.9735107421875,0.3790283203125,0.1636962890625
4.859,369,3147,1602,879,13.0,33.0,10.0,-10.986327171325684,-25.451658248901367,-0.9765624403953552,-1.0716552734375,0.3359375,0.155029296875
4.871,371,3147,1596,808,13.0,33.0,10.0,-10.986327171325684,-25.451658248901367,-0.9765624403953552,-1.1475830078125,0.27099609375,0.1512451171875
4.881,378,3147,1585,540,11.0,30.0,14.0,-15.747069358825684,-33.14208984375,11.535643577575684,-1.1890869140625,0.2105712890625,0.1492919921875
4.903,379,3147,1573,410,11.0,30.0,14.0,-17.51708984375,-39.24560546875,22.827146530151367,-1.200439453125,0.156005859375,0.1358642578125
4.907,385,3147,1476,383,11.0,30.0,14.0,-17.51708984375,-39.24560546875,22.827146530151367,-1.130126953125,0.04248046875,0.040283203125
4.924,359,3147,1313,393,11.0,30.0,14.0,-20.751951217651367,-52.001949310302734,58.593746185302734,-0.884033203125,-0.092041015625,-0.1468505859375
4.943,347,3147,1157,584,11.0,30.0,14.0,-14.526366233825684,-60.729976654052734,78.43017578125,-0.4405517578125,-0.111572265625,-0.219970703125
4.946,362,3147,1148,1050,11.0,30.0,14.0,-14.526366233825684,-60.729976654052734,78.43017578125,0.14697265625,-0.039306640625,0.0115966796875
4.949,365,3147,1483,1792,11.0,30.0,14.0,23.986814498901367,-81.11571502685547,63.293453216552734,0.8023681640625,0.04931640625,0.399169921875
4.952,385,3147,1602,2280,11.0,30.0,14.0,39.12353515625,-74.70703125,13.793944358825684,1.4937744140625,-0.1055908203125,0.62158203125
4.957,378,3147,1865,2652,11.0,30.0,14.0,39.12353515625,-74.70703125,13.793944358825684,1.8909912109375,-0.2210693359375,0.3536376953125
4.971,401,3147,2024,3147,11.0,30.0,14.0,34.66796875,-5.859374523162842,-91.24755096435547,1.3221435546875,0.2989501953125,0.0379638671875
4.983,386,3147,2235,3147,13.0,28.0,14.0,-31.616209030151367,16.4794921875,-92.83446502685547,-0.18310546875,1.2159423828125,0.1190185546875
4.990,431,3147,2798,3147,13.0,28.0,14.0,-31.616209030151367,16.4794921875,-92.83446502685547,-1.72412109375,2.3331298828125,0.3677978515625
5.007,620,3147,3147,3147,13.0,28.0,14.0,-266.17431640625,18.98193359375,-37.04833984375,-2.7203369140625,2.464599609375,0.6136474609375
5.010,872,3147,3147,3147,13.0,28.0,14.0,-266.17431640625,18.98193359375,-37.04833984375,-3.3980712890625,1.1416015625,0.7008056640625
5.018,994,3147,3147,3147,13.0,28.0,14.0,-347.5951843261719,8.9111328125,-37.04833984375,-3.3980712890625,1.1416015625,0.7008056640625
5.053,1070,3147,3147,3147,13.0,28.0,14.0,-166.25975036621094,-32.77587890625,-41.015621185302734,-3.0648193359375,-1.4207763671875,0.4132080078125
5.053,1004,3147,3147,3147,13.0,28.0,14.0,-166.25975036621094,-32.77587890625,-41.015621185302734,-1.77099609375,-1.832763671875,0.202392578125
5.054,963,3147,3147,3147,13.0,28.0,14.0,18.24951171875,-30.456541061401367,-38.51318359375,-1.77099609375,-1.832763671875,0.202392578125
5.062,958,3147,3147,3147,13.0,28.0,14.0,154.72412109375,-15.502928733825684,-25.390623092651367,-0.8548583984375,0.8582763671875,1.185302734375
5.069,912,3147,3147,3147,13.0,28.0,14.0,154.72412109375,-15.502928733825684,-25.390623092651367,-1.6136474609375,1.6993408203125,0.914794921875
5.080,891,3147,3147,3147,17.0,26.0,16.0,61.523433685302734,34.72900390625,-22.338865280151367,-1.6136474609375,1.6993408203125,0.914794921875
5.112,827,3147,3147,3147,17.0,26.0,16.0,-78.61328125,88.80614471435547,-20.141599655151367,-2.1861572265625,0.7093505859375,-0.0079345703125
5.116,725,3147,3147,3147,17.0,26.0,16.0,-78.61328125,88.80614471435547,-20.141599655151367,-1.9036865234375,0.1331787109375,0.113525390625
5.119,607,3147,3147,3147,17.0,26.0,16.0,-53.588863372802734,54.077144622802734,-22.277830123901367,-1.9036865234375,0.1331787109375,0.113525390625
5.126,421,3147,3144,3022,17.0,26.0,16.0,25.207517623901367,5.615233898162842,-9.58251953125,-1.0958251953125,-0.0018310546875,0.5352783203125
5.154,411,3147,2868,2497,17.0,26.0,16.0,25.207517623901367,5.615233898162842,-9.58251953125,-0.7630615234375,-0.0517578125,0.4801025390625
5.156,400,3147,2587,2065,17.0,26.0,16.0,40.954586029052734,12.756346702575684,5.676269054412842,-0.7630615234375,-0.0517578125,0.4801025390625
5.156,442,3147,1996,1125,17.0,26.0,16.0,52.917476654052734,30.944822311401367,31.921384811401367,-0.340087890625,-0.46044921875,0.158935546875
5.159,481,3147,1604,761,17.0,26.0,16.0,52.917476654052734,30.944822311401367,31.921384811401367,-0.20361328125,-0.500732421875,0.0693359375
5.170,371,3147,1574,426,17.0,26.0,16.0,69.580078125,35.888671875,34.5458984375,-0.20361328125,-0.500732421875,0.0693359375
5.181,403,2801,1568,361,17.0,28.0,13.0,105.16356658935547,35.0341796875,17.51708984375,-0.2730712890625,0.051025390625,0.2037353515625
5.189,363,2357,1624,371,17.0,28.0,13.0,105.16356658935547,35.0341796875,17.51708984375,-0.4505615234375,0.1552734375,0.1893310546875
5.210,375,1999,1501,377,17.0,28.0,13.0,102.35594940185547,38.330078125,7.202147960662842,-0.4505615234375,0.1552734375,0.1893310546875
5.211,403,1071,1399,348,17.0,28.0,13.0,70.73974609375,57.006832122802734,-6.469726085662842,-0.5654296875,0.3045654296875,-0.198974609375
5.219,371,947,1473,363,17.0,28.0,13.0,70.73974609375,57.006832122802734,-6.469726085662842,-0.5654296875,0.3045654296875,-0.198974609375
5.228,389,900,1453,355,17.0,28.0,13.0,46.325679779052734,44.311519622802734,-5.432128429412842,-0.5361328125,0.419189453125,-0.1622314453125
5.249,401,879,1338,356,17.0,28.0,13.0,28.869626998901367,25.634763717651367,2.3193359375,-0.676025390625,0.6522216796875,0.0467529296875
5.250,405,705,1303,349,17.0,28.0,13.0,18.798828125,13.122557640075684,15.258788108825684,-0.676025390625,0.6522216796875,0.0467529296875
5.261,388,705,1303,348,17.0,28.0,13.0,6.347655773162842,7.629394054412842,27.343748092651367,-0.78662109375,0.576171875,0.1075439453125
5.273,376,607,1326,343,13.0,30.0,13.0,-6.530761241912842,4.82177734375,32.5927734375,-0.894775390625,0.2451171875,0.2603759765625
5.281,363,695,1331,342,13.0,30.0,13.0,-9.94873046875,3.112792730331421,29.052732467651367,-0.894775390625,0.2451171875,0.2603759765625
5.287,369,588,1280,338,13.0,30.0,13.0,-0.6713866591453552,3.112792730331421,19.8974609375,-0.924072265625,0.1917724609375,0.27001953125
5.312,346,625,1313,336,13.0,30.0,13.0,16.2353515625,2.0751953125,11.657713890075684,-0.9356689453125,0.2816162109375,0.212646484375
5.312,371,620,1317,336,13.0,30.0,13.0,32.470703125,-0.8544921278953552,8.056640625,-0.9356689453125,0.2816162109375,0.212646484375
5.321,385,673,1355,338,13.0,30.0,13.0,41.748043060302734,-2.50244140625,7.629394054412842,-0.85888671875,0.35009765625,0.1912841796875
5.331,527,849,1236,334,13.0,30.0,13.0,40.161128997802734,-1.9531248807907104,7.141112804412842,-0.7393798828125,0.2818603515625,0.2119140625
5.352,747,973,1340,330,13.0,30.0,13.0,30.761716842651367,-1.4648436307907104,6.225585460662842,-0.7393798828125,0.2818603515625,0.2119140625
5.354,1456,1213,548,318,13.0,30.0,13.0,23.498533248901367,-3.051757574081421,6.530761241912842,-0.7208251953125,0.2216796875,0.2353515625
5.369,469,1456,1351,346,13.0,30.0,13.0,22.094724655151367,-6.408690929412842,8.60595703125,-0.760009765625,0.2784423828125,0.22802734375
5.371,388,1540,1463,351,15.0,28.0,16.0,21.606443405151367,-9.70458984375,10.620116233825684,-0.760009765625,0.2784423828125,0.22802734375
5.381,411,1775,1435,355,15.0,28.0,16.0,19.8974609375,-12.084959983825684,11.779784202575684,-0.808349609375,0.3160400390625,0.1983642578125
5.392,423,2150,1455,356,15.0,28.0,16.0,18.24951171875,-13.366698265075684,12.939452171325684,-0.8701171875,0.358154296875,0.0799560546875
5.415,418,2210,1481,359,15.0,28.0,16.0,14.648436546325684,-14.526366233825684,14.221190452575684,-0.8701171875,0.358154296875,0.0799560546875
5.415,426,2361,1501,360,15.0,28.0,16.0,6.896972179412842,-16.9677734375,15.136717796325684,-0.9154052734375,0.35400390625,0.0714111328125
5.421,413,2624,1527,363,15.0,28.0,16.0,-2.746581792831421,-19.83642578125,15.808104515075684,-0.9947509765625,0.2752685546875,0.0894775390625
5.434,414,2698,1529,363,15.0,28.0,16.0,-10.131834983825684,-21.667478561401367,16.845703125,-0.9947509765625,0.2752685546875,0.0894775390625
5.448,411,2707,1548,364,15.0,28.0,16.0,-14.221190452575684,-22.583005905151367,18.9208984375,-1.0118408203125,0.2884521484375,0.084228515625
5.475,375,2863,1604,371,15.0,28.0,16.0,-17.333984375,-23.437498092651367,22.216794967651367,-1.033203125,0.3251953125,0.0618896484375
5.478,351,2909,1544,361,15.0,28.0,16.0,-22.583005905151367,-24.047849655151367,28.198240280151367,-1.0721435546875,0.361328125,0.0126953125
5.478,378,2859,1518,360,11.0,28.0,17.0,-32.3486328125,-24.475095748901367,39.12353515625,-1.1265869140625,0.3704833984375,-0.0341796875
5.483,462,2748,1104,352,11.0,28.0,17.0,-47.729488372802734,-25.390623092651367,55.786128997802734,-1.1470947265625,0.291015625,-0.048828125
5.492,388,3008,992,348,11.0,28.0,17.0,-65.73486328125,-27.404783248901367,76.0498046875,-1.0540771484375,0.123046875,-0.046875
5.518,431,3147,707,344,11.0,28.0,17.0,-76.66015625,-33.26416015625,93.50585174560547,-0.817138671875,0.0048828125,0.0382080078125
5.521,369,3147,923,922,11.0,28.0,17.0,-65.85693359375,-44.921871185302734,97.65624237060547,-0.4273681640625,0.0455322265625,0.284912109375
5.523,787,3147,1051,1452,11.0,28.0,17.0,-26.733396530151367,-54.870601654052734,79.04052734375,0.207275390625,0.188232421875,0.5982666015625
5.531,533,3147,1334,1968,11.0,28.0,17.0,22.827146530151367,-53.710933685302734,29.968259811401367,1.0772705078125,0.1485595703125,0.781982421875
5.583,375,3147,1739,2763,11.0,28.0,17.0,61.218257904052734,-36.92626953125,-48.339839935302734,1.703125,-0.51953125,-0.15869140625
5.583,375,3147,1843,3126,11.0,28.0,17.0,76.7822265625,-3.112792730331421,-118.34716033935547,1.703125,-0.51953125,-0.15869140625
5.584,387,3147,1989,3147,11.0,28.0,17.0,47.058101654052734,19.10400390625,-132.568359375,0.5914306640625,0.281982421875,-0.2357177734375
5.585,409,3147,2803,3147,13.0,27.0,13.0,-27.282712936401367,12.878417015075684,-94.66551971435547,-1.0634765625,1.7261962890625,0.268798828125
5.586,419,3147,3147,3147,13.0,27.0,13.0,-129.8828125,7.385253429412842,-45.288082122802734,-2.33740234375,2.852294921875,0.6636962890625
5.588,614,3147,3147,3147,13.0,27.0,13.0,-251.77000427246094,8.36181640625,-23.559568405151367,-3.073974609375,2.025146484375,0.7215576171875
5.619,849,3147,3147,3147,13.0,27.0,13.0,-307.18994140625,1.9531248807907104,-30.029294967651367,-3.656005859375,0.1278076171875,0.513671875
5.621,872,3147,3147,3147,13.0,27.0,13.0,-212.64646911621094,-14.770506858825684,-29.052732467651367,-3.65771484375,-1.0302734375,0.2879638671875
5.621,794,3147,3147,3147,13.0,27.0,13.0,-33.26416015625,-32.04345703125,-17.51708984375,-2.52001953125,-1.3438720703125,0.1805419921875
5.633,684,3147,3147,3147,13.0,27.0,13.0,115.29540252685547,-36.80419921875,-15.747069358825684,-1.1116943359375,-0.523193359375,0.5245361328125
5.641,725,3147,3147,3147,13.0,27.0,13.0,158.3251953125,-16.2353515625,-26.977537155151367,-0.6585693359375,0.7755126953125,0.9930419921875
5.663,748,3147,3147,3147,13.0,27.0,13.0,96.31346893310547,30.334470748901367,-42.297359466552734,-1.2906494140625,1.5228271484375,0.8826904296875
5.670,721,3147,3147,3147,17.0,31.0,13.0,4.8828125,66.89453125,-44.555660247802734,-2.037841796875,1.5723876953125,0.4180908203125
5.678,661,3147,3147,3147,17.0,31.0,13.0,-49.194332122802734,70.37353515625,-35.70556640625,-2.1845703125,0.998779296875,0.0863037109375
5.688,554,3147,3147,3147,17.0,31.0,13.0,-49.133296966552734,51.391597747802734,-29.968259811401367,-1.951416015625,0.404541015625,0.1038818359375
5.694,402,3147,3075,3147,17.0,31.0,13.0,-23.010251998901367,29.113767623901367,-27.099607467651367,-1.5811767578125,0.0767822265625,0.280517578125
5.702,388,3147,2792,2981,17.0,31.0,13.0,0.9765624403953552,16.66259765625,-18.73779296875,-1.201416015625,-0.0068359375,0.3992919921875
5.721,396,3147,2551,2632,17.0,31.0,13.0,17.76123046875,14.099120140075684,0.3662109076976776,-0.8587646484375,-0.0457763671875,0.4149169921875
5.722,424,3147,2167,2076,17.0,31.0,13.0,28.564451217651367,18.85986328125,22.644041061401367,-0.5953369140625,-0.20654296875,0.328857421875
5.730,385,3147,1912,1739,17.0,31.0,13.0,37.78076171875,26.794431686401367,36.7431640625,-0.411865234375,-0.39599609375,0.2005615234375
5.739,363,3147,1541,1328,17.0,31.0,13.0,52.185054779052734,33.14208984375,37.53662109375,-0.2657470703125,-0.462890625,0.0938720703125
5.763,344,3147,1450,793,17.0,31.0,13.0,71.10595703125,36.31591796875,27.099607467651367,-0.1717529296875,-0.3475341796875,0.0802001953125
5.776,342,3147,1533,478,9.0,29.0,11.0,85.02196502685547,35.33935546875,14.038084983825684,-0.238037109375,-0.04296875,0.211669921875
5.780,344,3089,1519,363,9.0,29.0,11.0,91.12548065185547,33.14208984375,6.347655773162842,-0.3719482421875,0.1083984375,0.25244140625
5.782,342,2541,1429,355,9.0,29.0,11.0,90.63719940185547,40.0390625,1.4648436307907104,-0.4249267578125,0.1644287109375,0.0673828125
5.792,338,2519,1424,356,9.0,29.0,11.0,77.5146484375,47.119136810302734,-2.624511480331421,-0.4425048828125,0.326904296875,-0.1229248046875
5.798,347,2601,1417,357,9.0,29.0,11.0,54.748531341552734,38.39111328125,-1.6479490995407104,-0.448974609375,0.40625,-0.1756591796875
5.823,338,2735,1312,348,9.0,29.0,11.0,39.0625,21.728513717651367,6.774901866912842,-0.5087890625,0.5328369140625,-0.1209716796875
5.824,344,2837,1312,354,9.0,29.0,11.0,33.447265625,8.85009765625,19.47021484375,-0.6357421875,0.702880859375,-0.0023193359375
5.829,338,2909,1348,354,9.0,29.0,11.0,23.071287155151367,3.112792730331421,27.038572311401367,-0.74951171875,0.70751953125,0.1153564453125
5.846,344,3059,1419,352,9.0,29.0,11.0,4.150390625,2.3193359375,24.291990280151367,-0.788818359375,0.5467529296875,0.194580078125
5.867,346,3147,1428,351,9.0,29.0,11.0,-14.038084983825684,4.2724609375,13.732909202575684,-0.78173828125,0.3826904296875,0.25244140625
5.868,323,3147,1476,354,13.0,31.0,14.0,-25.573728561401367,8.544921875,1.0986328125,-0.7957763671875,0.275390625,0.25390625
5.874,371,3147,1483,371,13.0,31.0,14.0,-29.174802780151367,13.427733421325684,-8.23974609375,-0.8468017578125,0.2303466796875,0.1865234375
5.889,373,3147,1501,409,13.0,31.0,14.0,-25.268552780151367,14.831542015075684,-11.474608421325684,-0.9244384765625,0.2293701171875,0.1087646484375
5.889,364,3147,1518,512,13.0,31.0,14.0,-17.08984375,10.864256858825684,-9.033203125,-0.9908447265625,0.2366943359375,0.08837890625
5.902,373,3147,1509,603,13.0,31.0,14.0,-9.82666015625,3.845214605331421,-3.601073980331421,-1.0235595703125,0.246337890625,0.127197265625
5.929,382,3147,1508,642,13.0,31.0,14.0,-5.859374523162842,-2.197265625,1.5258787870407104,-1.031982421875,0.25048828125,0.1700439453125
5.930,438,3147,1464,688,13.0,31.0,14.0,-3.845214605331421,-5.187987804412842,4.94384765625,-1.0303955078125,0.240234375,0.1788330078125
5.933,383,3147,1519,687,13.0,31.0,14.0,-2.197265625,-6.164550304412842,7.324218273162842,-1.0303955078125,0.2222900390625,0.1612548828125
5.940,390,3147,1533,721,13.0,31.0,14.0,-0.30517578125,-6.958007335662842,9.58251953125,-1.0286865234375,0.2264404296875,0.14208984375
5.949,388,3147,1529,737,13.0,31.0,14.0,2.44140625,-8.4228515625,12.207030296325684,-1.0174560546875,0.265625,0.1439208984375
5.966,360,3147,1562,758,13.0,31.0,11.0,5.676269054412842,-10.131834983825684,14.465331077575684,-1.0,0.3006591796875,0.1595458984375
5.972,376,3147,1546,766,13.0,31.0,11.0,8.7890625,-11.657713890075684,15.380858421325684,-0.9801025390625,0.3233642578125,0.1854248046875
5.979,437,3147,1483,778,13.0,31.0,11.0,12.878417015075684,-13.122557640075684,14.465331077575684,-0.95166015625,0.353759765625,0.2230224609375
5.997,402,3147,1529,753,13.0,31.0,11.0,18.5546875,-13.671874046325684,11.962889671325684,-0.9246826171875,0.384765625,0.2288818359375
6.005,361,3147,1588,735,13.0,31.0,11.0,23.193357467651367,-12.817381858825684,9.58251953125,-0.916748046875,0.40380859375,0.196044921875
6.008,360,3147,1611,673,13.0,31.0,11.0,23.498533248901367,-12.145995140075684,9.521484375,-0.9290771484375,0.397705078125,0.1605224609375
6.030,402,3147,1561,482,13.0,31.0,11.0,19.775390625,-12.756346702575684,12.084959983825684,-0.95654296875,0.367919921875,0.1273193359375
6.031,404,3147,1579,347,13.0,31.0,11.0,14.343260765075684,-14.770506858825684,16.845703125,-0.98779296875,0.3255615234375,0.093017578125
6.038,382,3024,1590,364,13.0,31.0,11.0,14.343260765075684,-14.770506858825684,16.845703125,-1.01611328125,0.2691650390625,0.0616455078125
6.053,382,2525,1568,360,10.0,28.0,14.0,1.15966796875,-23.376462936401367,32.3486328125,-1.0386962890625,0.2003173828125,0.029296875
6.124,378,2295,1492,361,10.0,28.0,14.0,-4.0283203125,-29.846189498901367,44.006343841552734,-1.041259765625,0.133056640625,-0.00537109375
6.124,431,2152,1371,359,10.0,28.0,14.0,-4.0283203125,-29.846189498901367,44.006343841552734,-1.0010986328125,0.0869140625,-0.03564453125
6.124,371,2280,1248,354,10.0,28.0,14.0,-6.774901866912842,-44.921871185302734,75.25634765625,-0.885986328125,0.0528564453125,-0.066162109375
6.124,346,2443,1143,351,10.0,28.0,14.0,-5.920409679412842,-53.588863372802734,89.72167205810547,-0.6590576171875,0.017822265625,-0.1104736328125
6.124,344,2721,1018,347,10.0,28.0,14.0,-5.920409679412842,-53.588863372802734,89.72167205810547,-0.33642578125,0.0269775390625,-0.076416015625
6.133,351,3147,1234,562,10.0,28.0,14.0,4.39453125,-76.59912109375,94.54344940185547,0.1109619140625,0.0921630859375,0.141845703125
6.133,359,3147,1419,1281,10.0,28.0,14.0,17.2119140625,-86.48680877685547,73.30322265625,0.792724609375,0.16552734375,0.46875
6.140,376,3147,1533,1742,10.0,28.0,14.0,17.2119140625,-86.48680877685547,73.30322265625,1.6590576171875,-0.05810546875,0.5235595703125
6.142,365,3147,1891,2579,10.0,28.0,14.0,61.462398529052734,-42.846675872802734,-40.405269622802734,1.9176025390625,-0.0130615234375,0.1702880859375
6.150,373,3147,1931,3003,11.0,30.0,13.0,26.428220748901367,-4.150390625,-81.66503143310547,0.916748046875,0.6116943359375,0.0440673828125
6.170,382,3147,2141,3147,11.0,30.0,13.0,26.428220748901367,-4.150390625,-81.66503143310547,-0.7066650390625,1.382568359375,0.19775390625
6.172,404,3147,3000,3147,11.0,30.0,13.0,-177.49021911621094,33.8134765625,-53.344722747802734,-1.982177734375,2.30859375,0.4000244140625
6.180,416,3147,3147,3147,11.0,30.0,13.0,-260.92529296875,24.230955123901367,-29.113767623901367,-2.6053466796875,2.090576171875,0.791748046875
6.190,571,3147,3147,3147,11.0,30.0,13.0,-260.92529296875,24.230955123901367,-29.113767623901367,-3.0850830078125,0.404052734375,0.9912109375
6.202,794,3147,3147,3147,11.0,30.0,13.0,-193.72557067871094,-27.770994186401367,-26.733396530151367,-3.5977783203125,-0.864990234375,0.782470703125
6.210,684,3147,3147,3147,11.0,30.0,13.0,-13.732909202575684,-39.4287109375,-15.380858421325684,-3.158203125,-1.1014404296875,0.38232421875
6.235,521,3147,3147,3147,11.0,30.0,13.0,-13.732909202575684,-39.4287109375,-15.380858421325684,-1.670654296875,-0.4337158203125,0.3673095703125
6.235,402,3147,3147,3147,11.0,30.0,13.0,156.06689453125,-8.544921875,-9.27734375,-0.6575927734375,0.5777587890625,0.671630859375
6.240,470,3147,3147,3147,11.0,30.0,13.0,156.06689453125,-8.544921875,-9.27734375,-0.8914794921875,1.3529052734375,0.73388671875
6.248,484,3147,3147,3147,12.0,29.0,13.0,103.45458221435547,25.817869186401367,-32.71484375,-0.8914794921875,1.3529052734375,0.73388671875
6.274,453,3147,3147,3147,12.0,29.0,13.0,-22.399900436401367,59.509273529052734,-34.423828125,-2.12451171875,1.5107421875,0.144775390625
6.276,433,3147,3147,3147,12.0,29.0,13.0,-22.399900436401367,59.509273529052734,-34.423828125,-2.1083984375,0.763671875,0.016845703125
6.279,390,3147,3147,3147,12.0,29.0,13.0,-50.598140716552734,52.185054779052734,-23.193357467651367,-2.1083984375,0.763671875,0.016845703125
6.294,403,3147,2763,3089,12.0,29.0,13.0,-9.6435546875,8.30078125,-13.854979515075684,-1.3692626953125,0.0711669921875,0.361083984375
6.301,402,3147,2468,2778,12.0,29.0,13.0,-9.6435546875,8.30078125,-13.854979515075684,-0.8848876953125,0.1441650390625,0.5364990234375
6.309,411,3147,2155,2372,12.0,29.0,13.0,28.137205123901367,-4.94384765625,-3.601073980331421,-0.8848876953125,0.1441650390625,0.5364990234375
6.340,399,3147,1861,1662,12.0,29.0,13.0,64.14794921875,14.526366233825684,12.695311546325684,-0.285888671875,-0.1123046875,0.384033203125
6.340,508,3147,1617,1063,12.0,29.0,13.0,64.14794921875,14.526366233825684,12.695311546325684,-0.1549072265625,-0.29541015625,0.2108154296875
6.341,416,3147,1629,846,12.0,29.0,13.0,66.7724609375,31.677244186401367,8.23974609375,-0.1549072265625,-0.29541015625,0.2108154296875
6.354,378,3093,1681,371,11.0,29.0,10.0,80.44432830810547,46.020503997802734,-13.732909202575684,-0.1748046875,-0.116943359375,0.19189453125
6.360,705,2798,1494,369,11.0,29.0,10.0,80.44432830810547,46.020503997802734,-13.732909202575684,-0.3427734375,0.0059814453125,0.1263427734375
6.376,390,2526,1573,364,11.0,29.0,10.0,79.04052734375,45.837398529052734,-21.057126998901367,-0.3427734375,0.0059814453125,0.1263427734375
6.382,962,2243,802,328,11.0,29.0,10.0,57.006832122802734,51.208492279052734,-22.949216842651367,-0.5390625,0.252685546875,-0.125
6.390,508,2178,1386,359,11.0,29.0,10.0,57.006832122802734,51.208492279052734,-22.949216842651367,-0.5479736328125,0.3663330078125,-0.1038818359375
6.399,378,2226,1523,363,11.0,29.0,10.0,46.630855560302734,38.9404296875,-16.90673828125,-0.5479736328125,0.3663330078125,-0.1038818359375
6.413,382,2372,1516,360,11.0,29.0,10.0,30.822751998901367,20.568845748901367,2.25830078125,-0.6090087890625,0.6260986328125,0.029052734375
6.450,440,2392,1399,356,11.0,29.0,10.0,30.822751998901367,20.568845748901367,2.25830078125,-0.681396484375,0.6212158203125,0.098388671875
6.453,409,2489,1531,363,11.0,29.0,10.0,15.991209983825684,15.930174827575684,8.36181640625,-0.681396484375,0.6212158203125,0.098388671875
6.458,364,2662,1557,363,11.0,29.0,10.0,-18.61572265625,6.896972179412842,10.009765625,-0.791015625,0.3548583984375,0.2247314453125
6.461,361,2757,1534,369,10.0,31.0,13.0,-18.61572265625,6.896972179412842,10.009765625,-0.854736328125,0.2491455078125,0.22998046875
6.473,356,2870,1588,346,10.0,31.0,13.0,-26.489255905151367,7.995604991912842,7.873534679412842,-0.854736328125,0.2491455078125,0.22998046875
6.480,352,2953,1574,376,10.0,31.0,13.0,-23.315427780151367,9.82666015625,5.126952648162842,-0.921142578125,0.2261962890625,0.1895751953125
6.483,333,3061,1600,371,10.0,31.0,13.0,-11.657713890075684,7.385253429412842,2.868652105331421,-0.9771728515625,0.3419189453125,0.1837158203125
6.490,353,3102,1627,371,10.0,31.0,13.0,1.8310545682907104,0.7324218153953552,1.8310545682907104,-0.9771728515625,0.3419189453125,0.1837158203125
6.500,357,3143,1636,371,10.0,31.0,13.0,10.620116233825684,-5.554198741912842,0.8544921278953552,-0.9661865234375,0.3682861328125,0.2149658203125
6.511,356,3147,1676,364,10.0,31.0,13.0,13.854979515075684,-7.690429210662842,-0.7934569716453552,-0.9278564453125,0.3193359375,0.1566162109375
6.519,356,3147,1694,375,10.0,31.0,13.0,14.160155296325684,-7.080077648162842,-1.8920897245407104,-0.9278564453125,0.3193359375,0.1566162109375
6.562,363,3147,1691,373,10.0,31.0,13.0,12.145995140075684,-6.469726085662842,-0.7324218153953552,-0.9202880859375,0.2965087890625,0.123291015625
6.563,388,3147,1649,388,9.0,32.0,16.0,7.263183116912842,-6.225585460662842,2.807616949081421,-0.956787109375,0.34423828125,0.096923828125
6.563,364,3147,1675,415,9.0,32.0,16.0,0.4882812201976776,-6.347655773162842,7.324218273162842,-0.956787109375,0.34423828125,0.096923828125
6.564,356,3147,1687,411,9.0,32.0,16.0,-5.981444835662842,-6.408690929412842,10.559081077575684,-0.9737548828125,0.378662109375,0.1092529296875
6.582,356,3147,1666,400,9.0,32.0,16.0,-11.230467796325684,-6.408690929412842,11.535643577575684,-0.9832763671875,0.37939453125,0.1241455078125
6.583,354,3147,1675,404,9.0,32.0,16.0,-15.014647483825684,-6.591796398162842,11.596678733825684,-0.9788818359375,0.3548583984375,0.147216796875
6.588,359,3147,1675,391,9.0,32.0,16.0,-16.7236328125,-6.896972179412842,12.145995140075684,-0.965087890625,0.334228515625,0.163330078125
6.601,357,3147,1665,371,9.0,32.0,16.0,-16.845703125,-7.202147960662842,13.671874046325684,-0.963623046875,0.3333740234375,0.174072265625
6.609,351,3118,1675,375,9.0,32.0,16.0,-16.90673828125,-8.60595703125,16.54052734375,-0.9814453125,0.334716796875,0.184326171875
6.617,354,2993,1678,374,9.0,32.0,16.0,-16.41845703125,-11.047362327575684,20.751951217651367,-1.0048828125,0.3243408203125,0.1748046875
6.648,351,2543,1656,371,9.0,32.0,16.0,-15.197752952575684,-14.282225608825684,26.489255905151367,-1.0167236328125,0.30419921875,0.1475830078125
6.648,351,2308,1613,356,11.0,30.0,20.0,-14.160155296325684,-18.61572265625,33.99658203125,-1.0087890625,0.2738037109375,0.111572265625
6.649,348,2050,1648,371,11.0,30.0,20.0,-13.610838890075684,-23.803709030151367,43.029781341552734,-0.9808349609375,0.2330322265625,0.0738525390625
6.661,351,1766,1598,364,11.0,30.0,20.0,-12.451170921325684,-29.846189498901367,52.978511810302734,-0.942138671875,0.197509765625,0.05029296875
6.688,354,1891,1506,369,11.0,30.0,20.0,-9.27734375,-36.56005859375,63.415523529052734,-0.898681640625,0.1876220703125,0.0438232421875
6.689,349,2060,1382,353,11.0,30.0,20.0,-4.08935546875,-43.273921966552734,73.73046875,-0.8065185546875,0.1646728515625,0.02099609375
6.692,333,2723,1189,361,11.0,30.0,20.0,1.0986328125,-48.522945404052734,81.23778533935547,-0.578369140625,0.1456298828125,-0.0560302734375
6.717,344,3147,1348,371,11.0,30.0,20.0,3.234863042831421,-53.955074310302734,81.97020721435547,-0.1954345703125,0.1851806640625,-0.0186767578125
6.719,351,3147,1557,905,11.0,30.0,20.0,4.94384765625,-62.133785247802734,66.34521484375,0.360107421875,0.2027587890625,0.2679443359375
6.722,388,3147,1757,1733,11.0,30.0,20.0,18.12744140625,-64.75830078125,20.507810592651367,1.17041015625,0.0413818359375,0.515625
6.751,437,3147,1985,2296,11.0,30.0,20.0,44.311519622802734,-46.752925872802734,-53.588863372802734,1.686279296875,-0.181884765625,0.25439453125
6.752,525,3147,2028,2677,9.0,31.0,16.0,54.199214935302734,-14.465331077575684,-111.38915252685547,1.5909423828125,0.0257568359375,-0.16015625
6.752,447,3147,2345,3147,9.0,31.0,16.0,13.488768577575684,6.347655773162842,-116.51610565185547,0.803466796875,0.770751953125,-0.2227783203125
6.760,428,3147,3020,3147,9.0,31.0,16.0,-74.3408203125,10.253905296325684,-86.91405487060547,-0.774658203125,2.1253662109375,0.1456298828125
6.767,537,3147,3147,3147,9.0,31.0,16.0,-187.49998474121094,1.4648436307907104,-54.443355560302734,-2.15380859375,3.01318359375,0.8521728515625
6.792,900,3147,3147,3147,9.0,31.0,16.0,-299.98779296875,-16.78466796875,-47.424312591552734,-2.934814453125,1.647705078125,1.34619140625
6.794,1039,3147,3147,3147,9.0,31.0,16.0,-317.93212890625,-22.949216842651367,-59.448238372802734,-3.5908203125,-0.5098876953125,1.2579345703125
6.798,948,3147,3147,3147,9.0,31.0,16.0,-173.33982849121094,-16.17431640625,-57.983394622802734,-3.67822265625,-1.650146484375,0.6502685546875
6.812,737,3147,3147,3147,9.0,31.0,16.0,47.363277435302734,-5.798339366912842,-44.128414154052734,-2.711669921875,-1.6849365234375,0.07177734375
6.820,666,3147,3147,3147,9.0,31.0,16.0,192.26072692871094,4.5166015625,-34.48486328125,-1.4439697265625,-0.691650390625,0.2091064453125
6.827,684,3147,3147,3147,9.0,31.0,16.0,194.39695739746094,16.9677734375,-35.0341796875,-0.94091796875,0.646240234375,0.6644287109375
6.848,660,3147,3147,3147,12.0,28.0,7.0,114.92919158935547,38.0859375,-33.5693359375,-1.438720703125,1.850830078125,0.7109375
6.857,642,3147,3147,3147,12.0,28.0,7.0,26.245115280151367,55.847164154052734,-17.76123046875,-2.0478515625,2.1102294921875,0.3624267578125
6.868,642,3147,3147,3147,12.0,28.0,7.0,-33.935546875,59.448238372802734,-4.8828125,-2.14111328125,1.218994140625,0.0096435546875
6.872,473,3147,3147,3147,12.0,28.0,7.0,-37.65869140625,42.114253997802734,-5.798339366912842,-1.89599609375,0.2735595703125,-0.02490234375
6.888,410,3147,3079,2823,12.0,28.0,7.0,0.1831054538488388,10.986327171325684,-7.812499523162842,-1.48876953125,-0.0513916015625,0.1689453125
6.888,408,3147,2787,2335,12.0,28.0,7.0,43.029781341552734,-13.061522483825684,-0.1220703050494194,-1.03759765625,0.0938720703125,0.396728515625
6.902,414,3147,2334,1610,12.0,28.0,7.0,70.556640625,-15.563963890075684,13.244627952575684,-0.62744140625,0.191162109375,0.4832763671875
6.912,402,3147,2104,1053,12.0,28.0,7.0,77.63671875,0.9765624403953552,21.423337936401367,-0.3197021484375,0.0230712890625,0.4114990234375
6.919,418,3147,411,469,12.0,28.0,7.0,76.2939453125,22.827146530151367,20.263669967651367,-0.1103515625,-0.2584228515625,0.279052734375
6.932,447,2973,1808,373,12.0,28.0,7.0,81.17675018310547,40.649410247802734,11.291502952575684,0.005615234375,-0.34765625,0.1832275390625
6.950,427,2543,1687,373,13.0,31.0,13.0,90.33202362060547,49.804683685302734,0.1831054538488388,-0.0345458984375,-0.1656494140625,0.18603515625
6.951,416,2480,1741,376,13.0,31.0,13.0,91.00341033935547,50.964351654052734,-8.36181640625,-0.186767578125,-0.013671875,0.1568603515625
6.967,391,2223,1604,363,13.0,31.0,13.0,77.1484375,54.504390716552734,-14.160155296325684,-0.3392333984375,0.07080078125,-0.0157470703125
6.974,389,2245,1546,369,13.0,31.0,13.0,54.626461029052734,57.556148529052734,-16.11328125,-0.44384765625,0.23095703125,-0.110595703125
6.992,388,2407,1543,364,13.0,31.0,13.0,34.423828125,47.668453216552734,-11.352538108825684,-0.490966796875,0.350830078125,-0.0517578125
6.993,364,2688,1509,369,13.0,31.0,13.0,23.315427780151367,31.372068405151367,0.0,-0.5343017578125,0.434326171875,0.006103515625
7.001,361,2723,1523,365,13.0,31.0,13.0,15.869139671325684,18.85986328125,15.014647483825684,-0.6072998046875,0.5318603515625,0.0430908203125
7.011,361,2801,1549,369,13.0,31.0,13.0,3.906249761581421,11.718749046325684,26.611326217651367,-0.696044921875,0.539306640625,0.0438232421875
7.023,364,2976,1575,364,13.0,31.0,13.0,-9.46044921875,7.141112804412842,29.357908248901367,-0.738525390625,0.4552001953125,0.0677490234375
7.030,359,3059,1607,371,11.0,31.0,17.0,-16.29638671875,2.38037109375,23.620603561401367,-0.7325439453125,0.3599853515625,0.163330078125
7.056,360,3147,1604,371,11.0,31.0,17.0,-14.038084983825684,-0.1831054538488388,12.329100608825684,-0.7548828125,0.3289794921875,0.24609375
7.056,376,3147,1627,440,11.0,31.0,17.0,-6.896972179412842,1.5869139432907104,0.6713866591453552,-0.8343505859375,0.38720703125,0.26611328125
7.061,364,3147,1675,536,11.0,31.0,17.0,-2.38037109375,5.615233898162842,-6.896972179412842,-0.940673828125,0.4656982421875,0.215576171875
7.072,364,3147,1703,607,11.0,31.0,17.0,-4.94384765625,8.60595703125,-9.46044921875,-1.0416259765625,0.493408203125,0.1290283203125
7.093,383,3147,1715,702,11.0,31.0,17.0,-11.657713890075684,7.751464366912842,-8.36181640625,-1.100830078125,0.4566650390625,0.0679931640625
7.094,364,3147,1750,698,11.0,31.0,17.0,-16.90673828125,4.21142578125,-5.493163585662842,-1.104736328125,0.3870849609375,0.036376953125
7.098,363,3147,1759,774,11.0,31.0,17.0,-18.6767578125,1.220703125,-2.624511480331421,-1.07763671875,0.313720703125,0.0283203125
7.112,360,3147,1762,830,11.0,31.0,17.0,-17.578125,-0.7324218153953552,-0.6713866591453552,-1.04296875,0.252685546875,0.048095703125
7.124,359,3147,1761,860,11.0,31.0,17.0,-13.366698265075684,-2.685546636581421,0.8544921278953552,-1.0040283203125,0.22802734375,0.0950927734375
7.129,356,3147,1755,859,11.0,25.0,14.0,-7.324218273162842,-4.7607421875,2.929687261581421,-0.966064453125,0.2451171875,0.168701171875
7.156,356,3147,1748,890,11.0,25.0,14.0,-2.0751953125,-5.920409679412842,5.676269054412842,-0.946044921875,0.2830810546875,0.2359619140625
7.156,356,3147,1718,895,11.0,25.0,14.0,0.1831054538488388,-5.859374523162842,8.4228515625,-0.9482421875,0.3160400390625,0.2603759765625
7.159,355,3147,1768,887,11.0,25.0,14.0,0.1831054538488388,-5.859374523162842,8.4228515625,-0.9625244140625,0.3397216796875,0.2509765625
7.178,359,3147,1769,841,11.0,25.0,14.0,-3.723144292831421,-7.080077648162842,12.023924827575684,-0.9737548828125,0.365478515625,0.21533203125
7.181,361,3147,1768,820,11.0,25.0,14.0,-5.920409679412842,-8.11767578125,12.512206077575684,-0.9722900390625,0.383544921875,0.1568603515625
7.196,360,3147,1761,784,11.0,25.0,14.0,-5.920409679412842,-8.11767578125,12.512206077575684,-0.962890625,0.3818359375,0.108154296875
7.203,361,3147,1759,658,11.0,25.0,14.0,-7.385253429412842,-9.70458984375,13.549803733825684,-0.959716796875,0.36376953125,0.081298828125
7.211,361,3147,1750,567,11.0,25.0,14.0,-7.324218273162842,-11.840819358825684,16.54052734375,-0.967041015625,0.3375244140625,0.072265625
7.318,361,3147,1735,472,11.0,25.0,14.0,-7.324218273162842,-11.840819358825684,16.54052734375,-0.98095703125,0.3148193359375,0.0770263671875
7.320,360,3125,1711,373,10.0,31.0,19.0,-9.033203125,-18.49365234375,30.029294967651367,-1.0018310546875,0.300537109375,0.0811767578125
7.321,360,2869,1694,377,10.0,31.0,19.0,-12.451170921325684,-22.338865280151367,39.9169921875,-1.023681640625,0.2734375,0.07421875
7.321,338,2330,1669,362,10.0,31.0,19.0,-12.451170921325684,-22.338865280151367,39.9169921875,-1.038330078125,0.228271484375,0.056884765625
7.321,378,1997,1607,364,10.0,31.0,19.0,-20.507810592651367,-32.470703125,65.24658203125,-1.03125,0.185791015625,0.0435791015625
7.321,364,1864,1488,371,10.0,31.0,19.0,-20.690916061401367,-39.1845703125,80.078125,-0.9775390625,0.144287109375,0.041748046875
7.321,334,1951,1292,351,10.0,31.0,19.0,-20.690916061401367,-39.1845703125,80.078125,-0.813232421875,0.0892333984375,0.0050048828125
7.321,349,2194,939,333,10.0,31.0,19.0,-7.812499523162842,-49.011226654052734,100.46385955810547,-0.49072265625,0.1318359375,-0.045654296875
7.321,354,2651,971,334,10.0,31.0,19.0,-3.662109136581421,-53.039546966552734,94.54344940185547,-0.0771484375,0.35498046875,0.0699462890625
7.321,348,3072,1283,360,10.0,31.0,19.0,-3.662109136581421,-53.039546966552734,94.54344940185547,0.3121337890625,0.605712890625,0.40087890625
7.322,364,3147,1910,1243,10.0,31.0,19.0,-0.7324218153953552,-57.067867279052734,13.549803733825684,0.87646484375,0.6484375,0.7939453125
7.330,373,3147,2052,1713,9.0,30.0,16.0,21.972654342651367,-42.297359466552734,-63.476558685302734,1.603515625,0.0096435546875,0.5797119140625
7.339,375,3147,2284,2218,9.0,30.0,16.0,21.972654342651367,-42.297359466552734,-63.476558685302734,1.8524169921875,-0.262451171875,-0.254638671875
7.364,390,3147,2443,3147,9.0,30.0,16.0,28.747556686401367,13.977049827575684,-161.86521911621094,1.2230224609375,0.6527099609375,-0.5152587890625
7.364,402,3147,3031,3147,9.0,30.0,16.0,28.747556686401367,13.977049827575684,-161.86521911621094,-0.4326171875,1.9903564453125,-0.0810546875
7.369,673,3147,3147,3147,9.0,30.0,16.0,-65.0634765625,2.868652105331421,-125.54930877685547,-0.4326171875,1.9903564453125,-0.0810546875
7.396,998,3147,3147,3147,9.0,30.0,16.0,-356.2011413574219,-21.301267623901367,-49.865718841552734,-3.249267578125,1.882568359375,1.1395263671875
7.398,1111,3147,3147,3147,9.0,30.0,16.0,-356.2011413574219,-21.301267623901367,-49.865718841552734,-3.7271728515625,-0.649658203125,1.05224609375
7.399,1204,3147,3147,3147,9.0,30.0,16.0,-388.5497741699219,-28.320310592651367,-50.842281341552734,-3.7271728515625,-0.649658203125,1.05224609375
7.413,1283,3147,3147,3147,9.0,30.0,16.0,82.09227752685547,-16.7236328125,-49.072261810302734,-2.7950439453125,-1.543701171875,0.059814453125
7.420,1224,3147,3147,3147,9.0,30.0,16.0,82.09227752685547,-16.7236328125,-49.072261810302734,-1.4886474609375,-0.6201171875,0.43603515625
7.429,1182,3147,3147,3147,14.0,26.0,12.0,238.58641052246094,-15.441893577575684,-42.358394622802734,-1.4886474609375,-0.6201171875,0.43603515625
7.442,1122,3147,3147,3147,14.0,26.0,12.0,81.78710174560547,52.307125091552734,-58.654781341552734,-1.057861328125,0.76806640625,1.0469970703125
7.465,1107,3147,3147,3147,14.0,26.0,12.0,81.78710174560547,52.307125091552734,-58.654781341552734,-1.8458251953125,1.3831787109375,0.6396484375
7.465,1065,3147,3147,3147,14.0,26.0,12.0,-1.5869139432907104,79.2236328125,-49.011226654052734,-1.8458251953125,1.3831787109375,0.6396484375
7.476,898,3147,3147,2756,14.0,26.0,12.0,-20.01953125,61.096187591552734,-8.36181640625,-1.9949951171875,0.892333984375,-0.2017822265625
7.484,759,3147,3147,2372,14.0,26.0,12.0,-20.01953125,61.096187591552734,-8.36181640625,-1.617431640625,0.2373046875,-0.1044921875
7.511,625,3147,3147,1980,14.0,26.0,12.0,2.0751953125,32.71484375,-6.469726085662842,-1.617431640625,0.2373046875,-0.1044921875
7.512,654,3147,2925,1289,14.0,26.0,12.0,57.495113372802734,-16.78466796875,18.4326171875,-0.772216796875,-0.318603515625,0.3109130859375
7.513,442,3147,2494,883,14.0,26.0,12.0,57.495113372802734,-16.78466796875,18.4326171875,-0.472412109375,-0.3404541015625,0.345703125
7.519,401,3147,2567,464,14.0,26.0,12.0,74.52392578125,-11.962889671325684,39.794921875,-0.472412109375,-0.3404541015625,0.345703125
7.532,402,3033,2017,388,8.0,27.0,14.0,79.345703125,26.794431686401367,45.837398529052734,-0.0655517578125,-0.207763671875,0.30126953125
7.540,383,2821,1968,401,8.0,27.0,14.0,79.345703125,26.794431686401367,45.837398529052734,-0.018798828125,-0.01953125,0.3109130859375
7.566,418,2699,1908,390,8.0,27.0,14.0,82.45848846435547,39.24560546875,27.893064498901367,-0.018798828125,-0.01953125,0.3109130859375
7.566,853,2549,1610,348,8.0,27.0,14.0,82.88573455810547,37.841796875,-4.7607421875,-0.4522705078125,0.168212890625,0.165283203125
7.574,411,2503,1781,382,8.0,27.0,14.0,82.88573455810547,37.841796875,-4.7607421875,-0.5294189453125,0.2215576171875,-0.0576171875
7.579,376,2507,1840,384,8.0,27.0,14.0,84.35057830810547,39.9169921875,-4.150390625,-0.5294189453125,0.2215576171875,-0.0576171875
7.608,375,2772,1757,384,8.0,27.0,14.0,78.91845703125,39.85595703125,0.54931640625,-0.480224609375,0.3770751953125,-0.143798828125
7.608,375,2921,1735,383,8.0,27.0,14.0,66.89453125,29.052732467651367,6.286620616912842,-0.480224609375,0.3770751953125,-0.143798828125
7.609,378,3017,1666,382,8.0,27.0,14.0,55.847164154052734,12.939452171325684,15.808104515075684,-0.551513671875,0.5826416015625,-0.02099609375
7.622,388,3147,1627,382,12.0,28.0,15.0,44.799800872802734,-0.0610351525247097,25.634763717651367,-0.6630859375,0.642578125,0.11865234375
7.631,384,3147,1651,485,12.0,28.0,15.0,30.944822311401367,-5.0048828125,28.076169967651367,-0.6630859375,0.642578125,0.11865234375
7.638,382,3147,1678,572,12.0,28.0,15.0,18.798828125,-4.45556640625,22.033689498901367,-0.7086181640625,0.501220703125,0.16455078125
7.669,383,3147,1676,694,12.0,28.0,15.0,13.427733421325684,-2.563476324081421,11.169432640075684,-0.8275146484375,0.4246826171875,0.2540283203125
7.670,383,3147,1700,802,12.0,28.0,15.0,12.329100608825684,1.15966796875,-0.4882812201976776,-0.8275146484375,0.4246826171875,0.2540283203125
7.670,373,3147,1759,855,12.0,28.0,15.0,6.225585460662842,6.774901866912842,-9.09423828125,-0.9080810546875,0.473388671875,0.212646484375
7.686,388,3147,1792,1014,12.0,28.0,15.0,-8.72802734375,11.108397483825684,-12.634276390075684,-1.0506591796875,0.3829345703125,0.048828125
7.690,388,3147,1821,1055,12.0,28.0,15.0,-25.146482467651367,11.352538108825684,-11.718749046325684,-1.0506591796875,0.3829345703125,0.048828125
7.713,382,3147,1854,1100,12.0,28.0,15.0,-34.60693359375,7.690429210662842,-8.48388671875,-1.0714111328125,0.2818603515625,-0.01123046875
7.714,376,3147,1890,1160,12.0,28.0,15.0,-34.97314453125,1.9531248807907104,-5.065917491912842,-1.06103515625,0.21240234375,0.080078125
7.720,376,3147,1891,1201,9.0,29.0,12.0,-27.465818405151367,-3.356933355331421,-2.3193359375,-1.06103515625,0.21240234375,0.080078125
7.728,382,3147,1877,1216,9.0,29.0,12.0,-15.502928733825684,-6.164550304412842,-0.30517578125,-1.0440673828125,0.240234375,0.15478515625
7.743,383,3147,1892,1271,9.0,29.0,12.0,-6.896972179412842,-6.652831554412842,2.38037109375,-0.98876953125,0.363525390625,0.257568359375
7.752,378,3147,1905,1283,9.0,29.0,12.0,-5.065917491912842,-6.042479991912842,5.615233898162842,-0.98876953125,0.363525390625,0.257568359375
7.761,401,3147,1907,1305,9.0,29.0,12.0,-6.713866710662842,-4.33349609375,7.263183116912842,-0.9600830078125,0.3927001953125,0.271484375
7.772,398,3147,1922,1316,9.0,29.0,12.0,-7.873534679412842,-2.3193359375,6.103515148162842,-0.9373779296875,0.396484375,0.2235107421875
7.780,391,3147,1943,1306,9.0,29.0,12.0,-5.859374523162842,-1.7700194120407104,3.356933355331421,-0.9373779296875,0.396484375,0.2235107421875
7.788,388,3147,1941,1289,9.0,29.0,12.0,-1.4038084745407104,-2.685546636581421,0.9765624403953552,-0.94775390625,0.4205322265625,0.1971435546875
7.817,387,3147,1943,1217,9.0,29.0,12.0,2.25830078125,-3.723144292831421,-0.30517578125,-0.962158203125,0.4212646484375,0.15771484375
7.818,382,3147,1953,1163,9.0,29.0,12.0,3.417968511581421,-4.57763671875,0.0,-0.9727783203125,0.3919677734375,0.117431640625
7.821,377,3147,1894,1058,11.0,29.0,17.0,3.417968511581421,-6.042479991912842,1.5869139432907104,-0.98486328125,0.3475341796875,0.08544921875
7.833,371,3147,1959,887,11.0,29.0,17.0,3.051757574081421,-8.23974609375,4.5166015625,-1.000732421875,0.3050537109375,0.070068359375
7.841,376,3147,1961,748,11.0,29.0,17.0,1.7089842557907104,-10.986327171325684,9.46044921875,-1.015869140625,0.2735595703125,0.079345703125
7.878,377,3147,1931,614,11.0,29.0,17.0,-1.220703125,-14.038084983825684,17.15087890625,-1.0257568359375,0.24853515625,0.1004638671875
7.880,388,3117,1878,383,11.0,29.0,17.0,-5.187987804412842,-17.15087890625,27.526853561401367,-1.0362548828125,0.216796875,0.109619140625
7.980,404,2713,1811,401,11.0,29.0,17.0,-9.3994140625,-20.812986373901367,40.405269622802734,-1.0504150390625,0.17578125,0.1109619140625
7.980,382,2362,1770,383,11.0,29.0,17.0,-12.695311546325684,-25.146482467651367,55.603023529052734,-1.04638671875,0.1309814453125,0.107421875
7.981,378,2127,1627,382,11.0,29.0,17.0,-13.244627952575684,-28.564451217651367,72.57080078125,-1.010986328125,0.0938720703125,0.0673828125
7.981,364,2381,1404,361,11.0,29.0,17.0,-11.413573265075684,-29.663084030151367,90.94237518310547,-0.912109375,0.0665283203125,0.019287109375
7.982,359,2514,1233,364,11.0,29.0,17.0,-11.840819358825684,-29.785154342651367,106.68944549560547,-0.622802734375,0.0728759765625,-0.0264892578125
7.983,344,3039,1079,360,7.0,30.0,12.0,-23.498533248901367,-30.029294967651367,107.78807830810547,-0.2308349609375,0.2000732421875,-0.0474853515625
7.983,330,3147,1306,666,7.0,30.0,12.0,-47.180171966552734,-34.48486328125,87.70751190185547,0.104736328125,0.37109375,0.154296875
7.984,371,3147,1533,1146,7.0,30.0,12.0,-55.114742279052734,-44.311519622802734,49.926753997802734,0.5504150390625,0.4923095703125,0.486328125
7.985,382,3147,1773,1934,7.0,30.0,12.0,-22.277830123901367,-51.208492279052734,-4.33349609375,1.2596435546875,0.3297119140625,0.7227783203125
7.985,379,3147,2019,2418,7.0,30.0,12.0,35.5224609375,-44.616695404052734,-74.89013671875,1.7447509765625,-0.1751708984375,0.3853759765625
7.986,391,3147,2183,2799,7.0,30.0,12.0,61.218257904052734,-14.587401390075684,-130.126953125,1.4935302734375,0.181884765625,-0.29052734375
7.987,456,3147,2308,3147,7.0,30.0,12.0,-4.69970703125,9.6435546875,-136.5966796875,0.362060546875,1.229736328125,-0.515625
7.993,401,3147,3147,3147,7.0,30.0,12.0,-144.34814453125,0.2441406100988388,-105.65184783935547,-1.359619140625,2.232666015625,-0.29736328125
7.999,710,3147,3147,3147,7.0,30.0,12.0,-302.24609375,-26.611326217651367,-55.847164154052734,-2.62890625,2.734619140625,0.2877197265625
8.014,1026,3147,3147,3147,14.0,29.0,12.0,-437.3168640136719,-47.668453216552734,-20.385740280151367,-3.1365966796875,1.21337890625,0.8216552734375
8.033,1043,3147,3147,3147,14.0,29.0,12.0,-442.9320983886719,-35.64453125,-24.353025436401367,-3.47509765625,-1.223876953125,0.80224609375
8.034,1050,3147,3147,3147,14.0,29.0,12.0,-247.25340270996094,-19.04296875,-35.400390625,-3.523681640625,-2.03857421875,0.6331787109375
8.043,919,3147,3147,3147,14.0,29.0,12.0,13.000487327575684,-37.353515625,-22.155759811401367,-2.53466796875,-1.4683837890625,0.69091796875
8.050,702,3147,3147,3147,14.0,29.0,12.0,157.89794921875,-54.504390716552734,-6.774901866912842,-1.1405029296875,-0.571533203125,0.9869384765625
8.059,603,3147,3147,3147,14.0,29.0,12.0,165.40525817871094,-30.578611373901367,-10.620116233825684,-0.465087890625,0.5230712890625,1.2783203125
8.077,632,3147,3147,3147,14.0,29.0,12.0,104.43114471435547,33.5693359375,-23.498533248901367,-0.7734375,1.530517578125,1.0386962890625
8.080,636,3147,3147,3147,14.0,29.0,12.0,29.541013717651367,84.04540252685547,-26.855466842651367,-1.627197265625,1.9522705078125,0.4295654296875
8.089,588,3147,3147,3147,14.0,29.0,12.0,-26.855466842651367,81.84813690185547,-19.04296875,-2.1365966796875,1.5098876953125,-0.0242919921875
8.111,406,3147,3147,3147,14.0,29.0,12.0,-40.771480560302734,53.344722747802734,-17.578125,-2.0911865234375,0.67529296875,-0.0802001953125
8.118,401,3147,3007,3147,17.0,27.0,10.0,-16.05224609375,24.169919967651367,-22.338865280151367,-1.7447509765625,0.088623046875,0.1702880859375
8.118,406,3147,2713,3028,17.0,27.0,10.0,16.78466796875,4.82177734375,-19.71435546875,-1.277587890625,-0.07958984375,0.4615478515625
8.145,424,3147,2280,2410,17.0,27.0,10.0,37.41455078125,-0.3662109076976776,-4.39453125,-0.81982421875,-0.0750732421875,0.6119384765625
8.146,404,3147,2001,2074,17.0,27.0,10.0,45.776363372802734,7.873534679412842,14.648436546325684,-0.485595703125,-0.1009521484375,0.5931396484375
8.151,382,3147,1773,1610,17.0,27.0,10.0,48.095699310302734,25.085447311401367,25.817869186401367,-0.259765625,-0.1510009765625,0.466064453125
8.179,361,3147,1675,1083,17.0,27.0,10.0,52.062984466552734,44.189449310302734,23.437498092651367,-0.087890625,-0.2313232421875,0.2958984375
8.180,378,3147,1590,864,17.0,27.0,10.0,64.94140625,58.288570404052734,9.1552734375,-0.0599365234375,-0.2054443359375,0.1544189453125
8.181,359,3147,1557,579,17.0,27.0,10.0,81.97020721435547,61.035152435302734,-7.873534679412842,-0.254638671875,-0.0181884765625,0.09228515625
8.192,364,3051,1382,361,17.0,27.0,10.0,87.40233612060547,55.358882904052734,-18.61572265625,-0.498291015625,0.0960693359375,0.00439453125
8.203,359,2936,1290,356,17.0,27.0,10.0,77.57568359375,52.551265716552734,-20.385740280151367,-0.60302734375,0.1112060546875,-0.11669921875
8.215,348,2798,1251,361,16.0,29.0,12.0,64.697265625,49.255367279052734,-14.404295921325684,-0.5841064453125,0.1875,-0.1260986328125
8.228,348,2648,1074,356,16.0,29.0,12.0,56.457515716552734,38.02490234375,-3.173827886581421,-0.57421875,0.313720703125,-0.0631103515625
8.243,338,2638,1003,349,16.0,29.0,12.0,49.621578216552734,23.437498092651367,10.742186546325684,-0.6292724609375,0.3978271484375,-0.010498046875
8.252,344,2723,865,354,16.0,29.0,12.0,36.9873046875,10.864256858825684,25.390623092651367,-0.6903076171875,0.3836669921875,0.059326171875
8.255,328,2909,855,346,16.0,29.0,12.0,20.568845748901367,2.624511480331421,37.109375,-0.7298583984375,0.3197021484375,0.1455078125
8.260,329,3056,782,348,16.0,29.0,12.0,8.60595703125,-1.4038084745407104,42.297359466552734,-0.7711181640625,0.297119140625,0.2396240234375
8.281,336,3102,883,349,16.0,29.0,12.0,8.60595703125,-1.4038084745407104,42.297359466552734,-0.8125,0.341064453125,0.3416748046875
8.283,334,3147,856,348,16.0,29.0,12.0,8.60595703125,-2.38037109375,33.26416015625,-0.8472900390625,0.40673828125,0.3642578125
8.290,332,3147,913,351,16.0,29.0,12.0,14.038084983825684,2.3193359375,24.597166061401367,-0.89208984375,0.4683837890625,0.27783203125
8.299,334,3147,960,354,16.0,29.0,12.0,14.038084983825684,2.3193359375,24.597166061401367,-0.928955078125,0.541259765625,0.1898193359375
8.328,336,3147,995,371,12.0,29.0,12.0,14.709471702575684,3.784179449081421,12.634276390075684,-0.930908203125,0.5838623046875,0.16845703125
8.329,346,3147,1022,363,12.0,29.0,12.0,9.33837890625,-0.6713866591453552,8.1787109375,-0.92041015625,0.532958984375,0.1787109375
8.330,346,3147,1039,361,12.0,29.0,12.0,9.33837890625,-0.6713866591453552,8.1787109375,-0.9241943359375,0.42822265625,0.1724853515625
8.348,401,3147,1026,385,12.0,29.0,12.0,10.498045921325684,-1.6479490995407104,0.3662109076976776,-0.927490234375,0.349853515625,0.1539306640625
8.351,347,3147,1103,376,12.0,29.0,12.0,17.88330078125,-0.8544921278953552,-1.4038084745407104,-0.9180908203125,0.316162109375,0.14453125
8.362,375,3147,1078,385,12.0,29.0,12.0,17.88330078125,-0.8544921278953552,-1.4038084745407104,-0.903076171875,0.322265625,0.151123046875
8.385,370,3147,1093,409,12.0,29.0,12.0,21.057126998901367,-5.371093273162842,0.0,-0.8853759765625,0.3526611328125,0.1741943359375
8.386,376,3147,1129,439,12.0,29.0,12.0,13.732909202575684,-6.347655773162842,1.6479490995407104,-0.873779296875,0.375,0.184814453125
8.388,371,3147,1160,455,12.0,29.0,12.0,13.732909202575684,-6.347655773162842,1.6479490995407104,-0.8785400390625,0.373779296875,0.1646728515625
8.403,357,3147,1228,467,14.0,29.0,16.0,-4.33349609375,-3.540038824081421,3.051757574081421,-0.8873291015625,0.3519287109375,0.1397705078125
8.424,352,3147,1265,482,14.0,29.0,16.0,-9.70458984375,-4.2724609375,4.0283203125,-0.8948974609375,0.3260498046875,0.124755859375
8.425,351,3147,1287,484,14.0,29.0,16.0,-9.70458984375,-4.2724609375,4.0283203125,-0.9073486328125,0.3131103515625,0.12158203125
8.433,359,3147,1330,414,14.0,29.0,16.0,-9.09423828125,-12.512206077575684,10.070799827575684,-0.92626953125,0.317138671875,0.1275634765625
8.441,360,3147,1336,364,14.0,29.0,16.0,-6.286620616912842,-17.333984375,16.66259765625,-0.9560546875,0.3228759765625,0.123779296875
8.458,359,3095,1323,363,14.0,29.0,16.0,-6.286620616912842,-17.333984375,16.66259765625,-0.992431640625,0.30615234375,0.0941162109375
8.462,360,2754,1280,361,14.0,29.0,16.0,-11.413573265075684,-23.071287155151367,40.0390625,-1.0277099609375,0.2757568359375,0.06005859375
8.488,551,2440,938,346,14.0,29.0,16.0,-19.83642578125,-26.489255905151367,56.823726654052734,-1.0635986328125,0.2393798828125,0.0679931640625
8.489,363,2503,1157,359,14.0,29.0,16.0,-19.83642578125,-26.489255905151367,56.823726654052734,-1.083740234375,0.167724609375,0.0970458984375
8.492,342,2512,748,354,14.0,29.0,16.0,-28.259275436401367,-37.41455078125,92.95653533935547,-1.00146484375,0.09814453125,0.073974609375
8.501,376,2645,629,327,9.0,31.0,14.0,-28.259275436401367,-37.41455078125,92.95653533935547,-0.7137451171875,0.109375,0.06103515625
8.509,332,3032,853,353,9.0,31.0,14.0,-25.756834030151367,-40.710445404052734,103.82079315185547,-0.7137451171875,0.109375,0.06103515625
8.531,356,3147,1401,987,9.0,31.0,14.0,-15.747069358825684,-47.546382904052734,67.81005859375,0.556396484375,0.21484375,0.4296875
8.531,373,3147,1497,1467,9.0,31.0,14.0,-15.747069358825684,-47.546382904052734,67.81005859375,1.4423828125,-0.0355224609375,0.5927734375
8.539,411,3147,1616,1985,9.0,31.0,14.0,12.573241233825684,-45.776363372802734,4.39453125,1.4423828125,-0.0355224609375,0.5927734375
8.553,371,3147,1943,2821,9.0,31.0,14.0,67.87109375,-4.57763671875,-132.75146484375,1.620361328125,0.0152587890625,-0.1119384765625
8.564,383,3147,1974,3147,9.0,31.0,14.0,67.87109375,-4.57763671875,-132.75146484375,0.3037109375,1.021484375,-0.174560546875
8.568,376,3147,2210,3147,9.0,31.0,14.0,15.502928733825684,9.70458984375,-131.28662109375,0.3037109375,1.021484375,-0.174560546875
8.588,433,3147,3147,3147,9.0,31.0,14.0,-217.28514099121094,2.38037109375,-50.659175872802734,-2.5355224609375,3.1334228515625,0.573974609375
8.593,787,3147,3147,3147,9.0,31.0,14.0,-217.28514099121094,2.38037109375,-50.659175872802734,-3.091552734375,1.576171875,1.034423828125
8.611,864,3147,3147,3147,14.0,28.0,15.0,-344.7265319824219,-7.019042491912842,-39.48974609375,-3.091552734375,1.576171875,1.034423828125
8.612,905,3147,3147,3147,14.0,28.0,15.0,-203.85740661621094,-2.685546636581421,-57.922359466552734,-3.4490966796875,-2.1666259765625,0.38916015625
8.630,774,3147,3147,3147,14.0,28.0,15.0,-203.85740661621094,-2.685546636581421,-57.922359466552734,-2.217041015625,-1.9190673828125,0.2445068359375
