time,compression0,compression1,compression2,compression3,accel_x,accel_y,accel_z
1753242072,308,308,308,920,0.7191162109375,0.45654296875,-0.513427734375
1753242072,308,310,308,920,0.719970703125,0.4566650390625,-0.51220703125
1753242072,308,308,308,920,0.7186279296875,0.45263671875,-0.5137939453125
1753242072,308,309,306,920,0.7169189453125,0.44970703125,-0.5169677734375
1753242072,299,296,295,922,0.71435546875,0.4512939453125,-0.5181884765625
1753242072,310,308,308,920,0.7122802734375,0.4530029296875,-0.5172119140625
1753242072,308,308,307,920,0.712646484375,0.4525146484375,-0.513427734375
1753242072,308,308,308,920,0.714599609375,0.4512939453125,-0.5072021484375
1753242072,308,310,306,920,0.7174072265625,0.4503173828125,-0.502685546875
1753242072,309,308,306,918,0.7198486328125,0.4508056640625,-0.50341796875
1753242072,308,308,308,920,0.7205810546875,0.45068359375,-0.5069580078125
1753242072,296,308,307,920,0.7205810546875,0.450439453125,-0.5098876953125
1753242072,308,308,308,918,0.720703125,0.453369140625,-0.51123046875
1753242072,309,310,308,917,0.720947265625,0.4583740234375,-0.511962890625
1753242072,308,308,306,917,0.7215576171875,0.4609375,-0.5135498046875
1753242072,310,309,307,905,0.721435546875,0.4586181640625,-0.5142822265625
1753242072,308,309,294,912,0.72021484375,0.4517822265625,-0.51123046875
1753242072,308,300,308,913,0.718994140625,0.4437255859375,-0.50634765625
1753242072,306,307,308,912,0.717529296875,0.4423828125,-0.50439453125
1753242072,308,308,306,910,0.7169189453125,0.4522705078125,-0.507568359375
1753242072,308,309,304,913,0.71728515625,0.4647216796875,-0.5142822265625
1753242072,308,309,306,912,0.718994140625,0.47119140625,-0.5198974609375
1753242072,308,308,308,912,0.7215576171875,0.4727783203125,-0.521484375
1753242072,308,308,308,913,0.7222900390625,0.4700927734375,-0.5184326171875
1753242072,308,308,308,909,0.7225341796875,0.4630126953125,-0.5164794921875
1753242072,310,310,308,905,0.72509765625,0.45458984375,-0.52197265625
1753242072,308,308,316,899,0.7266845703125,0.44921875,-0.5311279296875
1753242072,308,309,307,899,0.725830078125,0.449462890625,-0.5382080078125
1753242072,308,308,308,898,0.7269287109375,0.4539794921875,-0.5411376953125
1753242072,308,308,308,895,0.72802734375,0.4573974609375,-0.5400390625
1753242072,308,308,308,883,0.7281494140625,0.458740234375,-0.5367431640625
1753242072,308,308,289,874,0.7303466796875,0.4593505859375,-0.5325927734375
1753242072,308,308,308,871,0.7335205078125,0.4583740234375,-0.52685546875
1753242072,310,310,308,854,0.7344970703125,0.4552001953125,-0.5205078125
1753242072,307,308,308,853,0.736572265625,0.455322265625,-0.5145263671875
1753242072,309,308,307,846,0.732177734375,0.45947265625,-0.50634765625
1753242072,308,308,308,837,0.7255859375,0.4637451171875,-0.49609375
1753242072,308,310,314,832,0.7322998046875,0.466064453125,-0.4879150390625
1753242072,295,310,306,829,0.7381591796875,0.459716796875,-0.481689453125
1753242072,308,308,308,820,0.7332763671875,0.44482421875,-0.4759521484375
1753242072,308,308,316,816,0.725830078125,0.42822265625,-0.4697265625
1753242072,310,308,307,816,0.7236328125,0.4190673828125,-0.4661865234375
1753242072,308,310,308,818,0.7220458984375,0.4227294921875,-0.4654541015625
1753242072,308,309,308,818,0.718017578125,0.43212890625,-0.4638671875
1753242072,308,308,308,820,0.7138671875,0.437744140625,-0.46240234375
1753242072,308,306,308,829,0.7115478515625,0.4373779296875,-0.4632568359375
1753242072,308,308,306,835,0.70849609375,0.4307861328125,-0.4637451171875
1753242072,308,308,307,837,0.70849609375,0.420166015625,-0.4613037109375
1753242072,308,308,307,849,0.71435546875,0.4130859375,-0.4603271484375
1753242072,308,308,306,852,0.71533203125,0.4107666015625,-0.459228515625
1753242072,308,306,307,853,0.7110595703125,0.4100341796875,-0.451416015625
1753242072,307,310,306,867,0.7105712890625,0.408447265625,-0.4410400390625
1753242072,308,308,310,869,0.701904296875,0.397216796875,-0.435546875
1753242072,308,307,308,887,0.688720703125,0.3775634765625,-0.4327392578125
1753242072,306,310,308,974,0.68505859375,0.364990234375,-0.4302978515625
1753242072,308,308,306,996,0.68896484375,0.3624267578125,-0.423828125
1753242072,307,310,309,1025,0.6951904296875,0.3662109375,-0.407958984375
1753242072,308,308,308,1083,0.6876220703125,0.3707275390625,-0.38232421875
1753242072,309,310,307,1117,0.6680908203125,0.372314453125,-0.3494873046875
1753242072,308,308,323,1160,0.6680908203125,0.372314453125,-0.3494873046875
1753242072,308,308,308,1278,0.61865234375,0.390380859375,-0.32470703125
1753242072,306,308,313,1323,0.6085205078125,0.39794921875,-0.321044921875
1753242072,307,308,315,1398,0.6085205078125,0.39794921875,-0.321044921875
1753242072,307,310,307,1456,0.587158203125,0.3326416015625,-0.354736328125
1753242072,308,310,308,1509,0.5552978515625,0.3201904296875,-0.3983154296875
1753242072,308,309,308,1595,0.5552978515625,0.3201904296875,-0.3983154296875
1753242072,308,306,308,1709,0.50634765625,0.28466796875,-0.36328125
1753242072,308,308,306,1774,0.5206298828125,0.3084716796875,-0.2938232421875
1753242072,308,308,306,1820,0.5206298828125,0.3084716796875,-0.2938232421875
1753242072,308,307,306,1899,0.664306640625,0.5340576171875,-0.550048828125
1753242073,309,309,307,1922,0.7864990234375,0.6971435546875,-0.8863525390625
1753242073,308,308,308,1954,0.7864990234375,0.6971435546875,-0.8863525390625
1753242073,308,308,306,2035,1.12109375,0.794921875,-0.9796142578125
1753242073,308,310,306,2062,1.47216796875,0.5089111328125,-0.5946044921875
1753242073,310,308,308,2089,1.47216796875,0.5089111328125,-0.5946044921875
1753242073,308,310,307,2113,1.6787109375,0.4111328125,-0.40966796875
1753242073,308,308,308,2126,1.4439697265625,0.4530029296875,-0.279052734375
1753242073,309,309,316,2115,1.4439697265625,0.4530029296875,-0.279052734375
1753242073,308,310,306,2106,0.705322265625,0.453857421875,-0.0692138671875
1753242073,308,308,308,2111,0.7310791015625,0.64453125,-0.16650390625
1753242073,308,308,308,2114,0.7310791015625,0.64453125,-0.16650390625
1753242073,308,309,308,2089,1.3726806640625,0.884033203125,-0.9222412109375
1753242073,310,308,308,2072,1.3726806640625,0.884033203125,-0.9222412109375
1753242073,308,309,309,2030,1.5037841796875,0.603271484375,-0.93505859375
1753242073,309,308,308,1973,1.06201171875,0.2410888671875,-0.418212890625
1753242073,308,308,309,1920,1.06201171875,0.2410888671875,-0.418212890625
1753242073,308,306,308,1821,0.824951171875,0.2630615234375,-0.2374267578125
1753242073,307,308,308,1773,0.626220703125,0.4122314453125,-0.0965576171875
1753242073,308,308,321,1718,0.626220703125,0.4122314453125,-0.0965576171875
1753242073,309,310,308,1666,0.61669921875,0.4586181640625,-0.04248046875
1753242073,308,308,308,1584,0.647216796875,0.46435546875,-0.1075439453125
1753242073,308,309,307,1519,0.647216796875,0.46435546875,-0.1075439453125
1753242073,308,308,312,1474,0.7005615234375,0.4222412109375,-0.182861328125
1753242073,310,308,307,1382,0.6700439453125,0.3092041015625,-0.288330078125
1753242073,308,306,307,1312,0.6700439453125,0.3092041015625,-0.288330078125
1753242073,308,308,323,1236,0.6434326171875,0.2607421875,-0.3709716796875
1753242073,308,307,306,1131,0.673583984375,0.3238525390625,-0.449462890625
1753242073,308,308,300,1083,0.673583984375,0.3238525390625,-0.449462890625
1753242073,307,309,307,1054,0.6895751953125,0.3720703125,-0.4307861328125
1753242073,307,308,308,1065,0.587646484375,0.3150634765625,-0.4246826171875
1753242073,308,308,308,1070,0.587646484375,0.3150634765625,-0.4246826171875
1753242073,307,308,308,1085,0.603515625,0.27490234375,-0.45947265625
1753242073,301,308,307,1157,0.6634521484375,0.2808837890625,-0.4510498046875
1753242073,308,308,308,1183,0.6634521484375,0.2808837890625,-0.4510498046875
1753242073,308,308,310,1201,0.702392578125,0.3104248046875,-0.4212646484375
1753242073,308,308,307,1242,0.704345703125,0.3363037109375,-0.3846435546875
1753242073,308,308,308,1306,0.6649169921875,0.328857421875,-0.32373046875
1753242073,308,308,305,1345,0.6285400390625,0.2908935546875,-0.2493896484375
1753242073,308,308,306,1442,0.609619140625,0.2589111328125,-0.1986083984375
1753242073,310,309,328,1531,0.593994140625,0.2535400390625,-0.1827392578125
1753242073,308,306,308,1584,0.5751953125,0.2630615234375,-0.1859130859375
1753242073,308,309,308,1683,0.541015625,0.2822265625,-0.1705322265625
1753242073,306,308,308,1739,0.476318359375,0.2889404296875,-0.1142578125
1753242073,307,306,292,1757,0.3992919921875,0.267578125,-0.0198974609375
1753242073,308,310,307,1882,0.3343505859375,0.2119140625,0.0894775390625
1753242073,308,308,308,1981,0.32275390625,0.162353515625,0.1163330078125
1753242073,308,306,308,2047,0.43115234375,0.215576171875,-0.073486328125
1753242073,309,308,306,2078,0.6065673828125,0.3907470703125,-0.4356689453125
1753242073,309,309,308,2127,0.81689453125,0.563720703125,-0.8118896484375
1753242073,294,308,310,2142,1.081787109375,0.6182861328125,-1.0565185546875
1753242073,308,308,300,2174,1.317626953125,0.6309814453125,-1.13525390625
1753242073,308,308,305,2231,1.5294189453125,0.6983642578125,-1.2607421875
1753242073,308,308,305,2244,1.8751220703125,0.8017578125,-0.9942626953125
1753242073,306,308,304,2246,2.0465087890625,0.6558837890625,-0.4620361328125
1753242073,308,309,304,2244,1.81640625,0.3109130859375,-0.0849609375
1753242073,308,308,308,2240,1.2928466796875,0.17626953125,0.1776123046875
1753242073,308,309,299,2247,0.8367919921875,0.3941650390625,-0.0010986328125
1753242073,309,308,308,2247,0.9476318359375,0.8408203125,-0.4615478515625
1753242073,308,308,309,2230,1.3857421875,1.0037841796875,-0.79296875
1753242073,308,309,292,2161,1.65087890625,0.71923828125,-0.8043212890625
1753242073,307,308,308,2142,1.5731201171875,0.4161376953125,-0.6241455078125
1753242073,308,308,304,2111,1.2955322265625,0.3294677734375,-0.47802734375
1753242073,307,307,310,2070,1.02099609375,0.374755859375,-0.40673828125
1753242073,308,308,308,1987,0.8360595703125,0.3876953125,-0.3155517578125
1753242073,307,308,305,1943,0.716796875,0.3548583984375,-0.1748046875
1753242073,309,306,307,1891,0.6307373046875,0.34619140625,-0.0458984375
1753242073,308,308,308,1774,0.581298828125,0.3486328125,-0.0029296875
1753242073,306,308,306,1694,0.5584716796875,0.33740234375,-0.0487060546875
1753242073,308,308,308,1624,0.55078125,0.303466796875,-0.1241455078125
1753242073,308,307,308,1501,0.542724609375,0.2867431640625,-0.18701171875
1753242073,308,309,308,1455,0.508544921875,0.301025390625,-0.23388671875
1753242073,308,308,306,1386,0.4752197265625,0.3070068359375,-0.2958984375
1753242073,308,310,308,1260,0.505615234375,0.3243408203125,-0.3675537109375
1753242073,308,308,306,1251,0.583984375,0.3270263671875,-0.396728515625
1753242073,307,306,307,1236,0.6688232421875,0.2972412109375,-0.387939453125
1753242073,308,308,308,1231,0.6639404296875,0.28271484375,-0.371337890625
1753242073,308,308,306,1251,0.60205078125,0.2686767578125,-0.373291015625
1753242073,308,306,307,1266,0.6190185546875,0.2484130859375,-0.4193115234375
1753242073,308,308,308,1323,0.6737060546875,0.2384033203125,-0.4681396484375
1753242073,308,308,308,1336,0.71875,0.2510986328125,-0.47607421875
1753242073,308,307,307,1348,0.73486328125,0.26708984375,-0.447998046875
1753242073,308,309,308,1398,0.7083740234375,0.2841796875,-0.391845703125
1753242073,308,308,308,1445,0.671142578125,0.29736328125,-0.3275146484375
1753242073,308,310,304,1483,0.6519775390625,0.283935546875,-0.2796630859375
1753242073,308,309,306,1543,0.64990234375,0.2542724609375,-0.2525634765625
1753242073,309,307,315,1596,0.6473388671875,0.22802734375,-0.236328125
1753242073,310,307,307,1635,0.61865234375,0.218505859375,-0.2227783203125
1753242073,308,308,308,1709,0.570556640625,0.2227783203125,-0.1993408203125
1753242073,308,307,298,1753,0.524658203125,0.22705078125,-0.1571044921875
1753242073,308,308,304,1791,0.461669921875,0.2052001953125,-0.0823974609375
1753242073,308,307,307,1878,0.376953125,0.1502685546875,0.0281982421875
1753242073,310,308,308,1949,0.3260498046875,0.134033203125,0.105224609375
1753242073,308,310,307,2018,0.3260498046875,0.134033203125,0.105224609375
1753242073,308,308,306,2087,0.5498046875,0.46533203125,-0.1292724609375
1753242073,308,308,304,2124,0.813720703125,0.709716796875,-0.428955078125
1753242073,309,307,304,2143,0.813720703125,0.709716796875,-0.428955078125
1753242073,307,308,306,2190,1.233154296875,0.593017578125,-1.075927734375
1753242073,308,308,313,2207,1.3831787109375,0.49267578125,-1.3206787109375
1753242073,308,310,304,2235,1.3831787109375,0.49267578125,-1.3206787109375
1753242073,308,309,306,2259,1.9744873046875,0.788818359375,-1.0218505859375
1753242074,308,292,301,2235,1.9874267578125,0.55419921875,-0.28125
1753242074,308,310,306,2275,1.9874267578125,0.55419921875,-0.28125
1753242074,308,307,316,2290,1.020751953125,0.285400390625,0.177978515625
1753242074,308,308,308,2287,0.9661865234375,0.7508544921875,-0.46435546875
1753242074,308,307,304,2287,0.9661865234375,0.7508544921875,-0.46435546875
1753242074,306,308,308,2242,1.661376953125,0.7332763671875,-0.8995361328125
1753242074,308,310,313,2215,1.597900390625,0.4581298828125,-0.6556396484375
1753242074,308,307,308,2176,1.597900390625,0.4581298828125,-0.6556396484375
1753242074,308,308,306,2108,0.998779296875,0.37646484375,-0.378662109375
1753242074,308,309,313,2063,0.7708740234375,0.4261474609375,-0.3656005859375
1753242074,308,308,308,2024,0.7708740234375,0.4261474609375,-0.3656005859375
1753242074,310,310,306,1920,0.5841064453125,0.4027099609375,-0.174560546875
1753242074,308,308,313,1861,0.52294921875,0.354736328125,-0.0823974609375
1753242074,309,309,308,1800,0.52294921875,0.354736328125,-0.0823974609375
1753242074,308,308,307,1681,0.4835205078125,0.287109375,-0.093505859375
1753242074,308,308,308,1613,0.49609375,0.247802734375,-0.1263427734375
1753242074,308,308,308,1574,0.49609375,0.247802734375,-0.1263427734375
1753242074,308,308,307,1506,0.483642578125,0.2698974609375,-0.16796875
1753242074,308,309,306,1471,0.49658203125,0.2515869140625,-0.2381591796875
1753242074,308,309,306,1447,0.49658203125,0.2515869140625,-0.2381591796875
1753242074,308,308,307,1440,0.6072998046875,0.234619140625,-0.4031982421875
1753242074,308,308,316,1447,0.6590576171875,0.2666015625,-0.4224853515625
1753242074,308,308,308,1468,0.6590576171875,0.2666015625,-0.4224853515625
1753242074,308,308,307,1506,0.656494140625,0.2691650390625,-0.4583740234375
1753242074,308,308,307,1533,0.7139892578125,0.241455078125,-0.4901123046875
1753242074,306,308,307,1543,0.7139892578125,0.241455078125,-0.4901123046875
1753242074,307,308,300,1580,0.708251953125,0.285400390625,-0.4027099609375
1753242074,308,309,313,1607,0.708251953125,0.285400390625,-0.4027099609375
1753242074,307,307,307,1638,0.6397705078125,0.299560546875,-0.3472900390625
1753242074,308,309,309,1686,0.5765380859375,0.30908203125,-0.3126220703125
1753242074,307,308,306,1718,0.5765380859375,0.30908203125,-0.3126220703125
1753242074,309,310,308,1750,0.58984375,0.2930908203125,-0.2740478515625
1753242074,307,308,308,1794,0.6793212890625,0.288330078125,-0.2183837890625
1753242074,307,308,308,1819,0.6793212890625,0.288330078125,-0.2183837890625
1753242074,308,308,323,1850,0.6705322265625,0.2919921875,-0.2127685546875
1753242074,306,310,306,1941,0.52587890625,0.2115478515625,-0.1387939453125
1753242074,308,308,307,1996,0.52587890625,0.2115478515625,-0.1387939453125
1753242074,308,308,307,2056,0.422119140625,0.21728515625,-0.0491943359375
1753242074,307,308,307,2128,0.379638671875,0.3753662109375,0.0128173828125
1753242074,308,308,307,2178,0.379638671875,0.3753662109375,0.0128173828125
1753242074,308,308,306,2207,0.562744140625,0.49951171875,-0.0648193359375
1753242074,309,308,306,2247,1.163818359375,0.7259521484375,-0.5938720703125
1753242074,308,307,306,2261,1.163818359375,0.7259521484375,-0.5938720703125
1753242074,309,308,306,2281,1.4947509765625,0.76611328125,-0.963623046875
1753242074,308,308,304,2293,1.8828125,0.6038818359375,-1.2430419921875
1753242074,308,308,307,2284,1.8828125,0.6038818359375,-1.2430419921875
1753242074,309,306,304,2282,1.848388671875,0.5615234375,-0.9361572265625
1753242074,308,308,308,2290,1.10693359375,0.4429931640625,-0.0008544921875
1753242074,308,307,308,2295,1.10693359375,0.4429931640625,-0.0008544921875
1753242074,308,306,308,2287,1.109619140625,0.9105224609375,-0.3148193359375
1753242074,308,308,316,2260,1.427978515625,1.0975341796875,-0.7252197265625
1753242074,308,308,315,2233,1.6341552734375,0.871826171875,-0.8536376953125
1753242074,308,310,315,2194,1.5450439453125,0.5797119140625,-0.7486572265625
1753242074,310,308,308,2128,1.2713623046875,0.3690185546875,-0.5338134765625
1753242074,309,308,308,2079,0.987060546875,0.2708740234375,-0.3502197265625
1753242074,308,310,316,2030,0.771484375,0.302978515625,-0.276611328125
1753242074,307,308,308,1941,0.6397705078125,0.4019775390625,-0.2442626953125
1753242074,307,308,307,1874,0.57763671875,0.458740234375,-0.1629638671875
1753242074,309,308,307,1791,0.5364990234375,0.4150390625,-0.0653076171875
1753242074,308,308,308,1653,0.49267578125,0.3267822265625,-0.0201416015625
1753242074,308,308,300,1579,0.467529296875,0.244873046875,-0.027099609375
1753242074,308,308,308,1527,0.46142578125,0.19677734375,-0.0625
1753242074,308,308,307,1437,0.445068359375,0.183349609375,-0.1236572265625
1753242074,308,306,308,1375,0.439453125,0.16259765625,-0.232421875
1753242074,308,310,316,1343,0.4871826171875,0.2010498046875,-0.3375244140625
1753242074,308,307,308,1317,0.5384521484375,0.3045654296875,-0.3770751953125
1753242074,308,308,308,1323,0.527099609375,0.3570556640625,-0.416748046875
1753242074,308,308,316,1357,0.5394287109375,0.3226318359375,-0.4688720703125
1753242074,308,308,308,1419,0.623046875,0.2552490234375,-0.4931640625
1753242074,306,306,308,1449,0.6927490234375,0.231201171875,-0.503173828125
1753242074,308,308,304,1472,0.71923828125,0.233154296875,-0.4893798828125
1753242074,309,308,308,1523,0.7052001953125,0.241455078125,-0.4388427734375
1753242074,308,309,329,1555,0.671630859375,0.2628173828125,-0.3768310546875
1753242074,308,310,324,1592,0.654052734375,0.2801513671875,-0.334228515625
1753242074,308,308,307,1656,0.6470947265625,0.298583984375,-0.30517578125
1753242074,308,308,308,1689,0.6336669921875,0.3175048828125,-0.2669677734375
1753242074,308,308,323,1716,0.6138916015625,0.3135986328125,-0.2220458984375
1753242074,308,308,306,1762,0.6051025390625,0.283203125,-0.1883544921875
1753242074,308,308,305,1798,0.613525390625,0.2479248046875,-0.1553955078125
1753242074,307,306,293,1846,0.5982666015625,0.218505859375,-0.102294921875
1753242074,308,308,308,1959,0.513427734375,0.160888671875,-0.0260009765625
1753242074,308,308,308,2012,0.3974609375,0.1395263671875,0.057373046875
1753242074,308,308,306,2074,0.301513671875,0.2183837890625,0.1151123046875
1753242074,308,308,306,2158,0.3206787109375,0.354736328125,0.1148681640625
1753242074,308,308,307,2194,0.5616455078125,0.43798828125,-0.004638671875
1753242074,308,308,313,2225,0.9097900390625,0.4527587890625,-0.306884765625
1753242074,309,309,306,2249,1.2015380859375,0.5770263671875,-0.72412109375
1753242074,308,309,304,2267,1.4549560546875,0.7088623046875,-1.0928955078125
1753242074,308,308,316,2277,1.7108154296875,0.79833984375,-1.2540283203125
1753242074,308,309,305,2296,1.8914794921875,0.8543701171875,-1.1702880859375
1753242074,308,308,307,2308,1.8878173828125,0.6748046875,-0.8876953125
1753242074,308,308,316,2308,1.5938720703125,0.35595703125,-0.4075927734375
1753242074,308,308,308,2320,1.1397705078125,0.320556640625,-0.0555419921875
1753242074,308,308,307,2323,1.010498046875,0.7247314453125,-0.1998291015625
1753242074,308,309,304,2321,1.329833984375,1.0408935546875,-0.6126708984375
1753242074,308,308,308,2287,1.6815185546875,0.927734375,-0.843505859375
1753242074,308,308,308,2258,1.722412109375,0.6654052734375,-0.8001708984375
1753242074,308,308,315,2220,1.489501953125,0.4332275390625,-0.6396484375
1753242074,308,308,310,2151,1.1773681640625,0.2640380859375,-0.45458984375
1753242074,308,308,308,2087,0.873291015625,0.2325439453125,-0.3182373046875
1753242075,308,308,300,2035,0.6435546875,0.3018798828125,-0.2410888671875
1753242075,308,309,308,1948,0.5164794921875,0.3865966796875,-0.1390380859375
1753242075,308,308,309,1882,0.459716796875,0.4111328125,-0.0155029296875
1753242075,307,310,308,1826,0.4285888671875,0.3623046875,0.046875
1753242075,308,308,306,1704,0.4195556640625,0.3001708984375,0.0274658203125
1753242075,308,308,307,1628,0.4366455078125,0.253173828125,-0.033935546875
1753242075,308,309,316,1598,0.44482421875,0.2261962890625,-0.1019287109375
1753242075,308,307,308,1529,0.452392578125,0.1734619140625,-0.1884765625
1753242075,309,309,327,1494,0.509765625,0.1246337890625,-0.2835693359375
1753242075,307,308,315,1469,0.568115234375,0.165283203125,-0.3516845703125
1753242075,308,308,308,1478,0.5552978515625,0.262939453125,-0.4110107421875
1753242075,307,308,308,1497,0.5440673828125,0.3211669921875,-0.4776611328125
1753242075,309,310,308,1519,0.601806640625,0.3126220703125,-0.5352783203125
1753242075,308,309,308,1546,0.6785888671875,0.291259765625,-0.5635986328125
1753242075,308,309,306,1568,0.712158203125,0.2679443359375,-0.541259765625
1753242075,309,308,304,1588,0.690185546875,0.247802734375,-0.472900390625
1753242075,308,308,308,1635,0.6519775390625,0.2467041015625,-0.4033203125
1753242075,308,308,306,1669,0.6279296875,0.264404296875,-0.3572998046875
1753242075,308,306,307,1695,0.6279296875,0.264404296875,-0.3572998046875
1753242075,310,308,306,1742,0.60009765625,0.3160400390625,-0.259765625
1753242075,308,308,306,1761,0.5887451171875,0.3194580078125,-0.2047119140625
1753242075,308,308,328,1787,0.5887451171875,0.3194580078125,-0.2047119140625
1753242075,308,308,307,1843,0.626708984375,0.284912109375,-0.1527099609375
1753242075,308,308,308,1897,0.626953125,0.25830078125,-0.1328125
1753242075,310,308,308,1948,0.626953125,0.25830078125,-0.1328125
1753242075,308,310,307,2050,0.532958984375,0.280517578125,-0.064208984375
1753242075,308,308,306,2104,0.45703125,0.3070068359375,0.0704345703125
1753242075,308,308,306,2151,0.45703125,0.3070068359375,0.0704345703125
1753242075,308,308,306,2203,0.5361328125,0.3204345703125,0.15234375
1753242075,308,308,307,2224,0.737548828125,0.4295654296875,-0.1837158203125
1753242075,308,308,315,2249,0.737548828125,0.4295654296875,-0.1837158203125
1753242075,308,308,304,2287,1.287841796875,0.8533935546875,-1.1336669921875
1753242075,308,308,316,2293,1.56689453125,0.8980712890625,-1.3671875
1753242075,308,308,294,2296,1.56689453125,0.8980712890625,-1.3671875
1753242075,309,308,305,2273,2.0050048828125,0.62109375,-0.8697509765625
1753242075,308,308,308,2271,1.7171630859375,0.29541015625,-0.3248291015625
1753242075,308,308,306,2275,1.7171630859375,0.29541015625,-0.3248291015625
1753242075,308,308,308,2293,0.88623046875,0.7996826171875,-0.21728515625
1753242075,307,308,310,2296,1.19677734375,1.186279296875,-0.6795654296875
1753242075,308,308,308,2292,1.19677734375,1.186279296875,-0.6795654296875
1753242075,309,309,309,2263,1.759521484375,0.6920166015625,-0.8402099609375
1753242075,308,308,310,2231,1.759521484375,0.6920166015625,-0.8402099609375
1753242075,309,308,319,2195,1.5413818359375,0.410888671875,-0.635009765625
1753242075,310,308,308,2105,0.88720703125,0.2335205078125,-0.2684326171875
1753242075,308,308,308,2041,0.88720703125,0.2335205078125,-0.2684326171875
1753242075,308,309,315,1983,0.6646728515625,0.3018798828125,-0.1776123046875
1753242075,308,308,310,1890,0.49951171875,0.4012451171875,0.021728515625
1753242075,308,307,307,1816,0.49951171875,0.4012451171875,0.021728515625
1753242075,308,308,308,1753,0.467041015625,0.3621826171875,0.0977783203125
1753242075,308,309,308,1607,0.426513671875,0.26123046875,-0.0267333984375
1753242075,308,308,308,1541,0.426513671875,0.26123046875,-0.0267333984375
1753242075,308,309,308,1483,0.435302734375,0.24169921875,-0.1417236328125
1753242075,308,308,308,1397,0.4925537109375,0.1932373046875,-0.294677734375
1753242075,307,308,306,1355,0.4925537109375,0.1932373046875,-0.294677734375
1753242075,308,306,308,1357,0.5301513671875,0.229248046875,-0.34765625
1753242075,308,308,306,1386,0.490234375,0.3641357421875,-0.4681396484375
1753242075,310,310,307,1419,0.490234375,0.3641357421875,-0.4681396484375
1753242075,308,308,318,1447,0.547119140625,0.333740234375,-0.513427734375
1753242075,308,308,308,1490,0.7431640625,0.187744140625,-0.4676513671875
1753242075,308,306,307,1508,0.7431640625,0.187744140625,-0.4676513671875
1753242075,308,307,308,1541,0.7269287109375,0.1842041015625,-0.4111328125
1753242075,309,308,308,1611,0.6243896484375,0.2066650390625,-0.32861328125
1753242075,309,308,304,1656,0.6243896484375,0.2066650390625,-0.32861328125
1753242075,308,308,307,1693,0.581787109375,0.20751953125,-0.29931640625
1753242075,307,308,308,1761,0.565185546875,0.2110595703125,-0.260498046875
1753242075,308,308,307,1790,0.582275390625,0.2275390625,-0.2213134765625
1753242075,309,308,328,1834,0.635986328125,0.2838134765625,-0.209228515625
1753242075,309,308,306,1920,0.678466796875,0.337890625,-0.204833984375
1753242075,308,308,308,1973,0.64892578125,0.3323974609375,-0.1636962890625
1753242075,308,308,309,2049,0.5699462890625,0.340576171875,-0.10888671875
1753242075,308,308,306,2153,0.4833984375,0.37158203125,-0.006591796875
1753242075,308,309,306,2190,0.433349609375,0.29638671875,0.1693115234375
1753242075,308,308,307,2240,0.47021484375,0.150634765625,0.2576904296875
1753242075,309,309,307,2287,0.624755859375,0.2095947265625,0.1070556640625
1753242075,308,308,295,2299,0.8560791015625,0.482177734375,-0.244873046875
1753242075,306,309,313,2318,1.0692138671875,0.7352294921875,-0.613525390625
1753242075,309,309,306,2333,1.267822265625,0.8331298828125,-0.8763427734375
1753242075,308,308,306,2339,1.530029296875,0.8192138671875,-1.03125
1753242075,308,308,305,2340,1.8485107421875,0.7781982421875,-1.0631103515625
1753242075,309,308,308,2321,2.0404052734375,0.664306640625,-0.88037109375
1753242075,306,308,331,2320,1.785400390625,0.4224853515625,-0.4534912109375
1753242075,308,308,306,2330,1.1650390625,0.3109130859375,-0.025634765625
1753242075,308,308,308,2349,0.8106689453125,0.6146240234375,0.0211181640625
1753242075,308,307,308,2347,1.0390625,0.9901123046875,-0.328369140625
1753242075,308,308,308,2344,1.5213623046875,1.0001220703125,-0.68798828125
1753242075,304,309,310,2299,1.7867431640625,0.7562255859375,-0.810302734375
1753242075,308,308,308,2275,1.6953125,0.5274658203125,-0.7132568359375
1753242075,308,309,318,2242,1.4078369140625,0.3680419921875,-0.52978515625
1753242075,308,309,310,2161,1.098388671875,0.3048095703125,-0.3599853515625
1753242075,308,308,323,2089,0.827392578125,0.3612060546875,-0.2459716796875
1753242075,306,310,310,2035,0.6275634765625,0.41015625,-0.1925048828125
1753242075,308,309,308,1922,0.5296630859375,0.3983154296875,-0.147216796875
1753242075,308,308,313,1862,0.5020751953125,0.369873046875,-0.069580078125
1753242075,308,309,308,1798,0.4931640625,0.28515625,0.01708984375
1753242075,308,307,308,1686,0.472412109375,0.2017822265625,0.0546875
1753242075,308,310,308,1610,0.448486328125,0.18408203125,0.0238037109375
1753242075,308,307,313,1564,0.43701171875,0.205078125,-0.05078125
1753242075,306,309,307,1514,0.4232177734375,0.24169921875,-0.1368408203125
1753242075,308,308,310,1494,0.4312744140625,0.2703857421875,-0.22412109375
1753242075,308,310,306,1483,0.476318359375,0.2894287109375,-0.3095703125
1753242076,308,308,308,1504,0.520263671875,0.326416015625,-0.38720703125
1753242076,308,308,308,1531,0.5721435546875,0.3509521484375,-0.455810546875
1753242076,308,308,305,1553,0.646484375,0.3253173828125,-0.5069580078125
1753242076,308,308,307,1582,0.705322265625,0.275634765625,-0.525390625
1753242076,308,309,310,1602,0.7232666015625,0.246826171875,-0.4935302734375
1753242076,307,307,306,1627,0.70556640625,0.2364501953125,-0.4183349609375
1753242076,308,309,308,1669,0.6748046875,0.2230224609375,-0.340576171875
1753242076,309,308,310,1693,0.642578125,0.2196044921875,-0.2852783203125
1753242076,308,307,308,1730,0.60791015625,0.2376708984375,-0.24609375
1753242076,308,308,308,1759,0.6015625,0.296875,-0.2200927734375
1753242076,308,308,315,1786,0.6212158203125,0.3670654296875,-0.2060546875
1753242076,308,308,308,1826,0.638427734375,0.37890625,-0.1766357421875
1753242076,308,308,308,1899,0.6422119140625,0.3262939453125,-0.119384765625
1753242076,308,308,309,1968,0.5997314453125,0.2479248046875,-0.061767578125
1753242076,308,310,324,2026,0.497314453125,0.168701171875,-0.0296630859375
1753242076,308,308,308,2123,0.397216796875,0.14404296875,0.06640625
1753242076,307,307,306,2175,0.3548583984375,0.1658935546875,0.247314453125
1753242076,309,308,306,2233,0.3961181640625,0.220703125,0.3431396484375
1753242076,308,308,305,2263,0.5382080078125,0.3836669921875,0.1292724609375
1753242076,308,308,308,2280,0.7884521484375,0.67236328125,-0.4293212890625
1753242076,308,308,306,2299,1.14013671875,0.8834228515625,-1.065185546875
1753242076,308,308,304,2334,1.5235595703125,0.92041015625,-1.484375
1753242076,308,308,302,2333,1.87060546875,0.8753662109375,-1.470458984375
1753242076,308,309,300,2344,2.1302490234375,0.7352294921875,-1.1121826171875
1753242076,307,306,307,2340,2.0579833984375,0.4605712890625,-0.553466796875
1753242076,308,310,308,2330,1.5062255859375,0.25830078125,-0.024658203125
1753242076,308,308,308,2341,0.923828125,0.50244140625,0.0189208984375
1753242076,306,310,308,2359,0.8948974609375,0.981201171875,-0.3870849609375
1753242076,308,308,323,2359,1.329345703125,1.1163330078125,-0.7393798828125
1753242076,308,308,324,2341,1.6990966796875,0.8740234375,-0.810791015625
1753242076,306,308,308,2295,1.7373046875,0.5992431640625,-0.7264404296875
1753242076,310,308,310,2266,1.52978515625,0.4091796875,-0.5858154296875
1753242076,309,309,318,2218,1.52978515625,0.4091796875,-0.5858154296875
1753242076,308,308,306,2119,0.9371337890625,0.29833984375,-0.2623291015625
1753242076,308,308,299,2058,0.70068359375,0.3521728515625,-0.171142578125
1753242076,310,308,313,1981,0.70068359375,0.3521728515625,-0.171142578125
1753242076,310,308,306,1874,0.5006103515625,0.356689453125,0.0078125
1753242076,307,308,308,1794,0.4476318359375,0.329833984375,0.0908203125
1753242076,308,308,308,1715,0.4476318359375,0.329833984375,0.0908203125
1753242076,308,308,307,1600,0.3675537109375,0.2628173828125,0.012451171875
1753242076,308,308,315,1508,0.3638916015625,0.2086181640625,-0.09228515625
1753242076,310,306,308,1455,0.3638916015625,0.2086181640625,-0.09228515625
1753242076,307,308,308,1377,0.447021484375,0.1719970703125,-0.21630859375
1753242076,309,308,307,1365,0.499267578125,0.2254638671875,-0.2637939453125
1753242076,308,309,313,1357,0.499267578125,0.2254638671875,-0.2637939453125
1753242076,308,310,306,1401,0.51416015625,0.31787109375,-0.4228515625
1753242076,308,309,315,1441,0.5731201171875,0.3153076171875,-0.4947509765625
1753242076,308,307,308,1464,0.5731201171875,0.3153076171875,-0.4947509765625
1753242076,308,308,308,1506,0.7164306640625,0.26171875,-0.536865234375
1753242076,307,306,308,1533,0.712158203125,0.2462158203125,-0.4798583984375
1753242076,308,308,318,1572,0.712158203125,0.2462158203125,-0.4798583984375
1753242076,308,309,308,1628,0.6549072265625,0.1881103515625,-0.3985595703125
1753242076,308,308,306,1655,0.649169921875,0.20068359375,-0.3817138671875
1753242076,308,308,308,1689,0.649169921875,0.20068359375,-0.3817138671875
1753242076,307,310,306,1748,0.6329345703125,0.2703857421875,-0.27734375
1753242076,308,309,307,1786,0.6329345703125,0.2703857421875,-0.27734375
1753242076,308,304,308,1815,0.61865234375,0.3087158203125,-0.221435546875
1753242076,308,310,306,1880,0.546630859375,0.31884765625,-0.1849365234375
1753242076,307,308,306,1946,0.546630859375,0.31884765625,-0.1849365234375
1753242076,308,308,304,1997,0.5389404296875,0.29296875,-0.1480712890625
1753242076,308,309,307,2085,0.4676513671875,0.2462158203125,0.0726318359375
1753242076,308,308,306,2151,0.4676513671875,0.2462158203125,0.0726318359375
1753242076,308,308,306,2203,0.4686279296875,0.2705078125,0.2052001953125
1753242076,308,308,306,2268,0.7635498046875,0.47705078125,-0.107421875
1753242076,310,307,310,2296,0.7635498046875,0.47705078125,-0.107421875
1753242076,308,308,306,2320,1.0155029296875,0.75634765625,-0.607421875
1753242076,308,308,307,2335,1.6162109375,0.843505859375,-1.2418212890625
1753242076,307,308,313,2345,1.6162109375,0.843505859375,-1.2418212890625
1753242076,307,309,307,2357,1.9296875,0.655029296875,-1.080078125
1753242076,308,309,308,2356,1.7633056640625,0.2879638671875,-0.290771484375
1753242076,308,308,321,2364,1.7633056640625,0.2879638671875,-0.290771484375
1753242076,308,308,299,2375,1.166015625,0.3680419921875,-0.0279541015625
1753242076,308,308,308,2375,1.2332763671875,1.07763671875,-0.598388671875
1753242076,309,308,315,2364,1.2332763671875,1.07763671875,-0.598388671875
1753242076,308,310,302,2335,1.6497802734375,0.9404296875,-0.8243408203125
1753242076,306,308,309,2277,1.5997314453125,0.387939453125,-0.6312255859375
1753242076,308,313,310,2233,1.5997314453125,0.387939453125,-0.6312255859375
1753242076,306,307,309,2178,1.2769775390625,0.2618408203125,-0.4395751953125
1753242076,308,308,308,2074,0.9537353515625,0.29296875,-0.27880859375
1753242076,308,307,313,1996,0.7227783203125,0.374267578125,-0.172119140625
1753242076,307,308,313,1920,0.5919189453125,0.407958984375,-0.0863037109375
1753242076,308,308,309,1787,0.508056640625,0.419189453125,-0.0086669921875
1753242076,308,310,306,1698,0.4417724609375,0.3995361328125,0.0301513671875
1753242076,307,307,308,1646,0.3980712890625,0.3424072265625,0.013427734375
1753242076,308,309,306,1504,0.3839111328125,0.2635498046875,-0.052490234375
1753242076,308,308,308,1443,0.3953857421875,0.19970703125,-0.1455078125
1753242076,308,308,306,1375,0.427001953125,0.1756591796875,-0.2265625
1753242076,308,310,307,1308,0.46923828125,0.2047119140625,-0.28759765625
1753242076,308,308,307,1317,0.491455078125,0.2872314453125,-0.3487548828125
1753242076,308,308,326,1321,0.49609375,0.33935546875,-0.4215087890625
1753242076,308,308,310,1363,0.5260009765625,0.3145751953125,-0.4803466796875
1753242076,308,308,307,1398,0.5948486328125,0.260009765625,-0.49951171875
1753242076,308,308,324,1427,0.67724609375,0.2066650390625,-0.4837646484375
1753242076,307,308,308,1476,0.7255859375,0.170654296875,-0.4503173828125
1753242076,308,300,306,1506,0.7122802734375,0.18505859375,-0.40576171875
1753242076,308,309,306,1534,0.671142578125,0.239990234375,-0.3565673828125
1753242076,308,309,307,1611,0.6390380859375,0.2900390625,-0.3255615234375
1753242076,308,308,306,1659,0.6092529296875,0.3138427734375,-0.3131103515625
1753242076,308,308,313,1691,0.5701904296875,0.2930908203125,-0.2760009765625
1753242076,308,308,308,1763,0.558349609375,0.2384033203125,-0.209228515625
1753242077,309,309,322,1803,0.622802734375,0.20458984375,-0.1591796875
1753242077,308,310,315,1850,0.680419921875,0.1895751953125,-0.1229248046875
1753242077,307,308,307,1960,0.6514892578125,0.2188720703125,-0.073974609375
1753242077,308,308,308,2039,0.5714111328125,0.3367919921875,-0.0408935546875
1753242077,308,308,306,2113,0.5009765625,0.417724609375,0.037841796875
1753242077,308,308,306,2225,0.4541015625,0.32275390625,0.2122802734375
1753242077,308,308,306,2271,0.415771484375,0.1932373046875,0.320556640625
1753242077,308,308,306,2306,0.4534912109375,0.2940673828125,0.182373046875
1753242077,309,308,306,2345,0.6297607421875,0.548583984375,-0.2066650390625
1753242077,307,309,306,2370,0.932373046875,0.7662353515625,-0.656005859375
1753242077,308,308,318,2392,1.2889404296875,0.8184814453125,-1.0028076171875
1753242077,308,308,308,2395,1.66162109375,0.7025146484375,-1.153564453125
1753242077,308,307,308,2398,2.03369140625,0.5760498046875,-1.0582275390625
1753242077,308,308,308,2395,2.2191162109375,0.5186767578125,-0.8065185546875
1753242077,308,308,306,2379,1.8929443359375,0.37353515625,-0.392333984375
1753242077,308,308,316,2381,1.17724609375,0.3397216796875,-0.0133056640625
1753242077,308,308,306,2391,0.7376708984375,0.696533203125,-0.0491943359375
1753242077,308,310,306,2409,0.919921875,1.05517578125,-0.412841796875
1753242077,308,308,304,2407,1.41357421875,1.0380859375,-0.7261962890625
1753242077,308,310,313,2392,1.7391357421875,0.7490234375,-0.80615234375
1753242077,308,308,307,2334,1.7161865234375,0.4918212890625,-0.7042236328125
1753242077,308,307,308,2296,1.4859619140625,0.357421875,-0.5225830078125
1753242077,308,309,315,2243,1.2021484375,0.3087158203125,-0.34814453125
1753242077,308,306,308,2141,0.932861328125,0.3372802734375,-0.2203369140625
1753242077,308,308,313,2076,0.722900390625,0.3729248046875,-0.1697998046875
1753242077,308,308,307,2018,0.6065673828125,0.3690185546875,-0.157958984375
1753242077,308,308,307,1904,0.5548095703125,0.3768310546875,-0.1156005859375
1753242077,308,308,304,1824,0.5142822265625,0.379638671875,-0.07568359375
1753242077,308,308,309,1759,0.4886474609375,0.351318359375,-0.0771484375
1753242077,308,308,306,1641,0.4671630859375,0.293212890625,-0.1021728515625
1753242077,308,310,306,1588,0.45068359375,0.2220458984375,-0.127197265625
